,ms,accelX,accelY,accelZ,accelWithGX,accelWithGY,accelWithGZ,rotRateAlpha,rotRateBeta,rotRateGamma,interval
0,105.0,0.1,0.0,0.0,0.2,7.1000000000000005,6.9,-0.5,-0.9000000000000001,-2.4000000000000004,16
1,118.0,-0.1,0.0,0.0,0.0,7.1000000000000005,6.9,-1.4,0.30000000000000004,-4.300000000000001,16
2,135.0,-0.2,-0.1,0.0,-0.1,7.0,6.9,-1.9,0.2,-4.5,16
3,152.0,-0.2,0.0,0.1,-0.2,7.1000000000000005,7.1000000000000005,-1.8000000000000003,-0.1,-3.2,16
4,168.0,-0.1,0.0,0.2,-0.1,7.1000000000000005,7.2,0.5,-1.0,-1.5,16
5,185.0,-0.1,0.0,0.1,-0.1,7.1000000000000005,7.1000000000000005,1.6,-1.6,-1.2000000000000002,16
6,202.0,-0.1,0.0,0.0,-0.1,7.1000000000000005,7.0,2.6,-0.9000000000000001,-0.1,16
7,218.0,0.0,0.0,0.0,0.0,7.2,7.0,2.5,-1.5,0.6000000000000001,16
8,235.0,0.0,0.0,-0.1,0.0,7.1000000000000005,6.9,2.4000000000000004,-1.6,1.1,16
9,252.0,0.1,0.0,-0.1,0.1,7.2,6.9,2.5,-1.3,1.7,16
10,269.0,0.1,0.0,-0.1,0.1,7.1000000000000005,6.800000000000001,3.3000000000000007,-2.1,1.1,16
11,285.0,0.0,0.0,-0.2,0.0,7.1000000000000005,6.800000000000001,2.7,-3.4,0.5,16
12,302.0,0.0,0.0,-0.1,0.0,7.2,6.800000000000001,1.6,-3.6000000000000005,0.8,16
13,318.0,0.1,-0.1,-0.1,0.2,7.1000000000000005,6.800000000000001,-0.5,-2.3,1.7,16
14,335.0,0.1,-0.1,0.0,0.2,7.0,6.9,-0.9000000000000001,0.8,0.9000000000000001,16
15,352.0,0.0,-0.1,0.0,0.1,7.0,6.9,0.2,0.8,0.2,16
16,368.0,-0.2,-0.1,0.0,-0.1,7.1000000000000005,6.9,3.1,-2.5,-0.5,16
17,385.0,-0.2,0.0,-0.2,-0.1,7.1000000000000005,6.7,2.1,-6.1000000000000005,0.9000000000000001,16
18,402.0,-0.1,-0.1,-0.2,0.0,7.1000000000000005,6.7,0.5,-6.1000000000000005,1.7,16
19,418.0,0.0,-0.1,-0.1,0.1,7.1000000000000005,6.800000000000001,-2.8,-3.9,0.9000000000000001,16
20,435.0,0.0,0.0,0.1,0.1,7.1000000000000005,6.9,-4.1,-2.2,0.6000000000000001,16
21,452.0,0.1,0.0,0.1,0.2,7.1000000000000005,7.0,-3.4,-0.5,0.9000000000000001,16
22,468.0,0.0,0.0,0.1,0.1,7.1000000000000005,7.0,-2.7,-0.5,0.8,16
23,485.0,-0.1,0.0,0.0,0.0,7.1000000000000005,6.9,-0.30000000000000004,-0.9000000000000001,0.8,16
24,502.0,0.0,0.1,-0.2,0.1,7.2,6.7,1.9,-1.4,2.1,16
25,518.0,0.1,0.2,-0.30000000000000004,0.2,7.300000000000001,6.6000000000000005,2.4000000000000004,-1.9,2.7,16
26,535.0,0.2,0.30000000000000004,-0.4,0.4,7.4,6.5,2.0,-3.4,1.4,16
27,552.0,0.2,0.4,-0.30000000000000004,0.4,7.5,6.6000000000000005,-1.2000000000000002,-4.2,0.0,16
28,568.0,0.2,0.4,-0.2,0.4,7.6000000000000005,6.7,-2.9,-5.2,0.1,16
29,585.0,0.4,0.30000000000000004,0.0,0.6000000000000001,7.4,6.9,-4.1,-4.6,1.3,16
30,602.0,0.7000000000000001,0.2,0.2,0.9,7.4,7.0,-2.2,-2.7,0.0,16
31,618.0,0.8,0.2,0.1,1.0,7.300000000000001,6.800000000000001,-0.30000000000000004,-1.3,-1.4,16
32,635.0,0.7000000000000001,0.1,-0.2,1.0,7.300000000000001,6.6000000000000005,3.7000000000000006,2.9,-4.5,16
33,652.0,0.4,0.2,-0.6000000000000001,0.7000000000000001,7.300000000000001,6.2,5.4,4.300000000000001,-5.6,16
34,668.0,0.30000000000000004,0.1,-0.9,0.5,7.300000000000001,5.9,5.300000000000001,1.3,-5.0,16
35,685.0,0.2,0.0,-1.1,0.5,7.300000000000001,5.7,4.6,-1.6,-4.800000000000001,16
36,702.0,0.1,0.0,-1.2000000000000002,0.30000000000000004,7.2,5.5,0.6000000000000001,-5.4,-4.5,16
37,718.0,-0.1,0.0,-1.1,0.1,7.300000000000001,5.6000000000000005,-5.1000000000000005,-7.500000000000001,-3.1,16
38,735.0,-0.2,0.0,-1.0,0.1,7.2,5.7,-7.699999999999999,-7.8,-1.8000000000000003,16
39,752.0,-0.2,0.1,-0.7000000000000001,0.0,7.300000000000001,6.0,-11.5,-10.200000000000001,1.1,16
40,768.0,-0.1,0.2,-0.30000000000000004,0.1,7.300000000000001,6.4,-12.4,-12.8,3.8,16
41,785.0,-0.1,0.1,-0.2,0.2,7.300000000000001,6.5,-12.0,-13.5,4.300000000000001,16
42,802.0,0.0,0.2,-0.1,0.4,7.300000000000001,6.7,-11.3,-12.0,3.9,16
43,818.0,-0.2,0.2,0.2,0.2,7.300000000000001,6.9,-11.4,-9.5,3.5,16
44,835.0,-0.2,0.2,0.2,0.2,7.300000000000001,7.0,-11.2,-6.600000000000001,5.300000000000001,16
45,852.0,-0.2,0.2,0.30000000000000004,0.30000000000000004,7.300000000000001,7.2,-10.5,-5.9,6.0,16
46,868.0,-0.1,0.30000000000000004,0.4,0.4,7.4,7.2,-7.500000000000001,-6.600000000000001,5.8,16
47,885.0,-0.1,0.30000000000000004,0.4,0.4,7.4,7.300000000000001,-4.800000000000001,-6.0,4.2,16
48,902.0,-0.1,0.30000000000000004,0.4,0.4,7.4,7.300000000000001,-4.4,-5.500000000000001,3.8,16
49,918.0,-0.1,0.30000000000000004,0.4,0.4,7.300000000000001,7.300000000000001,-4.800000000000001,-2.8,4.1,16
50,935.0,0.0,0.2,0.4,0.5,7.2,7.4,-3.6000000000000005,0.8,4.9,16
51,952.0,0.1,0.2,0.4,0.6000000000000001,7.2,7.300000000000001,-1.7,1.6,4.9,16
52,968.0,0.30000000000000004,0.1,0.2,0.8,7.2,7.1000000000000005,2.1,1.0,2.7,16
53,985.0,0.2,0.2,0.0,0.7000000000000001,7.2,6.9,3.0,0.2,0.4,16
54,1002.0,0.2,0.1,-0.2,0.7000000000000001,7.2,6.800000000000001,2.1,0.9000000000000001,0.2,16
55,1018.0,0.2,0.1,-0.1,0.7000000000000001,7.1000000000000005,6.800000000000001,0.30000000000000004,2.6,0.2,16
56,1035.0,0.2,0.0,-0.1,0.7000000000000001,7.1000000000000005,6.800000000000001,0.6000000000000001,0.8,0.0,16
57,1052.0,0.30000000000000004,-0.1,-0.2,0.8,7.0,6.7,3.0,-0.30000000000000004,-1.7,16
58,1068.0,0.2,-0.1,-0.30000000000000004,0.8,7.0,6.6000000000000005,3.8,-1.2000000000000002,-3.2,16
59,1085.0,0.1,0.0,-0.5,0.7000000000000001,7.0,6.4,3.4,-3.2,-5.1000000000000005,16
60,1102.0,0.0,0.0,-0.5,0.5,7.1000000000000005,6.4,0.4,-6.600000000000001,-6.4,16
61,1118.0,0.0,0.0,-0.4,0.5,7.1000000000000005,6.5,-0.9000000000000001,-8.100000000000001,-6.699999999999999,16
62,1135.0,0.1,0.0,-0.1,0.7000000000000001,7.0,6.7,-0.8,-9.899999999999999,-8.600000000000001,16
63,1152.0,0.2,0.0,0.0,0.7000000000000001,7.1000000000000005,6.800000000000001,2.3,-12.7,-13.000000000000002,16
64,1168.0,0.1,0.0,0.0,0.6000000000000001,7.1000000000000005,6.800000000000001,3.6000000000000005,-15.700000000000001,-15.8,16
65,1185.0,-0.1,0.0,-0.30000000000000004,0.4,7.1000000000000005,6.5,3.0,-17.5,-19.799999999999997,16
66,1202.0,-0.30000000000000004,0.0,-0.4,0.2,7.1000000000000005,6.4,-1.7,-10.5,-20.8,16
67,1218.0,-0.4,0.0,-0.5,0.0,7.1000000000000005,6.4,-3.8,-7.699999999999999,-20.8,16
68,1235.0,-0.4,0.0,-0.5,0.0,7.1000000000000005,6.4,-6.600000000000001,-4.2,-19.6,16
69,1252.0,-0.5,0.2,-0.5,-0.1,7.2,6.4,-7.300000000000001,-3.1,-19.1,16
70,1268.0,-0.6000000000000001,0.30000000000000004,-0.6000000000000001,-0.30000000000000004,7.300000000000001,6.2,-8.899999999999999,-2.2,-18.5,16
71,1285.0,-0.7000000000000001,0.30000000000000004,-0.6000000000000001,-0.30000000000000004,7.300000000000001,6.300000000000001,-9.700000000000001,0.2,-17.0,16
72,1302.0,-0.5,0.4,-0.6000000000000001,-0.2,7.4,6.300000000000001,-10.8,3.3000000000000007,-14.5,16
73,1318.0,-0.2,0.6000000000000001,-0.6000000000000001,0.0,7.7,6.300000000000001,-9.700000000000001,5.1000000000000005,-14.5,16
74,1335.0,-0.1,0.7000000000000001,-0.4,0.1,7.7,6.5,-7.8,7.200000000000001,-16.0,16
75,1352.0,-0.1,0.9,-0.2,0.0,8.0,6.7,-3.4,5.2,-20.400000000000002,16
76,1368.0,-0.1,0.9,-0.1,-0.1,8.0,6.800000000000001,2.5,2.3,-22.9,16
77,1385.0,0.0,0.9,-0.1,0.0,8.0,6.800000000000001,5.6,3.1,-23.6,16
78,1402.0,0.0,1.0,-0.1,0.0,8.1,6.7,10.9,8.2,-26.700000000000003,16
79,1418.0,-0.2,1.3,-0.1,-0.30000000000000004,8.4,6.800000000000001,12.7,8.2,-29.900000000000006,16
80,1435.0,-0.2,1.3,0.2,-0.5,8.5,7.0,13.399999999999999,4.800000000000001,-31.2,16
81,1452.0,-0.2,1.3,0.2,-0.5,8.5,7.0,14.800000000000002,3.0,-32.1,16
82,1468.0,-0.2,1.2000000000000002,0.0,-0.6000000000000001,8.5,6.7,18.0,5.0,-35.5,16
83,1485.0,-0.7000000000000001,1.3,-0.2,-1.2000000000000002,8.6,6.5,18.900000000000002,11.4,-37.6,16
84,1502.0,-1.1,1.4000000000000001,-0.2,-1.6,8.700000000000001,6.5,17.7,13.200000000000003,-36.2,16
85,1518.0,-1.7000000000000002,1.5,0.4,-2.4000000000000004,8.9,7.1000000000000005,13.6,5.6,-28.200000000000003,16
86,1535.0,-1.9000000000000001,1.2000000000000002,1.3,-2.7,8.6,7.9,14.5,-11.000000000000002,-15.8,16
87,1552.0,-1.9000000000000001,0.9,1.3,-2.6,8.4,7.9,19.200000000000003,-19.700000000000003,-9.899999999999999,16
88,1568.0,-1.7000000000000002,0.7000000000000001,0.8,-2.4000000000000004,8.200000000000001,7.4,32.400000000000006,-23.700000000000003,1.6,16
89,1585.0,-2.3000000000000003,-0.7000000000000001,0.30000000000000004,-3.0,6.9,6.7,40.1,-7.500000000000001,21.300000000000004,16
90,1602.0,-1.6,-1.9000000000000001,-0.5,-2.4000000000000004,6.7,5.9,38.400000000000006,-10.0,35.699999999999996,16
91,1618.0,-2.2,0.1,-0.6000000000000001,-2.7,7.800000000000001,5.7,28.400000000000002,-37.6,50.400000000000006,16
92,1635.0,-1.9000000000000001,1.1,-1.0,-2.1,8.9,5.2,32.6,-66.2,53.9,16
93,1652.0,-1.4000000000000001,1.9000000000000001,-1.5,-1.2000000000000002,9.8,4.6000000000000005,25.1,-117.0,50.5,16
94,1668.0,-0.8,2.2,-1.3,-0.5,10.100000000000001,4.800000000000001,22.1,-129.5,47.0,16
95,1685.0,0.30000000000000004,1.5,-1.7000000000000002,0.9,9.5,4.3,25.4,-113.3,34.1,16
96,1702.0,0.2,2.4000000000000004,-1.9000000000000001,1.1,10.5,4.0,27.400000000000002,-41.800000000000004,23.800000000000004,16
97,1718.0,0.4,1.8,-2.0,1.3,9.9,3.8000000000000003,28.600000000000005,-2.8,27.9,16
98,1735.0,0.30000000000000004,0.4,-1.0,1.2000000000000002,8.6,4.800000000000001,9.700000000000001,33.800000000000004,24.900000000000002,16
99,1752.0,-0.9,2.3000000000000003,-0.9,0.1,10.4,4.9,-21.1,-0.6000000000000001,17.6,16
100,1768.0,-0.4,1.9000000000000001,-1.0,0.6000000000000001,9.9,4.9,-27.6,-4.6,22.3,16
101,1785.0,1.3,0.8,0.0,2.4000000000000004,8.8,5.9,-37.1,-13.200000000000003,22.700000000000003,16
102,1802.0,1.7000000000000002,0.7000000000000001,1.2000000000000002,2.9000000000000004,8.700000000000001,7.2,-39.2,-35.5,5.7,16
103,1818.0,2.2,0.30000000000000004,1.2000000000000002,4.1000000000000005,7.800000000000001,7.300000000000001,-20.5,-27.0,-7.699999999999999,16
104,1835.0,2.9000000000000004,-0.30000000000000004,0.8,4.2,7.6000000000000005,6.9,-11.5,-19.6,-15.000000000000002,16
105,1852.0,2.4000000000000004,-0.8,0.7000000000000001,3.7,7.1000000000000005,6.800000000000001,-1.5,-5.500000000000001,-28.500000000000004,16
106,1868.0,2.1,-1.1,0.30000000000000004,3.3000000000000003,6.800000000000001,6.4,0.0,-19.700000000000003,-41.199999999999996,16
107,1885.0,1.3,-0.5,0.30000000000000004,2.5,7.4,6.5,2.1,-24.400000000000002,-47.3,16
108,1902.0,0.8,-0.7000000000000001,-0.1,1.9000000000000001,7.300000000000001,6.0,7.400000000000001,-32.6,-52.2,16
109,1918.0,0.2,-0.6000000000000001,-0.5,1.3,7.300000000000001,5.6000000000000005,4.9,-35.4,-52.80000000000001,16
110,1935.0,0.6000000000000001,-1.1,-0.4,1.7000000000000002,6.9,5.6000000000000005,2.5,-30.699999999999996,-50.3,16
111,1952.0,1.0,-1.0,0.2,2.0,6.9,6.300000000000001,-3.6000000000000005,-19.9,-51.6,16
112,1968.0,0.1,-0.30000000000000004,0.5,1.0,7.6000000000000005,6.6000000000000005,-3.3000000000000007,-3.7000000000000006,-44.300000000000004,16
113,1985.0,0.2,-0.6000000000000001,0.5,1.0,7.4,6.6000000000000005,3.4,13.3,-25.1,16
114,2002.0,1.2000000000000002,-1.8,-0.4,1.9000000000000001,6.1000000000000005,5.6000000000000005,-0.8,25.1,-26.9,16
115,2018.0,1.2000000000000002,-1.0,-1.6,1.8,6.9,4.5,-14.900000000000002,24.3,-45.099999999999994,16
116,2035.0,1.0,-0.9,-1.9000000000000001,1.1,7.2,4.1000000000000005,-25.7,27.2,-52.300000000000004,16
117,2052.0,0.5,-0.4,-2.0,0.7000000000000001,7.4,4.2,-49.300000000000004,31.7,-50.900000000000006,16
118,2069.0,-0.2,-0.2,-1.0,-0.1,7.5,5.300000000000001,-63.500000000000014,49.1,-33.7,16
119,2085.0,0.1,-0.1,-0.30000000000000004,0.0,7.4,6.300000000000001,-59.300000000000004,63.30000000000001,-12.200000000000001,16
120,2102.0,0.6000000000000001,-0.1,0.0,0.4,7.4,6.6000000000000005,-51.4,64.10000000000001,-5.0,16
121,2119.0,1.2000000000000002,0.0,-0.5,0.9,7.4,6.2,-35.2,64.0,-6.2,16
122,2135.0,1.0,0.0,0.1,0.5,7.4,6.800000000000001,-14.100000000000001,57.699999999999996,-21.500000000000004,16
123,2152.0,0.9,0.2,-0.2,0.30000000000000004,7.5,6.5,-2.0,48.6,-28.700000000000003,16
124,2168.0,0.5,0.4,-0.30000000000000004,-0.30000000000000004,7.800000000000001,6.4,18.200000000000003,37.800000000000004,-36.8,16
125,2185.0,-0.1,0.5,0.4,-1.0,7.9,7.0,40.1,39.50000000000001,-30.3,16
126,2202.0,-0.2,0.30000000000000004,0.7000000000000001,-1.2000000000000002,7.800000000000001,7.2,53.400000000000006,39.0,-27.9,16
127,2219.0,-0.5,0.0,0.4,-1.7000000000000002,7.6000000000000005,6.7,79.9,39.8,-31.9,16
128,2235.0,-0.6000000000000001,0.7000000000000001,0.4,-1.9000000000000001,8.5,6.5,96.30000000000001,19.400000000000002,-47.80000000000001,16
129,2252.0,-1.3,0.9,0.5,-2.8000000000000003,8.9,6.300000000000001,101.80000000000001,-1.2000000000000002,-49.300000000000004,16
130,2268.0,-1.3,1.0,0.9,-2.9000000000000004,9.1,6.5,104.00000000000001,0.4,-48.10000000000001,16
131,2285.0,-1.0,0.8,1.4000000000000001,-2.7,9.1,6.7,110.30000000000001,2.1,-46.50000000000001,16
132,2302.0,-0.8,1.1,1.4000000000000001,-2.7,9.600000000000001,6.4,118.69999999999999,22.6,-52.80000000000001,16
133,2321.0,-1.3,0.6000000000000001,1.7000000000000002,-3.5,9.200000000000001,6.300000000000001,121.10000000000001,40.4,-62.900000000000006,16
134,2335.0,-1.3,0.6000000000000001,1.6,-3.6,9.3,6.0,120.3,36.1,-61.199999999999996,16
135,2352.0,-1.0,1.3,0.8,-3.5,10.200000000000001,4.9,114.00000000000001,38.900000000000006,-68.0,16
136,2368.0,-1.4000000000000001,1.4000000000000001,1.4000000000000001,-4.1000000000000005,10.3,5.300000000000001,110.10000000000001,45.3,-80.4,16
137,2385.0,-2.2,1.3,1.6,-5.2,10.200000000000001,5.1000000000000005,109.8,37.0,-86.4,16
138,2402.0,-2.3000000000000003,0.9,1.3,-5.6000000000000005,9.9,4.5,110.9,48.400000000000006,-76.80000000000001,16
139,2420.0,-2.8000000000000003,0.9,1.3,-6.4,9.9,4.1000000000000005,106.20000000000002,48.2,-76.80000000000001,16
140,2435.0,-2.9000000000000004,0.9,1.3,-6.7,10.0,3.9000000000000004,101.10000000000001,36.0,-74.80000000000001,16
141,2452.0,-0.9,1.0,0.6000000000000001,-4.9,10.0,2.9000000000000004,81.50000000000001,36.400000000000006,-63.900000000000006,16
142,2468.0,1.7000000000000002,0.30000000000000004,0.30000000000000004,-2.6,9.3,2.3000000000000003,59.5,68.80000000000001,-64.50000000000001,16
143,2485.0,2.0,0.0,0.30000000000000004,-2.4000000000000004,8.9,2.2,49.199999999999996,88.7,-73.7,16
144,2502.0,0.7000000000000001,-1.0,1.2000000000000002,-4.0,7.9,2.8000000000000003,31.799999999999997,106.1,-89.70000000000002,16
145,2521.0,0.5,-1.2000000000000002,1.5,-4.6000000000000005,7.4,3.0,18.0,71.19999999999999,-96.60000000000001,16
146,2535.0,0.5,-1.1,1.3,-4.7,7.5,2.6,16.6,48.400000000000006,-95.20000000000002,16
147,2552.0,0.0,-0.5,0.7000000000000001,-5.5,7.9,2.0,17.0,28.500000000000004,-94.7,16
148,2568.0,-0.30000000000000004,-0.6000000000000001,-1.0,-6.0,7.7,0.2,9.600000000000001,46.4,-79.1,16
149,2585.0,0.0,-0.8,-1.2000000000000002,-5.9,7.4,-0.2,1.5,69.80000000000001,-69.3,16
150,2602.0,2.1,-2.2,-1.1,-3.9000000000000004,5.800000000000001,-0.1,-28.0,81.4,-51.1,16
151,2619.0,3.6,-2.7,0.2,-2.6,5.2,1.1,-47.900000000000006,90.30000000000001,-53.2,16
152,2635.0,3.7,-2.5,1.1,-2.9000000000000004,5.5,2.3000000000000003,-46.50000000000001,97.3,-57.20000000000001,16
153,2652.0,2.9000000000000004,-2.0,1.6,-3.5,5.6000000000000005,2.4000000000000004,-27.9,101.4,-67.00000000000001,16
154,2668.0,2.2,-2.1,2.1,-4.4,5.4,2.6,0.0,98.7,-66.9,16
155,2685.0,3.0,-1.7000000000000002,1.8,-3.7,5.7,2.1,32.6,69.60000000000001,-64.50000000000001,16
156,2702.0,2.7,-1.1,0.30000000000000004,-4.1000000000000005,6.1000000000000005,0.5,48.400000000000006,61.10000000000001,-69.9,16
157,2719.0,2.0,-1.2000000000000002,0.1,-5.0,5.800000000000001,0.0,62.900000000000006,66.0,-74.7,16
158,2735.0,0.7000000000000001,-1.0,-0.4,-6.5,5.800000000000001,-0.8,63.8,56.9,-69.4,16
159,2752.0,0.2,-0.7000000000000001,-0.8,-7.1000000000000005,6.1000000000000005,-1.3,60.900000000000006,56.50000000000001,-62.0,16
160,2768.0,-0.1,-0.6000000000000001,-0.9,-7.4,6.1000000000000005,-1.8,48.0,55.8,-42.0,16
161,2785.0,0.6000000000000001,-0.6000000000000001,-0.6000000000000001,-6.800000000000001,6.0,-1.7000000000000002,31.7,51.70000000000001,-28.3,16
162,2803.0,1.1,-0.4,0.0,-6.300000000000001,6.0,-1.2000000000000002,25.8,52.2,-26.000000000000004,16
163,2819.0,0.7000000000000001,-0.30000000000000004,0.2,-6.7,6.1000000000000005,-1.1,23.700000000000003,49.300000000000004,-29.0,16
164,2837.0,-0.2,-0.1,0.1,-7.7,6.2,-1.5,26.5,47.80000000000001,-27.2,16
165,2853.0,-1.2000000000000002,-0.2,0.1,-8.700000000000001,6.1000000000000005,-1.6,29.800000000000004,50.400000000000006,-14.100000000000001,16
166,2868.0,-1.4000000000000001,0.0,0.0,-8.9,6.300000000000001,-1.8,32.400000000000006,52.1,-4.1,16
167,2885.0,-0.2,0.4,0.1,-7.6000000000000005,6.6000000000000005,-1.9000000000000001,37.6,45.7,10.700000000000001,16
168,2902.0,0.5,0.8,0.2,-6.9,7.0,-2.0,47.3,31.5,-0.8,16
169,2918.0,-0.2,1.0,0.1,-7.6000000000000005,7.2,-2.1,53.300000000000004,30.5,-6.9,16
170,2935.0,-0.8,1.2000000000000002,-0.1,-8.200000000000001,7.300000000000001,-2.6,61.39999999999999,33.1,-3.8,16
171,2952.0,0.0,1.0,-0.7000000000000001,-7.300000000000001,7.1000000000000005,-3.4000000000000004,62.199999999999996,36.7,1.4,16
172,2968.0,0.1,0.9,-1.0,-7.2,7.0,-3.8000000000000003,61.599999999999994,37.800000000000004,-1.4,16
173,2985.0,-0.7000000000000001,0.8,-1.7000000000000002,-8.0,6.800000000000001,-4.7,62.0,24.1,-11.1,16
174,3002.0,-1.0,1.1,-2.7,-8.4,7.1000000000000005,-5.9,59.1,-8.3,-14.400000000000002,16
175,3020.0,-0.4,1.1,-3.1,-7.800000000000001,7.0,-6.300000000000001,38.7,-18.4,-8.8,16
176,3035.0,0.0,1.3,-2.5,-7.4,7.1000000000000005,-5.800000000000001,25.200000000000003,-18.0,-6.8,16
177,3052.0,0.9,1.4000000000000001,-1.3,-6.6000000000000005,7.2,-4.5,3.1,-27.099999999999998,-8.899999999999999,16
178,3068.0,1.1,1.4000000000000001,-0.30000000000000004,-6.4,7.2,-3.5,-17.7,-24.7,-14.900000000000002,16
179,3085.0,1.1,1.1,0.4,-6.4,6.9,-2.7,-25.5,-20.3,-15.8,16
180,3102.0,1.4000000000000001,0.5,1.8,-6.2,6.300000000000001,-1.2000000000000002,-30.1,-19.1,-16.3,16
181,3121.0,1.4000000000000001,-0.1,2.7,-6.2,5.7,-0.2,-18.0,-19.700000000000003,-17.0,16
182,3135.0,1.3,-0.4,2.9000000000000004,-6.4,5.4,0.1,-8.100000000000001,-18.6,-15.5,16
183,3152.0,0.6000000000000001,-1.2000000000000002,2.8000000000000003,-7.1000000000000005,4.5,0.0,15.899999999999999,-15.2,-7.0,16
184,3168.0,1.2000000000000002,-1.4000000000000001,2.2,-6.5,4.3,-0.6000000000000001,38.1,-19.400000000000002,3.9,16
185,3185.0,1.5,-1.6,1.4000000000000001,-6.2,4.1000000000000005,-1.4000000000000001,45.9,-24.5,4.6,16
186,3202.0,1.6,-1.2000000000000002,0.2,-6.1000000000000005,4.4,-2.5,45.9,-25.8,0.6000000000000001,16
187,3221.0,1.3,-0.7000000000000001,-0.5,-6.4,4.9,-3.3000000000000003,31.5,-19.1,-2.0,16
188,3235.0,1.0,-0.4,-0.4,-6.7,5.2,-3.2,22.9,-13.6,-1.6,16
189,3252.0,0.7000000000000001,0.30000000000000004,-0.1,-7.0,5.9,-2.9000000000000004,12.9,-8.8,1.1,16
190,3269.0,0.9,0.7000000000000001,-0.2,-6.800000000000001,6.2,-3.0,11.000000000000002,-4.4,0.8,16
191,3285.0,0.7000000000000001,0.7000000000000001,-0.6000000000000001,-7.0,6.2,-3.4000000000000004,9.4,-1.2000000000000002,-6.0,16
192,3302.0,0.4,0.7000000000000001,-0.7000000000000001,-7.300000000000001,6.2,-3.6,6.9,0.6000000000000001,-9.899999999999999,16
193,3318.0,-0.6000000000000001,0.7000000000000001,-0.6000000000000001,-8.3,6.1000000000000005,-3.5,-1.1,13.3,-12.7,16
194,3335.0,-1.3,0.8,-0.30000000000000004,-9.0,6.2,-3.2,-7.200000000000001,24.1,-8.3,16
195,3352.0,-1.2000000000000002,0.8,-0.1,-8.9,6.300000000000001,-3.1,-9.4,22.700000000000003,-6.300000000000001,16
196,3369.0,-1.1,0.9,0.0,-8.8,6.4,-3.0,-14.5,27.5,-2.9,16
197,3385.0,-0.9,0.7000000000000001,0.7000000000000001,-8.6,6.2,-2.4000000000000004,-14.900000000000002,34.1,1.9,16
198,3402.0,-0.7000000000000001,0.7000000000000001,0.8,-8.200000000000001,6.300000000000001,-2.2,-9.8,31.2,1.7,16
199,3418.0,-0.6000000000000001,1.1,0.7000000000000001,-8.3,6.6000000000000005,-2.4000000000000004,8.2,29.500000000000004,-4.4,16
200,3437.0,-1.4000000000000001,1.0,-0.5,-9.1,6.5,-3.8000000000000003,25.5,27.9,-8.2,16
201,3452.0,-2.5,1.3,-1.0,-10.100000000000001,6.7,-4.4,28.200000000000003,26.1,-5.0,16
202,3468.0,-2.6,1.1,-1.3,-10.200000000000001,6.5,-4.800000000000001,23.2,20.5,-1.4,16
203,3485.0,-2.3000000000000003,0.6000000000000001,-1.3,-10.0,6.0,-4.800000000000001,-0.8,14.900000000000002,3.5,16
204,3502.0,-2.1,0.1,-0.1,-9.700000000000001,5.6000000000000005,-3.7,-31.0,17.7,5.7,16
205,3521.0,-1.2000000000000002,-0.30000000000000004,1.5,-8.8,5.300000000000001,-2.0,-45.0,17.1,6.4,16
206,3535.0,-0.7000000000000001,-0.5,1.9000000000000001,-8.3,5.1000000000000005,-1.5,-42.900000000000006,13.399999999999999,4.5,16
207,3552.0,-0.1,-0.8,1.9000000000000001,-7.7,4.800000000000001,-1.5,-30.1,4.9,-2.5,16
208,3568.0,0.0,-0.8,1.5,-7.6000000000000005,4.800000000000001,-1.8,-23.0,1.3,-5.7,16
209,3585.0,0.1,-1.0,0.30000000000000004,-7.5,4.6000000000000005,-3.0,-17.0,-11.4,-8.600000000000001,16
210,3602.0,0.2,-1.3,-0.7000000000000001,-7.4,4.3,-3.9000000000000004,-28.200000000000003,-18.6,-4.7,16
211,3620.0,0.8,-1.9000000000000001,-0.9,-6.9,3.7,-4.0,-48.400000000000006,-18.200000000000003,1.2000000000000002,16
212,3635.0,1.0,-2.0,-0.7000000000000001,-6.6000000000000005,3.6,-3.7,-58.1,-18.5,2.8,16
213,3652.0,1.1,-2.2,0.0,-6.6000000000000005,3.5,-2.8000000000000003,-71.9,-20.400000000000002,5.6,16
214,3668.0,1.2000000000000002,-2.2,0.9,-6.5,3.6,-1.7000000000000002,-73.7,-22.1,10.1,16
215,3685.0,1.3,-2.1,1.2000000000000002,-6.4,3.7,-1.4000000000000001,-70.3,-24.3,12.200000000000001,16
216,3702.0,1.4000000000000001,-1.9000000000000001,1.4000000000000001,-6.2,4.0,-0.9,-59.699999999999996,-31.2,15.2,16
217,3719.0,1.3,-1.5,1.3,-6.4,4.4,-0.8,-49.0,-30.599999999999998,15.399999999999999,16
218,3737.0,1.1,-1.3,1.2000000000000002,-6.6000000000000005,4.9,-1.0,-40.7,-30.5,15.5,16
219,3752.0,0.9,-0.9,0.7000000000000001,-6.7,5.1000000000000005,-1.2000000000000002,-38.900000000000006,-31.3,16.200000000000003,16
220,3768.0,0.6000000000000001,-0.6000000000000001,0.5,-7.0,5.5,-1.2000000000000002,-37.300000000000004,-34.800000000000004,17.7,16
221,3785.0,0.5,-0.5,0.4,-7.0,5.7,-1.2000000000000002,-37.7,-36.300000000000004,19.200000000000003,16
222,3802.0,0.7000000000000001,-0.30000000000000004,0.6000000000000001,-6.9,5.9,-0.8,-38.60000000000001,-39.8,21.300000000000004,16
223,3819.0,0.7000000000000001,-0.30000000000000004,0.9,-6.800000000000001,6.0,-0.30000000000000004,-37.9,-44.00000000000001,22.1,16
224,3835.0,0.7000000000000001,-0.2,1.1,-6.800000000000001,6.2,0.2,-31.799999999999997,-43.4,27.0,16
225,3852.0,0.5,-0.2,1.1,-6.9,6.2,0.2,-26.799999999999997,-41.50000000000001,31.0,16
226,3868.0,0.4,-0.4,0.9,-7.0,6.1000000000000005,0.1,-15.899999999999999,-43.1,40.6,16
227,3885.0,0.2,-0.5,0.7000000000000001,-7.0,6.2,0.1,-3.3000000000000007,-51.4,53.300000000000004,16
228,3902.0,0.2,-0.4,0.6000000000000001,-6.9,6.300000000000001,0.1,3.9,-57.699999999999996,60.400000000000006,16
229,3919.0,0.5,-0.6000000000000001,0.1,-6.5,6.300000000000001,-0.4,20.7,-74.7,73.10000000000001,16
230,3935.0,0.30000000000000004,-0.9,-0.4,-6.5,6.1000000000000005,-0.6000000000000001,33.9,-89.4,82.39999999999999,16
231,3952.0,0.2,-1.0,-0.5,-6.5,6.1000000000000005,-0.7000000000000001,40.300000000000004,-98.39999999999999,87.10000000000001,16
232,3968.0,0.0,-0.7000000000000001,-0.6000000000000001,-6.5,6.6000000000000005,-0.7000000000000001,53.9,-122.69999999999999,97.00000000000001,16
233,3985.0,-0.1,-0.30000000000000004,-0.7000000000000001,-6.300000000000001,7.2,-0.7000000000000001,73.10000000000001,-139.1,109.8,16
234,4002.0,0.1,-0.4,-1.1,-5.4,7.4,-1.3,81.90000000000002,-143.0,116.69999999999999,16
235,4022.0,0.6000000000000001,-0.2,-1.8,-5.1000000000000005,7.7,-1.6,85.1,-143.5,127.69999999999999,16
236,4035.0,0.5,0.4,-1.8,-4.800000000000001,8.6,-1.6,59.699999999999996,-160.20000000000002,135.3,16
237,4052.0,1.1,0.4,-0.6000000000000001,-3.8000000000000003,8.8,-0.2,20.3,-187.9,140.20000000000002,16
238,4068.0,1.8,0.30000000000000004,-0.1,-2.9000000000000004,8.9,0.5,4.9,-191.60000000000002,140.9,16
239,4085.0,2.4000000000000004,0.7000000000000001,0.6000000000000001,-1.8,9.5,1.5,-20.8,-167.50000000000003,138.6,16
240,4102.0,3.3000000000000003,0.0,-1.3,-0.4,9.0,-0.1,-54.0,-128.9,129.4,16
241,4124.0,2.2,-0.5,-0.8,-1.1,8.6,0.9,-104.2,-80.2,109.7,16
242,4135.0,1.2000000000000002,-0.30000000000000004,0.30000000000000004,-1.9000000000000001,8.8,2.1,-121.70000000000002,-64.60000000000001,104.80000000000001,16
243,4152.0,0.30000000000000004,-0.1,2.2,-2.4000000000000004,9.0,4.5,-126.60000000000002,-60.900000000000006,110.9,16
244,4168.0,0.7000000000000001,0.2,2.6,-1.8,9.3,5.2,-117.1,-71.8,115.7,16
245,4185.0,2.4000000000000004,0.30000000000000004,2.2,0.4,9.4,5.1000000000000005,-91.10000000000001,-98.7,115.60000000000001,16
246,4202.0,3.1,0.0,1.1,1.5,9.1,4.3,-72.60000000000001,-111.20000000000002,93.2,16
247,4223.0,1.9000000000000001,0.30000000000000004,0.5,0.7000000000000001,9.4,4.0,-67.10000000000001,-91.4,74.89999999999999,16
248,4237.0,1.5,0.6000000000000001,0.7000000000000001,0.4,9.700000000000001,4.4,-66.5,-77.5,72.10000000000001,16
249,4252.0,1.3,0.7000000000000001,0.7000000000000001,0.6000000000000001,9.600000000000001,4.6000000000000005,-64.4,-69.60000000000001,68.7,16
250,4268.0,1.3,0.2,0.8,0.8,9.1,4.9,-56.800000000000004,-69.20000000000002,60.2,16
251,4285.0,1.2000000000000002,0.2,0.9,0.9,9.0,5.0,-49.6,-72.0,55.8,16
252,4302.0,1.1,0.4,1.4000000000000001,1.0,9.200000000000001,5.7,-22.4,-80.8,39.9,16
253,4320.0,0.5,0.5,0.7000000000000001,0.7000000000000001,9.4,5.0,10.5,-95.20000000000002,22.4,16
254,4335.0,0.0,0.8,0.1,0.30000000000000004,9.700000000000001,4.3,21.200000000000003,-95.20000000000002,16.1,16
255,4352.0,-1.0,1.0,-1.0,-0.6000000000000001,9.9,3.1,22.2,-84.1,13.6,16
256,4368.0,-1.9000000000000001,0.9,-0.9,-1.3,9.8,3.2,10.0,-60.8,21.8,16
257,4385.0,-2.0,1.0,-0.4,-1.3,9.9,3.7,6.600000000000001,-52.00000000000001,26.6,16
258,4401.0,-1.7000000000000002,1.2000000000000002,0.6000000000000001,-0.9,10.100000000000001,4.6000000000000005,14.400000000000002,-54.50000000000001,28.500000000000004,16
259,4420.0,-1.9000000000000001,1.6,0.0,-1.0,10.600000000000001,3.9000000000000004,29.400000000000002,-58.400000000000006,22.700000000000003,16
260,4436.0,-2.7,1.6,-0.8,-1.7000000000000002,10.600000000000001,3.0,30.4,-46.1,24.7,16
261,4452.0,-3.0,1.6,-0.9,-1.9000000000000001,10.700000000000001,2.8000000000000003,25.6,-36.300000000000004,29.1,16
262,4468.0,-3.1,1.8,-0.5,-1.9000000000000001,10.8,3.2,14.600000000000001,-5.0,45.400000000000006,16
263,4485.0,-2.7,2.2,0.1,-1.4000000000000001,11.3,3.8000000000000003,8.2,16.3,60.300000000000004,16
264,4502.0,-2.5,2.5,0.2,-1.0,11.5,3.8000000000000003,7.500000000000001,21.0,64.7,16
265,4519.0,-2.0,2.7,0.7000000000000001,-0.4,11.8,4.3,3.7000000000000006,21.7,68.60000000000001,16
266,4536.0,-0.9,3.0,1.9000000000000001,0.9,12.0,5.6000000000000005,5.1000000000000005,7.500000000000001,69.80000000000001,16
267,4552.0,-0.30000000000000004,2.9000000000000004,2.6,1.6,11.9,6.2,11.900000000000002,-5.300000000000001,65.8,16
268,4568.0,0.7000000000000001,2.7,1.9000000000000001,2.8000000000000003,11.8,5.5,30.4,-29.900000000000006,51.0,16
269,4585.0,0.2,2.3000000000000003,1.4000000000000001,2.5,11.4,4.800000000000001,41.199999999999996,-25.4,42.5,16
270,4602.0,-0.30000000000000004,2.0,1.0,1.6,10.700000000000001,4.2,43.4,-20.400000000000002,43.800000000000004,16
271,4622.0,-1.0,1.2000000000000002,1.4000000000000001,1.7000000000000002,9.700000000000001,4.9,44.7,-12.0,55.900000000000006,16
272,4635.0,-0.1,-0.30000000000000004,1.0,2.7,8.9,4.1000000000000005,64.30000000000001,-41.0,61.300000000000004,16
273,4652.0,0.1,-1.1,0.5,2.4000000000000004,7.800000000000001,3.4000000000000004,69.4,-51.300000000000004,52.300000000000004,16
274,4668.0,-1.4000000000000001,-1.3,0.1,1.7000000000000002,7.9,2.7,90.70000000000002,-75.8,42.1,16
275,4687.0,-1.9000000000000001,-1.6,-2.1,1.4000000000000001,7.6000000000000005,0.0,94.10000000000001,-92.90000000000002,56.400000000000006,16
276,4702.0,-0.8,-2.3000000000000003,-2.3000000000000003,2.7,6.9,-0.5,74.89999999999999,-79.5,74.4,16
277,4720.0,0.7000000000000001,-2.4000000000000004,-1.8,4.5,6.7,-0.4,63.4,-83.4,75.4,16
278,4735.0,1.5,-2.6,-1.4000000000000001,5.5,6.4,-0.1,61.0,-87.00000000000001,67.9,16
279,4752.0,1.0,-3.1,-1.6,5.2,5.800000000000001,-0.6000000000000001,59.5,-79.1,44.9,16
280,4768.0,0.4,-3.0,-1.9000000000000001,4.7,5.9,-1.0,57.400000000000006,-63.500000000000014,38.400000000000006,16
281,4785.0,-0.9,-3.2,-2.6,3.5,5.7,-2.0,44.2,-38.2,36.0,16
282,4802.0,-1.6,-3.0,-2.3000000000000003,2.8000000000000003,5.800000000000001,-1.8,22.4,-29.0,47.2,16
283,4820.0,-1.3,-2.9000000000000004,-1.6,3.3000000000000003,5.800000000000001,-1.3,9.4,-43.1,64.4,16
284,4836.0,-0.5,-2.9000000000000004,-1.1,4.2,5.7,-0.8,6.500000000000001,-54.300000000000004,71.10000000000001,16
285,4852.0,0.9,-3.3000000000000003,-0.5,5.9,5.2,-0.4,10.200000000000001,-85.20000000000002,69.20000000000002,16
286,4868.0,1.1,-3.6,-0.5,6.2,4.7,-0.6000000000000001,17.799999999999997,-102.4,60.300000000000004,16
287,4885.0,1.1,-3.7,-0.30000000000000004,6.4,4.6000000000000005,-0.5,20.8,-103.49999999999999,57.60000000000001,16
288,4902.0,0.6000000000000001,-4.2,-0.2,6.0,3.9000000000000004,-0.6000000000000001,26.5,-100.4,56.10000000000001,16
289,4923.0,-0.2,-4.5,-0.5,5.300000000000001,3.4000000000000004,-1.3,26.799999999999997,-90.4,70.7,16
290,4935.0,-0.4,-4.6000000000000005,-0.7000000000000001,5.300000000000001,3.2,-1.5,22.3,-81.7,84.9,16
291,4952.0,-0.2,-5.0,-0.7000000000000001,5.800000000000001,2.5,-1.7000000000000002,5.300000000000001,-65.0,122.20000000000002,16
292,4968.0,0.8,-5.6000000000000005,-0.1,7.1000000000000005,1.6,-1.2000000000000002,-12.8,-46.1,158.9,16
293,4985.0,1.7000000000000002,-5.7,0.4,8.200000000000001,1.3,-0.7000000000000001,-18.4,-37.800000000000004,172.1,16
294,5002.0,3.7,-6.5,0.9,10.600000000000001,0.0,-0.2,-19.5,-39.599999999999994,180.50000000000003,16
295,5021.0,4.1000000000000005,-6.800000000000001,0.8,11.4,-0.8,-0.4,-14.600000000000001,-48.300000000000004,174.00000000000003,16
296,5035.0,3.2,-6.5,0.8,10.9,-1.0,-0.5,-9.899999999999999,-53.9,178.20000000000002,16
297,5052.0,3.0,-6.7,0.6000000000000001,10.8,-1.5,-0.8,-10.0,-56.9,186.99999999999997,16
298,5068.0,2.8000000000000003,-6.6000000000000005,0.30000000000000004,11.0,-2.0,-1.2000000000000002,-20.2,-55.0,212.1,16
299,5085.0,3.7,-6.6000000000000005,0.8,12.200000000000001,-2.7,-0.8,-34.800000000000004,-50.1,237.80000000000004,16
300,5102.0,4.2,-6.4,1.0,12.9,-2.9000000000000004,-0.6000000000000001,-39.50000000000001,-47.3,247.7,16
301,5118.0,4.7,-5.6000000000000005,1.4000000000000001,13.700000000000001,-2.9000000000000004,-0.30000000000000004,-40.2,-40.4,261.2,16
302,5135.0,5.1000000000000005,-5.1000000000000005,1.7000000000000002,14.4,-3.2,0.0,-32.6,-30.000000000000004,271.3,16
303,5152.0,5.4,-4.6000000000000005,1.5,14.8,-3.2,-0.30000000000000004,-29.300000000000004,-29.600000000000005,271.5,16
304,5169.0,6.1000000000000005,-3.7,1.4000000000000001,15.600000000000001,-3.1,-0.5,-24.7,-26.400000000000006,267.90000000000003,16
305,5185.0,6.7,-2.9000000000000004,1.0,16.2,-3.2,-1.0,-22.9,-23.099999999999998,252.70000000000002,16
306,5202.0,6.2,-1.7000000000000002,0.6000000000000001,15.700000000000001,-2.8000000000000003,-1.4000000000000001,-28.500000000000004,-13.5,225.10000000000002,16
307,5218.0,5.5,-0.8,0.8,15.0,-2.2,-1.2000000000000002,-32.6,-2.9,212.1,16
308,5236.0,4.1000000000000005,0.6000000000000001,1.1,13.5,-1.4000000000000001,-0.9,-41.199999999999996,15.8,191.1,16
309,5253.0,3.3000000000000003,1.4000000000000001,1.4000000000000001,12.600000000000001,-1.1,-0.5,-47.80000000000001,29.600000000000005,174.80000000000004,16
310,5268.0,3.1,1.8,1.5,12.4,-0.9,-0.4,-50.0,32.400000000000006,165.7,16
311,5285.0,2.8000000000000003,2.4000000000000004,1.6,11.9,-0.8,-0.2,-48.9,31.5,146.3,16
312,5301.0,2.3000000000000003,2.8000000000000003,1.5,11.3,-0.7000000000000001,-0.30000000000000004,-47.7,26.200000000000003,127.5,16
313,5318.0,2.0,3.1,1.4000000000000001,11.0,-0.7000000000000001,-0.4,-48.10000000000001,24.7,120.2,16
314,5335.0,1.7000000000000002,3.3000000000000003,1.2000000000000002,10.5,-0.7000000000000001,-0.5,-51.6,23.400000000000002,109.8,16
315,5352.0,1.4000000000000001,3.8000000000000003,1.4000000000000001,10.200000000000001,-0.5,-0.30000000000000004,-56.50000000000001,27.0,105.60000000000002,16
316,5368.0,1.5,4.0,1.5,10.200000000000001,-0.4,-0.2,-58.1,28.700000000000003,104.2,16
317,5385.0,1.6,4.3,1.5,10.100000000000001,-0.30000000000000004,-0.2,-60.8,32.300000000000004,100.70000000000002,16
318,5402.0,1.6,4.6000000000000005,1.7000000000000002,10.100000000000001,-0.1,0.0,-61.199999999999996,34.400000000000006,98.39999999999999,16
319,5418.0,2.8000000000000003,4.800000000000001,2.0,11.100000000000001,-0.30000000000000004,0.30000000000000004,-49.300000000000004,35.1,92.90000000000002,16
320,5436.0,3.3000000000000003,4.800000000000001,1.7000000000000002,11.600000000000001,-0.30000000000000004,0.1,-41.1,34.0,90.4,16
321,5452.0,3.5,5.4,0.9,11.700000000000001,0.1,-0.7000000000000001,-28.600000000000005,32.6,84.9,16
322,5468.0,4.0,6.300000000000001,0.4,12.0,0.9,-1.2000000000000002,-23.2,29.500000000000004,86.5,16
323,5489.0,4.6000000000000005,6.7,0.0,12.600000000000001,1.1,-1.5,-22.4,27.0,89.2,16
324,5515.0,7.800000000000001,7.0,0.5,15.600000000000001,1.2000000000000002,-1.1,-17.5,12.4,92.39999999999999,16
325,5518.0,8.700000000000001,7.5,0.8,16.5,1.6,-0.8,-8.899999999999999,-0.4,86.1,16
326,5591.0,11.3,8.3,-0.7000000000000001,19.200000000000003,2.4000000000000004,-2.3000000000000003,44.300000000000004,-41.50000000000001,-61.9,16
327,5708.0,3.8000000000000003,-2.0,1.5,13.700000000000001,-4.5,0.4,43.1,13.5,-220.20000000000002,16
328,5718.0,3.3000000000000003,-2.5,1.5,13.200000000000001,-4.6000000000000005,0.4,52.60000000000001,8.2,-222.8,16
329,5735.0,2.4000000000000004,-3.3000000000000003,1.1,12.5,-4.7,0.1,69.60000000000001,-2.4000000000000004,-226.3,16
330,5752.0,1.9000000000000001,-3.7,0.7000000000000001,12.0,-4.7,-0.30000000000000004,75.4,-6.500000000000001,-227.3,16
331,5768.0,0.8,-4.2,0.30000000000000004,11.0,-4.5,-0.7000000000000001,78.10000000000001,-13.6,-227.6,16
332,5785.0,0.0,-4.7,0.30000000000000004,10.200000000000001,-4.2,-0.8,72.9,-22.700000000000003,-222.20000000000005,16
333,5801.0,-0.2,-4.9,0.4,9.9,-4.1000000000000005,-0.8,66.0,-28.0,-212.29999999999998,16
334,5818.0,-0.2,-5.6000000000000005,0.5,9.9,-4.2,-0.7000000000000001,62.800000000000004,-29.300000000000004,-207.50000000000003,16
335,5835.0,0.0,-6.1000000000000005,0.6000000000000001,9.9,-4.1000000000000005,-0.7000000000000001,57.9,-31.2,-200.60000000000002,16
336,5852.0,-0.1,-6.6000000000000005,0.30000000000000004,9.600000000000001,-4.0,-1.2000000000000002,52.400000000000006,-30.000000000000004,-194.00000000000003,16
337,5868.0,-0.1,-6.800000000000001,0.1,9.5,-3.9000000000000004,-1.5,46.800000000000004,-28.200000000000003,-190.2,16
338,5885.0,0.0,-7.4,0.0,9.4,-4.0,-1.8,29.900000000000006,-25.5,-180.9,16
339,5924.0,0.2,-8.3,1.2000000000000002,9.1,-4.0,-0.7000000000000001,6.2,-19.6,-156.8,16
340,5935.0,0.4,-8.6,1.3,9.200000000000001,-4.1000000000000005,-0.6000000000000001,7.1000000000000005,-20.5,-149.9,16
341,5952.0,0.5,-9.0,0.6000000000000001,9.1,-4.1000000000000005,-1.3,7.8,-14.700000000000001,-134.70000000000002,16
342,5968.0,0.4,-9.0,0.6000000000000001,8.9,-4.0,-1.4000000000000001,4.6,-8.4,-126.70000000000002,16
343,5985.0,0.0,-8.9,0.6000000000000001,8.3,-3.7,-1.4000000000000001,-4.9,1.4,-111.80000000000001,16
344,6001.0,-0.1,-9.200000000000001,0.8,8.0,-3.8000000000000003,-1.1,-14.100000000000001,10.8,-95.9,16
345,6018.0,-0.2,-9.5,0.9,7.7,-4.0,-0.8,-17.7,18.8,-76.60000000000001,16
346,6035.0,-0.4,-9.8,1.0,7.5,-4.1000000000000005,-0.7000000000000001,-17.1,21.900000000000002,-66.2,16
347,6051.0,-0.9,-10.100000000000001,0.9,6.9,-4.4,-0.8,-14.600000000000001,29.500000000000004,-43.2,16
348,6068.0,-2.1,-9.700000000000001,0.7000000000000001,5.7,-3.9000000000000004,-0.8,-11.6,34.800000000000004,-16.3,16
349,6085.0,-2.8000000000000003,-9.1,0.7000000000000001,5.0,-3.4000000000000004,-0.8,-9.5,36.7,-1.6,16
350,6102.0,-3.4000000000000004,-8.200000000000001,0.6000000000000001,4.4,-2.7,-0.8,-1.4,34.800000000000004,35.1,16
351,6119.0,-2.9000000000000004,-7.9,-0.1,5.0,-2.5,-1.5,14.5,29.800000000000004,73.0,16
352,6135.0,-2.8000000000000003,-7.7,-0.7000000000000001,5.2,-2.5,-2.0,22.8,25.1,87.7,16
353,6151.0,-2.6,-7.0,-1.6,5.5,-2.2,-2.9000000000000004,30.799999999999997,10.9,113.4,16
354,6168.0,-2.1,-6.7,-2.5,6.2,-2.4000000000000004,-3.9000000000000004,25.5,-6.9,140.20000000000002,16
355,6186.0,-1.9000000000000001,-6.5,-2.8000000000000003,7.1000000000000005,-2.3000000000000003,-4.3,19.1,-12.100000000000001,153.50000000000003,16
356,6201.0,-1.0,-5.9,-2.7,7.6000000000000005,-2.4000000000000004,-4.2,3.1,-14.5,176.8,16
357,6218.0,0.0,-5.4,-2.6,8.8,-2.5,-4.2,-11.4,-17.5,190.2,16
358,6235.0,0.4,-5.1000000000000005,-2.6,9.4,-2.5,-4.2,-18.0,-19.700000000000003,192.29999999999998,16
359,6252.0,0.6000000000000001,-4.3,-2.6,9.700000000000001,-2.3000000000000003,-4.3,-31.099999999999998,-24.200000000000003,191.30000000000004,16
360,6268.0,0.4,-3.2,-2.0,9.600000000000001,-1.8,-3.7,-44.00000000000001,-26.9,194.10000000000002,16
361,6285.0,0.6000000000000001,-2.3000000000000003,-1.5,9.8,-1.6,-3.4000000000000004,-54.1,-29.1,202.49999999999997,16
362,6302.0,1.0,-1.9000000000000001,-1.3,10.200000000000001,-1.5,-3.2,-59.20000000000001,-30.5,206.5,16
363,6319.0,2.1,-1.3,-0.9,11.4,-1.5,-2.9000000000000004,-70.0,-35.3,209.3,16
364,6335.0,3.1,-0.6000000000000001,-0.4,12.3,-1.4000000000000001,-2.6,-81.8,-34.1,204.0,16
365,6352.0,3.3000000000000003,-0.30000000000000004,-0.1,12.5,-1.4000000000000001,-2.3000000000000003,-87.7,-29.400000000000002,199.9,16
366,6368.0,3.5,0.4,0.7000000000000001,12.700000000000001,-1.2000000000000002,-1.6,-97.3,-17.6,192.70000000000002,16
367,6385.0,3.5,1.1,1.8,12.600000000000001,-1.0,-0.6000000000000001,-100.5,-8.3,187.7,16
368,6402.0,3.6,1.5,2.1,12.700000000000001,-0.7000000000000001,0.30000000000000004,-99.00000000000001,-5.4,186.20000000000002,16
369,6418.0,4.2,2.2,3.2,13.100000000000001,-0.6000000000000001,0.7000000000000001,-85.0,-2.6,183.4,16
370,6435.0,5.5,2.8000000000000003,3.7,14.200000000000001,-0.5,1.1,-59.300000000000004,-10.8,175.79999999999998,16
371,6452.0,6.300000000000001,3.7,3.4000000000000004,14.8,0.0,0.8,-28.500000000000004,-20.400000000000002,162.8,16
372,6468.0,6.7,4.2,3.1,15.200000000000001,0.2,0.5,-15.000000000000002,-23.2,155.70000000000002,16
373,6485.0,7.1000000000000005,5.300000000000001,2.4000000000000004,15.4,1.1,-0.30000000000000004,6.4,-21.900000000000002,140.20000000000002,16
374,6502.0,7.5,6.2,1.7000000000000002,15.600000000000001,1.6,-1.0,16.0,-14.200000000000001,125.60000000000001,16
375,6518.0,7.800000000000001,6.7,1.5,15.9,1.9000000000000001,-1.2000000000000002,18.5,-10.299999999999999,118.60000000000001,16
376,6535.0,8.1,7.9,1.4000000000000001,16.0,2.9000000000000004,-1.2000000000000002,24.0,0.4,101.4,16
377,6552.0,8.1,9.200000000000001,1.7000000000000002,16.0,4.1000000000000005,-0.9,37.1,7.500000000000001,77.1,16
378,6568.0,8.200000000000001,9.700000000000001,1.8,16.0,4.4,-0.7000000000000001,47.5,7.1000000000000005,61.8,16
379,6585.0,8.6,9.600000000000001,1.5,16.5,4.2,-0.9,73.7,-5.300000000000001,25.1,16
380,6602.0,8.6,8.9,0.6000000000000001,16.6,3.6,-1.7000000000000002,95.9,-21.200000000000003,-13.5,16
381,6618.0,8.5,8.5,-0.1,16.3,2.7,-3.0,101.20000000000002,-26.200000000000003,-33.2,16
382,6635.0,7.9,7.2,-1.4000000000000001,16.0,2.1,-3.5,93.3,-22.4,-76.1,16
383,6654.0,6.4,5.5,-1.9000000000000001,14.8,0.7000000000000001,-3.9000000000000004,63.900000000000006,-11.3,-115.9,16
384,6669.0,4.9,4.2,-0.8,13.600000000000001,-0.1,-2.8000000000000003,33.800000000000004,-3.5,-136.3,16
385,6685.0,4.5,3.7,-0.1,13.3,-0.5,-2.1,24.8,-2.8,-140.10000000000002,16
386,6701.0,4.3,2.7,1.1,13.3,-1.0,-0.8,19.700000000000003,-7.300000000000001,-144.0,16
387,6718.0,4.5,1.9000000000000001,1.4000000000000001,13.700000000000001,-1.4000000000000001,-0.5,27.099999999999998,-12.600000000000001,-153.20000000000002,16
388,6736.0,4.5,1.4000000000000001,1.1,13.8,-1.6,-0.9,30.599999999999998,-10.5,-160.3,16
389,6751.0,4.5,0.2,0.5,14.0,-2.3000000000000003,-1.4000000000000001,29.900000000000006,1.6,-176.8,16
390,6768.0,3.7,-0.7000000000000001,0.6000000000000001,13.4,-2.6,-1.3,27.800000000000004,13.399999999999999,-195.7,16
391,6785.0,3.2,-1.2000000000000002,0.7000000000000001,13.0,-2.7,-1.2000000000000002,28.500000000000004,16.3,-203.50000000000003,16
392,6802.0,2.7,-2.4000000000000004,1.0,12.5,-3.3000000000000003,-0.8,33.9,10.8,-215.4,16
393,6818.0,2.4000000000000004,-3.7,1.0,12.3,-3.8000000000000003,-0.7000000000000001,43.00000000000001,-0.30000000000000004,-223.50000000000003,16
394,6835.0,2.3000000000000003,-4.4,0.9,12.0,-4.5,-1.1,52.60000000000001,-7.500000000000001,-228.20000000000002,16
395,6851.0,1.8,-5.6000000000000005,0.30000000000000004,11.700000000000001,-4.7,-1.5,54.50000000000001,-8.600000000000001,-229.00000000000003,16
396,6868.0,1.3,-6.5,-0.2,11.100000000000001,-5.0,-2.0,49.1,-8.899999999999999,-226.9,16
397,6885.0,0.8,-7.2,-0.4,10.5,-5.0,-2.3000000000000003,36.1,-9.899999999999999,-219.20000000000002,16
398,6901.0,0.7000000000000001,-7.5,-0.30000000000000004,10.200000000000001,-5.0,-2.2,27.700000000000003,-11.000000000000002,-214.10000000000002,16
399,6918.0,0.6000000000000001,-8.200000000000001,0.1,9.9,-5.0,-1.8,13.900000000000002,-12.8,-201.70000000000002,16
400,6935.0,0.4,-8.8,0.7000000000000001,9.5,-5.1000000000000005,-1.3,7.1000000000000005,-17.6,-188.0,16
401,6952.0,0.2,-9.0,1.0,9.200000000000001,-5.0,-1.1,5.7,-20.7,-180.0,16
402,6968.0,-0.1,-9.200000000000001,1.4000000000000001,8.6,-4.800000000000001,-0.7000000000000001,6.8,-26.000000000000004,-160.9,16
403,6985.0,-0.5,-9.3,1.6,8.0,-4.7,-0.6000000000000001,10.0,-25.6,-139.1,16
404,7002.0,-0.7000000000000001,-9.4,1.5,7.5,-4.800000000000001,-0.9,10.8,-23.5,-128.1,16
405,7018.0,-1.1,-10.0,0.9,7.1000000000000005,-5.0,-1.4000000000000001,8.0,-14.200000000000001,-105.80000000000001,16
406,7035.0,-2.0,-10.200000000000001,0.6000000000000001,6.0,-5.0,-1.7000000000000002,-4.800000000000001,5.6,-84.5,16
407,7051.0,-2.5,-10.3,0.5,4.6000000000000005,-5.0,-1.8,-12.299999999999999,17.1,-71.39999999999999,16
408,7068.0,-4.1000000000000005,-10.100000000000001,0.5,3.8000000000000003,-4.7,-1.6,-23.0,41.1,-38.300000000000004,16
409,7085.0,-5.5,-9.0,0.8,2.4000000000000004,-3.7,-1.1,-26.200000000000003,52.300000000000004,6.9,16
410,7101.0,-5.5,-8.3,0.6000000000000001,2.4000000000000004,-3.2,-1.2000000000000002,-19.9,43.2,60.900000000000006,16
411,7122.0,-4.5,-8.0,-0.1,3.6,-3.2,-1.8,-11.6,26.200000000000003,112.30000000000001,16
412,7135.0,-3.8000000000000003,-7.7,-0.5,4.4,-3.2,-2.1,-8.2,17.799999999999997,133.9,16
413,7151.0,-2.1,-7.2,-0.6000000000000001,6.300000000000001,-3.2,-2.2,-1.4,4.4,168.9,16
414,7169.0,-0.1,-7.0,-1.1,7.4,-3.4000000000000004,-2.4000000000000004,3.4,-3.1,181.50000000000003,16
415,7185.0,0.8,-6.9,-1.5,9.5,-3.7,-3.1,11.3,-19.6,192.8,16
416,7201.0,1.4000000000000001,-6.2,-2.5,10.3,-3.7,-4.3,7.699999999999999,-35.5,188.8,16
417,7218.0,1.3,-5.6000000000000005,-2.9000000000000004,10.0,-3.1,-5.1000000000000005,-0.8,-39.50000000000001,186.90000000000003,16
418,7235.0,0.7000000000000001,-4.5,-3.2,9.8,-2.9000000000000004,-5.2,-30.1,-36.7,190.60000000000002,16
419,7252.0,0.6000000000000001,-3.7,-2.7,9.700000000000001,-2.7,-4.7,-67.10000000000001,-21.0,201.40000000000003,16
420,7268.0,1.1,-3.1,-1.5,10.3,-2.7,-3.6,-98.0,-7.500000000000001,207.90000000000003,16
421,7285.0,1.4000000000000001,-2.8000000000000003,-0.9,10.600000000000001,-2.8000000000000003,-3.1,-107.8,-4.1,207.6,16
422,7302.0,1.8,-2.3000000000000003,0.0,11.0,-2.8000000000000003,-2.1,-115.60000000000001,-3.3000000000000007,201.60000000000002,16
423,7318.0,1.8,-1.5,0.7000000000000001,10.9,-2.5,-1.5,-112.9,-9.700000000000001,196.10000000000002,16
424,7335.0,1.8,-1.0,0.9,10.9,-2.4000000000000004,-1.4000000000000001,-109.8,-14.200000000000001,195.79999999999998,16
425,7351.0,2.2,-0.2,1.1,11.200000000000001,-2.1,-1.3,-103.8,-21.900000000000002,198.3,16
426,7368.0,3.2,0.4,1.5,12.0,-2.0,-1.0,-99.10000000000001,-25.300000000000004,198.9,16
427,7385.0,3.7,0.7000000000000001,1.8,12.8,-1.8,-0.6000000000000001,-92.2,-25.7,191.70000000000002,16
428,7401.0,4.4,1.6,2.3000000000000003,13.0,-1.5,-0.4,-87.10000000000001,-24.5,185.6,16
429,7418.0,4.9,2.6,2.9000000000000004,13.3,-1.0,0.1,-72.60000000000001,-20.2,172.70000000000002,16
430,7435.0,5.7,3.3000000000000003,3.1,13.9,-0.7000000000000001,0.2,-52.900000000000006,-16.5,161.00000000000003,16
431,7451.0,6.1000000000000005,3.6,3.1,14.200000000000001,-0.5,0.1,-42.3,-16.3,154.7,16
432,7468.0,6.6000000000000005,4.7,2.8000000000000003,14.5,0.30000000000000004,-0.2,-22.700000000000003,-17.7,141.3,16
433,7485.0,7.2,5.9,2.7,15.0,1.2000000000000002,-0.4,-8.2,-15.700000000000001,125.9,16
434,7501.0,7.5,6.4,2.6,15.200000000000001,1.5,-0.5,-2.2,-14.200000000000001,115.7,16
435,7518.0,8.200000000000001,7.0,2.7,15.8,2.0,-0.4,11.000000000000002,-7.6,92.39999999999999,16
436,7535.0,8.4,7.800000000000001,2.8000000000000003,16.0,2.5,-0.2,31.799999999999997,4.2,67.2,16
437,7552.0,8.200000000000001,8.3,2.8000000000000003,15.8,3.0,-0.2,45.8,10.5,52.1,16
438,7568.0,7.5,8.9,2.4000000000000004,15.100000000000001,3.6,-0.30000000000000004,77.4,14.200000000000001,18.8,16
439,7585.0,7.1000000000000005,8.5,1.9000000000000001,14.700000000000001,3.1,-0.7000000000000001,110.30000000000001,-2.9,-12.100000000000001,16
440,7602.0,7.1000000000000005,8.0,1.5,14.9,2.3000000000000003,-1.3,125.9,-16.700000000000003,-24.7,16
441,7618.0,7.300000000000001,7.1000000000000005,0.4,15.100000000000001,1.8,-1.9000000000000001,151.3,-47.1,-45.5,16
442,7635.0,7.9,6.0,-1.2000000000000002,15.8,0.9,-3.4000000000000004,155.60000000000002,-67.2,-67.00000000000001,16
443,7651.0,7.800000000000001,5.0,-2.5,15.8,0.0,-4.6000000000000005,131.79999999999998,-63.8,-98.0,16
444,7668.0,7.300000000000001,4.6000000000000005,-2.7,15.5,-0.30000000000000004,-4.800000000000001,111.10000000000002,-57.1,-114.2,16
445,7685.0,6.1000000000000005,3.7,-2.0,14.5,-0.8,-4.1000000000000005,64.60000000000001,-41.6,-141.2,16
446,7718.0,4.800000000000001,2.4000000000000004,-0.2,13.600000000000001,-1.4000000000000001,-2.4000000000000004,16.200000000000003,-23.700000000000003,-163.4,16
447,7737.0,4.5,1.4000000000000001,0.7000000000000001,13.5,-1.9000000000000001,-1.6,1.4,-18.0,-175.89999999999998,16
448,7752.0,4.4,0.2,1.0,13.600000000000001,-2.5,-1.3,-5.2,-12.5,-189.50000000000003,16
449,7768.0,4.3,-0.5,1.1,13.4,-3.2,-1.3,-6.699999999999999,-9.700000000000001,-196.90000000000003,16
450,7785.0,3.6,-1.7000000000000002,1.1,13.100000000000001,-3.4000000000000004,-1.3,-10.0,-1.4,-211.29999999999998,16
451,7801.0,2.9000000000000004,-2.7,1.2000000000000002,12.5,-3.7,-1.1,-14.300000000000002,8.3,-222.40000000000003,16
452,7819.0,2.2,-3.9000000000000004,1.5,11.9,-4.1000000000000005,-0.8,-16.700000000000003,16.1,-229.2,16
453,7835.0,2.0,-4.5,1.6,11.700000000000001,-4.3,-0.6000000000000001,-15.5,17.7,-230.30000000000004,16
454,7852.0,1.6,-5.5,1.9000000000000001,11.3,-4.6000000000000005,-0.2,-6.300000000000001,16.0,-229.2,16
455,7868.0,1.3,-6.5,2.0,10.9,-4.9,-0.1,8.8,7.400000000000001,-224.1,16
456,7885.0,0.9,-6.7,1.9000000000000001,10.5,-4.800000000000001,-0.2,16.3,1.6,-221.2,16
457,7902.0,0.4,-7.1000000000000005,1.5,9.8,-4.6000000000000005,-0.6000000000000001,26.000000000000004,-9.4,-210.50000000000003,16
458,7919.0,0.5,-7.6000000000000005,1.5,9.8,-4.6000000000000005,-0.7000000000000001,27.800000000000004,-16.3,-194.20000000000002,16
459,7935.0,0.9,-8.1,1.5,10.0,-4.800000000000001,-0.7000000000000001,28.700000000000003,-19.1,-184.79999999999998,16
460,7952.0,1.6,-9.3,1.2000000000000002,10.5,-5.5,-1.1,30.4,-23.5,-170.30000000000004,16
461,7969.0,1.1,-10.700000000000001,0.30000000000000004,9.700000000000001,-6.5,-2.1,22.1,-17.0,-167.1,16
462,7985.0,-0.7000000000000001,-11.4,0.0,7.7,-6.9,-2.4000000000000004,6.9,6.600000000000001,-159.5,16
463,8001.0,-1.7000000000000002,-11.700000000000001,-0.2,6.6000000000000005,-7.0,-2.5,-1.1,17.9,-149.9,16
464,8018.0,-3.2,-12.200000000000001,-0.5,4.9,-7.300000000000001,-2.8000000000000003,-18.0,28.600000000000005,-116.6,16
465,8035.0,-3.9000000000000004,-12.600000000000001,-1.0,4.0,-7.5,-3.2,-35.699999999999996,34.2,-71.30000000000001,16
466,8051.0,-4.3,-12.600000000000001,-1.1,3.6,-7.5,-3.2,-43.2,36.5,-47.1,16
467,8068.0,-5.2,-11.8,-1.1,2.7,-6.7,-3.0,-54.9,33.50000000000001,6.699999999999999,16
468,8085.0,-5.2,-10.200000000000001,-0.6000000000000001,2.7,-5.300000000000001,-2.3000000000000003,-63.2,19.5,67.3,16
469,8101.0,-4.4,-9.600000000000001,-0.4,3.6,-4.9,-2.1,-62.6,10.700000000000001,97.3,16
470,8118.0,-1.8,-9.3,-0.4,6.4,-5.0,-2.0,-49.300000000000004,-0.4,149.50000000000003,16
471,8135.0,0.30000000000000004,-8.200000000000001,-0.9,8.700000000000001,-4.5,-2.4000000000000004,-26.9,-8.0,174.4,16
472,8152.0,1.1,-7.9,-1.3,9.600000000000001,-4.4,-2.9000000000000004,-17.9,-14.200000000000001,179.40000000000003,16
473,8168.0,1.9000000000000001,-7.0,-2.1,10.600000000000001,-4.1000000000000005,-3.7,-8.5,-26.300000000000004,183.7,16
474,8185.0,1.9000000000000001,-5.800000000000001,-2.5,10.8,-3.5,-4.3,-9.899999999999999,-35.3,190.2,16
475,8201.0,1.9000000000000001,-4.6000000000000005,-2.4000000000000004,10.9,-3.0,-4.3,-18.3,-41.199999999999996,200.4,16
476,8218.0,2.1,-4.1000000000000005,-2.2,11.100000000000001,-2.8000000000000003,-4.2,-24.0,-43.1,204.4,16
477,8235.0,2.5,-3.1,-1.8,11.600000000000001,-2.5,-3.9000000000000004,-36.2,-44.00000000000001,208.00000000000003,16
478,8251.0,2.9000000000000004,-2.2,-1.2000000000000002,12.0,-2.2,-3.4000000000000004,-49.0,-40.0,205.79999999999998,16
479,8268.0,3.1,-1.8,-0.7000000000000001,12.3,-2.1,-3.0,-55.0,-38.300000000000004,201.8,16
480,8285.0,3.0,-1.0,0.2,12.100000000000001,-1.8,-2.3000000000000003,-61.8,-36.6,188.70000000000002,16
481,8301.0,2.4000000000000004,0.1,0.9,11.4,-1.3,-1.7000000000000002,-64.10000000000001,-34.50000000000001,175.10000000000002,16
482,8318.0,2.1,0.5,1.1,11.100000000000001,-1.1,-1.5,-65.0,-33.6,170.30000000000004,16
483,8335.0,1.9000000000000001,1.0,1.5,10.8,-1.0,-1.2000000000000002,-67.3,-29.0,166.00000000000003,16
484,8351.0,2.3000000000000003,1.4000000000000001,2.1,11.0,-1.1,-0.8,-68.9,-21.1,167.0,16
485,8368.0,2.7,1.7000000000000002,2.5,11.8,-0.8,-0.2,-66.7,-18.4,167.1,16
486,8385.0,3.8000000000000003,2.3000000000000003,2.8000000000000003,12.3,-0.7000000000000001,-0.2,-54.0,-18.8,161.9,16
487,8401.0,4.0,3.4000000000000004,2.2,12.4,-0.1,-0.9,-37.800000000000004,-20.900000000000002,146.60000000000002,16
488,8418.0,3.6,4.4,1.7000000000000002,11.8,0.7000000000000001,-1.5,-33.0,-20.8,134.9,16
489,8435.0,3.6,4.800000000000001,1.6,11.8,0.9,-1.6,-34.2,-21.900000000000002,134.00000000000003,16
490,8451.0,4.6000000000000005,5.5,2.0,12.600000000000001,1.3,-1.3,-37.300000000000004,-24.7,138.50000000000003,16
491,8468.0,6.300000000000001,6.6000000000000005,2.4000000000000004,14.0,2.1,-1.0,-36.0,-26.799999999999997,136.9,16
492,8485.0,7.1000000000000005,7.2,2.7,14.700000000000001,2.6,-0.7000000000000001,-33.7,-26.9,131.4,16
493,8501.0,8.8,8.3,3.1,16.3,3.5,-0.4,-24.400000000000002,-26.9,111.70000000000002,16
494,8518.0,10.200000000000001,9.3,3.2,17.6,4.4,-0.4,-12.4,-18.8,85.80000000000001,16
495,8535.0,10.5,9.8,3.1,17.900000000000002,4.800000000000001,-0.5,-5.8,-10.8,69.4,16
496,8551.0,10.3,10.5,3.2,17.7,5.6000000000000005,-0.30000000000000004,7.8,12.0,26.1,16
497,8568.0,8.8,10.3,3.3000000000000003,16.400000000000002,5.4,-0.2,23.900000000000006,33.300000000000004,-30.699999999999996,16
498,8585.0,7.7,9.700000000000001,3.3000000000000003,15.3,4.9,0.0,33.7,39.9,-58.5,16
499,8602.0,6.1000000000000005,7.9,3.6,13.9,3.4000000000000004,0.5,59.699999999999996,39.50000000000001,-95.20000000000002,16
500,8618.0,5.6000000000000005,6.2,3.4000000000000004,13.8,1.9000000000000001,0.5,94.7,19.0,-112.0,16
501,8635.0,5.9,4.6000000000000005,2.8000000000000003,14.200000000000001,0.6000000000000001,0.1,124.10000000000001,-9.899999999999999,-124.0,16
502,8652.0,6.300000000000001,3.8000000000000003,2.3000000000000003,14.700000000000001,0.0,-0.4,133.3,-21.400000000000002,-131.9,16
503,8668.0,6.800000000000001,2.0,1.4000000000000001,15.5,-1.6,-1.1,141.0,-30.000000000000004,-151.3,16
504,8685.0,6.5,0.6000000000000001,1.1,15.4,-2.6,-1.4000000000000001,138.29999999999998,-31.7,-170.1,16
505,8701.0,6.1000000000000005,0.1,1.0,15.100000000000001,-2.8000000000000003,-1.5,134.5,-34.0,-176.40000000000003,16
506,8718.0,5.4,-0.5,0.9,14.600000000000001,-2.9000000000000004,-1.5,122.50000000000001,-38.7,-183.6,16
507,8735.0,5.0,-1.0,0.8,14.3,-3.0,-1.7000000000000002,104.7,-38.7,-188.20000000000002,16
508,8751.0,4.800000000000001,-1.4000000000000001,0.7000000000000001,14.200000000000001,-3.1,-1.8,93.3,-34.800000000000004,-190.60000000000002,16
509,8768.0,4.7,-2.2,0.7000000000000001,14.200000000000001,-3.4000000000000004,-1.8,68.0,-22.1,-196.0,16
510,8785.0,4.3,-3.1,1.2000000000000002,13.9,-3.6,-1.4000000000000001,44.7,-8.5,-203.4,16
511,8801.0,4.0,-3.4000000000000004,1.4000000000000001,13.600000000000001,-3.7,-1.1,36.0,-2.7,-206.3,16
512,8820.0,3.5,-4.2,2.0,13.100000000000001,-3.9000000000000004,-0.5,27.3,5.300000000000001,-210.3,16
513,8835.0,2.9000000000000004,-5.2,2.2,12.5,-4.2,-0.2,27.5,4.9,-213.40000000000003,16
514,8851.0,2.1,-5.9,2.4000000000000004,11.700000000000001,-4.2,-0.1,30.599999999999998,-1.6,-214.90000000000003,16
515,8868.0,1.7000000000000002,-6.1000000000000005,2.2,11.200000000000001,-4.2,-0.2,32.400000000000006,-3.7000000000000006,-213.40000000000003,16
516,8885.0,1.0,-6.6000000000000005,2.0,10.4,-4.0,-0.4,35.2,-2.4000000000000004,-206.4,16
517,8901.0,0.4,-6.9,2.0,9.5,-3.8000000000000003,-0.5,36.1,-1.3,-196.4,16
518,8918.0,0.1,-7.0,2.0,9.1,-3.7,-0.5,36.400000000000006,-2.0,-190.50000000000003,16
519,8935.0,0.1,-7.4,1.9000000000000001,8.9,-3.6,-0.7000000000000001,35.4,-3.6000000000000005,-173.6,16
520,8951.0,0.4,-7.7,1.6,9.0,-3.6,-1.0,35.3,-0.6000000000000001,-154.9,16
521,8968.0,0.5,-7.9,1.4000000000000001,9.0,-3.5,-1.3,34.400000000000006,1.9,-146.5,16
522,8985.0,0.6000000000000001,-8.1,1.3,8.9,-3.5,-1.4000000000000001,28.400000000000002,6.1000000000000005,-130.8,16
523,9002.0,0.6000000000000001,-8.3,1.2000000000000002,8.700000000000001,-3.4000000000000004,-1.4000000000000001,20.5,10.700000000000001,-115.7,16
524,9018.0,0.7000000000000001,-8.6,1.1,8.700000000000001,-4.0,-1.7000000000000002,10.700000000000001,17.400000000000002,-100.6,16
525,9035.0,0.7000000000000001,-9.5,0.8,8.6,-4.3,-1.8,4.5,23.800000000000004,-93.49999999999999,16
526,9051.0,-0.2,-9.9,0.7000000000000001,7.6000000000000005,-4.6000000000000005,-1.8,-8.899999999999999,43.50000000000001,-75.5,16
527,9068.0,-1.5,-9.600000000000001,1.0,6.2,-4.3,-1.2000000000000002,-15.399999999999999,66.0,-49.699999999999996,16
528,9085.0,-2.1,-9.3,1.2000000000000002,5.6000000000000005,-3.9000000000000004,-0.9,-13.8,72.80000000000001,-35.0,16
529,9102.0,-2.7,-8.6,1.0,5.1000000000000005,-3.3000000000000003,-0.9,0.5,72.10000000000001,-1.8000000000000003,16
530,9121.0,-2.8000000000000003,-8.1,0.1,4.9,-2.9000000000000004,-1.7000000000000002,21.300000000000004,61.9,32.8,16
531,9135.0,-2.9000000000000004,-7.6000000000000005,-0.4,4.9,-2.5,-2.1,30.5,53.9,49.199999999999996,16
532,9151.0,-2.7,-6.800000000000001,-1.4000000000000001,5.2,-2.0,-3.2,40.0,32.400000000000006,78.7,16
533,9168.0,-1.9000000000000001,-6.5,-2.4000000000000004,6.2,-2.1,-4.2,35.0,9.700000000000001,103.3,16
534,9185.0,-1.4000000000000001,-6.5,-2.8000000000000003,7.2,-2.3000000000000003,-4.7,27.700000000000003,2.6,113.00000000000001,16
535,9202.0,-0.9,-6.2,-2.8000000000000003,7.5,-2.4000000000000004,-4.6000000000000005,9.4,-1.5,128.4,16
536,9218.0,-0.8,-5.7,-2.2,7.7,-2.3000000000000003,-4.1000000000000005,-4.7,-1.3,141.8,16
537,9235.0,-0.8,-5.0,-1.9000000000000001,7.800000000000001,-2.0,-3.8000000000000003,-12.200000000000001,-6.4,155.4,16
538,9252.0,-0.8,-4.6000000000000005,-1.9000000000000001,7.9,-1.9000000000000001,-3.8000000000000003,-15.100000000000001,-11.000000000000002,161.00000000000003,16
539,9268.0,-0.5,-3.9000000000000004,-2.1,8.3,-1.8,-4.1000000000000005,-24.8,-17.799999999999997,170.30000000000004,16
540,9285.0,-0.1,-3.4000000000000004,-2.0,8.8,-1.8,-4.0,-39.300000000000004,-19.9,176.7,16
541,9301.0,0.0,-3.2,-1.8,9.0,-1.8,-3.8000000000000003,-46.300000000000004,-20.7,179.1,16
542,9318.0,0.1,-2.5,-1.1,9.200000000000001,-1.7000000000000002,-3.2,-56.10000000000001,-23.900000000000006,184.20000000000002,16
543,9335.0,0.6000000000000001,-1.9000000000000001,-0.6000000000000001,9.600000000000001,-1.7000000000000002,-2.8000000000000003,-61.199999999999996,-29.0,190.9,16
544,9352.0,0.9,-1.5,-0.5,9.9,-1.6,-2.7,-62.7,-31.2,193.60000000000002,16
545,9369.0,1.8,-1.0,-0.1,10.8,-1.6,-2.5,-64.2,-33.800000000000004,196.3,16
546,9385.0,2.3000000000000003,-0.1,0.30000000000000004,11.200000000000001,-1.3,-2.2,-64.60000000000001,-35.1,193.1,16
547,9402.0,2.6,0.4,0.6000000000000001,11.5,-1.1,-1.9000000000000001,-64.0,-35.4,191.1,16
548,9419.0,3.3000000000000003,1.3,1.1,12.100000000000001,-0.7000000000000001,-1.5,-58.400000000000006,-36.5,183.10000000000002,16
549,9436.0,3.9000000000000004,2.2,1.4000000000000001,12.600000000000001,-0.2,-1.4000000000000001,-46.800000000000004,-36.9,171.0,16
550,9451.0,4.0,3.3000000000000003,1.0,12.600000000000001,0.5,-1.9000000000000001,-35.9,-36.6,157.60000000000002,16
551,9468.0,4.0,3.9000000000000004,0.9,12.4,0.9,-2.1,-34.300000000000004,-35.0,152.8,16
552,9485.0,4.5,4.800000000000001,1.5,12.700000000000001,1.4000000000000001,-1.6,-32.400000000000006,-33.9,146.8,16
553,9501.0,5.5,5.6000000000000005,2.0,13.600000000000001,1.9000000000000001,-1.2000000000000002,-22.1,-36.0,141.0,16
554,9518.0,6.1000000000000005,6.0,2.3000000000000003,14.100000000000001,2.2,-1.0,-14.800000000000002,-37.400000000000006,136.1,16
555,9535.0,7.2,7.1000000000000005,2.5,15.0,3.0,-0.9,1.8000000000000003,-40.0,119.39999999999999,16
556,9551.0,7.6000000000000005,8.0,2.7,15.4,3.7,-0.8,18.0,-39.0,94.80000000000001,16
557,9568.0,7.6000000000000005,8.4,2.6,15.3,4.3,-0.8,30.200000000000003,-31.2,65.4,16
558,9585.0,7.7,8.8,2.8000000000000003,15.3,4.2,-0.6000000000000001,35.0,-24.599999999999998,51.6,16
559,9601.0,7.5,8.9,3.5,15.200000000000001,4.3,0.1,51.2,-5.7,25.0,16
560,9618.0,7.300000000000001,8.6,4.2,15.0,4.0,1.0,84.5,3.1,0.5,16
561,9635.0,7.5,8.200000000000001,4.4,15.200000000000001,3.6,1.2000000000000002,107.7,-1.9,-10.5,16
562,9652.0,8.200000000000001,6.9,3.8000000000000003,16.0,2.2,0.8,160.10000000000002,-29.400000000000002,-31.9,16
563,9668.0,8.200000000000001,5.800000000000001,1.9000000000000001,16.1,1.2000000000000002,-0.8,202.20000000000002,-57.49999999999999,-58.1,16
564,9685.0,7.9,5.4,1.2000000000000002,15.8,0.8,-1.4000000000000001,213.40000000000003,-63.0,-72.9,16
565,9702.0,6.6000000000000005,4.5,-0.4,14.8,0.0,-2.8000000000000003,217.20000000000002,-68.80000000000001,-105.0,16
566,9718.0,5.5,3.2,-0.9,13.8,-1.1,-3.3000000000000003,195.7,-73.6,-125.50000000000001,16
567,9735.0,5.0,2.7,-0.6000000000000001,13.4,-1.5,-2.9000000000000004,181.70000000000002,-78.7,-129.60000000000002,16
568,9751.0,4.6000000000000005,2.1,0.6000000000000001,13.100000000000001,-1.8,-1.8,158.29999999999998,-92.7,-130.0,16
569,9768.0,4.7,1.7000000000000002,1.7000000000000002,13.3,-1.9000000000000001,-0.7000000000000001,146.60000000000002,-103.89999999999999,-130.20000000000002,16
570,9785.0,4.800000000000001,1.6,1.6,13.600000000000001,-1.9000000000000001,-1.3,142.10000000000002,-106.20000000000002,-133.10000000000002,16
571,9801.0,4.800000000000001,1.1,1.0,13.600000000000001,-2.0,-1.7000000000000002,122.50000000000001,-100.1,-144.10000000000002,16
572,9819.0,4.7,0.5,1.1,13.600000000000001,-2.3000000000000003,-1.7000000000000002,92.50000000000001,-88.60000000000001,-155.20000000000002,16
573,9835.0,4.7,-0.5,1.5,13.700000000000001,-2.9000000000000004,-1.5,62.1,-80.50000000000001,-161.00000000000003,16
574,9851.0,4.7,-0.9,1.7000000000000002,13.8,-3.1,-1.4000000000000001,48.400000000000006,-77.7,-163.10000000000002,16
575,9868.0,4.5,-1.7000000000000002,2.2,13.700000000000001,-3.4000000000000004,-1.1,23.400000000000002,-71.39999999999999,-167.9,16
576,9885.0,4.0,-2.4000000000000004,2.7,13.200000000000001,-3.6,-0.8,0.6000000000000001,-63.599999999999994,-175.20000000000002,16
577,9901.0,3.6,-2.8000000000000003,2.9000000000000004,12.8,-3.7,-0.6000000000000001,-10.299999999999999,-59.00000000000001,-178.9,16
578,9919.0,3.0,-3.6,3.1,12.200000000000001,-3.9000000000000004,-0.6000000000000001,-31.799999999999997,-46.800000000000004,-182.8,16
579,9935.0,2.4000000000000004,-4.3,3.4000000000000004,11.600000000000001,-4.1000000000000005,-0.4,-54.0,-29.800000000000004,-181.2,16
580,9951.0,2.2,-4.6000000000000005,3.6,11.3,-4.0,-0.2,-63.900000000000006,-21.1,-179.5,16
581,9968.0,1.6,-5.1000000000000005,4.0,10.700000000000001,-3.9000000000000004,0.2,-78.9,-4.6,-175.70000000000002,16
582,9985.0,1.4000000000000001,-5.6000000000000005,4.4,10.4,-3.8000000000000003,0.7000000000000001,-84.9,11.900000000000002,-172.1,16
583,10002.0,1.3,-6.2,4.6000000000000005,10.3,-3.8000000000000003,1.1,-78.80000000000001,25.6,-169.1,16
584,10018.0,1.3,-6.6000000000000005,4.5,10.200000000000001,-3.9000000000000004,1.1,-72.2,29.300000000000004,-168.70000000000002,16
585,10035.0,1.1,-7.2,4.1000000000000005,9.9,-4.1000000000000005,0.8,-59.00000000000001,27.099999999999998,-169.0,16
586,10051.0,0.8,-7.800000000000001,3.6,9.4,-4.1000000000000005,0.5,-52.80000000000001,21.900000000000002,-165.20000000000002,16
587,10068.0,0.7000000000000001,-8.1,3.5,9.200000000000001,-4.2,0.5,-50.900000000000006,23.400000000000002,-160.4,16
588,10085.0,0.1,-8.200000000000001,3.5,8.5,-3.8000000000000003,0.7000000000000001,-43.50000000000001,35.1,-147.2,16
589,10101.0,-0.2,-8.3,3.3000000000000003,8.0,-3.6,0.7000000000000001,-31.3,49.9,-130.9,16
590,10118.0,-0.4,-8.3,3.1,7.7,-3.5,0.6000000000000001,-22.9,57.00000000000001,-122.90000000000002,16
591,10135.0,-0.7000000000000001,-8.6,2.4000000000000004,7.300000000000001,-3.5,0.2,-8.100000000000001,63.500000000000014,-104.7,16
592,10151.0,-1.0,-8.4,2.2,6.9,-3.2,0.2,6.8,64.10000000000001,-86.8,16
593,10168.0,-1.3,-8.8,1.2000000000000002,6.4,-3.5,-0.7000000000000001,28.500000000000004,69.4,-64.7,16
594,10185.0,-1.8,-8.700000000000001,0.7000000000000001,5.9,-3.4000000000000004,-1.2000000000000002,37.6,74.89999999999999,-51.9,16
595,10201.0,-3.3000000000000003,-7.800000000000001,-0.1,4.4,-2.5,-1.9000000000000001,48.50000000000001,81.3,-22.9,16
596,10218.0,-3.8000000000000003,-7.5,-0.6000000000000001,3.9000000000000004,-2.2,-2.2,50.900000000000006,79.7,-5.0,16
597,10235.0,-4.0,-7.0,-1.3,3.7,-1.9000000000000001,-2.8000000000000003,49.9,70.3,34.60000000000001,16
598,10252.0,-3.6,-6.5,-1.8,4.3,-1.7000000000000002,-3.3000000000000003,46.4,56.300000000000004,73.10000000000001,16
599,10268.0,-2.6,-6.5,-2.7,5.4,-1.9000000000000001,-4.1000000000000005,38.2,45.8,107.9,16
600,10285.0,-2.0,-6.4,-2.8000000000000003,6.1000000000000005,-2.1,-4.2,33.0,44.2,123.6,16
601,10302.0,-1.2000000000000002,-6.1000000000000005,-2.7,7.1000000000000005,-2.2,-4.1000000000000005,27.0,38.900000000000006,151.0,16
602,10321.0,0.0,-5.6000000000000005,-2.7,8.6,-2.3000000000000003,-4.1000000000000005,27.700000000000003,22.5,172.1,16
603,10335.0,0.7000000000000001,-5.4,-3.0,9.3,-2.4000000000000004,-4.3,28.1,11.000000000000002,177.6,16
604,10351.0,1.3,-4.9,-3.4000000000000004,10.100000000000001,-2.4000000000000004,-4.9,23.099999999999998,-5.9,182.5,16
605,10369.0,1.3,-4.0,-3.6,10.3,-2.2,-5.1000000000000005,9.899999999999999,-10.0,186.70000000000002,16
606,10385.0,1.4000000000000001,-3.7,-3.5,10.600000000000001,-2.2,-4.800000000000001,1.3,-9.4,189.70000000000002,16
607,10401.0,1.6,-3.0,-3.1,10.700000000000001,-2.1,-4.7,-15.000000000000002,-7.0,194.5,16
608,10421.0,2.0,-2.3000000000000003,-2.6,11.100000000000001,-2.0,-4.3,-29.0,-9.0,195.7,16
609,10436.0,2.0,-1.4000000000000001,-1.9000000000000001,11.200000000000001,-1.7000000000000002,-3.5,-39.8,-13.5,196.3,16
610,10451.0,2.3000000000000003,-1.0,-1.6,11.4,-1.6,-3.3000000000000003,-42.800000000000004,-18.200000000000003,196.7,16
611,10468.0,2.8000000000000003,-0.30000000000000004,-0.9,11.9,-1.5,-2.7,-45.400000000000006,-24.7,197.6,16
612,10485.0,3.6,0.5,0.0,12.600000000000001,-1.3,-1.9000000000000001,-40.1,-26.799999999999997,196.0,16
613,10501.0,4.0,0.9,0.4,12.9,-1.2000000000000002,-1.6,-33.800000000000004,-26.799999999999997,193.60000000000002,16
614,10518.0,4.5,1.8,1.0,13.3,-0.9,-1.1,-13.700000000000001,-29.600000000000005,183.7,16
615,10535.0,4.800000000000001,2.8000000000000003,0.9,13.4,-0.30000000000000004,-1.3,8.2,-34.0,169.8,16
616,10551.0,4.800000000000001,3.3000000000000003,0.7000000000000001,13.3,0.2,-1.7000000000000002,16.200000000000003,-34.800000000000004,162.6,16
617,10568.0,4.9,4.2,0.5,13.3,0.4,-1.8,25.7,-34.0,148.9,16
618,10586.0,5.4,4.7,0.8,13.600000000000001,0.5,-1.5,32.400000000000006,-34.50000000000001,139.8,16
619,10602.0,5.800000000000001,4.9,0.9,14.200000000000001,0.7000000000000001,-1.3,41.7,-38.50000000000001,129.3,16
620,10619.0,6.5,5.6000000000000005,1.2000000000000002,14.5,0.9,-1.2000000000000002,47.2,-39.9,122.90000000000002,16
621,10637.0,7.2,6.4,1.0,15.0,1.4000000000000001,-1.4000000000000001,57.60000000000001,-38.900000000000006,105.3,16
622,10653.0,7.800000000000001,6.9,0.7000000000000001,15.4,1.7000000000000002,-1.6,64.0,-30.200000000000003,82.60000000000001,16
623,10668.0,8.0,6.9,0.5,15.700000000000001,1.6,-1.8,65.6,-24.900000000000002,70.8,16
624,10685.0,8.200000000000001,7.2,0.30000000000000004,15.8,1.7000000000000002,-1.9000000000000001,69.10000000000001,-13.000000000000002,46.50000000000001,16
625,10701.0,7.9,7.5,0.4,15.5,2.0,-1.7000000000000002,76.89999999999999,-4.800000000000001,21.500000000000004,16
626,10720.0,7.4,7.7,0.6000000000000001,15.0,2.1,-1.4000000000000001,84.0,-6.500000000000001,9.3,16
627,10735.0,7.1000000000000005,7.7,0.6000000000000001,14.8,2.2,-1.3,106.30000000000001,-17.0,-14.900000000000002,16
628,10751.0,6.800000000000001,7.300000000000001,-0.4,14.5,1.9000000000000001,-2.1,129.70000000000002,-36.5,-41.300000000000004,16
629,10768.0,6.5,7.1000000000000005,-1.1,14.3,1.7000000000000002,-2.8000000000000003,135.5,-43.50000000000001,-55.8,16
630,10785.0,5.4,6.5,-2.1,13.4,1.3,-3.6,129.3,-49.199999999999996,-86.3,16
631,10801.0,4.0,5.7,-1.9000000000000001,12.200000000000001,0.8,-3.4000000000000004,109.50000000000001,-49.0,-111.20000000000002,16
632,10818.0,3.5,4.5,-0.6000000000000001,11.9,-0.1,-2.2,91.30000000000001,-53.599999999999994,-125.50000000000001,16
633,10835.0,3.6,3.8000000000000003,-0.1,12.100000000000001,-0.5,-1.6,87.3,-58.2,-129.9,16
634,10851.0,4.1000000000000005,2.4000000000000004,0.6000000000000001,12.8,-1.6,-1.0,86.5,-67.8,-138.29999999999998,16
635,10868.0,4.1000000000000005,1.5,0.30000000000000004,13.0,-2.0,-1.4000000000000001,87.10000000000001,-71.19999999999999,-148.9,16
636,10888.0,3.3000000000000003,1.0,-0.4,12.4,-2.1,-2.2,76.89999999999999,-64.7,-160.70000000000002,16
637,10901.0,2.8000000000000003,0.8,-0.6000000000000001,11.9,-2.1,-2.5,66.5,-62.0,-165.5,16
638,10925.0,1.9000000000000001,0.30000000000000004,-0.7000000000000001,11.100000000000001,-2.0,-2.8000000000000003,38.900000000000006,-59.80000000000001,-170.8,16
639,10935.0,1.6,0.1,-0.5,11.0,-2.0,-2.6,23.2,-59.300000000000004,-171.39999999999998,16
640,10951.0,1.8,-0.9,0.5,11.200000000000001,-2.4000000000000004,-1.8,-5.4,-58.5,-170.70000000000002,16
641,10968.0,2.1,-1.9000000000000001,1.6,11.5,-2.9000000000000004,-0.9,-23.6,-54.300000000000004,-172.1,16
642,10985.0,2.0,-2.8000000000000003,2.2,11.5,-3.2,-0.4,-29.0,-50.5,-172.9,16
643,11001.0,1.9000000000000001,-3.2,2.4000000000000004,11.4,-3.3000000000000003,-0.30000000000000004,-35.4,-42.0,-174.7,16
644,11021.0,1.6,-4.0,2.2,11.0,-3.5,-0.6000000000000001,-43.50000000000001,-33.800000000000004,-174.7,16
645,11035.0,1.4000000000000001,-4.7,2.4000000000000004,10.8,-3.7,-0.5,-55.3,-24.3,-170.8,16
646,11051.0,1.4000000000000001,-5.1000000000000005,2.5,10.700000000000001,-3.8000000000000003,-0.30000000000000004,-60.1,-19.300000000000004,-167.60000000000002,16
647,11068.0,1.4000000000000001,-5.6000000000000005,2.7,10.700000000000001,-3.8000000000000003,-0.1,-66.7,-9.3,-160.10000000000002,16
648,11085.0,1.5,-6.2,2.9000000000000004,10.600000000000001,-3.9000000000000004,0.1,-68.3,1.2000000000000002,-151.3,16
649,11101.0,1.6,-6.5,2.8000000000000003,10.700000000000001,-4.0,0.1,-67.8,4.6,-147.4,16
650,11120.0,1.8,-7.1000000000000005,2.9000000000000004,10.8,-4.1000000000000005,0.30000000000000004,-64.2,9.3,-139.9,16
651,11135.0,1.7000000000000002,-7.4,2.8000000000000003,10.5,-4.0,0.4,-56.10000000000001,14.300000000000002,-131.2,16
652,11151.0,1.6,-7.6000000000000005,2.8000000000000003,10.5,-4.1000000000000005,0.4,-50.60000000000001,16.1,-126.20000000000002,16
653,11168.0,1.4000000000000001,-7.9,2.4000000000000004,10.100000000000001,-4.0,0.1,-41.199999999999996,18.900000000000002,-116.69999999999999,16
654,11185.0,1.2000000000000002,-8.4,2.2,9.8,-4.2,0.1,-37.9,23.3,-106.0,16
655,11202.0,1.1,-9.3,1.8,9.5,-4.9,-0.2,-36.400000000000006,33.400000000000006,-92.8,16
656,11230.0,0.0,-9.600000000000001,1.8,8.4,-5.0,0.1,-34.2,52.5,-77.80000000000001,16
657,11235.0,-0.5,-9.5,2.0,7.800000000000001,-4.800000000000001,0.4,-30.200000000000003,61.10000000000001,-68.0,16
658,11251.0,-1.2000000000000002,-8.6,2.5,7.1000000000000005,-3.9000000000000004,1.1,-9.899999999999999,69.10000000000001,-44.8,16
659,11268.0,-1.0,-8.200000000000001,2.5,7.300000000000001,-3.4000000000000004,1.2000000000000002,7.500000000000001,66.0,-34.50000000000001,16
660,11285.0,-0.30000000000000004,-7.7,2.0,8.0,-2.9000000000000004,0.8,55.0,44.300000000000004,-26.200000000000003,16
661,11301.0,-1.8,-7.0,0.2,6.4,-2.3000000000000003,-1.1,102.2,14.200000000000001,-23.6,16
662,11320.0,-3.5,-6.1000000000000005,-1.8,4.6000000000000005,-1.5,-3.4000000000000004,116.6,-6.699999999999999,0.6000000000000001,16
663,11335.0,-3.8000000000000003,-5.6000000000000005,-2.6,4.3,-1.1,-4.2,110.70000000000002,-10.600000000000001,20.1,16
664,11351.0,-2.9000000000000004,-5.5,-3.5,5.300000000000001,-1.3,-5.300000000000001,81.0,-9.3,63.599999999999994,16
665,11368.0,-1.2000000000000002,-5.7,-3.7,7.1000000000000005,-1.8,-5.6000000000000005,43.4,-1.2000000000000002,94.0,16
666,11385.0,-0.8,-5.6000000000000005,-3.6,7.6000000000000005,-1.8,-5.5,25.300000000000004,4.5,103.00000000000001,16
667,11401.0,-0.7000000000000001,-5.0,-3.1,7.800000000000001,-1.6,-5.1000000000000005,-7.300000000000001,15.399999999999999,115.7,16
668,11420.0,-1.3,-4.5,-2.4000000000000004,7.300000000000001,-1.4000000000000001,-4.3,-31.799999999999997,20.2,127.9,16
669,11435.0,-1.5,-4.2,-2.0,7.2,-1.4000000000000001,-3.8000000000000003,-40.5,19.9,135.7,16
670,11451.0,-1.6,-3.7,-1.3,7.2,-1.4000000000000001,-3.1,-49.300000000000004,14.300000000000002,152.4,16
671,11468.0,-1.4000000000000001,-3.2,-0.7000000000000001,7.6000000000000005,-1.4000000000000001,-2.4000000000000004,-50.3,7.699999999999999,168.6,16
672,11485.0,-1.1,-3.0,-0.5,7.9,-1.4000000000000001,-2.2,-48.10000000000001,3.9,175.20000000000002,16
673,11502.0,-0.30000000000000004,-2.3000000000000003,-0.4,8.8,-1.3,-2.0,-40.7,-5.1000000000000005,182.5,16
674,11521.0,0.2,-1.6,-0.4,9.3,-1.1,-2.1,-33.800000000000004,-8.100000000000001,182.8,16
675,11536.0,0.30000000000000004,-1.1,-0.4,9.4,-1.0,-2.1,-30.3,-6.9,182.3,16
676,11552.0,0.5,-0.5,-0.4,9.600000000000001,-0.9,-2.1,-23.6,-4.5,183.6,16
677,11568.0,0.7000000000000001,0.2,-0.4,9.8,-0.8,-2.1,-18.8,-8.4,186.4,16
678,11585.0,1.2000000000000002,0.9,-0.2,10.200000000000001,-0.6000000000000001,-2.0,-12.8,-14.600000000000001,190.70000000000002,16
679,11601.0,1.6,1.2000000000000002,-0.1,10.600000000000001,-0.6000000000000001,-1.9000000000000001,-9.100000000000001,-16.700000000000003,193.0,16
680,11619.0,2.6,1.8,0.0,11.4,-0.6000000000000001,-1.9000000000000001,-0.7,-19.200000000000003,194.20000000000002,16
681,11636.0,3.9000000000000004,2.5,0.0,12.600000000000001,-0.5,-1.9000000000000001,9.700000000000001,-23.099999999999998,192.9,16
682,11651.0,4.6000000000000005,2.8000000000000003,-0.1,13.200000000000001,-0.5,-2.1,15.000000000000002,-26.9,191.49999999999997,16
683,11668.0,6.1000000000000005,3.5,-0.2,14.5,-0.30000000000000004,-2.3000000000000003,23.400000000000002,-34.800000000000004,189.2,16
684,11685.0,7.6000000000000005,4.5,-0.30000000000000004,15.700000000000001,0.30000000000000004,-2.4000000000000004,28.1,-36.6,183.7,16
685,11701.0,8.3,5.2,-0.4,16.3,0.7000000000000001,-2.5,29.200000000000003,-35.9,178.0,16
686,11720.0,9.9,6.4,-0.8,17.7,1.5,-3.0,27.3,-28.700000000000003,162.9,16
687,11735.0,12.200000000000001,6.6000000000000005,-0.4,19.900000000000002,1.4000000000000001,-2.5,25.4,-9.2,132.70000000000002,16
688,11751.0,12.5,7.5,-0.7000000000000001,20.0,2.3000000000000003,-3.1,29.200000000000003,-3.7000000000000006,108.60000000000001,16
689,11768.0,12.0,7.9,-1.2000000000000002,19.6,2.4000000000000004,-3.3000000000000003,37.300000000000004,13.6,55.7,16
690,11785.0,10.0,8.6,-1.2000000000000002,17.6,3.0,-3.1,48.0,25.900000000000002,2.4000000000000004,16
691,11801.0,8.0,8.4,-2.1,15.8,3.0,-3.9000000000000004,62.4,23.700000000000003,-41.300000000000004,16
692,11822.0,5.800000000000001,7.6000000000000005,-3.6,13.8,2.4000000000000004,-5.2,61.10000000000001,16.6,-79.7,16
693,11835.0,4.800000000000001,7.1000000000000005,-3.9000000000000004,12.9,2.0,-5.5,52.2,13.700000000000001,-95.20000000000002,16
694,11851.0,3.0,6.2,-3.6,11.3,1.5,-5.2,27.099999999999998,7.1000000000000005,-116.4,16
695,11868.0,2.5,5.6000000000000005,-3.2,11.0,1.1,-4.7,14.900000000000002,0.8,-122.0,16
696,11885.0,2.6,4.1000000000000005,-2.1,11.3,0.0,-3.7,-4.1,-16.900000000000002,-126.89999999999999,16
697,11901.0,3.5,2.6,-1.1,12.3,-1.1,-2.8000000000000003,-14.200000000000001,-27.6,-129.70000000000002,16
698,11921.0,3.6,1.6,-0.4,12.600000000000001,-1.6,-2.3000000000000003,-19.200000000000003,-28.800000000000004,-137.4,16
699,11935.0,3.4000000000000004,1.2000000000000002,-0.1,12.5,-1.8,-2.0,-21.1,-26.5,-142.50000000000003,16
700,11951.0,2.8000000000000003,0.6000000000000001,0.5,12.0,-1.9000000000000001,-1.4000000000000001,-24.400000000000002,-20.0,-151.8,16
701,11968.0,2.5,0.30000000000000004,0.9,11.8,-1.9000000000000001,-1.1,-24.599999999999998,-16.4,-155.5,16
702,11985.0,2.6,-0.30000000000000004,1.2000000000000002,12.0,-2.1,-0.8,-19.0,-9.899999999999999,-162.6,16
703,12002.0,2.2,-1.2000000000000002,1.0,11.700000000000001,-2.4000000000000004,-1.1,-10.200000000000001,-8.8,-173.6,16
704,12022.0,1.4000000000000001,-1.8,1.0,11.0,-2.4000000000000004,-1.1,-7.500000000000001,-12.200000000000001,-183.9,16
705,12035.0,1.2000000000000002,-2.1,1.0,10.8,-2.4000000000000004,-1.1,-7.400000000000001,-13.5,-186.3,16
706,12051.0,1.1,-3.1,1.2000000000000002,10.700000000000001,-2.8000000000000003,-0.9,-7.200000000000001,-11.6,-188.20000000000002,16
707,12068.0,0.9,-4.0,1.3,10.5,-3.1,-0.9,-6.0,-7.699999999999999,-189.4,16
708,12085.0,0.9,-4.4,1.3,10.4,-3.2,-0.8,-5.6,-6.300000000000001,-188.9,16
709,12102.0,0.8,-5.300000000000001,1.5,10.200000000000001,-3.5,-0.7000000000000001,-3.6000000000000005,-6.0,-185.4,16
710,12123.0,0.9,-5.9,1.7000000000000002,10.200000000000001,-3.6,-0.5,1.1,-10.5,-179.30000000000004,16
711,12135.0,1.1,-6.300000000000001,1.7000000000000002,10.3,-3.8000000000000003,-0.5,4.9,-14.600000000000001,-175.10000000000002,16
712,12151.0,1.5,-7.1000000000000005,1.9000000000000001,10.5,-4.1000000000000005,-0.4,15.2,-24.3,-166.00000000000003,16
713,12168.0,1.7000000000000002,-7.7,1.9000000000000001,10.5,-4.3,-0.5,27.0,-34.400000000000006,-154.29999999999998,16
714,12185.0,1.8,-7.9,1.5,10.600000000000001,-4.7,-1.6,30.9,-37.0,-147.1,16
715,12201.0,1.8,-9.0,0.30000000000000004,10.3,-5.1000000000000005,-2.3000000000000003,24.8,-30.1,-137.4,16
716,12221.0,0.6000000000000001,-9.4,-0.1,9.0,-5.2,-2.7,-1.4,-5.1000000000000005,-129.60000000000002,16
717,12238.0,-0.30000000000000004,-10.4,-0.1,7.9,-5.9,-2.6,-28.400000000000002,25.300000000000004,-109.00000000000001,16
718,12251.0,-0.9,-10.700000000000001,0.1,7.300000000000001,-6.1000000000000005,-2.4000000000000004,-38.800000000000004,38.7,-96.0,16
719,12268.0,-2.2,-10.9,0.4,5.9,-6.2,-1.8,-50.400000000000006,54.50000000000001,-67.8,16
720,12284.0,-4.2,-10.0,0.6000000000000001,3.9000000000000004,-5.2,-1.4000000000000001,-50.0,56.2,-34.1,16
721,12301.0,-5.1000000000000005,-9.4,0.8,2.9000000000000004,-4.6000000000000005,-1.0,-46.1,49.800000000000004,-12.8,16
722,12318.0,-5.9,-8.4,1.0,2.2,-3.7,-0.7000000000000001,-28.700000000000003,28.600000000000005,42.0,16
723,12335.0,-4.7,-7.800000000000001,0.30000000000000004,3.5,-3.4000000000000004,-1.3,-2.9,3.6000000000000005,102.10000000000001,16
724,12353.0,-2.4000000000000004,-7.4,-1.0,5.9,-3.5,-2.8000000000000003,15.700000000000001,-18.700000000000003,147.1,16
725,12368.0,-1.5,-7.0,-1.6,6.9,-3.4000000000000004,-3.3000000000000003,18.5,-26.400000000000006,160.4,16
726,12385.0,0.2,-6.4,-2.6,8.8,-3.3000000000000003,-4.5,11.3,-37.7,175.4,16
727,12401.0,1.2000000000000002,-5.7,-3.1,9.9,-3.2,-5.1000000000000005,-11.1,-37.800000000000004,178.70000000000002,16
728,12418.0,1.3,-5.300000000000001,-3.0,10.100000000000001,-3.0,-5.1000000000000005,-23.3,-31.9,179.5,16
729,12436.0,1.5,-4.7,-2.6,10.4,-3.0,-4.7,-43.70000000000001,-13.8,181.70000000000002,16
730,12451.0,1.1,-3.8000000000000003,-2.3000000000000003,10.100000000000001,-2.7,-4.5,-52.00000000000001,0.4,178.60000000000002,16
731,12468.0,0.7000000000000001,-3.2,-2.4000000000000004,9.700000000000001,-2.4000000000000004,-4.6000000000000005,-50.8,2.9,178.0,16
732,12485.0,-0.1,-2.0,-3.0,8.9,-1.8,-5.2,-47.3,-10.1,181.9,16
733,12501.0,-0.4,-1.0,-3.6,8.700000000000001,-1.2000000000000002,-5.9,-53.9,-41.800000000000004,194.4,16
734,12519.0,0.7000000000000001,-0.30000000000000004,-3.7,9.600000000000001,-1.1,-6.300000000000001,-74.89999999999999,-68.4,208.10000000000002,16
735,12535.0,1.4000000000000001,0.0,-3.5,10.200000000000001,-1.1,-6.2,-89.70000000000002,-73.0,212.9,16
736,12551.0,3.1,0.4,-2.4000000000000004,11.8,-1.3,-5.4,-120.4,-64.50000000000001,215.9,16
737,12568.0,4.7,0.8,-0.7000000000000001,13.3,-1.3,-4.0,-142.0,-46.199999999999996,204.1,16
738,12585.0,5.2,1.0,0.0,13.700000000000001,-1.3,-3.3000000000000003,-148.5,-39.300000000000004,191.0,16
739,12602.0,5.2,1.6,1.7000000000000002,13.600000000000001,-1.0,-1.9000000000000001,-152.3,-28.200000000000003,158.50000000000003,16
740,12618.0,4.3,2.3000000000000003,3.3000000000000003,12.600000000000001,-0.5,-0.5,-143.6,-22.700000000000003,131.29999999999998,16
741,12635.0,3.8000000000000003,2.6,3.9000000000000004,12.0,-0.2,0.1,-134.70000000000002,-21.0,121.80000000000001,16
742,12651.0,2.9000000000000004,3.4000000000000004,4.6000000000000005,11.0,0.4,0.7000000000000001,-111.30000000000001,-18.5,108.8,16
743,12668.0,3.1,3.7,4.9,11.0,0.5,0.8,-88.8,-16.8,105.0,16
744,12684.0,3.6,3.6,5.0,11.5,0.4,0.9,-78.10000000000001,-15.6,104.2,16
745,12701.0,4.7,3.7,5.0,12.5,0.30000000000000004,0.9,-57.1,-11.2,97.89999999999999,16
746,12718.0,5.7,3.9000000000000004,5.2,13.4,0.4,1.0,-34.60000000000001,-6.4,84.69999999999999,16
747,12735.0,6.0,4.0,5.2,13.700000000000001,0.5,1.0,-22.2,-4.1,74.89999999999999,16
748,12751.0,6.4,4.2,5.1000000000000005,14.100000000000001,0.5,0.9,3.7000000000000006,1.4,52.900000000000006,16
749,12768.0,5.800000000000001,4.800000000000001,5.2,13.5,1.0,1.1,32.2,5.500000000000001,37.50000000000001,16
750,12785.0,5.2,5.9,5.1000000000000005,13.0,2.0,1.1,66.9,6.1000000000000005,25.8,16
751,12801.0,5.2,6.300000000000001,4.800000000000001,12.9,2.4000000000000004,1.0,85.9,3.6000000000000005,18.8,16
752,12818.0,5.9,6.5,3.9000000000000004,13.700000000000001,2.5,0.2,119.8,-10.700000000000001,0.30000000000000004,16
753,12835.0,6.9,6.300000000000001,2.5,14.700000000000001,2.2,-1.0,144.60000000000002,-28.0,-25.6,16
754,12851.0,7.300000000000001,6.1000000000000005,1.7000000000000002,15.100000000000001,2.0,-1.7000000000000002,150.6,-31.9,-39.599999999999994,16
755,12868.0,8.0,5.2,0.0,15.9,1.1,-3.3000000000000003,145.5,-27.400000000000002,-72.9,16
756,12884.0,7.4,4.2,-1.3,15.600000000000001,0.30000000000000004,-4.5,118.10000000000001,-4.7,-111.4,16
757,12901.0,6.800000000000001,3.7,-1.3,15.100000000000001,-0.1,-4.4,100.0,8.8,-128.0,16
758,12918.0,5.6000000000000005,2.6,-0.30000000000000004,14.200000000000001,-0.8,-3.2,70.2,25.200000000000003,-151.20000000000002,16
759,12935.0,5.0,1.6,0.8,13.8,-1.4000000000000001,-2.0,59.00000000000001,27.400000000000002,-164.4,16
760,12951.0,5.0,1.1,1.1,14.100000000000001,-2.0,-1.5,67.5,25.1,-175.89999999999998,16
761,12971.0,5.1000000000000005,0.0,0.8,14.200000000000001,-2.6,-2.4000000000000004,75.60000000000001,23.2,-184.0,16
762,12985.0,4.5,-1.2000000000000002,-0.30000000000000004,13.8,-2.9000000000000004,-2.8000000000000003,85.1,23.2,-203.29999999999998,16
763,13001.0,3.3000000000000003,-2.0,-0.6000000000000001,12.8,-3.0,-2.9000000000000004,85.5,23.0,-220.60000000000002,16
764,13018.0,2.9000000000000004,-2.5,-0.6000000000000001,12.4,-3.2,-2.9000000000000004,84.4,20.7,-226.00000000000003,16
765,13035.0,2.2,-3.6,-0.5,11.8,-3.7,-2.7,83.00000000000001,13.3,-232.60000000000002,16
766,13051.0,1.6,-4.7,-0.2,11.200000000000001,-4.1000000000000005,-2.5,85.5,5.0,-234.8,16
767,13068.0,1.1,-5.1000000000000005,-0.30000000000000004,10.700000000000001,-4.2,-2.6,87.40000000000002,2.0,-234.40000000000003,16
768,13085.0,0.2,-5.9,-0.8,9.700000000000001,-4.3,-3.0,83.70000000000002,-2.5,-227.7,16
769,13101.0,-0.4,-6.4,-0.7000000000000001,8.9,-4.3,-3.1,70.5,-5.9,-214.60000000000002,16
770,13118.0,-0.6000000000000001,-6.6000000000000005,-0.6000000000000001,8.3,-4.1000000000000005,-2.8000000000000003,63.0,-7.1000000000000005,-206.00000000000003,16
771,13135.0,-0.8,-6.9,-0.1,8.200000000000001,-3.9000000000000004,-2.6,50.900000000000006,-6.300000000000001,-186.10000000000002,16
772,13151.0,-0.5,-7.2,0.2,8.3,-3.8000000000000003,-2.3000000000000003,44.300000000000004,-10.0,-167.50000000000003,16
773,13168.0,-0.4,-7.6000000000000005,0.1,8.3,-3.9000000000000004,-2.5,41.0,-20.2,-153.50000000000003,16
774,13185.0,-0.30000000000000004,-7.800000000000001,-0.1,8.3,-3.9000000000000004,-2.8000000000000003,37.50000000000001,-24.8,-146.8,16
775,13201.0,0.1,-8.5,-0.8,8.4,-4.3,-3.7,21.8,-28.3,-135.0,16
776,13218.0,-0.4,-9.700000000000001,-1.6,7.7,-5.2,-4.5,-10.9,-15.700000000000001,-131.5,16
777,13235.0,-1.3,-9.8,-1.3,6.7,-5.2,-4.2,-30.4,-2.2,-129.20000000000002,16
778,13251.0,-2.9000000000000004,-10.200000000000001,-0.30000000000000004,4.9,-5.300000000000001,-3.0,-57.60000000000001,22.9,-107.10000000000001,16
779,13268.0,-3.8000000000000003,-10.700000000000001,0.2,3.8000000000000003,-5.6000000000000005,-2.3000000000000003,-63.0,34.1,-63.599999999999994,16
780,13285.0,-4.2,-10.600000000000001,0.30000000000000004,3.4000000000000004,-5.5,-2.2,-61.10000000000001,30.699999999999996,-37.6,16
781,13301.0,-4.5,-10.200000000000001,0.2,3.1,-5.1000000000000005,-2.1,-55.1,13.000000000000002,20.2,16
782,13318.0,-4.0,-9.3,0.4,3.7,-4.4,-1.8,-47.7,-5.300000000000001,76.80000000000001,16
783,13334.0,-3.2,-9.0,0.2,5.6000000000000005,-4.3,-2.2,-43.2,-13.100000000000001,103.2,16
784,13352.0,-1.2000000000000002,-8.700000000000001,-0.2,6.7,-4.4,-2.4000000000000004,-37.9,-20.400000000000002,145.4,16
785,13368.0,0.4,-8.0,-0.4,8.6,-4.3,-2.6,-33.800000000000004,-19.300000000000004,175.00000000000003,16
786,13385.0,1.7000000000000002,-7.2,-0.8,10.100000000000001,-3.9000000000000004,-3.0,-31.2,-17.1,192.50000000000003,16
787,13402.0,2.3000000000000003,-6.6000000000000005,-0.9,10.8,-3.7,-3.1,-30.599999999999998,-16.8,197.00000000000003,16
788,13418.0,3.1,-5.7,-1.5,11.700000000000001,-3.4000000000000004,-3.8000000000000003,-31.799999999999997,-17.200000000000003,200.70000000000002,16
789,13435.0,3.2,-4.7,-2.4000000000000004,12.0,-3.0,-4.7,-45.0,-13.8,199.6,16
790,13451.0,3.2,-4.2,-2.7,12.100000000000001,-2.8000000000000003,-5.0,-58.400000000000006,-9.2,198.00000000000003,16
791,13468.0,3.2,-3.3000000000000003,-2.5,12.200000000000001,-2.5,-4.800000000000001,-92.0,2.6,191.49999999999997,16
792,13485.0,3.1,-2.7,-2.0,12.100000000000001,-2.3000000000000003,-4.3,-124.10000000000001,13.6,176.3,16
793,13501.0,2.7,-2.4000000000000004,-1.7000000000000002,11.8,-2.2,-3.9000000000000004,-137.70000000000002,17.200000000000003,166.8,16
794,13518.0,1.6,-1.8,-0.8,10.700000000000001,-2.0,-3.0,-159.0,18.5,152.1,16
795,13535.0,0.8,-1.2000000000000002,0.4,9.9,-1.8,-1.8,-169.70000000000002,9.700000000000001,147.1,16
796,13551.0,0.7000000000000001,-1.0,1.0,9.700000000000001,-1.6,-0.7000000000000001,-170.8,1.9,146.4,16
797,13568.0,0.8,-0.5,1.9000000000000001,9.9,-1.6,-0.30000000000000004,-165.20000000000002,-14.700000000000001,147.29999999999998,16
798,13584.0,1.4000000000000001,-0.2,2.5,10.4,-1.6,0.2,-154.10000000000002,-26.700000000000003,147.6,16
799,13601.0,2.3000000000000003,0.30000000000000004,3.1,11.200000000000001,-1.5,0.6000000000000001,-138.8,-33.400000000000006,144.60000000000002,16
800,13618.0,2.7,0.5,3.3000000000000003,11.5,-1.4000000000000001,0.7000000000000001,-129.70000000000002,-34.60000000000001,140.9,16
801,13634.0,3.1,1.2000000000000002,3.8000000000000003,11.9,-1.0,1.0,-110.5,-34.400000000000006,129.70000000000002,16
802,13651.0,3.0,2.0,4.0,11.600000000000001,-0.5,1.0,-90.1,-34.1,117.4,16
803,13668.0,2.8000000000000003,2.4000000000000004,4.0,11.4,-0.2,1.0,-80.8,-32.9,113.1,16
804,13685.0,3.1,2.9000000000000004,4.0,11.5,0.1,0.9,-65.0,-31.0,109.2,16
805,13701.0,4.1000000000000005,3.2,4.2,12.4,0.2,1.0,-49.1,-32.7,106.20000000000002,16
806,13718.0,4.6000000000000005,3.4000000000000004,4.3,12.9,0.2,1.0,-40.6,-34.800000000000004,103.40000000000002,16
807,13735.0,5.300000000000001,4.0,4.2,13.5,0.6000000000000001,0.9,-23.099999999999998,-36.8,96.60000000000001,16
808,13751.0,5.800000000000001,4.800000000000001,4.3,13.9,1.3,0.8,-7.8,-33.0,88.00000000000001,16
809,13768.0,6.1000000000000005,5.300000000000001,4.3,14.100000000000001,1.7000000000000002,0.8,0.4,-29.300000000000004,83.5,16
810,13785.0,6.9,6.1000000000000005,4.3,14.9,2.3000000000000003,0.8,18.5,-23.0,72.80000000000001,16
811,13801.0,7.5,6.9,4.2,15.4,2.9000000000000004,0.8,41.0,-15.700000000000001,58.3,16
812,13818.0,7.6000000000000005,7.9,4.0,15.5,3.8000000000000003,0.7000000000000001,67.7,-9.0,35.699999999999996,16
813,13835.0,7.5,8.200000000000001,3.8000000000000003,15.5,4.1000000000000005,0.6000000000000001,82.60000000000001,-7.0,21.0,16
814,13851.0,7.5,8.200000000000001,3.2,15.5,4.0,0.1,113.1,-10.8,-12.100000000000001,16
815,13868.0,7.5,7.300000000000001,2.2,15.600000000000001,3.1,-0.8,137.70000000000002,-22.9,-47.900000000000006,16
816,13885.0,7.300000000000001,6.7,1.6,15.4,2.7,-1.3,145.20000000000002,-27.400000000000002,-65.89999999999999,16
817,13901.0,6.5,5.4,0.30000000000000004,14.8,1.5,-2.5,144.9,-24.5,-99.60000000000001,16
818,13920.0,5.300000000000001,4.2,0.0,13.8,0.5,-2.7,129.20000000000002,-12.200000000000001,-127.6,16
819,13935.0,4.800000000000001,3.5,0.0,13.4,0.0,-2.6,119.89999999999999,-7.500000000000001,-137.70000000000002,16
820,13951.0,4.3,2.2,0.30000000000000004,13.200000000000001,-0.9,-2.1,103.7,-3.3000000000000007,-149.9,16
821,13968.0,4.5,1.1,0.8,13.5,-1.6,-1.6,95.0,-7.0,-156.5,16
822,13984.0,4.3,0.30000000000000004,0.5,13.4,-1.9000000000000001,-1.8,91.50000000000001,-10.200000000000001,-165.7,16
823,14001.0,4.0,0.0,0.2,13.3,-2.1,-2.1,87.00000000000001,-8.3,-171.50000000000003,16
824,14018.0,3.3000000000000003,-0.7000000000000001,-0.1,12.700000000000001,-2.2,-2.4000000000000004,70.5,0.5,-184.3,16
825,14035.0,2.8000000000000003,-1.6,0.0,12.3,-2.6,-2.2,51.0,11.8,-193.4,16
826,14051.0,2.7,-2.1,0.30000000000000004,12.200000000000001,-2.7,-1.9000000000000001,43.70000000000001,15.899999999999999,-197.10000000000002,16
827,14068.0,2.4000000000000004,-3.2,0.9,12.0,-3.2,-1.2000000000000002,38.7,16.0,-205.0,16
828,14085.0,1.8,-4.2,1.5,11.4,-3.7,-0.6000000000000001,44.8,6.1000000000000005,-213.20000000000002,16
829,14101.0,1.4000000000000001,-4.6000000000000005,1.5,11.0,-3.8000000000000003,-0.6000000000000001,49.50000000000001,-0.4,-215.3,16
830,14118.0,0.8,-5.300000000000001,0.8,10.3,-3.8000000000000003,-1.3,54.4,-4.4,-210.40000000000003,16
831,14135.0,0.7000000000000001,-5.9,0.4,10.100000000000001,-3.9000000000000004,-1.7000000000000002,49.9,2.7,-198.9,16
832,14151.0,0.7000000000000001,-6.2,0.30000000000000004,10.0,-3.9000000000000004,-1.8,46.50000000000001,6.1000000000000005,-193.3,16
833,14168.0,0.8,-6.800000000000001,0.30000000000000004,9.9,-3.9000000000000004,-1.8,40.6,5.500000000000001,-183.4,16
834,14185.0,0.9,-7.4,0.5,9.9,-4.1000000000000005,-1.7000000000000002,37.1,-4.5,-172.29999999999998,16
835,14201.0,1.0,-7.800000000000001,0.7000000000000001,9.8,-4.2,-1.6,36.2,-15.2,-159.0,16
836,14219.0,0.9,-8.0,0.6000000000000001,9.600000000000001,-4.1000000000000005,-1.7000000000000002,35.9,-18.1,-151.6,16
837,14235.0,0.6000000000000001,-8.3,0.0,9.1,-4.2,-2.4000000000000004,29.1,-13.6,-136.3,16
838,14251.0,0.0,-8.700000000000001,-0.2,8.3,-4.2,-2.6,10.600000000000001,3.9,-120.60000000000001,16
839,14268.0,-0.4,-8.9,-0.2,7.800000000000001,-4.3,-2.6,0.0,14.200000000000001,-112.30000000000001,16
840,14285.0,-1.1,-9.4,0.2,7.0,-4.6000000000000005,-2.1,-17.400000000000002,32.9,-93.2,16
841,14301.0,-1.6,-9.8,0.8,6.300000000000001,-4.9,-1.4000000000000001,-22.5,39.699999999999996,-67.8,16
842,14318.0,-2.1,-9.9,0.9,5.9,-4.9,-1.2000000000000002,-20.1,38.50000000000001,-53.50000000000001,16
843,14335.0,-2.8000000000000003,-9.8,0.6000000000000001,5.0,-4.800000000000001,-1.3,-9.2,35.0,-17.300000000000004,16
844,14351.0,-4.0,-8.9,0.30000000000000004,3.9000000000000004,-4.0,-1.6,0.5,30.200000000000003,23.0,16
845,14369.0,-4.5,-7.5,0.1,3.5,-2.9000000000000004,-1.7000000000000002,6.300000000000001,15.6,66.9,16
846,14385.0,-3.9000000000000004,-7.300000000000001,-0.2,4.1000000000000005,-2.8000000000000003,-2.1,9.700000000000001,8.899999999999999,90.5,16
847,14401.0,-2.2,-7.1000000000000005,-1.1,6.0,-3.0,-3.0,14.100000000000001,3.3000000000000007,127.69999999999999,16
848,14418.0,-1.2000000000000002,-6.4,-1.7000000000000002,7.2,-2.8000000000000003,-3.6,8.100000000000001,-1.7,148.8,16
849,14434.0,-0.7000000000000001,-6.0,-1.7000000000000002,7.7,-2.7,-3.6,2.5,-5.0,155.20000000000002,16
850,14451.0,0.0,-5.4,-1.6,8.6,-2.5,-3.6,-8.4,-14.600000000000001,164.20000000000002,16
851,14468.0,0.6000000000000001,-4.9,-1.5,9.4,-2.6,-3.5,-17.200000000000003,-21.900000000000002,171.10000000000002,16
852,14484.0,0.7000000000000001,-4.6000000000000005,-1.4000000000000001,9.5,-2.6,-3.4000000000000004,-21.1,-23.099999999999998,173.4,16
853,14501.0,0.6000000000000001,-3.8000000000000003,-1.0,9.5,-2.4000000000000004,-3.1,-29.0,-20.0,178.70000000000002,16
854,14520.0,0.5,-3.0,-0.5,9.5,-2.1,-2.6,-34.900000000000006,-16.200000000000003,184.0,16
855,14534.0,0.6000000000000001,-2.6,-0.2,9.600000000000001,-2.0,-2.4000000000000004,-36.300000000000004,-15.2,186.10000000000002,16
856,14551.0,0.9,-1.9000000000000001,0.2,9.9,-1.9000000000000001,-2.0,-35.2,-18.3,185.5,16
857,14568.0,1.2000000000000002,-1.3,0.4,10.100000000000001,-1.8,-1.9000000000000001,-30.699999999999996,-22.2,182.5,16
858,14585.0,1.6,-0.7000000000000001,0.4,10.5,-1.7000000000000002,-2.0,-25.300000000000004,-27.2,180.60000000000002,16
859,14601.0,1.7000000000000002,-0.30000000000000004,0.30000000000000004,10.600000000000001,-1.6,-2.1,-23.0,-28.1,180.0,16
860,14618.0,2.3000000000000003,0.4,0.2,11.100000000000001,-1.4000000000000001,-2.3000000000000003,-19.400000000000002,-28.1,180.50000000000003,16
861,14634.0,3.1,1.0,-0.1,11.8,-1.3,-2.7,-22.5,-25.7,179.70000000000002,16
862,14651.0,3.5,1.4000000000000001,-0.1,12.100000000000001,-1.2000000000000002,-2.7,-26.300000000000004,-23.2,177.5,16
863,14668.0,4.1000000000000005,2.2,0.2,12.5,-0.8,-2.5,-35.3,-16.200000000000003,168.6,16
864,14685.0,4.2,3.3000000000000003,0.9,12.4,-0.2,-1.9000000000000001,-39.50000000000001,-7.500000000000001,154.6,16
865,14702.0,4.2,3.7,1.1,12.4,0.1,-1.7000000000000002,-39.2,-2.5,146.9,16
866,14718.0,4.4,4.3,1.7000000000000002,12.5,0.4,-1.1,-33.0,3.5,131.4,16
867,14735.0,5.1000000000000005,4.800000000000001,1.8,13.100000000000001,0.6000000000000001,-1.0,-18.3,1.8000000000000003,117.7,16
868,14752.0,6.1000000000000005,5.1000000000000005,1.5,13.9,0.6000000000000001,-1.3,-3.0,-4.800000000000001,103.10000000000001,16
869,14768.0,6.5,5.300000000000001,1.3,14.3,0.8,-1.5,2.5,-6.4,95.1,16
870,14786.0,7.1000000000000005,5.7,0.9,14.9,1.0,-1.9000000000000001,7.8,-0.1,77.7,16
871,14801.0,7.5,6.1000000000000005,0.8,15.200000000000001,1.2000000000000002,-1.9000000000000001,11.000000000000002,14.400000000000002,54.800000000000004,16
872,14818.0,7.6000000000000005,6.0,0.8,15.3,1.1,-1.9000000000000001,13.8,21.0,42.2,16
873,14835.0,7.1000000000000005,6.0,0.5,14.8,1.1,-2.1,23.700000000000003,31.799999999999997,17.1,16
874,14851.0,6.6000000000000005,6.2,0.6000000000000001,14.4,1.3,-1.9000000000000001,30.699999999999996,35.3,6.300000000000001,16
875,14868.0,5.9,6.1000000000000005,0.4,13.8,1.3,-1.9000000000000001,50.3,30.9,-12.299999999999999,16
876,14885.0,5.300000000000001,6.2,0.4,13.200000000000001,1.4000000000000001,-1.8,76.3,17.300000000000004,-28.500000000000004,16
877,14901.0,4.9,6.0,0.1,13.0,1.3,-2.0,108.2,-4.800000000000001,-44.6,16
878,14918.0,4.800000000000001,5.9,-0.5,12.9,1.2000000000000002,-2.5,121.9,-19.5,-53.7,16
879,14934.0,4.7,5.300000000000001,-2.2,13.0,0.8,-4.0,130.5,-40.300000000000004,-73.9,16
880,14952.0,4.1000000000000005,4.6000000000000005,-3.2,12.5,0.30000000000000004,-5.0,113.2,-41.50000000000001,-99.30000000000001,16
881,14968.0,3.2,3.8000000000000003,-2.9000000000000004,11.8,-0.1,-4.7,80.4,-34.0,-118.2,16
882,14984.0,3.0,3.3000000000000003,-2.3000000000000003,11.700000000000001,-0.5,-4.2,64.50000000000001,-33.50000000000001,-123.4,16
883,15001.0,3.2,2.1,-1.0,12.0,-1.3,-2.9000000000000004,42.900000000000006,-40.4,-128.1,16
884,15018.0,3.5,1.3,0.0,12.4,-1.7000000000000002,-2.0,34.900000000000006,-49.0,-131.29999999999998,16
885,15036.0,3.5,1.0,0.30000000000000004,12.5,-1.8,-1.8,33.7,-51.2,-133.9,16
886,15051.0,3.4000000000000004,0.6000000000000001,0.4,12.600000000000001,-1.8,-1.8,30.9,-47.3,-142.7,16
887,15068.0,3.1,-0.1,0.4,12.4,-2.1,-1.9000000000000001,22.8,-41.0,-155.70000000000002,16
888,15085.0,2.8000000000000003,-0.5,0.5,12.100000000000001,-2.1,-1.9000000000000001,17.6,-37.2,-162.6,16
889,15101.0,2.2,-1.1,0.7000000000000001,11.5,-2.3000000000000003,-1.8,7.8,-31.400000000000002,-174.20000000000002,16
890,15118.0,1.9000000000000001,-2.0,0.8,11.3,-2.6,-1.7000000000000002,0.5,-29.600000000000005,-181.0,16
891,15135.0,1.8,-2.6,0.9,11.100000000000001,-3.0,-1.6,-2.6,-28.200000000000003,-183.2,16
892,15151.0,1.5,-3.4000000000000004,1.2000000000000002,10.9,-3.1,-1.5,-9.3,-26.9,-186.5,16
893,15168.0,1.1,-4.2,1.2000000000000002,10.4,-3.3000000000000003,-1.5,-15.8,-22.6,-185.6,16
894,15185.0,0.9,-4.5,1.2000000000000002,10.100000000000001,-3.4000000000000004,-1.6,-19.799999999999997,-17.7,-183.4,16
895,15201.0,0.8,-5.2,1.2000000000000002,10.100000000000001,-3.5,-1.6,-27.3,-6.2,-175.70000000000002,16
896,15219.0,0.9,-5.800000000000001,1.2000000000000002,10.0,-3.6,-1.5,-28.3,1.2000000000000002,-167.3,16
897,15235.0,0.6000000000000001,-6.2,1.3,9.600000000000001,-3.5,-1.4000000000000001,-25.7,-5.6,-160.9,16
898,15251.0,0.5,-6.4,1.3,9.4,-3.5,-1.4000000000000001,-24.599999999999998,-11.700000000000001,-156.6,16
899,15268.0,0.5,-6.9,1.5,9.3,-3.5,-1.3,-22.9,-21.300000000000004,-143.9,16
900,15284.0,0.8,-7.4,1.7000000000000002,9.3,-3.7,-1.1,-20.2,-22.2,-128.5,16
901,15301.0,0.7000000000000001,-7.6000000000000005,1.7000000000000002,9.200000000000001,-3.8000000000000003,-1.1,-18.0,-19.400000000000002,-121.2,16
902,15318.0,0.2,-7.7,1.5,8.6,-3.6,-1.3,-16.900000000000002,-7.699999999999999,-107.00000000000001,16
903,15335.0,-0.2,-7.9,1.2000000000000002,8.0,-3.6,-1.5,-23.800000000000004,8.3,-94.5,16
904,15351.0,-0.8,-8.5,1.3,7.300000000000001,-4.0,-1.3,-28.800000000000004,25.900000000000002,-77.80000000000001,16
905,15368.0,-1.3,-8.5,1.4000000000000001,6.800000000000001,-3.9000000000000004,-1.1,-27.400000000000002,33.6,-68.1,16
906,15385.0,-2.2,-8.4,1.5,5.7,-3.7,-0.9,-15.899999999999999,38.60000000000001,-44.9,16
907,15401.0,-3.3000000000000003,-8.200000000000001,1.0,4.6000000000000005,-3.6,-1.2000000000000002,0.4,33.7,-16.4,16
908,15418.0,-3.9000000000000004,-7.800000000000001,0.8,4.0,-3.1,-1.4000000000000001,7.699999999999999,28.700000000000003,0.8,16
909,15435.0,-4.5,-7.0,0.1,3.5,-2.5,-2.1,15.8,11.700000000000001,43.70000000000001,16
910,15451.0,-3.6,-6.7,-0.7000000000000001,4.5,-2.5,-3.0,15.6,-1.8000000000000003,89.8,16
911,15468.0,-2.9000000000000004,-6.5,-1.0,5.2,-2.5,-3.2,12.5,-5.2,109.10000000000001,16
912,15487.0,-1.6,-5.9,-1.1,6.7,-2.3000000000000003,-3.4000000000000004,3.5,-9.700000000000001,136.0,16
913,15501.0,-0.2,-5.5,-1.1,8.200000000000001,-2.4000000000000004,-3.5,-5.500000000000001,-11.4,150.5,16
914,15518.0,0.2,-5.4,-1.2000000000000002,8.700000000000001,-2.5,-3.6,-8.899999999999999,-11.5,154.00000000000003,16
915,15535.0,0.5,-4.9,-1.5,9.1,-2.5,-3.8000000000000003,-16.4,-10.200000000000001,157.0,16
916,15551.0,0.1,-4.2,-1.5,8.8,-2.3000000000000003,-3.9000000000000004,-26.700000000000003,-10.0,162.10000000000002,16
917,15570.0,-0.2,-3.5,-1.4000000000000001,8.6,-2.2,-3.8000000000000003,-39.0,-12.7,172.9,16
918,15585.0,-0.2,-3.2,-1.3,8.6,-2.1,-3.7,-45.7,-13.200000000000003,179.1,16
919,15601.0,0.2,-2.7,-0.9,9.1,-2.1,-3.4000000000000004,-59.1,-14.300000000000002,188.5,16
920,15618.0,0.6000000000000001,-2.1,-0.4,9.5,-2.0,-2.9000000000000004,-69.80000000000001,-15.299999999999999,192.40000000000003,16
921,15634.0,0.8,-1.8,-0.1,9.700000000000001,-2.1,-2.6,-73.4,-15.6,193.5,16
922,15651.0,1.2000000000000002,-1.2000000000000002,0.5,10.100000000000001,-2.0,-2.1,-77.80000000000001,-15.5,194.7,16
923,15668.0,2.1,-0.6000000000000001,1.2000000000000002,10.9,-1.9000000000000001,-1.5,-75.3,-15.5,193.8,16
924,15685.0,2.5,-0.2,1.4000000000000001,11.3,-1.8,-1.3,-71.5,-16.0,190.9,16
925,15701.0,3.1,0.6000000000000001,1.7000000000000002,11.8,-1.4000000000000001,-1.1,-60.900000000000006,-15.899999999999999,181.8,16
926,15718.0,3.6,1.4000000000000001,1.8,12.200000000000001,-1.1,-1.1,-49.300000000000004,-13.399999999999999,172.2,16
927,15735.0,3.8000000000000003,1.8,1.8,12.3,-0.9,-1.1,-43.800000000000004,-12.0,166.3,16
928,15751.0,4.0,2.7,1.8,12.4,-0.4,-1.1,-35.5,-10.200000000000001,153.60000000000002,16
929,15768.0,4.6000000000000005,3.3000000000000003,1.9000000000000001,12.8,-0.2,-1.1,-27.3,-7.699999999999999,140.5,16
930,15784.0,5.4,3.6,1.9000000000000001,13.5,-0.2,-1.1,-17.799999999999997,-4.7,128.9,16
931,15801.0,5.9,3.7,1.9000000000000001,13.9,-0.2,-1.1,-13.100000000000001,-2.9,123.30000000000003,16
932,15818.0,6.800000000000001,4.2,1.9000000000000001,14.700000000000001,0.0,-1.1,-2.6,0.7,110.4,16
933,15835.0,7.2,4.7,1.3,15.100000000000001,0.30000000000000004,-1.7000000000000002,8.600000000000001,8.5,93.49999999999999,16
934,15851.0,7.300000000000001,5.0,1.1,15.100000000000001,0.5,-1.8,12.5,14.300000000000002,84.5,16
935,15868.0,7.6000000000000005,5.5,0.7000000000000001,15.4,0.8,-2.1,19.799999999999997,22.2,68.0,16
936,15885.0,7.6000000000000005,6.0,0.5,15.4,1.2000000000000002,-2.2,29.500000000000004,26.9,50.8,16
937,15901.0,7.6000000000000005,6.300000000000001,0.4,15.3,1.4000000000000001,-2.3000000000000003,36.2,28.0,40.9,16
938,15918.0,7.0,7.1000000000000005,0.2,14.8,2.2,-2.3000000000000003,54.300000000000004,27.099999999999998,18.0,16
939,15935.0,6.4,7.4,-0.30000000000000004,14.3,2.5,-2.7,76.5,16.6,-7.500000000000001,16
940,15951.0,5.800000000000001,7.300000000000001,-1.4000000000000001,13.8,2.5,-3.5,93.10000000000001,-2.7,-34.7,16
941,15968.0,5.4,7.1000000000000005,-1.9000000000000001,13.5,2.4000000000000004,-4.0,95.20000000000002,-11.1,-48.6,16
942,15985.0,4.9,6.300000000000001,-2.7,13.100000000000001,1.7000000000000002,-4.7,86.5,-19.400000000000002,-75.8,16
943,16002.0,4.1000000000000005,5.300000000000001,-2.6,12.5,1.0,-4.6000000000000005,65.0,-19.6,-100.2,16
944,16018.0,3.8000000000000003,4.7,-2.0,12.200000000000001,0.5,-4.0,53.9,-18.900000000000002,-109.30000000000001,16
945,16035.0,3.6,3.4000000000000004,-0.8,12.200000000000001,-0.4,-2.8000000000000003,39.599999999999994,-21.8,-120.9,16
946,16051.0,3.6,2.3000000000000003,0.2,12.4,-1.2000000000000002,-1.9000000000000001,37.0,-27.400000000000002,-128.8,16
947,16068.0,3.5,1.9000000000000001,0.5,12.4,-1.4000000000000001,-1.6,38.2,-30.5,-133.50000000000003,16
948,16085.0,3.1,1.3,0.6000000000000001,12.100000000000001,-1.5,-1.5,42.3,-32.2,-143.2,16
949,16101.0,2.7,0.8,0.2,11.8,-1.6,-2.0,43.1,-26.6,-153.79999999999998,16
950,16118.0,2.3000000000000003,0.4,-0.30000000000000004,11.600000000000001,-1.7000000000000002,-2.4000000000000004,40.1,-23.5,-159.5,16
951,16135.0,1.5,-0.2,-0.6000000000000001,10.9,-1.9000000000000001,-2.9000000000000004,24.200000000000003,-18.0,-168.2,16
952,16151.0,1.2000000000000002,-1.0,-0.4,10.600000000000001,-2.1,-2.7,2.7,-14.600000000000001,-170.60000000000002,16
953,16168.0,1.1,-1.9000000000000001,0.30000000000000004,10.600000000000001,-2.4000000000000004,-2.0,-13.399999999999999,-10.5,-171.50000000000003,16
954,16184.0,1.0,-2.3000000000000003,0.7000000000000001,10.5,-2.6,-1.6,-17.9,-8.3,-172.8,16
955,16202.0,0.8,-3.1,1.4000000000000001,10.3,-2.8000000000000003,-1.0,-20.2,-6.8,-175.3,16
956,16218.0,0.5,-3.9000000000000004,1.7000000000000002,9.9,-3.0,-0.7000000000000001,-16.4,-7.500000000000001,-177.00000000000003,16
957,16235.0,0.30000000000000004,-4.2,1.7000000000000002,9.700000000000001,-3.1,-0.6000000000000001,-13.8,-8.4,-176.3,16
958,16251.0,0.0,-4.800000000000001,1.9000000000000001,9.3,-3.2,-0.5,-7.699999999999999,-11.1,-171.8,16
959,16268.0,-0.30000000000000004,-5.300000000000001,2.1,8.9,-3.2,-0.30000000000000004,0.1,-14.200000000000001,-164.20000000000002,16
960,16285.0,-0.30000000000000004,-5.6000000000000005,2.2,8.8,-3.2,-0.2,4.5,-16.4,-159.8,16
961,16301.0,-0.2,-6.1000000000000005,2.2,8.8,-3.3000000000000003,-0.30000000000000004,14.700000000000001,-21.6,-149.0,16
962,16319.0,-0.1,-6.6000000000000005,2.1,8.8,-3.5,-0.5,25.5,-25.8,-135.6,16
963,16335.0,0.0,-6.800000000000001,1.8,8.700000000000001,-3.5,-0.8,29.0,-26.9,-128.1,16
964,16351.0,0.0,-7.0,1.2000000000000002,8.5,-3.4000000000000004,-1.5,28.200000000000003,-23.0,-112.5,16
965,16368.0,-0.2,-7.0,1.0,8.200000000000001,-3.2,-1.8,17.200000000000003,-15.000000000000002,-96.9,16
966,16384.0,-0.2,-7.4,0.9,8.1,-3.5,-1.9000000000000001,3.9,-8.2,-79.8,16
967,16401.0,-0.30000000000000004,-7.7,0.7000000000000001,8.0,-3.7,-2.1,-3.3000000000000007,-3.2,-70.0,16
968,16418.0,-0.7000000000000001,-8.0,0.5,7.5,-3.9000000000000004,-2.3000000000000003,-20.2,11.5,-50.900000000000006,16
969,16435.0,-1.0,-8.700000000000001,0.30000000000000004,7.2,-4.6000000000000005,-2.3000000000000003,-37.9,32.2,-26.000000000000004,16
970,16451.0,-1.4000000000000001,-8.8,0.4,6.800000000000001,-4.7,-2.2,-45.7,42.800000000000004,-12.4,16
971,16468.0,-2.8000000000000003,-8.1,0.8,5.4,-4.0,-1.4000000000000001,-52.900000000000006,55.3,19.6,16
972,16488.0,-3.7,-6.9,1.4000000000000001,4.6000000000000005,-2.9000000000000004,-0.7000000000000001,-43.70000000000001,49.4,60.400000000000006,16
973,16502.0,-3.6,-6.6000000000000005,1.3,4.7,-2.8000000000000003,-0.7000000000000001,-33.6,39.400000000000006,82.10000000000001,16
974,16519.0,-2.9000000000000004,-6.1000000000000005,0.6000000000000001,5.6000000000000005,-2.6,-1.3,-12.200000000000001,16.900000000000002,121.70000000000002,16
975,16535.0,-1.5,-5.5,0.30000000000000004,7.1000000000000005,-2.5,-1.6,2.8,-0.30000000000000004,149.4,16
976,16551.0,-0.2,-4.9,0.1,8.5,-2.5,-1.8,16.3,-13.5,164.4,16
977,16568.0,0.4,-4.800000000000001,-0.1,9.200000000000001,-2.6,-2.0,22.700000000000003,-19.0,167.3,16
978,16584.0,1.0,-4.2,-0.7000000000000001,9.9,-2.7,-2.8000000000000003,32.8,-24.1,165.00000000000003,16
979,16601.0,0.6000000000000001,-3.4000000000000004,-1.7000000000000002,9.600000000000001,-2.4000000000000004,-3.8000000000000003,33.50000000000001,-23.0,162.10000000000002,16
980,16619.0,0.2,-3.0,-2.0,9.200000000000001,-2.2,-4.2,21.0,-15.6,159.1,16
981,16636.0,-0.4,-2.1,-2.3000000000000003,8.6,-1.8,-4.5,-7.500000000000001,-5.7,163.5,16
982,16651.0,-0.30000000000000004,-1.5,-1.5,8.700000000000001,-1.8,-3.8000000000000003,-39.1,5.0,173.20000000000002,16
983,16668.0,0.0,-1.3,-1.0,9.0,-1.8,-3.2,-50.7,6.9,177.3,16
984,16686.0,0.5,-0.8,-0.2,9.5,-1.9000000000000001,-2.4000000000000004,-63.4,5.8,180.10000000000002,16
985,16701.0,1.2000000000000002,-0.30000000000000004,0.6000000000000001,10.100000000000001,-1.8,-1.6,-64.4,-0.30000000000000004,178.0,16
986,16718.0,1.3,0.1,0.8,10.200000000000001,-1.7000000000000002,-1.5,-61.9,-3.4,175.89999999999998,16
987,16735.0,1.8,0.9,1.3,10.600000000000001,-1.4000000000000001,-1.0,-52.00000000000001,-7.699999999999999,172.5,16
988,16751.0,2.7,1.6,1.4000000000000001,11.3,-1.1,-1.0,-38.7,-9.5,167.40000000000003,16
989,16768.0,3.6,2.3000000000000003,1.2000000000000002,12.100000000000001,-0.8,-1.3,-25.7,-9.0,156.9,16
990,16784.0,3.9000000000000004,2.7,0.9,12.3,-0.7000000000000001,-1.5,-21.1,-8.600000000000001,149.3,16
991,16801.0,4.0,3.6,0.4,12.3,-0.1,-2.0,-17.200000000000003,-2.8,131.7,16
992,16822.0,4.1000000000000005,4.4,0.2,12.200000000000001,0.4,-2.3000000000000003,-19.1,11.4,115.9,16
993,16835.0,4.2,4.7,0.2,12.3,0.6000000000000001,-2.2,-19.9,17.5,108.90000000000002,16
994,16851.0,4.9,4.9,0.1,12.9,0.6000000000000001,-2.4000000000000004,-17.7,20.5,94.5,16
995,16868.0,5.800000000000001,5.0,-0.2,13.8,0.6000000000000001,-2.6,-14.200000000000001,14.400000000000002,78.0,16
996,16885.0,6.1000000000000005,5.1000000000000005,-0.30000000000000004,14.0,0.6000000000000001,-2.7,-12.8,11.900000000000002,69.10000000000001,16
997,16902.0,6.300000000000001,5.6000000000000005,-0.2,14.200000000000001,0.9,-2.5,-10.1,13.5,51.9,16
998,16925.0,6.6000000000000005,5.6000000000000005,0.0,14.5,1.0,-2.4000000000000004,-4.6,19.0,35.599999999999994,16
999,16935.0,6.9,5.6000000000000005,0.0,15.0,0.8,-2.3000000000000003,-0.1,20.400000000000002,28.200000000000003,16
1000,16951.0,7.1000000000000005,5.6000000000000005,0.0,15.0,0.9,-2.3000000000000003,14.0,21.6,11.900000000000002,16
1001,16968.0,6.5,6.0,0.0,14.600000000000001,1.3,-2.1,34.800000000000004,15.299999999999999,-7.6,16
1002,16985.0,5.7,6.300000000000001,-0.2,13.8,1.7000000000000002,-2.2,58.1,-0.6000000000000001,-29.300000000000004,16
1003,17001.0,5.4,6.1000000000000005,-0.4,13.600000000000001,1.6,-2.4000000000000004,68.2,-11.4,-39.599999999999994,16
1004,17018.0,5.2,5.6000000000000005,-1.0,13.5,1.2000000000000002,-2.9000000000000004,79.5,-33.400000000000006,-61.10000000000001,16
1005,17035.0,5.1000000000000005,4.7,-1.4000000000000001,13.5,0.6000000000000001,-3.4000000000000004,74.5,-40.1,-82.50000000000001,16
1006,17052.0,4.9,4.2,-1.5,13.4,0.2,-3.5,67.2,-37.50000000000001,-93.3,16
1007,17068.0,4.5,3.3000000000000003,-1.2000000000000002,13.100000000000001,-0.4,-3.2,48.400000000000006,-29.300000000000004,-111.80000000000001,16
1008,17085.0,4.4,2.0,-0.4,13.200000000000001,-1.4000000000000001,-2.5,32.300000000000004,-27.9,-124.50000000000001,16
1009,17101.0,4.3,1.4000000000000001,-0.1,13.200000000000001,-1.7000000000000002,-2.2,27.5,-29.0,-128.9,16
1010,17122.0,4.0,0.6000000000000001,0.30000000000000004,13.100000000000001,-2.1,-1.9000000000000001,18.8,-28.3,-136.7,16
1011,17137.0,3.3000000000000003,0.2,0.8,12.5,-2.1,-1.4000000000000001,12.600000000000001,-22.700000000000003,-146.60000000000002,16
1012,17151.0,2.4000000000000004,-0.1,1.2000000000000002,11.700000000000001,-2.0,-1.1,11.2,-16.0,-157.9,16
1013,17168.0,2.0,-0.4,0.9,11.3,-2.0,-1.4000000000000001,10.9,-11.3,-162.3,16
1014,17185.0,1.4000000000000001,-1.1,0.6000000000000001,10.8,-2.2,-1.7000000000000002,4.2,0.9000000000000001,-167.40000000000003,16
1015,17202.0,1.2000000000000002,-1.8,0.8,10.700000000000001,-2.4000000000000004,-1.5,-1.6,4.4,-171.50000000000003,16
1016,17218.0,1.2000000000000002,-2.3000000000000003,0.9,10.700000000000001,-2.6,-1.4000000000000001,-2.4000000000000004,3.8,-173.6,16
1017,17235.0,1.1,-3.2,1.1,10.600000000000001,-2.9000000000000004,-1.2000000000000002,-1.1,-0.5,-178.1,16
1018,17251.0,0.5,-4.0,1.5,10.0,-3.2,-0.8,3.4,-5.2,-181.70000000000002,16
1019,17268.0,0.1,-4.4,1.6,9.600000000000001,-3.2,-0.6000000000000001,6.500000000000001,-8.5,-181.40000000000003,16
1020,17284.0,-0.30000000000000004,-5.0,2.1,9.1,-3.3000000000000003,-0.2,16.5,-14.900000000000002,-175.60000000000002,16
1021,17301.0,-0.4,-5.6000000000000005,2.2,8.9,-3.5,-0.2,31.5,-22.2,-166.3,16
1022,17321.0,-0.5,-6.0,1.8,8.6,-3.4000000000000004,-0.7000000000000001,45.9,-27.700000000000003,-154.00000000000003,16
1023,17335.0,-0.4,-6.2,1.4000000000000001,8.6,-3.5,-1.2000000000000002,49.800000000000004,-29.1,-147.1,16
1024,17351.0,-0.4,-6.4,0.8,8.5,-3.4000000000000004,-1.8,49.50000000000001,-32.1,-134.70000000000002,16
1025,17368.0,-0.4,-6.6000000000000005,0.6000000000000001,8.3,-3.3000000000000003,-2.2,40.1,-35.0,-120.00000000000001,16
1026,17385.0,-0.4,-6.7,0.5,8.200000000000001,-3.3000000000000003,-2.4000000000000004,33.2,-34.300000000000004,-111.9,16
1027,17401.0,-0.4,-6.9,0.5,8.0,-3.2,-2.4000000000000004,15.8,-27.3,-95.20000000000002,16
1028,17419.0,-0.6000000000000001,-7.2,0.7000000000000001,7.7,-3.4000000000000004,-2.4000000000000004,-2.4000000000000004,-11.900000000000002,-80.10000000000001,16
1029,17435.0,-0.9,-7.4,0.8,7.4,-3.5,-2.2,-11.2,-3.3000000000000007,-73.10000000000001,16
1030,17451.0,-1.5,-7.9,1.0,6.7,-3.8000000000000003,-2.0,-26.300000000000004,13.8,-54.0,16
1031,17468.0,-2.1,-7.9,1.3,6.1000000000000005,-3.8000000000000003,-1.5,-34.0,30.9,-31.3,16
1032,17485.0,-2.3000000000000003,-7.9,1.5,5.800000000000001,-3.8000000000000003,-1.2000000000000002,-33.1,37.2,-18.900000000000002,16
1033,17501.0,-2.6,-7.9,1.2000000000000002,5.5,-3.8000000000000003,-1.3,-24.7,40.5,10.700000000000001,16
1034,17521.0,-3.2,-7.4,0.7000000000000001,5.0,-3.5,-1.8,-18.0,31.2,43.6,16
1035,17535.0,-3.4000000000000004,-6.6000000000000005,0.2,4.800000000000001,-3.0,-2.2,-18.8,17.400000000000002,83.70000000000002,16
1036,17551.0,-3.0,-6.4,0.1,5.300000000000001,-2.9000000000000004,-2.3000000000000003,-20.3,13.399999999999999,106.4,16
1037,17568.0,-1.2000000000000002,-6.0,-0.1,7.300000000000001,-2.9000000000000004,-2.4000000000000004,-19.700000000000003,12.299999999999999,142.7,16
1038,17584.0,0.2,-5.300000000000001,-0.7000000000000001,8.9,-2.8000000000000003,-2.9000000000000004,-17.7,5.8,156.8,16
1039,17601.0,0.7000000000000001,-5.0,-0.9,9.4,-2.7,-3.1,-18.4,0.2,157.4,16
1040,17619.0,0.9,-4.4,-1.4000000000000001,9.700000000000001,-2.5,-3.7,-23.2,-6.600000000000001,156.20000000000002,16
1041,17635.0,0.7000000000000001,-3.7,-1.5,9.600000000000001,-2.3000000000000003,-3.8000000000000003,-33.2,-3.2,160.50000000000003,16
1042,17651.0,0.6000000000000001,-3.4000000000000004,-1.6,9.600000000000001,-2.3000000000000003,-3.8000000000000003,-38.50000000000001,-0.2,164.3,16
1043,17668.0,0.7000000000000001,-2.7,-1.5,9.700000000000001,-2.1,-3.7,-49.800000000000004,3.3000000000000007,171.70000000000002,16
1044,17684.0,0.8,-1.9000000000000001,-1.2000000000000002,9.8,-1.8,-3.4000000000000004,-60.1,2.5,175.00000000000003,16
1045,17702.0,0.8,-1.5,-1.1,9.9,-1.5,-3.2,-64.50000000000001,0.0,174.20000000000002,16
1046,17718.0,0.8,-0.7000000000000001,-0.8,9.8,-1.4000000000000001,-3.0,-73.10000000000001,-5.1000000000000005,170.2,16
1047,17734.0,0.8,-0.1,-0.2,9.8,-1.2000000000000002,-2.5,-80.7,-6.9,166.00000000000003,16
1048,17753.0,1.0,0.30000000000000004,0.5,9.9,-1.3,-1.9000000000000001,-84.1,-10.0,162.10000000000002,16
1049,17769.0,1.3,0.5,0.8,10.100000000000001,-1.3,-1.6,-84.2,-11.700000000000001,161.20000000000002,16
1050,17784.0,2.0,0.9,1.6,10.700000000000001,-1.3,-1.0,-77.9,-16.0,158.00000000000003,16
1051,17801.0,2.6,1.5,1.9000000000000001,11.3,-1.1,-0.7000000000000001,-67.7,-17.7,151.6,16
1052,17820.0,2.9000000000000004,1.8,2.0,11.4,-0.9,-0.7000000000000001,-62.6,-16.6,147.4,16
1053,17835.0,3.3000000000000003,2.4000000000000004,2.1,11.700000000000001,-0.7000000000000001,-0.6000000000000001,-53.8,-10.600000000000001,136.9,16
1054,17851.0,3.8000000000000003,3.0,2.3000000000000003,12.200000000000001,-0.4,-0.4,-43.800000000000004,-2.3,122.50000000000001,16
1055,17868.0,4.1000000000000005,3.2,2.3000000000000003,12.4,-0.30000000000000004,-0.4,-37.300000000000004,1.0,113.7,16
1056,17886.0,4.4,3.5,1.9000000000000001,12.600000000000001,-0.2,-0.9,-23.800000000000004,4.9,97.10000000000001,16
1057,17901.0,4.7,3.7,1.3,12.8,-0.2,-1.4000000000000001,-15.899999999999999,5.300000000000001,86.5,16
1058,17918.0,5.0,3.9000000000000004,1.2000000000000002,13.100000000000001,-0.2,-1.6,-14.400000000000002,5.500000000000001,82.39999999999999,16
1059,17936.0,5.7,4.1000000000000005,0.9,13.8,-0.1,-1.9000000000000001,-14.600000000000001,10.200000000000001,74.7,16
1060,17951.0,6.2,4.5,0.9,14.200000000000001,0.2,-1.9000000000000001,-14.400000000000002,19.200000000000003,63.2,16
1061,17968.0,6.5,5.0,1.0,14.5,0.6000000000000001,-1.7000000000000002,-8.4,27.5,49.800000000000004,16
1062,17985.0,6.6000000000000005,5.300000000000001,1.0,14.600000000000001,0.8,-1.7000000000000002,-2.3,29.400000000000002,42.800000000000004,16
1063,18001.0,6.300000000000001,5.9,0.9,14.4,1.4000000000000001,-1.6,16.4,30.1,26.300000000000004,16
1064,18020.0,5.5,6.7,0.9,13.600000000000001,2.2,-1.5,42.5,23.700000000000003,6.0,16
1065,18035.0,5.2,6.9,0.8,13.3,2.4000000000000004,-1.5,58.1,16.3,-4.4,16
1066,18051.0,4.800000000000001,6.800000000000001,0.30000000000000004,13.0,2.3000000000000003,-1.9000000000000001,88.8,-9.4,-25.300000000000004,16
1067,18068.0,4.9,6.2,-0.30000000000000004,13.200000000000001,1.8,-2.4000000000000004,111.10000000000002,-37.400000000000006,-45.099999999999994,16
1068,18088.0,5.2,5.4,-1.3,13.600000000000001,1.2000000000000002,-3.4000000000000004,117.0,-52.300000000000004,-67.4,16
1069,18102.0,5.2,4.9,-1.7000000000000002,13.600000000000001,0.8,-3.8000000000000003,112.30000000000001,-50.60000000000001,-80.4,16
1070,18128.0,4.3,3.3000000000000003,-1.8,13.0,-0.4,-3.9000000000000004,75.5,-37.9,-114.80000000000001,16
1071,18135.0,4.3,3.3000000000000003,-1.8,13.0,-0.4,-3.9000000000000004,75.5,-37.9,-114.80000000000001,16
1072,18151.0,3.8000000000000003,2.3000000000000003,-0.9,12.600000000000001,-1.0,-3.1,51.1,-33.50000000000001,-125.50000000000001,16
1073,18168.0,3.5,1.6,0.0,12.5,-1.4000000000000001,-2.2,35.699999999999996,-30.799999999999997,-132.2,16
1074,18185.0,2.9000000000000004,1.1,0.8,12.0,-1.4000000000000001,-1.5,28.900000000000002,-27.400000000000002,-141.8,16
1075,18201.0,2.6,0.8,1.0,11.8,-1.5,-1.3,27.700000000000003,-25.6,-147.4,16
1076,18218.0,2.0,0.0,1.3,11.200000000000001,-1.8,-1.1,26.000000000000004,-23.6,-159.0,16
1077,18235.0,1.3,-0.7000000000000001,1.6,10.700000000000001,-2.1,-0.8,26.799999999999997,-24.0,-168.4,16
1078,18251.0,1.1,-1.1,1.6,10.4,-2.2,-0.8,28.600000000000005,-24.3,-171.39999999999998,16
1079,18268.0,0.6000000000000001,-1.8,1.1,10.100000000000001,-2.3000000000000003,-1.3,29.200000000000003,-21.0,-173.6,16
1080,18284.0,0.5,-2.5,0.8,9.9,-2.5,-1.7000000000000002,22.2,-16.0,-174.10000000000002,16
1081,18301.0,0.4,-2.9000000000000004,0.7000000000000001,9.9,-2.6,-1.8,17.799999999999997,-14.100000000000001,-174.20000000000002,16
1082,18320.0,0.1,-3.7,0.6000000000000001,9.5,-2.9000000000000004,-2.0,7.8,-11.1,-173.4,16
1083,18336.0,-0.4,-4.2,0.8,8.9,-3.0,-1.8,-4.4,-10.5,-168.70000000000002,16
1084,18351.0,-0.5,-4.6000000000000005,1.0,8.700000000000001,-3.2,-1.3,-13.000000000000002,-10.200000000000001,-158.7,16
1085,18368.0,-0.5,-5.2,1.6,8.6,-3.2,-1.0,-14.5,-10.8,-152.9,16
1086,18385.0,-0.30000000000000004,-5.7,2.0,8.700000000000001,-3.3000000000000003,-0.6000000000000001,-11.000000000000002,-12.4,-139.1,16
1087,18402.0,0.1,-6.1000000000000005,1.9000000000000001,9.0,-3.4000000000000004,-0.8,-1.1,-13.399999999999999,-124.39999999999999,16
1088,18421.0,0.2,-6.4,1.6,8.9,-3.4000000000000004,-1.1,5.6,-18.700000000000003,-112.0,16
1089,18452.0,0.0,-6.7,0.8,8.6,-3.3000000000000003,-1.9000000000000001,-3.2,-16.0,-90.80000000000001,16
1090,18470.0,0.2,-7.0,0.8,8.700000000000001,-3.5,-2.0,-15.899999999999999,-2.2,-72.9,16
1091,18485.0,0.2,-7.4,0.7000000000000001,8.700000000000001,-3.8000000000000003,-2.1,-22.5,6.0,-63.70000000000001,16
1092,18501.0,-0.2,-7.7,0.9,8.200000000000001,-4.0,-1.7000000000000002,-36.2,22.700000000000003,-45.8,16
1093,18518.0,-0.6000000000000001,-8.0,1.2000000000000002,7.800000000000001,-4.2,-1.2000000000000002,-39.9,33.2,-25.4,16
1094,18534.0,-1.0,-8.0,1.2000000000000002,7.4,-4.2,-1.2000000000000002,-37.9,39.1,-14.0,16
1095,18551.0,-2.2,-7.2,1.3,6.300000000000001,-3.5,-1.0,-26.5,47.5,9.700000000000001,16
1096,18568.0,-3.1,-6.300000000000001,0.8,5.4,-2.7,-1.2000000000000002,-6.699999999999999,41.7,37.6,16
1097,18584.0,-3.1,-6.1000000000000005,0.30000000000000004,5.4,-2.5,-1.7000000000000002,2.2,34.0,53.300000000000004,16
1098,18601.0,-2.6,-5.6000000000000005,-0.5,5.9,-2.4000000000000004,-2.5,14.300000000000002,14.800000000000002,82.0,16
1099,18620.0,-2.0,-4.9,-1.4000000000000001,6.7,-2.0,-3.4000000000000004,14.900000000000002,-2.8,105.20000000000002,16
1100,18638.0,-0.8,-4.6000000000000005,-1.5,7.9,-2.1,-3.6,5.300000000000001,-7.9,121.2,16
1101,18651.0,-0.4,-4.4,-1.5,8.4,-2.2,-3.6,0.30000000000000004,-7.1000000000000005,126.10000000000001,16
1102,18668.0,0.30000000000000004,-4.0,-1.5,9.200000000000001,-2.2,-3.6,-8.8,-3.3000000000000007,132.2,16
1103,18685.0,0.5,-3.8000000000000003,-1.5,9.5,-2.2,-3.6,-12.4,-1.6,132.8,16
1104,18701.0,0.6000000000000001,-3.2,-1.6,9.600000000000001,-2.0,-3.7,-20.1,-0.30000000000000004,131.29999999999998,16
1105,18722.0,-0.1,-2.4000000000000004,-1.6,9.0,-1.6,-3.7,-29.600000000000005,-2.9,129.70000000000002,16
1106,18735.0,-0.30000000000000004,-2.1,-1.6,8.6,-1.4000000000000001,-3.7,-41.7,-5.0,133.0,16
1107,18751.0,-0.5,-1.6,-1.5,8.6,-1.4000000000000001,-3.6,-48.70000000000001,-5.300000000000001,135.5,16
1108,18768.0,-0.2,-1.3,-1.1,8.9,-1.5,-3.3000000000000003,-63.0,-4.800000000000001,139.4,16
1109,18785.0,0.0,-0.8,-0.5,8.9,-1.4000000000000001,-3.0,-69.00000000000001,-4.5,140.20000000000002,16
1110,18801.0,0.1,-0.6000000000000001,-0.30000000000000004,9.200000000000001,-1.4000000000000001,-2.5,-76.60000000000001,-5.1000000000000005,141.0,16
1111,18819.0,0.6000000000000001,-0.1,0.1,9.600000000000001,-1.3,-2.1,-78.9,-6.300000000000001,140.4,16
1112,18836.0,1.1,0.30000000000000004,0.4,10.100000000000001,-1.2000000000000002,-1.9000000000000001,-78.5,-7.699999999999999,136.4,16
1113,18851.0,1.2000000000000002,0.5,0.5,10.100000000000001,-1.2000000000000002,-1.8,-77.80000000000001,-8.4,133.3,16
1114,18868.0,1.2000000000000002,0.9,0.9,10.0,-1.1,-1.5,-76.1,-9.0,128.5,16
1115,18885.0,1.2000000000000002,1.4000000000000001,1.3,10.0,-0.9,-1.2000000000000002,-73.0,-7.400000000000001,126.70000000000002,16
1116,18901.0,1.6,1.7000000000000002,1.5,10.3,-0.8,-1.0,-69.9,-6.0,126.60000000000002,16
1117,18923.0,3.2,2.4000000000000004,1.9000000000000001,11.8,-0.5,-0.7000000000000001,-49.300000000000004,-12.9,119.8,16
1118,18935.0,3.8000000000000003,2.6,1.7000000000000002,12.3,-0.5,-0.9,-42.1,-16.6,117.80000000000001,16
