,ms,accelX,accelY,accelZ,accelWithGX,accelWithGY,accelWithGZ,rotRateAlpha,rotRateBeta,rotRateGamma,interval
0,99.0,-1.4000000000000001,-2.6,-1.2000000000000002,-2.3000000000000003,1.0,7.800000000000001,56.300000000000004,0.2,-6.2,16
1,117.0,-1.2000000000000002,-2.9000000000000004,-0.8,-2.1,0.9,8.200000000000001,8.3,-14.200000000000001,8.700000000000001,16
2,133.0,-0.7000000000000001,-3.0,-0.30000000000000004,-1.6,0.7000000000000001,8.700000000000001,5.500000000000001,-14.400000000000002,11.6,16
3,150.0,-0.6000000000000001,-3.0,-0.30000000000000004,-1.5,0.9,8.700000000000001,8.899999999999999,-7.500000000000001,12.600000000000001,16
4,179.0,-0.7000000000000001,-2.7,-0.7000000000000001,-1.6,1.1,8.3,9.8,0.4,17.5,16
5,182.0,-0.7000000000000001,-2.7,-1.0,-1.5,1.2000000000000002,8.0,6.9,0.2,19.6,16
6,199.0,-0.7000000000000001,-2.7,-1.0,-1.5,1.2000000000000002,8.0,2.2,-2.3,21.7,16
7,216.0,-0.6000000000000001,-2.8000000000000003,-1.0,-1.4000000000000001,1.1,8.0,-7.8,-9.0,24.7,16
8,233.0,-0.30000000000000004,-2.8000000000000003,-0.9,-1.0,1.0,8.1,-13.100000000000001,-11.5,27.9,16
9,249.0,0.2,-2.7,-0.9,-0.4,1.1,8.1,-12.9,-7.9,26.9,16
10,266.0,0.1,-2.4000000000000004,-0.9,-0.4,1.3,8.1,-10.5,-4.1,25.1,16
11,283.0,-0.2,-2.1,-1.2000000000000002,-0.7000000000000001,1.7000000000000002,7.9,-3.3000000000000007,7.1000000000000005,22.4,16
12,300.0,-0.2,-2.1,-1.2000000000000002,-0.9,1.9000000000000001,7.7,0.7,11.6,21.8,16
13,317.0,-0.5,-1.7000000000000002,-2.3000000000000003,-1.0,2.1,6.800000000000001,1.7,13.6,23.5,16
14,332.0,0.2,-1.5,-2.5,-0.4,2.2,6.5,-8.8,6.4,23.800000000000004,16
15,349.0,0.7000000000000001,-1.6,-1.9000000000000001,0.1,2.1,7.2,-22.3,-1.0,18.200000000000003,16
16,366.0,0.6000000000000001,-1.6,-1.3,0.1,2.1,7.800000000000001,-26.9,-2.2,14.100000000000001,16
17,382.0,-0.2,-1.5,-0.2,-0.7000000000000001,2.1,8.9,-28.700000000000003,3.3000000000000007,7.1000000000000005,16
18,399.0,-0.6000000000000001,-1.4000000000000001,0.1,-1.1,2.1,9.3,-26.700000000000003,8.700000000000001,6.2,16
19,416.0,-1.0,-1.2000000000000002,0.4,-1.5,2.3000000000000003,9.600000000000001,-20.1,17.1,10.700000000000001,16
20,433.0,-0.5,-1.0,0.4,-1.1,2.4000000000000004,9.600000000000001,-21.200000000000003,14.0,14.900000000000002,16
21,450.0,-0.1,-0.9,0.8,-0.7000000000000001,2.5,10.0,-23.400000000000002,7.300000000000001,13.3,16
22,466.0,0.1,-0.8,0.9,-0.5,2.5,10.200000000000001,-21.900000000000002,5.300000000000001,11.2,16
23,483.0,0.1,-0.7000000000000001,1.1,-0.5,2.6,10.3,-12.7,7.300000000000001,6.699999999999999,16
24,499.0,0.0,-0.6000000000000001,0.9,-0.6000000000000001,2.6,10.200000000000001,-6.8,11.5,5.9,16
25,516.0,-0.1,-0.5,0.7000000000000001,-0.8,2.7,9.9,-0.4,17.0,7.200000000000001,16
26,532.0,-0.1,-0.30000000000000004,-0.1,-0.8,2.8000000000000003,9.200000000000001,-3.5,3.9,7.9,16
27,549.0,1.0,-0.2,-0.7000000000000001,0.4,2.9000000000000004,8.6,-19.1,-20.2,8.600000000000001,16
28,566.0,1.6,0.1,0.0,1.0,3.1,9.3,-27.0,-24.5,7.8,16
29,582.0,1.3,0.30000000000000004,1.2000000000000002,0.7000000000000001,3.3000000000000003,10.5,-24.5,-9.8,6.1000000000000005,16
30,599.0,1.1,0.4,1.6,0.6000000000000001,3.3000000000000003,10.9,-14.900000000000002,2.4000000000000004,7.1000000000000005,16
31,616.0,0.8,0.30000000000000004,1.8,0.2,3.2,11.100000000000001,11.3,23.400000000000002,11.000000000000002,16
32,632.0,0.5,0.2,1.2000000000000002,-0.2,3.2,10.600000000000001,33.7,32.7,15.899999999999999,16
33,649.0,0.2,0.0,0.6000000000000001,-0.5,3.1,9.9,42.800000000000004,30.3,19.400000000000002,16
34,666.0,0.30000000000000004,-0.30000000000000004,-0.1,-0.5,2.9000000000000004,9.1,43.900000000000006,27.6,21.200000000000003,16
35,682.0,0.5,-0.4,-0.2,-0.30000000000000004,2.9000000000000004,9.0,40.5,26.5,23.3,16
36,699.0,0.5,-0.6000000000000001,1.2000000000000002,-0.30000000000000004,2.8000000000000003,10.4,20.599999999999998,25.0,17.5,16
37,716.0,0.2,-0.8,1.9000000000000001,-0.7000000000000001,2.7,11.100000000000001,21.500000000000004,23.0,13.900000000000002,16
38,732.0,-0.8,-1.0,2.3000000000000003,-1.8,2.5,11.4,35.9,14.100000000000001,8.899999999999999,16
39,749.0,-0.8,-1.5,0.2,-1.7000000000000002,2.2,9.3,50.60000000000001,6.9,11.000000000000002,16
40,766.0,-0.2,-1.9000000000000001,-0.8,-1.1,1.8,8.200000000000001,55.1,8.899999999999999,12.299999999999999,16
41,782.0,0.2,-2.0,-2.7,-0.7000000000000001,2.0,6.2,52.400000000000006,32.7,10.600000000000001,16
42,799.0,0.4,-2.0,-2.9000000000000004,-0.6000000000000001,2.0,6.0,44.00000000000001,54.1,8.2,16
43,816.0,-1.4000000000000001,-0.9,-2.0,-2.6,3.3000000000000003,6.800000000000001,13.399999999999999,79.39999999999999,1.4,16
44,832.0,-1.9000000000000001,-0.7000000000000001,-0.9,-3.6,3.5,9.0,-31.9,53.300000000000004,3.6000000000000005,16
45,849.0,-2.2,-0.7000000000000001,1.6,-3.7,3.4000000000000004,10.3,-47.900000000000006,29.400000000000002,2.2,16
46,866.0,-2.2,-0.7000000000000001,3.0,-3.8000000000000003,3.3000000000000003,11.8,-54.0,3.2,-0.6000000000000001,16
47,882.0,-2.3000000000000003,-0.5,2.9000000000000004,-4.0,3.3000000000000003,11.8,-32.9,21.300000000000004,1.7,16
48,899.0,-2.4000000000000004,-0.4,2.4000000000000004,-4.0,3.3000000000000003,11.3,-19.300000000000004,35.1,5.2,16
49,916.0,-2.1,-0.6000000000000001,1.3,-3.8000000000000003,3.1,10.3,0.4,56.50000000000001,13.700000000000001,16
50,932.0,-1.4000000000000001,-0.8,0.0,-3.3000000000000003,2.9000000000000004,8.9,7.699999999999999,57.1,18.6,16
51,950.0,-0.6000000000000001,-1.2000000000000002,-0.9,-2.7,2.5,7.9,-5.500000000000001,43.900000000000006,20.7,16
52,966.0,-0.1,-1.5,-0.9,-2.2,2.2,7.9,-14.100000000000001,35.3,19.0,16
53,982.0,0.4,-2.3000000000000003,0.30000000000000004,-1.8,1.4000000000000001,9.1,-24.599999999999998,19.300000000000004,12.0,16
54,999.0,0.5,-2.5,0.4,-1.7000000000000002,1.1,9.200000000000001,-23.0,14.100000000000001,7.300000000000001,16
55,1016.0,0.5,-2.5,1.1,-1.8,1.0,10.0,-9.3,11.2,-3.8,16
56,1033.0,-0.9,-1.9000000000000001,0.8,-3.2,1.6,9.600000000000001,14.900000000000002,16.8,-10.600000000000001,16
57,1049.0,-2.5,-1.3,-0.6000000000000001,-4.9,2.2,8.200000000000001,33.6,26.799999999999997,-1.7,16
58,1066.0,-2.3000000000000003,-1.0,-1.5,-4.7,2.6,7.300000000000001,34.1,24.0,8.5,16
59,1083.0,-0.8,-1.4000000000000001,-2.0,-3.2,2.3000000000000003,6.7,22.5,9.899999999999999,22.4,16
60,1099.0,-0.2,-1.4000000000000001,-2.2,-2.7,2.4000000000000004,6.5,15.700000000000001,-2.1,21.300000000000004,16
61,1116.0,0.8,-2.4000000000000004,-1.8,-1.6,1.4000000000000001,6.9,1.4,-13.5,11.700000000000001,16
62,1132.0,1.1,-2.5,0.1,-1.2000000000000002,1.3,8.8,2.1,-4.2,-1.5,16
63,1150.0,-0.2,-1.8,-0.7000000000000001,-3.4000000000000004,2.6,8.200000000000001,16.700000000000003,30.4,-15.000000000000002,16
64,1166.0,-2.2,-0.30000000000000004,-1.2000000000000002,-4.6000000000000005,3.5,7.5,23.800000000000004,42.0,-14.700000000000001,16
65,1183.0,-2.9000000000000004,0.2,-2.4000000000000004,-5.5,4.2,6.2,17.300000000000004,25.5,-1.5,16
66,1199.0,-2.4000000000000004,0.6000000000000001,-2.5,-5.0,4.5,6.1000000000000005,2.0,14.200000000000001,7.9,16
67,1216.0,-1.2000000000000002,-0.4,-2.0,-3.8000000000000003,3.5,6.6000000000000005,-36.7,-11.4,9.899999999999999,16
68,1233.0,-1.2000000000000002,-0.6000000000000001,-0.7000000000000001,-3.8000000000000003,3.2,8.0,-45.7,-11.6,0.7,16
69,1249.0,-1.0,-0.30000000000000004,0.1,-3.6,3.3000000000000003,8.8,-30.9,0.6000000000000001,-1.5,16
70,1267.0,-1.2000000000000002,-0.5,0.0,-3.8000000000000003,3.1,8.8,-18.1,12.299999999999999,-2.3,16
71,1282.0,-1.3,-0.4,-0.1,-3.9000000000000004,3.2,8.700000000000001,-4.7,24.7,-1.3,16
72,1299.0,-1.7000000000000002,0.1,-1.7000000000000002,-4.3,3.7,7.0,9.3,43.00000000000001,4.1,16
73,1316.0,-1.4000000000000001,0.7000000000000001,-2.5,-4.2,4.3,6.2,0.8,28.200000000000003,15.8,16
74,1333.0,-1.0,0.2,-2.4000000000000004,-3.9000000000000004,3.8000000000000003,6.2,-30.000000000000004,16.900000000000002,11.1,16
75,1349.0,-0.5,0.4,-1.4000000000000001,-3.0,3.6,8.0,-48.400000000000006,-4.0,10.299999999999999,16
76,1367.0,0.30000000000000004,0.0,0.0,-2.6,3.5,8.8,-47.900000000000006,-8.4,7.8,16
77,1384.0,0.4,0.2,0.6000000000000001,-2.5,3.6,9.4,-33.6,1.1,2.3,16
78,1399.0,0.2,0.2,0.7000000000000001,-2.6,3.5,9.5,-21.400000000000002,15.700000000000001,0.9000000000000001,16
79,1416.0,0.1,-0.30000000000000004,0.6000000000000001,-2.8000000000000003,3.0,9.4,4.800000000000001,39.9,3.2,16
80,1439.0,-0.5,-0.1,0.0,-3.5,4.0,8.6,25.1,36.0,11.1,16
81,1449.0,-0.1,0.4,-0.4,-3.2,3.7,8.3,26.799999999999997,33.0,13.700000000000001,16
82,1467.0,0.7000000000000001,-0.30000000000000004,-0.1,-2.4000000000000004,3.2,8.6,14.700000000000001,19.0,8.4,16
83,1483.0,1.2000000000000002,-0.1,0.30000000000000004,-2.0,3.3000000000000003,8.9,7.400000000000001,-0.1,0.9000000000000001,16
84,1499.0,1.6,0.0,0.9,-1.5,3.5,9.5,11.2,-12.299999999999999,-17.300000000000004,16
85,1516.0,0.8,0.30000000000000004,1.4000000000000001,-3.1,4.0,10.3,34.0,9.4,-33.400000000000006,16
86,1533.0,-1.8,1.4000000000000001,1.6,-5.1000000000000005,5.0,10.100000000000001,68.3,44.5,-21.8,16
87,1549.0,-2.0,1.6,0.6000000000000001,-5.4,5.4,9.0,91.6,61.39999999999999,-1.3,16
88,1566.0,-1.7000000000000002,1.5,0.30000000000000004,-5.2,5.4,8.6,92.60000000000001,50.0,7.6,16
89,1582.0,-1.3,1.7000000000000002,0.0,-4.9,5.800000000000001,8.200000000000001,84.9,28.700000000000003,12.5,16
90,1599.0,-0.2,1.8,0.30000000000000004,-3.8000000000000003,6.1000000000000005,8.4,57.1,-30.5,5.7,16
91,1621.0,-0.8,1.5,0.7000000000000001,-4.3,6.0,8.700000000000001,33.50000000000001,-53.7,-14.100000000000001,16
92,1633.0,-2.2,1.2000000000000002,2.4000000000000004,-5.6000000000000005,5.7,10.4,22.5,-36.8,-9.2,16
93,1651.0,-3.2,0.1,3.8000000000000003,-6.5,4.7,11.9,23.6,-19.400000000000002,7.0,16
94,1666.0,-2.7,-0.4,3.9000000000000004,-6.0,4.1000000000000005,11.9,27.0,-20.400000000000002,13.8,16
95,1684.0,-0.8,-1.6,1.8,-4.0,3.1,9.8,29.400000000000002,-38.7,1.4,16
96,1700.0,0.0,-0.4,1.7000000000000002,-3.1,4.4,9.700000000000001,19.5,-42.800000000000004,-11.5,16
97,1716.0,-0.6000000000000001,-1.3,-0.30000000000000004,-3.7,3.5,7.7,1.0,-24.400000000000002,-31.3,16
98,1733.0,-2.7,-1.4000000000000001,-0.5,-5.7,3.3000000000000003,7.5,-43.900000000000006,-43.300000000000004,-16.4,16
99,1749.0,-3.0,-1.4000000000000001,1.8,-5.9,3.2,9.9,-60.7,-58.400000000000006,-1.6,16
100,1766.0,-1.7000000000000002,-1.8,4.2,-4.5,2.7,12.5,-59.40000000000001,-80.60000000000001,19.700000000000003,16
101,1782.0,-0.7000000000000001,-2.1,4.5,-3.2,2.2,12.9,-18.4,-68.3,26.1,16
102,1801.0,0.4,-2.0,2.9000000000000004,-1.9000000000000001,2.3000000000000003,11.3,41.1,-8.5,22.9,16
103,1817.0,0.7000000000000001,-2.0,1.8,-1.6,2.4000000000000004,10.3,68.0,28.3,21.1,16
104,1835.0,0.1,-2.1,-1.0,-2.3000000000000003,2.6,7.300000000000001,96.0,80.4,13.000000000000002,16
105,1849.0,-1.9000000000000001,-2.0,-2.6,-5.4,2.9000000000000004,5.300000000000001,73.6,84.80000000000001,16.5,16
106,1866.0,-2.7,-2.2,-2.7,-6.300000000000001,3.6,5.7,51.50000000000001,73.4,27.2,16
107,1885.0,-1.7000000000000002,-2.7,-0.8,-4.5,2.5,7.1000000000000005,7.9,26.400000000000006,52.7,16
108,1900.0,0.30000000000000004,-2.5,-0.2,-2.4000000000000004,2.8000000000000003,7.6000000000000005,-9.700000000000001,1.9,56.2,16
109,1917.0,0.8,-2.6,-0.30000000000000004,-1.9000000000000001,2.7,7.6000000000000005,-11.3,0.8,49.9,16
110,1934.0,1.1,-2.5,0.2,-1.6,2.8000000000000003,8.1,-4.6,9.600000000000001,34.50000000000001,16
111,1950.0,0.8,-2.0,-0.30000000000000004,-1.9000000000000001,3.6,7.0,3.8,12.4,20.599999999999998,16
112,1966.0,0.6000000000000001,-1.1,-1.6,-2.0,4.2,6.2,-0.7,5.1000000000000005,18.0,16
113,1983.0,-0.8,-2.0,-1.5,-3.4000000000000004,3.3000000000000003,6.4,-19.1,-22.000000000000004,17.200000000000003,16
114,2000.0,-1.0,-2.5,-1.5,-3.5,2.8000000000000003,6.4,-34.300000000000004,-36.8,23.0,16
115,2016.0,-0.5,-2.6,-0.8,-2.9000000000000004,2.6,7.2,-54.199999999999996,-28.500000000000004,28.700000000000003,16
116,2033.0,0.8,-1.7000000000000002,0.7000000000000001,-1.4000000000000001,3.4000000000000004,8.8,-53.0,-1.8000000000000003,25.300000000000004,16
117,2050.0,0.30000000000000004,-1.7000000000000002,1.4000000000000001,-2.8000000000000003,3.6,9.9,-42.900000000000006,10.5,17.6,16
118,2066.0,-1.7000000000000002,-0.7000000000000001,1.6,-3.9000000000000004,4.2,9.8,-12.7,28.200000000000003,12.200000000000001,16
119,2082.0,-2.2,-0.4,1.0,-5.1000000000000005,4.1000000000000005,7.9,13.200000000000003,50.900000000000006,26.400000000000006,16
120,2099.0,-2.5,-1.0,-0.8,-4.800000000000001,4.0,7.4,15.6,62.1,35.599999999999994,16
121,2116.0,-1.0,-1.0,-1.7000000000000002,-3.5,4.0,6.4,3.3000000000000007,73.30000000000001,48.300000000000004,16
122,2133.0,-0.5,-0.5,-1.5,-3.1,4.6000000000000005,6.5,-11.8,85.69999999999999,53.599999999999994,16
123,2150.0,-0.2,-0.30000000000000004,-1.1,-2.5,5.1000000000000005,7.1000000000000005,-18.5,99.2,59.00000000000001,16
124,2166.0,1.0,0.30000000000000004,-0.5,-1.9000000000000001,5.4,7.4,-16.3,109.39999999999999,58.2,16
125,2183.0,1.1,1.4000000000000001,0.6000000000000001,-2.0,6.5,8.4,-1.3,128.70000000000002,42.5,16
126,2202.0,0.6000000000000001,1.3,0.5,-2.6,6.4,8.200000000000001,18.8,150.70000000000002,35.1,16
127,2216.0,0.2,-0.4,-1.4000000000000001,-3.3000000000000003,4.800000000000001,6.1000000000000005,9.3,111.10000000000002,38.1,16
128,2233.0,1.1,0.30000000000000004,-2.0,-2.6,5.6000000000000005,5.4,-18.5,78.7,26.9,16
129,2249.0,1.2000000000000002,0.4,-0.7000000000000001,-2.6,5.6000000000000005,6.6000000000000005,-41.300000000000004,47.5,20.900000000000002,16
130,2266.0,1.1,0.2,-0.1,-2.8000000000000003,5.4,7.300000000000001,-42.400000000000006,34.400000000000006,21.500000000000004,16
131,2282.0,0.9,-0.6000000000000001,1.1,-3.0,4.6000000000000005,8.5,-33.7,25.300000000000004,15.5,16
132,2299.0,1.0,-0.30000000000000004,1.6,-2.9000000000000004,4.800000000000001,9.0,-26.000000000000004,23.5,10.600000000000001,16
133,2316.0,0.0,-0.9,1.5,-4.0,4.1000000000000005,8.9,-5.9,21.300000000000004,6.8,16
134,2334.0,-1.2000000000000002,-0.30000000000000004,1.6,-5.2,4.800000000000001,9.0,13.5,23.099999999999998,4.7,16
135,2350.0,-1.4000000000000001,0.30000000000000004,0.8,-5.5,5.300000000000001,8.1,19.300000000000004,23.3,6.1000000000000005,16
136,2366.0,-1.5,1.7000000000000002,-0.5,-5.5,6.800000000000001,6.800000000000001,19.400000000000002,20.2,11.900000000000002,16
137,2382.0,-1.2000000000000002,1.8,-0.8,-5.300000000000001,7.0,6.4,6.8,23.6,23.099999999999998,16
138,2399.0,-1.1,1.5,-0.7000000000000001,-5.2,6.7,6.5,-0.8,26.200000000000003,25.7,16
139,2417.0,-1.5,0.8,0.4,-5.6000000000000005,6.0,7.5,-12.600000000000001,21.6,24.3,16
140,2433.0,-1.7000000000000002,0.30000000000000004,1.7000000000000002,-5.800000000000001,5.6000000000000005,8.9,-4.5,21.200000000000003,27.400000000000002,16
141,2449.0,-1.3,0.2,1.7000000000000002,-5.5,5.4,8.8,8.2,26.700000000000003,32.2,16
142,2466.0,0.30000000000000004,-0.6000000000000001,-0.6000000000000001,-3.9000000000000004,4.800000000000001,6.5,33.6,47.80000000000001,40.1,16
143,2482.0,0.6000000000000001,-1.1,-1.1,-3.6,4.3,5.9,37.7,57.60000000000001,37.2,16
144,2501.0,-1.3,0.30000000000000004,-1.1,-5.6000000000000005,5.9,5.7,9.899999999999999,81.10000000000001,23.099999999999998,16
145,2516.0,-1.3,-0.30000000000000004,-0.8,-5.7,5.300000000000001,5.9,-11.000000000000002,71.5,26.200000000000003,16
146,2533.0,-0.2,-1.0,0.4,-4.7,4.6000000000000005,7.1000000000000005,-34.1,56.2,15.899999999999999,16
147,2549.0,0.0,-0.9,1.7000000000000002,-4.5,4.7,8.4,-40.0,50.8,8.600000000000001,16
148,2566.0,0.5,-0.7000000000000001,2.7,-4.1000000000000005,4.800000000000001,9.3,-33.0,48.300000000000004,-6.300000000000001,16
149,2584.0,-0.1,0.30000000000000004,2.6,-4.9,5.7,9.200000000000001,-19.0,63.4,-17.9,16
150,2599.0,-0.9,0.30000000000000004,2.5,-5.800000000000001,5.7,9.1,-10.5,80.0,-19.0,16
151,2616.0,-2.7,0.9,1.5,-7.9,6.2,7.9,1.4,96.9,-9.0,16
152,2632.0,-3.2,0.7000000000000001,-0.30000000000000004,-8.5,6.0,5.9,-2.0,76.0,1.8000000000000003,16
153,2650.0,-3.3000000000000003,0.6000000000000001,-1.3,-8.700000000000001,5.9,4.9,-9.4,61.9,8.100000000000001,16
154,2666.0,-2.8000000000000003,-0.4,-0.7000000000000001,-8.4,5.0,5.4,-35.4,38.800000000000004,22.4,16
155,2683.0,-2.0,-1.3,0.9,-7.6000000000000005,4.0,7.1000000000000005,-41.6,23.2,33.50000000000001,16
156,2699.0,-1.8,-1.5,1.0,-7.300000000000001,3.8000000000000003,7.1000000000000005,-34.2,17.9,37.800000000000004,16
157,2716.0,-0.7000000000000001,-2.0,0.0,-6.2,3.3000000000000003,6.1000000000000005,-13.900000000000002,19.0,43.900000000000006,16
158,2733.0,0.1,-2.4000000000000004,-1.4000000000000001,-5.300000000000001,3.0,4.7,-2.1,22.700000000000003,43.1,16
159,2752.0,0.30000000000000004,-2.6,-2.5,-5.1000000000000005,2.9000000000000004,3.6,-5.1000000000000005,18.200000000000003,33.800000000000004,16
160,2767.0,0.2,-2.7,-2.6,-5.2,2.7,3.5,-10.5,20.7,29.1,16
161,2782.0,-0.30000000000000004,-2.6,-2.2,-5.7,2.9000000000000004,3.9000000000000004,-21.900000000000002,24.200000000000003,20.1,16
162,2799.0,-0.5,-2.2,-2.2,-5.9,3.3000000000000003,3.9000000000000004,-24.8,23.6,18.4,16
163,2816.0,-0.7000000000000001,-1.6,-1.9000000000000001,-6.1000000000000005,3.9000000000000004,4.2,-32.0,20.5,16.900000000000002,16
164,2833.0,-0.5,-1.2000000000000002,-1.4000000000000001,-6.0,4.2,4.7,-34.0,20.7,18.200000000000003,16
165,2853.0,-0.30000000000000004,-1.1,-1.4000000000000001,-5.7,4.3,4.7,-28.800000000000004,18.0,17.5,16
166,2866.0,-0.30000000000000004,-1.2000000000000002,-1.6,-5.7,4.2,4.5,-26.000000000000004,19.200000000000003,17.0,16
167,2882.0,-0.4,-1.1,-1.8,-5.9,4.2,4.4,-22.6,22.6,16.3,16
168,2899.0,-0.4,-1.1,-2.2,-5.9,4.3,3.9000000000000004,-23.400000000000002,23.3,16.200000000000003,16
169,2916.0,-0.5,-0.6000000000000001,-2.6,-6.0,4.7,3.6,-36.2,13.900000000000002,15.000000000000002,16
170,2933.0,-0.6000000000000001,-0.6000000000000001,-2.2,-5.9,4.800000000000001,4.4,-51.1,14.200000000000001,16.700000000000003,16
171,2952.0,-0.1,-0.30000000000000004,-0.9,-5.6000000000000005,4.800000000000001,5.4,-52.80000000000001,12.600000000000001,15.700000000000001,16
172,2966.0,0.2,-0.5,-0.30000000000000004,-5.300000000000001,4.6000000000000005,6.0,-48.400000000000006,11.3,15.6,16
173,2983.0,0.2,-0.5,-0.2,-5.300000000000001,4.6000000000000005,6.1000000000000005,-40.5,10.1,13.900000000000002,16
174,3001.0,0.2,0.0,-0.8,-5.300000000000001,5.0,5.5,-13.3,22.4,8.2,16
175,3016.0,-0.2,0.5,-1.4000000000000001,-5.7,5.5,5.0,-8.0,31.0,6.699999999999999,16
176,3032.0,-1.0,1.4000000000000001,-2.1,-6.6000000000000005,6.5,4.2,-10.200000000000001,57.00000000000001,12.9,16
177,3051.0,-0.9,1.6,-1.9000000000000001,-6.7,6.6000000000000005,4.3,-24.200000000000003,63.4,24.5,16
178,3066.0,-1.4000000000000001,1.6,-1.0,-7.1000000000000005,6.6000000000000005,5.2,-29.500000000000004,40.5,25.1,16
179,3083.0,-1.3,1.6,-0.5,-7.1000000000000005,6.6000000000000005,5.6000000000000005,-30.1,14.200000000000001,26.300000000000004,16
180,3100.0,-1.0,1.5,0.1,-6.4,6.300000000000001,6.1000000000000005,-9.899999999999999,0.30000000000000004,35.4,16
181,3116.0,-0.7000000000000001,1.5,-0.5,-6.4,6.6000000000000005,5.6000000000000005,-3.4,15.299999999999999,37.50000000000001,16
182,3133.0,-1.9000000000000001,1.2000000000000002,-1.1,-7.6000000000000005,6.4,5.1000000000000005,-6.8,27.3,44.10000000000001,16
183,3152.0,-2.1,0.4,-0.2,-7.7,5.6000000000000005,5.9,-17.200000000000003,3.6000000000000005,42.7,16
184,3166.0,-1.2000000000000002,0.8,0.2,-6.800000000000001,6.0,6.4,-18.700000000000003,-13.200000000000003,37.2,16
185,3184.0,-0.1,0.6000000000000001,1.2000000000000002,-5.6000000000000005,5.9,7.4,-14.800000000000002,-34.1,33.0,16
186,3199.0,0.2,0.6000000000000001,1.2000000000000002,-5.2,5.800000000000001,7.5,-7.400000000000001,-48.2,28.3,16
187,3216.0,0.8,0.8,0.7000000000000001,-4.5,6.2,7.0,6.500000000000001,-49.6,18.4,16
188,3233.0,0.6000000000000001,1.5,0.1,-4.5,6.800000000000001,6.5,13.5,-16.8,14.0,16
189,3253.0,0.2,1.8,-0.7000000000000001,-4.9,7.2,5.7,7.699999999999999,-10.200000000000001,10.0,16
190,3266.0,0.0,1.9000000000000001,-0.8,-5.1000000000000005,7.300000000000001,5.6000000000000005,-0.1,-12.299999999999999,6.500000000000001,16
191,3282.0,-2.0,2.0,1.5,-7.0,7.4,7.9,-16.900000000000002,-25.8,-2.8,16
192,3299.0,-3.0,1.8,2.4000000000000004,-8.0,7.2,8.8,-18.900000000000002,-36.0,-0.1,16
193,3316.0,-3.7,0.7000000000000001,4.9,-8.6,6.1000000000000005,11.4,-0.9000000000000001,-56.9,6.1000000000000005,16
194,3333.0,-3.7,0.1,4.1000000000000005,-8.4,5.6000000000000005,10.8,20.599999999999998,-89.4,6.1000000000000005,16
195,3351.0,-2.4000000000000004,-0.5,1.3,-6.9,4.9,8.1,23.0,-111.70000000000002,3.6000000000000005,16
196,3366.0,-1.4000000000000001,-0.8,-0.2,-5.7,4.7,6.7,17.400000000000002,-111.9,0.8,16
197,3382.0,-0.2,-0.6000000000000001,-1.6,-4.3,5.0,5.300000000000001,3.3000000000000007,-103.49999999999999,-3.0,16
198,3399.0,0.2,-0.4,-2.2,-3.8000000000000003,5.1000000000000005,4.800000000000001,-4.800000000000001,-104.7,-3.4,16
199,3420.0,-0.7000000000000001,-1.5,-2.4000000000000004,-4.4,4.0,4.800000000000001,-28.500000000000004,-131.79999999999998,-2.0,16
200,3433.0,-1.0,-2.4000000000000004,-1.0,-4.1000000000000005,3.0,7.1000000000000005,-53.7,-167.20000000000002,-15.100000000000001,16
201,3450.0,-0.2,-2.4000000000000004,0.5,-3.2,2.9000000000000004,8.4,-63.599999999999994,-186.10000000000002,-27.099999999999998,16
202,3467.0,-0.4,-2.5,1.4000000000000001,-3.1,2.6,9.3,-76.2,-208.00000000000003,-40.2,16
203,3483.0,-0.9,-1.8,2.9000000000000004,-3.1,3.0,11.200000000000001,-73.10000000000001,-200.9,-38.0,16
204,3499.0,-1.5,-1.8,2.6,-3.5,2.9000000000000004,11.0,-61.8,-197.20000000000002,-26.9,16
205,3516.0,-1.0,-2.4000000000000004,0.6000000000000001,-2.4000000000000004,2.2,9.200000000000001,-6.600000000000001,-119.0,-13.000000000000002,16
206,3532.0,0.1,-1.7000000000000002,-1.4000000000000001,-1.0,2.9000000000000004,7.2,4.800000000000001,-73.5,-16.8,16
207,3550.0,-0.6000000000000001,-1.4000000000000001,-1.7000000000000002,-1.7000000000000002,3.2,6.9,-3.5,-81.60000000000001,-22.6,16
208,3569.0,-1.2000000000000002,-1.6,-0.30000000000000004,-2.1,2.9000000000000004,8.4,-33.9,-83.89999999999999,-25.0,16
209,3583.0,-1.1,-1.5,0.4,-1.7000000000000002,3.0,9.1,-31.400000000000002,-75.5,-19.700000000000003,16
210,3599.0,-1.0,-1.4000000000000001,0.30000000000000004,-1.6,3.0,9.0,-25.5,-69.7,-16.200000000000003,16
211,3616.0,-0.9,-1.2000000000000002,-0.8,-1.2000000000000002,3.1,8.0,-19.5,-70.2,-10.200000000000001,16
212,3633.0,-0.9,-1.0,-1.5,-1.0,3.2,7.300000000000001,-25.7,-77.4,-8.2,16
213,3649.0,-0.5,-1.0,-1.6,-0.5,3.2,7.300000000000001,-27.400000000000002,-76.0,-5.8,16
214,3666.0,0.30000000000000004,-1.1,-1.7000000000000002,0.5,3.0,7.2,-24.1,-63.0,-3.4,16
215,3682.0,0.2,-0.9,-1.6,0.5,3.2,7.300000000000001,-19.6,-49.699999999999996,-3.3000000000000007,16
216,3699.0,-0.8,-0.7000000000000001,-1.7000000000000002,-0.4,3.4000000000000004,7.2,-12.200000000000001,-20.1,-0.2,16
217,3717.0,-1.3,0.0,-1.8,-0.9,4.0,7.2,-16.5,-15.299999999999999,5.0,16
218,3733.0,-0.9,-0.1,-1.3,-0.4,3.8000000000000003,7.6000000000000005,-31.5,-32.400000000000006,12.0,16
219,3750.0,-0.5,-0.1,-0.9,0.8,4.3,8.8,-40.9,-44.10000000000001,13.700000000000001,16
220,3766.0,0.30000000000000004,-0.5,-0.4,1.1,3.2,8.700000000000001,-37.0,-40.800000000000004,13.6,16
221,3783.0,0.5,-0.8,-0.2,1.3,2.9000000000000004,8.8,-28.200000000000003,-27.800000000000004,12.0,16
222,3799.0,0.1,-0.2,0.0,0.9,3.4000000000000004,9.1,-10.8,0.5,0.1,16
223,3816.0,-1.7000000000000002,-0.30000000000000004,-0.4,-0.8,3.2,8.6,-3.0,5.7,-2.6,16
224,3833.0,-0.7000000000000001,-0.1,0.1,0.1,3.4000000000000004,9.200000000000001,-1.2000000000000002,-8.8,7.200000000000001,16
225,3851.0,-0.4,0.0,0.30000000000000004,0.8,3.7,9.3,-3.1,-14.800000000000002,6.9,16
226,3866.0,0.6000000000000001,0.0,0.2,1.5,3.6,9.3,-3.1,-12.0,4.4,16
227,3883.0,0.6000000000000001,0.0,0.8,1.5,3.5,9.9,-3.0,2.8,-6.300000000000001,16
228,3899.0,0.6000000000000001,0.0,0.8,1.2000000000000002,4.1000000000000005,10.4,-1.6,10.8,-11.6,16
229,3916.0,-0.7000000000000001,1.0,1.6,0.2,4.6000000000000005,10.8,4.6,20.400000000000002,-13.3,16
230,3933.0,-0.9,1.2000000000000002,1.7000000000000002,-0.1,4.800000000000001,10.8,6.4,23.400000000000002,-9.4,16
231,3951.0,-1.2000000000000002,1.0,1.6,-0.8,4.4,10.700000000000001,3.6000000000000005,19.400000000000002,-6.4,16
232,3966.0,-1.4000000000000001,0.6000000000000001,1.3,-0.7000000000000001,4.2,10.4,0.2,12.9,-2.5,16
233,3982.0,-1.0,0.4,1.0,-0.30000000000000004,4.0,10.100000000000001,-4.4,5.500000000000001,1.2000000000000002,16
234,4000.0,0.4,-0.30000000000000004,0.4,1.1,3.3000000000000003,9.5,-17.799999999999997,4.2,3.5,16
235,4016.0,0.5,-0.30000000000000004,1.5,1.1,3.2,10.600000000000001,-26.799999999999997,20.2,-4.2,16
236,4033.0,-0.9,-0.1,2.6,-0.4,3.3000000000000003,11.8,-14.600000000000001,48.70000000000001,-9.600000000000001,16
237,4050.0,-1.9000000000000001,-0.1,2.9000000000000004,-1.8,3.8000000000000003,12.100000000000001,-2.3,66.7,-9.600000000000001,16
238,4066.0,-2.1,0.1,2.4000000000000004,-1.9000000000000001,3.5,11.600000000000001,23.400000000000002,105.3,-5.2,16
239,4082.0,-0.9,-0.2,1.4000000000000001,-1.1,3.3000000000000003,10.600000000000001,38.800000000000004,119.20000000000002,6.699999999999999,16
240,4099.0,0.2,-1.2000000000000002,0.9,-0.1,2.3000000000000003,10.100000000000001,40.0,100.6,8.4,16
241,4116.0,-0.30000000000000004,-1.8,-0.1,-0.9,1.9000000000000001,9.0,33.300000000000004,79.00000000000001,-7.400000000000001,16
242,4133.0,-0.7000000000000001,-1.3,0.6000000000000001,-1.6,2.5,9.600000000000001,41.6,62.0,-8.2,16
243,4151.0,-1.8,-1.7000000000000002,-0.6000000000000001,-2.9000000000000004,2.3000000000000003,8.4,58.7,69.5,-3.2,16
244,4168.0,-2.2,-1.8,-0.9,-3.4000000000000004,2.2,8.0,65.8,78.10000000000001,10.4,16
245,4182.0,-1.9000000000000001,-1.9000000000000001,-2.5,-3.3000000000000003,2.4000000000000004,6.300000000000001,69.3,98.7,32.7,16
246,4199.0,-1.7000000000000002,-2.0,-2.8000000000000003,-3.3000000000000003,2.3000000000000003,5.800000000000001,60.5,106.60000000000001,39.699999999999996,16
247,4216.0,0.6000000000000001,-1.5,-2.8000000000000003,-1.2000000000000002,3.0,5.7,24.599999999999998,107.7,41.800000000000004,16
248,4233.0,0.5,-2.1,-1.3,-1.6,2.5,7.1000000000000005,-13.6,81.90000000000002,10.5,16
249,4249.0,-0.9,-1.6,1.1,-3.2,2.9000000000000004,9.5,-25.7,42.2,-13.3,16
250,4266.0,-1.4000000000000001,-1.5,1.4000000000000001,-3.8000000000000003,3.0,9.700000000000001,-18.6,28.3,-13.000000000000002,16
251,4283.0,-1.2000000000000002,-0.7000000000000001,-0.2,-3.7,3.7,8.200000000000001,2.9,37.300000000000004,-5.9,16
252,4300.0,-0.7000000000000001,-0.30000000000000004,-0.9,-3.2,4.2,7.5,7.400000000000001,41.0,-5.2,16
253,4316.0,-1.0,0.30000000000000004,-1.3,-3.7,4.7,7.1000000000000005,3.3000000000000007,35.1,-15.399999999999999,16
254,4332.0,-0.5,-0.1,-1.2000000000000002,-3.2,4.4,7.1000000000000005,1.4,35.3,-15.000000000000002,16
255,4353.0,-0.1,0.4,-1.6,-3.0,4.9,6.7,4.5,28.3,-16.200000000000003,16
256,4366.0,0.30000000000000004,0.6000000000000001,-1.9000000000000001,-2.7,5.1000000000000005,6.300000000000001,4.800000000000001,21.400000000000002,-12.5,16
257,4382.0,0.9,0.6000000000000001,-2.3000000000000003,-2.1,5.0,5.9,0.6000000000000001,8.4,-7.0,16
258,4399.0,1.0,0.4,-1.9000000000000001,-2.0,4.800000000000001,6.300000000000001,0.2,4.7,-5.6,16
259,4416.0,0.9,-0.1,-0.30000000000000004,-2.2,4.4,7.9,8.600000000000001,-2.7,-15.5,16
260,4433.0,-0.1,-0.4,0.1,-3.2,4.0,8.3,29.900000000000006,-7.200000000000001,-17.300000000000004,16
261,4449.0,-0.30000000000000004,-0.4,-0.8,-3.4000000000000004,4.0,7.4,38.50000000000001,-19.200000000000003,-21.900000000000002,16
262,4466.0,-0.6000000000000001,0.7000000000000001,-2.7,-3.6,5.2,5.4,33.7,-48.300000000000004,-33.400000000000006,16
263,4482.0,-0.6000000000000001,0.8,-2.8000000000000003,-3.6,5.4,5.4,23.3,-57.20000000000001,-32.9,16
264,4499.0,-0.6000000000000001,1.0,-2.4000000000000004,-3.5,5.6000000000000005,5.7,8.2,-59.00000000000001,-26.9,16
265,4516.0,-0.2,1.2000000000000002,-1.9000000000000001,-2.9000000000000004,5.800000000000001,6.300000000000001,2.3,-53.400000000000006,-21.8,16
266,4532.0,-0.6000000000000001,0.1,-0.4,-3.2,4.7,7.9,5.7,-43.900000000000006,-21.6,16
267,4549.0,-1.1,-0.6000000000000001,1.5,-3.6,4.0,9.8,16.4,-53.2,-22.3,16
268,4566.0,-1.0,-0.5,1.7000000000000002,-3.5,4.1000000000000005,10.0,21.1,-59.1,-27.400000000000002,16
269,4582.0,-1.3,-0.4,1.7000000000000002,-3.8000000000000003,4.3,9.9,23.900000000000006,-58.60000000000001,-32.8,16
270,4599.0,-2.6,0.1,2.0,-4.9,4.800000000000001,10.3,26.5,-38.7,-27.0,16
271,4616.0,-3.0,-0.30000000000000004,2.6,-5.300000000000001,4.4,10.8,47.3,9.4,0.2,16
272,4632.0,-0.1,-0.5,1.8,-2.4000000000000004,4.4,9.9,58.1,22.1,1.0,16
273,4649.0,0.9,-0.5,0.6000000000000001,-1.5,4.5,8.700000000000001,54.50000000000001,5.7,-13.100000000000001,16
274,4666.0,0.6000000000000001,1.1,-1.7000000000000002,-1.8,6.2,6.300000000000001,31.099999999999998,-24.900000000000002,-42.900000000000006,16
275,4682.0,-1.1,1.3,-1.0,-3.5,6.4,7.0,1.5,-9.8,-31.5,16
276,4699.0,-1.6,1.1,0.0,-4.1000000000000005,6.2,8.0,-11.700000000000001,11.2,-21.300000000000004,16
277,4716.0,-2.8000000000000003,-0.1,3.5,-5.300000000000001,5.0,11.5,-41.7,15.899999999999999,-16.8,16
278,4734.0,-2.4000000000000004,-1.2000000000000002,5.300000000000001,-4.9,3.7,13.4,-54.0,-17.200000000000003,-16.0,16
279,4749.0,-1.1,-1.7000000000000002,6.1000000000000005,-2.9000000000000004,2.5,14.9,-49.199999999999996,-27.800000000000004,-19.400000000000002,16
280,4766.0,0.4,-2.2,6.1000000000000005,-2.1,2.4000000000000004,14.3,-14.5,-40.7,-35.4,16
281,4782.0,0.0,-2.3000000000000003,2.3000000000000003,-2.5,2.3000000000000003,10.600000000000001,37.1,-30.1,-43.6,16
282,4799.0,-0.4,-2.1,0.9,-2.8000000000000003,2.6,9.1,57.60000000000001,-14.600000000000001,-47.900000000000006,16
283,4816.0,-0.9,-0.8,-2.7,-3.3000000000000003,4.0,5.5,60.400000000000006,-10.0,-53.300000000000004,16
284,4832.0,-0.4,-0.5,-3.3000000000000003,-2.9000000000000004,4.4,4.800000000000001,26.000000000000004,-31.5,-47.900000000000006,16
285,4849.0,0.2,-1.1,-2.3000000000000003,-2.0,3.7,6.1000000000000005,-1.7,-32.7,-37.9,16
286,4866.0,1.2000000000000002,-1.5,-1.4000000000000001,-1.3,3.4000000000000004,6.7,-7.1000000000000005,-28.700000000000003,-35.3,16
287,4884.0,0.9,-2.7,-0.5,-1.5,2.1,7.7,-8.700000000000001,-25.6,-37.9,16
288,4899.0,1.0,-2.7,-0.1,-1.5,2.1,8.1,-6.9,-25.7,-43.00000000000001,16
289,4916.0,0.2,-1.6,-0.30000000000000004,-2.3000000000000003,3.1,7.9,1.0,-27.099999999999998,-46.800000000000004,16
290,4932.0,-0.5,-0.8,-1.1,-2.9000000000000004,4.0,7.2,3.6000000000000005,-10.5,-30.599999999999998,16
291,4950.0,-0.1,-0.7000000000000001,-1.1,-2.3000000000000003,4.0,7.2,-8.8,-13.5,-17.400000000000002,16
292,4966.0,0.8,-1.0,-0.5,-1.7000000000000002,3.7,7.800000000000001,-14.900000000000002,-17.9,-14.800000000000002,16
293,4982.0,1.4000000000000001,-1.5,0.30000000000000004,-1.0,3.1,8.6,-16.700000000000003,-21.7,-12.8,16
294,4999.0,1.7000000000000002,-1.5,0.5,-0.7000000000000001,3.1,8.8,-11.1,-22.1,-16.1,16
295,5016.0,1.8,-1.1,-0.1,-0.6000000000000001,3.5,8.3,3.4,-17.7,-26.5,16
296,5035.0,0.9,-0.7000000000000001,-0.9,-1.5,3.8000000000000003,7.4,11.6,-6.8,-32.0,16
297,5049.0,0.4,-0.5,-1.5,-2.0,4.2,6.6000000000000005,8.0,-1.9,-27.800000000000004,16
298,5067.0,0.7000000000000001,-0.5,-1.9000000000000001,-1.8,4.1000000000000005,6.4,2.0,-2.0,-25.0,16
299,5082.0,0.7000000000000001,-0.6000000000000001,-1.8,-1.8,4.0,6.5,-5.7,-3.7000000000000006,-23.6,16
300,5099.0,1.0,-1.0,-1.3,-1.5,3.5,7.1000000000000005,-17.400000000000002,-4.9,-23.0,16
301,5116.0,1.9000000000000001,-1.4000000000000001,-0.4,-0.7000000000000001,3.0,8.0,-20.1,10.600000000000001,-27.800000000000004,16
302,5132.0,1.6,-1.9000000000000001,0.0,-1.0,2.4000000000000004,8.4,-7.9,18.700000000000003,-44.300000000000004,16
303,5149.0,1.1,-2.1,0.2,-1.5,2.2,8.6,0.4,25.0,-50.900000000000006,16
304,5166.0,0.7000000000000001,-2.1,0.2,-3.3000000000000003,2.7,8.200000000000001,19.5,32.6,-57.800000000000004,16
305,5182.0,-0.6000000000000001,-1.6,-0.5,-3.5,2.7,7.9,20.1,35.2,-59.5,16
306,5199.0,-0.7000000000000001,-1.4000000000000001,-1.2000000000000002,-3.8000000000000003,2.9000000000000004,7.0,10.600000000000001,33.50000000000001,-65.0,16
307,5216.0,-1.1,-1.7000000000000002,-1.1,-4.4,2.5,7.1000000000000005,-4.6,41.300000000000004,-70.8,16
308,5232.0,-1.2000000000000002,-2.3000000000000003,-0.30000000000000004,-4.7,1.8,7.9,-8.5,60.300000000000004,-74.5,16
309,5249.0,-1.9000000000000001,-2.5,1.2000000000000002,-5.800000000000001,1.5,9.3,-2.7,86.5,-88.9,16
310,5266.0,-2.4000000000000004,-3.2,1.9000000000000001,-6.4,0.7000000000000001,9.9,6.0,103.2,-99.9,16
311,5282.0,-4.2,-2.5,1.5,-8.6,1.3,9.4,35.4,120.60000000000001,-108.7,16
312,5299.0,-4.1000000000000005,-2.3000000000000003,1.2000000000000002,-8.8,1.5,8.9,46.800000000000004,126.89999999999999,-106.5,16
313,5316.0,-3.6,-0.9,0.1,-8.8,2.9000000000000004,7.5,39.50000000000001,107.19999999999999,-101.50000000000001,16
314,5334.0,-3.5,0.2,-0.4,-9.1,3.8000000000000003,6.9,-7.6,54.9,-96.1,16
315,5349.0,-3.4000000000000004,0.30000000000000004,-0.30000000000000004,-9.200000000000001,3.8000000000000003,7.6000000000000005,-37.0,40.0,-97.2,16
316,5366.0,-2.9000000000000004,-0.1,2.2,-8.8,3.1,9.4,-66.0,35.699999999999996,-95.80000000000001,16
317,5382.0,-3.7,-0.2,3.3000000000000003,-9.8,2.6,10.4,-51.9,56.7,-83.10000000000001,16
318,5399.0,-4.1000000000000005,0.4,3.4000000000000004,-10.3,3.1,10.5,-32.0,75.4,-72.2,16
319,5416.0,-3.5,1.6,2.7,-9.9,4.1000000000000005,9.700000000000001,3.3000000000000007,65.5,-22.8,16
320,5432.0,-1.7000000000000002,1.2000000000000002,2.6,-8.3,3.7,9.5,-8.4,16.4,9.2,16
321,5449.0,0.5,0.5,2.3000000000000003,-6.0,3.0,9.200000000000001,-16.4,-28.200000000000003,23.5,16
322,5466.0,1.9000000000000001,0.30000000000000004,1.5,-4.6000000000000005,2.8000000000000003,8.4,-16.8,-39.2,25.8,16
323,5482.0,3.7,-0.4,-0.30000000000000004,-2.7,2.1,6.7,-23.800000000000004,-48.70000000000001,22.000000000000004,16
324,5499.0,3.9000000000000004,-0.8,-0.4,-2.4000000000000004,1.7000000000000002,6.6000000000000005,-29.300000000000004,-44.4,18.200000000000003,16
325,5516.0,3.2,-1.2000000000000002,0.5,-3.0,1.2000000000000002,7.6000000000000005,-32.300000000000004,-24.200000000000003,15.2,16
326,5532.0,2.8000000000000003,-0.9,1.2000000000000002,-3.4000000000000004,1.5,8.4,-13.000000000000002,2.1,27.5,16
327,5549.0,2.7,-0.8,1.0,-3.4000000000000004,1.6,8.200000000000001,11.4,21.0,44.5,16
328,5566.0,3.1,-0.8,0.5,-3.0,1.7000000000000002,7.7,19.5,23.800000000000004,49.800000000000004,16
329,5583.0,3.4000000000000004,-0.9,-0.30000000000000004,-2.7,1.7000000000000002,6.800000000000001,16.5,8.899999999999999,41.199999999999996,16
330,5599.0,3.7,-1.2000000000000002,-0.7000000000000001,-2.4000000000000004,1.5,6.5,3.5,-0.9000000000000001,28.200000000000003,16
331,5616.0,3.7,-1.9000000000000001,-0.7000000000000001,-2.3000000000000003,0.9,6.5,-27.099999999999998,-20.599999999999998,-4.5,16
332,5632.0,2.8000000000000003,-1.2000000000000002,0.5,-3.2,1.4000000000000001,7.7,-38.50000000000001,-38.400000000000006,-35.3,16
333,5649.0,1.7000000000000002,-0.9,1.1,-4.3,1.7000000000000002,8.4,-31.7,-40.4,-45.8,16
334,5666.0,0.4,0.1,0.9,-5.6000000000000005,2.5,8.3,11.1,-19.799999999999997,-51.4,16
335,5682.0,0.30000000000000004,0.30000000000000004,0.4,-5.6000000000000005,2.6,7.9,30.4,-9.2,-45.7,16
336,5700.0,0.5,0.30000000000000004,-1.3,-5.4,2.7,6.1000000000000005,48.6,1.8000000000000003,-34.400000000000006,16
337,5716.0,0.7000000000000001,0.4,-2.2,-5.300000000000001,2.8000000000000003,5.1000000000000005,39.9,2.1,-31.799999999999997,16
338,5732.0,0.4,0.2,-1.7000000000000002,-5.6000000000000005,2.7,5.6000000000000005,23.700000000000003,-6.1000000000000005,-35.0,16
339,5749.0,0.1,0.2,-1.0,-6.0,2.7,6.300000000000001,18.700000000000003,-9.0,-36.8,16
340,5766.0,-0.6000000000000001,0.30000000000000004,0.4,-6.6000000000000005,2.8000000000000003,7.800000000000001,20.900000000000002,-8.8,-41.4,16
341,5782.0,-0.7000000000000001,0.4,0.9,-6.800000000000001,2.9000000000000004,8.3,28.200000000000003,-3.1,-41.1,16
342,5799.0,-0.9,0.4,1.7000000000000002,-7.0,2.8000000000000003,9.0,55.5,12.5,-39.8,16
343,5816.0,-0.5,0.30000000000000004,1.1,-6.7,2.8000000000000003,8.4,84.5,19.9,-42.900000000000006,16
344,5832.0,-0.6000000000000001,0.4,-0.1,-6.800000000000001,3.0,7.0,99.9,19.5,-51.2,16
345,5849.0,-0.9,0.6000000000000001,-0.6000000000000001,-7.2,3.3000000000000003,6.4,101.0,18.1,-54.4,16
346,5868.0,-1.7000000000000002,1.4000000000000001,-0.9,-8.1,4.2,6.0,90.1,11.000000000000002,-53.10000000000001,16
347,5882.0,-2.1,1.5,-0.1,-8.5,4.4,6.7,66.3,-1.3,-44.10000000000001,16
348,5899.0,-2.1,1.5,0.30000000000000004,-8.5,4.4,7.1000000000000005,53.300000000000004,-13.100000000000001,-39.2,16
349,5919.0,-1.9000000000000001,1.3,1.7000000000000002,-8.4,4.3,8.5,34.400000000000006,-38.2,-31.400000000000002,16
350,5936.0,-1.0,1.2000000000000002,1.6,-7.4,4.1000000000000005,8.5,34.7,-58.3,-22.6,16
351,5953.0,-0.30000000000000004,1.1,0.9,-6.6000000000000005,4.1000000000000005,7.800000000000001,34.2,-60.5,-22.000000000000004,16
352,5966.0,-0.1,1.5,0.4,-6.300000000000001,4.5,7.300000000000001,18.6,-53.400000000000006,-26.000000000000004,16
353,5984.0,-2.5,1.9000000000000001,2.7,-8.6,4.800000000000001,9.8,-9.3,-5.7,-22.700000000000003,16
354,6001.0,-3.6,1.6,4.4,-9.700000000000001,4.6000000000000005,11.4,-19.0,19.700000000000003,-13.700000000000001,16
355,6016.0,-4.3,0.2,7.9,-10.5,3.1,14.9,-21.300000000000004,29.500000000000004,8.100000000000001,16
356,6037.0,-3.5,-1.8,8.9,-9.700000000000001,1.0,15.9,-2.0,-28.3,18.3,16
357,6049.0,-1.0,-2.8000000000000003,6.300000000000001,-7.1000000000000005,0.2,13.4,30.9,-94.10000000000001,13.000000000000002,16
358,6066.0,0.2,-3.0,4.2,-5.800000000000001,0.0,11.4,46.1,-108.90000000000002,8.899999999999999,16
359,6082.0,1.7000000000000002,-3.5,1.1,-4.0,-0.4,8.5,70.3,-100.6,-1.6,16
360,6099.0,1.8,-3.8000000000000003,0.30000000000000004,-3.7,-0.6000000000000001,7.7,80.0,-83.30000000000001,-7.9,16
361,6116.0,1.6,-4.1000000000000005,-0.9,-3.8000000000000003,-0.7000000000000001,6.6000000000000005,95.80000000000001,-34.800000000000004,-19.200000000000003,16
362,6132.0,1.4000000000000001,-4.2,-1.4000000000000001,-3.9000000000000004,-0.6000000000000001,6.0,105.0,8.899999999999999,-25.200000000000003,16
363,6150.0,1.4000000000000001,-4.2,-1.8,-4.0,-0.5,5.5,105.20000000000002,21.200000000000003,-26.300000000000004,16
364,6166.0,1.5,-4.4,-1.9000000000000001,-4.0,-0.4,5.2,94.5,26.6,-27.400000000000002,16
365,6182.0,1.7000000000000002,-4.5,-1.7000000000000002,-3.9000000000000004,-0.5,5.2,74.10000000000001,14.0,-27.800000000000004,16
366,6199.0,1.8,-4.6000000000000005,-1.7000000000000002,-3.8000000000000003,-0.5,5.2,67.10000000000001,8.899999999999999,-28.3,16
367,6216.0,2.4000000000000004,-4.7,-2.0,-3.3000000000000003,-0.5,4.800000000000001,55.0,4.5,-31.099999999999998,16
368,6233.0,2.6,-4.7,-2.1,-3.1,-0.4,4.6000000000000005,43.70000000000001,9.899999999999999,-36.7,16
369,6249.0,2.3000000000000003,-4.5,-1.7000000000000002,-3.5,-0.1,5.0,38.900000000000006,15.000000000000002,-38.800000000000004,16
370,6267.0,1.4000000000000001,-3.9000000000000004,-1.1,-4.5,0.5,5.5,32.0,26.5,-39.50000000000001,16
371,6283.0,1.1,-3.6,-1.1,-4.9,0.8,5.4,21.300000000000004,27.3,-33.800000000000004,16
372,6299.0,1.1,-3.4000000000000004,-1.1,-4.9,0.9,5.300000000000001,12.5,20.400000000000002,-30.3,16
373,6316.0,1.8,-3.2,-1.2000000000000002,-4.3,1.0,5.1000000000000005,-9.8,1.0,-27.700000000000003,16
374,6332.0,2.6,-3.2,-1.1,-3.5,1.0,5.300000000000001,-31.099999999999998,-18.900000000000002,-30.799999999999997,16
375,6349.0,3.0,-3.1,-1.1,-3.1,1.0,5.4,-39.0,-26.9,-35.2,16
376,6369.0,2.2,-2.2,-0.5,-4.0,1.7000000000000002,6.1000000000000005,-46.1,-28.500000000000004,-50.2,16
377,6383.0,1.3,-1.8,-0.30000000000000004,-4.800000000000001,2.0,6.300000000000001,-44.9,-19.1,-60.2,16
378,6401.0,-2.7,1.1,-0.5,-8.9,4.6000000000000005,6.300000000000001,-39.1,-3.5,-43.6,16
379,6416.0,-2.8000000000000003,2.0,-0.4,-9.1,5.4,6.300000000000001,-53.400000000000006,-14.300000000000002,-25.900000000000002,16
380,6432.0,-1.6,2.1,-0.30000000000000004,-7.800000000000001,5.300000000000001,6.6000000000000005,-103.10000000000001,-72.0,2.4000000000000004,16
381,6449.0,-0.4,1.2000000000000002,0.2,-6.6000000000000005,4.3,7.2,-144.9,-132.2,8.600000000000001,16
382,6466.0,0.0,1.4000000000000001,2.5,-5.7,4.1000000000000005,10.0,-174.80000000000004,-188.10000000000002,2.7,16
383,6482.0,0.1,1.6,3.0,-5.4,4.1000000000000005,10.700000000000001,-161.8,-185.5,5.9,16
384,6501.0,0.4,1.8,3.1,-4.6000000000000005,3.9000000000000004,11.3,-94.9,-109.10000000000001,18.4,16
385,6516.0,0.6000000000000001,2.0,1.1,-4.1000000000000005,3.9000000000000004,9.4,-34.300000000000004,-11.900000000000002,16.1,16
386,6532.0,-1.0,2.4000000000000004,1.0,-5.7,4.2,9.3,-32.300000000000004,23.400000000000002,8.0,16
387,6550.0,-2.2,1.8,3.1,-7.1000000000000005,3.5,11.4,-44.8,22.8,6.600000000000001,16
388,6566.0,-2.3000000000000003,1.5,4.3,-7.1000000000000005,3.1,12.700000000000001,-44.2,14.600000000000001,8.100000000000001,16
389,6582.0,-1.9000000000000001,1.1,5.2,-6.800000000000001,2.7,13.600000000000001,-24.8,3.6000000000000005,8.4,16
390,6600.0,-1.6,1.0,5.0,-6.5,2.5,13.3,-8.5,3.1,8.2,16
391,6616.0,-0.8,0.30000000000000004,3.5,-5.7,1.9000000000000001,11.9,21.7,14.5,3.3000000000000007,16
392,6633.0,-0.5,-0.30000000000000004,1.5,-5.4,1.3,9.8,32.300000000000004,32.5,-3.1,16
393,6649.0,-0.2,-0.5,0.9,-4.9,1.3,9.200000000000001,11.8,41.7,-5.0,16
394,6666.0,0.4,-0.4,2.0,-4.800000000000001,1.3,10.200000000000001,-3.8,43.00000000000001,-4.800000000000001,16
395,6683.0,1.7000000000000002,-0.9,4.2,-3.6,0.8,12.3,-19.200000000000003,30.599999999999998,-7.1000000000000005,16
396,6699.0,1.7000000000000002,-1.2000000000000002,4.6000000000000005,-3.6,0.5,12.700000000000001,-14.800000000000002,22.000000000000004,-12.9,16
397,6716.0,2.0,-1.9000000000000001,4.800000000000001,-3.3000000000000003,-0.30000000000000004,12.9,24.5,8.600000000000001,-31.099999999999998,16
398,6732.0,1.6,-2.0,2.9000000000000004,-3.8000000000000003,-0.4,11.0,65.2,15.2,-41.4,16
399,6749.0,1.2000000000000002,-1.9000000000000001,1.0,-4.2,-0.30000000000000004,9.0,80.0,18.8,-42.7,16
400,6766.0,1.0,-1.8,-0.9,-4.5,0.0,7.0,90.1,19.0,-35.599999999999994,16
401,6783.0,1.2000000000000002,-1.9000000000000001,-2.4000000000000004,-4.4,0.1,5.4,76.0,8.899999999999999,-21.6,16
402,6799.0,1.1,-2.2,-2.7,-4.5,-0.2,5.1000000000000005,63.4,0.6000000000000001,-14.0,16
403,6816.0,1.8,-2.4000000000000004,-3.0,-3.8000000000000003,-0.1,4.800000000000001,35.1,-14.300000000000002,-1.0,16
404,6833.0,2.0,-2.8000000000000003,-2.4000000000000004,-3.5,-0.5,5.300000000000001,12.299999999999999,-18.700000000000003,8.4,16
405,6850.0,2.1,-3.1,-1.8,-3.3000000000000003,-0.8,6.0,0.0,-17.200000000000003,15.000000000000002,16
406,6868.0,2.3000000000000003,-3.2,-1.5,-3.2,-0.8,6.300000000000001,-3.4,-15.700000000000001,17.799999999999997,16
407,6882.0,2.3000000000000003,-3.1,-1.5,-3.1,-0.8,6.4,-8.8,-16.6,23.2,16
408,6899.0,2.3000000000000003,-3.1,-1.6,-3.0,-0.7000000000000001,6.300000000000001,-13.399999999999999,-20.8,25.7,16
409,6916.0,2.6,-2.9000000000000004,-2.0,-2.7,-0.5,5.9,-28.900000000000002,-35.5,28.400000000000002,16
410,6933.0,3.2,-3.0,-1.8,-1.9000000000000001,-0.6000000000000001,6.2,-48.800000000000004,-51.0,23.0,16
411,6949.0,3.4000000000000004,-2.9000000000000004,-1.2000000000000002,-1.8,-0.6000000000000001,7.300000000000001,-55.60000000000001,-57.20000000000001,14.600000000000001,16
412,6966.0,2.5,-2.0,0.2,-2.3000000000000003,0.1,8.4,-53.2,-57.1,-9.100000000000001,16
413,6983.0,1.9000000000000001,-1.8,0.4,-2.9000000000000004,0.30000000000000004,8.700000000000001,-35.8,-43.300000000000004,-24.0,16
414,6999.0,0.5,-0.8,0.6000000000000001,-4.7,1.8,8.3,-2.1,-19.1,-31.3,16
415,7020.0,-0.30000000000000004,0.30000000000000004,-0.7000000000000001,-5.1000000000000005,2.7,7.2,13.399999999999999,-14.300000000000002,-30.4,16
416,7032.0,-0.5,0.8,-1.2000000000000002,-5.1000000000000005,3.0,7.300000000000001,13.399999999999999,-14.300000000000002,-30.4,16
417,7049.0,-0.5,1.1,-0.5,-5.1000000000000005,3.0,7.9,-1.2000000000000002,-30.000000000000004,-34.900000000000006,16
418,7066.0,-0.5,0.9,0.7000000000000001,-5.1000000000000005,2.7,9.1,3.8,-29.0,-36.6,16
419,7082.0,-0.30000000000000004,0.9,1.0,-4.9,2.7,9.5,15.5,-19.700000000000003,-38.1,16
420,7099.0,-0.5,1.1,1.0,-5.0,3.0,9.5,53.300000000000004,18.3,-45.400000000000006,16
421,7116.0,-1.5,2.0,0.7000000000000001,-6.2,3.9000000000000004,9.1,73.5,37.300000000000004,-43.300000000000004,16
422,7132.0,-2.7,2.6,0.6000000000000001,-7.5,4.7,8.9,71.8,34.2,-31.9,16
423,7149.0,-3.0,2.9000000000000004,0.5,-7.800000000000001,5.0,8.8,66.0,30.5,-21.8,16
424,7166.0,-2.5,2.9000000000000004,0.7000000000000001,-7.4,5.2,8.8,46.9,12.600000000000001,-0.1,16
425,7184.0,-1.3,2.4000000000000004,1.3,-6.2,4.800000000000001,9.4,28.3,-9.0,12.4,16
426,7199.0,-0.9,2.2,1.5,-5.800000000000001,4.6000000000000005,9.600000000000001,21.500000000000004,-21.900000000000002,13.700000000000001,16
427,7216.0,0.30000000000000004,1.6,2.0,-4.6000000000000005,4.2,10.100000000000001,17.7,-41.6,10.200000000000001,16
428,7232.0,1.3,1.2000000000000002,1.4000000000000001,-3.4000000000000004,3.8000000000000003,9.600000000000001,18.900000000000002,-49.6,-5.9,16
429,7250.0,1.0,1.2000000000000002,1.5,-3.6,3.9000000000000004,9.8,10.9,-47.2,-24.0,16
430,7267.0,0.0,1.1,2.0,-4.5,3.7,10.3,2.5,-38.1,-27.5,16
431,7282.0,-1.9000000000000001,0.9,4.9,-6.300000000000001,3.5,13.200000000000001,-11.6,-1.1,-18.8,16
432,7299.0,-2.3000000000000003,0.2,6.0,-6.7,2.8000000000000003,14.3,-12.0,16.1,-9.0,16
433,7316.0,-2.2,-1.9000000000000001,7.7,-6.7,0.7000000000000001,16.0,-2.3,18.700000000000003,2.8,16
434,7332.0,-1.1,-2.6,7.5,-5.7,0.0,15.8,23.3,-19.5,-3.5,16
435,7350.0,-0.1,-2.6,5.5,-4.7,0.0,13.8,39.0,-37.300000000000004,-7.200000000000001,16
436,7366.0,0.8,-2.8000000000000003,3.1,-3.7,-0.1,11.4,65.7,-48.300000000000004,-13.8,16
437,7385.0,1.4000000000000001,-3.2,0.7000000000000001,-2.9000000000000004,-0.30000000000000004,9.0,84.5,-33.2,-20.1,16
438,7399.0,1.4000000000000001,-3.4000000000000004,0.1,-2.9000000000000004,-0.4,8.4,91.4,-21.400000000000002,-23.800000000000004,16
439,7416.0,0.7000000000000001,-3.5,-1.2000000000000002,-3.5,-0.30000000000000004,7.1000000000000005,100.6,1.6,-27.2,16
440,7433.0,0.7000000000000001,-3.4000000000000004,-2.4000000000000004,-3.7,0.1,5.7,94.80000000000001,12.299999999999999,-21.500000000000004,16
441,7450.0,0.7000000000000001,-3.4000000000000004,-2.8000000000000003,-3.6,0.2,5.2,85.1,14.5,-18.3,16
442,7466.0,0.9,-3.7,-2.2,-3.5,0.1,5.7,56.400000000000006,12.4,-12.4,16
443,7482.0,1.1,-4.1000000000000005,-1.3,-3.3000000000000003,-0.2,6.5,31.0,2.8,-8.700000000000001,16
444,7499.0,1.4000000000000001,-4.3,-1.1,-3.1,-0.4,6.7,21.7,-5.300000000000001,-9.2,16
445,7516.0,2.1,-4.6000000000000005,-1.1,-2.4000000000000004,-0.6000000000000001,6.7,18.4,-12.100000000000001,-13.8,16
446,7533.0,2.3000000000000003,-4.7,-1.5,-2.1,-0.7000000000000001,6.300000000000001,21.0,-8.8,-21.900000000000002,16
447,7550.0,2.5,-4.7,-2.0,-1.8,-0.6000000000000001,5.4,23.0,-6.0,-25.4,16
448,7568.0,3.2,-4.6000000000000005,-3.0,-1.2000000000000002,-0.6000000000000001,4.800000000000001,24.599999999999998,5.8,-33.50000000000001,16
449,7582.0,2.8000000000000003,-4.3,-3.4000000000000004,-1.7000000000000002,-0.2,4.3,24.400000000000002,16.700000000000003,-39.0,16
450,7599.0,3.7,-4.800000000000001,-2.9000000000000004,-0.9,-0.8,4.7,24.7,45.6,-45.400000000000006,16
451,7617.0,3.5,-4.6000000000000005,-2.2,-1.3,-0.6000000000000001,5.300000000000001,24.5,53.300000000000004,-65.10000000000001,16
452,7633.0,2.9000000000000004,-3.8000000000000003,-1.3,-2.1,0.1,6.1000000000000005,27.6,44.8,-90.30000000000001,16
453,7649.0,2.4000000000000004,-3.3000000000000003,-1.4000000000000001,-3.4000000000000004,0.6000000000000001,4.9,38.400000000000006,40.2,-107.4,16
454,7666.0,1.8,-2.7,-2.6,-3.6,1.1,4.6000000000000005,38.60000000000001,38.1,-109.30000000000001,16
455,7682.0,1.7000000000000002,-2.2,-3.1,-3.9000000000000004,1.5,4.1000000000000005,36.7,50.0,-111.20000000000002,16
456,7699.0,1.0,-2.5,-2.7,-4.800000000000001,1.1,4.3,25.1,74.89999999999999,-112.0,16
457,7716.0,0.30000000000000004,-2.6,-0.4,-5.9,0.8,6.4,7.200000000000001,82.50000000000001,-114.2,16
458,7733.0,-1.9000000000000001,-1.7000000000000002,1.6,-8.4,1.5,8.3,3.1,81.3,-114.70000000000002,16
459,7749.0,-2.7,-2.0,3.0,-9.3,1.0,9.5,1.8000000000000003,53.0,-110.5,16
460,7766.0,-1.9000000000000001,-2.1,4.0,-8.5,0.9,9.5,-0.4,-9.700000000000001,-111.20000000000002,16
461,7782.0,-1.3,-2.0,2.1,-8.5,1.0,7.2,1.9,-21.8,-117.60000000000001,16
462,7799.0,-1.3,-1.4000000000000001,0.2,-8.200000000000001,1.0,6.7,2.0,-17.1,-119.49999999999999,16
463,7816.0,-0.7000000000000001,-2.3000000000000003,-2.3000000000000003,-7.7,-0.2,4.3,-5.500000000000001,11.8,-121.4,16
464,7833.0,-1.2000000000000002,-2.5,-2.1,-8.3,-0.7000000000000001,4.4,-37.1,48.6,-131.6,16
465,7850.0,-1.5,-2.9000000000000004,-1.4000000000000001,-9.5,-1.8,5.6000000000000005,-47.80000000000001,88.50000000000001,-139.4,16
466,7866.0,-2.3000000000000003,-3.0,-0.30000000000000004,-9.8,-1.9000000000000001,6.0,-43.800000000000004,114.10000000000001,-136.6,16
467,7882.0,-1.9000000000000001,-3.8000000000000003,-1.3,-9.700000000000001,-3.1,4.6000000000000005,-33.1,154.8,-128.0,16
468,7899.0,-1.4000000000000001,-3.9000000000000004,-1.8,-9.3,-3.4000000000000004,4.0,-39.8,163.20000000000002,-124.8,16
469,7917.0,0.1,-4.3,-2.4000000000000004,-8.1,-4.3,2.9000000000000004,-85.69999999999999,141.4,-125.10000000000001,16
470,7932.0,0.8,-4.800000000000001,-0.6000000000000001,-7.7,-5.300000000000001,4.3,-157.5,85.5,-134.70000000000002,16
471,7949.0,0.6000000000000001,-5.6000000000000005,2.1,-7.9,-6.5,6.9,-186.5,59.40000000000001,-140.70000000000002,16
472,7966.0,0.9,-5.5,4.5,-7.6000000000000005,-7.1000000000000005,9.0,-210.3,25.900000000000002,-154.00000000000003,16
473,7982.0,1.0,-4.800000000000001,5.6000000000000005,-7.5,-7.300000000000001,9.9,-194.5,23.2,-174.3,16
474,8001.0,0.9,-4.0,5.9,-7.5,-6.800000000000001,10.100000000000001,-178.50000000000003,33.400000000000006,-183.6,16
475,8016.0,1.1,-3.2,5.9,-7.1000000000000005,-6.9,9.8,-124.39999999999999,75.8,-201.8,16
476,8034.0,1.0,-2.3000000000000003,6.0,-7.1000000000000005,-6.6000000000000005,9.5,-83.60000000000001,111.4,-214.39999999999998,16
477,8049.0,0.7000000000000001,-1.8,6.0,-7.300000000000001,-6.5,9.3,-62.199999999999996,125.00000000000001,-219.9,16
478,8065.0,-0.2,-1.5,6.5,-7.9,-6.800000000000001,9.3,-16.6,150.3,-229.70000000000002,16
479,8082.0,-0.6000000000000001,-1.2000000000000002,7.0,-8.0,-7.1000000000000005,9.4,30.4,159.9,-232.1,16
480,8099.0,-0.7000000000000001,-0.9,7.1000000000000005,-7.9,-7.2,9.3,50.8,159.0,-232.2,16
481,8116.0,-0.9,-0.6000000000000001,7.5,-7.2,-7.5,9.5,93.49999999999999,153.70000000000002,-236.00000000000003,16
482,8134.0,0.1,-0.6000000000000001,6.800000000000001,-6.2,-7.9,8.700000000000001,153.0,161.10000000000002,-252.10000000000002,16
483,8150.0,-0.1,-0.4,5.6000000000000005,-6.300000000000001,-7.7,6.9,221.60000000000002,192.0,-268.1,16
484,8166.0,-1.4000000000000001,0.4,3.1,-6.9,-7.5,5.2,257.3,209.4,-270.0,16
485,8182.0,-2.0,0.6000000000000001,2.2,-7.2,-7.5,4.5,286.4,225.5,-266.1,16
486,8203.0,-3.4000000000000004,1.5,-1.1,-7.800000000000001,-6.7,1.9000000000000001,331.3,229.10000000000002,-224.40000000000003,16
487,8218.0,-3.6,1.5,-1.4000000000000001,-7.6000000000000005,-6.6000000000000005,1.4000000000000001,331.0,216.7,-207.10000000000002,16
488,8232.0,-3.7,1.9000000000000001,-3.1,-7.6000000000000005,-6.2,0.8,312.0,180.10000000000002,-176.20000000000002,16
489,8249.0,-3.6,2.3000000000000003,-3.8000000000000003,-7.4,-5.7,0.4,296.1,160.4,-162.10000000000002,16
490,8265.0,-3.5,2.7,-4.7,-7.1000000000000005,-5.0,0.2,257.40000000000003,128.3,-134.10000000000002,16
491,8282.0,-3.5,2.7,-5.0,-7.1000000000000005,-4.9,0.1,238.29999999999998,118.40000000000002,-120.2,16
492,8299.0,-3.6,2.4000000000000004,-5.7,-7.1000000000000005,-4.9,-0.2,193.8,111.80000000000001,-84.1,16
493,8318.0,-3.7,2.1,-6.0,-7.2,-5.0,-0.2,156.3,117.30000000000001,-54.6,16
494,8333.0,-3.4000000000000004,1.6,-5.4,-7.0,-5.2,0.6000000000000001,112.9,114.40000000000002,-26.000000000000004,16
495,8352.0,-3.5,1.0,-4.3,-7.2,-6.2,2.6,68.4,96.0,1.4,16
496,8368.0,-3.1,-0.8,-2.7,-7.1000000000000005,-7.300000000000001,3.4000000000000004,52.60000000000001,82.39999999999999,13.3,16
497,8383.0,-2.8000000000000003,-1.5,-2.4000000000000004,-6.6000000000000005,-9.0,4.2,34.800000000000004,58.0,30.9,16
498,8399.0,-2.2,-2.9000000000000004,-2.1,-6.4,-9.3,4.1000000000000005,31.0,51.300000000000004,36.6,16
499,8416.0,-1.6,-3.9000000000000004,-3.0,-6.0,-10.100000000000001,3.1,25.4,42.2,45.400000000000006,16
500,8432.0,-0.6000000000000001,-4.2,-4.5,-5.2,-10.3,1.7000000000000002,10.200000000000001,34.800000000000004,54.300000000000004,16
501,8449.0,0.0,-4.5,-4.800000000000001,-4.7,-10.5,1.3,-4.9,31.7,58.900000000000006,16
502,8466.0,1.2000000000000002,-5.5,-4.7,-3.7,-11.4,1.3,-39.9,20.7,62.7,16
503,8483.0,2.3000000000000003,-6.800000000000001,-2.9000000000000004,-2.7,-12.700000000000001,3.0,-65.7,12.299999999999999,47.80000000000001,16
504,8499.0,2.4000000000000004,-7.1000000000000005,-2.3000000000000003,-2.7,-13.100000000000001,3.6,-67.2,13.5,32.400000000000006,16
505,8518.0,1.5,-7.6000000000000005,-1.6,-3.7,-13.600000000000001,4.1000000000000005,-49.800000000000004,35.9,-4.800000000000001,16
506,8533.0,-0.1,-5.7,-2.5,-5.300000000000001,-11.9,3.0,-28.1,70.2,-45.5,16
507,8549.0,-1.4000000000000001,-4.1000000000000005,-2.8000000000000003,-6.7,-10.3,2.6,-26.9,91.10000000000001,-66.0,16
508,8568.0,-1.9000000000000001,-2.2,-2.6,-7.2,-8.6,2.6,-47.80000000000001,110.4,-72.10000000000001,16
509,8583.0,-2.1,-1.3,-0.8,-7.5,-8.0,4.1000000000000005,-82.10000000000001,113.89999999999999,-68.4,16
510,8599.0,-2.2,-1.2000000000000002,0.2,-7.6000000000000005,-8.0,4.9,-95.20000000000002,109.8,-64.2,16
511,8616.0,-2.5,-1.4000000000000001,1.6,-8.1,-9.0,6.5,-103.60000000000001,100.5,-51.50000000000001,16
512,8639.0,-2.6,-1.9000000000000001,3.5,-8.0,-9.200000000000001,7.2,-93.3,82.3,-40.6,16
513,8655.0,-2.5,-1.0,2.8000000000000003,-7.800000000000001,-8.5,6.1000000000000005,-83.4,61.300000000000004,-37.0,16
514,8666.0,-2.8000000000000003,-0.1,1.8,-8.200000000000001,-7.7,5.0,-84.9,52.2,-37.0,16
515,8683.0,-3.5,1.0,1.1,-8.8,-6.7,3.9000000000000004,-97.40000000000002,40.5,-31.0,16
516,8702.0,-4.0,1.4000000000000001,0.5,-9.3,-6.4,3.0,-115.50000000000003,34.400000000000006,-12.8,16
517,8716.0,-4.0,1.4000000000000001,0.30000000000000004,-9.3,-6.6000000000000005,2.7,-126.10000000000001,31.7,-0.9000000000000001,16
518,8732.0,-3.6,0.7000000000000001,0.2,-8.9,-7.300000000000001,2.1,-155.3,25.5,21.300000000000004,16
519,8751.0,-3.4000000000000004,0.4,1.3,-8.8,-7.7,2.7,-192.29999999999998,11.5,36.300000000000004,16
520,8766.0,-3.3000000000000003,0.4,2.4000000000000004,-8.700000000000001,-7.6000000000000005,3.5,-208.9,2.5,42.5,16
521,8783.0,-3.2,0.5,3.1,-8.700000000000001,-7.6000000000000005,4.0,-221.50000000000003,-7.8,49.1,16
522,8801.0,-2.5,0.9,5.4,-8.200000000000001,-7.0,5.300000000000001,-226.70000000000005,-54.1,77.3,16
523,8817.0,-1.9000000000000001,1.1,5.7,-7.800000000000001,-6.800000000000001,5.300000000000001,-218.20000000000002,-63.599999999999994,86.00000000000001,16
524,8833.0,-0.30000000000000004,1.0,5.4,-6.4,-6.6000000000000005,4.6000000000000005,-194.00000000000003,-62.6,96.7,16
525,8853.0,1.2000000000000002,0.8,5.2,-5.2,-6.6000000000000005,4.0,-168.9,-39.8,96.30000000000001,16
526,8866.0,1.6,0.7000000000000001,5.2,-4.9,-6.6000000000000005,3.9000000000000004,-156.8,-23.099999999999998,92.3,16
527,8883.0,1.8,0.6000000000000001,5.5,-4.800000000000001,-6.5,4.0,-145.10000000000002,-5.8,87.3,16
528,8900.0,2.0,0.4,6.6000000000000005,-4.800000000000001,-6.4,4.800000000000001,-119.30000000000003,22.1,75.9,16
529,8916.0,2.2,0.2,8.3,-4.800000000000001,-6.4,6.2,-88.9,24.400000000000002,61.7,16
530,8935.0,2.8000000000000003,0.4,8.8,-4.3,-5.9,6.5,-50.1,7.699999999999999,46.199999999999996,16
531,8953.0,3.5,0.6000000000000001,7.800000000000001,-3.7,-5.6000000000000005,5.4,-13.399999999999999,-6.1000000000000005,31.7,16
532,8966.0,3.6,0.6000000000000001,7.1000000000000005,-3.6,-5.5,4.7,1.3,-5.9,23.800000000000004,16
533,8982.0,3.2,0.6000000000000001,6.300000000000001,-4.0,-5.5,3.9000000000000004,24.599999999999998,4.5,10.700000000000001,16
534,9000.0,3.0,0.6000000000000001,6.0,-4.3,-5.6000000000000005,3.7,34.0,10.4,6.300000000000001,16
535,9016.0,2.4000000000000004,0.0,5.4,-4.9,-6.1000000000000005,3.1,46.300000000000004,18.6,2.1,16
536,9036.0,2.1,-1.2000000000000002,5.4,-5.2,-7.300000000000001,3.1,49.0,12.8,-2.3,16
537,9051.0,1.8,-2.6,6.0,-5.4,-8.9,3.8000000000000003,48.10000000000001,-7.6,-14.700000000000001,16
538,9066.0,1.6,-3.3000000000000003,6.2,-5.6000000000000005,-9.600000000000001,4.1000000000000005,50.2,-19.6,-24.5,16
539,9082.0,1.3,-4.0,5.800000000000001,-5.9,-10.4,3.9000000000000004,63.70000000000001,-47.2,-53.10000000000001,16
540,9099.0,0.8,-4.1000000000000005,5.4,-6.4,-10.600000000000001,3.6,69.60000000000001,-55.0,-65.4,16
541,9116.0,-0.4,-3.6,4.4,-7.4,-10.3,2.9000000000000004,79.5,-61.39999999999999,-82.39999999999999,16
542,9133.0,-1.8,-3.0,3.0,-8.6,-9.9,1.8,84.3,-58.900000000000006,-84.3,16
543,9157.0,-2.9000000000000004,-2.8000000000000003,1.6,-9.600000000000001,-10.0,0.8,74.7,-57.9,-77.1,16
544,9166.0,-3.4000000000000004,-2.8000000000000003,1.0,-9.9,-10.0,0.4,61.8,-60.8,-72.10000000000001,16
545,9182.0,-3.7,-2.7,1.1,-10.100000000000001,-10.100000000000001,0.7000000000000001,22.5,-75.3,-62.199999999999996,16
546,9200.0,-3.8000000000000003,-2.8000000000000003,1.5,-10.100000000000001,-10.3,1.3,1.5,-88.60000000000001,-59.5,16
547,9217.0,-4.1000000000000005,-3.4000000000000004,2.7,-10.3,-11.0,2.7,-31.3,-121.80000000000001,-59.300000000000004,16
548,9232.0,-4.7,-2.9000000000000004,4.0,-10.700000000000001,-10.700000000000001,4.1000000000000005,-37.50000000000001,-158.00000000000003,-63.500000000000014,16
549,9252.0,-4.6000000000000005,-0.9,3.4000000000000004,-10.4,-8.8,3.8000000000000003,-10.4,-179.6,-63.0,16
550,9266.0,-4.1000000000000005,0.2,2.0,-9.8,-7.800000000000001,2.5,9.2,-181.50000000000003,-60.2,16
551,9283.0,-3.5,2.0,-0.1,-9.0,-6.1000000000000005,0.8,49.1,-171.10000000000002,-50.5,16
552,9299.0,-3.2,2.4000000000000004,-1.3,-8.6,-5.7,-0.1,67.8,-158.50000000000003,-40.0,16
553,9316.0,-1.2000000000000002,2.9000000000000004,-4.2,-6.4,-5.2,-2.5,91.10000000000001,-122.60000000000001,-18.8,16
554,9332.0,0.1,2.7,-6.800000000000001,-5.1000000000000005,-5.4,-4.6000000000000005,74.80000000000001,-81.4,-9.2,16
555,9350.0,0.2,2.6,-7.5,-4.800000000000001,-5.6000000000000005,-5.1000000000000005,32.6,-51.70000000000001,-8.5,16
556,9366.0,0.0,2.3000000000000003,-7.1000000000000005,-5.0,-5.7,-4.5,8.4,-37.300000000000004,-8.100000000000001,16
557,9382.0,-0.2,2.2,-6.6000000000000005,-5.1000000000000005,-5.800000000000001,-4.0,-14.5,-25.900000000000002,-7.0,16
558,9399.0,-0.5,2.2,-4.4,-5.5,-5.800000000000001,-1.9000000000000001,-50.5,-15.299999999999999,-5.300000000000001,16
559,9416.0,-0.6000000000000001,2.4000000000000004,-2.4000000000000004,-5.5,-5.7,0.0,-70.3,-24.200000000000003,0.2,16
560,9433.0,-0.4,2.7,-1.2000000000000002,-5.300000000000001,-5.5,1.1,-75.9,-41.0,6.300000000000001,16
561,9449.0,-0.6000000000000001,2.7,-0.6000000000000001,-5.5,-5.5,1.6,-71.39999999999999,-50.2,13.399999999999999,16
562,9465.0,-0.6000000000000001,2.5,-0.6000000000000001,-5.5,-5.800000000000001,1.5,-67.10000000000001,-49.1,18.1,16
563,9482.0,-0.6000000000000001,2.3000000000000003,-0.7000000000000001,-5.5,-5.9,1.4000000000000001,-62.800000000000004,-45.9,22.9,16
564,9499.0,-0.4,1.8,-1.1,-5.4,-6.5,0.8,-59.40000000000001,-36.7,31.2,16
565,9516.0,0.0,1.1,-1.2000000000000002,-5.0,-7.2,0.6000000000000001,-63.599999999999994,-29.300000000000004,35.699999999999996,16
566,9532.0,0.6000000000000001,0.6000000000000001,-0.1,-4.5,-7.7,1.5,-70.3,-29.800000000000004,31.6,16
567,9549.0,0.7000000000000001,0.4,0.6000000000000001,-4.5,-7.800000000000001,2.2,-70.0,-34.50000000000001,26.700000000000003,16
568,9566.0,0.5,0.6000000000000001,1.4000000000000001,-4.7,-7.6000000000000005,2.9000000000000004,-60.1,-45.0,19.0,16
569,9586.0,0.5,0.6000000000000001,1.1,-4.7,-7.5,2.4000000000000004,-41.6,-48.2,19.799999999999997,16
570,9599.0,0.6000000000000001,0.6000000000000001,0.8,-4.7,-7.5,2.2,-30.9,-43.70000000000001,21.7,16
571,9616.0,0.6000000000000001,0.5,0.2,-4.6000000000000005,-7.6000000000000005,1.6,-25.300000000000004,-36.7,23.5,16
572,9633.0,0.6000000000000001,0.30000000000000004,0.0,-4.7,-7.800000000000001,1.4000000000000001,-25.1,-32.1,24.7,16
573,9652.0,0.6000000000000001,0.1,0.30000000000000004,-4.7,-8.0,1.7000000000000002,-25.6,-29.1,24.200000000000003,16
574,9667.0,0.6000000000000001,0.0,0.5,-4.800000000000001,-8.1,1.8,-24.5,-28.500000000000004,23.099999999999998,16
575,9682.0,0.30000000000000004,-0.30000000000000004,0.7000000000000001,-5.1000000000000005,-8.3,2.0,-20.2,-25.8,19.9,16
576,9699.0,0.1,-0.5,0.6000000000000001,-5.300000000000001,-8.5,2.0,-18.0,-23.5,18.4,16
577,9715.0,-0.5,-1.1,0.4,-6.0,-9.1,1.8,-16.900000000000002,-19.300000000000004,17.200000000000003,16
578,9732.0,-1.1,-1.3,0.5,-6.6000000000000005,-9.3,1.8,-17.400000000000002,-9.899999999999999,18.4,16
579,9750.0,-1.5,-1.5,0.5,-7.2,-9.5,1.9000000000000001,-16.6,-3.6000000000000005,18.200000000000003,16
580,9767.0,-2.1,-1.6,0.8,-7.7,-9.600000000000001,2.1,-14.600000000000001,4.800000000000001,13.000000000000002,16
581,9782.0,-3.5,-1.7000000000000002,1.0,-9.1,-9.700000000000001,2.2,-7.699999999999999,5.2,3.1,16
582,9799.0,-4.2,-1.8,0.9,-9.8,-9.700000000000001,2.1,-1.8000000000000003,3.1,0.1,16
583,9816.0,-5.2,-1.7000000000000002,0.1,-10.8,-9.600000000000001,1.3,12.7,2.8,-1.2000000000000002,16
584,9832.0,-6.300000000000001,-1.4000000000000001,-1.4000000000000001,-12.0,-9.3,-0.2,24.0,13.900000000000002,0.8,16
585,9851.0,-6.800000000000001,0.2,-2.7,-12.4,-7.7,-1.5,17.6,46.9,22.4,16
586,9866.0,-5.9,0.9,-3.2,-11.600000000000001,-6.9,-1.9000000000000001,8.5,58.3,37.0,16
587,9882.0,-4.4,1.0,-2.7,-10.200000000000001,-6.800000000000001,-1.6,-22.000000000000004,61.10000000000001,64.2,16
588,9899.0,-3.6,0.8,-2.2,-9.600000000000001,-6.9,-1.2000000000000002,-38.2,52.1,75.00000000000001,16
589,9916.0,-1.7000000000000002,0.1,-0.9,-7.9,-7.5,-0.1,-64.50000000000001,24.5,90.30000000000001,16
590,9932.0,0.0,-0.2,-0.1,-6.4,-7.5,0.5,-75.60000000000001,1.6,95.0,16
591,9949.0,0.4,-0.4,0.0,-6.4,-7.800000000000001,0.4,-75.9,-4.800000000000001,94.6,16
592,9965.0,-0.30000000000000004,-0.7000000000000001,0.1,-7.1000000000000005,-7.800000000000001,0.4,-72.4,0.6000000000000001,92.60000000000001,16
593,9982.0,-0.5,-0.7000000000000001,0.2,-7.300000000000001,-7.7,0.5,-69.5,10.600000000000001,93.8,16
594,9999.0,-1.0,-0.6000000000000001,0.8,-8.1,-7.300000000000001,0.8,-61.39999999999999,39.0,102.5,16
595,10016.0,-1.0,-0.9,2.0,-8.3,-7.300000000000001,1.7000000000000002,-54.50000000000001,64.30000000000001,111.30000000000001,16
596,10038.0,-1.0,-1.3,3.3000000000000003,-8.6,-7.4,2.8000000000000003,-46.1,69.00000000000001,113.1,16
597,10055.0,-0.9,-1.7000000000000002,3.9000000000000004,-8.6,-7.6000000000000005,3.1,-32.9,65.4,113.5,16
598,10065.0,-0.5,-1.8,3.7,-8.5,-7.5,2.8000000000000003,-26.799999999999997,61.7,112.5,16
599,10083.0,0.2,-1.6,3.6,-7.9,-7.0,2.5,-21.300000000000004,50.400000000000006,110.5,16
600,10099.0,0.6000000000000001,-1.5,3.6,-7.7,-6.800000000000001,2.4000000000000004,-21.8,43.70000000000001,109.60000000000001,16
601,10115.0,1.2000000000000002,-1.5,3.5,-7.0,-6.4,2.1,-30.5,24.5,105.7,16
602,10133.0,1.8,-1.7000000000000002,3.7,-6.800000000000001,-6.300000000000001,2.2,-38.50000000000001,9.8,101.80000000000001,16
603,10152.0,2.2,-2.0,3.9000000000000004,-6.5,-6.2,2.4000000000000004,-40.2,1.5,97.50000000000001,16
604,10166.0,2.7,-2.2,4.1000000000000005,-6.1000000000000005,-6.300000000000001,2.5,-38.800000000000004,-1.2000000000000002,94.7,16
605,10183.0,3.8000000000000003,-2.5,4.4,-5.1000000000000005,-6.300000000000001,2.8000000000000003,-32.400000000000006,-8.700000000000001,83.2,16
606,10199.0,4.1000000000000005,-2.5,4.5,-4.9,-6.2,2.9000000000000004,-28.1,-13.399999999999999,75.1,16
607,10218.0,4.5,-2.5,4.5,-4.6000000000000005,-6.0,2.9000000000000004,-16.6,-19.1,57.9,16
608,10232.0,4.6000000000000005,-2.4000000000000004,4.4,-4.5,-5.7,2.9000000000000004,-1.9,-17.5,43.50000000000001,16
609,10251.0,4.800000000000001,-2.2,4.3,-4.4,-5.300000000000001,2.8000000000000003,15.8,-9.4,32.1,16
610,10267.0,4.800000000000001,-2.1,4.0,-4.4,-5.2,2.6,24.5,-4.6,26.700000000000003,16
611,10282.0,4.800000000000001,-2.1,3.8000000000000003,-4.6000000000000005,-5.1000000000000005,2.0,37.7,1.9,15.6,16
612,10299.0,4.5,-2.2,3.2,-4.7,-5.2,1.8,41.6,2.7,10.0,16
613,10315.0,4.2,-2.5,2.8000000000000003,-5.1000000000000005,-5.5,1.4000000000000001,44.7,0.7,-1.8000000000000003,16
614,10333.0,3.8000000000000003,-2.9000000000000004,2.2,-5.5,-5.9,0.8,42.5,-4.7,-15.299999999999999,16
615,10349.0,3.0,-3.0,1.7000000000000002,-6.2,-6.1000000000000005,0.4,38.1,-7.6,-22.9,16
616,10367.0,2.2,-3.1,1.6,-7.0,-6.2,0.4,23.3,-12.100000000000001,-32.1,16
617,10383.0,1.8,-3.5,1.6,-7.4,-6.800000000000001,0.4,0.9000000000000001,-25.900000000000002,-39.0,16
618,10399.0,1.6,-3.7,1.7000000000000002,-7.5,-7.1000000000000005,0.6000000000000001,-9.2,-34.800000000000004,-44.9,16
619,10416.0,1.3,-4.0,1.8,-7.800000000000001,-7.5,0.8,-26.300000000000004,-50.5,-62.4,16
620,10432.0,0.5,-4.0,2.1,-8.5,-7.7,1.2000000000000002,-36.0,-57.699999999999996,-83.10000000000001,16
621,10453.0,-0.7000000000000001,-3.6,2.2,-9.600000000000001,-7.7,1.5,-36.6,-55.5,-101.80000000000001,16
622,10467.0,-2.1,-3.2,2.1,-11.0,-7.300000000000001,1.4000000000000001,-33.9,-49.4,-107.4,16
623,10482.0,-3.9000000000000004,-2.9000000000000004,1.6,-12.600000000000001,-7.4,1.0,-27.3,-30.000000000000004,-104.2,16
624,10500.0,-4.4,-2.9000000000000004,1.5,-13.0,-7.6000000000000005,0.9,-28.0,-21.500000000000004,-97.89999999999999,16
625,10516.0,-4.1000000000000005,-3.1,2.2,-12.600000000000001,-8.0,1.6,-34.0,-19.799999999999997,-90.9,16
626,10532.0,-3.4000000000000004,-2.7,3.2,-11.700000000000001,-7.9,2.7,-33.400000000000006,-40.4,-100.0,16
627,10552.0,-3.4000000000000004,-1.0,3.5,-11.600000000000001,-6.5,3.1,-12.600000000000001,-62.300000000000004,-117.4,16
628,10566.0,-4.3,0.6000000000000001,2.9000000000000004,-12.3,-5.0,2.5,7.1000000000000005,-61.0,-123.00000000000001,16
629,10582.0,-4.7,1.5,2.4000000000000004,-12.600000000000001,-4.4,2.1,31.0,-51.4,-123.1,16
630,10599.0,-5.300000000000001,3.5,0.1,-13.0,-2.7,0.0,79.39999999999999,-18.8,-106.80000000000001,16
631,10616.0,-4.7,4.9,-2.1,-12.200000000000001,-1.5,-1.9000000000000001,101.4,11.900000000000002,-77.9,16
632,10632.0,-3.8000000000000003,5.0,-3.8000000000000003,-11.100000000000001,-1.5,-3.5,92.50000000000001,28.0,-49.699999999999996,16
633,10649.0,-3.6,4.800000000000001,-4.1000000000000005,-10.8,-1.8,-3.7,68.0,30.799999999999997,-32.9,16
634,10668.0,-3.3000000000000003,3.7,-3.2,-10.4,-3.0,-2.7,29.900000000000006,24.7,-13.200000000000003,16
635,10682.0,-3.1,3.3000000000000003,-2.8000000000000003,-10.200000000000001,-3.4000000000000004,-2.3000000000000003,14.700000000000001,19.700000000000003,-5.4,16
636,10699.0,-2.3000000000000003,2.4000000000000004,-1.4000000000000001,-9.4,-4.3,-1.0,-4.4,7.8,5.300000000000001,16
637,10715.0,-1.2000000000000002,2.3000000000000003,-0.30000000000000004,-8.3,-4.4,0.1,-7.300000000000001,1.0,11.900000000000002,16
638,10733.0,-0.1,2.3000000000000003,0.2,-7.300000000000001,-4.4,0.6000000000000001,-0.5,6.8,16.6,16
639,10749.0,0.4,2.2,0.4,-6.7,-4.4,0.8,4.4,13.100000000000001,17.799999999999997,16
640,10766.0,0.9,2.0,0.7000000000000001,-6.300000000000001,-4.6000000000000005,1.1,14.600000000000001,28.200000000000003,17.9,16
641,10782.0,0.9,1.8,0.9,-6.4,-4.7,1.2000000000000002,24.200000000000003,40.800000000000004,17.6,16
642,10800.0,0.8,1.7000000000000002,0.9,-6.5,-4.9,1.2000000000000002,27.9,44.10000000000001,17.5,16
643,10818.0,0.8,1.4000000000000001,1.1,-6.6000000000000005,-5.1000000000000005,1.4000000000000001,32.0,43.800000000000004,16.8,16
644,10832.0,0.9,1.1,1.1,-6.5,-5.300000000000001,1.3,33.2,38.400000000000006,14.700000000000001,16
645,10857.0,0.5,0.8,1.1,-6.9,-5.6000000000000005,1.3,32.1,32.8,11.700000000000001,16
646,10867.0,0.30000000000000004,0.7000000000000001,1.1,-7.2,-5.7,1.3,30.9,32.400000000000006,10.9,16
647,10882.0,-0.1,0.6000000000000001,1.4000000000000001,-7.5,-5.7,1.6,28.800000000000004,37.50000000000001,12.5,16
648,10899.0,0.0,0.6000000000000001,1.5,-7.5,-5.7,1.7000000000000002,29.1,42.5,15.2,16
649,10917.0,0.1,0.5,1.6,-7.4,-5.800000000000001,1.7000000000000002,30.4,49.199999999999996,19.400000000000002,16
650,10932.0,0.2,0.5,1.8,-7.4,-5.7,1.8,28.1,40.5,19.5,16
651,10949.0,0.30000000000000004,0.5,1.8,-7.300000000000001,-5.7,1.8,26.6,31.2,18.6,16
652,10965.0,0.6000000000000001,0.6000000000000001,1.4000000000000001,-7.1000000000000005,-5.6000000000000005,1.5,23.099999999999998,10.700000000000001,16.3,16
653,10982.0,1.1,0.8,1.0,-6.6000000000000005,-5.300000000000001,1.1,18.8,-5.1000000000000005,13.399999999999999,16
654,10999.0,1.3,0.9,1.0,-6.4,-5.2,1.1,18.3,-8.100000000000001,11.5,16
655,11016.0,1.2000000000000002,1.2000000000000002,0.9,-6.5,-4.800000000000001,1.1,24.0,-1.0,8.700000000000001,16
656,11032.0,0.8,1.1,0.9,-7.0,-5.0,1.1,37.50000000000001,18.0,9.4,16
657,11051.0,0.5,1.0,0.5,-7.300000000000001,-5.0,0.8,48.300000000000004,30.9,7.500000000000001,16
658,11068.0,0.0,0.9,0.30000000000000004,-7.7,-5.1000000000000005,0.6000000000000001,50.1,31.7,4.6,16
659,11082.0,-0.30000000000000004,0.9,0.2,-8.1,-5.1000000000000005,0.5,44.9,22.5,-4.0,16
660,11099.0,-0.5,0.8,0.30000000000000004,-8.3,-5.2,0.6000000000000001,40.300000000000004,14.900000000000002,-8.899999999999999,16
661,11115.0,-1.6,0.30000000000000004,0.30000000000000004,-9.4,-5.7,0.6000000000000001,34.50000000000001,4.7,-17.300000000000004,16
662,11134.0,-3.1,-1.3,-0.1,-10.8,-7.300000000000001,0.30000000000000004,34.1,9.700000000000001,-22.4,16
663,11149.0,-5.4,-1.9000000000000001,0.0,-13.100000000000001,-8.0,0.4,41.300000000000004,37.300000000000004,-33.0,16
664,11165.0,-6.6000000000000005,-0.9,0.2,-14.3,-7.0,0.6000000000000001,54.9,69.3,-40.300000000000004,16
665,11182.0,-7.2,1.4000000000000001,0.9,-14.8,-4.800000000000001,1.2000000000000002,73.2,108.3,-34.1,16
666,11199.0,-7.300000000000001,2.3000000000000003,1.0,-14.8,-4.0,1.3,79.6,120.3,-21.0,16
667,11216.0,-7.0,3.0,1.2000000000000002,-14.5,-3.3000000000000003,1.3,79.8,125.4,18.6,16
668,11232.0,-5.9,1.7000000000000002,1.2000000000000002,-13.4,-4.5,1.1,65.7,107.9,59.1,16
669,11249.0,-4.9,0.9,1.1,-11.9,-5.800000000000001,1.0,55.400000000000006,94.9,73.5,16
670,11266.0,-2.9000000000000004,-0.5,1.3,-10.700000000000001,-6.4,1.0,32.5,70.7,89.6,16
671,11283.0,-2.2,-0.8,1.4000000000000001,-10.100000000000001,-6.6000000000000005,1.1,21.7,62.4,91.4,16
672,11299.0,-1.1,-1.6,1.5,-9.200000000000001,-7.1000000000000005,1.1,6.0,59.00000000000001,84.2,16
673,11316.0,-0.4,-1.1,2.2,-8.6,-6.5,1.6,-2.2,68.2,69.10000000000001,16
674,11332.0,0.0,-0.30000000000000004,3.3000000000000003,-8.3,-5.5,2.5,-1.2000000000000002,79.3,59.60000000000001,16
675,11349.0,0.2,0.1,3.8000000000000003,-8.1,-5.0,2.8000000000000003,2.0,82.39999999999999,58.3,16
676,11368.0,0.8,0.30000000000000004,4.4,-7.6000000000000005,-4.5,3.3000000000000003,10.4,79.7,59.5,16
677,11382.0,1.1,0.30000000000000004,4.6000000000000005,-7.4,-4.5,3.3000000000000003,15.5,75.3,60.900000000000006,16
678,11399.0,1.7000000000000002,0.0,4.5,-6.9,-4.6000000000000005,3.0,26.300000000000004,66.7,62.4,16
679,11416.0,2.2,-0.30000000000000004,4.2,-6.4,-4.800000000000001,2.6,33.50000000000001,63.2,60.2,16
680,11434.0,2.8000000000000003,-0.30000000000000004,4.2,-5.9,-4.7,2.5,35.699999999999996,60.00000000000001,52.00000000000001,16
681,11449.0,2.9000000000000004,-0.30000000000000004,4.2,-5.800000000000001,-4.6000000000000005,2.4000000000000004,35.5,58.400000000000006,48.2,16
682,11466.0,2.9000000000000004,-0.5,4.2,-5.800000000000001,-4.6000000000000005,2.3000000000000003,34.400000000000006,55.3,42.1,16
683,11482.0,2.9000000000000004,-0.6000000000000001,4.2,-5.800000000000001,-4.7,2.3000000000000003,33.50000000000001,52.7,39.699999999999996,16
684,11499.0,2.9000000000000004,-0.6000000000000001,4.2,-5.800000000000001,-4.7,2.3000000000000003,33.50000000000001,52.7,39.699999999999996,16
685,11515.0,2.9000000000000004,-0.6000000000000001,4.2,-5.800000000000001,-4.7,2.3000000000000003,33.50000000000001,52.7,39.699999999999996,16
686,11532.0,2.9000000000000004,-1.2000000000000002,4.6000000000000005,-5.9,-5.1000000000000005,2.5,36.5,21.8,11.700000000000001,16
687,11550.0,2.4000000000000004,-1.2000000000000002,4.4,-6.300000000000001,-5.0,2.2,37.2,20.0,4.1,16
688,11566.0,2.2,-1.1,4.2,-6.6000000000000005,-5.0,2.0,36.2,20.3,2.1,16
689,11582.0,1.9000000000000001,-1.2000000000000002,4.2,-6.800000000000001,-5.1000000000000005,2.0,30.599999999999998,18.0,-0.8,16
690,11599.0,1.8,-1.2000000000000002,4.3,-6.9,-5.2,2.1,26.6,14.700000000000001,-2.8,16
691,11615.0,1.6,-1.5,4.7,-7.1000000000000005,-5.5,2.5,19.300000000000004,0.4,-9.4,16
692,11632.0,1.5,-1.7000000000000002,5.1000000000000005,-7.2,-5.7,2.9000000000000004,15.6,-25.300000000000004,-18.200000000000003,16
693,11649.0,1.3,-1.9000000000000001,4.9,-7.4,-5.9,2.8000000000000003,16.6,-38.7,-23.2,16
694,11665.0,0.7000000000000001,-1.8,4.4,-8.0,-5.9,2.5,24.200000000000003,-52.900000000000006,-31.3,16
695,11682.0,0.2,-1.8,3.4000000000000004,-8.5,-6.1000000000000005,1.7000000000000002,38.7,-45.0,-30.599999999999998,16
696,11699.0,0.1,-1.9000000000000001,2.8000000000000003,-8.6,-6.2,1.2000000000000002,47.5,-33.50000000000001,-30.799999999999997,16
697,11717.0,-0.30000000000000004,-1.9000000000000001,1.7000000000000002,-8.9,-6.4,0.30000000000000004,48.50000000000001,-24.200000000000003,-38.7,16
698,11732.0,-1.2000000000000002,-1.8,1.1,-9.8,-6.4,-0.2,38.900000000000006,-29.200000000000003,-54.199999999999996,16
699,11749.0,-2.2,-1.6,0.9,-10.700000000000001,-6.300000000000001,-0.30000000000000004,31.799999999999997,-36.300000000000004,-60.900000000000006,16
700,11767.0,-3.2,-1.4000000000000001,0.30000000000000004,-11.600000000000001,-6.300000000000001,-0.8,15.100000000000001,-52.300000000000004,-65.4,16
701,11784.0,-3.3000000000000003,-1.2000000000000002,0.0,-11.600000000000001,-6.300000000000001,-0.8,-3.9,-58.800000000000004,-60.1,16
702,11799.0,-2.8000000000000003,-1.1,0.0,-11.100000000000001,-6.300000000000001,-0.8,-10.4,-56.0,-57.20000000000001,16
703,11815.0,-1.4000000000000001,-0.6000000000000001,0.9,-9.600000000000001,-6.0,0.30000000000000004,-14.600000000000001,-49.1,-62.199999999999996,16
704,11832.0,-1.4000000000000001,0.5,2.1,-9.5,-5.0,1.6,5.300000000000001,-44.300000000000004,-74.30000000000001,16
705,11850.0,-2.2,1.7000000000000002,1.4000000000000001,-10.200000000000001,-4.0,1.1,46.300000000000004,-36.0,-75.60000000000001,16
706,11866.0,-2.5,2.3000000000000003,0.1,-10.3,-3.6,-0.1,66.60000000000001,-29.1,-71.30000000000001,16
707,11883.0,-2.6,2.5,-0.5,-10.4,-3.4000000000000004,-0.6000000000000001,83.2,-20.900000000000002,-65.6,16
708,11899.0,-2.5,3.2,-2.4000000000000004,-10.100000000000001,-2.9000000000000004,-2.4000000000000004,98.60000000000001,-0.30000000000000004,-49.300000000000004,16
709,11915.0,-1.8,3.5,-3.7,-9.4,-2.7,-3.4000000000000004,84.4,14.800000000000002,-28.500000000000004,16
710,11935.0,-0.8,3.0,-3.5,-8.3,-3.3000000000000003,-3.1,47.3,15.399999999999999,-14.700000000000001,16
711,11949.0,-0.7000000000000001,2.6,-2.6,-8.200000000000001,-3.7,-2.1,27.099999999999998,12.200000000000001,-12.4,16
712,11966.0,-0.9,1.7000000000000002,-0.7000000000000001,-8.4,-4.6000000000000005,-0.30000000000000004,-4.1,2.6,-13.100000000000001,16
713,11982.0,-1.0,1.5,-0.2,-8.5,-4.800000000000001,0.2,-6.9,1.3,-15.100000000000001,16
714,11999.0,-1.4000000000000001,1.2000000000000002,0.8,-8.9,-5.1000000000000005,1.2000000000000002,-0.4,8.899999999999999,-19.700000000000003,16
715,12015.0,-1.7000000000000002,1.3,1.5,-9.1,-5.1000000000000005,1.9000000000000001,16.900000000000002,30.9,-22.700000000000003,16
716,12033.0,-2.2,1.3,1.7000000000000002,-9.5,-5.1000000000000005,2.1,34.1,48.6,-21.900000000000002,16
717,12052.0,-2.4000000000000004,1.3,1.7000000000000002,-9.9,-5.300000000000001,1.9000000000000001,40.6,52.1,-19.9,16
718,12066.0,-2.7,1.2000000000000002,1.4000000000000001,-10.0,-5.4,1.7000000000000002,47.900000000000006,49.4,-13.3,16
719,12082.0,-2.6,1.1,1.4000000000000001,-9.9,-5.4,1.7000000000000002,48.9,44.300000000000004,-9.600000000000001,16
720,12099.0,-2.2,1.2000000000000002,1.4000000000000001,-9.200000000000001,-5.4,1.6,49.6,31.7,-4.6,16
721,12115.0,-1.1,1.3,0.9,-8.4,-5.300000000000001,1.2000000000000002,50.3,22.2,-4.1,16
722,12132.0,-0.7000000000000001,1.4000000000000001,0.7000000000000001,-8.0,-5.1000000000000005,1.1,50.900000000000006,21.1,-4.4,16
723,12150.0,-0.4,1.7000000000000002,0.5,-7.7,-4.800000000000001,1.0,53.599999999999994,30.799999999999997,-2.1,16
724,12165.0,-0.4,1.8,0.4,-7.7,-4.7,0.9,55.5,37.9,0.2,16
725,12183.0,-0.30000000000000004,1.8,0.0,-7.6000000000000005,-4.7,0.5,55.7,48.2,5.8,16
726,12200.0,-0.30000000000000004,1.8,-0.1,-7.7,-4.7,0.4,52.60000000000001,48.300000000000004,7.8,16
727,12215.0,-0.5,1.7000000000000002,-0.4,-7.800000000000001,-4.800000000000001,0.1,35.4,37.2,9.600000000000001,16
728,12232.0,-0.4,1.9000000000000001,-0.2,-7.800000000000001,-4.6000000000000005,0.30000000000000004,17.0,18.4,10.4,16
729,12249.0,-0.1,2.0,0.30000000000000004,-7.5,-4.4,0.7000000000000001,9.899999999999999,9.3,11.700000000000001,16
730,12266.0,0.5,2.1,0.6000000000000001,-7.0,-4.2,1.1,4.2,-6.699999999999999,13.5,16
731,12282.0,0.9,2.3000000000000003,0.7000000000000001,-6.6000000000000005,-4.0,1.2000000000000002,8.8,-13.399999999999999,14.0,16
732,12299.0,1.0,2.4000000000000004,0.7000000000000001,-6.5,-3.9000000000000004,1.2000000000000002,14.200000000000001,-11.4,15.100000000000001,16
733,12315.0,1.2000000000000002,2.6,0.1,-6.4,-3.7,0.7000000000000001,27.400000000000002,-1.0,18.6,16
734,12333.0,1.0,2.3000000000000003,-0.9,-6.5,-3.9000000000000004,-0.2,30.799999999999997,10.8,21.200000000000003,16
735,12349.0,0.6000000000000001,1.9000000000000001,-1.4000000000000001,-7.0,-4.3,-0.8,19.400000000000002,18.700000000000003,20.0,16
736,12365.0,0.0,1.4000000000000001,-1.2000000000000002,-7.7,-4.7,-0.6000000000000001,9.600000000000001,21.300000000000004,17.799999999999997,16
737,12382.0,-0.7000000000000001,1.0,-0.6000000000000001,-8.4,-5.0,0.0,-11.700000000000001,22.3,13.000000000000002,16
738,12399.0,-0.9,1.0,-0.1,-8.6,-5.1000000000000005,0.5,-21.300000000000004,18.900000000000002,11.000000000000002,16
739,12415.0,-1.4000000000000001,0.9,1.4000000000000001,-9.1,-5.2,1.9000000000000001,-32.400000000000006,5.7,6.600000000000001,16
740,12433.0,-2.1,0.7000000000000001,2.3000000000000003,-9.8,-5.300000000000001,2.7,-29.800000000000004,-10.5,4.4,16
741,12449.0,-3.0,0.2,2.2,-10.700000000000001,-5.800000000000001,2.6,-23.6,-16.900000000000002,5.4,16
742,12466.0,-4.0,-1.0,1.2000000000000002,-11.8,-7.0,1.6,-8.600000000000001,-21.8,9.3,16
743,12482.0,-4.2,-1.4000000000000001,0.9,-12.0,-7.300000000000001,1.3,1.1,-16.4,7.400000000000001,16
744,12499.0,-5.4,-1.6,-0.1,-13.100000000000001,-7.5,0.4,11.2,3.2,-11.1,16
745,12515.0,-6.1000000000000005,0.5,0.4,-13.8,-5.5,0.9,17.400000000000002,35.4,-25.0,16
746,12532.0,-6.1000000000000005,2.7,1.2000000000000002,-13.8,-3.4000000000000004,1.6,27.2,60.1,-13.5,16
747,12549.0,-5.9,3.2,1.6,-13.600000000000001,-2.9000000000000004,1.9000000000000001,29.600000000000005,62.50000000000001,2.2,16
748,12565.0,-4.800000000000001,2.9000000000000004,1.9000000000000001,-12.5,-3.1,2.2,34.0,48.50000000000001,41.1,16
749,12582.0,-4.2,2.4000000000000004,1.8,-10.700000000000001,-4.5,1.6,39.300000000000004,26.5,71.39999999999999,16
750,12599.0,-2.3000000000000003,1.0,1.2000000000000002,-10.200000000000001,-4.800000000000001,1.4000000000000001,40.6,14.400000000000002,79.19999999999999,16
751,12615.0,-0.6000000000000001,0.0,0.30000000000000004,-8.700000000000001,-5.6000000000000005,0.6000000000000001,40.5,1.4,82.7,16
752,12635.0,0.30000000000000004,-0.30000000000000004,0.0,-7.800000000000001,-5.7,0.30000000000000004,39.0,3.8,79.6,16
753,12649.0,2.0,-0.4,0.2,-6.4,-5.5,0.5,31.400000000000002,35.4,55.1,16
754,12665.0,1.9000000000000001,-0.30000000000000004,0.6000000000000001,-6.5,-5.300000000000001,0.9,29.700000000000006,48.400000000000006,44.10000000000001,16
755,12682.0,1.2000000000000002,0.1,1.7000000000000002,-7.300000000000001,-4.9,1.9000000000000001,30.799999999999997,70.9,26.400000000000006,16
756,12699.0,1.0,0.2,1.9000000000000001,-7.5,-4.7,2.1,34.800000000000004,78.9,21.500000000000004,16
757,12716.0,0.5,0.4,2.4000000000000004,-8.0,-4.5,2.4000000000000004,46.4,91.7,19.5,16
758,12732.0,0.1,0.4,2.5,-8.4,-4.4,2.3000000000000003,60.400000000000006,98.0,22.4,16
759,12750.0,0.1,0.30000000000000004,2.0,-8.5,-4.4,1.7000000000000002,73.8,101.9,27.099999999999998,16
760,12765.0,0.30000000000000004,0.4,1.7000000000000002,-8.3,-4.3,1.3,74.5,102.5,28.600000000000005,16
761,12782.0,0.5,0.5,1.3,-8.1,-4.1000000000000005,0.7000000000000001,66.3,101.20000000000002,30.200000000000003,16
762,12799.0,0.5,0.5,1.3,-8.1,-4.1000000000000005,0.6000000000000001,58.1,99.00000000000001,30.200000000000003,16
763,12815.0,0.4,0.4,1.5,-8.4,-4.1000000000000005,0.8,36.9,89.10000000000001,29.200000000000003,16
764,12832.0,0.1,0.2,2.3000000000000003,-8.6,-4.2,1.2000000000000002,16.200000000000003,70.9,29.700000000000006,16
765,12851.0,0.0,0.0,2.7,-8.700000000000001,-4.4,1.5,-0.1,47.3,31.9,16
766,12866.0,0.2,0.0,2.9000000000000004,-8.5,-4.3,1.6,-6.9,33.6,32.9,16
767,12882.0,0.8,-0.1,3.0,-8.0,-4.3,1.6,-16.700000000000003,9.2,34.900000000000006,16
768,12899.0,1.0,-0.1,3.0,-7.800000000000001,-4.2,1.6,-20.0,-0.30000000000000004,35.3,16
769,12915.0,1.6,-0.2,3.0,-7.2,-4.2,1.6,-24.3,-12.200000000000001,35.0,16
770,12932.0,1.9000000000000001,-0.5,3.0,-7.0,-4.4,1.6,-24.8,-14.300000000000002,33.6,16
771,12951.0,2.0,-0.7000000000000001,3.1,-6.9,-4.5,1.7000000000000002,-21.7,-11.3,30.200000000000003,16
772,12966.0,2.1,-0.9,2.9000000000000004,-6.9,-4.6000000000000005,1.5,-19.200000000000003,-10.8,27.400000000000002,16
773,12982.0,2.2,-1.0,2.6,-6.800000000000001,-4.6000000000000005,1.2000000000000002,-15.2,-14.5,20.7,16
774,13000.0,2.3000000000000003,-1.0,2.3000000000000003,-6.7,-4.6000000000000005,0.9,-14.200000000000001,-17.300000000000004,16.700000000000003,16
775,13015.0,2.4000000000000004,-1.1,1.7000000000000002,-6.6000000000000005,-4.7,0.4,-19.300000000000004,-24.5,6.0,16
776,13032.0,2.4000000000000004,-1.4000000000000001,1.4000000000000001,-6.7,-5.0,0.2,-32.1,-32.8,-4.9,16
777,13049.0,1.9000000000000001,-1.8,1.8,-7.2,-5.300000000000001,0.6000000000000001,-43.900000000000006,-41.7,-18.1,16
778,13065.0,1.1,-1.9000000000000001,1.9000000000000001,-8.0,-5.5,0.8,-47.400000000000006,-47.1,-24.599999999999998,16
779,13084.0,0.5,-1.4000000000000001,1.9000000000000001,-8.5,-5.1000000000000005,0.8,-48.50000000000001,-56.300000000000004,-31.7,16
780,13099.0,0.5,-1.3,1.6,-8.5,-5.0,0.6000000000000001,-47.0,-62.1,-34.300000000000004,16
781,13115.0,0.9,-0.9,0.9,-8.1,-4.7,0.1,-49.199999999999996,-75.60000000000001,-44.4,16
782,13132.0,0.7000000000000001,-0.6000000000000001,0.6000000000000001,-8.3,-4.5,0.0,-52.300000000000004,-80.8,-60.8,16
783,13149.0,0.2,-0.5,0.5,-9.200000000000001,-4.5,-0.2,-49.50000000000001,-70.0,-76.3,16
784,13166.0,-1.1,-0.5,0.2,-9.9,-4.800000000000001,-0.2,-48.50000000000001,-60.8,-81.0,16
785,13182.0,-2.5,-1.4000000000000001,0.5,-11.200000000000001,-5.9,0.2,-49.1,-39.50000000000001,-85.60000000000001,16
786,13199.0,-2.8000000000000003,-1.7000000000000002,0.8,-11.4,-6.4,0.5,-50.3,-30.3,-87.89999999999999,16
787,13215.0,-3.7,-2.2,2.3000000000000003,-12.100000000000001,-7.1000000000000005,2.0,-49.300000000000004,-22.4,-99.7,16
788,13232.0,-4.7,0.2,3.7,-13.0,-5.0,3.5,-32.0,-26.200000000000003,-108.3,16
789,13249.0,-4.2,3.3000000000000003,3.5,-12.3,-2.2,3.2,4.5,-29.200000000000003,-101.0,16
790,13266.0,-4.2,4.4,2.9000000000000004,-12.3,-1.2000000000000002,2.7,35.0,-29.800000000000004,-90.5,16
791,13283.0,-4.5,5.5,1.1,-12.4,-0.4,1.0,72.2,-22.000000000000004,-67.2,16
792,13301.0,-4.6000000000000005,5.5,0.2,-12.4,-0.5,0.30000000000000004,84.5,-14.400000000000002,-51.70000000000001,16
793,13316.0,-4.1000000000000005,4.9,-1.3,-11.8,-1.2000000000000002,-1.0,90.9,1.9,-20.0,16
794,13333.0,-3.4000000000000004,3.5,-2.0,-11.100000000000001,-2.6,-1.6,79.6,13.5,-3.4,16
795,13349.0,-3.0,3.0,-1.9000000000000001,-10.700000000000001,-3.1,-1.4000000000000001,70.3,15.5,-1.2000000000000002,16
796,13365.0,-2.2,2.9000000000000004,-1.1,-9.9,-3.2,-0.5,52.900000000000006,14.0,-4.7,16
797,13382.0,-1.7000000000000002,3.3000000000000003,0.0,-9.4,-2.8000000000000003,0.7000000000000001,46.4,11.700000000000001,-8.3,16
798,13400.0,-1.6,3.5,0.2,-9.200000000000001,-2.7,0.9,47.7,12.100000000000001,-7.8,16
799,13417.0,-1.7000000000000002,3.5,0.2,-9.4,-2.6,1.0,54.0,15.100000000000001,-2.6,16
800,13432.0,-2.0,3.2,-0.1,-9.600000000000001,-2.9000000000000004,0.8,60.900000000000006,21.300000000000004,5.2,16
801,13449.0,-2.0,2.8000000000000003,-0.30000000000000004,-9.600000000000001,-3.2,0.6000000000000001,64.50000000000001,25.7,8.4,16
802,13466.0,-1.8,2.6,-0.5,-9.5,-3.4000000000000004,0.5,68.5,33.7,12.0,16
803,13482.0,-1.4000000000000001,2.5,-0.1,-9.200000000000001,-3.5,0.9,71.30000000000001,40.6,12.8,16
804,13499.0,-1.3,2.4000000000000004,0.0,-9.1,-3.6,1.1,74.4,44.10000000000001,12.200000000000001,16
805,13516.0,-0.9,2.1,0.4,-8.700000000000001,-3.7,1.4000000000000001,87.2,47.5,8.5,16
806,13533.0,-0.7000000000000001,1.8,0.5,-8.5,-4.0,1.6,100.6,47.0,4.7,16
807,13550.0,-0.5,1.6,0.2,-8.4,-4.1000000000000005,1.4000000000000001,108.10000000000001,49.199999999999996,2.3,16
808,13565.0,-0.30000000000000004,1.7000000000000002,-0.4,-8.200000000000001,-3.9000000000000004,0.8,120.4,61.50000000000001,-3.1,16
809,13582.0,-0.30000000000000004,2.1,-0.9,-8.200000000000001,-3.5,0.4,125.4,76.5,-6.699999999999999,16
810,13600.0,-0.30000000000000004,2.4000000000000004,-1.1,-8.3,-3.2,0.2,124.0,81.2,-6.9,16
811,13615.0,-0.4,2.7,-1.2000000000000002,-8.4,-2.9000000000000004,0.1,114.9,82.7,-3.6000000000000005,16
812,13633.0,-0.4,2.8000000000000003,-1.2000000000000002,-8.5,-2.7,0.1,96.60000000000001,72.50000000000001,5.7,16
813,13650.0,-0.2,2.5,-1.0,-8.200000000000001,-2.9000000000000004,0.30000000000000004,86.00000000000001,65.7,10.8,16
814,13666.0,0.5,1.8,-0.30000000000000004,-7.6000000000000005,-3.6,1.0,65.5,49.699999999999996,16.0,16
815,13682.0,0.7000000000000001,1.6,0.1,-7.5,-3.8000000000000003,1.3,57.20000000000001,40.2,15.299999999999999,16
816,13699.0,1.1,1.1,0.7000000000000001,-7.1000000000000005,-4.2,2.0,47.7,23.900000000000006,8.600000000000001,16
817,13715.0,1.0,0.9,1.0,-7.2,-4.3,2.3000000000000003,47.400000000000006,21.400000000000002,-0.7,16
818,13733.0,0.5,1.0,1.0,-7.7,-4.2,2.3000000000000003,53.599999999999994,36.2,-7.6,16
819,13749.0,0.1,1.1,0.9,-8.1,-4.1000000000000005,2.2,56.9,47.60000000000001,-8.8,16
820,13766.0,-0.4,1.3,1.0,-8.6,-4.0,2.3000000000000003,57.400000000000006,59.699999999999996,-8.100000000000001,16
821,13782.0,-1.1,0.9,1.2000000000000002,-9.4,-4.3,2.3000000000000003,44.5,48.6,-5.1000000000000005,16
822,13799.0,-1.2000000000000002,0.7000000000000001,1.3,-9.5,-4.6000000000000005,2.5,37.400000000000006,39.9,-5.2,16
823,13815.0,-1.7000000000000002,-0.5,1.9000000000000001,-9.9,-5.7,3.0,27.3,24.5,-12.9,16
824,13832.0,-2.8000000000000003,-0.9,2.7,-11.0,-6.1000000000000005,3.8000000000000003,30.799999999999997,20.900000000000002,-29.700000000000006,16
825,13857.0,-5.2,0.4,3.2,-13.3,-4.9,4.4,54.800000000000004,44.10000000000001,-35.0,16
826,13866.0,-5.9,1.2000000000000002,3.1,-14.0,-4.1000000000000005,4.2,73.0,63.500000000000014,-29.0,16
827,13882.0,-6.1000000000000005,2.7,2.5,-14.200000000000001,-2.7,3.6,102.89999999999999,93.60000000000001,-9.600000000000001,16
828,13899.0,-5.9,2.9000000000000004,2.3000000000000003,-14.100000000000001,-2.5,3.3000000000000003,110.6,100.0,2.4000000000000004,16
829,13916.0,-5.300000000000001,2.7,1.8,-13.5,-2.6,2.7,109.7,94.5,28.500000000000004,16
830,13933.0,-4.3,1.5,1.5,-12.600000000000001,-3.7,2.4000000000000004,97.10000000000001,75.1,48.2,16
831,13949.0,-4.0,0.9,1.4000000000000001,-12.3,-4.3,2.2,91.2,65.89999999999999,52.00000000000001,16
832,13966.0,-3.6,0.2,1.1,-12.0,-4.800000000000001,1.9000000000000001,83.4,58.5,53.7,16
833,13982.0,-3.3000000000000003,0.0,1.0,-11.3,-4.7,1.9000000000000001,79.7,66.2,53.400000000000006,16
834,14001.0,-2.5,0.0,1.4000000000000001,-10.8,-4.3,2.5,79.5,77.20000000000002,52.00000000000001,16
835,14015.0,-1.9000000000000001,0.30000000000000004,1.9000000000000001,-10.600000000000001,-4.1000000000000005,2.5,81.60000000000001,81.2,52.2,16
836,14032.0,-1.5,0.7000000000000001,1.7000000000000002,-10.3,-3.6,2.2,84.5,82.0,56.6,16
837,14053.0,-0.9,0.5,1.2000000000000002,-9.8,-3.6,1.6,75.5,71.39999999999999,64.9,16
838,14066.0,-0.7000000000000001,0.30000000000000004,1.1,-9.700000000000001,-3.7,1.4000000000000001,69.5,67.3,67.00000000000001,16
839,14085.0,-0.30000000000000004,0.0,1.1,-9.4,-3.8000000000000003,1.3,57.20000000000001,60.900000000000006,70.8,16
840,14099.0,0.0,-0.1,1.1,-9.1,-3.7,1.3,51.1,58.400000000000006,72.80000000000001,16
841,14115.0,0.8,-0.2,1.2000000000000002,-8.4,-3.6,1.3,38.7,52.5,76.3,16
842,14132.0,1.5,-0.4,1.6,-7.800000000000001,-3.6,1.6,27.800000000000004,45.7,78.5,16
843,14150.0,2.1,-0.9,2.1,-7.300000000000001,-3.8000000000000003,2.0,21.1,36.7,77.5,16
844,14166.0,2.3000000000000003,-1.3,2.3000000000000003,-7.1000000000000005,-4.1000000000000005,2.1,19.6,32.2,76.2,16
845,14182.0,2.5,-1.7000000000000002,2.3000000000000003,-7.0,-4.3,2.1,19.400000000000002,27.800000000000004,72.9,16
846,14201.0,2.8000000000000003,-2.1,2.2,-6.7,-4.4,1.9000000000000001,19.5,29.0,68.3,16
847,14215.0,3.0,-2.2,2.2,-6.5,-4.4,1.8,18.4,30.000000000000004,65.0,16
848,14232.0,3.4000000000000004,-2.3000000000000003,2.2,-6.1000000000000005,-4.3,1.7000000000000002,13.5,28.500000000000004,57.49999999999999,16
849,14252.0,3.9000000000000004,-2.5,2.2,-5.7,-4.3,1.6,2.5,18.900000000000002,48.300000000000004,16
850,14267.0,4.0,-2.7,2.5,-5.6000000000000005,-4.4,1.9000000000000001,-4.2,10.8,42.400000000000006,16
851,14282.0,4.1000000000000005,-2.9000000000000004,2.7,-5.5,-4.5,2.1,-9.8,2.6,35.599999999999994,16
852,14299.0,4.4,-3.2,3.2,-5.300000000000001,-4.800000000000001,2.6,-14.400000000000002,-14.100000000000001,19.300000000000004,16
853,14315.0,4.4,-3.4000000000000004,3.2,-5.300000000000001,-4.9,2.7,-6.600000000000001,-29.800000000000004,-4.300000000000001,16
854,14334.0,3.3000000000000003,-3.2,2.3000000000000003,-6.4,-4.800000000000001,1.8,2.2,-30.200000000000003,-20.599999999999998,16
855,14356.0,2.8000000000000003,-3.0,1.3,-6.9,-4.6000000000000005,0.9,3.7000000000000006,-23.5,-26.799999999999997,16
856,14366.0,2.8000000000000003,-3.1,0.7000000000000001,-6.9,-4.800000000000001,0.4,-0.7,-22.2,-31.9,16
857,14382.0,2.5,-3.2,0.8,-7.1000000000000005,-5.0,0.6000000000000001,-17.1,-29.0,-51.1,16
858,14399.0,2.2,-3.2,1.0,-7.5,-5.0,0.8,-24.400000000000002,-33.9,-62.1,16
859,14415.0,1.2000000000000002,-2.9000000000000004,1.8,-8.4,-5.0,1.7000000000000002,-25.8,-39.699999999999996,-79.19999999999999,16
860,14432.0,0.1,-3.0,1.7000000000000002,-9.4,-5.300000000000001,1.7000000000000002,-16.3,-42.800000000000004,-90.19999999999999,16
861,14456.0,-1.2000000000000002,-2.6,0.9,-10.600000000000001,-5.300000000000001,1.1,-10.600000000000001,-40.2,-91.8,16
862,14465.0,-1.4000000000000001,-2.6,0.4,-10.8,-5.5,0.6000000000000001,-10.700000000000001,-37.1,-89.5,16
863,14483.0,-1.5,-2.8000000000000003,0.0,-11.100000000000001,-6.300000000000001,-0.1,-23.700000000000003,-33.9,-91.7,16
864,14499.0,-2.0,-3.5,-0.5,-11.3,-6.800000000000001,-0.1,-37.800000000000004,-37.0,-97.89999999999999,16
865,14516.0,-2.9000000000000004,-4.1000000000000005,0.7000000000000001,-12.0,-7.7,1.1,-69.10000000000001,-53.599999999999994,-120.4,16
866,14533.0,-3.8000000000000003,-2.6,2.5,-12.700000000000001,-6.6000000000000005,3.0,-78.60000000000001,-72.0,-148.9,16
867,14553.0,-4.4,0.7000000000000001,3.2,-13.100000000000001,-3.8000000000000003,3.9000000000000004,-58.900000000000006,-82.60000000000001,-167.50000000000003,16
868,14565.0,-4.7,2.7,3.5,-13.3,-2.1,4.2,-41.7,-82.9,-166.5,16
869,14586.0,-5.0,5.0,3.6,-13.3,-0.2,4.5,22.8,-56.2,-133.0,16
870,14599.0,-5.1000000000000005,5.2,3.3000000000000003,-13.200000000000001,-0.2,4.3,52.2,-38.0,-112.30000000000001,16
871,14615.0,-4.6000000000000005,4.7,1.9000000000000001,-12.5,-1.0,3.1,103.60000000000001,-8.899999999999999,-71.6,16
872,14632.0,-3.8000000000000003,3.4000000000000004,-0.4,-11.600000000000001,-2.4000000000000004,1.1,126.8,-1.4,-42.800000000000004,16
873,14652.0,-2.9000000000000004,2.3000000000000003,-2.7,-10.600000000000001,-3.6,-0.9,119.39999999999999,-14.5,-30.599999999999998,16
874,14666.0,-2.4000000000000004,2.0,-3.8000000000000003,-10.100000000000001,-3.8000000000000003,-1.9000000000000001,105.80000000000001,-25.8,-29.600000000000005,16
875,14682.0,-1.8,2.2,-4.7,-9.3,-3.7,-2.5,69.80000000000001,-45.400000000000006,-32.8,16
876,14699.0,-1.6,2.4000000000000004,-4.6000000000000005,-9.1,-3.4000000000000004,-2.3000000000000003,53.9,-47.1,-34.60000000000001,16
877,14717.0,-1.3,2.9000000000000004,-3.9000000000000004,-8.700000000000001,-3.0,-1.4000000000000001,35.699999999999996,-27.400000000000002,-35.2,16
878,14732.0,-1.1,3.0,-3.1,-8.5,-3.0,-0.4,34.60000000000001,5.8,-29.600000000000005,16
879,14751.0,-1.2000000000000002,2.7,-2.6,-8.5,-3.3000000000000003,0.1,40.5,33.2,-22.4,16
880,14765.0,-1.3,2.4000000000000004,-2.6,-8.5,-3.6,0.0,42.1,39.50000000000001,-19.5,16
881,14783.0,-1.5,1.9000000000000001,-2.5,-8.8,-4.1000000000000005,0.1,39.8,38.0,-17.0,16
882,14799.0,-1.8,1.8,-2.5,-9.1,-4.2,0.1,37.7,33.800000000000004,-17.1,16
883,14815.0,-1.9000000000000001,1.9000000000000001,-2.5,-9.200000000000001,-4.1000000000000005,0.1,35.4,28.0,-15.299999999999999,16
884,14832.0,-1.7000000000000002,2.0,-2.6,-9.0,-4.0,0.0,33.1,30.200000000000003,-6.8,16
885,14850.0,-1.4000000000000001,2.0,-2.5,-8.5,-4.1000000000000005,0.1,31.799999999999997,32.5,-2.3,16
886,14865.0,-0.9,1.8,-2.5,-8.200000000000001,-4.2,0.0,28.200000000000003,36.6,6.2,16
887,14882.0,-0.6000000000000001,1.7000000000000002,-2.4000000000000004,-7.9,-4.3,0.1,24.900000000000002,36.1,9.2,16
888,14899.0,-0.30000000000000004,1.4000000000000001,-2.3000000000000003,-7.7,-4.4,0.1,15.299999999999999,31.6,12.600000000000001,16
889,14915.0,0.2,1.3,-1.7000000000000002,-7.4,-4.6000000000000005,0.7000000000000001,5.500000000000001,21.900000000000002,10.0,16
890,14932.0,0.2,1.4000000000000001,-1.1,-7.300000000000001,-4.4,1.2000000000000002,3.6000000000000005,19.9,3.4,16
891,14953.0,0.2,1.9000000000000001,-0.6000000000000001,-7.4,-3.9000000000000004,1.6,12.0,28.700000000000003,-1.6,16
892,14971.0,-0.2,2.3000000000000003,-0.6000000000000001,-7.800000000000001,-3.5,1.6,25.4,43.00000000000001,-2.9,16
893,14983.0,-0.2,2.3000000000000003,-0.6000000000000001,-7.800000000000001,-3.5,1.6,25.4,43.00000000000001,-2.9,16
894,14999.0,-0.7000000000000001,2.2,-0.7000000000000001,-8.4,-3.6,1.4000000000000001,35.699999999999996,57.400000000000006,-0.30000000000000004,16
895,15016.0,-1.3,1.6,-0.7000000000000001,-9.0,-4.1000000000000005,1.3,39.8,67.00000000000001,0.1,16
896,15033.0,-2.1,1.2000000000000002,-0.2,-9.8,-4.5,1.7000000000000002,39.9,66.2,-4.6,16
897,15051.0,-2.4000000000000004,1.6,0.1,-10.100000000000001,-4.1000000000000005,1.9000000000000001,39.300000000000004,59.5,-8.5,16
898,15065.0,-2.5,2.0,0.1,-10.3,-3.7,1.9000000000000001,38.1,56.300000000000004,-8.2,16
899,15082.0,-2.7,2.1,0.2,-10.600000000000001,-3.5,2.0,31.6,51.4,-2.3,16
900,15099.0,-2.9000000000000004,2.0,0.30000000000000004,-10.700000000000001,-3.6,2.0,26.200000000000003,48.6,3.0,16
901,15115.0,-3.1,0.9,0.4,-10.9,-4.7,2.1,12.100000000000001,42.800000000000004,15.5,16
902,15132.0,-3.1,-0.30000000000000004,1.0,-11.0,-5.800000000000001,2.5,2.5,41.800000000000004,12.5,16
903,15151.0,-3.6,-0.30000000000000004,2.3000000000000003,-11.600000000000001,-5.800000000000001,3.7,9.600000000000001,50.8,-5.300000000000001,16
904,15167.0,-4.6000000000000005,0.5,2.9000000000000004,-12.600000000000001,-5.0,4.3,20.7,59.80000000000001,-12.8,16
905,15182.0,-6.2,2.5,3.2,-14.200000000000001,-3.1,4.5,47.5,80.60000000000001,-4.2,16
906,15199.0,-6.300000000000001,3.2,3.1,-14.3,-2.4000000000000004,4.3,58.5,88.60000000000001,12.7,16
907,15215.0,-5.5,3.1,2.5,-13.600000000000001,-2.4000000000000004,3.6,64.9,79.6,52.900000000000006,16
908,15232.0,-3.9000000000000004,1.8,2.2,-12.100000000000001,-3.5,3.2,52.60000000000001,48.0,80.50000000000001,16
909,15254.0,-2.4000000000000004,0.2,2.2,-10.8,-4.800000000000001,3.1,41.900000000000006,19.200000000000003,91.10000000000001,16
910,15265.0,-1.8,-0.5,2.4000000000000004,-10.200000000000001,-5.300000000000001,3.3000000000000003,41.7,13.200000000000003,91.0,16
911,15283.0,-1.3,-1.2000000000000002,2.5,-9.9,-5.800000000000001,3.4000000000000004,56.7,24.900000000000002,81.3,16
912,15299.0,-1.2000000000000002,-1.3,2.3000000000000003,-9.9,-5.7,3.3000000000000003,70.0,40.300000000000004,75.2,16
913,15315.0,-1.1,-1.2000000000000002,2.1,-10.0,-5.5,3.0,97.8,77.9,66.9,16
914,15332.0,-1.0,-1.0,1.6,-10.0,-5.0,2.4000000000000004,114.80000000000001,98.10000000000001,65.2,16
915,15352.0,-0.6000000000000001,-0.7000000000000001,1.2000000000000002,-9.600000000000001,-4.4,1.8,110.9,89.6,67.8,16
916,15365.0,-0.2,-0.6000000000000001,0.9,-9.3,-4.2,1.5,99.30000000000001,73.5,69.5,16
917,15382.0,0.0,-0.7000000000000001,0.8,-9.1,-4.1000000000000005,1.3,79.5,51.4,68.60000000000001,16
918,15399.0,0.1,-0.8,0.8,-9.1,-4.0,1.3,71.10000000000001,43.800000000000004,68.4,16
919,15417.0,0.4,-0.8,1.1,-8.9,-3.9000000000000004,1.5,62.1,38.800000000000004,72.2,16
920,15433.0,1.2000000000000002,-1.1,1.2000000000000002,-8.200000000000001,-3.9000000000000004,1.5,58.900000000000006,40.800000000000004,78.3,16
921,15450.0,1.7000000000000002,-1.4000000000000001,1.3,-7.7,-4.0,1.6,58.0,42.3,80.30000000000001,16
922,15467.0,2.4000000000000004,-2.0,1.5,-7.2,-4.4,1.7000000000000002,58.1,46.7,81.0,16
923,15482.0,2.5,-2.2,1.7000000000000002,-7.0,-4.5,1.8,59.40000000000001,49.0,79.3,16
924,15499.0,2.9000000000000004,-2.7,1.9000000000000001,-6.7,-4.7,2.0,65.10000000000001,49.0,73.2,16
925,15515.0,3.0,-3.0,1.6,-6.6000000000000005,-4.800000000000001,1.6,69.80000000000001,44.4,67.10000000000001,16
926,15533.0,3.2,-3.3000000000000003,1.0,-6.5,-4.9,0.8,64.9,39.2,61.300000000000004,16
927,15549.0,3.4000000000000004,-3.5,0.6000000000000001,-6.300000000000001,-5.0,0.4,57.9,37.300000000000004,57.9,16
928,15566.0,3.7,-3.9000000000000004,0.4,-6.0,-5.2,0.1,35.699999999999996,33.6,48.50000000000001,16
929,15582.0,3.7,-4.3,0.8,-6.1000000000000005,-5.4,0.4,7.8,28.600000000000005,34.900000000000006,16
930,15599.0,3.5,-4.5,1.2000000000000002,-6.2,-5.6000000000000005,0.7000000000000001,-5.300000000000001,24.7,27.5,16
931,15615.0,3.2,-5.1000000000000005,2.2,-6.6000000000000005,-6.1000000000000005,1.7000000000000002,-25.1,12.600000000000001,10.600000000000001,16
932,15634.0,2.8000000000000003,-5.300000000000001,2.9000000000000004,-7.0,-6.300000000000001,2.4000000000000004,-36.1,-13.900000000000002,-13.000000000000002,16
933,15651.0,2.8000000000000003,-5.1000000000000005,2.6,-6.9,-6.1000000000000005,2.1,-42.900000000000006,-40.1,-28.600000000000005,16
934,15665.0,3.1,-4.800000000000001,2.3000000000000003,-6.7,-5.9,1.8,-47.60000000000001,-50.0,-35.599999999999994,16
935,15684.0,3.1,-4.6000000000000005,1.8,-6.6000000000000005,-5.800000000000001,1.5,-58.3,-62.800000000000004,-50.0,16
936,15699.0,3.0,-4.6000000000000005,1.5,-6.800000000000001,-5.9,1.4000000000000001,-63.70000000000001,-65.3,-57.699999999999996,16
937,15715.0,1.9000000000000001,-5.1000000000000005,0.9,-7.800000000000001,-6.6000000000000005,0.9,-74.30000000000001,-60.400000000000006,-72.60000000000001,16
938,15732.0,1.2000000000000002,-5.9,0.9,-8.5,-7.6000000000000005,1.1,-89.8,-50.900000000000006,-87.89999999999999,16
939,15750.0,0.7000000000000001,-6.300000000000001,1.9000000000000001,-8.9,-8.4,2.2,-106.20000000000002,-54.300000000000004,-110.10000000000001,16
940,15766.0,0.4,-6.2,2.6,-9.1,-8.5,2.9000000000000004,-112.5,-62.0,-123.4,16
941,15782.0,-0.4,-4.4,3.9000000000000004,-9.8,-7.1000000000000005,4.3,-117.20000000000002,-83.2,-149.79999999999998,16
942,15799.0,-0.6000000000000001,-3.4000000000000004,4.1000000000000005,-10.0,-6.4,4.6000000000000005,-111.10000000000002,-91.0,-158.9,16
943,15815.0,-1.7000000000000002,-1.0,4.3,-10.8,-4.5,4.9,-77.9,-91.7,-167.79999999999998,16
944,15833.0,-3.7,0.4,3.1,-12.5,-3.7,4.0,-25.300000000000004,-69.9,-166.9,16
945,15849.0,-5.1000000000000005,1.0,2.0,-13.9,-3.4000000000000004,3.0,2.7,-52.2,-163.29999999999998,16
946,15865.0,-6.5,1.8,0.5,-15.0,-3.1,1.7000000000000002,49.50000000000001,-9.2,-144.4,16
947,15882.0,-6.800000000000001,2.2,-0.30000000000000004,-15.0,-3.1,0.9,73.9,21.8,-111.10000000000002,16
948,15899.0,-6.6000000000000005,2.3000000000000003,-0.4,-14.8,-3.0,0.8,72.80000000000001,18.5,-98.7,16
949,15916.0,-5.800000000000001,2.8000000000000003,-0.30000000000000004,-13.700000000000001,-2.8000000000000003,1.1,62.199999999999996,-9.3,-76.2,16
950,15932.0,-4.2,3.4000000000000004,-0.2,-12.0,-2.4000000000000004,1.3,54.699999999999996,-40.7,-57.49999999999999,16
951,15950.0,-4.2,3.4000000000000004,-0.30000000000000004,-10.200000000000001,-2.2,1.3,57.400000000000006,-55.2,-42.1,16
952,15966.0,-1.9000000000000001,3.8000000000000003,-0.7000000000000001,-9.5,-2.1,1.2000000000000002,62.50000000000001,-54.9,-35.0,16
953,15982.0,-1.1,3.8000000000000003,-1.6,-8.6,-2.2,0.5,76.0,-44.6,-19.400000000000002,16
954,15999.0,-0.8,3.7,-2.2,-8.3,-2.3000000000000003,0.1,81.90000000000002,-36.1,-12.100000000000001,16
955,16015.0,0.0,3.2,-3.6,-7.4,-2.7,-1.0,83.89999999999999,-23.400000000000002,-3.4,16
956,16034.0,0.7000000000000001,2.6,-4.2,-6.7,-3.2,-1.4000000000000001,73.7,-18.8,-6.699999999999999,16
957,16051.0,0.8,2.4000000000000004,-3.9000000000000004,-6.6000000000000005,-3.3000000000000003,-0.9,62.7,-15.8,-20.400000000000002,16
958,16067.0,0.4,2.6,-3.7,-6.9,-3.2,-0.6000000000000001,60.8,-11.1,-28.500000000000004,16
959,16082.0,-0.8,3.0,-3.8000000000000003,-8.0,-2.8000000000000003,-0.6000000000000001,63.2,7.400000000000001,-39.400000000000006,16
960,16099.0,-1.3,3.2,-3.8000000000000003,-8.6,-2.6,-0.6000000000000001,65.10000000000001,19.400000000000002,-39.699999999999996,16
961,16115.0,-2.2,3.4000000000000004,-4.1000000000000005,-9.4,-2.4000000000000004,-0.8,67.7,43.00000000000001,-27.700000000000003,16
962,16132.0,-2.3000000000000003,3.3000000000000003,-4.6000000000000005,-9.5,-2.5,-1.2000000000000002,60.900000000000006,54.300000000000004,-9.899999999999999,16
963,16149.0,-2.1,3.2,-4.5,-9.4,-2.6,-1.2000000000000002,47.7,50.1,1.1,16
964,16166.0,-1.8,2.9000000000000004,-3.9000000000000004,-9.1,-2.8000000000000003,-0.7000000000000001,29.200000000000003,35.9,11.5,16
965,16182.0,-1.6,2.5,-3.3000000000000003,-8.9,-3.1,-0.1,18.0,24.5,19.799999999999997,16
966,16199.0,-1.5,2.3000000000000003,-3.2,-8.9,-3.3000000000000003,0.0,14.900000000000002,21.0,22.9,16
967,16216.0,-1.4000000000000001,1.7000000000000002,-3.1,-8.9,-3.8000000000000003,0.1,9.899999999999999,22.700000000000003,25.7,16
968,16233.0,-2.0,1.1,-2.9000000000000004,-9.600000000000001,-4.3,0.2,4.0,38.900000000000006,25.7,16
969,16249.0,-2.5,1.0,-2.7,-10.200000000000001,-4.4,0.4,-0.1,49.800000000000004,26.000000000000004,16
970,16266.0,-3.1,1.3,-2.0,-10.8,-4.0,0.9,-11.4,67.7,30.799999999999997,16
971,16284.0,-3.0,1.5,-0.9,-10.8,-3.7,1.7000000000000002,-28.0,65.89999999999999,41.1,16
972,16299.0,-2.8000000000000003,1.2000000000000002,-0.5,-10.8,-4.0,2.1,-36.9,57.800000000000004,46.50000000000001,16
973,16315.0,-2.3000000000000003,-0.1,0.6000000000000001,-10.4,-5.1000000000000005,2.9000000000000004,-50.900000000000006,35.2,52.1,16
974,16332.0,-2.1,-1.5,1.7000000000000002,-10.3,-6.5,3.8000000000000003,-49.0,16.6,42.2,16
975,16350.0,-2.6,-2.1,1.9000000000000001,-10.8,-7.0,4.0,-39.2,12.5,31.0,16
976,16368.0,-5.0,-1.5,1.7000000000000002,-13.200000000000001,-6.4,3.7,-8.4,29.300000000000004,7.1000000000000005,16
977,16382.0,-7.2,0.6000000000000001,1.5,-15.5,-4.3,3.4000000000000004,25.900000000000002,76.89999999999999,7.200000000000001,16
978,16399.0,-7.4,1.3,1.6,-15.700000000000001,-3.6,3.4000000000000004,39.400000000000006,101.80000000000001,19.5,16
979,16416.0,-6.800000000000001,1.9000000000000001,1.7000000000000002,-15.3,-2.8000000000000003,3.2,50.5,126.89999999999999,64.30000000000001,16
980,16433.0,-6.2,0.2,2.0,-14.8,-4.3,3.3000000000000003,34.900000000000006,103.40000000000002,93.00000000000001,16
981,16451.0,-5.5,-1.0,2.7,-14.200000000000001,-5.7,4.0,26.000000000000004,68.0,102.60000000000001,16
982,16465.0,-5.300000000000001,-2.3000000000000003,3.3000000000000003,-14.200000000000001,-6.300000000000001,4.2,30.3,54.9,103.7,16
983,16482.0,-4.5,-2.8000000000000003,3.2,-13.5,-6.5,4.0,53.300000000000004,47.80000000000001,104.80000000000001,16
984,16499.0,-4.4,-3.0,3.2,-12.9,-6.300000000000001,3.7,66.7,52.60000000000001,106.80000000000001,16
985,16515.0,-2.0,-2.4000000000000004,2.2,-11.3,-5.6000000000000005,2.8000000000000003,87.40000000000002,66.1,110.10000000000001,16
986,16532.0,-0.5,-2.1,1.1,-9.9,-4.9,1.6,89.0,66.0,109.9,16
987,16549.0,0.5,-2.0,0.7000000000000001,-9.0,-4.5,1.2000000000000002,73.5,47.7,107.30000000000001,16
988,16566.0,1.1,-2.0,0.7000000000000001,-8.4,-4.2,1.0,65.2,38.300000000000004,105.60000000000002,16
989,16582.0,1.8,-2.2,0.5,-7.800000000000001,-4.1000000000000005,0.8,54.0,25.8,102.60000000000001,16
990,16599.0,2.1,-2.3000000000000003,0.4,-7.5,-4.0,0.7000000000000001,51.2,24.1,100.80000000000001,16
991,16615.0,2.8000000000000003,-2.5,0.1,-6.9,-3.8000000000000003,0.4,46.300000000000004,26.9,95.5,16
992,16632.0,3.1,-2.7,0.30000000000000004,-6.6000000000000005,-3.7,0.5,38.2,32.300000000000004,88.9,16
993,16650.0,3.2,-2.8000000000000003,0.6000000000000001,-6.5,-3.7,0.7000000000000001,34.300000000000004,34.2,85.80000000000001,16
994,16665.0,3.5,-3.1,1.3,-6.300000000000001,-3.8000000000000003,1.2000000000000002,29.700000000000006,38.800000000000004,81.3,16
995,16684.0,3.9000000000000004,-3.4000000000000004,1.5,-5.9,-3.8000000000000003,1.4000000000000001,31.400000000000002,44.9,79.19999999999999,16
996,16699.0,4.0,-3.5,1.5,-5.800000000000001,-3.7,1.3,32.0,47.0,79.00000000000001,16
997,16715.0,4.4,-3.9000000000000004,1.4000000000000001,-5.4,-3.9000000000000004,1.0,28.900000000000002,45.3,78.2,16
998,16732.0,4.6000000000000005,-4.6000000000000005,1.1,-5.1000000000000005,-4.3,0.5,18.8,37.9,74.80000000000001,16
999,16750.0,4.7,-5.300000000000001,0.9,-5.0,-4.7,0.30000000000000004,1.7,27.700000000000003,67.7,16
1000,16765.0,4.7,-5.800000000000001,1.0,-5.1000000000000005,-5.1000000000000005,0.30000000000000004,-8.100000000000001,21.8,62.6,16
1001,16782.0,4.2,-6.9,1.4000000000000001,-5.5,-6.0,0.6000000000000001,-26.5,11.6,46.7,16
1002,16799.0,4.0,-7.2,1.7000000000000002,-5.7,-6.2,0.9,-34.1,6.8,37.2,16
1003,16815.0,3.7,-7.5,2.2,-6.0,-6.4,1.4000000000000001,-46.1,-7.400000000000001,17.1,16
1004,16832.0,4.0,-7.300000000000001,2.0,-5.800000000000001,-6.2,1.3,-59.5,-32.7,-3.0,16
1005,16851.0,4.3,-7.1000000000000005,1.5,-5.5,-6.0,0.9,-79.9,-58.400000000000006,-24.0,16
1006,16865.0,4.4,-7.1000000000000005,1.2000000000000002,-5.4,-6.0,0.7000000000000001,-91.50000000000001,-68.60000000000001,-34.800000000000004,16
1007,16882.0,4.2,-7.4,0.8,-5.6000000000000005,-6.5,0.7000000000000001,-117.60000000000001,-85.80000000000001,-57.60000000000001,16
1008,16899.0,4.0,-7.7,0.7000000000000001,-5.800000000000001,-6.800000000000001,0.7000000000000001,-130.70000000000002,-91.2,-69.9,16
1009,16917.0,3.5,-8.5,0.8,-6.300000000000001,-7.9,1.1,-155.4,-96.60000000000001,-98.60000000000001,16
1010,16932.0,2.1,-8.8,1.6,-7.7,-8.6,2.3000000000000003,-176.9,-109.60000000000001,-145.60000000000002,16
1011,16949.0,0.8,-7.9,1.8,-10.200000000000001,-7.300000000000001,2.8000000000000003,-180.9,-114.80000000000001,-161.10000000000002,16
1012,16965.0,-1.5,-5.6000000000000005,1.4000000000000001,-11.200000000000001,-6.300000000000001,2.7,-180.70000000000002,-113.3,-171.0,16
1013,16983.0,-2.6,-4.3,0.7000000000000001,-12.200000000000001,-5.6000000000000005,2.3000000000000003,-172.70000000000002,-94.4,-166.70000000000002,16
1014,17001.0,-3.5,-3.4000000000000004,0.8,-12.9,-5.4,2.6,-156.5,-56.2,-165.3,16
1015,17015.0,-4.1000000000000005,-3.0,1.1,-13.5,-5.4,2.9000000000000004,-143.4,-28.200000000000003,-166.70000000000002,16
1016,17032.0,-6.0,-2.0,2.5,-15.100000000000001,-4.9,4.2,-107.4,35.599999999999994,-169.70000000000002,16
1017,17050.0,-7.0,-1.3,3.5,-16.6,-4.4,5.800000000000001,-61.9,81.4,-170.30000000000004,16
1018,17065.0,-8.5,-0.30000000000000004,5.2,-17.400000000000002,-4.1000000000000005,6.5,-37.7,86.8,-168.70000000000002,16
1019,17082.0,-10.5,1.7000000000000002,5.800000000000001,-19.200000000000003,-2.7,6.800000000000001,11.3,59.300000000000004,-152.4,16
1020,17099.0,-11.200000000000001,2.5,5.2,-19.8,-2.1,6.1000000000000005,32.6,32.5,-132.8,16
1021,17115.0,-10.0,4.4,2.2,-18.400000000000002,-0.6000000000000001,3.1,61.199999999999996,-16.1,-72.10000000000001,16
1022,17132.0,-5.9,4.9,-1.0,-14.200000000000001,-0.1,0.1,56.10000000000001,-49.4,-15.5,16
1023,17149.0,-3.5,5.0,-2.2,-11.8,-0.1,-1.0,41.300000000000004,-65.5,1.9,16
1024,17166.0,-0.9,4.9,-2.8000000000000003,-9.200000000000001,-0.2,-1.3,-1.1,-94.7,19.700000000000003,16
1025,17182.0,0.30000000000000004,4.5,-2.3000000000000003,-7.9,-0.5,-0.6000000000000001,-35.2,-103.3,28.1,16
1026,17199.0,0.9,4.3,-2.0,-7.4,-0.7000000000000001,-0.2,-45.400000000000006,-93.89999999999999,31.2,16
1027,17216.0,1.3,3.8000000000000003,-1.8,-6.9,-1.1,0.2,-45.9,-77.00000000000001,31.7,16
1028,17232.0,1.4000000000000001,3.7,-2.0,-6.800000000000001,-1.1,0.1,-46.6,-72.30000000000001,28.600000000000005,16
1029,17249.0,1.4000000000000001,3.9000000000000004,-2.3000000000000003,-6.9,-0.9,-0.1,-48.400000000000006,-70.9,28.500000000000004,16
1030,17265.0,1.6,4.1000000000000005,-2.7,-6.6000000000000005,-0.7000000000000001,-0.30000000000000004,-55.3,-64.10000000000001,33.7,16
1031,17282.0,1.7000000000000002,4.0,-2.7,-6.6000000000000005,-0.8,-0.30000000000000004,-60.5,-59.699999999999996,36.400000000000006,16
1032,17299.0,1.3,3.6,-2.4000000000000004,-7.0,-1.1,0.0,-69.60000000000001,-52.7,37.6,16
1033,17315.0,0.4,3.5,-2.3000000000000003,-7.9,-1.2000000000000002,0.2,-72.50000000000001,-50.7,37.400000000000006,16
1034,17332.0,-0.1,3.3000000000000003,-2.4000000000000004,-8.4,-1.3,0.2,-75.8,-52.7,41.199999999999996,16
1035,17352.0,-0.1,2.9000000000000004,-1.9000000000000001,-8.4,-1.7000000000000002,0.7000000000000001,-81.10000000000001,-62.50000000000001,45.2,16
1036,17365.0,-0.1,2.6,-1.3,-8.4,-1.9000000000000001,1.3,-81.10000000000001,-69.20000000000002,45.7,16
1037,17382.0,-0.2,2.1,-0.7000000000000001,-8.5,-2.4000000000000004,2.0,-69.60000000000001,-80.30000000000001,42.7,16
1038,17403.0,-0.5,1.7000000000000002,-1.0,-8.8,-2.7,1.8,-45.8,-76.80000000000001,36.1,16
1039,17415.0,-0.7000000000000001,1.6,-1.2000000000000002,-9.0,-2.8000000000000003,1.7000000000000002,-32.1,-66.3,32.8,16
1040,17432.0,-1.3,1.6,-2.0,-9.600000000000001,-2.7,1.0,-8.5,-36.9,26.799999999999997,16
1041,17449.0,-2.2,1.6,-2.7,-10.5,-2.6,0.4,-1.9,-16.6,24.599999999999998,16
1042,17465.0,-2.6,1.5,-2.7,-10.9,-2.7,0.5,-9.8,-14.900000000000002,26.5,16
1043,17482.0,-2.6,0.8,-2.2,-11.0,-3.4000000000000004,0.9,-29.1,-29.600000000000005,29.900000000000006,16
1044,17499.0,-2.7,0.30000000000000004,-2.0,-11.0,-3.8000000000000003,1.1,-39.1,-38.7,29.600000000000005,16
1045,17516.0,-2.9000000000000004,-1.5,-1.3,-11.200000000000001,-5.5,1.9000000000000001,-54.0,-48.9,22.6,16
1046,17532.0,-4.0,-2.6,-0.7000000000000001,-12.3,-6.7,2.6,-56.0,-35.0,6.500000000000001,16
1047,17549.0,-5.300000000000001,-2.7,-0.2,-13.600000000000001,-6.7,3.1,-52.80000000000001,-17.9,-2.0,16
1048,17567.0,-7.300000000000001,-0.9,1.0,-15.600000000000001,-5.1000000000000005,4.3,-39.8,23.3,-8.600000000000001,16
1049,17582.0,-7.1000000000000005,1.5,2.0,-15.4,-2.7,5.1000000000000005,-24.8,46.199999999999996,11.900000000000002,16
1050,17599.0,-6.7,2.0,2.3000000000000003,-15.0,-2.2,5.300000000000001,-22.2,43.2,29.600000000000005,16
1051,17615.0,-4.9,1.3,2.6,-13.4,-2.9000000000000004,5.5,-25.8,8.600000000000001,66.2,16
1052,17633.0,-3.0,-0.8,2.5,-11.5,-4.7,5.4,-21.200000000000003,-37.300000000000004,83.60000000000001,16
1053,17649.0,-2.1,-2.0,2.1,-10.600000000000001,-5.800000000000001,4.9,-11.8,-51.4,84.5,16
1054,17665.0,-2.4000000000000004,-3.1,1.1,-11.0,-6.7,4.1000000000000005,21.6,-45.5,71.39999999999999,16
1055,17682.0,-2.1,-2.9000000000000004,-0.1,-10.8,-6.2,3.1,59.80000000000001,-7.6,56.6,16
1056,17699.0,-1.5,-2.5,-0.4,-10.200000000000001,-5.7,2.8000000000000003,76.0,16.0,53.10000000000001,16
1057,17715.0,-0.1,-1.4000000000000001,-0.6000000000000001,-8.8,-4.3,2.6,100.2,56.7,50.8,16
1058,17732.0,0.9,-0.9,-1.0,-8.0,-3.6,2.1,112.60000000000001,72.60000000000001,51.6,16
1059,17749.0,1.3,-0.9,-1.4000000000000001,-7.6000000000000005,-3.4000000000000004,1.5,105.7,58.5,51.6,16
1060,17765.0,1.7000000000000002,-1.2000000000000002,-1.8,-7.4,-3.5,1.1,99.30000000000001,49.6,52.1,16
1061,17782.0,2.5,-1.6,-2.0,-6.6000000000000005,-3.6,0.9,86.89999999999999,38.400000000000006,53.300000000000004,16
1062,17799.0,3.1,-1.8,-2.1,-6.1000000000000005,-3.7,0.8,82.0,36.7,51.6,16
1063,17816.0,3.9000000000000004,-2.3000000000000003,-1.9000000000000001,-5.4,-3.9000000000000004,0.9,73.5,37.7,41.6,16
1064,17832.0,4.4,-2.5,-1.6,-4.9,-4.0,1.1,68.80000000000001,41.800000000000004,26.6,16
1065,17849.0,4.5,-2.5,-1.5,-4.800000000000001,-3.9000000000000004,1.1,67.7,44.4,18.200000000000003,16
1066,17866.0,4.7,-2.4000000000000004,-1.3,-4.7,-3.7,1.2000000000000002,67.4,49.800000000000004,2.2,16
1067,17882.0,4.7,-2.3000000000000003,-1.3,-4.7,-3.6,1.1,67.60000000000001,55.7,-13.000000000000002,16
1068,17899.0,4.6000000000000005,-2.3000000000000003,-1.4000000000000001,-4.800000000000001,-3.6,0.9,66.7,57.49999999999999,-20.3,16
1069,17915.0,4.3,-2.3000000000000003,-1.4000000000000001,-5.5,-3.7,0.6000000000000001,59.300000000000004,56.6,-33.7,16
1070,17932.0,3.2,-2.7,-1.4000000000000001,-6.300000000000001,-4.0,0.6000000000000001,48.400000000000006,55.900000000000006,-45.0,16
1071,17950.0,2.6,-2.9000000000000004,-1.1,-6.9,-4.3,0.8,43.00000000000001,55.7,-50.1,16
1072,17965.0,1.7000000000000002,-3.4000000000000004,-0.7000000000000001,-7.9,-4.9,1.0,32.9,52.2,-57.400000000000006,16
1073,17982.0,0.6000000000000001,-3.6,-0.8,-8.9,-5.300000000000001,0.8,16.200000000000003,41.6,-62.6,16
1074,17998.0,0.4,-3.6,-0.9,-9.200000000000001,-5.4,0.6000000000000001,5.500000000000001,34.0,-63.70000000000001,16
1075,18016.0,0.0,-3.6,-1.2000000000000002,-9.5,-5.7,0.2,-23.800000000000004,17.400000000000002,-66.60000000000001,16
1076,18032.0,-0.5,-3.6,-1.1,-9.9,-5.9,0.2,-59.5,-1.5,-72.4,16
1077,18056.0,-0.8,-3.2,-0.1,-10.100000000000001,-5.800000000000001,1.3,-87.89999999999999,-20.8,-79.19999999999999,16
1078,18066.0,-0.8,-3.0,0.4,-10.100000000000001,-5.800000000000001,1.7000000000000002,-95.20000000000002,-28.400000000000002,-82.8,16
1079,18082.0,-1.0,-2.3000000000000003,1.2000000000000002,-10.200000000000001,-5.4,2.5,-97.2,-41.199999999999996,-90.70000000000002,16
1080,18099.0,-1.3,-1.9000000000000001,1.4000000000000001,-10.4,-5.2,2.7,-92.0,-44.8,-93.89999999999999,16
1081,18115.0,-2.6,-1.1,1.0,-11.600000000000001,-4.7,2.4000000000000004,-72.30000000000001,-41.0,-93.10000000000001,16
1082,18135.0,-3.9000000000000004,-0.9,-0.1,-12.8,-4.800000000000001,1.2000000000000002,-60.1,-18.700000000000003,-77.20000000000002,16
1083,18149.0,-3.9000000000000004,-0.8,-0.5,-12.600000000000001,-5.0,0.7000000000000001,-62.300000000000004,-7.9,-65.6,16
1084,18165.0,-3.7,-1.2000000000000002,-0.9,-12.4,-5.5,0.4,-82.50000000000001,-2.9,-50.0,16
1085,18182.0,-2.6,-1.3,0.6000000000000001,-11.3,-5.7,1.8,-120.2,-22.3,-47.5,16
1086,18199.0,-2.1,-0.9,1.8,-10.700000000000001,-5.4,3.0,-133.20000000000002,-38.900000000000006,-53.0,16
1087,18215.0,-2.2,1.0,4.0,-10.700000000000001,-3.7,5.0,-123.4,-68.1,-71.39999999999999,16
1088,18233.0,-4.9,3.1,3.8000000000000003,-13.3,-1.9000000000000001,4.800000000000001,-72.4,-64.30000000000001,-71.30000000000001,16
1089,18249.0,-5.5,3.8000000000000003,2.9000000000000004,-13.8,-1.3,4.0,-24.5,-35.699999999999996,-46.0,16
1090,18265.0,-5.300000000000001,3.3000000000000003,0.9,-13.600000000000001,-2.0,2.0,25.4,6.1000000000000005,-9.0,16
1091,18282.0,-4.4,2.9000000000000004,-0.6000000000000001,-12.600000000000001,-2.3000000000000003,0.6000000000000001,40.0,29.400000000000002,11.6,16
1092,18299.0,-3.9000000000000004,2.8000000000000003,-0.9,-12.200000000000001,-2.4000000000000004,0.2,36.7,32.2,17.0,16
1093,18316.0,-2.7,3.2,-1.2000000000000002,-10.9,-1.9000000000000001,-0.1,17.0,19.300000000000004,26.799999999999997,16
1094,18334.0,-1.3,3.4000000000000004,-0.9,-9.700000000000001,-1.7000000000000002,0.2,-12.200000000000001,-15.2,39.9,16
1095,18349.0,-0.30000000000000004,3.2,-0.4,-8.700000000000001,-1.8,0.7000000000000001,-23.6,-33.400000000000006,46.0,16
1096,18365.0,1.4000000000000001,2.7,0.1,-7.0,-2.1,1.3,-30.200000000000003,-58.800000000000004,53.7,16
1097,18382.0,2.5,2.2,0.0,-6.0,-2.5,1.3,-14.900000000000002,-63.30000000000001,53.7,16
1098,18399.0,3.0,2.1,-0.4,-5.5,-2.5,1.0,-3.5,-59.5,50.900000000000006,16
1099,18415.0,3.6,2.1,-1.2000000000000002,-5.0,-2.3000000000000003,0.30000000000000004,16.700000000000003,-44.7,42.800000000000004,16
1100,18432.0,3.7,2.0,-2.2,-4.9,-2.3000000000000003,-0.4,29.0,-24.3,34.1,16
1101,18450.0,3.6,2.0,-2.4000000000000004,-5.300000000000001,-2.3000000000000003,-0.7000000000000001,29.300000000000004,-7.8,23.800000000000004,16
1102,18465.0,2.9000000000000004,2.0,-2.5,-5.800000000000001,-2.2,-0.6000000000000001,26.400000000000006,-2.7,19.9,16
1103,18482.0,2.5,2.0,-1.8,-6.2,-2.1,0.1,19.6,0.2,17.799999999999997,16
1104,18499.0,2.6,2.0,-1.6,-6.2,-2.1,0.4,18.5,-0.30000000000000004,17.9,16
1105,18515.0,2.3000000000000003,1.8,-0.8,-6.4,-2.2,1.1,21.7,-5.300000000000001,15.6,16
1106,18533.0,1.3,1.7000000000000002,-0.6000000000000001,-7.4,-2.2,1.5,31.5,-11.4,15.700000000000001,16
1107,18549.0,1.0,1.8,-1.0,-7.800000000000001,-2.1,1.1,37.1,-11.2,19.9,16
1108,18565.0,1.1,1.5,-2.1,-7.6000000000000005,-2.3000000000000003,0.0,39.2,-8.600000000000001,28.800000000000004,16
1109,18582.0,1.1,0.9,-2.7,-7.7,-2.8000000000000003,-0.5,23.900000000000006,-14.100000000000001,29.400000000000002,16
1110,18598.0,1.0,0.7000000000000001,-2.8000000000000003,-7.9,-2.9000000000000004,-0.5,12.200000000000001,-19.700000000000003,27.700000000000003,16
1111,18615.0,0.4,0.2,-2.3000000000000003,-8.4,-3.3000000000000003,0.0,-9.8,-29.200000000000003,22.9,16
1112,18634.0,0.2,-0.1,-1.3,-8.700000000000001,-3.6,1.1,-20.2,-32.7,14.0,16
