,ms,accelX,accelY,accelZ,accelWithGX,accelWithGY,accelWithGZ,rotRateAlpha,rotRateBeta,rotRateGamma,interval
0,159.0,0.0,0.0,0.0,0.6000000000000001,2.1,9.600000000000001,-1.1,0.2,1.3,16
1,165.0,0.1,0.0,0.0,0.6000000000000001,2.1,9.600000000000001,-1.3,0.0,1.2000000000000002,16
2,181.0,0.0,0.0,0.1,0.6000000000000001,2.0,9.700000000000001,-1.3,-0.2,0.9000000000000001,16
3,197.0,0.0,0.0,0.0,0.6000000000000001,2.0,9.600000000000001,-0.5,-0.2,0.4,16
4,214.0,0.0,0.0,0.0,0.6000000000000001,2.1,9.600000000000001,0.30000000000000004,-0.9000000000000001,0.4,16
5,231.0,0.0,0.0,0.1,0.6000000000000001,2.0,9.600000000000001,0.2,-0.7,0.0,16
6,247.0,0.0,0.0,0.1,0.6000000000000001,2.0,9.700000000000001,0.6000000000000001,-0.4,0.1,16
7,264.0,0.0,0.0,-0.1,0.5,2.1,9.5,1.5,-0.6000000000000001,0.5,16
8,281.0,0.0,0.0,-0.2,0.6000000000000001,2.1,9.4,0.9000000000000001,-2.5,0.9000000000000001,16
9,297.0,0.0,0.0,-0.2,0.6000000000000001,2.0,9.4,0.0,-2.0,1.0,16
10,314.0,0.0,-0.1,-0.1,0.6000000000000001,2.0,9.5,-1.3,-1.4,1.5,16
11,331.0,0.0,-0.1,-0.1,0.6000000000000001,2.0,9.5,-1.8000000000000003,-1.3,1.8000000000000003,16
12,347.0,0.1,0.0,0.0,0.7000000000000001,2.0,9.5,-2.0,-0.9000000000000001,1.8000000000000003,16
13,364.0,0.0,0.0,0.1,0.6000000000000001,2.0,9.600000000000001,-1.8000000000000003,0.0,0.9000000000000001,16
14,381.0,0.1,0.0,0.2,0.7000000000000001,2.0,9.8,-0.1,0.0,0.4,16
15,397.0,0.0,0.0,0.30000000000000004,0.6000000000000001,2.0,9.8,0.7,0.5,0.30000000000000004,16
16,414.0,0.0,0.0,0.1,0.6000000000000001,2.1,9.700000000000001,2.3,1.1,0.4,16
17,431.0,-0.1,0.1,0.0,0.5,2.2,9.600000000000001,2.4000000000000004,-0.2,0.0,16
18,447.0,0.0,0.1,0.0,0.6000000000000001,2.1,9.600000000000001,2.0,-1.1,0.0,16
19,464.0,-0.1,0.0,0.0,0.5,2.1,9.5,1.6,-1.2000000000000002,0.1,16
20,481.0,0.0,0.0,-0.1,0.6000000000000001,2.1,9.5,0.30000000000000004,-2.0,1.0,16
21,497.0,0.0,0.0,0.0,0.6000000000000001,2.1,9.5,-0.5,-2.4000000000000004,1.2000000000000002,16
22,514.0,0.0,0.0,0.0,0.7000000000000001,2.1,9.5,-0.2,-2.3,1.1,16
23,531.0,0.1,0.0,-0.1,0.7000000000000001,2.0,9.4,-0.4,-1.3,0.6000000000000001,16
24,547.0,0.0,-0.1,-0.1,0.7000000000000001,2.0,9.5,-0.8,-0.2,0.4,16
25,564.0,0.1,-0.1,-0.1,0.7000000000000001,1.9000000000000001,9.5,0.2,0.5,0.6000000000000001,16
26,581.0,0.1,0.0,-0.1,0.7000000000000001,2.0,9.4,0.30000000000000004,0.8,-0.2,16
27,597.0,0.1,0.0,-0.1,0.7000000000000001,2.0,9.4,-0.30000000000000004,1.0,-0.7,16
28,614.0,0.0,0.0,0.1,0.6000000000000001,2.0,9.600000000000001,-0.8,2.4000000000000004,-1.8000000000000003,16
29,631.0,-0.1,0.0,0.1,0.6000000000000001,2.0,9.600000000000001,0.0,3.6000000000000005,-1.0,16
30,647.0,-0.1,0.0,0.0,0.5,2.1,9.5,0.6000000000000001,2.9,-0.7,16
31,664.0,-0.1,0.1,0.0,0.5,2.2,9.600000000000001,0.4,1.3,-0.30000000000000004,16
32,681.0,-0.1,0.1,0.2,0.5,2.1,9.700000000000001,-0.30000000000000004,1.5,-0.1,16
33,697.0,-0.1,0.1,0.1,0.5,2.1,9.600000000000001,0.4,0.9000000000000001,0.1,16
34,714.0,-0.1,0.1,-0.1,0.5,2.1,9.5,0.6000000000000001,-0.8,1.1,16
35,731.0,0.0,0.0,-0.1,0.6000000000000001,2.0,9.4,-0.9000000000000001,-2.2,2.1,16
36,747.0,0.0,0.0,-0.1,0.6000000000000001,2.0,9.5,-1.3,-2.5,2.2,16
37,764.0,0.1,0.0,0.0,0.7000000000000001,2.0,9.5,-1.6,-2.1,1.9,16
38,781.0,0.1,-0.1,0.0,0.7000000000000001,2.0,9.600000000000001,-1.1,-0.8,1.8000000000000003,16
39,797.0,0.1,-0.1,0.0,0.7000000000000001,2.0,9.5,-0.5,-0.2,1.7,16
40,814.0,0.1,-0.1,0.0,0.7000000000000001,2.0,9.5,0.0,0.8,1.2000000000000002,16
41,831.0,0.1,0.0,-0.1,0.7000000000000001,2.0,9.5,-0.4,1.6,0.1,16
42,847.0,0.1,0.0,-0.1,0.8,2.0,9.4,-0.30000000000000004,1.8000000000000003,-0.6000000000000001,16
43,864.0,0.2,0.0,-0.2,0.8,2.0,9.4,-0.9000000000000001,3.0,-2.3,16
44,881.0,-0.1,-0.1,0.1,0.5,1.9000000000000001,9.600000000000001,-2.7,7.1000000000000005,-2.3,16
45,897.0,0.0,-0.1,0.1,0.6000000000000001,1.9000000000000001,9.600000000000001,-2.6,9.600000000000001,0.0,16
46,914.0,0.0,0.0,0.0,0.6000000000000001,2.0,9.5,-2.3,9.2,-0.30000000000000004,16
47,931.0,0.0,0.1,0.0,0.5,2.0,9.600000000000001,-3.9,7.400000000000001,-1.6,16
48,948.0,0.0,0.1,0.1,0.4,2.0,9.700000000000001,-4.1,4.0,-1.1,16
49,964.0,-0.1,0.0,0.30000000000000004,0.4,2.0,9.8,-4.1,2.5,-0.6000000000000001,16
50,981.0,0.0,0.1,0.4,0.5,2.0,9.9,-3.8,2.3,-0.30000000000000004,16
51,997.0,0.0,0.0,0.2,0.5,2.0,9.8,-2.3,4.5,0.1,16
52,1014.0,-0.1,0.0,0.1,0.4,2.0,9.700000000000001,-2.0,4.2,0.0,16
53,1031.0,-0.30000000000000004,0.1,-0.1,0.2,2.0,9.4,-0.2,-3.0,1.4,16
54,1047.0,-0.1,0.30000000000000004,-0.4,0.4,2.3000000000000003,9.200000000000001,0.8,-10.5,2.8,16
55,1064.0,0.0,0.4,-0.4,0.5,2.4000000000000004,9.200000000000001,-1.1,-10.200000000000001,3.3000000000000007,16
56,1081.0,0.1,0.6000000000000001,-0.1,0.7000000000000001,2.6,9.5,-5.2,-5.8,4.300000000000001,16
57,1097.0,0.2,0.7000000000000001,0.2,0.7000000000000001,2.6,9.8,-7.699999999999999,0.30000000000000004,4.800000000000001,16
58,1114.0,0.2,0.6000000000000001,0.4,0.8,2.5,10.0,-8.3,3.6000000000000005,5.8,16
59,1131.0,0.30000000000000004,0.30000000000000004,0.5,0.8,2.3000000000000003,10.100000000000001,-7.1000000000000005,6.8,7.200000000000001,16
60,1147.0,0.2,0.1,0.7000000000000001,0.7000000000000001,2.0,10.3,-3.4,6.9,5.7,16
61,1164.0,0.2,-0.1,0.6000000000000001,0.7000000000000001,1.8,10.3,-1.1,6.2,4.300000000000001,16
62,1181.0,0.0,-0.5,0.7000000000000001,0.5,1.4000000000000001,10.3,4.6,2.4000000000000004,0.30000000000000004,16
63,1197.0,0.0,-0.7000000000000001,0.4,0.5,1.2000000000000002,10.0,12.100000000000001,-2.8,-2.8,16
64,1214.0,0.1,-0.8,0.2,0.6000000000000001,1.2000000000000002,9.8,15.399999999999999,-6.300000000000001,-4.4,16
65,1231.0,0.1,-0.8,-0.1,0.6000000000000001,1.2000000000000002,9.5,18.5,-9.2,-7.0,16
66,1247.0,0.2,-0.8,-0.2,0.8,1.2000000000000002,9.4,18.900000000000002,-7.500000000000001,-7.500000000000001,16
67,1264.0,0.1,-0.8,-0.2,0.7000000000000001,1.3,9.4,18.5,-6.300000000000001,-8.0,16
68,1281.0,-0.2,-0.5,0.0,0.4,1.6,9.5,19.1,-2.3,-8.700000000000001,16
69,1297.0,-0.6000000000000001,-0.2,-0.2,0.0,2.0,9.4,23.099999999999998,-0.5,-9.2,16
70,1314.0,-0.7000000000000001,-0.1,-0.2,-0.2,2.2,9.3,24.900000000000002,0.30000000000000004,-9.0,16
71,1331.0,-0.9,0.1,-0.6000000000000001,-0.4,2.4000000000000004,8.9,27.400000000000002,0.4,-8.0,16
72,1347.0,-0.8,0.30000000000000004,-0.9,-0.30000000000000004,2.8000000000000003,8.5,26.000000000000004,-3.4,-4.9,16
73,1364.0,-0.7000000000000001,0.5,-1.0,-0.2,2.9000000000000004,8.5,24.0,-4.2,-3.5,16
74,1381.0,-0.4,0.7000000000000001,-1.2000000000000002,0.1,3.3000000000000003,8.3,17.200000000000003,-3.8,0.1,16
75,1397.0,0.0,0.8,-1.2000000000000002,0.5,3.4000000000000004,8.3,6.500000000000001,-3.3000000000000007,2.6,16
76,1414.0,0.2,0.8,-1.0,0.7000000000000001,3.4000000000000004,8.4,0.1,-1.4,4.0,16
77,1431.0,0.4,0.7000000000000001,-0.5,1.0,3.3000000000000003,8.9,-11.700000000000001,5.0,7.500000000000001,16
78,1447.0,0.6000000000000001,0.5,0.0,1.1,3.0,9.4,-21.400000000000002,12.100000000000001,11.900000000000002,16
79,1464.0,0.6000000000000001,0.30000000000000004,0.2,1.1,2.8000000000000003,9.600000000000001,-24.1,14.900000000000002,13.100000000000001,16
80,1481.0,0.6000000000000001,0.0,0.6000000000000001,1.1,2.4000000000000004,10.0,-23.900000000000006,15.399999999999999,13.6,16
81,1497.0,0.4,-0.30000000000000004,0.7000000000000001,0.9,2.0,10.200000000000001,-20.0,14.100000000000001,11.3,16
82,1514.0,0.30000000000000004,-0.4,0.7000000000000001,0.7000000000000001,1.7000000000000002,10.100000000000001,-16.8,11.8,9.8,16
83,1531.0,0.2,-0.6000000000000001,0.5,0.7000000000000001,1.6,10.0,-9.4,3.3000000000000007,5.0,16
84,1547.0,0.2,-0.8,0.1,0.6000000000000001,1.4000000000000001,9.700000000000001,-3.1,-3.4,0.9000000000000001,16
85,1564.0,0.2,-0.8,0.0,0.6000000000000001,1.4000000000000001,9.3,-1.6,-6.300000000000001,-0.9000000000000001,16
86,1581.0,0.1,-0.7000000000000001,-0.30000000000000004,0.6000000000000001,1.5,9.200000000000001,-0.8,-8.0,-2.8,16
87,1597.0,0.0,-0.5,-0.4,0.5,1.7000000000000002,9.1,-2.7,-5.0,-3.4,16
88,1614.0,-0.1,-0.4,-0.4,0.30000000000000004,1.9000000000000001,9.200000000000001,-3.8,-2.7,-3.3000000000000007,16
89,1631.0,-0.4,-0.30000000000000004,-0.2,0.1,1.9000000000000001,9.3,-5.2,2.2,-2.5,16
90,1647.0,-0.7000000000000001,0.1,-0.30000000000000004,-0.2,2.2,9.200000000000001,-3.0,5.300000000000001,-1.9,16
91,1664.0,-0.8,0.2,-0.30000000000000004,-0.4,2.4000000000000004,9.200000000000001,-2.9,8.3,0.30000000000000004,16
92,1681.0,-0.9,0.30000000000000004,-0.30000000000000004,-0.5,2.5,9.200000000000001,-4.2,10.299999999999999,1.7,16
93,1697.0,-1.0,0.4,-0.2,-0.6000000000000001,2.5,9.3,-6.8,10.700000000000001,5.8,16
94,1714.0,-0.8,0.5,-0.4,-0.5,2.6,9.1,-10.600000000000001,9.899999999999999,9.8,16
95,1731.0,-0.7000000000000001,0.6000000000000001,-0.4,-0.4,2.6,9.1,-14.200000000000001,10.0,11.2,16
96,1747.0,-0.6000000000000001,0.5,-0.2,-0.30000000000000004,2.5,9.3,-22.3,10.1,14.100000000000001,16
97,1764.0,-0.5,0.4,0.4,-0.30000000000000004,2.3000000000000003,9.9,-28.0,11.5,16.6,16
98,1781.0,-0.7000000000000001,0.30000000000000004,0.7000000000000001,-0.4,2.2,10.3,-29.400000000000002,14.200000000000001,17.5,16
99,1797.0,-0.9,0.2,1.2000000000000002,-0.7000000000000001,2.0,10.8,-28.3,19.0,22.3,16
100,1814.0,-1.0,0.1,1.2000000000000002,-0.9,1.8,10.8,-24.7,19.700000000000003,28.1,16
101,1831.0,-1.0,0.1,1.1,-0.9,1.8,10.700000000000001,-22.700000000000003,17.799999999999997,30.3,16
102,1847.0,-1.2000000000000002,0.30000000000000004,1.2000000000000002,-1.1,1.9000000000000001,10.9,-19.1,12.7,32.2,16
103,1864.0,-1.2000000000000002,0.30000000000000004,1.3,-1.1,1.9000000000000001,11.100000000000001,-15.6,8.4,33.0,16
104,1881.0,-1.2000000000000002,0.4,1.4000000000000001,-1.2000000000000002,1.9000000000000001,11.100000000000001,-12.8,7.500000000000001,32.7,16
105,1897.0,-1.0,0.5,1.1,-1.0,2.0,10.8,-4.0,5.1000000000000005,33.1,16
106,1914.0,-0.9,0.5,1.0,-0.8,2.0,10.4,3.1,3.3000000000000007,34.300000000000004,16
107,1931.0,-0.6000000000000001,0.5,0.5,-0.6000000000000001,2.0,10.200000000000001,4.0,3.2,35.5,16
108,1947.0,-0.5,0.4,0.30000000000000004,-0.5,1.9000000000000001,10.100000000000001,4.300000000000001,5.500000000000001,37.9,16
109,1964.0,-0.30000000000000004,0.30000000000000004,-0.1,-0.30000000000000004,1.8,9.600000000000001,0.30000000000000004,12.8,41.4,16
110,1981.0,-0.2,0.30000000000000004,-0.30000000000000004,-0.2,1.8,9.5,-2.8,14.200000000000001,42.1,16
111,1997.0,0.1,0.30000000000000004,-0.7000000000000001,0.0,1.8,9.0,-9.2,13.200000000000003,41.900000000000006,16
112,2014.0,0.4,0.2,-0.8,0.30000000000000004,1.7000000000000002,8.9,-17.400000000000002,14.600000000000001,39.300000000000004,16
113,2031.0,0.4,0.2,-0.7000000000000001,0.30000000000000004,1.7000000000000002,9.0,-21.0,17.1,37.300000000000004,16
114,2048.0,0.5,0.2,-0.6000000000000001,0.30000000000000004,1.5,9.200000000000001,-25.1,25.300000000000004,34.2,16
115,2064.0,0.5,0.1,-0.6000000000000001,0.30000000000000004,1.4000000000000001,9.200000000000001,-26.400000000000006,31.3,31.5,16
116,2081.0,0.5,0.1,-0.4,0.2,1.3,9.3,-26.9,33.9,30.9,16
117,2097.0,0.2,-0.2,-0.1,-0.2,0.9,9.600000000000001,-24.400000000000002,39.400000000000006,32.9,16
118,2114.0,0.30000000000000004,-0.4,0.30000000000000004,-0.2,0.7000000000000001,10.0,-11.5,41.0,38.300000000000004,16
119,2131.0,0.30000000000000004,-0.4,0.1,-0.30000000000000004,0.7000000000000001,9.9,-3.0,41.50000000000001,41.0,16
120,2148.0,0.5,-0.30000000000000004,-0.4,-0.2,0.9,9.4,11.900000000000002,34.60000000000001,46.300000000000004,16
121,2164.0,0.7000000000000001,-0.1,-0.6000000000000001,0.0,1.1,9.1,20.8,23.3,47.0,16
122,2181.0,0.8,0.0,-0.7000000000000001,0.0,1.2000000000000002,8.9,22.4,18.3,46.6,16
123,2198.0,1.3,0.1,-1.2000000000000002,0.5,1.5,8.5,21.6,7.8,43.800000000000004,16
124,2214.0,1.5,0.30000000000000004,-1.2000000000000002,0.7000000000000001,1.7000000000000002,8.5,12.5,1.8000000000000003,36.5,16
125,2231.0,1.5,0.30000000000000004,-1.0,0.8,1.7000000000000002,8.6,6.699999999999999,1.2000000000000002,33.2,16
126,2247.0,1.5,0.2,-0.9,0.8,1.7000000000000002,8.8,0.7,-6.4,26.6,16
127,2264.0,1.6,0.30000000000000004,-0.5,1.0,1.8,9.1,4.7,-22.6,23.400000000000002,16
128,2281.0,1.9000000000000001,0.5,-0.5,1.4000000000000001,2.0,9.200000000000001,5.500000000000001,-28.400000000000002,24.400000000000002,16
129,2297.0,2.7,0.9,0.2,2.3000000000000003,2.4000000000000004,9.8,1.7,-29.1,25.300000000000004,16
130,2314.0,2.6,1.3,0.7000000000000001,2.3000000000000003,2.8000000000000003,10.4,-8.8,-22.6,24.1,16
131,2331.0,2.5,1.3,1.2000000000000002,2.1,2.7,11.3,-14.600000000000001,-17.5,23.5,16
132,2347.0,1.9000000000000001,1.2000000000000002,1.9000000000000001,1.7000000000000002,2.6,11.600000000000001,-20.900000000000002,-0.8,20.2,16
133,2364.0,1.1,1.0,1.7000000000000002,0.9,2.3000000000000003,11.4,-18.200000000000003,9.600000000000001,18.4,16
134,2382.0,0.8,0.9,1.6,0.6000000000000001,2.2,11.3,-15.5,10.200000000000001,18.3,16
135,2399.0,0.6000000000000001,0.9,0.9,0.4,2.2,10.700000000000001,-6.1000000000000005,5.2,16.4,16
136,2414.0,0.7000000000000001,1.2000000000000002,0.1,0.5,2.5,9.8,3.5,-4.300000000000001,11.2,16
137,2431.0,0.7000000000000001,1.2000000000000002,-0.2,0.7000000000000001,2.6,9.4,5.4,-8.600000000000001,7.8,16
138,2447.0,1.0,1.2000000000000002,-0.6000000000000001,0.9,2.5,9.1,3.9,-15.299999999999999,1.1,16
139,2464.0,1.2000000000000002,1.1,-0.8,1.1,2.5,8.9,3.1,-23.5,-4.1,16
140,2481.0,1.3,1.1,-0.8,1.5,2.4000000000000004,8.9,2.2,-25.4,-5.7,16
141,2499.0,1.4000000000000001,0.9,-0.6000000000000001,1.5,2.3000000000000003,9.1,1.7,-24.7,-8.4,16
142,2514.0,1.3,0.7000000000000001,0.0,1.5,2.1,9.700000000000001,5.2,-21.300000000000004,-9.600000000000001,16
143,2531.0,1.3,0.5,0.0,1.4000000000000001,1.9000000000000001,9.9,13.200000000000003,-16.900000000000002,-9.4,16
144,2548.0,1.0,0.4,0.4,1.3,1.9000000000000001,10.100000000000001,16.4,-12.200000000000001,-9.100000000000001,16
145,2565.0,0.6000000000000001,0.2,0.8,0.8,1.7000000000000002,10.5,20.599999999999998,-2.2,-7.699999999999999,16
146,2582.0,0.30000000000000004,0.0,0.9,0.2,1.4000000000000001,10.700000000000001,23.6,9.700000000000001,-4.6,16
147,2597.0,-0.5,-0.4,1.2000000000000002,-0.30000000000000004,1.3,10.9,23.700000000000003,15.8,-2.5,16
148,2614.0,-1.0,-0.6000000000000001,1.3,-0.9,1.1,11.0,23.800000000000004,22.4,3.9,16
149,2631.0,-1.3,-0.8,0.9,-1.2000000000000002,1.1,10.600000000000001,26.200000000000003,17.799999999999997,8.899999999999999,16
150,2647.0,-1.3,-0.7000000000000001,0.6000000000000001,-1.3,1.2000000000000002,10.3,26.400000000000006,13.3,11.4,16
151,2664.0,-1.2000000000000002,-0.5,0.4,-1.2000000000000002,1.4000000000000001,10.0,19.799999999999997,4.2,16.5,16
152,2681.0,-1.1,-0.4,0.4,-1.1,1.5,10.100000000000001,6.300000000000001,0.6000000000000001,21.6,16
153,2698.0,-1.0,-0.4,0.5,-0.9,1.6,10.200000000000001,-1.9,3.0,24.200000000000003,16
154,2714.0,-1.1,-0.4,1.0,-1.1,1.5,10.700000000000001,-19.0,14.700000000000001,27.9,16
155,2731.0,-1.3,-0.5,1.2000000000000002,-1.6,1.2000000000000002,10.8,-26.000000000000004,28.900000000000002,30.599999999999998,16
156,2747.0,-1.7000000000000002,-0.6000000000000001,0.6000000000000001,-1.8,1.2000000000000002,10.3,-20.8,30.200000000000003,30.5,16
157,2764.0,-1.6,-0.4,-0.7000000000000001,-1.8,1.3,9.1,-1.3,20.400000000000002,28.900000000000002,16
158,2782.0,-1.3,-0.2,-1.8,-1.5,1.6,7.9,13.3,7.400000000000001,27.0,16
159,2797.0,-1.1,0.0,-2.2,-1.3,1.8,7.5,15.8,0.7,26.300000000000004,16
160,2814.0,-0.6000000000000001,0.0,-2.3000000000000003,-0.8,1.9000000000000001,7.4,9.4,0.0,28.0,16
161,2831.0,-0.2,0.1,-2.1,-0.4,2.0,7.5,-2.6,8.899999999999999,29.700000000000006,16
162,2847.0,-0.2,0.2,-2.0,-0.5,2.1,7.6000000000000005,-7.9,12.100000000000001,29.600000000000005,16
163,2864.0,-0.4,0.2,-1.9000000000000001,-0.6000000000000001,2.0,7.7,-15.6,18.200000000000003,31.5,16
164,2883.0,-0.30000000000000004,0.1,-1.9000000000000001,-0.8,1.9000000000000001,7.800000000000001,-13.5,21.900000000000002,34.400000000000006,16
165,2899.0,-0.6000000000000001,0.1,-1.7000000000000002,-1.0,1.9000000000000001,7.9,-10.200000000000001,20.400000000000002,36.9,16
166,2914.0,-0.4,0.1,-1.9000000000000001,-0.8,1.9000000000000001,7.7,-2.3,13.900000000000002,42.5,16
167,2931.0,-0.2,0.4,-2.1,-0.6000000000000001,2.1,7.5,2.7,7.1000000000000005,45.400000000000006,16
168,2947.0,0.0,0.5,-2.1,-0.4,2.3000000000000003,7.5,2.2,3.6000000000000005,46.300000000000004,16
169,2964.0,0.2,0.7000000000000001,-1.8,-0.2,2.5,7.800000000000001,-1.6,0.7,44.6,16
170,2981.0,0.30000000000000004,1.0,-1.5,0.0,2.7,8.0,-4.800000000000001,1.7,41.800000000000004,16
171,2998.0,0.30000000000000004,1.1,-1.6,0.0,2.9000000000000004,7.9,-7.300000000000001,1.9,40.4,16
172,3017.0,0.4,1.2000000000000002,-1.1,0.1,2.9000000000000004,8.4,-17.200000000000003,-0.6000000000000001,37.7,16
173,3032.0,0.1,1.1,0.0,-0.2,2.8000000000000003,9.5,-24.200000000000003,1.7,34.300000000000004,16
174,3047.0,0.0,1.0,0.4,-0.30000000000000004,2.7,9.9,-23.6,4.0,33.50000000000001,16
175,3064.0,-0.2,1.0,0.5,-0.5,2.6,10.100000000000001,-18.8,7.8,32.9,16
176,3081.0,-0.30000000000000004,0.9,0.8,-0.6000000000000001,2.5,10.4,-13.3,5.500000000000001,31.400000000000002,16
177,3097.0,-0.30000000000000004,0.9,1.0,-0.5,2.5,10.600000000000001,-10.299999999999999,3.9,30.3,16
178,3114.0,-0.1,1.0,1.1,-0.4,2.5,10.700000000000001,-3.7000000000000006,-5.0,26.1,16
179,3131.0,0.1,0.9,1.5,-0.1,2.4000000000000004,11.100000000000001,-1.9,-11.000000000000002,20.3,16
180,3147.0,0.1,0.7000000000000001,1.9000000000000001,-0.1,2.3000000000000003,11.5,-3.7000000000000006,-10.5,17.7,16
181,3164.0,0.0,0.30000000000000004,2.6,-0.1,1.8,12.3,-8.8,-4.9,13.399999999999999,16
182,3187.0,-0.30000000000000004,0.0,2.8000000000000003,-0.4,1.5,12.5,-10.0,-0.30000000000000004,10.9,16
183,3197.0,-0.1,-0.1,2.7,0.0,1.4000000000000001,12.100000000000001,-7.699999999999999,-3.7000000000000006,9.8,16
184,3216.0,0.30000000000000004,0.0,2.3000000000000003,0.2,1.4000000000000001,12.0,-0.2,-15.8,3.7000000000000006,16
185,3231.0,0.4,0.1,2.6,0.4,1.6,12.3,2.7,-15.700000000000001,-2.2,16
186,3247.0,0.6000000000000001,0.1,2.7,0.6000000000000001,1.6,12.4,1.3,-10.200000000000001,-6.0,16
187,3264.0,0.5,-0.1,3.0,0.6000000000000001,1.4000000000000001,12.8,-0.9000000000000001,-5.300000000000001,-7.1000000000000005,16
188,3281.0,0.0,-0.7000000000000001,3.6,-0.1,0.8,13.4,-6.4,13.5,-6.600000000000001,16
189,3298.0,-0.5,-1.0,3.0,-0.7000000000000001,0.4,12.8,0.0,29.600000000000005,-2.3,16
190,3314.0,-0.6000000000000001,-1.1,2.3000000000000003,-0.7000000000000001,0.4,12.200000000000001,8.8,29.700000000000006,-1.0,16
191,3331.0,-0.30000000000000004,-0.8,0.6000000000000001,-0.6000000000000001,0.7000000000000001,10.4,29.900000000000006,16.6,-3.9,16
192,3347.0,-0.1,-0.5,-0.5,-0.4,1.1,9.3,40.6,-3.7000000000000006,-9.100000000000001,16
193,3364.0,0.2,-0.5,-0.5,-0.1,1.2000000000000002,9.3,38.0,-9.899999999999999,-11.1,16
194,3381.0,0.2,-0.7000000000000001,-0.1,0.0,1.1,9.700000000000001,24.7,-3.4,-11.900000000000002,16
195,3397.0,0.30000000000000004,-0.9,-0.30000000000000004,0.1,1.0,9.5,13.8,6.4,-8.600000000000001,16
196,3414.0,0.4,-0.8,-0.6000000000000001,0.1,1.0,9.200000000000001,8.899999999999999,10.1,-7.300000000000001,16
197,3431.0,0.0,-0.8,-0.8,-0.30000000000000004,1.1,9.0,0.6000000000000001,18.200000000000003,-5.500000000000001,16
198,3447.0,-0.4,-1.0,-0.6000000000000001,-0.8,0.9,9.200000000000001,0.8,17.7,-2.5,16
199,3464.0,-0.5,-1.1,-0.6000000000000001,-0.9,0.7000000000000001,9.1,4.4,15.700000000000001,-1.1,16
200,3481.0,-0.9,-1.2000000000000002,-0.9,-1.3,0.7000000000000001,8.8,16.1,9.100000000000001,2.5,16
201,3498.0,-0.9,-1.1,-1.4000000000000001,-1.4000000000000001,0.9,8.3,24.400000000000002,0.2,8.100000000000001,16
202,3517.0,-1.0,-1.0,-1.8,-1.4000000000000001,1.0,7.9,28.3,-6.8,12.8,16
203,3531.0,-0.9,-1.0,-1.9000000000000001,-1.3,1.1,7.7,29.600000000000005,-11.000000000000002,15.899999999999999,16
204,3547.0,-0.5,-0.8,-2.3000000000000003,-0.9,1.4000000000000001,7.300000000000001,29.0,-20.2,21.200000000000003,16
205,3564.0,-0.5,-0.8,-2.3000000000000003,-0.7000000000000001,1.6,7.300000000000001,25.200000000000003,-21.0,23.400000000000002,16
206,3581.0,-0.2,-0.6000000000000001,-1.9000000000000001,-0.4,1.7000000000000002,7.7,13.900000000000002,-18.3,28.3,16
207,3597.0,0.0,-0.5,-1.6,-0.2,1.8,8.0,5.2,-15.6,31.799999999999997,16
208,3615.0,0.0,-0.4,-1.4000000000000001,-0.1,1.9000000000000001,8.1,1.4,-14.700000000000001,33.800000000000004,16
209,3631.0,-0.2,-0.4,-0.8,-0.2,1.9000000000000001,8.700000000000001,-6.300000000000001,-8.100000000000001,38.300000000000004,16
210,3648.0,-0.4,-0.2,-0.5,-0.4,2.0,9.0,-9.600000000000001,-1.0,42.60000000000001,16
211,3665.0,-0.4,-0.30000000000000004,-0.30000000000000004,-0.4,2.0,9.4,-10.1,-0.2,44.300000000000004,16
212,3682.0,-0.4,-0.2,-0.2,-0.4,2.0,9.3,-7.500000000000001,-0.2,45.6,16
213,3697.0,-0.5,-0.1,-0.30000000000000004,-0.4,2.1,9.3,-1.1,-5.7,44.4,16
214,3714.0,-0.4,-0.1,-0.2,-0.30000000000000004,2.1,9.3,2.0,-8.899999999999999,43.50000000000001,16
215,3731.0,-0.2,0.0,-0.1,-0.1,2.2,9.4,8.600000000000001,-13.6,41.800000000000004,16
216,3747.0,-0.2,0.0,0.2,0.1,2.3000000000000003,9.700000000000001,12.200000000000001,-16.8,39.1,16
217,3764.0,-0.1,-0.1,0.30000000000000004,0.2,2.2,9.8,12.299999999999999,-16.4,38.300000000000004,16
218,3782.0,-0.5,-0.2,0.8,-0.1,2.1,10.3,11.2,-11.4,36.2,16
219,3797.0,-0.7000000000000001,-0.30000000000000004,1.2000000000000002,-0.30000000000000004,2.0,10.700000000000001,11.3,-7.400000000000001,35.5,16
220,3814.0,-0.9,-0.5,1.5,-0.8,1.8,11.3,12.200000000000001,-3.9,34.50000000000001,16
221,3831.0,-1.5,-0.6000000000000001,2.0,-1.0,1.8,11.5,18.8,5.9,34.1,16
222,3847.0,-1.6,-0.9,1.7000000000000002,-1.2000000000000002,1.6,11.200000000000001,30.5,7.8,36.2,16
223,3864.0,-1.6,-0.9,1.5,-1.0,1.7000000000000002,10.9,35.699999999999996,5.7,37.9,16
224,3881.0,-1.4000000000000001,-0.8,1.1,-1.0,1.8,10.5,34.50000000000001,5.4,42.3,16
225,3897.0,-1.0,-0.7000000000000001,0.8,-0.5,2.0,10.3,14.600000000000001,10.299999999999999,45.3,16
226,3914.0,-1.0,-0.6000000000000001,1.2000000000000002,-0.6000000000000001,1.9000000000000001,11.100000000000001,0.4,14.300000000000002,45.2,16
227,3931.0,-1.2000000000000002,-1.0,2.1,-0.9,1.6,11.600000000000001,-33.9,36.300000000000004,46.800000000000004,16
228,3947.0,-1.9000000000000001,-1.4000000000000001,2.8000000000000003,-1.7000000000000002,0.9,12.4,-57.1,60.1,48.0,16
229,3964.0,-2.3000000000000003,-1.5,2.7,-2.5,0.7000000000000001,11.8,-44.300000000000004,62.7,48.10000000000001,16
230,3981.0,-2.6,-1.4000000000000001,1.1,-2.7,0.8,10.8,-27.800000000000004,55.3,47.7,16
231,3997.0,-2.5,-0.9,-0.9,-2.7,1.2000000000000002,8.8,7.400000000000001,25.4,46.300000000000004,16
232,4014.0,-1.9000000000000001,-0.6000000000000001,-1.4000000000000001,-2.0,1.6,8.200000000000001,23.700000000000003,-2.5,46.4,16
233,4031.0,-1.5,-0.6000000000000001,-1.7000000000000002,-1.7000000000000002,1.6,7.9,24.400000000000002,-6.4,46.800000000000004,16
234,4047.0,-1.1,-0.7000000000000001,-1.7000000000000002,-1.2000000000000002,1.7000000000000002,7.9,23.5,-1.4,50.8,16
235,4064.0,-0.9,-0.6000000000000001,-1.8,-1.0,1.7000000000000002,7.800000000000001,23.2,1.8000000000000003,53.400000000000006,16
236,4084.0,-0.5,-0.5,-2.3000000000000003,-0.6000000000000001,1.9000000000000001,7.2,14.400000000000002,8.0,59.1,16
237,4097.0,-0.5,-0.6000000000000001,-2.4000000000000004,-0.6000000000000001,1.8,7.1000000000000005,-3.4,21.900000000000002,65.89999999999999,16
238,4114.0,-0.8,-1.0,-1.8,-0.9,1.4000000000000001,7.7,-14.700000000000001,28.800000000000004,73.10000000000001,16
239,4131.0,-0.8,-1.1,-1.6,-0.9,1.3,7.9,-15.299999999999999,29.700000000000006,76.3,16
240,4147.0,-0.8,-1.2000000000000002,-1.4000000000000001,-1.0,1.1,8.1,-7.200000000000001,29.400000000000002,81.3,16
241,4164.0,-0.7000000000000001,-0.9,-2.2,-0.8,1.4000000000000001,7.300000000000001,5.2,22.5,83.80000000000001,16
242,4182.0,-0.4,-0.7000000000000001,-2.3000000000000003,-0.6000000000000001,1.6,7.1000000000000005,6.600000000000001,17.1,84.1,16
243,4197.0,-0.1,-0.4,-2.3000000000000003,-0.2,2.0,7.2,1.2000000000000002,12.200000000000001,80.8,16
244,4214.0,0.2,-0.1,-1.7000000000000002,0.0,2.3000000000000003,7.800000000000001,-6.4,7.699999999999999,75.1,16
245,4231.0,0.2,0.1,-1.5,0.1,2.4000000000000004,8.0,-10.0,6.600000000000001,72.10000000000001,16
246,4248.0,0.30000000000000004,0.4,-1.1,0.2,2.7,8.3,-20.0,5.6,67.3,16
247,4264.0,0.2,0.5,-0.4,0.1,2.7,9.1,-32.2,11.900000000000002,63.30000000000001,16
248,4281.0,0.2,0.5,0.0,0.1,2.6,9.4,-35.1,15.6,61.7,16
249,4297.0,-0.1,0.5,0.6000000000000001,-0.1,2.5,10.100000000000001,-31.799999999999997,17.799999999999997,57.00000000000001,16
250,4314.0,-0.2,0.5,1.0,-0.30000000000000004,2.4000000000000004,10.5,-20.8,19.400000000000002,52.5,16
251,4331.0,-0.1,0.6000000000000001,0.8,-0.2,2.5,10.3,-12.100000000000001,18.200000000000003,50.1,16
252,4347.0,0.1,0.8,0.5,0.0,2.7,10.0,5.1000000000000005,7.200000000000001,43.2,16
253,4364.0,0.30000000000000004,0.7000000000000001,0.5,0.2,2.7,10.100000000000001,10.600000000000001,-1.0,37.9,16
254,4381.0,0.30000000000000004,0.7000000000000001,0.7000000000000001,0.30000000000000004,2.7,10.200000000000001,9.5,-2.7,36.0,16
255,4397.0,0.1,0.5,1.7000000000000002,0.1,2.5,11.200000000000001,1.6,-2.3,33.300000000000004,16
256,4414.0,-0.30000000000000004,-0.1,2.7,-0.30000000000000004,1.9000000000000001,12.200000000000001,-8.899999999999999,6.300000000000001,31.799999999999997,16
257,4431.0,-0.7000000000000001,-0.4,2.9000000000000004,-0.8,1.6,12.4,-10.5,9.100000000000001,30.799999999999997,16
258,4447.0,-0.5,-0.30000000000000004,2.0,-0.6000000000000001,1.7000000000000002,11.600000000000001,-5.0,-0.8,29.1,16
259,4464.0,-0.2,0.1,1.6,-0.2,2.0,11.200000000000001,-0.6000000000000001,-18.6,23.700000000000003,16
260,4481.0,-0.1,0.0,2.1,0.0,1.9000000000000001,11.700000000000001,-5.2,-19.400000000000002,21.900000000000002,16
261,4497.0,0.30000000000000004,0.0,2.6,0.5,1.9000000000000001,12.3,-13.5,-12.100000000000001,19.1,16
262,4514.0,0.30000000000000004,-0.30000000000000004,3.3000000000000003,0.5,1.6,12.9,-24.0,-5.8,16.6,16
263,4531.0,0.1,-0.6000000000000001,3.8000000000000003,0.0,0.6000000000000001,13.9,-35.9,8.100000000000001,17.5,16
264,4547.0,-0.6000000000000001,-1.3,4.1000000000000005,-0.5,0.30000000000000004,13.9,-45.6,35.599999999999994,19.5,16
265,4564.0,-0.6000000000000001,-1.3,2.4000000000000004,-0.6000000000000001,0.2,12.200000000000001,-22.3,28.400000000000002,16.700000000000003,16
266,4587.0,-0.30000000000000004,-0.7000000000000001,0.7000000000000001,-0.4,0.8,10.5,5.0,8.3,6.500000000000001,16
267,4597.0,-0.2,-0.4,0.5,-0.30000000000000004,1.1,10.3,14.100000000000001,-3.7000000000000006,1.1,16
268,4614.0,0.2,-0.5,0.30000000000000004,0.2,1.1,10.100000000000001,23.3,-14.900000000000002,-8.3,16
269,4630.0,0.30000000000000004,-0.5,0.1,0.5,1.1,9.700000000000001,26.1,-15.299999999999999,-11.8,16
270,4647.0,0.6000000000000001,-0.5,-0.4,0.6000000000000001,1.2000000000000002,9.4,27.5,-13.200000000000003,-15.2,16
271,4664.0,0.5,-0.6000000000000001,-0.5,0.5,1.2000000000000002,9.200000000000001,18.8,-0.2,-16.5,16
272,4682.0,-0.2,-0.9,-0.1,-0.1,0.9,9.700000000000001,13.6,15.000000000000002,-13.700000000000001,16
273,4697.0,-0.2,-1.1,-0.2,-0.2,0.7000000000000001,9.5,16.6,19.1,-11.6,16
274,4714.0,-0.7000000000000001,-1.3,-0.7000000000000001,-0.9,0.6000000000000001,9.0,30.9,21.900000000000002,-8.600000000000001,16
275,4731.0,-0.6000000000000001,-1.4000000000000001,-1.8,-0.8,0.6000000000000001,7.9,46.1,14.100000000000001,-3.0,16
276,4747.0,-0.4,-1.4000000000000001,-2.2,-0.6000000000000001,0.7000000000000001,7.4,50.8,8.3,-1.8000000000000003,16
277,4764.0,-0.30000000000000004,-1.3,-2.5,-0.5,1.0,7.1000000000000005,52.2,-5.500000000000001,-2.9,16
278,4783.0,0.2,-1.4000000000000001,-1.8,0.0,1.0,7.800000000000001,46.9,-14.900000000000002,-1.6,16
279,4797.0,0.30000000000000004,-1.3,-1.6,0.1,1.2000000000000002,7.9,42.800000000000004,-14.100000000000001,-1.6,16
280,4814.0,0.30000000000000004,-1.3,-1.3,0.2,1.3,8.1,25.6,-10.200000000000001,1.5,16
281,4831.0,0.2,-1.6,-0.6000000000000001,0.1,1.0,8.9,7.8,-1.7,4.7,16
282,4847.0,0.0,-1.6,-0.2,0.0,1.0,9.3,3.4,0.9000000000000001,6.600000000000001,16
283,4864.0,-0.2,-1.6,0.1,-0.30000000000000004,1.0,9.5,2.8,4.800000000000001,10.700000000000001,16
284,4881.0,-0.5,-1.4000000000000001,0.0,-0.6000000000000001,1.2000000000000002,9.4,9.700000000000001,4.5,13.700000000000001,16
285,4897.0,-0.5,-1.4000000000000001,-0.2,-0.5,1.3,9.200000000000001,13.000000000000002,2.7,14.700000000000001,16
286,4914.0,-0.5,-1.2000000000000002,-0.4,-0.6000000000000001,1.5,9.0,15.100000000000001,-0.4,15.5,16
287,4931.0,-0.8,-0.9,-0.4,-0.8,1.8,9.0,15.8,0.6000000000000001,16.700000000000003,16
288,4947.0,-0.8,-0.8,-0.6000000000000001,-0.9,1.9000000000000001,8.8,16.0,-0.2,17.799999999999997,16
289,4964.0,-0.7000000000000001,-0.6000000000000001,-0.8,-0.7000000000000001,2.2,8.6,11.4,-4.2,20.900000000000002,16
290,4981.0,-0.6000000000000001,-0.6000000000000001,-0.30000000000000004,-0.7000000000000001,2.1,8.8,7.1000000000000005,-6.300000000000001,22.5,16
291,4997.0,-0.6000000000000001,-0.5,-0.1,-0.6000000000000001,2.3000000000000003,9.200000000000001,-0.6000000000000001,-6.8,24.8,16
292,5017.0,-0.8,-0.4,0.4,-0.8,2.3000000000000003,9.700000000000001,-7.6,-2.5,24.5,16
293,5030.0,-1.5,-0.7000000000000001,1.3,-1.5,2.0,10.700000000000001,-13.399999999999999,9.3,24.200000000000003,16
294,5047.0,-1.8,-0.8,1.6,-1.8,1.8,11.0,-12.5,14.300000000000002,24.7,16
295,5064.0,-1.9000000000000001,-1.0,1.4000000000000001,-1.9000000000000001,1.7000000000000002,10.8,-1.7,14.400000000000002,26.000000000000004,16
296,5081.0,-1.7000000000000002,-0.8,0.8,-1.7000000000000002,1.9000000000000001,10.3,7.1000000000000005,6.1000000000000005,23.900000000000006,16
297,5097.0,-1.7000000000000002,-0.8,1.1,-1.7000000000000002,1.9000000000000001,10.600000000000001,6.1000000000000005,4.2,23.0,16
298,5114.0,-1.1,-0.6000000000000001,1.4000000000000001,-1.1,2.0,10.8,-1.8000000000000003,7.8,21.7,16
299,5130.0,-0.9,-0.5,1.5,-0.9,2.1,11.0,-17.300000000000004,11.5,18.900000000000002,16
300,5148.0,-0.9,-0.6000000000000001,2.1,-1.0,2.0,11.600000000000001,-30.9,19.200000000000003,18.6,16
301,5164.0,-1.4000000000000001,-1.2000000000000002,3.2,-1.6,1.2000000000000002,12.8,-52.300000000000004,45.7,19.1,16
302,5217.0,-1.5,-0.6000000000000001,-0.1,-2.0,1.7000000000000002,9.5,7.400000000000001,14.100000000000001,18.0,16
303,5235.0,-0.7000000000000001,-0.1,-0.8,-1.2000000000000002,2.2,8.8,18.900000000000002,-12.100000000000001,14.300000000000002,16
304,5283.0,0.2,0.1,-0.9,-0.2,2.5,8.700000000000001,12.9,-5.2,14.900000000000002,16
305,5297.0,0.2,0.1,-1.0,-0.1,2.5,8.5,7.1000000000000005,3.6000000000000005,17.300000000000004,16
306,5314.0,-0.1,0.0,-1.3,-0.5,2.4000000000000004,8.200000000000001,-3.7000000000000006,20.400000000000002,24.1,16
307,5331.0,-0.2,-0.1,-1.6,-0.7000000000000001,2.3000000000000003,8.0,-9.899999999999999,28.400000000000002,31.5,16
308,5347.0,-0.4,0.0,-1.7000000000000002,-0.9,2.4000000000000004,7.800000000000001,-8.899999999999999,27.700000000000003,33.400000000000006,16
309,5364.0,-0.6000000000000001,0.1,-1.7000000000000002,-1.1,2.5,7.800000000000001,0.0,23.800000000000004,37.9,16
310,5382.0,-0.5,0.1,-2.2,-1.1,2.5,7.300000000000001,10.299999999999999,14.600000000000001,39.8,16
311,5398.0,-0.5,0.1,-2.3000000000000003,-1.0,2.6,7.300000000000001,13.8,6.600000000000001,40.9,16
312,5414.0,-0.1,0.0,-2.1,-0.7000000000000001,2.6,7.4,14.800000000000002,-8.3,45.2,16
313,5430.0,0.6000000000000001,0.2,-1.9000000000000001,0.1,2.8000000000000003,7.5,11.3,-18.8,47.1,16
314,5447.0,0.9,0.30000000000000004,-1.6,0.7000000000000001,3.1,8.1,1.4,-21.500000000000004,44.2,16
315,5464.0,1.0,0.5,-1.0,0.7000000000000001,3.1,8.4,-5.0,-17.799999999999997,41.4,16
316,5481.0,0.9,0.4,-0.30000000000000004,0.7000000000000001,3.0,9.1,-14.200000000000001,-9.0,35.5,16
317,5497.0,0.7000000000000001,0.4,0.2,0.30000000000000004,2.9000000000000004,10.100000000000001,-15.299999999999999,-4.2,32.400000000000006,16
318,5514.0,0.0,0.2,1.1,-0.1,2.7,10.5,-14.100000000000001,9.0,28.1,16
319,5531.0,-0.5,0.0,1.4000000000000001,-0.6000000000000001,2.4000000000000004,10.8,-2.8,16.900000000000002,26.6,16
320,5547.0,-0.6000000000000001,0.1,0.7000000000000001,-0.8,2.6,10.200000000000001,16.900000000000002,10.299999999999999,22.700000000000003,16
321,5564.0,-0.6000000000000001,0.30000000000000004,0.2,-0.8,2.8000000000000003,9.600000000000001,24.8,5.0,20.599999999999998,16
322,5580.0,-0.4,0.5,-0.5,-0.6000000000000001,3.2,8.9,29.0,-5.500000000000001,16.3,16
323,5597.0,-0.1,0.6000000000000001,-0.30000000000000004,-0.30000000000000004,3.3000000000000003,9.1,20.8,-13.700000000000001,11.5,16
324,5614.0,-0.1,0.5,0.1,-0.2,3.3000000000000003,9.5,15.5,-15.8,9.899999999999999,16
325,5631.0,-0.1,0.1,1.3,-0.2,2.9000000000000004,10.700000000000001,5.1000000000000005,-11.2,9.100000000000001,16
326,5647.0,-0.5,-0.2,1.7000000000000002,-0.6000000000000001,2.6,11.100000000000001,1.6,-0.2,12.200000000000001,16
327,5664.0,-0.7000000000000001,-0.30000000000000004,1.8,-0.8,2.5,11.200000000000001,3.1,1.5,14.100000000000001,16
328,5680.0,-1.0,-0.4,1.7000000000000002,-1.0,2.4000000000000004,11.100000000000001,10.5,-0.9000000000000001,16.6,16
329,5697.0,-0.7000000000000001,0.0,0.7000000000000001,-0.7000000000000001,2.9000000000000004,10.100000000000001,20.599999999999998,-10.5,16.1,16
330,5714.0,-0.6000000000000001,0.2,0.6000000000000001,-0.6000000000000001,3.1,10.0,20.7,-17.9,14.800000000000002,16
331,5731.0,-0.30000000000000004,0.0,1.4000000000000001,-0.2,2.9000000000000004,10.8,4.800000000000001,-16.0,14.0,16
332,5747.0,0.0,0.0,1.7000000000000002,0.2,2.9000000000000004,11.100000000000001,-9.8,-13.5,13.700000000000001,16
333,5764.0,0.2,0.0,1.8,0.4,2.9000000000000004,11.200000000000001,-17.1,-13.3,14.100000000000001,16
334,5781.0,0.30000000000000004,-0.2,2.5,0.5,2.6,12.0,-39.300000000000004,2.7,12.0,16
335,5798.0,-0.6000000000000001,-0.6000000000000001,3.5,-0.4,2.1,13.0,-48.0,24.8,8.4,16
336,5814.0,-0.8,-0.8,3.4000000000000004,-0.7000000000000001,1.8,12.9,-40.6,30.699999999999996,6.9,16
337,5830.0,-0.9,-1.1,2.2,-0.9,1.4000000000000001,11.8,-10.299999999999999,28.500000000000004,2.5,16
338,5848.0,-0.9,-0.7000000000000001,0.30000000000000004,-1.0,1.8,9.9,22.2,15.5,-1.8000000000000003,16
339,5864.0,-0.7000000000000001,-0.6000000000000001,-0.4,-0.8,2.0,9.200000000000001,30.200000000000003,7.200000000000001,-1.6,16
340,5882.0,0.2,-0.7000000000000001,-1.0,0.1,2.0,8.5,27.9,0.0,-1.4,16
341,5897.0,0.6000000000000001,-0.7000000000000001,-0.9,0.5,2.0,8.700000000000001,18.200000000000003,3.9,-3.8,16
342,5914.0,0.7000000000000001,-0.6000000000000001,-0.8,0.6000000000000001,2.2,8.700000000000001,13.5,6.9,-5.2,16
343,5930.0,0.7000000000000001,-0.6000000000000001,-0.7000000000000001,0.4,2.1,8.9,3.9,18.8,-8.0,16
344,5947.0,0.30000000000000004,-0.9,-0.5,0.0,1.8,9.0,1.5,28.600000000000005,-9.100000000000001,16
345,5964.0,0.0,-1.0,-0.6000000000000001,-0.30000000000000004,1.8,8.9,3.9,29.300000000000004,-9.3,16
346,5980.0,-0.6000000000000001,-1.2000000000000002,-0.5,-1.0,1.6,8.9,9.100000000000001,27.9,-7.0,16
347,5997.0,-0.9,-1.4000000000000001,-0.7000000000000001,-1.4000000000000001,1.4000000000000001,8.8,14.300000000000002,27.9,1.2000000000000002,16
348,6014.0,-0.7000000000000001,-1.4000000000000001,-0.9,-1.2000000000000002,1.5,8.6,19.1,23.3,5.300000000000001,16
349,6030.0,-0.4,-1.1,-1.4000000000000001,-1.0,1.9000000000000001,8.0,23.6,13.5,9.8,16
350,6047.0,0.0,-0.8,-1.2000000000000002,-0.7000000000000001,2.1,8.200000000000001,14.400000000000002,11.5,12.200000000000001,16
351,6064.0,0.0,-0.8,-0.8,-0.6000000000000001,2.1,8.5,7.6,13.6,12.4,16
352,6081.0,-0.2,-0.9,-0.30000000000000004,-0.9,2.0,9.0,-4.1,20.2,13.3,16
353,6097.0,-0.4,-1.1,-0.2,-1.1,1.8,9.200000000000001,-9.4,24.3,17.5,16
354,6114.0,-0.4,-1.0,-0.30000000000000004,-1.3,1.9000000000000001,8.8,-9.700000000000001,23.800000000000004,19.400000000000002,16
355,6130.0,-0.4,-0.9,-0.6000000000000001,-1.2000000000000002,2.0,8.700000000000001,-9.8,17.9,23.5,16
356,6147.0,-0.1,-0.8,-0.6000000000000001,-1.0,2.1,8.700000000000001,-10.9,12.600000000000001,23.900000000000006,16
357,6164.0,-0.2,-0.7000000000000001,-0.30000000000000004,-1.0,2.1,9.1,-11.000000000000002,9.700000000000001,23.0,16
358,6182.0,-0.2,-0.7000000000000001,-0.4,-1.1,2.1,9.0,-5.500000000000001,5.8,22.9,16
359,6198.0,0.0,-0.5,-0.9,-0.8,2.3000000000000003,8.4,1.1,-2.3,24.599999999999998,16
360,6214.0,0.2,-0.4,-1.0,-0.5,2.5,8.4,2.0,-7.1000000000000005,25.5,16
361,6230.0,0.2,-0.30000000000000004,-0.8,-0.6000000000000001,2.6,8.5,0.30000000000000004,-12.7,25.7,16
362,6247.0,0.30000000000000004,-0.30000000000000004,-0.4,-0.4,2.6,8.9,2.2,-16.8,26.1,16
363,6264.0,0.2,-0.2,-0.4,-0.4,2.7,9.200000000000001,4.7,-20.0,25.5,16
364,6281.0,0.1,-0.2,0.4,-0.4,2.7,9.700000000000001,6.8,-19.0,25.300000000000004,16
365,6298.0,-0.4,-0.4,1.3,-0.9,2.5,10.600000000000001,5.4,-1.5,26.000000000000004,16
366,6314.0,-0.9,-0.6000000000000001,1.8,-1.4000000000000001,2.3000000000000003,11.200000000000001,5.8,10.700000000000001,28.400000000000002,16
367,6331.0,-1.2000000000000002,-0.7000000000000001,2.1,-1.7000000000000002,2.2,11.4,6.300000000000001,14.900000000000002,29.400000000000002,16
368,6347.0,-1.3,-0.6000000000000001,1.8,-1.8,2.3000000000000003,11.200000000000001,11.900000000000002,19.1,30.3,16
369,6364.0,-1.3,-0.5,0.9,-1.9000000000000001,2.5,10.200000000000001,19.300000000000004,7.8,26.9,16
370,6380.0,-1.3,-0.5,0.8,-1.9000000000000001,2.5,10.200000000000001,17.0,1.8000000000000003,25.200000000000003,16
371,6397.0,-0.8,-0.7000000000000001,0.8,-1.4000000000000001,2.4000000000000004,10.200000000000001,1.3,-3.6000000000000005,22.8,16
372,6414.0,-0.7000000000000001,-0.6000000000000001,1.4000000000000001,-1.2000000000000002,2.4000000000000004,10.8,-19.6,0.6000000000000001,18.5,16
373,6430.0,-0.9,-0.6000000000000001,1.8,-1.4000000000000001,2.4000000000000004,11.100000000000001,-33.0,8.899999999999999,16.1,16
374,6447.0,-1.4000000000000001,-0.9,2.9000000000000004,-2.1,1.9000000000000001,12.3,-54.699999999999996,37.300000000000004,12.5,16
375,6464.0,-2.3000000000000003,-1.1,2.8000000000000003,-3.1,1.5,12.3,-44.5,50.0,11.000000000000002,16
376,6481.0,-2.4000000000000004,-1.2000000000000002,2.1,-3.3000000000000003,1.4000000000000001,11.600000000000001,-27.9,45.5,12.0,16
377,6497.0,-2.1,-0.7000000000000001,0.1,-3.1,1.8,9.600000000000001,8.899999999999999,22.6,15.2,16
378,6514.0,-1.8,-0.2,-0.7000000000000001,-2.8000000000000003,2.4000000000000004,8.8,26.1,-1.4,17.5,16
379,6530.0,-1.8,-0.2,-0.9,-2.7,2.5,8.6,26.200000000000003,-5.2,19.9,16
380,6547.0,-1.2000000000000002,-0.4,-1.2000000000000002,-2.2,2.4000000000000004,8.200000000000001,21.200000000000003,-1.5,28.600000000000005,16
381,6564.0,-1.0,-0.30000000000000004,-1.5,-1.9000000000000001,2.5,8.0,10.600000000000001,-0.6000000000000001,34.400000000000006,16
382,6580.0,-0.8,-0.2,-1.6,-1.7000000000000002,2.6,7.800000000000001,0.7,2.0,37.1,16
383,6597.0,-0.9,-0.30000000000000004,-1.8,-1.9000000000000001,2.4000000000000004,7.6000000000000005,-20.1,17.9,43.300000000000004,16
384,6614.0,-0.8,-0.5,-1.8,-1.7000000000000002,2.2,7.6000000000000005,-29.700000000000006,21.500000000000004,49.6,16
385,6630.0,-0.8,-0.6000000000000001,-1.9000000000000001,-1.8,2.1,7.5,-29.1,19.400000000000002,51.800000000000004,16
386,6647.0,-0.5,-0.5,-2.1,-1.4000000000000001,2.1,7.300000000000001,-22.9,10.200000000000001,56.0,16
387,6664.0,-0.2,-0.2,-2.5,-1.1,2.3000000000000003,6.9,-13.000000000000002,-1.1,56.0,16
388,6680.0,0.0,-0.1,-2.6,-0.9,2.4000000000000004,6.800000000000001,-10.0,-6.4,55.8,16
389,6697.0,0.5,0.0,-2.4000000000000004,-0.30000000000000004,2.5,7.0,-9.899999999999999,-11.3,54.4,16
390,6714.0,0.7000000000000001,0.1,-2.0,0.0,2.6,7.4,-11.2,-9.2,52.5,16
391,6730.0,0.8,0.2,-1.8,0.1,2.7,7.6000000000000005,-11.900000000000002,-9.2,51.4,16
392,6747.0,1.0,0.5,-1.7000000000000002,0.4,2.9000000000000004,7.7,-15.299999999999999,-9.700000000000001,48.9,16
393,6765.0,0.9,0.6000000000000001,-0.8,0.30000000000000004,3.0,8.6,-22.9,-2.3,44.8,16
394,6782.0,0.6000000000000001,0.6000000000000001,-0.30000000000000004,-0.1,2.8000000000000003,9.600000000000001,-25.1,2.7,42.7,16
395,6797.0,0.2,0.30000000000000004,0.7000000000000001,-0.30000000000000004,2.6,10.100000000000001,-23.0,5.300000000000001,39.8,16
396,6814.0,0.0,0.2,1.1,-0.5,2.5,10.600000000000001,-12.600000000000001,5.0,36.0,16
397,6831.0,-0.1,0.2,1.2000000000000002,-0.6000000000000001,2.5,10.700000000000001,-5.300000000000001,5.2,33.50000000000001,16
398,6847.0,-0.1,0.4,0.9,-0.5,2.7,10.4,7.699999999999999,-0.5,27.5,16
399,6864.0,0.0,0.4,0.8,-0.4,2.8000000000000003,10.3,13.6,-14.100000000000001,19.5,16
400,6881.0,0.0,0.30000000000000004,1.1,-0.30000000000000004,2.5,10.9,12.8,-19.0,15.6,16
401,6898.0,-0.1,-0.1,1.8,-0.4,2.3000000000000003,11.3,7.6,-22.5,8.100000000000001,16
402,6914.0,-0.7000000000000001,-0.5,2.3000000000000003,-1.0,1.9000000000000001,11.8,3.3000000000000007,-21.500000000000004,3.6000000000000005,16
403,6930.0,-0.6000000000000001,-0.6000000000000001,2.1,-0.4,1.9000000000000001,11.3,1.4,-22.700000000000003,3.3000000000000007,16
404,6947.0,-0.1,-0.4,1.8,-0.2,2.0,11.4,0.6000000000000001,-32.300000000000004,-0.2,16
405,6964.0,0.1,-0.30000000000000004,2.3000000000000003,0.1,2.1,11.8,-4.7,-37.0,-5.500000000000001,16
406,6981.0,0.5,0.1,2.3000000000000003,0.7000000000000001,2.4000000000000004,11.8,-6.4,-37.7,-11.000000000000002,16
407,6997.0,0.8,0.2,2.5,1.0,2.6,12.100000000000001,-8.100000000000001,-37.300000000000004,-14.0,16
408,7014.0,0.30000000000000004,0.1,3.6,0.6000000000000001,2.4000000000000004,13.3,-20.400000000000002,-14.600000000000001,-16.3,16
409,7030.0,0.0,-0.5,4.5,-0.2,1.2000000000000002,14.700000000000001,-34.60000000000001,25.300000000000004,-11.8,16
410,7047.0,-1.0,-1.2000000000000002,4.800000000000001,-0.9,1.0,14.5,-27.3,35.699999999999996,-10.1,16
411,7064.0,-1.1,-1.2000000000000002,2.2,-1.0,1.0,11.9,7.400000000000001,30.699999999999996,-6.1000000000000005,16
412,7082.0,-0.7000000000000001,-0.6000000000000001,-0.6000000000000001,-0.7000000000000001,1.7000000000000002,9.200000000000001,35.699999999999996,11.8,-8.600000000000001,16
413,7097.0,-0.5,-0.30000000000000004,-1.2000000000000002,-0.6000000000000001,1.9000000000000001,8.5,40.4,-1.1,-10.4,16
414,7114.0,0.30000000000000004,-0.5,-1.2000000000000002,0.2,1.9000000000000001,8.5,29.1,-15.700000000000001,-13.8,16
415,7130.0,0.30000000000000004,-0.7000000000000001,-0.4,0.30000000000000004,1.7000000000000002,9.3,19.6,-9.4,-16.3,16
416,7147.0,0.4,-0.7000000000000001,-0.2,0.4,1.8,9.4,19.1,-6.600000000000001,-16.3,16
417,7164.0,0.5,-0.7000000000000001,-0.7000000000000001,0.5,1.9000000000000001,8.9,17.9,0.9000000000000001,-16.5,16
418,7180.0,0.0,-0.8,-1.1,-0.1,1.8,8.5,19.400000000000002,8.8,-14.700000000000001,16
419,7197.0,-0.2,-0.9,-1.1,-0.2,1.7000000000000002,8.4,22.700000000000003,6.699999999999999,-12.7,16
420,7214.0,-0.30000000000000004,-1.0,-1.2000000000000002,-0.4,1.6,8.3,30.699999999999996,2.5,-8.100000000000001,16
421,7230.0,-0.5,-1.1,-1.3,-0.6000000000000001,1.7000000000000002,8.200000000000001,36.0,0.8,-2.4000000000000004,16
422,7247.0,-0.4,-1.1,-1.4000000000000001,-0.5,1.8,8.1,37.300000000000004,-1.8000000000000003,0.7,16
423,7265.0,-0.1,-0.9,-1.4000000000000001,-0.2,2.0,8.0,34.1,-6.4,4.1,16
424,7280.0,0.0,-0.9,-0.9,-0.1,2.1,8.5,20.2,-1.8000000000000003,6.300000000000001,16
425,7297.0,-0.1,-1.1,-0.4,-0.1,2.0,9.0,11.3,3.6000000000000005,7.500000000000001,16
426,7314.0,-0.5,-1.4000000000000001,0.30000000000000004,-0.6000000000000001,1.7000000000000002,9.700000000000001,-1.1,18.4,12.200000000000001,16
427,7330.0,-0.7000000000000001,-1.6,0.4,-0.8,1.4000000000000001,9.8,-3.3000000000000007,25.4,19.5,16
428,7347.0,-0.7000000000000001,-1.6,0.0,-0.9,1.4000000000000001,9.4,-1.5,26.1,22.4,16
429,7366.0,-0.8,-1.4000000000000001,-0.9,-1.0,1.7000000000000002,8.5,1.7,23.0,26.6,16
430,7381.0,-0.4,-1.1,-1.5,-0.7000000000000001,1.9000000000000001,7.9,-1.3,16.1,29.700000000000006,16
431,7397.0,-0.30000000000000004,-1.0,-1.5,-0.6000000000000001,2.0,7.800000000000001,-3.7000000000000006,12.600000000000001,29.400000000000002,16
432,7414.0,-0.4,-0.7000000000000001,-1.5,-0.6000000000000001,2.3000000000000003,7.800000000000001,-7.0,8.2,28.500000000000004,16
433,7430.0,-0.2,-0.7000000000000001,-1.4000000000000001,-0.5,2.3000000000000003,7.9,-7.200000000000001,2.8,30.5,16
434,7447.0,-0.1,-0.6000000000000001,-1.5,-0.4,2.3000000000000003,7.800000000000001,-6.0,-1.9,30.799999999999997,16
435,7464.0,0.0,-0.4,-1.6,-0.2,2.6,7.800000000000001,-1.4,-13.900000000000002,30.4,16
436,7481.0,0.2,0.0,-1.6,0.1,2.9000000000000004,7.800000000000001,3.8,-21.8,30.5,16
437,7497.0,0.30000000000000004,0.0,-1.3,0.30000000000000004,3.0,8.0,3.2,-21.6,30.4,16
438,7514.0,0.30000000000000004,-0.1,-0.5,0.4,2.9000000000000004,8.8,0.9000000000000001,-15.000000000000002,29.0,16
439,7530.0,0.1,-0.1,0.2,0.2,2.8000000000000003,9.5,2.4000000000000004,-11.1,28.700000000000003,16
440,7547.0,0.1,-0.1,0.5,0.30000000000000004,2.9000000000000004,9.8,2.4000000000000004,-8.2,29.200000000000003,16
441,7564.0,-0.2,-0.30000000000000004,1.3,0.0,2.7,10.600000000000001,-1.6,1.9,28.3,16
442,7580.0,-0.5,-0.30000000000000004,2.3000000000000003,-0.30000000000000004,2.6,11.700000000000001,3.1,12.299999999999999,28.3,16
443,7597.0,-0.5,-0.4,2.4000000000000004,-0.4,2.6,11.8,10.4,12.5,27.800000000000004,16
444,7614.0,-0.9,-0.30000000000000004,2.0,-0.7000000000000001,2.7,11.3,23.400000000000002,7.200000000000001,24.900000000000002,16
445,7631.0,-1.0,-0.30000000000000004,1.7000000000000002,-0.8,2.8000000000000003,11.0,18.3,2.5,25.7,16
446,7647.0,-0.8,-0.4,1.7000000000000002,-0.7000000000000001,2.7,11.0,7.8,1.9,25.900000000000002,16
447,7664.0,-0.8,-0.5,2.6,-0.6000000000000001,2.5,12.0,-19.300000000000004,7.300000000000001,25.900000000000002,16
448,7680.0,-1.3,-0.9,3.8000000000000003,-1.1,2.0,13.200000000000001,-43.900000000000006,27.5,25.900000000000002,16
449,7697.0,-1.7000000000000002,-1.1,3.9000000000000004,-1.9000000000000001,1.5,12.9,-47.0,37.400000000000006,26.300000000000004,16
450,7714.0,-1.9000000000000001,-1.4000000000000001,2.7,-2.0,1.3,12.200000000000001,-30.699999999999996,35.599999999999994,26.9,16
451,7730.0,-1.9000000000000001,-1.1,0.8,-2.0,1.6,10.4,0.0,16.0,24.599999999999998,16
452,7747.0,-1.4000000000000001,-0.7000000000000001,-0.6000000000000001,-1.5,2.0,9.0,15.5,2.7,24.200000000000003,16
453,7764.0,-1.1,-0.6000000000000001,-1.1,-1.1,2.2,8.4,31.2,-18.4,22.3,16
454,7781.0,-0.7000000000000001,-0.8,-1.5,-0.7000000000000001,2.1,7.9,25.4,-18.8,24.1,16
455,7797.0,-0.30000000000000004,-0.8,-1.3,-0.2,2.1,8.200000000000001,16.0,-10.8,27.5,16
456,7814.0,-0.2,-0.8,-1.4000000000000001,-0.1,2.2,8.0,11.8,-8.4,28.0,16
457,7830.0,-0.1,-0.6000000000000001,-1.6,0.1,2.3000000000000003,7.800000000000001,-3.1,8.2,30.4,16
458,7847.0,-0.6000000000000001,-1.0,-1.5,-0.5,1.9000000000000001,7.9,-17.5,32.6,33.6,16
459,7864.0,-0.6000000000000001,-1.1,-1.5,-0.6000000000000001,1.8,7.9,-19.5,40.1,36.5,16
460,7880.0,-1.0,-1.2000000000000002,-1.8,-1.1,1.6,7.6000000000000005,-12.200000000000001,41.900000000000006,40.2,16
461,7897.0,-0.8,-1.1,-2.5,-1.0,1.7000000000000002,6.9,0.7,34.50000000000001,45.400000000000006,16
462,7914.0,-0.6000000000000001,-1.0,-2.8000000000000003,-0.8,1.8,6.6000000000000005,5.6,28.200000000000003,46.1,16
463,7931.0,-0.2,-0.7000000000000001,-3.0,-0.4,2.1,6.300000000000001,8.700000000000001,17.300000000000004,45.6,16
464,7947.0,0.1,-0.5,-3.1,-0.30000000000000004,2.2,6.300000000000001,6.600000000000001,14.900000000000002,45.099999999999994,16
465,7964.0,0.4,-0.30000000000000004,-3.2,0.2,2.5,6.1000000000000005,-2.0,8.8,43.6,16
466,7982.0,0.9,-0.1,-2.6,0.8,2.7,6.7,-18.8,0.2,40.1,16
467,7997.0,1.2000000000000002,0.1,-1.1,1.1,2.8000000000000003,8.200000000000001,-37.1,5.300000000000001,35.1,16
468,8014.0,1.0,0.2,-0.4,0.9,2.8000000000000003,8.9,-44.5,11.000000000000002,32.400000000000006,16
469,8030.0,0.8,0.2,1.1,0.7000000000000001,2.6,10.5,-51.70000000000001,20.8,27.5,16
470,8047.0,0.2,0.0,2.3000000000000003,0.0,2.3000000000000003,11.8,-45.6,28.500000000000004,21.500000000000004,16
471,8064.0,0.1,0.0,2.6,-0.2,2.2,12.100000000000001,-36.8,29.1,18.700000000000003,16
472,8081.0,0.0,0.1,1.9000000000000001,-0.4,2.3000000000000003,11.4,-10.600000000000001,17.7,12.9,16
473,8097.0,0.5,0.5,1.1,0.2,2.7,10.600000000000001,10.299999999999999,-4.1,3.5,16
474,8114.0,0.6000000000000001,0.6000000000000001,1.2000000000000002,0.30000000000000004,2.8000000000000003,10.700000000000001,12.100000000000001,-12.5,-2.6,16
475,8130.0,0.4,0.4,2.2,0.2,2.6,11.700000000000001,8.3,-18.1,-9.2,16
476,8147.0,0.6000000000000001,0.0,2.8000000000000003,0.4,2.3000000000000003,12.3,8.8,-18.5,-12.8,16
477,8164.0,0.4,-0.1,2.8000000000000003,0.30000000000000004,2.2,12.3,11.1,-21.500000000000004,-15.700000000000001,16
478,8181.0,0.30000000000000004,-0.2,1.8,0.2,2.2,11.4,14.600000000000001,-23.400000000000002,-18.200000000000003,16
479,8197.0,0.5,-0.1,1.5,0.5,2.3000000000000003,11.100000000000001,16.5,-30.5,-20.2,16
480,8214.0,0.6000000000000001,-0.1,1.6,0.7000000000000001,2.3000000000000003,11.200000000000001,16.0,-35.9,-21.8,16
481,8230.0,1.2000000000000002,0.0,1.9000000000000001,1.4000000000000001,2.5,11.5,15.000000000000002,-41.4,-24.3,16
482,8247.0,1.3,0.4,1.9000000000000001,1.6,2.9000000000000004,11.5,7.1000000000000005,-37.2,-27.0,16
483,8264.0,1.3,0.2,2.6,1.6,2.7,12.100000000000001,-4.5,-28.200000000000003,-27.2,16
484,8281.0,0.2,-0.7000000000000001,4.7,0.5,1.8,14.3,-29.900000000000006,15.6,-24.900000000000002,16
485,8297.0,-1.1,-1.5,4.3,-1.0,0.9,14.0,-17.200000000000003,34.900000000000006,-21.200000000000003,16
486,8316.0,-1.5,-1.5,1.9000000000000001,-1.5,0.9,11.5,22.3,33.9,-19.300000000000004,16
487,8331.0,-1.8,-1.2000000000000002,0.1,-1.8,1.2000000000000002,9.8,43.2,26.5,-19.400000000000002,16
488,8347.0,-1.3,-0.8,-2.4000000000000004,-1.4000000000000001,1.8,7.2,67.2,-9.100000000000001,-19.300000000000004,16
489,8365.0,-0.4,-0.6000000000000001,-3.1,-0.4,2.3000000000000003,6.4,56.7,-37.300000000000004,-22.700000000000003,16
490,8386.0,0.2,-0.7000000000000001,-2.7,0.30000000000000004,2.3000000000000003,6.7,30.5,-37.800000000000004,-22.6,16
491,8398.0,0.5,-0.7000000000000001,-2.0,0.6000000000000001,2.3000000000000003,7.4,21.0,-34.1,-22.3,16
492,8414.0,0.4,-0.5,-1.6,0.7000000000000001,2.6,8.1,7.8,-32.0,-23.6,16
493,8431.0,0.6000000000000001,-0.30000000000000004,-1.3,0.9,2.7,8.1,-2.2,-26.6,-23.3,16
494,8447.0,0.2,-0.5,-0.8,0.5,2.5,8.6,-18.5,-3.9,-22.3,16
495,8464.0,-0.1,-0.6000000000000001,-0.30000000000000004,-0.2,2.1,9.600000000000001,-19.700000000000003,3.0,-20.7,16
496,8481.0,-0.6000000000000001,-0.8,0.6000000000000001,-0.4,2.1,10.0,-11.6,11.4,-14.300000000000002,16
497,8497.0,-1.2000000000000002,-1.2000000000000002,1.5,-1.0,1.7000000000000002,10.9,0.5,23.099999999999998,-5.2,16
498,8514.0,-1.3,-1.4000000000000001,1.6,-1.3,1.5,11.100000000000001,12.7,36.1,6.8,16
499,8530.0,-1.5,-1.3,1.2000000000000002,-1.5,1.6,10.700000000000001,20.7,39.699999999999996,11.2,16
500,8547.0,-1.6,-1.1,-0.1,-1.8,1.9000000000000001,9.3,30.000000000000004,35.3,16.5,16
501,8564.0,-1.7000000000000002,-1.0,-0.6000000000000001,-1.9000000000000001,2.1,8.4,28.200000000000003,33.6,18.5,16
502,8580.0,-1.7000000000000002,-1.0,-1.4000000000000001,-2.0,2.1,8.0,15.6,33.0,22.700000000000003,16
503,8597.0,-1.7000000000000002,-1.2000000000000002,-1.5,-2.1,1.9000000000000001,7.800000000000001,2.9,20.8,27.700000000000003,16
504,8614.0,-1.4000000000000001,-1.1,-2.1,-1.8,2.0,7.300000000000001,-2.2,3.8,32.9,16
505,8630.0,-1.3,-1.0,-2.3000000000000003,-1.6,2.1,7.0,-4.2,-3.0,35.2,16
506,8647.0,-0.9,-0.8,-2.3000000000000003,-1.2000000000000002,2.3000000000000003,7.0,-7.8,-10.299999999999999,38.1,16
507,8664.0,-0.8,-0.6000000000000001,-2.4000000000000004,-1.0,2.4000000000000004,6.9,-6.8,-15.2,38.7,16
508,8681.0,-0.7000000000000001,-0.7000000000000001,-2.5,-0.9,2.4000000000000004,6.800000000000001,-5.2,-18.8,40.7,16
509,8697.0,-0.2,-0.6000000000000001,-2.2,-0.30000000000000004,2.4000000000000004,7.0,-2.4000000000000004,-23.0,44.6,16
510,8714.0,0.0,-0.6000000000000001,-1.7000000000000002,0.1,2.4000000000000004,7.6000000000000005,-2.1,-19.0,47.60000000000001,16
511,8730.0,0.2,-0.5,-1.4000000000000001,0.30000000000000004,2.5,7.9,-2.3,-14.400000000000002,49.6,16
512,8747.0,0.2,-0.4,-0.4,0.4,2.5,8.8,-5.8,-4.4,52.1,16
513,8764.0,0.0,-0.7000000000000001,0.7000000000000001,0.2,2.3000000000000003,9.9,-10.0,10.700000000000001,53.2,16
514,8781.0,-0.2,-0.7000000000000001,1.2000000000000002,0.0,2.2,10.5,-11.6,19.700000000000003,53.2,16
515,8797.0,-0.9,-0.9,2.2,-0.8,1.9000000000000001,11.600000000000001,-12.4,36.300000000000004,52.300000000000004,16
516,8814.0,-1.4000000000000001,-1.0,2.5,-1.4000000000000001,1.9000000000000001,11.8,-2.0,35.9,51.2,16
517,8830.0,-1.4000000000000001,-0.9,2.3000000000000003,-1.4000000000000001,1.9000000000000001,11.600000000000001,5.1000000000000005,31.0,49.9,16
518,8848.0,-1.6,-0.6000000000000001,2.1,-1.6,2.2,11.5,10.1,26.5,45.400000000000006,16
519,8864.0,-1.4000000000000001,-0.5,2.3000000000000003,-1.5,2.4000000000000004,11.700000000000001,1.3,22.2,43.50000000000001,16
520,8881.0,-1.3,-0.5,2.6,-1.4000000000000001,2.3000000000000003,12.0,-7.200000000000001,20.5,42.60000000000001,16
521,8897.0,-1.5,-0.7000000000000001,3.7,-1.7000000000000002,2.1,13.100000000000001,-29.500000000000004,30.699999999999996,41.1,16
522,8914.0,-2.0,-0.9,4.0,-2.2,1.7000000000000002,13.5,-42.1,50.3,42.60000000000001,16
523,8930.0,-2.3000000000000003,-1.0,3.3000000000000003,-2.6,1.5,12.9,-38.800000000000004,54.4,43.1,16
524,8947.0,-2.5,-1.1,1.4000000000000001,-3.0,1.4000000000000001,11.0,-19.400000000000002,46.199999999999996,46.199999999999996,16
525,8964.0,-2.1,-0.7000000000000001,-0.6000000000000001,-2.7,1.7000000000000002,9.0,3.4,23.6,47.400000000000006,16
526,8981.0,-1.9000000000000001,-0.5,-1.3,-2.4000000000000004,2.0,8.3,11.900000000000002,9.600000000000001,46.6,16
527,8997.0,-1.3,-0.1,-2.0,-1.8,2.4000000000000004,7.5,20.5,-8.899999999999999,44.9,16
528,9014.0,-0.7000000000000001,0.0,-2.2,-1.2000000000000002,2.7,7.2,21.300000000000004,-8.4,45.6,16
529,9031.0,-0.6000000000000001,0.1,-2.3000000000000003,-1.0,2.8000000000000003,7.1000000000000005,20.1,-6.0,46.4,16
530,9047.0,-0.4,0.0,-2.2,-0.8,2.7,7.300000000000001,12.4,5.500000000000001,52.300000000000004,16
531,9064.0,-0.4,-0.2,-2.0,-0.8,2.6,7.4,1.7,21.500000000000004,59.80000000000001,16
532,9081.0,-0.5,-0.30000000000000004,-2.0,-1.0,2.4000000000000004,7.300000000000001,-2.5,27.2,64.2,16
533,9097.0,-0.4,-0.4,-2.0,-0.8,2.3000000000000003,7.4,-7.9,33.2,75.5,16
534,9114.0,-0.2,-0.4,-2.0,-0.7000000000000001,2.3000000000000003,7.300000000000001,-9.600000000000001,37.400000000000006,83.00000000000001,16
535,9131.0,0.0,-0.30000000000000004,-2.0,-0.5,2.5,7.4,-10.1,36.7,84.3,16
536,9147.0,0.2,0.0,-2.0,-0.4,2.7,7.4,-10.299999999999999,32.1,83.4,16
537,9165.0,0.30000000000000004,0.30000000000000004,-1.9000000000000001,-0.2,3.0,7.4,-12.7,25.4,78.60000000000001,16
538,9180.0,0.5,0.4,-1.8,-0.1,3.0,7.5,-17.400000000000002,22.9,75.9,16
539,9197.0,0.6000000000000001,0.4,-1.0,0.1,3.0,8.4,-31.3,21.8,69.5,16
540,9214.0,0.6000000000000001,0.4,-0.1,0.1,2.9000000000000004,9.3,-40.4,22.700000000000003,64.30000000000001,16
541,9231.0,0.6000000000000001,0.5,0.30000000000000004,0.0,3.0,10.100000000000001,-42.800000000000004,22.1,61.7,16
542,9247.0,0.5,0.6000000000000001,1.0,-0.1,2.9000000000000004,10.4,-46.0,24.8,56.2,16
543,9264.0,0.30000000000000004,0.6000000000000001,1.6,-0.30000000000000004,2.7,11.100000000000001,-41.0,25.8,49.800000000000004,16
544,9280.0,0.1,0.6000000000000001,1.5,-0.6000000000000001,2.7,11.0,-20.7,18.700000000000003,41.300000000000004,16
545,9297.0,0.2,0.9,1.1,-0.5,2.9000000000000004,10.600000000000001,-7.0,11.3,37.300000000000004,16
546,9314.0,0.2,1.0,0.5,-0.30000000000000004,3.3000000000000003,9.700000000000001,13.399999999999999,-5.7,30.000000000000004,16
547,9330.0,0.5,1.2000000000000002,0.5,-0.1,3.4000000000000004,10.0,17.9,-14.300000000000002,23.700000000000003,16
548,9347.0,0.5,1.1,0.8,-0.1,3.3000000000000003,10.200000000000001,17.799999999999997,-14.200000000000001,22.3,16
549,9364.0,0.6000000000000001,0.7000000000000001,1.4000000000000001,0.1,3.0,10.9,19.300000000000004,-12.8,22.4,16
550,9382.0,0.4,0.6000000000000001,1.2000000000000002,-0.1,3.0,10.700000000000001,20.0,-13.399999999999999,21.6,16
551,9397.0,0.30000000000000004,0.6000000000000001,1.2000000000000002,-0.1,3.0,10.600000000000001,16.5,-11.3,22.4,16
552,9414.0,0.1,0.1,1.7000000000000002,-0.30000000000000004,2.5,11.100000000000001,8.2,-1.9,21.7,16
553,9430.0,-0.1,0.2,1.2000000000000002,-0.4,2.7,10.700000000000001,11.6,-8.4,19.1,16
554,9449.0,0.0,0.30000000000000004,1.2000000000000002,-0.30000000000000004,2.8000000000000003,10.700000000000001,11.3,-16.1,17.5,16
555,9472.0,0.2,0.4,1.9000000000000001,0.0,2.9000000000000004,11.4,-5.0,-10.299999999999999,12.0,16
556,9481.0,0.30000000000000004,0.4,2.1,0.1,2.9000000000000004,11.600000000000001,-8.8,-9.600000000000001,11.2,16
557,9497.0,0.30000000000000004,0.30000000000000004,2.3000000000000003,0.2,2.8000000000000003,11.9,-13.5,-8.3,10.8,16
558,9514.0,-0.1,0.0,3.7,-0.30000000000000004,2.4000000000000004,13.3,-28.400000000000002,9.5,12.0,16
559,9530.0,-1.1,-0.6000000000000001,4.0,-1.3,1.7000000000000002,13.600000000000001,-29.400000000000002,32.9,15.2,16
560,9547.0,-1.4000000000000001,-0.7000000000000001,3.4000000000000004,-1.7000000000000002,1.6,13.0,-19.200000000000003,34.1,16.6,16
561,9564.0,-1.5,-0.6000000000000001,1.1,-1.9000000000000001,1.7000000000000002,10.8,7.200000000000001,22.5,14.800000000000002,16
562,9580.0,-1.5,0.0,-1.2000000000000002,-1.9000000000000001,2.3000000000000003,8.4,28.800000000000004,-1.1,10.600000000000001,16
563,9597.0,-1.0,0.2,-1.9000000000000001,-1.4000000000000001,2.6,7.800000000000001,32.0,-16.8,9.4,16
564,9614.0,-0.2,0.2,-2.2,-0.5,2.7,7.4,23.700000000000003,-31.799999999999997,4.4,16
565,9630.0,0.1,0.4,-1.9000000000000001,-0.1,2.9000000000000004,7.7,11.6,-27.700000000000003,3.0,16
566,9647.0,0.2,0.30000000000000004,-1.3,0.0,2.8000000000000003,8.3,3.7000000000000006,-25.6,3.3000000000000007,16
567,9664.0,0.0,-0.2,0.1,-0.2,2.3000000000000003,9.700000000000001,-10.600000000000001,-6.699999999999999,6.600000000000001,16
568,9681.0,-0.4,-0.5,0.5,-0.5,2.0,10.100000000000001,-4.7,11.8,13.000000000000002,16
569,9697.0,-0.6000000000000001,-0.6000000000000001,0.4,-0.7000000000000001,1.9000000000000001,10.0,4.4,17.0,16.4,16
570,9714.0,-0.8,-0.7000000000000001,-0.1,-1.0,1.9000000000000001,9.5,23.099999999999998,20.400000000000002,22.3,16
571,9730.0,-0.9,-0.7000000000000001,-0.5,-1.1,1.9000000000000001,9.0,34.900000000000006,15.299999999999999,25.4,16
572,9748.0,-0.9,-0.9,-0.30000000000000004,-1.2000000000000002,1.8,9.200000000000001,36.0,13.100000000000001,26.9,16
573,9770.0,-1.1,-1.4000000000000001,0.30000000000000004,-1.4000000000000001,1.4000000000000001,9.8,34.1,17.5,31.3,16
574,9780.0,-1.1,-1.4000000000000001,0.1,-1.4000000000000001,1.5,9.5,35.5,13.8,32.2,16
575,9797.0,-1.0,-1.3,-0.1,-1.3,1.6,9.3,34.60000000000001,6.9,32.2,16
576,9814.0,-0.9,-1.4000000000000001,-0.30000000000000004,-1.2000000000000002,1.6,9.0,24.5,7.0,30.699999999999996,16
577,9831.0,-1.0,-1.4000000000000001,-0.8,-1.3,1.7000000000000002,8.6,20.1,7.699999999999999,30.200000000000003,16
578,9847.0,-0.9,-1.4000000000000001,-1.1,-1.2000000000000002,1.8,8.200000000000001,20.5,1.8000000000000003,30.4,16
579,9864.0,-0.5,-1.3,-1.4000000000000001,-0.8,1.9000000000000001,7.9,17.9,-5.9,31.7,16
580,9880.0,-0.4,-1.2000000000000002,-1.5,-0.6000000000000001,2.1,7.800000000000001,10.4,-3.9,34.400000000000006,16
581,9897.0,-0.2,-1.2000000000000002,-1.5,-0.1,2.1,7.9,7.1000000000000005,-3.9,36.0,16
582,9914.0,0.1,-1.0,-1.4000000000000001,0.0,2.2,7.9,4.5,-5.2,35.3,16
583,9931.0,0.2,-0.8,-1.6,0.2,2.5,7.7,5.300000000000001,-7.400000000000001,35.0,16
584,9947.0,0.4,-0.7000000000000001,-1.7000000000000002,0.5,2.6,7.7,4.9,-8.700000000000001,34.400000000000006,16
585,9964.0,0.6000000000000001,-0.6000000000000001,-1.3,0.6000000000000001,2.7,7.9,3.6000000000000005,-10.700000000000001,31.400000000000002,16
586,9980.0,0.5,-0.6000000000000001,-0.5,0.6000000000000001,2.7,8.700000000000001,4.7,-5.9,29.0,16
587,9997.0,0.4,-0.6000000000000001,0.1,0.5,2.7,9.3,6.1000000000000005,-1.4,28.200000000000003,16
588,10014.0,0.30000000000000004,-0.6000000000000001,0.4,0.4,2.7,9.5,7.8,7.699999999999999,27.2,16
589,10030.0,-0.1,-0.8,1.2000000000000002,0.0,2.5,10.4,9.100000000000001,16.900000000000002,26.6,16
590,10048.0,-0.2,-0.8,1.5,-0.1,2.6,10.700000000000001,15.000000000000002,24.8,26.000000000000004,16
591,10064.0,-0.5,-0.6000000000000001,1.7000000000000002,-0.4,2.7,10.9,18.0,29.700000000000006,24.599999999999998,16
592,10080.0,-0.9,-0.7000000000000001,2.0,-1.0,2.8000000000000003,11.200000000000001,23.400000000000002,38.800000000000004,22.8,16
593,10097.0,-1.2000000000000002,-0.7000000000000001,1.2000000000000002,-1.4000000000000001,2.8000000000000003,10.3,32.7,30.000000000000004,22.000000000000004,16
594,10114.0,-1.4000000000000001,-0.8,1.1,-1.6,2.8000000000000003,10.200000000000001,30.699999999999996,23.900000000000006,22.8,16
595,10130.0,-1.2000000000000002,-1.0,0.8,-1.4000000000000001,2.7,10.0,3.9,24.200000000000003,26.5,16
596,10147.0,-1.0,-1.1,1.5,-1.3,2.4000000000000004,10.700000000000001,-33.9,31.799999999999997,27.400000000000002,16
597,10164.0,-1.2000000000000002,-1.3,1.8,-1.5,2.2,11.0,-52.300000000000004,35.1,26.300000000000004,16
598,10182.0,-1.8,-1.7000000000000002,2.7,-2.2,1.5,12.0,-78.9,43.50000000000001,23.900000000000006,16
599,10197.0,-2.0,-1.9000000000000001,2.7,-2.6,1.1,12.100000000000001,-71.7,41.900000000000006,18.4,16
600,10214.0,-2.1,-1.6,2.0,-2.7,1.2000000000000002,11.5,-54.6,32.1,14.900000000000002,16
601,10230.0,-2.0,-1.1,0.6000000000000001,-2.7,1.7000000000000002,10.0,-17.300000000000004,7.8,10.9,16
602,10247.0,-1.5,-0.8,-0.1,-2.1,2.0,9.4,0.9000000000000001,-5.8,9.700000000000001,16
603,10264.0,-1.2000000000000002,-0.7000000000000001,-0.4,-1.9000000000000001,2.1,9.1,4.5,-5.0,10.200000000000001,16
604,10280.0,-0.9,-0.7000000000000001,-0.6000000000000001,-1.6,2.1,8.8,8.0,2.6,14.100000000000001,16
605,10297.0,-0.8,-0.5,-0.7000000000000001,-1.5,2.3000000000000003,8.700000000000001,3.9,15.899999999999999,19.300000000000004,16
606,10314.0,-0.8,-0.4,-0.8,-1.6,2.4000000000000004,8.6,-0.2,24.900000000000002,22.3,16
607,10330.0,-1.1,-0.4,-1.2000000000000002,-1.9000000000000001,2.4000000000000004,8.200000000000001,-8.3,42.60000000000001,29.400000000000002,16
608,10347.0,-1.0,-0.5,-1.8,-2.0,2.3000000000000003,7.6000000000000005,-9.5,48.2,37.50000000000001,16
609,10369.0,-0.9,-0.30000000000000004,-2.6,-2.0,2.4000000000000004,6.7,-2.0,39.0,43.2,16
610,10381.0,-0.7000000000000001,-0.2,-3.0,-1.8,2.6,6.300000000000001,1.3,30.9,45.9,16
611,10397.0,-0.30000000000000004,0.0,-3.4000000000000004,-1.4000000000000001,2.8000000000000003,5.9,1.3,18.4,48.9,16
612,10414.0,0.0,0.1,-3.3000000000000003,-1.1,2.8000000000000003,6.0,-2.0,16.0,49.800000000000004,16
613,10430.0,0.1,0.1,-3.0,-1.0,2.9000000000000004,6.2,-11.000000000000002,11.6,51.6,16
614,10447.0,0.7000000000000001,0.2,-2.4000000000000004,-0.4,3.0,6.800000000000001,-20.3,1.1,54.6,16
615,10464.0,1.0,0.30000000000000004,-2.0,-0.1,3.0,7.300000000000001,-25.1,-3.5,55.1,16
616,10482.0,1.2000000000000002,0.6000000000000001,-0.8,0.2,3.2,8.5,-33.7,-2.7,55.1,16
617,10497.0,1.6,0.9,-0.1,0.7000000000000001,3.5,9.200000000000001,-36.6,-1.6,53.9,16
618,10514.0,1.7000000000000002,1.0,0.2,0.8,3.5,10.0,-37.400000000000006,-1.6,52.00000000000001,16
619,10530.0,1.4000000000000001,1.0,1.3,0.6000000000000001,3.4000000000000004,10.700000000000001,-39.699999999999996,3.1,45.3,16
620,10547.0,0.9,0.8,2.3000000000000003,0.1,3.1,11.700000000000001,-33.400000000000006,10.5,40.4,16
621,10564.0,0.9,0.8,2.3000000000000003,0.1,3.1,11.5,-24.7,9.2,37.50000000000001,16
622,10581.0,0.9,0.9,1.7000000000000002,0.1,3.1,11.200000000000001,-3.6000000000000005,-2.8,28.700000000000003,16
623,10597.0,0.9,1.0,1.1,0.2,3.3000000000000003,10.600000000000001,8.899999999999999,-15.399999999999999,21.300000000000004,16
624,10614.0,1.1,1.1,1.0,0.7000000000000001,3.4000000000000004,10.8,10.600000000000001,-22.8,17.200000000000003,16
625,10630.0,1.2000000000000002,0.9,1.8,0.7000000000000001,3.3000000000000003,11.3,6.9,-30.699999999999996,7.200000000000001,16
626,10647.0,0.7000000000000001,0.4,2.8000000000000003,0.2,2.8000000000000003,12.3,5.300000000000001,-25.4,1.5,16
627,10664.0,0.4,0.1,3.0,0.0,2.5,12.5,7.0,-23.800000000000004,0.0,16
628,10680.0,0.5,0.0,2.0,0.1,2.4000000000000004,11.5,14.900000000000002,-22.4,-1.1,16
629,10697.0,0.30000000000000004,0.0,1.8,0.1,2.5,11.4,17.7,-32.2,-2.4000000000000004,16
630,10714.0,0.2,-0.2,1.9000000000000001,0.2,2.3000000000000003,11.5,15.700000000000001,-32.400000000000006,-2.3,16
631,10730.0,0.5,-0.1,1.9000000000000001,0.4,2.5,11.5,12.0,-35.2,-3.3000000000000007,16
632,10747.0,0.5,-0.1,2.4000000000000004,0.5,2.4000000000000004,11.9,-4.4,-27.400000000000002,-5.4,16
633,10764.0,0.4,-0.4,2.6,0.1,1.8,12.4,-16.8,-14.900000000000002,-5.500000000000001,16
634,10782.0,-0.4,-1.1,2.9000000000000004,-0.4,1.4000000000000001,12.5,-30.599999999999998,4.5,-7.1000000000000005,16
635,10797.0,-0.9,-1.4000000000000001,2.5,-0.9,0.9,12.200000000000001,-24.200000000000003,11.700000000000001,-8.100000000000001,16
636,10814.0,-0.7000000000000001,-1.2000000000000002,0.9,-0.8,1.0,10.600000000000001,-7.0,13.900000000000002,-11.1,16
637,10830.0,-0.6000000000000001,-1.0,0.1,-0.7000000000000001,1.3,9.8,0.9000000000000001,7.200000000000001,-12.9,16
638,10847.0,0.1,-1.0,-0.1,0.0,1.3,9.600000000000001,0.30000000000000004,-1.6,-14.600000000000001,16
639,10867.0,0.30000000000000004,-1.0,0.6000000000000001,0.1,1.2000000000000002,10.3,-8.600000000000001,14.900000000000002,-16.4,16
640,10881.0,0.1,-1.2000000000000002,1.1,-0.1,1.1,10.8,-9.600000000000001,21.900000000000002,-16.8,16
641,10897.0,-0.4,-1.5,1.7000000000000002,-0.6000000000000001,0.7000000000000001,11.4,0.2,25.900000000000002,-16.6,16
642,10914.0,-0.8,-1.4000000000000001,0.7000000000000001,-1.1,0.8,10.5,21.300000000000004,20.8,-15.399999999999999,16
643,10930.0,-0.9,-1.4000000000000001,0.2,-1.3,0.8,9.9,31.0,16.0,-14.100000000000001,16
644,10948.0,-0.9,-1.5,-0.8,-1.4000000000000001,0.9,8.8,44.5,8.100000000000001,-13.100000000000001,16
645,10968.0,-1.1,-1.4000000000000001,-1.9000000000000001,-1.5,1.2000000000000002,7.7,54.800000000000004,0.30000000000000004,-12.5,16
646,10981.0,-0.9,-1.4000000000000001,-2.4000000000000004,-1.4000000000000001,1.3,7.1000000000000005,56.7,-8.3,-11.900000000000002,16
647,10997.0,-0.6000000000000001,-1.2000000000000002,-3.3000000000000003,-1.0,1.6,6.2,50.60000000000001,-24.3,-11.3,16
648,11014.0,-0.2,-1.2000000000000002,-3.0,-0.6000000000000001,1.7000000000000002,6.4,31.6,-30.3,-10.700000000000001,16
649,11032.0,-0.2,-1.3,-2.5,-0.5,1.6,7.300000000000001,20.8,-28.200000000000003,-10.4,16
650,11047.0,-0.2,-1.4000000000000001,-1.8,-0.5,1.6,7.6000000000000005,6.0,-19.400000000000002,-9.5,16
651,11066.0,-0.4,-1.5,-1.6,-0.6000000000000001,1.5,7.800000000000001,1.3,-10.9,-6.8,16
652,11081.0,-0.5,-1.5,-1.5,-0.7000000000000001,1.4000000000000001,7.800000000000001,0.2,-4.5,-4.2,16
653,11097.0,-0.7000000000000001,-1.6,-1.6,-0.9,1.3,7.800000000000001,-0.6000000000000001,5.4,2.8,16
654,11114.0,-0.7000000000000001,-1.6,-1.5,-0.9,1.3,7.800000000000001,4.800000000000001,4.9,7.8,16
655,11130.0,-0.7000000000000001,-1.5,-1.7000000000000002,-1.0,1.4000000000000001,7.7,8.8,3.8,9.899999999999999,16
656,11147.0,-0.8,-1.1,-1.8,-1.1,1.8,7.5,12.5,1.2000000000000002,13.100000000000001,16
657,11167.0,-0.8,-1.0,-1.7000000000000002,-1.0,2.0,7.6000000000000005,8.899999999999999,-1.1,16.6,16
658,11180.0,-0.8,-1.0,-1.6,-1.0,2.0,7.7,6.9,-2.7,18.700000000000003,16
659,11197.0,-0.4,-0.6000000000000001,-1.4000000000000001,-0.6000000000000001,2.4000000000000004,7.9,3.2,-7.0,21.300000000000004,16
660,11214.0,-0.9,-0.2,-0.30000000000000004,-1.1,2.8000000000000003,9.0,-2.7,-8.8,20.900000000000002,16
661,11230.0,-1.1,-0.30000000000000004,0.5,-1.3,2.7,9.8,-6.9,-6.4,22.2,16
662,11247.0,-1.8,-0.6000000000000001,2.0,-1.9000000000000001,2.4000000000000004,11.3,-12.5,7.0,27.400000000000002,16
663,11268.0,-2.2,-0.7000000000000001,2.7,-2.3000000000000003,2.2,12.0,-6.699999999999999,14.0,33.300000000000004,16
664,11281.0,-2.2,-0.6000000000000001,2.2,-2.3000000000000003,2.4000000000000004,11.600000000000001,-0.1,11.3,35.2,16
665,11297.0,-1.8,-0.2,1.8,-2.0,2.8000000000000003,11.100000000000001,3.3000000000000007,-6.2,36.400000000000006,16
666,11314.0,-1.3,0.0,2.3000000000000003,-1.4000000000000001,2.9000000000000004,11.700000000000001,-11.700000000000001,-5.6,34.2,16
667,11330.0,-1.3,0.0,2.6,-1.3,2.9000000000000004,12.0,-22.9,0.30000000000000004,31.5,16
668,11347.0,-1.3,-0.2,3.2,-1.4000000000000001,2.5,12.700000000000001,-46.7,9.4,25.7,16
669,11368.0,-1.8,-0.9,4.1000000000000005,-2.0,1.6,13.600000000000001,-65.3,31.3,24.0,16
670,11380.0,-2.0,-1.1,4.0,-2.5,1.2000000000000002,13.100000000000001,-64.0,38.2,23.800000000000004,16
671,11397.0,-2.3000000000000003,-0.9,2.6,-2.6,1.3,12.200000000000001,-36.7,28.200000000000003,22.1,16
672,11414.0,-2.0,-0.4,0.7000000000000001,-2.4000000000000004,1.8,10.4,-4.9,4.0,20.5,16
673,11430.0,-1.8,-0.30000000000000004,0.2,-1.9000000000000001,2.1,9.5,13.200000000000003,-18.0,19.200000000000003,16
674,11447.0,-1.3,-0.1,-0.6000000000000001,-1.6,2.2,9.1,16.900000000000002,-21.8,20.599999999999998,16
675,11466.0,-0.8,-0.30000000000000004,-1.0,-1.0,2.0,8.6,14.700000000000001,-17.7,26.6,16
676,11482.0,-0.5,-0.6000000000000001,-1.1,-0.6000000000000001,1.8,8.5,-2.0,-0.9000000000000001,36.1,16
677,11497.0,-0.5,-0.7000000000000001,-1.1,-0.6000000000000001,1.6,8.5,-11.700000000000001,10.9,41.900000000000006,16
678,11514.0,-0.6000000000000001,-0.8,-1.2000000000000002,-0.8,1.4000000000000001,8.4,-22.4,29.500000000000004,50.8,16
679,11530.0,-0.6000000000000001,-0.7000000000000001,-1.7000000000000002,-0.9,1.5,7.9,-20.8,31.9,53.400000000000006,16
680,11547.0,-0.8,-0.7000000000000001,-2.8000000000000003,-1.1,1.5,6.800000000000001,-11.000000000000002,26.6,56.50000000000001,16
681,11572.0,-0.30000000000000004,-0.4,-3.9000000000000004,-0.7000000000000001,1.7000000000000002,5.6000000000000005,-0.8,13.200000000000003,59.00000000000001,16
682,11580.0,-0.30000000000000004,-0.4,-3.9000000000000004,-0.7000000000000001,1.7000000000000002,5.6000000000000005,-0.8,13.200000000000003,59.00000000000001,16
683,11597.0,-0.1,-0.30000000000000004,-4.0,-0.4,1.9000000000000001,5.5,-2.5,4.1,58.800000000000004,16
684,11614.0,0.5,-0.30000000000000004,-3.5,0.30000000000000004,1.9000000000000001,5.9,-7.8,1.4,57.00000000000001,16
685,11630.0,0.4,0.0,-2.8000000000000003,0.2,2.1,6.7,-10.600000000000001,2.4000000000000004,53.400000000000006,16
686,11647.0,0.7000000000000001,0.2,-2.5,0.5,2.3000000000000003,7.0,-10.700000000000001,3.1,53.400000000000006,16
687,11666.0,1.2000000000000002,0.5,-1.7000000000000002,1.0,2.6,7.7,-12.600000000000001,4.7,49.6,16
688,11681.0,1.2000000000000002,0.9,-0.5,1.1,2.9000000000000004,9.0,-20.900000000000002,9.100000000000001,44.300000000000004,16
689,11697.0,1.1,0.9,0.6000000000000001,0.9,2.9000000000000004,10.100000000000001,-25.7,13.000000000000002,41.6,16
690,11714.0,0.8,0.7000000000000001,2.2,0.6000000000000001,2.6,11.700000000000001,-28.900000000000002,20.599999999999998,36.1,16
691,11730.0,0.30000000000000004,0.8,2.5,0.1,2.6,12.100000000000001,-17.5,21.0,29.300000000000004,16
692,11747.0,0.30000000000000004,0.8,2.4000000000000004,0.0,2.6,11.9,-10.4,14.900000000000002,25.300000000000004,16
693,11766.0,0.1,0.9,2.2,-0.1,2.7,11.8,-0.9000000000000001,0.1,14.100000000000001,16
694,11780.0,0.2,1.0,2.3000000000000003,0.0,2.9000000000000004,11.9,6.0,-17.5,3.1,16
695,11797.0,0.30000000000000004,1.0,2.6,0.1,2.8000000000000003,12.200000000000001,9.100000000000001,-27.0,-2.5,16
696,11814.0,0.30000000000000004,0.8,3.0,0.2,2.7,12.600000000000001,10.8,-35.8,-9.5,16
697,11830.0,0.2,0.30000000000000004,3.0,0.30000000000000004,2.2,12.700000000000001,10.299999999999999,-37.300000000000004,-10.700000000000001,16
698,11847.0,0.4,0.2,2.8000000000000003,0.5,2.2,12.4,12.8,-40.2,-10.9,16
699,11869.0,0.6000000000000001,0.6000000000000001,2.4000000000000004,0.9,2.6,12.100000000000001,18.6,-47.1,-11.6,16
700,11880.0,1.1,0.6000000000000001,2.4000000000000004,1.5,2.6,12.100000000000001,12.4,-47.900000000000006,-11.900000000000002,16
701,11897.0,1.2000000000000002,0.7000000000000001,2.5,1.7000000000000002,2.8000000000000003,12.100000000000001,8.0,-46.6,-13.399999999999999,16
702,11914.0,0.8,-0.1,3.9000000000000004,1.4000000000000001,2.0,13.600000000000001,-11.700000000000001,-27.3,-12.4,16
703,11930.0,-0.8,-1.7000000000000002,5.9,-0.2,0.2,15.700000000000001,-36.8,28.400000000000002,-5.1000000000000005,16
704,11947.0,-1.6,-2.2,5.5,-1.1,-0.30000000000000004,15.3,-29.1,39.8,-1.8000000000000003,16
705,11965.0,-1.7000000000000002,-2.0,2.0,-1.3,0.0,11.9,18.200000000000003,25.200000000000003,-0.4,16
706,11981.0,-1.3,-1.0,-1.6,-1.0,1.1,8.200000000000001,51.70000000000001,-3.8,-6.500000000000001,16
707,11997.0,-1.2000000000000002,-0.7000000000000001,-2.2,-0.9,1.4000000000000001,7.6000000000000005,51.50000000000001,-22.5,-9.899999999999999,16
708,12014.0,-0.4,-1.0,-1.5,0.1,1.3,8.200000000000001,28.700000000000003,-35.699999999999996,-13.100000000000001,16
709,12030.0,-0.30000000000000004,-1.2000000000000002,0.4,0.2,1.1,10.100000000000001,13.8,-14.5,-14.600000000000001,16
710,12047.0,-0.5,-1.2000000000000002,0.4,0.0,1.1,10.100000000000001,13.5,-8.600000000000001,-14.600000000000001,16
711,12067.0,-0.30000000000000004,-0.8,-0.6000000000000001,0.30000000000000004,1.6,9.1,11.4,3.0,-12.8,16
712,12082.0,-0.8,-0.7000000000000001,-1.5,-0.4,1.6,8.1,5.300000000000001,20.1,-10.5,16
713,12099.0,-1.5,-1.0,-1.6,-1.1,1.4000000000000001,8.0,8.5,19.400000000000002,-7.6,16
714,12114.0,-1.6,-1.0,-1.7000000000000002,-1.3,1.4000000000000001,7.9,13.000000000000002,20.3,-4.6,16
715,12130.0,-1.9000000000000001,-1.1,-2.1,-1.7000000000000002,1.4000000000000001,7.5,22.1,22.8,3.3000000000000007,16
716,12147.0,-1.9000000000000001,-1.0,-2.5,-1.7000000000000002,1.5,7.1000000000000005,24.7,20.2,7.8,16
717,12169.0,-1.5,-1.2000000000000002,-2.3000000000000003,-1.4000000000000001,1.4000000000000001,7.300000000000001,16.4,14.100000000000001,19.9,16
718,12180.0,-1.4000000000000001,-1.2000000000000002,-1.9000000000000001,-1.3,1.5,7.6000000000000005,11.700000000000001,17.200000000000003,22.1,16
719,12197.0,-1.3,-1.0,-1.8,-1.2000000000000002,1.7000000000000002,7.800000000000001,9.2,21.0,24.1,16
720,12214.0,-1.2000000000000002,-1.0,-1.5,-1.2000000000000002,1.6,8.0,6.600000000000001,25.200000000000003,25.300000000000004,16
721,12230.0,-1.6,-1.4000000000000001,-1.1,-1.7000000000000002,1.2000000000000002,8.4,2.2,30.4,30.5,16
722,12247.0,-1.2000000000000002,-1.5,-1.3,-1.4000000000000001,1.1,8.200000000000001,6.4,22.3,38.400000000000006,16
723,12264.0,-1.0,-1.4000000000000001,-1.6,-1.1,1.2000000000000002,7.9,10.0,13.900000000000002,41.0,16
724,12281.0,-0.5,-0.9,-1.4000000000000001,-0.7000000000000001,1.7000000000000002,8.1,8.8,5.2,44.6,16
725,12298.0,-0.30000000000000004,-0.5,-0.9,-0.4,2.2,8.5,5.7,6.1000000000000005,45.2,16
726,12314.0,-0.30000000000000004,-0.5,-0.6000000000000001,-0.4,2.2,8.8,1.9,4.2,45.400000000000006,16
727,12330.0,-0.2,-0.6000000000000001,-0.2,-0.30000000000000004,2.1,9.200000000000001,3.6000000000000005,-2.2,45.9,16
728,12347.0,-0.2,-0.5,-0.30000000000000004,-0.1,2.4000000000000004,9.200000000000001,5.4,-3.4,46.9,16
729,12366.0,0.0,-0.2,0.0,0.0,2.5,9.3,8.2,-6.4,50.2,16
730,12380.0,0.0,-0.1,0.30000000000000004,0.1,2.7,9.700000000000001,7.300000000000001,-10.1,51.50000000000001,16
731,12397.0,0.2,-0.2,1.5,0.4,2.5,10.9,3.8,-11.700000000000001,53.0,16
732,12414.0,0.1,-0.2,2.1,0.30000000000000004,2.5,11.5,-3.9,-2.5,54.199999999999996,16
733,12430.0,-0.30000000000000004,-0.30000000000000004,3.0,0.0,2.4000000000000004,12.5,-2.7,8.2,52.300000000000004,16
734,12447.0,-0.4,-0.6000000000000001,2.7,-0.1,2.1,12.200000000000001,9.899999999999999,5.500000000000001,50.60000000000001,16
735,12473.0,-0.4,-0.5,2.2,-0.1,2.2,11.700000000000001,21.6,-2.7,47.60000000000001,16
736,12480.0,-0.4,-0.5,2.1,0.0,2.3000000000000003,11.5,20.7,-4.4,46.50000000000001,16
737,12497.0,-0.30000000000000004,-0.4,2.1,0.2,2.5,11.700000000000001,5.9,0.9000000000000001,42.0,16
738,12514.0,-0.30000000000000004,-0.4,2.4000000000000004,0.1,2.5,11.9,-6.699999999999999,7.300000000000001,39.1,16
739,12530.0,-0.8,-0.9,3.9000000000000004,-0.5,1.8,13.4,-40.4,30.799999999999997,35.3,16
740,12547.0,-2.0,-1.5,4.2,-1.8,1.0,13.8,-55.0,58.60000000000001,32.400000000000006,16
741,12566.0,-2.4000000000000004,-1.6,3.4000000000000004,-2.5,0.8,12.0,-29.500000000000004,54.0,30.599999999999998,16
742,12583.0,-2.5,-1.5,0.9,-2.5,0.8,10.600000000000001,-11.1,45.3,28.500000000000004,16
743,12597.0,-2.6,-1.1,-1.5,-2.7,1.3,8.1,21.400000000000002,18.4,25.300000000000004,16
744,12614.0,-2.3000000000000003,-1.0,-2.4000000000000004,-2.5,1.5,7.300000000000001,29.500000000000004,3.0,25.8,16
745,12630.0,-1.8,-1.0,-3.6,-1.9000000000000001,1.5,5.9,28.0,-11.1,28.400000000000002,16
746,12647.0,-1.7000000000000002,-1.1,-3.8000000000000003,-1.8,1.5,5.7,12.200000000000001,-4.9,37.400000000000006,16
747,12665.0,-1.6,-1.2000000000000002,-3.5,-1.6,1.3,6.0,0.0,2.1,44.8,16
748,12680.0,-1.5,-1.7000000000000002,-2.9000000000000004,-1.6,0.8,6.6000000000000005,-34.800000000000004,25.6,58.5,16
749,12697.0,-1.9000000000000001,-1.9000000000000001,-2.2,-2.1,0.4,7.300000000000001,-59.40000000000001,42.0,67.3,16
750,12714.0,-2.0,-1.8,-2.1,-2.2,0.4,7.4,-61.199999999999996,45.0,71.7,16
751,12730.0,-1.7000000000000002,-1.2000000000000002,-2.9000000000000004,-2.0,0.8,6.7,-48.400000000000006,41.199999999999996,77.7,16
752,12747.0,-1.4000000000000001,-0.6000000000000001,-3.5,-1.8,1.2000000000000002,6.1000000000000005,-32.1,34.7,76.4,16
753,12766.0,-1.5,-0.4,-3.7,-1.9000000000000001,1.5,5.9,-25.0,32.400000000000006,75.60000000000001,16
754,12780.0,-1.0,-0.4,-3.1,-1.5,1.4000000000000001,6.4,-17.799999999999997,21.500000000000004,77.60000000000001,16
755,12797.0,-0.4,-0.30000000000000004,-2.4000000000000004,-0.9,1.5,7.1000000000000005,-17.799999999999997,13.8,77.3,16
756,12814.0,-0.30000000000000004,0.0,-2.0,-0.8,1.7000000000000002,7.5,-18.8,10.200000000000001,77.3,16
757,12830.0,0.30000000000000004,0.2,-0.5,-0.1,1.9000000000000001,9.0,-20.5,2.4000000000000004,78.3,16
758,12847.0,1.1,1.0,0.4,0.7000000000000001,2.6,9.9,-19.700000000000003,3.1,74.80000000000001,16
759,12870.0,1.4000000000000001,1.5,1.0,1.0,3.1,10.5,-34.800000000000004,11.700000000000001,65.5,16
760,12880.0,1.3,1.5,1.7000000000000002,0.9,3.0,11.200000000000001,-46.1,19.300000000000004,60.5,16
761,12897.0,0.7000000000000001,1.2000000000000002,3.2,0.30000000000000004,2.5,12.8,-52.80000000000001,21.0,49.800000000000004,16
762,12914.0,0.4,0.8,3.8000000000000003,-0.1,2.0,13.4,-46.199999999999996,15.399999999999999,45.6,16
763,12930.0,0.2,0.7000000000000001,3.7,-0.30000000000000004,1.9000000000000001,13.4,-23.6,4.6,39.50000000000001,16
764,12947.0,0.2,0.8,2.9000000000000004,-0.2,2.0,12.600000000000001,1.4,-12.5,35.1,16
765,12969.0,0.6000000000000001,0.8,2.7,0.2,2.0,12.4,17.0,-28.700000000000003,30.599999999999998,16
766,12983.0,0.7000000000000001,0.7000000000000001,2.6,0.4,1.9000000000000001,12.3,20.1,-30.5,28.200000000000003,16
767,12997.0,0.6000000000000001,0.6000000000000001,2.5,0.4,1.9000000000000001,12.200000000000001,22.700000000000003,-30.200000000000003,22.8,16
768,13014.0,0.4,0.4,2.5,0.30000000000000004,1.7000000000000002,12.200000000000001,23.0,-31.2,18.6,16
769,13030.0,0.5,0.2,2.2,0.5,1.7000000000000002,12.0,24.200000000000003,-32.9,17.1,16
770,13047.0,1.0,0.5,1.9000000000000001,1.2000000000000002,2.1,11.600000000000001,26.6,-40.2,13.100000000000001,16
771,13067.0,1.0,0.5,2.5,1.3,2.1,12.200000000000001,16.3,-29.700000000000006,11.1,16
772,13080.0,0.8,0.30000000000000004,2.7,1.2000000000000002,1.9000000000000001,12.5,10.600000000000001,-18.6,11.900000000000002,16
773,13097.0,0.4,-0.4,3.9000000000000004,0.8,1.3,13.700000000000001,1.3,-0.5,15.000000000000002,16
774,13113.0,-1.0,-1.6,4.9,-0.7000000000000001,0.0,14.8,-7.500000000000001,28.3,19.1,16
775,13130.0,-1.5,-2.1,4.7,-1.3,-0.5,14.600000000000001,-2.5,37.400000000000006,22.1,16
776,13147.0,-1.4000000000000001,-2.1,2.1,-1.2000000000000002,-0.4,12.0,36.0,21.400000000000002,21.900000000000002,16
777,13165.0,-0.8,-1.2000000000000002,-1.1,-0.7000000000000001,0.7000000000000001,8.700000000000001,68.0,-7.500000000000001,14.400000000000002,16
778,13181.0,-0.9,-0.9,-1.7000000000000002,-0.7000000000000001,1.1,8.1,68.0,-21.300000000000004,10.0,16
779,13197.0,0.0,-1.1,-1.4000000000000001,0.30000000000000004,1.1,8.4,39.0,-29.200000000000003,4.1,16
780,13213.0,-0.1,-1.6,0.4,0.2,0.6000000000000001,10.100000000000001,11.000000000000002,-8.8,-0.8,16
781,13231.0,-0.4,-1.8,1.0,0.0,0.4,10.700000000000001,5.6,-4.9,-1.8000000000000003,16
782,13247.0,-0.6000000000000001,-1.7000000000000002,0.8,-0.30000000000000004,0.5,10.600000000000001,10.0,-2.0,-3.6000000000000005,16
783,13264.0,-1.0,-1.5,-0.6000000000000001,-0.7000000000000001,0.8,9.1,23.2,5.0,-3.8,16
784,13281.0,-1.0,-1.4000000000000001,-1.2000000000000002,-0.7000000000000001,0.9,8.6,28.500000000000004,1.3,-3.8,16
785,13297.0,-1.2000000000000002,-1.4000000000000001,-1.7000000000000002,-0.9,1.0,8.0,36.0,-7.500000000000001,-6.500000000000001,16
786,13314.0,-1.3,-1.4000000000000001,-2.1,-0.9,1.1,7.6000000000000005,43.900000000000006,-11.1,-7.1000000000000005,16
787,13330.0,-1.1,-1.3,-2.4000000000000004,-0.8,1.3,7.2,47.3,-12.8,-6.300000000000001,16
788,13348.0,-0.6000000000000001,-1.3,-2.9000000000000004,-0.2,1.5,6.6000000000000005,45.3,-13.6,-5.4,16
789,13366.0,-0.4,-1.0,-3.1,0.0,1.8,6.4,34.1,-4.5,-6.0,16
790,13380.0,-0.6000000000000001,-1.0,-2.9000000000000004,-0.2,1.9000000000000001,6.6000000000000005,26.9,1.4,-5.2,16
791,13397.0,-0.5,-1.1,-2.5,-0.2,1.8,6.9,12.5,13.5,-1.1,16
792,13414.0,-0.6000000000000001,-1.0,-2.3000000000000003,-0.4,2.0,7.1000000000000005,5.2,22.8,2.4000000000000004,16
793,13430.0,-0.7000000000000001,-0.9,-2.0,-0.5,2.1,7.4,4.1,27.099999999999998,5.500000000000001,16
794,13447.0,-0.8,-0.7000000000000001,-1.9000000000000001,-0.7000000000000001,2.2,7.5,4.4,35.4,14.400000000000002,16
795,13465.0,-0.7000000000000001,-0.6000000000000001,-1.9000000000000001,-0.7000000000000001,2.4000000000000004,7.4,3.3000000000000007,39.300000000000004,25.300000000000004,16
796,13480.0,-0.7000000000000001,-0.7000000000000001,-1.7000000000000002,-0.7000000000000001,2.3000000000000003,7.6000000000000005,0.0,38.900000000000006,30.000000000000004,16
797,13498.0,-0.7000000000000001,-1.0,-0.6000000000000001,-0.8,2.0,8.700000000000001,-4.6,34.2,35.5,16
798,13513.0,-0.5,-0.5,-0.6000000000000001,-0.6000000000000001,2.4000000000000004,8.8,5.300000000000001,20.400000000000002,37.50000000000001,16
799,13530.0,-0.4,-0.30000000000000004,-0.6000000000000001,-0.6000000000000001,2.6,8.700000000000001,10.700000000000001,12.200000000000001,36.9,16
800,13547.0,-0.6000000000000001,-0.30000000000000004,-0.4,-0.7000000000000001,2.7,8.9,8.3,1.8000000000000003,34.7,16
801,13566.0,-0.5,-0.30000000000000004,0.2,-0.6000000000000001,2.7,9.5,-0.8,-8.600000000000001,28.900000000000002,16
802,13580.0,-0.8,-0.4,0.8,-0.9,2.6,10.100000000000001,-2.7,-15.6,25.8,16
803,13597.0,-0.9,-0.6000000000000001,1.4000000000000001,-0.9,2.4000000000000004,10.700000000000001,-2.5,-24.3,24.7,16
804,13614.0,-1.2000000000000002,-0.5,2.1,-1.1,2.5,11.5,-6.0,-20.599999999999998,21.900000000000002,16
805,13630.0,-1.4000000000000001,-0.5,2.4000000000000004,-1.2000000000000002,2.3000000000000003,11.9,-7.6,-16.900000000000002,21.900000000000002,16
806,13647.0,-1.3,-0.7000000000000001,2.5,-1.1,2.3000000000000003,11.9,-5.300000000000001,-18.200000000000003,22.8,16
807,13672.0,-0.9,-0.4,2.0,-0.6000000000000001,2.5,11.4,-11.000000000000002,-12.0,25.200000000000003,16
808,13684.0,-0.9,-0.4,2.0,-0.5,2.5,11.200000000000001,-11.000000000000002,-12.0,25.200000000000003,16
809,13697.0,-0.9,-0.5,2.0,-0.6000000000000001,2.3000000000000003,11.5,-39.9,4.9,27.800000000000004,16
810,13714.0,-1.7000000000000002,-1.4000000000000001,4.4,-1.4000000000000001,1.1,14.0,-83.30000000000001,40.5,32.2,16
811,13731.0,-3.0,-2.3000000000000003,5.2,-3.0,-0.1,14.9,-93.7,61.9,34.800000000000004,16
812,13747.0,-3.2,-2.3000000000000003,4.4,-3.3000000000000003,-0.2,14.100000000000001,-65.5,69.60000000000001,37.400000000000006,16
813,13765.0,-2.9000000000000004,-1.5,0.5,-3.2,0.5,10.3,-7.6,40.1,33.50000000000001,16
814,13780.0,-2.8000000000000003,-1.0,-1.1,-2.9000000000000004,1.4000000000000001,7.7,14.300000000000002,18.900000000000002,30.000000000000004,16
815,13797.0,-2.1,-0.6000000000000001,-2.5,-2.4000000000000004,1.5,7.2,31.6,-25.8,27.2,16
816,13813.0,-0.9,-0.7000000000000001,-2.3000000000000003,-0.9,1.4000000000000001,7.4,19.5,-38.50000000000001,29.400000000000002,16
817,13830.0,-0.2,-0.9,-1.2000000000000002,-0.2,1.3,8.5,0.8,-8.5,36.5,16
818,13847.0,-0.1,-0.6000000000000001,-0.7000000000000001,-0.1,1.6,8.9,-3.9,2.7,39.0,16
819,13864.0,-0.5,-0.5,-0.7000000000000001,-0.5,1.7000000000000002,8.9,-9.3,20.0,43.4,16
820,13882.0,-0.5,-0.30000000000000004,-1.5,-0.6000000000000001,1.8,8.1,-9.899999999999999,37.300000000000004,50.3,16
821,13897.0,-0.7000000000000001,-0.30000000000000004,-1.7000000000000002,-0.9,1.8,7.9,-7.0,40.2,52.00000000000001,16
822,13913.0,-1.1,-0.30000000000000004,-2.2,-1.3,1.8,7.4,0.5,40.4,59.00000000000001,16
823,13930.0,-0.9,-0.5,-2.7,-1.2000000000000002,1.6,6.800000000000001,7.699999999999999,34.60000000000001,65.3,16
824,13947.0,-0.8,-0.5,-2.9000000000000004,-1.1,1.7000000000000002,6.7,10.200000000000001,27.9,67.2,16
825,13963.0,-0.5,-0.1,-3.3000000000000003,-0.8,2.1,6.300000000000001,11.1,11.8,68.7,16
826,13987.0,-0.2,0.2,-3.2,-0.5,2.4000000000000004,6.300000000000001,0.5,-1.7,67.5,16
827,13998.0,-0.1,0.2,-2.9000000000000004,-0.4,2.4000000000000004,6.6000000000000005,-9.600000000000001,-4.9,66.5,16
828,14014.0,0.1,0.30000000000000004,-2.0,-0.1,2.5,7.5,-27.700000000000003,-7.500000000000001,62.300000000000004,16
829,14030.0,0.1,0.6000000000000001,-1.1,0.0,2.6,8.4,-35.0,-14.100000000000001,55.900000000000006,16
830,14047.0,0.1,0.6000000000000001,-0.6000000000000001,0.0,2.6,8.9,-37.1,-14.200000000000001,52.7,16
831,14064.0,-0.30000000000000004,0.7000000000000001,0.4,-0.30000000000000004,2.6,10.0,-37.2,-10.200000000000001,48.400000000000006,16
832,14080.0,-0.30000000000000004,0.6000000000000001,1.2000000000000002,-0.2,2.4000000000000004,10.700000000000001,-26.700000000000003,-12.5,45.6,16
833,14097.0,-0.2,0.7000000000000001,1.4000000000000001,-0.1,2.4000000000000004,11.0,-19.300000000000004,-13.900000000000002,43.2,16
834,14113.0,-0.2,0.9,1.4000000000000001,-0.1,2.6,11.0,-4.9,-17.400000000000002,36.8,16
835,14130.0,0.0,1.0,1.4000000000000001,0.2,2.7,11.0,5.300000000000001,-20.2,29.500000000000004,16
836,14147.0,0.1,1.0,1.5,0.30000000000000004,2.7,11.100000000000001,8.8,-21.0,25.300000000000004,16
837,14167.0,0.0,0.8,2.1,0.4,2.6,11.700000000000001,12.5,-19.9,19.1,16
838,14180.0,-0.1,0.5,2.6,0.30000000000000004,2.3000000000000003,12.200000000000001,15.000000000000002,-14.0,14.900000000000002,16
839,14197.0,-0.4,0.30000000000000004,2.7,0.1,2.1,12.3,17.400000000000002,-12.200000000000001,13.3,16
840,14213.0,-0.8,-0.2,2.2,-0.30000000000000004,1.7000000000000002,11.9,22.9,-11.000000000000002,13.100000000000001,16
841,14230.0,-0.5,-0.4,1.3,0.0,1.6,11.0,31.3,-19.0,11.6,16
842,14247.0,-0.30000000000000004,-0.2,0.7000000000000001,0.30000000000000004,1.9000000000000001,10.3,37.0,-27.400000000000002,9.100000000000001,16
843,14264.0,0.4,0.1,0.30000000000000004,1.2000000000000002,2.3000000000000003,9.9,36.8,-45.3,4.300000000000001,16
844,14283.0,1.0,0.2,1.1,1.9000000000000001,2.5,10.600000000000001,18.900000000000002,-40.6,-0.7,16
845,14297.0,1.3,0.2,1.2000000000000002,2.2,2.5,10.700000000000001,10.9,-36.7,-2.0,16
846,14313.0,1.7000000000000002,0.2,1.6,2.7,2.5,11.100000000000001,-4.4,-26.799999999999997,-3.9,16
847,14330.0,1.0,-0.5,3.0,2.0,1.8,12.600000000000001,-25.7,12.7,-2.4000000000000004,16
848,14347.0,0.30000000000000004,-0.9,3.5,1.3,1.3,13.100000000000001,-31.7,37.300000000000004,-0.1,16
849,14363.0,-0.6000000000000001,-1.4000000000000001,2.2,0.2,0.7000000000000001,11.9,-14.600000000000001,57.400000000000006,3.4,16
850,14381.0,-0.4,-1.0,-0.4,0.2,1.2000000000000002,9.3,20.0,52.5,4.1,16
851,14397.0,-0.30000000000000004,-0.7000000000000001,-1.6,0.4,1.9000000000000001,7.1000000000000005,30.4,46.7,2.6,16
852,14414.0,0.1,-0.1,-3.1,0.5,2.2,6.6000000000000005,25.200000000000003,36.9,-1.4,16
853,14430.0,0.4,-0.2,-2.6,0.6000000000000001,2.1,7.0,-7.200000000000001,55.1,0.30000000000000004,16
854,14447.0,0.4,-0.5,-2.2,0.1,1.1,8.200000000000001,-26.000000000000004,74.60000000000001,3.3000000000000007,16
855,14464.0,-0.6000000000000001,-1.8,0.0,-0.7000000000000001,0.30000000000000004,9.600000000000001,-56.50000000000001,91.30000000000001,5.500000000000001,16
856,14481.0,-1.8,-2.1,2.4000000000000004,-2.2,-0.30000000000000004,12.100000000000001,-49.300000000000004,61.199999999999996,4.5,16
857,14497.0,-1.8,-2.0,2.2,-1.9000000000000001,-0.2,11.200000000000001,-27.700000000000003,44.5,6.9,16
858,14514.0,-1.1,-1.9000000000000001,0.5,-1.7000000000000002,-0.1,10.200000000000001,22.3,21.6,9.5,16
859,14530.0,-1.5,-1.0,-0.4,-2.1,1.0,9.3,56.400000000000006,5.7,6.600000000000001,16
860,14547.0,-1.6,-0.9,-0.5,-1.9000000000000001,1.2000000000000002,9.1,59.80000000000001,-3.0,6.9,16
861,14564.0,-0.8,-1.2000000000000002,-0.5,-1.4000000000000001,1.0,9.1,44.5,-11.000000000000002,8.5,16
862,14582.0,-0.9,-1.7000000000000002,0.0,-1.4000000000000001,0.6000000000000001,9.600000000000001,32.0,-16.900000000000002,10.200000000000001,16
863,14597.0,-0.9,-1.6,0.30000000000000004,-1.4000000000000001,0.9,9.9,35.4,-21.6,13.3,16
864,14614.0,-0.6000000000000001,-1.3,-0.1,-0.9,1.2000000000000002,9.4,38.7,-38.800000000000004,18.4,16
865,14630.0,-0.2,-0.9,-1.3,-0.4,1.7000000000000002,8.200000000000001,16.700000000000003,-21.8,23.0,16
866,14647.0,-0.4,-0.9,-1.4000000000000001,-0.6000000000000001,1.7000000000000002,8.1,-0.4,-13.3,28.500000000000004,16
867,14664.0,-0.30000000000000004,-0.8,-1.4000000000000001,-0.5,1.8,8.1,-3.3000000000000007,-20.5,31.0,16
868,14680.0,-0.2,-0.8,-1.2000000000000002,-0.2,1.8,8.3,-6.0,-32.7,35.2,16
869,14697.0,-0.2,-0.7000000000000001,-0.8,0.0,1.8,8.700000000000001,-9.0,-28.700000000000003,40.5,16
870,14713.0,-0.1,-0.6000000000000001,-0.8,0.1,1.9000000000000001,8.700000000000001,-7.8,-25.900000000000002,42.7,16
871,14730.0,0.1,-0.5,-0.9,0.4,2.0,8.6,0.4,-23.5,44.5,16
872,14747.0,0.2,-0.30000000000000004,-0.9,0.6000000000000001,2.2,8.6,5.500000000000001,-22.1,45.5,16
873,14764.0,0.2,-0.30000000000000004,-0.8,0.7000000000000001,2.2,8.700000000000001,6.0,-19.6,45.5,16
874,14780.0,0.1,-0.30000000000000004,-0.30000000000000004,0.6000000000000001,2.2,9.200000000000001,6.2,-12.5,44.00000000000001,16
875,14797.0,-0.4,-0.6000000000000001,0.6000000000000001,0.2,1.9000000000000001,10.0,4.9,-1.8000000000000003,44.9,16
876,14813.0,-0.5,-0.8,1.1,0.1,1.7000000000000002,10.600000000000001,3.7000000000000006,4.4,46.300000000000004,16
877,14830.0,-0.8,-1.0,1.8,-0.2,1.5,11.3,6.4,14.200000000000001,48.300000000000004,16
878,14847.0,-0.7000000000000001,-1.0,1.3,-0.2,1.5,10.8,18.200000000000003,13.900000000000002,49.50000000000001,16
879,14867.0,-0.7000000000000001,-1.1,1.1,-0.1,1.5,10.600000000000001,15.399999999999999,15.000000000000002,49.199999999999996,16
880,14885.0,-0.30000000000000004,-1.2000000000000002,1.5,0.2,1.4000000000000001,11.0,-4.9,24.7,48.50000000000001,16
881,14897.0,-0.2,-1.2000000000000002,1.9000000000000001,0.30000000000000004,1.3,11.4,-19.0,32.300000000000004,46.300000000000004,16
882,14914.0,-0.4,-1.4000000000000001,2.4000000000000004,0.1,1.1,11.9,-34.50000000000001,44.00000000000001,43.4,16
883,14930.0,-1.1,-1.8,3.1,-0.8,0.5,12.700000000000001,-59.60000000000001,63.2,35.699999999999996,16
884,14947.0,-1.5,-2.1,3.0,-1.4000000000000001,-0.1,12.700000000000001,-59.1,64.7,27.5,16
885,14964.0,-1.5,-2.1,2.5,-1.6,-0.1,12.200000000000001,-46.300000000000004,59.20000000000001,22.2,16
886,14981.0,-1.4000000000000001,-1.7000000000000002,0.5,-1.6,0.2,10.3,-10.4,35.699999999999996,10.5,16
887,15002.0,-1.2000000000000002,-1.0,-1.1,-1.4000000000000001,0.9,8.6,12.5,3.0,0.30000000000000004,16
888,15016.0,-0.4,-0.9,-1.2000000000000002,-0.6000000000000001,1.0,8.5,9.899999999999999,-11.3,-6.300000000000001,16
889,15031.0,-0.2,-1.0,-1.0,-0.4,0.9,8.700000000000001,5.9,-5.300000000000001,-7.9,16
890,15047.0,-0.2,-0.9,-0.7000000000000001,-0.5,1.0,9.200000000000001,1.9,5.7,-6.699999999999999,16
891,15063.0,-0.2,-0.9,-0.6000000000000001,-0.4,1.0,9.1,-0.1,11.6,-3.8,16
892,15080.0,-0.30000000000000004,-0.9,-1.1,-0.7000000000000001,1.0,8.5,-6.300000000000001,28.900000000000002,2.7,16
893,15097.0,-0.6000000000000001,-0.6000000000000001,-2.1,-1.0,1.3,7.6000000000000005,-7.699999999999999,30.4,11.2,16
894,15113.0,-0.6000000000000001,-0.6000000000000001,-2.3000000000000003,-1.0,1.3,7.300000000000001,-6.0,26.000000000000004,16.0,16
895,15130.0,-0.7000000000000001,-0.5,-2.3000000000000003,-1.2000000000000002,1.4000000000000001,7.300000000000001,-0.5,19.700000000000003,22.8,16
896,15147.0,-0.4,-0.1,-2.8000000000000003,-0.9,1.8,6.800000000000001,11.6,14.800000000000002,30.799999999999997,16
897,15170.0,0.0,0.30000000000000004,-3.5,-0.5,2.2,6.0,17.5,1.6,35.1,16
898,15182.0,0.30000000000000004,0.4,-3.6,-0.2,2.4000000000000004,5.9,13.6,-3.2,37.400000000000006,16
899,15197.0,0.9,0.6000000000000001,-3.4000000000000004,0.4,2.6,6.1000000000000005,-3.4,-6.4,40.9,16
900,15213.0,1.0,0.7000000000000001,-3.0,0.6000000000000001,2.7,7.1000000000000005,-21.6,-6.600000000000001,42.7,16
901,15230.0,1.1,0.7000000000000001,-1.8,0.8,2.6,7.7,-29.500000000000004,-5.0,44.10000000000001,16
902,15250.0,1.1,0.7000000000000001,-0.4,0.7000000000000001,2.5,9.1,-41.7,2.8,44.10000000000001,16
903,15264.0,0.9,0.8,0.5,0.6000000000000001,2.5,10.0,-42.60000000000001,3.6000000000000005,41.900000000000006,16
904,15280.0,0.7000000000000001,0.9,0.8,0.30000000000000004,2.5,10.4,-39.2,2.7,39.300000000000004,16
905,15297.0,0.1,0.7000000000000001,1.5,-0.2,2.2,11.100000000000001,-32.5,2.5,34.800000000000004,16
906,15313.0,0.1,0.7000000000000001,1.6,-0.2,2.2,11.200000000000001,-19.200000000000003,-3.4,29.300000000000004,16
907,15330.0,0.1,0.9,1.4000000000000001,-0.1,2.3000000000000003,11.100000000000001,-9.5,-12.4,24.900000000000002,16
908,15347.0,0.2,1.2000000000000002,1.5,0.0,2.6,11.200000000000001,2.0,-25.200000000000003,15.2,16
909,15363.0,0.30000000000000004,1.2000000000000002,1.9000000000000001,0.1,2.5,12.0,1.9,-25.5,10.8,16
910,15380.0,-0.1,0.9,2.8000000000000003,-0.1,2.4000000000000004,12.5,-0.7,-21.7,2.8,16
911,15397.0,-0.6000000000000001,0.4,3.9000000000000004,-0.6000000000000001,1.8,13.600000000000001,-1.3,-14.800000000000002,1.1,16
912,15413.0,-1.3,-0.1,3.9000000000000004,-1.3,1.4000000000000001,13.600000000000001,2.7,-7.300000000000001,1.6,16
913,15430.0,-1.6,-0.2,3.5,-1.5,1.2000000000000002,13.200000000000001,7.9,-9.5,2.6,16
914,15447.0,-1.1,0.0,2.3000000000000003,-1.1,1.5,12.100000000000001,23.5,-21.900000000000002,2.2,16
915,15465.0,-0.30000000000000004,0.4,1.4000000000000001,-0.1,2.0,11.200000000000001,27.6,-40.2,-1.3,16
916,15480.0,0.2,0.5,1.6,0.4,2.2,11.4,20.8,-42.3,-3.0,16
917,15497.0,0.6000000000000001,0.7000000000000001,2.5,0.9,2.4000000000000004,12.200000000000001,0.8,-20.0,-6.0,16
918,15513.0,0.0,-0.4,3.5,0.30000000000000004,1.2000000000000002,13.3,-26.700000000000003,9.3,-2.4000000000000004,16
919,15530.0,-0.4,-1.2000000000000002,4.1000000000000005,-0.1,0.4,13.9,-36.6,25.200000000000003,1.3,16
920,15547.0,-1.0,-1.5,2.8000000000000003,-0.8,-0.1,12.600000000000001,-25.900000000000002,38.400000000000006,5.8,16
921,15565.0,-0.6000000000000001,-1.0,0.0,-0.6000000000000001,0.4,9.9,4.5,28.400000000000002,3.9,16
922,15583.0,-0.6000000000000001,-0.5,-1.4000000000000001,-0.6000000000000001,1.0,8.5,22.700000000000003,10.9,-6.1000000000000005,16
923,15597.0,-0.30000000000000004,-0.5,-1.4000000000000001,-0.30000000000000004,1.0,8.4,21.200000000000003,3.5,-9.700000000000001,16
924,15613.0,0.4,-0.9,-0.5,0.4,0.7000000000000001,9.3,8.700000000000001,14.300000000000002,-12.200000000000001,16
925,15630.0,0.30000000000000004,-1.1,-0.2,0.30000000000000004,0.4,9.600000000000001,4.300000000000001,26.000000000000004,-13.000000000000002,16
926,15647.0,0.1,-1.4000000000000001,0.6000000000000001,-0.1,0.2,10.5,6.300000000000001,31.0,-13.900000000000002,16
927,15663.0,-0.1,-1.2000000000000002,-0.1,-0.4,0.4,9.700000000000001,19.0,32.1,-12.600000000000001,16
928,15686.0,-0.2,-1.1,-1.0,-0.6000000000000001,0.6000000000000001,8.8,28.0,31.400000000000002,-11.5,16
929,15699.0,-0.30000000000000004,-1.1,-1.4000000000000001,-0.7000000000000001,0.7000000000000001,8.4,30.9,25.8,-13.000000000000002,16
930,15713.0,-0.5,-1.1,-1.8,-1.1,0.7000000000000001,8.0,38.800000000000004,17.7,-15.700000000000001,16
931,15730.0,-0.7000000000000001,-1.2000000000000002,-2.0,-1.2000000000000002,0.7000000000000001,7.800000000000001,43.300000000000004,13.8,-15.899999999999999,16
932,15748.0,-0.7000000000000001,-1.1,-2.8000000000000003,-1.3,1.0,6.800000000000001,49.50000000000001,3.1,-14.300000000000002,16
933,15764.0,-0.2,-0.9,-3.5,-0.8,1.3,6.1000000000000005,46.4,-11.1,-11.900000000000002,16
934,15787.0,0.0,-1.0,-3.1,-0.6000000000000001,1.3,6.5,33.400000000000006,-12.7,-10.700000000000001,16
935,15797.0,-0.1,-1.0,-2.7,-0.6000000000000001,1.3,6.800000000000001,26.200000000000003,-7.200000000000001,-8.4,16
936,15814.0,0.1,-1.1,-2.5,-0.4,1.3,7.0,17.300000000000004,-1.8000000000000003,-1.6,16
937,15830.0,0.4,-1.0,-2.6,-0.1,1.4000000000000001,6.9,14.800000000000002,-4.0,0.8,16
938,15847.0,0.5,-1.0,-2.2,0.0,1.5,7.300000000000001,4.9,-0.8,4.2,16
939,15865.0,0.4,-1.0,-1.2000000000000002,-0.2,1.4000000000000001,8.200000000000001,-11.900000000000002,13.3,10.600000000000001,16
940,15880.0,0.2,-1.1,-0.6000000000000001,-0.4,1.3,8.9,-17.9,20.900000000000002,13.700000000000001,16
941,15897.0,-0.30000000000000004,-1.2000000000000002,0.5,-0.9,1.1,9.9,-17.7,32.1,20.599999999999998,16
942,15913.0,-0.6000000000000001,-0.9,0.7000000000000001,-1.3,1.4000000000000001,10.200000000000001,-13.000000000000002,36.2,28.1,16
943,15930.0,-0.9,-0.6000000000000001,1.0,-2.1,1.7000000000000002,10.700000000000001,-13.6,34.900000000000006,30.799999999999997,16
944,15947.0,-1.5,-0.5,1.6,-2.4000000000000004,1.6,11.100000000000001,-16.5,28.500000000000004,34.900000000000006,16
945,15964.0,-2.4000000000000004,-0.6000000000000001,2.4000000000000004,-3.4000000000000004,1.5,12.0,-15.8,17.300000000000004,38.0,16
946,15981.0,-3.0,-0.4,2.6,-3.9000000000000004,1.7000000000000002,12.200000000000001,-12.7,9.600000000000001,39.599999999999994,16
947,15997.0,-3.0,-0.30000000000000004,2.7,-3.9000000000000004,1.8,12.3,-3.4,-12.9,42.60000000000001,16
948,16014.0,-2.6,0.1,2.3000000000000003,-3.5,2.3000000000000003,11.8,8.899999999999999,-31.799999999999997,41.1,16
949,16030.0,-2.6,0.2,2.0,-3.4000000000000004,2.5,11.8,21.0,-54.9,36.8,16
950,16047.0,-2.6,0.30000000000000004,2.4000000000000004,-3.1,2.6,12.0,22.6,-59.20000000000001,37.2,16
951,16064.0,-2.2,0.2,2.5,-2.3000000000000003,2.5,12.3,16.1,-48.400000000000006,44.8,16
952,16080.0,-1.5,0.1,3.0,-1.7000000000000002,2.4000000000000004,12.600000000000001,-1.6,-26.200000000000003,56.10000000000001,16
953,16097.0,-1.4000000000000001,0.0,3.3000000000000003,-1.6,2.3000000000000003,12.9,-14.600000000000001,-10.4,62.900000000000006,16
954,16113.0,-1.6,-0.5,3.6,-1.9000000000000001,1.8,13.3,-37.7,29.400000000000002,73.6,16
955,16130.0,-2.2,-0.6000000000000001,2.1,-2.5,1.5,11.9,-38.50000000000001,43.900000000000006,76.7,16
956,16147.0,-2.1,-0.7000000000000001,1.2000000000000002,-2.5,1.4000000000000001,11.0,-33.7,41.199999999999996,76.3,16
957,16163.0,-1.8,-0.6000000000000001,-0.6000000000000001,-2.3000000000000003,1.4000000000000001,9.200000000000001,-19.0,28.0,68.7,16
958,16182.0,-1.6,-0.30000000000000004,-1.7000000000000002,-2.0,1.7000000000000002,8.1,-2.9,10.0,59.00000000000001,16
959,16197.0,-1.4000000000000001,-0.30000000000000004,-1.9000000000000001,-1.8,1.7000000000000002,7.9,3.8,2.4000000000000004,54.699999999999996,16
960,16213.0,-1.3,-0.5,-1.8,-1.8,1.5,7.9,12.100000000000001,0.2,50.7,16
961,16230.0,-1.2000000000000002,-1.0,-1.6,-1.6,1.0,8.1,17.7,7.699999999999999,56.7,16
962,16247.0,-1.0,-1.3,-1.7000000000000002,-1.4000000000000001,0.8,8.0,20.7,11.8,61.10000000000001,16
963,16263.0,-0.9,-1.4000000000000001,-2.7,-1.3,0.8,6.9,25.200000000000003,20.7,69.7,16
964,16281.0,-0.6000000000000001,-1.3,-3.8000000000000003,-1.1,1.0,5.800000000000001,26.5,21.6,76.80000000000001,16
965,16297.0,-0.5,-1.2000000000000002,-4.2,-1.0,1.1,5.300000000000001,24.5,20.7,78.4,16
966,16314.0,-0.2,-1.1,-4.800000000000001,-0.7000000000000001,1.2000000000000002,4.800000000000001,15.899999999999999,18.6,78.60000000000001,16
967,16330.0,-0.30000000000000004,-1.1,-4.4,-0.8,1.3,5.0,4.7,14.0,75.60000000000001,16
968,16347.0,-0.4,-1.2000000000000002,-4.1000000000000005,-0.9,1.2000000000000002,5.4,-0.2,9.0,75.60000000000001,16
969,16364.0,-0.1,-1.0,-3.7,-0.5,1.3,5.7,-5.8,-0.30000000000000004,77.4,16
970,16380.0,0.5,-0.5,-3.5,0.2,1.9000000000000001,5.9,-11.3,-9.4,76.7,16
971,16399.0,0.6000000000000001,-0.30000000000000004,-3.0,0.4,2.1,7.300000000000001,-27.6,-7.699999999999999,75.2,16
972,16413.0,0.6000000000000001,-0.1,-1.0,0.4,2.1,8.4,-38.2,-0.6000000000000001,75.00000000000001,16
973,16430.0,0.2,0.0,0.8,0.1,2.1,10.3,-49.50000000000001,13.399999999999999,72.30000000000001,16
974,16447.0,-0.1,0.0,1.5,-0.2,2.0,11.0,-49.699999999999996,16.0,70.3,16
975,16463.0,-0.2,0.0,2.3000000000000003,-0.4,1.8,11.8,-45.9,22.4,66.3,16
976,16480.0,-0.30000000000000004,0.2,2.1,-0.5,1.9000000000000001,11.700000000000001,-30.799999999999997,24.3,58.3,16
977,16499.0,-0.2,0.6000000000000001,1.8,-0.5,2.3000000000000003,11.4,-11.000000000000002,9.700000000000001,44.300000000000004,16
978,16513.0,-0.30000000000000004,0.9,1.8,-0.5,2.6,11.4,-2.5,-1.7,35.699999999999996,16
979,16530.0,-0.2,1.1,2.0,-0.4,2.8000000000000003,11.600000000000001,8.0,-26.9,18.700000000000003,16
980,16547.0,-0.2,1.0,2.1,-0.30000000000000004,2.8000000000000003,11.700000000000001,10.1,-35.5,11.4,16
981,16564.0,-0.30000000000000004,1.0,2.5,-0.2,2.8000000000000003,12.200000000000001,6.300000000000001,-43.6,-1.4,16
982,16581.0,-0.4,0.9,3.2,-0.30000000000000004,2.7,12.9,-2.9,-41.900000000000006,-6.600000000000001,16
983,16597.0,-0.2,0.9,3.3000000000000003,0.1,2.6,13.0,-5.2,-40.0,-6.9,16
984,16614.0,-0.2,0.8,3.5,0.2,2.5,13.200000000000001,-10.600000000000001,-33.2,-5.500000000000001,16
985,16630.0,-0.30000000000000004,0.5,4.1000000000000005,0.1,2.2,13.9,-24.599999999999998,-15.5,2.8,16
986,16647.0,-0.5,0.2,4.800000000000001,0.0,1.8,14.600000000000001,-29.600000000000005,-5.2,7.500000000000001,16
987,16664.0,-0.9,-0.7000000000000001,5.800000000000001,-0.5,0.8,15.600000000000001,-32.6,23.0,17.200000000000003,16
988,16680.0,-1.4000000000000001,-1.2000000000000002,5.5,-1.4000000000000001,-0.1,14.700000000000001,-14.900000000000002,37.300000000000004,24.1,16
989,16698.0,-1.6,-1.5,2.4000000000000004,-1.4000000000000001,0.0,12.3,23.800000000000004,26.300000000000004,23.099999999999998,16
990,16713.0,-1.5,-1.2000000000000002,0.9,-1.4000000000000001,0.30000000000000004,10.8,43.4,15.6,19.5,16
991,16730.0,-1.2000000000000002,-0.7000000000000001,-1.2000000000000002,-1.1,1.0,8.700000000000001,65.3,-9.8,12.4,16
992,16747.0,-0.30000000000000004,-0.7000000000000001,-1.6,-0.1,1.2000000000000002,8.200000000000001,56.0,-22.2,8.4,16
993,16763.0,-0.1,-0.9,-1.2000000000000002,0.2,1.1,8.6,44.00000000000001,-16.6,7.8,16
994,16780.0,-0.1,-1.2000000000000002,-0.5,0.1,0.9,9.3,23.099999999999998,4.4,10.600000000000001,16
995,16797.0,0.1,-1.2000000000000002,-0.6000000000000001,0.30000000000000004,0.9,9.200000000000001,9.899999999999999,19.400000000000002,14.900000000000002,16
996,16813.0,0.1,-1.2000000000000002,-0.7000000000000001,0.2,0.9,9.0,3.8,26.400000000000006,15.000000000000002,16
997,16831.0,-0.6000000000000001,-1.2000000000000002,-0.9,-0.5,0.9,8.9,1.1,33.2,16.1,16
998,16847.0,-0.6000000000000001,-1.3,-1.3,-0.6000000000000001,0.8,8.4,8.8,29.1,19.400000000000002,16
999,16863.0,-0.6000000000000001,-1.3,-1.6,-0.6000000000000001,0.8,8.1,13.200000000000003,26.6,19.200000000000003,16
1000,16880.0,-0.9,-1.3,-2.2,-1.0,0.9,7.5,18.200000000000003,22.5,18.900000000000002,16
1001,16897.0,-1.1,-1.4000000000000001,-2.2,-1.3,0.9,7.5,21.8,17.400000000000002,20.1,16
1002,16913.0,-1.2000000000000002,-1.4000000000000001,-2.3000000000000003,-1.4000000000000001,0.9,7.4,25.0,10.299999999999999,21.300000000000004,16
1003,16930.0,-0.6000000000000001,-1.2000000000000002,-2.6,-0.8,1.2000000000000002,7.0,31.7,-7.699999999999999,23.0,16
1004,16947.0,-0.2,-0.4,-3.3000000000000003,-0.4,2.0,6.2,27.9,-19.300000000000004,19.700000000000003,16
1005,16964.0,-0.1,-0.2,-3.1,-0.2,2.3000000000000003,6.4,18.3,-20.599999999999998,18.5,16
1006,16987.0,0.1,-0.1,-2.0,-0.2,2.4000000000000004,8.200000000000001,-6.4,-13.6,16.4,16
1007,16997.0,-0.4,-0.2,-0.6000000000000001,-0.4,2.2,9.0,-21.0,-7.200000000000001,19.5,16
1008,17014.0,-0.4,-0.4,0.0,-0.30000000000000004,2.0,9.5,-24.3,-4.7,23.800000000000004,16
1009,17030.0,-0.4,-0.5,0.7000000000000001,-0.30000000000000004,1.8,10.200000000000001,-25.4,9.100000000000001,28.900000000000002,16
1010,17047.0,-0.8,-0.30000000000000004,0.9,-0.8,2.0,10.5,-17.200000000000003,16.6,32.8,16
1011,17063.0,-0.9,-0.30000000000000004,0.9,-0.9,2.0,10.5,-9.899999999999999,14.700000000000001,35.4,16
1012,17083.0,-0.6000000000000001,-0.1,0.5,-0.6000000000000001,2.1,10.100000000000001,7.1000000000000005,6.4,38.2,16
1013,17097.0,-0.4,0.0,0.2,-0.4,2.3000000000000003,9.8,23.3,-3.4,34.900000000000006,16
1014,17114.0,-0.30000000000000004,0.1,0.2,-0.2,2.4000000000000004,9.8,29.1,-8.600000000000001,33.300000000000004,16
1015,17130.0,-0.2,0.1,0.30000000000000004,-0.1,2.6,9.9,35.3,-17.0,28.800000000000004,16
1016,17147.0,-0.30000000000000004,0.1,0.5,-0.1,2.6,10.0,35.4,-22.3,26.6,16
1017,17165.0,-0.30000000000000004,0.0,0.6000000000000001,0.0,2.6,10.100000000000001,34.300000000000004,-22.700000000000003,26.1,16
1018,17186.0,-0.6000000000000001,-0.2,0.9,-0.30000000000000004,2.5,10.4,26.000000000000004,-11.6,25.200000000000003,16
1019,17197.0,-0.8,-0.4,1.4000000000000001,-0.4,2.4000000000000004,10.8,22.000000000000004,-4.1,26.000000000000004,16
1020,17214.0,-1.0,-0.6000000000000001,1.9000000000000001,-0.6000000000000001,2.2,11.3,19.700000000000003,3.9,26.799999999999997,16
1021,17230.0,-1.3,-0.7000000000000001,2.0,-0.9,2.1,11.4,24.1,14.700000000000001,28.600000000000005,16
1022,17247.0,-1.3,-0.8,1.8,-1.0,2.2,11.200000000000001,22.8,21.6,34.0,16
1023,17264.0,-1.2000000000000002,-0.9,1.8,-0.9,2.0,11.200000000000001,13.6,29.900000000000006,37.400000000000006,16
1024,17281.0,-1.0,-1.0,2.1,-0.9,1.9000000000000001,11.5,-12.100000000000001,50.2,42.400000000000006,16
1025,17302.0,-1.3,-1.3,2.5,-1.3,1.6,12.0,-34.1,62.800000000000004,44.6,16
1026,17313.0,-1.4000000000000001,-1.4000000000000001,2.4000000000000004,-1.5,1.3,12.0,-42.0,67.5,45.2,16
1027,17330.0,-1.6,-1.7000000000000002,2.1,-1.9000000000000001,0.9,11.700000000000001,-48.10000000000001,67.2,41.4,16
1028,17347.0,-1.7000000000000002,-1.6,1.1,-2.2,0.9,10.8,-34.1,53.400000000000006,34.60000000000001,16
1029,17363.0,-1.6,-1.4000000000000001,0.2,-2.1,1.0,9.9,-20.8,44.4,30.5,16
1030,17380.0,-1.6,-0.9,-1.0,-2.2,1.5,8.6,3.2,21.6,21.900000000000002,16
1031,17397.0,-1.1,-0.8,-1.9000000000000001,-1.8,1.7000000000000002,7.7,9.8,10.1,20.0,16
1032,17413.0,-1.0,-0.9,-2.1,-1.6,1.4000000000000001,7.300000000000001,7.9,12.5,19.9,16
1033,17430.0,-1.0,-1.2000000000000002,-2.2,-1.7000000000000002,1.3,7.300000000000001,5.500000000000001,18.6,23.0,16
1034,17447.0,-0.9,-1.1,-2.6,-1.7000000000000002,1.4000000000000001,6.9,6.1000000000000005,15.8,31.5,16
1035,17463.0,-0.8,-1.0,-2.9000000000000004,-1.4000000000000001,1.6,6.300000000000001,0.9000000000000001,18.3,41.0,16
1036,17480.0,-0.6000000000000001,-0.8,-3.5,-1.4000000000000001,1.7000000000000002,6.0,-5.2,21.1,45.099999999999994,16
1037,17497.0,-0.5,-0.8,-3.6,-1.3,1.6,5.9,-19.700000000000003,26.200000000000003,52.900000000000006,16
1038,17513.0,-0.30000000000000004,-0.9,-3.5,-1.2000000000000002,1.4000000000000001,6.1000000000000005,-25.5,28.0,55.8,16
1039,17530.0,-0.4,-0.9,-3.2,-1.3,1.4000000000000001,6.2,-28.400000000000002,27.700000000000003,59.1,16
1040,17547.0,-0.1,-0.8,-3.1,-1.0,1.5,6.4,-20.900000000000002,17.200000000000003,61.39999999999999,16
1041,17563.0,0.1,-0.6000000000000001,-3.3000000000000003,-0.6000000000000001,1.9000000000000001,6.300000000000001,-16.1,9.899999999999999,60.900000000000006,16
1042,17589.0,0.6000000000000001,-0.2,-2.3000000000000003,-0.2,2.0,7.1000000000000005,-18.3,-3.0,59.00000000000001,16
1043,17597.0,0.8,-0.1,-1.8,0.0,2.0,7.6000000000000005,-20.8,-2.7,58.5,16
1044,17614.0,1.1,0.0,-0.8,0.30000000000000004,2.1,8.700000000000001,-25.200000000000003,-3.1,57.1,16
1045,17630.0,1.2000000000000002,0.1,-0.1,0.4,2.1,9.3,-28.700000000000003,-2.1,56.0,16
1046,17648.0,1.1,0.2,1.1,0.4,2.1,10.5,-36.6,7.200000000000001,53.400000000000006,16
1047,17663.0,1.0,0.30000000000000004,1.9000000000000001,0.30000000000000004,2.2,11.4,-39.599999999999994,13.5,47.60000000000001,16
1048,17680.0,0.8,0.30000000000000004,2.2,0.1,2.1,11.700000000000001,-38.900000000000006,14.800000000000002,43.70000000000001,16
1049,17697.0,0.4,0.2,2.8000000000000003,-0.30000000000000004,1.8,12.4,-34.300000000000004,16.3,36.400000000000006,16
1050,17713.0,0.5,0.1,2.7,-0.30000000000000004,1.7000000000000002,12.3,-19.9,10.9,26.000000000000004,16
1051,17730.0,0.5,0.2,2.5,-0.30000000000000004,1.8,12.100000000000001,-8.5,3.1,19.5,16
1052,17747.0,0.1,0.4,2.2,-0.6000000000000001,2.0,11.8,10.5,-12.299999999999999,9.8,16
1053,17763.0,0.30000000000000004,0.2,2.5,-0.4,1.9000000000000001,12.100000000000001,13.3,-16.8,2.5,16
1054,17781.0,0.1,0.2,2.9000000000000004,-0.6000000000000001,1.9000000000000001,12.5,12.8,-16.200000000000003,-2.2,16
1055,17797.0,-0.7000000000000001,-0.1,3.4000000000000004,-1.3,1.6,13.100000000000001,14.900000000000002,-11.3,-6.300000000000001,16
1056,17813.0,-0.9,-0.2,3.2,-1.5,1.6,12.9,22.2,-4.6,-4.9,16
1057,17830.0,-0.8,0.0,2.7,-1.4000000000000001,1.8,12.4,26.9,-5.500000000000001,-4.7,16
1058,17847.0,-0.8,0.0,2.3000000000000003,-1.4000000000000001,2.0,12.0,29.700000000000006,-14.900000000000002,-4.6,16
1059,17863.0,-0.8,0.2,2.4000000000000004,-1.3,2.2,12.100000000000001,22.8,-12.5,-2.7,16
1060,17880.0,-0.6000000000000001,0.2,2.3000000000000003,-1.1,2.3000000000000003,12.0,17.799999999999997,-13.399999999999999,-1.3,16
1061,17898.0,-0.6000000000000001,0.0,2.8000000000000003,-1.0,2.0,12.5,0.6000000000000001,-15.2,-0.30000000000000004,16
1062,17913.0,-1.2000000000000002,-0.8,3.6,-1.6,1.2000000000000002,13.4,-19.400000000000002,-0.9000000000000001,2.2,16
1063,17930.0,-1.4000000000000001,-1.1,3.3000000000000003,-1.8,0.9,13.0,-20.3,1.4,3.1,16
1064,17949.0,-1.0,-1.2000000000000002,1.2000000000000002,-1.4000000000000001,0.8,11.0,1.3,-17.799999999999997,0.2,16
1065,17963.0,-0.5,-0.7000000000000001,-0.6000000000000001,-0.8,1.3,9.200000000000001,22.3,-40.7,-6.9,16
1066,17980.0,-0.2,-0.5,-1.1,-0.4,1.6,8.700000000000001,26.200000000000003,-47.7,-9.899999999999999,16
1067,17997.0,-0.1,-0.5,-1.2000000000000002,-0.2,1.6,8.5,23.0,-45.6,-14.0,16
1068,18013.0,0.1,-0.9,-0.8,0.1,1.3,9.0,13.900000000000002,-28.400000000000002,-13.399999999999999,16
1069,18030.0,0.1,-1.1,-0.9,0.2,1.1,8.9,11.3,-18.200000000000003,-11.5,16
1070,18047.0,0.30000000000000004,-1.1,-1.3,0.30000000000000004,1.1,8.4,8.700000000000001,-7.1000000000000005,-9.100000000000001,16
1071,18064.0,-0.1,-1.1,-1.4000000000000001,0.0,1.1,8.3,3.9,2.2,-10.200000000000001,16
1072,18080.0,-0.4,-1.1,-1.3,-0.30000000000000004,1.2000000000000002,8.4,2.1,6.600000000000001,-9.0,16
1073,18097.0,-0.6000000000000001,-1.3,-1.2000000000000002,-0.6000000000000001,1.0,8.5,4.5,14.300000000000002,-6.1000000000000005,16
1074,18113.0,-1.0,-1.4000000000000001,-1.3,-1.1,0.9,8.3,14.700000000000001,15.5,-4.1,16
1075,18130.0,-1.3,-1.6,-1.1,-1.4000000000000001,0.7000000000000001,8.5,21.0,13.000000000000002,-2.4000000000000004,16
1076,18147.0,-1.3,-1.6,-1.2000000000000002,-1.4000000000000001,0.8,8.4,37.300000000000004,0.6000000000000001,1.4,16
1077,18163.0,-1.0,-1.3,-2.0,-1.1,1.2000000000000002,7.5,50.1,-13.900000000000002,4.1,16
1078,18189.0,-0.6000000000000001,-1.0,-2.1,-0.6000000000000001,1.6,7.4,41.0,-19.9,5.500000000000001,16
1079,18199.0,-0.5,-1.1,-1.6,-0.5,1.6,7.800000000000001,30.1,-18.6,6.1000000000000005,16
1080,18214.0,-0.7000000000000001,-1.3,-0.30000000000000004,-0.7000000000000001,1.4000000000000001,9.200000000000001,11.3,-7.400000000000001,7.8,16
1081,18230.0,-0.9,-1.5,0.30000000000000004,-0.9,1.3,9.8,6.600000000000001,-3.3000000000000007,9.600000000000001,16
1082,18247.0,-1.2000000000000002,-1.7000000000000002,0.8,-1.1,1.0,10.3,3.0,5.6,15.5,16
1083,18263.0,-1.6,-1.9000000000000001,0.8,-1.6,0.9,10.3,4.2,15.2,23.0,16
1084,18283.0,-1.8,-2.0,0.30000000000000004,-1.8,0.8,9.700000000000001,9.4,11.1,30.699999999999996,16
1085,18297.0,-1.6,-1.9000000000000001,-0.2,-1.6,0.9,9.3,12.7,6.0,33.9,16
1086,18313.0,-1.4000000000000001,-1.5,-1.1,-1.4000000000000001,1.3,8.3,17.400000000000002,-4.2,37.6,16
1087,18331.0,-0.9,-1.1,-1.8,-0.8,1.8,7.6000000000000005,11.4,-10.8,40.7,16
1088,18347.0,-0.7000000000000001,-0.9,-2.0,-0.6000000000000001,1.9000000000000001,7.4,4.9,-13.000000000000002,41.0,16
1089,18363.0,-0.2,-0.6000000000000001,-2.2,0.0,2.2,7.1000000000000005,-12.100000000000001,-19.0,40.800000000000004,16
1090,18380.0,0.0,-0.4,-2.1,0.30000000000000004,2.5,7.5,-21.300000000000004,-19.1,40.1,16
1091,18397.0,-0.1,-0.1,-1.5,0.2,2.5,7.9,-36.5,-8.5,39.0,16
1092,18413.0,-0.30000000000000004,-0.1,-0.4,0.0,2.5,9.0,-44.8,6.600000000000001,42.5,16
1093,18430.0,-0.5,-0.1,0.7000000000000001,-0.2,2.3000000000000003,10.200000000000001,-44.7,24.8,47.0,16
1094,18447.0,-0.7000000000000001,0.0,1.2000000000000002,-0.4,2.3000000000000003,10.700000000000001,-40.4,33.2,50.400000000000006,16
1095,18463.0,-0.5,0.0,2.1,-0.30000000000000004,2.2,11.600000000000001,-23.3,44.2,58.1,16
1096,18481.0,-0.2,0.1,2.1,-0.1,2.3000000000000003,11.700000000000001,2.8,46.50000000000001,64.30000000000001,16
1097,18499.0,0.1,0.4,1.9000000000000001,0.30000000000000004,3.0,11.100000000000001,13.3,45.400000000000006,65.5,16
1098,18513.0,0.30000000000000004,0.9,1.6,0.2,3.2,11.200000000000001,10.700000000000001,42.2,64.2,16
1099,18530.0,-0.4,0.0,4.5,-0.6000000000000001,2.2,14.100000000000001,-28.3,66.2,65.6,16
1100,18547.0,-1.1,-0.4,5.5,-1.4000000000000001,1.7000000000000002,15.100000000000001,-41.4,85.4,65.6,16
1101,18564.0,-2.0,-0.9,4.2,-2.5,1.2000000000000002,13.9,-18.5,69.7,62.50000000000001,16
1102,18580.0,-1.9000000000000001,-0.9,2.7,-2.7,1.5,10.600000000000001,1.2000000000000002,51.9,59.300000000000004,16
1103,18597.0,-2.2,-0.30000000000000004,-0.5,-3.0,1.9000000000000001,9.200000000000001,26.5,24.1,53.7,16
1104,18613.0,-1.9000000000000001,-0.1,-1.3,-2.5,2.1,8.3,25.900000000000002,-23.800000000000004,48.70000000000001,16
1105,18630.0,-1.5,-0.5,0.2,-2.0,1.8,9.8,9.600000000000001,-34.900000000000006,46.50000000000001,16
1106,18647.0,-1.4000000000000001,-0.9,1.0,-1.9000000000000001,1.3,10.700000000000001,-1.4,-21.6,49.0,16
1107,18663.0,-1.6,-1.1,1.2000000000000002,-1.9000000000000001,1.1,10.8,-5.300000000000001,-6.2,51.0,16
1108,18680.0,-1.6,-1.1,-0.30000000000000004,-2.0,1.2000000000000002,9.4,6.600000000000001,-4.6,55.60000000000001,16
1109,18697.0,-1.3,-1.1,-1.2000000000000002,-1.6,1.2000000000000002,8.4,10.700000000000001,-1.5,59.40000000000001,16
1110,18714.0,-1.1,-1.1,-2.1,-1.4000000000000001,1.3,7.6000000000000005,11.2,-4.4,62.199999999999996,16
1111,18730.0,-1.0,-1.1,-2.2,-1.2000000000000002,1.2000000000000002,7.4,9.4,-4.0,66.1,16
1112,18747.0,-0.7000000000000001,-1.1,-2.4000000000000004,-0.9,1.2000000000000002,7.2,10.600000000000001,-2.8,68.1,16
1113,18765.0,-0.5,-1.0,-2.9000000000000004,-0.6000000000000001,1.4000000000000001,6.6000000000000005,14.5,-2.8,65.89999999999999,16
1114,18780.0,-0.4,-0.7000000000000001,-3.4000000000000004,-0.4,1.8,6.1000000000000005,14.700000000000001,-2.6,63.4,16
1115,18797.0,-0.2,-0.7000000000000001,-3.5,-0.30000000000000004,1.8,6.0,11.6,-0.6000000000000001,62.7,16
1116,18814.0,-0.1,-0.6000000000000001,-3.4000000000000004,-0.1,1.9000000000000001,6.1000000000000005,5.2,7.0,59.9,16
1117,18830.0,0.2,-0.30000000000000004,-3.2,0.30000000000000004,2.2,6.300000000000001,4.6,9.4,58.2,16
1118,18847.0,0.5,-0.2,-3.3000000000000003,0.5,2.3000000000000003,6.1000000000000005,4.1,8.8,57.00000000000001,16
1119,18863.0,1.0,0.30000000000000004,-2.8000000000000003,1.0,2.8000000000000003,6.6000000000000005,-5.7,8.4,53.10000000000001,16
1120,18880.0,1.1,0.4,-1.2000000000000002,1.1,2.8000000000000003,8.200000000000001,-26.300000000000004,19.700000000000003,49.50000000000001,16
1121,18897.0,0.9,0.4,-0.4,1.0,2.8000000000000003,9.0,-36.2,28.700000000000003,47.7,16
1122,18913.0,0.4,-0.1,1.7000000000000002,0.30000000000000004,2.1,11.200000000000001,-50.5,41.50000000000001,44.00000000000001,16
1123,18930.0,-0.2,-0.30000000000000004,2.6,-0.4,1.7000000000000002,12.100000000000001,-43.4,49.800000000000004,39.699999999999996,16
1124,18947.0,-0.2,-0.30000000000000004,2.2,-0.5,1.9000000000000001,11.100000000000001,-30.599999999999998,44.8,36.300000000000004,16
1125,18963.0,-0.1,0.1,1.0,-0.4,2.1,10.600000000000001,-1.1,17.7,24.7,16
1126,18982.0,0.1,0.4,0.4,-0.2,2.4000000000000004,10.0,14.5,-6.600000000000001,13.200000000000003,16
1127,18997.0,0.2,0.30000000000000004,0.9,0.2,2.3000000000000003,10.9,12.7,-26.1,4.800000000000001,16
1128,19013.0,0.5,0.0,1.7000000000000002,0.30000000000000004,2.1,11.3,10.4,-35.0,1.5,16
1129,19030.0,0.5,-0.2,2.9000000000000004,0.5,1.9000000000000001,12.4,7.9,-47.900000000000006,-2.3,16
1130,19047.0,0.4,-0.4,3.2,0.4,1.6,12.9,4.7,-50.2,-3.8,16
1131,19063.0,0.2,-0.6000000000000001,3.2,0.4,1.5,12.8,4.4,-47.900000000000006,-5.300000000000001,16
1132,19080.0,0.4,-0.2,2.2,0.9,2.0,11.8,13.3,-59.699999999999996,-9.5,16
1133,19097.0,0.5,0.2,2.1,1.2000000000000002,2.5,11.600000000000001,14.400000000000002,-68.60000000000001,-12.600000000000001,16
1134,19113.0,0.6000000000000001,0.4,2.2,1.4000000000000001,2.6,11.8,3.2,-61.8,-14.800000000000002,16
1135,19130.0,0.8,0.4,2.4000000000000004,1.7000000000000002,2.6,12.0,-11.8,-42.0,-12.7,16
1136,19147.0,0.0,-0.1,3.1,1.0,2.0,12.700000000000001,-28.0,-12.9,-9.2,16
1137,19163.0,-0.9,-0.7000000000000001,3.3000000000000003,0.1,1.4000000000000001,12.9,-35.9,7.1000000000000005,-4.6,16
1138,19183.0,-2.3000000000000003,-1.4000000000000001,1.9000000000000001,-1.4000000000000001,0.5,11.600000000000001,-35.699999999999996,28.600000000000005,3.2,16
1139,19197.0,-2.6,-1.1,-0.9,-1.9000000000000001,0.8,8.9,-9.2,19.0,5.500000000000001,16
1140,19213.0,-2.5,-0.7000000000000001,-2.4000000000000004,-1.7000000000000002,1.2000000000000002,7.4,3.3000000000000007,7.500000000000001,4.5,16
