,ms,accelX,accelY,accelZ,accelWithGX,accelWithGY,accelWithGZ,rotRateAlpha,rotRateBeta,rotRateGamma,interval
0,197.0,0.0,0.0,0.0,-0.2,7.300000000000001,6.2,-5.9,-7.8,-11.6,16
1,213.0,0.0,0.0,0.0,-0.2,7.300000000000001,6.300000000000001,-8.5,-4.7,-12.4,16
2,229.0,0.0,0.1,0.1,-0.30000000000000004,7.300000000000001,6.4,-13.000000000000002,1.8000000000000003,-11.1,16
3,246.0,0.1,0.2,0.30000000000000004,-0.1,7.5,6.7,-15.2,-1.0,-10.1,16
4,263.0,0.2,0.1,0.30000000000000004,0.0,7.4,6.800000000000001,-14.700000000000001,-4.5,-11.2,16
5,279.0,0.1,0.1,0.4,-0.1,7.4,7.0,-12.5,-9.4,-12.600000000000001,16
6,296.0,0.30000000000000004,0.0,0.30000000000000004,0.1,7.300000000000001,7.0,-9.5,-6.1000000000000005,-13.000000000000002,16
7,313.0,0.30000000000000004,0.1,0.30000000000000004,0.1,7.4,7.0,-8.5,-1.4,-13.5,16
8,329.0,0.2,0.2,0.30000000000000004,0.0,7.4,7.0,-8.100000000000001,1.8000000000000003,-14.600000000000001,16
9,346.0,0.1,0.2,0.30000000000000004,-0.1,7.4,7.1000000000000005,-6.300000000000001,1.4,-16.8,16
10,363.0,0.1,0.2,0.2,-0.2,7.4,6.9,-5.2,-0.7,-17.799999999999997,16
11,379.0,0.0,0.1,0.0,-0.30000000000000004,7.4,6.800000000000001,-3.9,-0.1,-19.400000000000002,16
12,396.0,-0.1,0.2,0.0,-0.5,7.5,6.800000000000001,-5.4,0.4,-17.7,16
13,412.0,-0.1,0.1,0.0,-0.5,7.4,6.800000000000001,-6.8,-1.0,-15.700000000000001,16
14,429.0,-0.1,0.0,0.0,-0.5,7.300000000000001,6.9,-6.500000000000001,-0.6000000000000001,-14.900000000000002,16
15,446.0,-0.1,0.0,0.0,-0.5,7.300000000000001,6.9,-4.2,-0.7,-14.700000000000001,16
16,462.0,0.0,0.0,-0.1,-0.5,7.300000000000001,6.800000000000001,-1.7,-0.6000000000000001,-14.900000000000002,16
17,479.0,0.0,0.1,-0.1,-0.6000000000000001,7.300000000000001,6.7,-1.3,-0.9000000000000001,-15.2,16
18,496.0,-0.1,0.1,-0.1,-0.7000000000000001,7.4,6.800000000000001,-2.0,-4.1,-14.100000000000001,16
19,512.0,-0.2,0.1,0.2,-0.7000000000000001,7.300000000000001,7.1000000000000005,-3.5,-6.1000000000000005,-11.5,16
20,529.0,-0.1,0.1,0.4,-0.6000000000000001,7.2,7.1000000000000005,-2.5,-7.200000000000001,-10.5,16
21,546.0,0.1,-0.1,0.2,-0.4,7.2,7.1000000000000005,3.4,-4.800000000000001,-8.0,16
22,563.0,0.2,0.1,0.0,-0.4,7.4,6.9,6.500000000000001,-1.0,-7.8,16
23,579.0,0.2,0.2,-0.2,-0.4,7.5,6.7,5.0,-1.3,-7.500000000000001,16
24,596.0,0.2,0.2,0.0,-0.4,7.5,6.9,3.9,-2.9,-6.0,16
25,612.0,0.30000000000000004,0.1,0.1,-0.30000000000000004,7.4,7.0,4.6,-7.9,-6.0,16
26,629.0,0.30000000000000004,0.0,0.0,-0.30000000000000004,7.4,6.800000000000001,7.300000000000001,-9.100000000000001,-6.300000000000001,16
27,646.0,0.30000000000000004,0.0,-0.1,-0.30000000000000004,7.300000000000001,6.7,7.8,-6.8,-6.600000000000001,16
28,662.0,0.30000000000000004,0.1,-0.30000000000000004,-0.2,7.4,6.5,3.9,-6.500000000000001,-7.400000000000001,16
29,679.0,0.30000000000000004,-0.2,-0.1,-0.2,7.2,6.7,-3.0,-4.800000000000001,-7.400000000000001,16
30,696.0,0.2,-0.2,0.2,-0.30000000000000004,7.1000000000000005,7.0,-4.9,-4.7,-7.1000000000000005,16
31,712.0,0.2,-0.5,0.5,-0.30000000000000004,6.800000000000001,7.4,-0.30000000000000004,-5.4,-7.400000000000001,16
32,729.0,0.30000000000000004,-0.4,0.30000000000000004,-0.30000000000000004,6.9,7.1000000000000005,8.700000000000001,-6.9,-8.3,16
33,746.0,0.30000000000000004,-0.4,0.1,-0.30000000000000004,7.0,6.7,11.6,-6.699999999999999,-8.600000000000001,16
34,762.0,0.1,-0.30000000000000004,-0.30000000000000004,-0.4,7.1000000000000005,6.5,12.200000000000001,-7.500000000000001,-10.8,16
35,779.0,0.1,-0.30000000000000004,-0.4,-0.5,7.1000000000000005,6.300000000000001,8.8,-7.0,-10.8,16
36,796.0,-0.2,-0.2,-0.1,-0.8,7.2,6.6000000000000005,4.9,-8.700000000000001,-11.5,16
37,812.0,-0.2,-0.30000000000000004,-0.1,-0.8,7.0,6.6000000000000005,4.1,-10.5,-11.8,16
38,829.0,-0.2,-0.4,0.0,-0.8,7.0,6.7,2.6,-12.8,-11.8,16
39,846.0,-0.30000000000000004,-0.30000000000000004,0.4,-0.9,7.0,7.1000000000000005,-0.2,-19.5,-12.600000000000001,16
40,862.0,-0.2,-0.5,0.5,-0.8,6.800000000000001,7.2,-1.3,-20.5,-12.600000000000001,16
41,879.0,-0.30000000000000004,-0.6000000000000001,0.8,-0.8,6.7,7.6000000000000005,-1.1,-16.5,-13.8,16
42,896.0,-0.4,-0.7000000000000001,0.7000000000000001,-1.0,6.6000000000000005,7.5,0.30000000000000004,-12.0,-16.3,16
43,912.0,-0.5,-0.7000000000000001,0.7000000000000001,-1.1,6.6000000000000005,7.5,0.30000000000000004,-11.700000000000001,-16.4,16
44,929.0,-0.7000000000000001,-0.7000000000000001,0.8,-1.3,6.6000000000000005,7.6000000000000005,1.3,-18.0,-15.8,16
45,946.0,-0.9,-0.5,0.9,-1.5,6.7,7.7,0.5,-30.4,-13.6,16
46,962.0,-0.4,-0.5,1.2000000000000002,-0.9,6.7,8.1,-4.1,-41.800000000000004,-14.900000000000002,16
47,979.0,-0.1,-0.6000000000000001,1.0,-0.6000000000000001,6.6000000000000005,7.9,-5.500000000000001,-46.0,-19.1,16
48,996.0,0.1,-0.8,0.9,-0.4,6.4,7.9,-6.500000000000001,-38.800000000000004,-27.400000000000002,16
49,1012.0,-0.2,-0.8,0.8,-0.7000000000000001,6.300000000000001,7.800000000000001,-6.300000000000001,-26.400000000000006,-32.400000000000006,16
50,1029.0,-0.4,-1.0,0.8,-1.0,6.1000000000000005,7.9,-4.300000000000001,-20.3,-34.2,16
51,1048.0,-1.0,-0.8,0.7000000000000001,-1.5,6.2,7.7,3.6000000000000005,-17.7,-31.2,16
52,1062.0,-0.8,-0.8,0.0,-1.4000000000000001,6.300000000000001,7.1000000000000005,6.699999999999999,-29.800000000000004,-28.500000000000004,16
53,1079.0,-0.6000000000000001,-0.7000000000000001,-0.2,-1.2000000000000002,6.4,6.9,2.3,-33.9,-31.099999999999998,16
54,1096.0,-0.4,-0.30000000000000004,0.2,-1.0,6.7,7.300000000000001,-11.6,-29.700000000000006,-37.0,16
55,1112.0,0.30000000000000004,-0.6000000000000001,0.8,-0.4,6.300000000000001,7.9,-16.200000000000003,-20.3,-38.2,16
56,1129.0,0.5,-0.8,0.8,-0.2,6.2,7.9,-12.7,-11.2,-39.599999999999994,16
57,1146.0,0.1,-1.0,0.30000000000000004,-0.7000000000000001,5.9,7.5,-8.3,8.700000000000001,-43.00000000000001,16
58,1162.0,-0.7000000000000001,0.0,0.9,-1.6,6.800000000000001,8.1,-18.200000000000003,13.100000000000001,-37.50000000000001,16
59,1179.0,-0.2,-0.8,0.4,-1.3,5.9,7.7,-20.1,-2.7,-39.1,16
60,1196.0,0.0,-0.9,0.0,-1.1,5.800000000000001,7.300000000000001,-18.900000000000002,-4.300000000000001,-43.6,16
61,1212.0,0.2,-0.4,-0.4,-1.0,6.2,7.0,-17.9,-4.2,-52.400000000000006,16
62,1229.0,-0.30000000000000004,-0.1,-0.4,-1.6,6.5,7.0,-19.9,-13.700000000000001,-60.400000000000006,16
63,1246.0,-0.30000000000000004,-0.2,-0.5,-1.7000000000000002,6.300000000000001,6.9,-18.200000000000003,-20.400000000000002,-62.7,16
64,1262.0,-0.5,0.30000000000000004,-0.2,-1.9000000000000001,6.800000000000001,7.2,-15.2,-31.400000000000002,-64.50000000000001,16
65,1279.0,-0.5,0.0,-2.4000000000000004,-1.9000000000000001,6.4,5.1000000000000005,-35.4,-68.3,-54.699999999999996,16
66,1296.0,-0.30000000000000004,0.5,-2.0,-1.6,6.800000000000001,5.6000000000000005,-43.1,-56.7,-57.60000000000001,16
67,1312.0,-0.8,-0.8,-0.9,-2.3000000000000003,5.4,6.7,-36.9,-32.7,-64.7,16
68,1329.0,-1.0,-0.2,-0.8,-2.5,5.800000000000001,6.9,-27.099999999999998,-54.50000000000001,-68.3,16
69,1346.0,-1.8,0.2,-0.9,-3.5,5.9,6.5,-21.6,-69.7,-57.49999999999999,16
70,1363.0,-2.3000000000000003,-0.6000000000000001,-1.5,-3.6,5.4,6.300000000000001,-8.3,-107.7,-9.3,16
71,1379.0,-2.3000000000000003,-0.9,-1.7000000000000002,-3.3000000000000003,5.0,6.1000000000000005,-9.600000000000001,-129.70000000000002,-0.4,16
72,1396.0,-1.7000000000000002,-0.4,-2.8000000000000003,-2.4000000000000004,5.4,5.0,-19.5,-120.10000000000001,-20.400000000000002,16
73,1413.0,-1.7000000000000002,-0.1,-2.6,-2.3000000000000003,5.7,5.2,-27.099999999999998,-107.30000000000001,-31.2,16
74,1429.0,-1.6,0.9,-1.3,-2.0,6.6000000000000005,6.6000000000000005,-39.300000000000004,-94.6,-43.70000000000001,16
75,1446.0,-1.6,0.0,-0.5,-1.9000000000000001,5.6000000000000005,7.5,-39.0,-95.20000000000002,-48.300000000000004,16
76,1462.0,-1.6,-0.30000000000000004,-0.4,-1.8,5.300000000000001,7.6000000000000005,-34.300000000000004,-99.7,-50.8,16
77,1479.0,-1.7000000000000002,0.0,-0.8,-1.7000000000000002,5.5,7.300000000000001,-25.4,-104.50000000000001,-52.300000000000004,16
78,1496.0,-1.6,1.5,-0.7000000000000001,-1.6,6.9,7.4,-24.599999999999998,-66.4,-44.9,16
79,1513.0,-1.8,1.9000000000000001,0.30000000000000004,-1.7000000000000002,7.300000000000001,8.4,-27.800000000000004,-52.80000000000001,-41.6,16
80,1529.0,-2.1,1.3,1.1,-1.9000000000000001,6.6000000000000005,9.3,-18.700000000000003,-68.60000000000001,-31.0,16
81,1546.0,-1.2000000000000002,0.2,1.6,-1.0,5.6000000000000005,9.8,12.299999999999999,-43.800000000000004,-21.8,16
82,1563.0,-0.2,0.30000000000000004,2.3000000000000003,0.1,5.800000000000001,10.5,51.4,-53.7,-4.7,16
83,1580.0,-0.30000000000000004,-0.1,2.0,0.2,5.5,10.100000000000001,75.4,-65.5,-0.6000000000000001,16
84,1596.0,-1.9000000000000001,-0.9,-0.7000000000000001,-1.3,5.0,7.2,116.6,-78.3,-9.2,16
85,1612.0,1.4000000000000001,0.1,-4.1000000000000005,2.1,6.300000000000001,3.5,94.6,-84.1,-87.00000000000001,16
86,1631.0,0.9,1.5,-2.8000000000000003,1.6,7.7,4.7,74.2,-92.90000000000002,-132.6,16
87,1646.0,-1.1,2.8000000000000003,-3.7,-0.5,9.3,3.6,45.0,-90.0,-136.4,16
88,1662.0,-3.8000000000000003,4.2,-3.1,-3.4000000000000004,10.8,4.1000000000000005,6.2,-75.9,-131.9,16
89,1679.0,-5.9,4.800000000000001,-3.8000000000000003,-5.5,11.4,3.4000000000000004,-7.400000000000001,-67.8,-116.2,16
90,1696.0,-8.6,3.7,-0.7000000000000001,-8.3,10.4,6.5,-5.9,-29.200000000000003,-45.9,16
91,1712.0,-5.9,-0.6000000000000001,0.6000000000000001,-5.5,6.1000000000000005,7.800000000000001,13.000000000000002,-100.1,44.6,16
92,1729.0,-4.2,-1.0,0.2,-1.4000000000000001,5.6000000000000005,6.9,33.50000000000001,-122.60000000000001,71.30000000000001,16
93,1746.0,-0.8,-1.6,-1.7000000000000002,0.4,5.300000000000001,5.1000000000000005,79.6,-170.1,79.39999999999999,16
94,1762.0,0.9,-2.9000000000000004,-5.2,2.7,4.1000000000000005,1.3,93.60000000000001,-219.00000000000003,59.9,16
95,1779.0,-0.2,-3.6,-5.800000000000001,2.1,3.5,0.4,57.00000000000001,-169.50000000000003,28.800000000000004,16
96,1796.0,-1.4000000000000001,-3.4000000000000004,-5.4,1.0,3.7,0.6000000000000001,40.7,-156.0,23.400000000000002,16
97,1812.0,-2.6,-4.1000000000000005,-3.2,0.1,3.0,2.6,23.900000000000006,-118.90000000000002,45.400000000000006,16
98,1829.0,-1.9000000000000001,-5.2,-1.7000000000000002,1.2000000000000002,1.8,3.9000000000000004,34.60000000000001,-121.10000000000001,98.60000000000001,16
99,1846.0,-1.6,-6.0,-1.9000000000000001,1.8,0.9,3.5,46.0,-131.6,123.30000000000003,16
100,1862.0,-1.9000000000000001,-6.6000000000000005,-3.9000000000000004,2.2,0.1,1.2000000000000002,49.0,-154.6,170.30000000000004,16
101,1879.0,1.7000000000000002,-6.800000000000001,-2.9000000000000004,6.6000000000000005,-0.4,1.7000000000000002,41.0,-185.90000000000003,215.8,16
102,1896.0,4.800000000000001,-7.5,-1.7000000000000002,10.100000000000001,-1.3,2.8000000000000003,48.2,-211.4,219.10000000000002,16
103,1912.0,5.4,-7.1000000000000005,-0.6000000000000001,11.5,-1.2000000000000002,3.1,79.5,-273.3,186.20000000000002,16
104,1929.0,2.7,-6.1000000000000005,-2.2,9.5,-0.6000000000000001,0.7000000000000001,108.2,-259.6,179.8,16
105,1946.0,1.4000000000000001,-6.0,-2.8000000000000003,8.4,-0.7000000000000001,-1.0,106.30000000000001,-187.50000000000003,208.00000000000003,16
106,1962.0,3.4000000000000004,-5.4,-3.1,11.0,-0.6000000000000001,-1.2000000000000002,94.80000000000001,-157.70000000000002,228.00000000000003,16
107,1979.0,9.0,-6.5,-0.2,17.2,-2.3000000000000003,1.1,76.5,-159.9,205.90000000000003,16
108,1996.0,8.4,-4.4,-0.30000000000000004,16.900000000000002,-0.7000000000000001,0.4,96.80000000000001,-199.70000000000002,146.60000000000002,16
109,2012.0,6.6000000000000005,-3.6,-2.3000000000000003,15.3,-0.1,-2.0,100.5,-187.10000000000002,138.10000000000002,16
110,2029.0,2.0,-2.3000000000000003,-5.4,10.9,0.6000000000000001,-5.5,43.1,-96.80000000000001,175.70000000000002,16
111,2046.0,1.8,-0.5,-1.3,10.9,1.7000000000000002,-1.5,-53.300000000000004,7.500000000000001,246.70000000000002,16
112,2062.0,3.9000000000000004,-2.0,0.4,13.100000000000001,-0.2,0.2,-79.7,2.1,264.90000000000003,16
113,2079.0,5.800000000000001,-2.4000000000000004,1.9000000000000001,15.100000000000001,-1.4000000000000001,1.7000000000000002,-89.10000000000001,-44.00000000000001,251.10000000000002,16
114,2096.0,5.4,-1.2000000000000002,2.9000000000000004,14.9,-1.0,2.5,-68.60000000000001,-85.60000000000001,225.8,16
115,2112.0,4.2,-0.7000000000000001,2.5,13.700000000000001,-0.8,2.0,-58.1,-72.7,219.00000000000003,16
116,2129.0,2.8000000000000003,0.6000000000000001,3.1,12.3,-0.2,2.5,-40.6,-19.400000000000002,219.4,16
117,2146.0,4.7,0.7000000000000001,2.5,14.100000000000001,-0.8,1.9000000000000001,-26.1,-8.4,200.70000000000002,16
118,2162.0,4.5,0.6000000000000001,2.3000000000000003,13.0,-1.1,1.1,-20.900000000000002,-9.5,178.50000000000003,16
119,2179.0,2.4000000000000004,1.4000000000000001,1.1,11.700000000000001,-0.9,0.4,-17.300000000000004,-12.200000000000001,150.4,16
120,2196.0,0.6000000000000001,2.6,0.4,9.8,-0.2,-0.2,-35.4,19.6,163.00000000000003,16
121,2212.0,2.6,2.5,0.6000000000000001,11.700000000000001,-0.7000000000000001,0.1,-65.2,56.800000000000004,179.30000000000004,16
122,2229.0,3.9000000000000004,2.3000000000000003,0.5,12.8,-1.2000000000000002,0.0,-78.5,79.8,175.4,16
123,2247.0,3.6,2.7,1.0,12.4,-1.3,0.7000000000000001,-101.7,119.89999999999999,152.1,16
124,2262.0,2.9000000000000004,3.3000000000000003,1.4000000000000001,11.200000000000001,-0.7000000000000001,2.1,-112.9,114.2,132.70000000000002,16
125,2279.0,3.0,3.4000000000000004,2.5,11.600000000000001,-1.1,2.6,-113.3,95.69999999999999,124.50000000000001,16
126,2296.0,4.2,3.0,3.1,12.600000000000001,-1.8,3.2,-104.00000000000001,61.300000000000004,112.0,16
127,2313.0,5.4,3.5,4.1000000000000005,13.700000000000001,-1.6,4.2,-88.3,39.400000000000006,96.30000000000001,16
128,2330.0,6.0,3.7,4.3,14.200000000000001,-1.4000000000000001,4.3,-75.7,31.2,84.5,16
129,2346.0,6.4,4.4,4.4,14.600000000000001,-0.9,4.5,-45.7,16.5,52.900000000000006,16
130,2365.0,5.7,4.9,3.7,13.9,-0.5,3.8000000000000003,-21.500000000000004,-1.5,22.2,16
131,2379.0,5.5,4.2,2.8000000000000003,13.700000000000001,-1.2000000000000002,2.8000000000000003,-9.4,-13.8,9.3,16
132,2397.0,5.2,4.0,2.6,13.5,-1.3,2.6,-7.0,-14.600000000000001,8.600000000000001,16
133,2413.0,5.1000000000000005,4.4,3.1,13.4,-1.0,3.1,-2.5,-11.900000000000002,11.1,16
134,2429.0,5.5,4.5,4.0,13.8,-0.8,4.0,14.400000000000002,-11.900000000000002,9.8,16
135,2447.0,5.6000000000000005,4.6000000000000005,4.3,13.9,-0.7000000000000001,4.3,28.600000000000005,-15.2,4.1,16
136,2464.0,5.9,4.3,4.1000000000000005,14.3,-0.9,4.2,60.2,-28.900000000000002,-16.4,16
137,2479.0,5.5,3.6,3.2,14.0,-1.5,3.4000000000000004,86.7,-43.800000000000004,-42.900000000000006,16
138,2496.0,5.1000000000000005,3.3000000000000003,2.8000000000000003,13.600000000000001,-1.7000000000000002,3.0,95.60000000000002,-48.70000000000001,-55.5,16
139,2514.0,3.9000000000000004,2.4000000000000004,2.6,12.600000000000001,-2.3000000000000003,2.9000000000000004,106.5,-52.5,-76.3,16
140,2530.0,3.0,1.4000000000000001,2.4000000000000004,11.9,-3.0,2.7,113.8,-55.400000000000006,-91.6,16
141,2549.0,1.9000000000000001,0.6000000000000001,2.6,11.0,-3.5,2.9000000000000004,119.20000000000002,-55.5,-100.80000000000001,16
142,2564.0,1.4000000000000001,0.6000000000000001,2.8000000000000003,10.5,-3.3000000000000003,3.1,122.79999999999998,-52.80000000000001,-101.80000000000001,16
143,2579.0,1.1,0.9,3.0,10.3,-2.7,3.4000000000000004,128.70000000000002,-47.900000000000006,-99.2,16
144,2596.0,1.9000000000000001,0.8,2.8000000000000003,11.3,-2.5,3.2,130.9,-43.6,-101.4,16
145,2612.0,2.2,0.5,2.5,11.700000000000001,-2.6,2.9000000000000004,131.7,-37.1,-106.9,16
146,2629.0,2.0,0.2,1.9000000000000001,11.600000000000001,-2.5,2.4000000000000004,127.40000000000002,-10.5,-121.5,16
147,2646.0,1.6,0.1,2.0,11.100000000000001,-2.1,2.5,122.79999999999998,12.7,-135.1,16
148,2663.0,1.4000000000000001,-0.2,1.6,11.200000000000001,-2.1,2.4000000000000004,124.3,21.300000000000004,-137.9,16
149,2680.0,2.6,-0.7000000000000001,0.7000000000000001,12.5,-2.2,1.6,133.60000000000002,29.600000000000005,-143.8,16
150,2696.0,3.0,-1.7000000000000002,-0.9,13.0,-2.5,0.1,124.50000000000001,14.200000000000001,-170.70000000000002,16
151,2714.0,1.6,-2.7,-1.9000000000000001,11.700000000000001,-2.9000000000000004,-0.9,84.3,2.2,-200.60000000000002,16
152,2730.0,0.8,-3.2,-1.5,10.8,-3.1,-0.4,60.1,3.8,-208.3,16
153,2746.0,0.0,-4.800000000000001,-0.2,10.0,-3.9000000000000004,0.9,23.900000000000006,8.2,-207.20000000000002,16
154,2763.0,-0.2,-5.2,0.4,9.700000000000001,-4.0,1.5,16.3,12.200000000000001,-202.49999999999997,16
155,2779.0,-0.6000000000000001,-5.800000000000001,1.1,9.200000000000001,-4.0,2.2,17.0,15.000000000000002,-190.2,16
156,2796.0,-0.8,-6.6000000000000005,1.3,9.0,-4.3,2.5,29.400000000000002,9.0,-177.20000000000002,16
157,2812.0,-1.0,-7.300000000000001,1.0,8.6,-4.4,2.2,42.400000000000006,-5.9,-168.5,16
158,2829.0,-1.0,-7.800000000000001,0.6000000000000001,8.4,-4.6000000000000005,1.6,46.0,-10.0,-162.10000000000002,16
159,2850.0,-1.5,-8.5,-0.6000000000000001,7.800000000000001,-5.0,0.4,41.6,-4.0,-142.20000000000002,16
160,2867.0,-2.6,-8.6,-0.8,6.5,-4.7,0.2,23.3,15.899999999999999,-111.70000000000002,16
161,2879.0,-3.0,-8.700000000000001,-0.9,6.0,-4.7,0.2,12.5,19.9,-95.9,16
162,2896.0,-3.1,-9.3,-0.5,5.800000000000001,-5.1000000000000005,0.6000000000000001,-4.9,20.3,-67.10000000000001,16
163,2913.0,-2.4000000000000004,-10.100000000000001,-0.4,6.4,-5.9,0.7000000000000001,-3.5,6.2,-39.2,16
164,2929.0,-2.2,-10.100000000000001,-0.8,6.5,-5.9,0.4,2.5,-5.4,-27.9,16
165,2950.0,-4.3,-8.700000000000001,-2.1,4.5,-4.6000000000000005,-1.1,-7.1000000000000005,-36.1,6.9,16
166,2962.0,-4.6000000000000005,-8.4,-2.3000000000000003,4.1000000000000005,-4.4,-1.4000000000000001,-20.400000000000002,-33.2,26.9,16
167,2979.0,-3.2,-8.3,-1.2000000000000002,5.6000000000000005,-4.5,-0.30000000000000004,-41.300000000000004,-9.700000000000001,71.7,16
168,2996.0,-4.1000000000000005,-8.200000000000001,-0.8,4.7,-4.6000000000000005,0.1,-40.9,-1.9,87.7,16
169,3013.0,-2.6,-7.2,-0.2,6.4,-4.1000000000000005,0.8,-27.5,16.8,130.5,16
170,3029.0,-0.5,-7.9,-1.0,8.6,-5.300000000000001,0.0,-7.1000000000000005,-2.5,146.8,16
171,3048.0,-0.30000000000000004,-7.6000000000000005,-1.6,8.9,-5.5,-0.7000000000000001,0.5,-24.8,144.70000000000002,16
172,3063.0,-0.7000000000000001,-7.2,-2.1,8.6,-5.300000000000001,-1.2000000000000002,-3.0,-36.7,145.5,16
173,3079.0,-1.2000000000000002,-6.2,-2.2,8.200000000000001,-4.9,-1.5,-24.3,-44.4,157.60000000000002,16
174,3096.0,-1.0,-5.6000000000000005,-2.1,8.3,-4.6000000000000005,-1.5,-37.9,-40.300000000000004,165.7,16
175,3112.0,-0.30000000000000004,-4.6000000000000005,-1.8,9.1,-4.2,-1.2000000000000002,-66.2,-25.300000000000004,180.39999999999998,16
176,3129.0,1.1,-3.4000000000000004,-0.7000000000000001,10.5,-3.7,-0.2,-78.0,-11.8,184.4,16
177,3152.0,1.9000000000000001,-2.1,-0.5,11.3,-3.0,-0.1,-76.60000000000001,-10.299999999999999,168.9,16
178,3163.0,1.8,-1.5,-0.7000000000000001,11.100000000000001,-2.6,-0.30000000000000004,-77.4,-12.299999999999999,158.00000000000003,16
179,3179.0,1.0,-0.6000000000000001,-0.8,10.3,-2.2,-0.5,-85.20000000000002,-20.3,142.60000000000002,16
180,3196.0,0.2,0.4,-0.30000000000000004,9.4,-1.6,-0.1,-98.39999999999999,-26.200000000000003,145.9,16
181,3214.0,0.1,1.0,0.30000000000000004,9.3,-1.3,0.4,-104.7,-28.3,152.1,16
182,3229.0,1.2000000000000002,1.9000000000000001,1.0,10.3,-0.9,0.9,-113.89999999999999,-31.3,169.60000000000002,16
183,3255.0,3.5,2.4000000000000004,1.9000000000000001,13.5,-0.9,2.4000000000000004,-112.0,-24.7,172.1,16
184,3263.0,4.7,2.7,2.8000000000000003,13.5,-0.9,2.4000000000000004,-112.0,-24.7,172.1,16
185,3279.0,6.2,4.0,3.4000000000000004,14.9,0.0,2.8000000000000003,-88.60000000000001,-31.2,146.60000000000002,16
186,3296.0,7.2,4.6000000000000005,2.8000000000000003,15.700000000000001,0.30000000000000004,2.1,-62.900000000000006,-23.2,119.7,16
187,3313.0,7.4,4.9,2.0,15.9,0.5,1.3,-56.300000000000004,-15.2,108.7,16
188,3329.0,6.800000000000001,5.300000000000001,1.6,15.200000000000001,0.6000000000000001,0.7000000000000001,-64.7,0.4,85.20000000000002,16
189,3350.0,5.7,6.4,2.4000000000000004,14.0,1.6,1.4000000000000001,-77.3,-2.4000000000000004,73.5,16
190,3363.0,5.800000000000001,6.800000000000001,2.4000000000000004,14.4,2.0,2.1,-83.10000000000001,-3.2,72.2,16
191,3383.0,6.9,7.300000000000001,3.8000000000000003,15.0,2.3000000000000003,2.6,-82.0,4.6,58.900000000000006,16
192,3396.0,7.1000000000000005,7.300000000000001,4.4,15.3,2.3000000000000003,3.2,-75.2,7.699999999999999,53.0,16
193,3412.0,6.300000000000001,8.6,7.0,14.5,3.6,5.7,-40.0,-2.0,44.300000000000004,16
194,3429.0,6.300000000000001,9.1,7.800000000000001,14.4,4.1000000000000005,6.5,-7.699999999999999,-12.100000000000001,43.800000000000004,16
195,3446.0,8.0,9.200000000000001,7.6000000000000005,16.1,4.1000000000000005,6.4,67.5,-34.2,43.1,16
196,3465.0,10.4,7.6000000000000005,5.2,18.5,2.4000000000000004,4.1000000000000005,130.4,-50.400000000000006,14.900000000000002,16
197,3479.0,10.600000000000001,6.7,3.7,18.8,1.5,2.7,145.8,-47.400000000000006,-9.3,16
198,3496.0,10.600000000000001,4.6000000000000005,1.4000000000000001,19.0,-0.4,0.6000000000000001,141.70000000000002,-27.6,-63.599999999999994,16
199,3513.0,9.1,2.7,0.9,17.7,-2.0,0.30000000000000004,110.6,-5.2,-114.00000000000001,16
200,3529.0,8.0,2.0,1.8,15.8,-2.9000000000000004,2.1,96.5,1.0,-134.20000000000002,16
201,3546.0,6.4,0.6000000000000001,2.5,15.4,-3.4000000000000004,2.1,86.60000000000001,3.0,-160.3,16
202,3564.0,6.0,-1.1,1.1,15.200000000000001,-4.6000000000000005,0.8,80.30000000000001,13.6,-176.20000000000002,16
203,3581.0,5.1000000000000005,-2.4000000000000004,-0.4,14.600000000000001,-5.300000000000001,-0.5,55.900000000000006,37.300000000000004,-196.79999999999998,16
204,3596.0,4.6000000000000005,-2.8000000000000003,-0.4,14.3,-5.4,-0.4,38.800000000000004,49.1,-208.70000000000002,16
205,3612.0,3.5,-4.1000000000000005,0.5,13.3,-6.0,0.7000000000000001,15.5,62.7,-230.89999999999998,16
206,3629.0,1.8,-4.7,1.1,11.8,-5.800000000000001,1.6,13.100000000000001,68.2,-246.50000000000006,16
207,3648.0,1.2000000000000002,-5.300000000000001,1.0,10.9,-6.1000000000000005,1.6,25.8,65.3,-251.3,16
208,3663.0,0.5,-6.6000000000000005,0.7000000000000001,10.5,-6.4,1.6,33.2,60.300000000000004,-251.00000000000003,16
209,3679.0,0.1,-7.800000000000001,0.4,10.100000000000001,-6.800000000000001,1.4000000000000001,45.5,52.80000000000001,-245.20000000000002,16
210,3696.0,0.1,-8.1,0.5,10.0,-6.800000000000001,1.6,52.1,47.80000000000001,-242.20000000000002,16
211,3714.0,0.2,-9.200000000000001,-0.2,10.0,-7.1000000000000005,1.0,67.2,38.800000000000004,-236.4,16
212,3729.0,-0.6000000000000001,-9.700000000000001,-0.9,9.0,-6.9,0.30000000000000004,77.00000000000001,20.900000000000002,-230.5,16
213,3749.0,-1.1,-10.0,-1.4000000000000001,8.3,-6.6000000000000005,-0.2,80.50000000000001,-1.1,-211.20000000000005,16
214,3763.0,-0.9,-10.4,-1.7000000000000002,8.3,-6.6000000000000005,-0.6000000000000001,78.7,-4.0,-195.79999999999998,16
215,3780.0,-0.4,-10.700000000000001,-2.2,8.5,-6.5,-1.3,64.80000000000001,3.8,-165.10000000000002,16
216,3796.0,-0.9,-10.5,-1.9000000000000001,7.800000000000001,-5.9,-1.0,44.10000000000001,11.3,-143.0,16
217,3812.0,-1.2000000000000002,-10.4,-1.6,7.4,-5.6000000000000005,-0.7000000000000001,35.2,11.4,-132.70000000000002,16
218,3829.0,-1.6,-10.4,-1.4000000000000001,6.800000000000001,-5.4,-0.5,25.7,17.1,-110.4,16
219,3846.0,-1.8,-11.100000000000001,-1.4000000000000001,6.4,-5.9,-0.5,28.400000000000002,36.400000000000006,-89.70000000000002,16
220,3865.0,-2.2,-11.9,-2.5,5.9,-6.6000000000000005,-1.6,39.50000000000001,49.699999999999996,-63.599999999999994,16
221,3881.0,-2.7,-11.9,-2.9000000000000004,5.300000000000001,-6.6000000000000005,-1.9000000000000001,41.199999999999996,49.9,-49.800000000000004,16
222,3896.0,-5.2,-10.600000000000001,-3.4000000000000004,2.7,-5.2,-2.4000000000000004,29.600000000000005,25.4,-21.500000000000004,16
223,3913.0,-6.0,-9.8,-3.3000000000000003,1.8,-4.5,-2.4000000000000004,19.0,8.600000000000001,2.9,16
224,3929.0,-5.800000000000001,-9.1,-2.9000000000000004,2.1,-4.0,-2.0,6.1000000000000005,-16.700000000000003,71.19999999999999,16
225,3947.0,-3.2,-9.200000000000001,-3.2,4.9,-4.5,-2.4000000000000004,2.5,-16.0,137.20000000000002,16
226,3963.0,-0.9,-9.3,-3.3000000000000003,7.4,-5.1000000000000005,-2.6,-4.800000000000001,-14.100000000000001,170.2,16
227,3979.0,-0.2,-8.8,-3.1,8.200000000000001,-4.9,-2.4000000000000004,-7.9,-15.899999999999999,179.1,16
228,3996.0,0.9,-8.0,-2.8000000000000003,9.600000000000001,-4.800000000000001,-2.2,-9.700000000000001,-36.9,185.90000000000003,16
229,4012.0,0.5,-7.2,-3.4000000000000004,9.4,-4.6000000000000005,-3.0,-17.400000000000002,-62.1,184.79999999999998,16
230,4029.0,-0.1,-6.5,-3.5,8.9,-4.2,-3.2,-27.9,-65.8,188.9,16
231,4050.0,-0.9,-5.5,-3.4000000000000004,8.200000000000001,-3.9000000000000004,-3.2,-59.60000000000001,-53.50000000000001,212.0,16
232,4065.0,-0.5,-4.7,-2.0,8.700000000000001,-3.9000000000000004,-1.9000000000000001,-94.6,-26.400000000000006,239.5,16
233,4079.0,-0.1,-4.4,-0.8,9.200000000000001,-4.0,-0.7000000000000001,-105.0,-16.900000000000002,250.00000000000003,16
234,4096.0,1.4000000000000001,-3.6,0.8,10.700000000000001,-4.0,0.8,-106.0,-11.4,256.9,16
235,4113.0,3.4000000000000004,-2.6,1.9000000000000001,12.5,-3.8000000000000003,1.8,-87.7,-19.1,239.79999999999998,16
236,4130.0,3.8000000000000003,-1.9000000000000001,2.0,13.0,-3.1,1.8,-75.2,-28.200000000000003,222.70000000000002,16
237,4156.0,4.4,0.9,1.4000000000000001,13.3,-1.6,1.0,-47.3,-49.800000000000004,190.30000000000004,16
238,4162.0,4.800000000000001,1.6,0.9,13.700000000000001,-1.2000000000000002,0.4,-44.00000000000001,-47.1,190.60000000000002,16
239,4179.0,5.300000000000001,2.3000000000000003,0.4,14.200000000000001,-0.8,-0.2,-46.9,-42.1,191.49999999999997,16
240,4196.0,6.2,3.5,-0.6000000000000001,14.9,-0.1,-1.3,-74.0,-31.6,183.29999999999998,16
241,4213.0,6.800000000000001,4.1000000000000005,-0.1,15.3,0.1,-1.0,-121.30000000000001,-17.0,165.10000000000002,16
242,4229.0,7.1000000000000005,3.8000000000000003,1.2000000000000002,15.4,-0.6000000000000001,0.1,-164.7,2.6,146.60000000000002,16
243,4249.0,7.6000000000000005,3.7,3.0,15.8,-1.0,1.7000000000000002,-189.60000000000002,24.5,131.29999999999998,16
244,4264.0,8.1,3.8000000000000003,3.8000000000000003,16.2,-0.9,2.4000000000000004,-195.4,35.9,122.90000000000002,16
245,4279.0,8.6,4.6000000000000005,5.1000000000000005,16.7,-0.30000000000000004,3.6,-192.40000000000003,58.0,95.1,16
246,4296.0,8.9,4.9,5.800000000000001,16.900000000000002,0.0,4.2,-185.00000000000003,62.4,79.7,16
247,4312.0,9.1,4.9,8.0,17.1,-0.1,6.300000000000001,-148.8,34.1,48.50000000000001,16
248,4329.0,7.4,7.2,10.5,15.4,2.3000000000000003,8.6,-72.10000000000001,-27.099999999999998,41.6,16
249,4346.0,8.3,10.200000000000001,11.9,16.2,5.1000000000000005,10.0,42.1,-97.89999999999999,60.00000000000001,16
250,4363.0,10.5,10.0,10.700000000000001,18.400000000000002,4.9,8.700000000000001,105.9,-126.89999999999999,60.1,16
251,4379.0,14.4,8.9,5.300000000000001,22.200000000000003,3.7,3.3000000000000003,191.49999999999997,-141.3,11.900000000000002,16
252,4396.0,14.3,7.7,0.7000000000000001,22.3,2.5,-1.2000000000000002,194.80000000000004,-118.60000000000001,-76.2,16
253,4412.0,13.100000000000001,7.2,-0.5,21.200000000000003,2.1,-2.5,174.3,-90.80000000000001,-114.00000000000001,16
254,4429.0,10.700000000000001,5.300000000000001,-0.9,19.200000000000003,0.7000000000000001,-2.8000000000000003,119.20000000000002,-26.6,-161.70000000000002,16
255,4447.0,9.1,3.4000000000000004,-0.7000000000000001,17.900000000000002,-0.8,-2.4000000000000004,75.1,26.799999999999997,-185.90000000000003,16
256,4467.0,7.9,1.6,-1.3,17.1,-1.9000000000000001,-2.7,43.50000000000001,68.80000000000001,-204.70000000000002,16
257,4479.0,7.2,0.6000000000000001,-1.6,16.5,-2.6,-2.9000000000000004,28.200000000000003,86.1,-216.10000000000002,16
258,4496.0,4.7,-1.1,-0.9,14.4,-3.5,-1.9000000000000001,1.9,106.9,-242.0,16
259,4512.0,3.4000000000000004,-1.8,-0.4,13.200000000000001,-3.8000000000000003,-1.1,-4.7,111.4,-252.0,16
260,4529.0,1.6,-2.8000000000000003,0.7000000000000001,11.600000000000001,-3.9000000000000004,0.30000000000000004,-1.3,107.9,-260.40000000000003,16
261,4546.0,1.1,-4.0,1.0,11.100000000000001,-4.3,1.0,22.9,101.20000000000002,-254.80000000000004,16
262,4563.0,1.4000000000000001,-6.0,1.0,11.5,-5.4,1.3,59.300000000000004,87.80000000000001,-250.3,16
263,4579.0,1.3,-6.800000000000001,0.30000000000000004,11.3,-5.9,0.7000000000000001,75.60000000000001,76.2,-251.9,16
264,4596.0,1.0,-8.3,-0.8,10.9,-6.6000000000000005,-0.2,92.8,54.6,-253.90000000000003,16
265,4612.0,0.0,-9.1,-1.4000000000000001,9.600000000000001,-6.6000000000000005,-0.8,95.20000000000002,35.1,-251.00000000000003,16
266,4629.0,-0.5,-9.4,-1.7000000000000002,9.1,-6.4,-1.1,89.6,28.600000000000005,-244.50000000000003,16
267,4646.0,-0.8,-10.100000000000001,-1.6,8.5,-6.5,-1.0,70.3,18.0,-222.30000000000004,16
268,4662.0,-0.5,-10.700000000000001,-0.7000000000000001,8.5,-6.5,-0.2,55.60000000000001,7.400000000000001,-195.89999999999998,16
269,4679.0,-0.4,-11.0,-0.2,8.5,-6.6000000000000005,0.30000000000000004,52.60000000000001,-1.2000000000000002,-184.0,16
270,4696.0,-0.4,-11.100000000000001,0.5,8.200000000000001,-6.300000000000001,0.8,52.5,-22.2,-164.4,16
271,4712.0,-0.6000000000000001,-11.3,0.0,7.7,-6.1000000000000005,0.2,49.699999999999996,-34.2,-147.4,16
272,4729.0,-0.8,-11.5,-0.30000000000000004,7.4,-6.2,-0.2,35.599999999999994,-17.5,-128.5,16
273,4750.0,-1.3,-11.9,0.2,6.6000000000000005,-6.4,0.2,27.400000000000002,-6.500000000000001,-119.20000000000002,16
274,4762.0,-1.9000000000000001,-12.600000000000001,0.7000000000000001,5.9,-6.9,0.7000000000000001,29.900000000000006,13.399999999999999,-92.10000000000001,16
275,4779.0,-2.2,-12.8,0.4,4.800000000000001,-6.9,-0.5,52.00000000000001,30.699999999999996,-54.4,16
276,4796.0,-3.5,-12.4,-1.4000000000000001,4.1000000000000005,-6.6000000000000005,-1.4000000000000001,54.199999999999996,29.800000000000004,-36.7,16
277,4812.0,-4.9,-11.100000000000001,-1.9000000000000001,2.6,-5.300000000000001,-2.0,34.7,9.8,0.8,16
278,4829.0,-4.800000000000001,-10.0,-1.4000000000000001,2.7,-4.4,-1.6,9.2,-11.6,53.10000000000001,16
279,4846.0,-3.9000000000000004,-9.5,-1.2000000000000002,3.7,-4.1000000000000005,-1.4000000000000001,1.4,-15.2,82.2,16
280,4864.0,-1.5,-9.3,-1.0,6.300000000000001,-4.4,-1.3,-2.3,-2.0,129.20000000000002,16
281,4880.0,0.0,-8.9,-1.0,8.0,-4.4,-1.2000000000000002,-0.1,12.9,157.4,16
282,4896.0,0.30000000000000004,-8.4,-0.8,8.5,-4.2,-1.0,3.8,14.400000000000002,166.00000000000003,16
283,4912.0,0.8,-7.4,-1.5,9.200000000000001,-3.8000000000000003,-1.7000000000000002,15.100000000000001,3.8,176.20000000000002,16
284,4929.0,0.30000000000000004,-6.2,-2.7,8.9,-3.1,-3.0,15.2,-1.8000000000000003,187.3,16
285,4947.0,0.0,-5.6000000000000005,-3.1,8.6,-2.6,-3.6,8.8,-4.2,195.00000000000003,16
286,4964.0,-0.2,-4.4,-3.3000000000000003,8.700000000000001,-2.3000000000000003,-3.7,-13.700000000000001,-10.299999999999999,214.70000000000002,16
287,4979.0,1.2000000000000002,-3.4000000000000004,-2.7,10.200000000000001,-2.0,-3.0,-38.60000000000001,-15.2,229.8,16
288,4996.0,3.0,-2.3000000000000003,-1.8,12.200000000000001,-1.7000000000000002,-2.3000000000000003,-52.80000000000001,-13.399999999999999,223.00000000000003,16
289,5012.0,2.9000000000000004,-1.5,-1.6,12.100000000000001,-1.2000000000000002,-2.0,-55.5,-13.100000000000001,213.3,16
290,5029.0,2.4000000000000004,-0.30000000000000004,-1.2000000000000002,11.600000000000001,-0.6000000000000001,-1.7000000000000002,-60.8,-10.9,200.8,16
291,5052.0,2.2,0.7000000000000001,-0.5,11.3,-0.30000000000000004,-1.0,-65.8,-12.299999999999999,195.20000000000002,16
292,5064.0,2.4000000000000004,1.3,-0.1,11.5,0.1,-0.7000000000000001,-67.10000000000001,-15.8,196.4,16
293,5080.0,4.2,1.9000000000000001,0.8,13.200000000000001,0.1,0.2,-65.5,-24.0,199.9,16
294,5096.0,6.0,3.1,1.7000000000000002,15.0,0.7000000000000001,0.9,-54.9,-29.1,186.6,16
295,5112.0,6.7,3.7,1.9000000000000001,15.600000000000001,1.0,1.1,-44.8,-29.600000000000005,175.10000000000002,16
296,5129.0,7.800000000000001,4.4,1.4000000000000001,16.6,1.3,0.4,-23.5,-32.7,146.9,16
297,5157.0,7.0,6.1000000000000005,-0.30000000000000004,15.700000000000001,2.5,-1.4000000000000001,-22.5,-34.50000000000001,117.5,16
298,5163.0,6.800000000000001,6.4,-0.5,15.5,2.8000000000000003,-1.7000000000000002,-33.400000000000006,-29.400000000000002,113.4,16
299,5179.0,7.0,6.800000000000001,-0.4,15.600000000000001,3.1,-1.7000000000000002,-47.1,-20.3,109.8,16
300,5196.0,7.7,7.7,0.8,16.2,3.7,-0.5,-70.6,8.5,97.10000000000001,16
301,5212.0,8.1,7.9,2.4000000000000004,16.6,3.8000000000000003,1.1,-66.9,27.5,67.00000000000001,16
302,5229.0,7.300000000000001,8.4,3.3000000000000003,15.8,4.2,2.0,-55.2,32.0,52.900000000000006,16
303,5247.0,6.1000000000000005,10.0,6.1000000000000005,14.600000000000001,5.800000000000001,4.9,-0.9000000000000001,20.0,44.300000000000004,16
304,5263.0,7.7,10.5,7.2,16.2,6.300000000000001,6.1000000000000005,93.89999999999999,-33.800000000000004,46.7,16
305,5279.0,9.600000000000001,9.700000000000001,5.800000000000001,18.0,5.4,4.7,141.3,-70.2,40.6,16
306,5296.0,11.9,7.9,1.3,20.400000000000002,3.6,0.2,188.20000000000002,-103.49999999999999,-3.9,16
307,5312.0,10.8,7.1000000000000005,-1.1,19.5,2.9000000000000004,-2.2,166.9,-84.2,-60.8,16
308,5329.0,9.700000000000001,6.9,-1.1,18.400000000000002,2.8000000000000003,-2.2,142.50000000000003,-67.60000000000001,-83.30000000000001,16
309,5353.0,8.1,5.2,-0.1,17.2,1.7000000000000002,-1.2000000000000002,89.2,-27.9,-120.50000000000001,16
310,5363.0,7.7,4.4,0.0,16.8,1.0,-1.1,76.7,-20.900000000000002,-134.70000000000002,16
311,5379.0,5.800000000000001,3.1,-0.2,15.200000000000001,0.2,-1.2000000000000002,49.199999999999996,-10.600000000000001,-165.00000000000003,16
312,5397.0,5.0,2.4000000000000004,0.0,14.5,-0.2,-1.1,33.800000000000004,-0.6000000000000001,-176.40000000000003,16
313,5412.0,4.4,0.9,0.1,14.100000000000001,-1.0,-0.9,8.3,27.0,-191.70000000000002,16
314,5429.0,4.2,-1.0,0.4,14.0,-2.3000000000000003,-0.4,-4.5,58.60000000000001,-205.4,16
315,5449.0,3.4000000000000004,-2.7,0.6000000000000001,13.3,-3.3000000000000003,0.0,-8.5,63.70000000000001,-226.10000000000002,16
316,5463.0,2.8000000000000003,-3.6,0.8,12.8,-3.7,0.30000000000000004,-8.899999999999999,58.800000000000004,-235.50000000000003,16
317,5480.0,1.9000000000000001,-5.2,1.3,11.8,-4.6000000000000005,1.0,-5.500000000000001,43.2,-243.9,16
318,5496.0,1.6,-6.0,1.6,11.600000000000001,-5.0,1.4000000000000001,-0.2,36.1,-242.60000000000002,16
319,5513.0,1.4000000000000001,-7.5,2.3000000000000003,11.200000000000001,-5.7,2.1,23.0,23.2,-234.0,16
320,5529.0,1.5,-8.700000000000001,1.9000000000000001,11.100000000000001,-6.300000000000001,1.8,52.60000000000001,4.0,-225.3,16
321,5551.0,1.1,-9.600000000000001,1.0,10.600000000000001,-6.5,0.8,69.4,-10.9,-220.20000000000002,16
322,5563.0,1.0,-9.9,0.7000000000000001,10.3,-6.5,0.4,69.80000000000001,-18.3,-218.00000000000003,16
323,5582.0,0.4,-10.600000000000001,0.0,9.5,-6.7,-0.4,59.60000000000001,-28.3,-211.20000000000005,16
324,5596.0,-0.8,-10.600000000000001,0.2,8.0,-6.1000000000000005,-0.4,39.0,-29.600000000000005,-191.60000000000002,16
325,5612.0,-1.1,-10.600000000000001,0.30000000000000004,7.5,-5.9,-0.30000000000000004,28.0,-28.1,-176.8,16
326,5629.0,-1.0,-11.4,0.7000000000000001,7.300000000000001,-6.300000000000001,0.0,10.0,-17.6,-150.00000000000003,16
327,5650.0,-1.0,-12.8,0.9,7.1000000000000005,-7.4,0.2,-1.6,3.0,-129.70000000000002,16
328,5663.0,-1.0,-13.600000000000001,0.7000000000000001,6.9,-8.1,0.0,-0.7,18.5,-116.69999999999999,16
329,5680.0,-2.8000000000000003,-14.100000000000001,-0.4,5.0,-8.5,-1.0,2.0,38.300000000000004,-90.4,16
330,5696.0,-6.1000000000000005,-12.3,-0.6000000000000001,1.6,-6.7,-1.1,-11.5,31.5,-48.400000000000006,16
331,5712.0,-6.7,-11.200000000000001,-0.4,1.1,-5.2,-0.8,-19.1,20.599999999999998,-14.600000000000001,16
332,5729.0,-5.5,-10.600000000000001,-0.4,2.1,-5.1000000000000005,-0.8,-23.800000000000004,6.600000000000001,63.4,16
333,5746.0,-3.2,-10.600000000000001,-1.3,4.6000000000000005,-5.6000000000000005,-1.7000000000000002,-18.0,16.200000000000003,126.10000000000001,16
334,5763.0,-1.4000000000000001,-10.3,-1.9000000000000001,6.6000000000000005,-5.7,-2.2,-22.3,22.5,167.9,16
335,5779.0,-0.5,-9.8,-1.6,7.7,-5.6000000000000005,-1.9000000000000001,-24.5,18.0,183.7,16
336,5796.0,0.8,-9.1,-1.7000000000000002,9.3,-5.5,-2.0,-25.1,-12.5,197.3,16
337,5813.0,0.4,-7.2,-2.5,9.1,-4.2,-2.8000000000000003,-35.0,-27.400000000000002,203.50000000000003,16
338,5829.0,0.30000000000000004,-6.4,-2.6,9.1,-3.8000000000000003,-3.0,-43.6,-20.5,210.20000000000002,16
339,5850.0,0.6000000000000001,-4.9,-2.4000000000000004,9.600000000000001,-3.0,-2.7,-66.3,0.0,221.40000000000003,16
340,5862.0,1.7000000000000002,-3.8000000000000003,-1.6,10.8,-2.6,-1.9000000000000001,-82.60000000000001,0.9000000000000001,213.1,16
341,5879.0,1.5,-3.1,-1.5,10.600000000000001,-2.2,-1.8,-85.69999999999999,-1.7,203.29999999999998,16
342,5896.0,0.8,-2.0,-1.5,10.0,-1.8,-1.8,-93.89999999999999,-7.300000000000001,188.9,16
343,5913.0,0.1,-1.3,-1.2000000000000002,9.3,-1.6,-1.5,-104.7,-8.4,186.10000000000002,16
344,5930.0,0.2,-0.8,-0.7000000000000001,10.0,-1.4000000000000001,-1.2000000000000002,-106.9,-8.2,191.20000000000005,16
345,5950.0,4.4,0.5,-0.6000000000000001,13.5,-1.0,-1.1,-111.20000000000002,-21.900000000000002,200.9,16
346,5962.0,5.800000000000001,1.2000000000000002,-0.6000000000000001,14.9,-0.6000000000000001,-1.2000000000000002,-123.19999999999999,-42.1,186.4,16
347,5980.0,6.9,2.9000000000000004,-0.2,15.9,0.6000000000000001,-1.1,-146.8,-45.7,157.4,16
348,5996.0,6.7,3.4000000000000004,0.2,15.600000000000001,1.0,-0.7000000000000001,-162.0,-43.70000000000001,143.70000000000002,16
349,6012.0,6.4,4.1000000000000005,1.5,15.200000000000001,1.3,0.2,-189.3,-34.900000000000006,127.3,16
350,6029.0,7.4,4.6000000000000005,2.7,16.2,1.7000000000000002,1.2000000000000002,-208.3,-13.8,117.20000000000002,16
351,6046.0,8.3,4.5,3.4000000000000004,17.0,1.4000000000000001,1.8,-214.60000000000002,-1.8000000000000003,108.90000000000002,16
352,6063.0,8.4,5.1000000000000005,4.5,17.2,2.0,2.8000000000000003,-217.5,13.100000000000001,85.80000000000001,16
353,6084.0,7.0,5.7,5.6000000000000005,15.700000000000001,2.6,3.7,-211.60000000000002,22.5,63.10000000000001,16
354,6096.0,6.0,6.2,6.4,14.700000000000001,3.0,4.5,-204.3,26.400000000000006,57.20000000000001,16
355,6112.0,4.4,7.4,8.200000000000001,13.100000000000001,4.2,6.2,-171.39999999999998,30.000000000000004,57.400000000000006,16
356,6129.0,4.3,8.700000000000001,10.100000000000001,13.0,5.5,8.200000000000001,-113.89999999999999,20.599999999999998,67.8,16
357,6146.0,6.800000000000001,9.3,12.100000000000001,15.5,6.0,10.100000000000001,-20.1,-21.1,69.10000000000001,16
358,6162.0,8.0,9.4,12.0,16.7,6.0,10.0,36.300000000000004,-52.60000000000001,58.900000000000006,16
359,6180.0,10.3,8.4,10.600000000000001,19.0,4.9,8.6,139.5,-113.4,24.1,16
360,6196.0,11.8,6.7,7.2,20.5,3.2,5.1000000000000005,208.20000000000002,-126.49999999999999,-19.9,16
361,6212.0,12.200000000000001,5.6000000000000005,5.4,20.900000000000002,2.1,3.3000000000000003,219.6,-114.3,-44.00000000000001,16
362,6229.0,11.3,4.0,3.0,20.200000000000003,0.6000000000000001,0.9,200.60000000000002,-72.30000000000001,-94.9,16
363,6246.0,8.8,2.9000000000000004,3.3000000000000003,17.8,-0.2,1.4000000000000001,164.3,-24.200000000000003,-135.0,16
364,6264.0,7.4,2.4000000000000004,3.9000000000000004,15.700000000000001,-0.7000000000000001,2.1,154.5,-5.6,-148.3,16
365,6280.0,6.0,1.5,3.1,15.3,-1.0,1.5,155.4,17.5,-165.9,16
366,6296.0,5.2,-0.2,0.7000000000000001,14.700000000000001,-2.1,-0.7000000000000001,155.5,36.8,-187.50000000000003,16
367,6312.0,4.3,-0.7000000000000001,0.0,13.100000000000001,-2.8000000000000003,-1.6,146.0,44.5,-200.70000000000002,16
368,6329.0,2.5,-2.2,-0.5,12.3,-3.2,-1.7000000000000002,115.7,48.10000000000001,-220.70000000000002,16
369,6346.0,1.4000000000000001,-2.9000000000000004,0.6000000000000001,11.200000000000001,-3.2,-0.30000000000000004,92.60000000000001,49.199999999999996,-226.5,16
370,6362.0,1.3,-4.800000000000001,1.4000000000000001,11.200000000000001,-4.4,0.6000000000000001,100.1,39.699999999999996,-228.90000000000003,16
371,6381.0,1.0,-5.7,1.3,10.8,-4.9,0.5,106.60000000000001,27.700000000000003,-234.70000000000002,16
372,6396.0,-0.4,-6.7,1.0,9.4,-5.2,0.30000000000000004,114.80000000000001,7.500000000000001,-242.8,16
373,6412.0,-1.2000000000000002,-7.4,0.6000000000000001,8.4,-5.2,-0.2,108.7,-2.5,-237.3,16
374,6429.0,-1.3,-7.9,0.30000000000000004,8.200000000000001,-5.4,-0.6000000000000001,100.9,-5.8,-230.09999999999997,16
375,6446.0,-1.3,-8.700000000000001,0.30000000000000004,8.0,-5.6000000000000005,-0.7000000000000001,82.2,-9.3,-210.40000000000003,16
376,6462.0,-1.7000000000000002,-8.700000000000001,0.9,7.300000000000001,-5.1000000000000005,-0.2,66.1,-16.1,-189.1,16
377,6479.0,-1.7000000000000002,-8.700000000000001,1.3,7.2,-4.800000000000001,0.1,60.00000000000001,-22.5,-175.79999999999998,16
378,6496.0,-0.6000000000000001,-9.0,1.7000000000000002,8.0,-4.7,0.4,52.1,-36.7,-144.8,16
379,6512.0,0.9,-9.5,1.6,9.4,-5.0,0.1,45.7,-43.2,-116.4,16
380,6530.0,1.9000000000000001,-10.0,1.7000000000000002,10.200000000000001,-5.300000000000001,0.0,36.400000000000006,-34.60000000000001,-105.7,16
381,6546.0,2.2,-10.600000000000001,1.3,10.4,-5.800000000000001,-0.4,28.800000000000004,-24.599999999999998,-108.0,16
382,6562.0,2.0,-12.5,1.0,10.100000000000001,-7.5,-0.7000000000000001,8.100000000000001,9.3,-112.9,16
383,6579.0,0.9,-14.0,0.1,8.8,-8.8,-1.5,-5.6,53.0,-98.8,16
384,6596.0,-0.7000000000000001,-13.5,0.0,7.1000000000000005,-8.3,-1.5,-13.000000000000002,67.8,-87.50000000000001,16
385,6612.0,-4.1000000000000005,-11.200000000000001,0.2,3.6,-5.9,-1.0,-29.0,64.0,-51.2,16
386,6629.0,-5.0,-9.5,0.1,2.6,-4.2,-0.9,-39.599999999999994,40.0,11.1,16
387,6646.0,-4.1000000000000005,-9.0,0.2,3.6,-3.8000000000000003,-0.8,-37.9,34.800000000000004,46.800000000000004,16
388,6662.0,-1.3,-9.0,-1.3,6.5,-4.1000000000000005,-2.1,-24.200000000000003,29.600000000000005,97.89999999999999,16
389,6679.0,0.2,-8.8,-2.5,8.200000000000001,-4.3,-3.3000000000000003,-24.0,30.9,127.6,16
390,6696.0,0.4,-8.5,-2.7,8.6,-4.2,-3.5,-27.099999999999998,26.6,138.6,16
391,6712.0,0.6000000000000001,-7.9,-3.0,9.0,-4.1000000000000005,-3.7,-37.300000000000004,9.4,157.8,16
392,6730.0,0.0,-6.9,-2.9000000000000004,8.6,-3.7,-3.5,-48.6,-4.300000000000001,176.6,16
393,6746.0,-0.30000000000000004,-5.7,-2.7,8.5,-3.1,-3.3000000000000003,-60.1,-5.0,199.6,16
394,6762.0,-0.30000000000000004,-5.1000000000000005,-2.5,8.6,-2.8000000000000003,-3.1,-66.3,-1.3,210.6,16
395,6779.0,0.4,-4.0,-1.8,9.4,-2.5,-2.4000000000000004,-75.7,10.299999999999999,227.90000000000003,16
396,6796.0,3.4000000000000004,-2.4000000000000004,-0.6000000000000001,12.5,-1.6,-1.1,-71.30000000000001,5.7,223.8,16
397,6812.0,4.6000000000000005,-2.0,-0.4,13.700000000000001,-1.5,-0.9,-59.00000000000001,-4.0,204.4,16
398,6829.0,3.0,-0.30000000000000004,-1.3,12.200000000000001,-0.30000000000000004,-1.8,-30.9,-22.4,156.6,16
399,6847.0,0.1,1.1,-2.2,9.3,0.6000000000000001,-2.9000000000000004,-27.5,-35.3,142.50000000000003,16
400,6863.0,-0.7000000000000001,1.4000000000000001,-2.6,8.5,0.7000000000000001,-3.3000000000000003,-35.599999999999994,-42.3,148.8,16
401,6879.0,0.2,1.9000000000000001,-2.1,9.4,0.8,-3.1,-63.30000000000001,-53.300000000000004,171.0,16
402,6896.0,3.5,1.9000000000000001,-1.2000000000000002,12.5,0.2,-2.4000000000000004,-93.89999999999999,-68.5,177.6,16
403,6912.0,4.5,1.9000000000000001,-0.6000000000000001,13.5,0.0,-1.9000000000000001,-117.80000000000001,-66.7,166.10000000000002,16
404,6929.0,5.4,2.6,1.4000000000000001,14.3,0.30000000000000004,-0.2,-125.7,-62.6,160.8,16
405,6946.0,6.2,3.4000000000000004,3.4000000000000004,14.9,0.7000000000000001,1.6,-126.60000000000002,-46.1,157.4,16
406,6963.0,7.7,4.7,4.1000000000000005,16.3,1.7000000000000002,2.0,-112.80000000000001,-24.900000000000002,159.0,16
407,6979.0,8.9,5.1000000000000005,4.0,17.400000000000002,1.9000000000000001,1.9000000000000001,-106.5,-18.4,153.60000000000002,16
408,6996.0,9.600000000000001,6.300000000000001,3.6,18.1,2.8000000000000003,1.4000000000000001,-100.6,-9.0,126.20000000000002,16
409,7012.0,8.8,6.9,4.1000000000000005,17.3,3.2,1.8,-99.60000000000001,1.8000000000000003,99.5,16
410,7029.0,8.8,6.9,5.2,17.3,3.2,2.9000000000000004,-94.0,5.500000000000001,94.6,16
411,7046.0,8.700000000000001,8.700000000000001,8.200000000000001,17.0,4.800000000000001,5.800000000000001,-43.800000000000004,0.7,92.0,16
412,7062.0,9.4,10.5,8.8,17.7,6.4,6.5,55.3,-33.7,82.39999999999999,16
413,7079.0,10.200000000000001,10.600000000000001,7.5,18.5,6.4,5.2,103.7,-55.1,65.6,16
414,7096.0,10.600000000000001,10.600000000000001,3.1,18.900000000000002,6.300000000000001,0.9,158.79999999999998,-75.8,8.600000000000001,16
415,7112.0,10.100000000000001,9.3,0.1,18.400000000000002,5.2,-2.1,150.6,-56.2,-54.199999999999996,16
416,7131.0,9.0,7.2,-0.9,17.6,3.3000000000000003,-3.0,104.60000000000001,-22.000000000000004,-101.50000000000001,16
417,7146.0,8.4,6.2,-0.30000000000000004,17.0,2.4000000000000004,-2.3000000000000003,79.8,-8.100000000000001,-118.50000000000001,16
418,7166.0,7.300000000000001,4.3,1.2000000000000002,16.2,0.9,-0.8,50.5,11.000000000000002,-143.2,16
419,7179.0,6.4,2.6,1.5,15.5,-0.30000000000000004,-0.4,48.10000000000001,23.2,-164.79999999999998,16
420,7196.0,5.800000000000001,2.0,1.0,15.100000000000001,-0.6000000000000001,-0.7000000000000001,50.400000000000006,30.9,-175.79999999999998,16
421,7212.0,4.6000000000000005,0.7000000000000001,0.2,14.100000000000001,-1.3,-1.4000000000000001,48.0,43.300000000000004,-198.9,16
422,7229.0,3.1,-0.30000000000000004,-0.1,12.700000000000001,-1.6,-1.6,35.5,46.6,-216.3,16
423,7246.0,2.5,-0.8,-0.2,12.200000000000001,-1.7000000000000002,-1.5,30.4,49.4,-219.8,16
424,7262.0,1.6,-1.9000000000000001,0.30000000000000004,11.5,-2.2,-0.8,27.700000000000003,59.300000000000004,-220.10000000000002,16
425,7279.0,1.3,-3.3000000000000003,0.6000000000000001,11.200000000000001,-2.9000000000000004,-0.30000000000000004,33.2,65.0,-220.5,16
426,7296.0,1.1,-3.9000000000000004,0.8,10.9,-3.1,-0.1,39.300000000000004,64.50000000000001,-222.1,16
427,7313.0,0.5,-5.2,0.6000000000000001,10.3,-3.7,0.0,53.8,56.800000000000004,-225.3,16
428,7330.0,-0.1,-6.1000000000000005,0.30000000000000004,9.600000000000001,-3.9000000000000004,-0.2,63.4,43.50000000000001,-223.29999999999998,16
429,7347.0,-0.2,-7.1000000000000005,-0.1,9.200000000000001,-4.3,-0.6000000000000001,67.7,28.400000000000002,-215.1,16
430,7362.0,-0.30000000000000004,-7.6000000000000005,-0.4,9.1,-4.4,-0.9,66.60000000000001,24.0,-208.5,16
431,7379.0,-0.30000000000000004,-8.4,-0.9,8.8,-4.7,-1.4000000000000001,58.1,22.1,-192.9,16
432,7396.0,-0.30000000000000004,-9.0,-0.9,8.5,-4.800000000000001,-1.4000000000000001,44.5,19.0,-176.40000000000003,16
433,7412.0,-0.5,-9.200000000000001,-0.9,8.200000000000001,-4.800000000000001,-1.4000000000000001,37.800000000000004,14.5,-167.3,16
434,7429.0,-1.1,-9.200000000000001,-0.4,7.4,-4.4,-0.9,25.6,-3.7000000000000006,-145.20000000000002,16
435,7447.0,-1.0,-9.600000000000001,-0.1,7.300000000000001,-4.6000000000000005,-0.7000000000000001,17.0,-22.3,-120.50000000000001,16
436,7462.0,-1.0,-9.8,-0.30000000000000004,7.1000000000000005,-4.7,-1.0,11.700000000000001,-24.200000000000003,-111.50000000000001,16
437,7480.0,-1.1,-10.8,-0.5,6.9,-5.5,-1.3,-6.0,-12.5,-91.8,16
438,7496.0,-1.6,-11.700000000000001,-0.6000000000000001,6.2,-6.2,-1.3,-20.900000000000002,11.000000000000002,-63.30000000000001,16
439,7512.0,-2.3000000000000003,-11.600000000000001,-1.0,4.5,-5.7,-1.5,-38.400000000000006,24.400000000000002,-29.500000000000004,16
440,7531.0,-4.0,-10.3,-0.5,3.7,-4.9,-1.0,-48.10000000000001,23.2,-10.0,16
441,7546.0,-4.800000000000001,-9.0,-0.1,2.9000000000000004,-3.8000000000000003,-0.5,-55.5,7.6,41.0,16
442,7562.0,-2.8000000000000003,-8.5,0.4,5.1000000000000005,-3.6,0.2,-46.300000000000004,-4.2,101.7,16
443,7579.0,-1.0,-8.700000000000001,0.4,6.9,-3.9000000000000004,0.1,-35.4,-11.2,123.7,16
444,7596.0,1.1,-8.5,-0.8,9.3,-4.2,-1.0,-16.900000000000002,-18.6,142.7,16
445,7612.0,1.4000000000000001,-7.4,-1.3,9.8,-3.6,-1.6,-13.200000000000003,-18.5,151.9,16
446,7629.0,1.4000000000000001,-6.9,-1.5,9.9,-3.3000000000000003,-1.8,-13.5,-20.3,156.9,16
447,7646.0,0.4,-5.6000000000000005,-2.1,9.1,-2.6,-2.5,-16.6,-19.1,168.1,16
448,7662.0,-0.6000000000000001,-4.3,-2.4000000000000004,8.3,-1.9000000000000001,-2.9000000000000004,-27.700000000000003,-15.399999999999999,184.5,16
449,7679.0,-0.7000000000000001,-3.7,-2.4000000000000004,8.3,-1.6,-2.9000000000000004,-35.699999999999996,-15.100000000000001,192.70000000000002,16
450,7696.0,-0.7000000000000001,-2.7,-1.8,8.3,-1.2000000000000002,-2.3000000000000003,-52.7,-15.000000000000002,202.40000000000003,16
451,7713.0,0.4,-1.5,-0.8,9.5,-0.7000000000000001,-1.3,-61.9,-14.400000000000002,204.20000000000002,16
452,7730.0,1.3,-1.1,-0.30000000000000004,10.600000000000001,0.0,-0.4,-58.5,-14.5,197.20000000000002,16
453,7748.0,1.3,0.6000000000000001,0.1,10.5,0.6000000000000001,-0.4,-32.9,-11.6,175.4,16
454,7764.0,1.7000000000000002,1.4000000000000001,-0.8,10.8,0.9,-1.5,-11.3,-26.9,156.5,16
455,7780.0,1.4000000000000001,2.7,-2.1,10.600000000000001,1.7000000000000002,-3.0,-16.0,-52.00000000000001,143.0,16
456,7796.0,1.6,3.0,-2.6,10.700000000000001,1.9000000000000001,-3.6,-30.1,-61.10000000000001,142.39999999999998,16
457,7812.0,2.6,3.7,-2.5,11.600000000000001,2.2,-3.7,-76.3,-66.80000000000001,145.60000000000002,16
458,7829.0,5.2,4.2,-0.7000000000000001,14.100000000000001,2.3000000000000003,-2.1,-131.6,-55.3,145.5,16
459,7848.0,7.6000000000000005,4.3,2.3000000000000003,16.5,2.1,0.6000000000000001,-171.90000000000003,-37.7,134.70000000000002,16
460,7862.0,8.200000000000001,4.6000000000000005,4.0,17.1,2.3000000000000003,2.3000000000000003,-179.2,-26.000000000000004,125.10000000000001,16
461,7879.0,8.700000000000001,5.5,6.6000000000000005,17.6,3.0,4.7,-164.7,-1.4,100.1,16
462,7896.0,8.8,5.800000000000001,7.2,17.7,3.2,5.2,-148.1,9.8,82.8,16
463,7912.0,7.300000000000001,6.300000000000001,7.5,16.1,3.7,5.6000000000000005,-105.3,31.099999999999998,47.3,16
464,7929.0,6.0,6.0,7.0,14.9,3.4000000000000004,5.2,-61.10000000000001,41.50000000000001,37.800000000000004,16
465,7946.0,6.300000000000001,6.6000000000000005,8.4,15.200000000000001,4.0,6.800000000000001,2.0,30.4,45.7,16
466,7962.0,6.9,6.800000000000001,8.700000000000001,15.9,4.1000000000000005,7.2,45.7,9.100000000000001,44.7,16
467,7979.0,8.8,6.9,7.4,17.8,4.0,5.9,133.3,-46.50000000000001,20.5,16
468,7995.0,9.5,6.9,5.6000000000000005,18.900000000000002,3.8000000000000003,2.1,193.4,-55.3,-22.700000000000003,16
469,8012.0,9.8,6.0,1.3,18.900000000000002,3.2,0.0,202.8,-46.1,-45.7,16
470,8030.0,8.3,6.1000000000000005,-2.4000000000000004,17.5,3.5,-3.7,169.0,-33.7,-86.89999999999999,16
471,8049.0,7.2,6.0,-2.4000000000000004,16.5,3.8000000000000003,-3.7,92.50000000000001,-13.200000000000003,-108.10000000000001,16
472,8062.0,7.4,5.800000000000001,-1.7000000000000002,16.8,3.8000000000000003,-3.0,57.1,0.7,-117.9,16
473,8079.0,8.0,4.9,0.1,17.6,3.3000000000000003,-1.1,9.0,34.300000000000004,-148.60000000000002,16
474,8096.0,7.1000000000000005,3.4000000000000004,1.0,16.900000000000002,2.5,0.0,-12.8,73.5,-188.10000000000002,16
475,8112.0,6.4,2.9000000000000004,1.1,16.2,2.3000000000000003,0.30000000000000004,-19.300000000000004,91.7,-204.0,16
476,8129.0,5.6000000000000005,1.5,2.4000000000000004,15.600000000000001,1.7000000000000002,1.9000000000000001,-24.7,127.00000000000003,-221.40000000000003,16
477,8146.0,5.2,-0.1,3.0,15.200000000000001,0.9,3.1,-13.6,154.29999999999998,-227.0,16
478,8164.0,5.4,-0.8,3.1,15.5,0.0,3.7,2.4000000000000004,182.5,-223.50000000000003,16
479,8179.0,5.800000000000001,-2.6,2.6,15.5,-0.5,3.7,10.1,196.20000000000002,-222.0,16
480,8196.0,5.800000000000001,-4.3,3.1,15.3,-1.5,4.9,23.900000000000006,218.20000000000002,-215.7,16
481,8212.0,6.300000000000001,-6.6000000000000005,2.5,15.5,-3.1,5.0,43.6,238.79999999999998,-214.8,16
482,8229.0,6.0,-7.4,2.3000000000000003,14.9,-3.6,5.2,55.0,247.1,-219.20000000000002,16
483,8246.0,4.9,-8.1,0.9,13.3,-3.7,4.4,78.0,246.00000000000003,-220.60000000000002,16
484,8263.0,4.1000000000000005,-8.9,-0.7000000000000001,11.9,-3.8000000000000003,3.3000000000000003,71.6,233.29999999999998,-211.20000000000005,16
485,8280.0,3.1,-8.9,-1.5,10.200000000000001,-3.3000000000000003,3.0,61.9,232.0,-193.60000000000002,16
486,8296.0,2.9000000000000004,-9.0,-2.3000000000000003,9.600000000000001,-3.2,2.4000000000000004,53.2,233.70000000000002,-181.40000000000003,16
487,8312.0,2.5,-9.200000000000001,-2.7,8.5,-3.0,2.5,24.7,238.60000000000005,-157.60000000000002,16
488,8329.0,1.8,-9.1,-1.6,7.1000000000000005,-2.7,3.9000000000000004,3.3000000000000007,235.20000000000002,-132.2,16
489,8346.0,1.8,-8.9,-1.7000000000000002,6.800000000000001,-2.4000000000000004,4.1000000000000005,-2.4000000000000004,227.20000000000002,-118.60000000000001,16
490,8362.0,2.5,-8.8,-2.6,6.9,-2.3000000000000003,3.5,-8.0,221.40000000000003,-96.5,16
491,8379.0,2.3000000000000003,-8.5,-3.4000000000000004,5.9,-2.0,3.0,-9.5,236.4,-82.60000000000001,16
492,8396.0,1.3,-7.7,-3.9000000000000004,4.6000000000000005,-1.1,2.7,-13.900000000000002,233.39999999999998,-79.9,16
493,8412.0,-1.4000000000000001,-5.0,-3.3000000000000003,1.2000000000000002,1.5,3.6,-31.6,206.80000000000004,-63.30000000000001,16
494,8430.0,-2.1,-2.4000000000000004,-1.6,0.1,4.0,5.4,-46.300000000000004,156.4,-21.500000000000004,16
495,8446.0,-1.0,-2.1,-1.3,1.0,4.2,5.800000000000001,-46.0,140.70000000000002,5.300000000000001,16
496,8463.0,1.8,-2.7,-1.5,3.5,3.6,5.800000000000001,-32.1,139.3,34.0,16
497,8479.0,2.7,-2.6,-1.0,4.1000000000000005,3.6,6.300000000000001,-0.2,139.0,29.500000000000004,16
498,8496.0,2.4000000000000004,-2.2,-0.9,3.1,4.5,6.0,18.0,118.69999999999999,21.8,16
499,8513.0,1.4000000000000001,-1.2000000000000002,-2.2,2.6,5.0,5.1000000000000005,41.0,54.1,11.4,16
500,8529.0,1.0,-1.1,-3.9000000000000004,2.2,5.2,3.3000000000000003,33.2,9.5,9.100000000000001,16
501,8546.0,0.9,-1.9000000000000001,-4.3,2.0,4.5,2.9000000000000004,22.000000000000004,7.1000000000000005,12.100000000000001,16
502,8563.0,0.8,-2.2,-3.5,2.0,4.2,3.7,2.8,29.0,21.200000000000003,16
503,8579.0,1.2000000000000002,-2.1,-2.4000000000000004,2.3000000000000003,4.2,4.7,4.6,44.5,23.6,16
504,8596.0,1.7000000000000002,-2.3000000000000003,-2.7,2.8000000000000003,4.1000000000000005,4.4,17.400000000000002,43.1,6.300000000000001,16
505,8615.0,0.0,-1.4000000000000001,-3.0,1.0,5.0,4.0,21.300000000000004,21.500000000000004,-15.5,16
506,8629.0,-0.9,-0.7000000000000001,-3.1,0.0,5.7,3.9000000000000004,20.3,9.600000000000001,-18.1,16
507,8647.0,-1.4000000000000001,0.30000000000000004,-3.2,-0.5,6.7,3.8000000000000003,13.3,1.3,-4.4,16
508,8663.0,-0.9,0.2,-3.0,0.0,6.6000000000000005,3.9000000000000004,9.3,6.1000000000000005,4.6,16
509,8679.0,0.30000000000000004,0.2,-2.3000000000000003,1.1,6.6000000000000005,4.6000000000000005,3.1,21.500000000000004,9.700000000000001,16
510,8696.0,0.4,0.5,-1.8,1.2000000000000002,6.9,5.1000000000000005,-6.9,27.2,-2.4000000000000004,16
511,8713.0,0.0,0.6000000000000001,-1.3,0.2,7.300000000000001,6.300000000000001,-13.3,25.7,-10.700000000000001,16
512,8731.0,-1.0,1.3,0.2,-0.30000000000000004,7.7,7.1000000000000005,-16.8,17.0,-20.2,16
513,8746.0,-1.0,1.4000000000000001,0.8,-0.4,7.800000000000001,7.800000000000001,-4.2,-2.9,-15.2,16
514,8762.0,-0.4,1.2000000000000002,0.7000000000000001,0.2,7.7,7.7,15.6,-11.700000000000001,-8.0,16
515,8779.0,-0.2,1.2000000000000002,0.6000000000000001,0.5,7.7,7.5,26.300000000000004,-11.700000000000001,-6.600000000000001,16
516,8796.0,0.2,1.1,-0.1,0.9,7.6000000000000005,6.7,37.9,-12.8,-8.0,16
517,8812.0,-1.1,1.4000000000000001,-0.4,-0.5,8.1,6.300000000000001,32.0,4.300000000000001,-11.8,16
518,8829.0,-2.1,1.9000000000000001,0.2,-1.6,8.6,6.9,30.3,19.5,-8.5,16
519,8846.0,-3.7,2.9000000000000004,0.8,-3.2,9.8,7.5,36.9,34.7,10.299999999999999,16
520,8862.0,-2.6,2.6,0.1,-2.1,9.5,6.6000000000000005,30.799999999999997,2.7,22.700000000000003,16
521,8879.0,-1.7000000000000002,1.9000000000000001,-0.5,-1.2000000000000002,8.8,6.1000000000000005,14.700000000000001,-17.9,18.0,16
522,8899.0,-1.0,0.7000000000000001,-0.1,-0.4,7.6000000000000005,6.5,-28.700000000000003,-30.000000000000004,0.5,16
523,8912.0,-1.7000000000000002,0.0,0.9,-1.1,6.800000000000001,7.6000000000000005,-52.5,-1.8000000000000003,-4.9,16
524,8929.0,-2.1,-0.30000000000000004,1.2000000000000002,-1.6,6.300000000000001,8.0,-56.50000000000001,42.800000000000004,4.6,16
525,8946.0,-2.0,-0.8,1.2000000000000002,-1.5,5.800000000000001,8.1,-52.1,58.400000000000006,14.200000000000001,16
526,8962.0,-0.7000000000000001,-1.3,0.8,-0.4,5.2,7.800000000000001,-37.2,53.8,31.2,16
527,8979.0,1.1,-1.7000000000000002,-0.1,1.5,4.7,6.9,-13.000000000000002,28.400000000000002,29.900000000000006,16
528,8996.0,1.7000000000000002,-1.9000000000000001,-0.8,2.0,4.5,6.300000000000001,1.9,17.799999999999997,21.1,16
529,9012.0,1.2000000000000002,-2.0,-2.3000000000000003,1.6,4.4,4.7,32.1,2.4000000000000004,0.8,16
530,9029.0,0.30000000000000004,-1.9000000000000001,-3.3000000000000003,0.7000000000000001,4.6000000000000005,3.6,54.6,-17.5,-3.5,16
531,9046.0,0.0,-2.1,-3.6,0.4,4.6000000000000005,3.1,64.0,-32.0,-0.30000000000000004,16
532,9063.0,-0.1,-2.3000000000000003,-4.4,0.4,4.5,2.1,79.9,-62.50000000000001,12.0,16
533,9079.0,-0.2,-2.5,-5.1000000000000005,0.6000000000000001,4.4,1.1,92.0,-95.80000000000001,21.0,16
534,9095.0,-0.1,-3.0,-5.5,0.8,4.1000000000000005,0.6000000000000001,96.5,-110.2,24.599999999999998,16
535,9112.0,-0.1,-3.1,-5.6000000000000005,1.2000000000000002,4.1000000000000005,0.2,102.10000000000001,-133.9,26.000000000000004,16
536,9129.0,0.4,-3.3000000000000003,-6.1000000000000005,2.1,4.1000000000000005,-0.7000000000000001,100.5,-154.7,18.900000000000002,16
537,9148.0,-0.1,-3.2,-6.0,1.8,4.3,-1.0,76.7,-173.0,7.9,16
538,9162.0,-0.5,-3.3000000000000003,-5.2,1.6,4.2,-0.4,59.80000000000001,-187.50000000000003,8.100000000000001,16
539,9179.0,-1.2000000000000002,-3.2,-2.8000000000000003,1.3,4.4,1.8,34.1,-231.7,24.7,16
540,9195.0,0.1,-3.9000000000000004,-2.8000000000000003,3.1,3.5,1.5,23.6,-262.3,60.00000000000001,16
541,9212.0,1.2000000000000002,-4.800000000000001,-3.3000000000000003,4.5,2.6,0.7000000000000001,14.900000000000002,-248.0,77.3,16
542,9229.0,3.8000000000000003,-6.2,-2.9000000000000004,7.6000000000000005,1.1,0.9,-8.8,-202.49999999999997,94.9,16
543,9247.0,4.7,-7.6000000000000005,-1.9000000000000001,9.1,-0.5,1.6,-22.9,-180.2,83.5,16
544,9263.0,4.1000000000000005,-7.800000000000001,-0.8,8.700000000000001,-0.8,2.6,-20.8,-181.0,79.1,16
545,9279.0,1.5,-6.7,-1.7000000000000002,6.6000000000000005,0.0,1.4000000000000001,-11.5,-226.70000000000005,102.60000000000001,16
546,9296.0,0.8,-7.1000000000000005,-4.9,6.5,-0.7000000000000001,-2.2,-56.10000000000001,-242.60000000000002,169.8,16
547,9312.0,1.0,-7.800000000000001,-5.300000000000001,7.0,-1.7000000000000002,-2.7,-100.4,-227.20000000000002,207.20000000000002,16
548,9329.0,2.0,-10.0,-1.9000000000000001,8.700000000000001,-4.7,0.5,-184.7,-168.3,278.5,16
549,9348.0,9.200000000000001,-10.600000000000001,3.5,16.6,-6.300000000000001,6.0,-205.10000000000002,-143.8,313.8,16
550,9362.0,13.600000000000001,-10.9,5.800000000000001,21.3,-7.1000000000000005,8.200000000000001,-181.50000000000003,-165.3,288.5,16
551,9379.0,14.9,-9.9,4.9,23.1,-6.9,6.9,-106.5,-219.3,185.10000000000002,16
552,9395.0,8.3,-5.9,1.8,16.8,-3.4000000000000004,3.4000000000000004,-74.4,-180.9,143.9,16
553,9412.0,4.5,-4.800000000000001,0.2,13.3,-2.9000000000000004,1.5,-89.9,-109.8,174.20000000000002,16
554,9429.0,3.3000000000000003,-4.3,0.4,12.200000000000001,-2.7,1.5,-105.9,-79.00000000000001,199.9,16
555,9446.0,4.7,-3.9000000000000004,2.5,13.700000000000001,-3.1,3.5,-136.6,-71.9,243.8,16
556,9462.0,4.0,-2.2,3.8000000000000003,13.200000000000001,-2.3000000000000003,4.6000000000000005,-132.2,-115.10000000000002,257.7,16
557,9479.0,4.1000000000000005,-1.6,3.8000000000000003,13.200000000000001,-2.1,4.4,-123.9,-130.9,265.7,16
558,9495.0,5.2,-0.9,4.0,14.3,-2.3000000000000003,4.1000000000000005,-110.80000000000001,-133.60000000000002,269.6,16
559,9512.0,4.9,0.4,4.6000000000000005,13.9,-1.8,4.3,-97.50000000000001,-114.80000000000001,258.40000000000003,16
560,9530.0,5.0,1.1,4.9,14.0,-1.5,4.5,-91.0,-105.9,252.30000000000004,16
561,9548.0,6.9,2.1,5.6000000000000005,15.600000000000001,-1.2000000000000002,4.800000000000001,-73.9,-103.3,230.6,16
562,9563.0,8.4,2.6,5.5,16.900000000000002,-1.2000000000000002,4.3,-51.800000000000004,-120.3,187.10000000000002,16
563,9579.0,7.2,4.3,5.5,15.5,0.1,4.0,-40.7,-121.70000000000002,150.9,16
564,9596.0,6.9,4.7,5.300000000000001,15.100000000000001,0.30000000000000004,3.6,-41.199999999999996,-113.1,140.8,16
565,9612.0,8.200000000000001,4.3,4.800000000000001,16.2,-0.30000000000000004,2.8000000000000003,-59.60000000000001,-75.5,127.69999999999999,16
566,9629.0,9.600000000000001,4.4,5.1000000000000005,17.5,-0.5,3.0,-88.20000000000002,-27.5,106.30000000000001,16
567,9645.0,9.8,4.800000000000001,5.5,17.6,-0.2,3.3000000000000003,-98.0,-3.6000000000000005,92.60000000000001,16
568,9662.0,9.700000000000001,5.7,5.2,17.5,0.7000000000000001,2.9000000000000004,-103.40000000000002,49.9,64.2,16
569,9679.0,9.9,5.6000000000000005,3.3000000000000003,17.8,0.6000000000000001,1.1,-109.50000000000001,94.7,25.900000000000002,16
570,9695.0,7.4,6.0,3.5,15.4,1.1,1.4000000000000001,-115.20000000000002,102.4,3.4,16
571,9712.0,5.7,7.0,4.800000000000001,13.8,2.2,2.8000000000000003,-109.50000000000001,90.80000000000001,-13.200000000000003,16
572,9729.0,4.9,9.600000000000001,7.9,13.0,4.9,6.0,-46.9,45.400000000000006,7.6,16
573,9746.0,7.800000000000001,10.4,7.7,16.0,5.800000000000001,5.9,51.70000000000001,-32.6,17.1,16
574,9762.0,10.0,9.9,6.0,18.2,5.2,4.2,95.69999999999999,-64.0,6.300000000000001,16
575,9779.0,12.700000000000001,8.5,1.6,21.0,3.9000000000000004,-0.2,143.4,-75.9,-47.80000000000001,16
576,9796.0,12.4,6.5,-1.9000000000000001,21.0,2.3000000000000003,-3.6,130.8,-37.6,-113.5,16
577,9813.0,11.200000000000001,5.9,-2.6,19.900000000000002,1.8,-4.3,109.10000000000001,-12.299999999999999,-140.9,16
578,9829.0,8.700000000000001,4.9,-2.0,17.7,1.3,-3.6,60.2,30.4,-174.10000000000002,16
579,9847.0,7.0,3.3000000000000003,-0.1,16.3,0.30000000000000004,-1.5,36.300000000000004,40.9,-195.20000000000002,16
580,9864.0,5.1000000000000005,1.9000000000000001,0.1,14.700000000000001,-0.4,-1.1,34.7,42.60000000000001,-216.79999999999998,16
581,9879.0,4.4,1.1,0.0,14.0,-0.8,-1.2000000000000002,34.1,52.2,-225.0,16
582,9895.0,4.0,-0.7000000000000001,0.5,13.8,-1.8,-0.4,38.0,78.5,-233.8,16
583,9912.0,3.8000000000000003,-3.2,-0.1,13.8,-3.6,-0.6000000000000001,46.4,90.70000000000002,-236.80000000000004,16
584,9929.0,3.2,-4.1000000000000005,-0.6000000000000001,13.200000000000001,-4.0,-0.9,59.20000000000001,102.60000000000001,-246.1,16
585,9945.0,1.6,-5.5,-0.5,11.600000000000001,-4.7,-0.5,61.39999999999999,99.00000000000001,-252.50000000000003,16
586,9962.0,0.30000000000000004,-6.800000000000001,-0.30000000000000004,10.200000000000001,-5.2,0.0,63.30000000000001,85.80000000000001,-245.90000000000003,16
587,9980.0,0.0,-7.4,0.2,9.8,-5.4,0.6000000000000001,66.80000000000001,77.9,-237.20000000000002,16
588,9995.0,-0.4,-8.3,0.8,9.200000000000001,-5.6000000000000005,1.3,84.69999999999999,57.20000000000001,-215.1,16
589,10012.0,-0.2,-9.3,0.8,9.200000000000001,-6.0,1.3,104.80000000000001,28.800000000000004,-196.90000000000003,16
590,10029.0,-0.1,-9.8,0.7000000000000001,9.200000000000001,-6.300000000000001,1.2000000000000002,109.9,14.400000000000002,-189.70000000000002,16
591,10046.0,-0.4,-10.3,1.1,8.6,-6.2,1.4000000000000001,115.7,-11.000000000000002,-173.3,16
592,10062.0,-0.1,-10.9,1.0,8.700000000000001,-6.5,1.0,115.8,-34.900000000000006,-148.20000000000002,16
593,10080.0,0.2,-11.3,0.5,9.0,-7.0,-0.4,112.0,-42.60000000000001,-135.5,16
594,10097.0,0.0,-12.100000000000001,-0.6000000000000001,8.5,-7.2,-1.0,88.9,-41.6,-126.60000000000002,16
595,10112.0,-2.3000000000000003,-12.100000000000001,-0.7000000000000001,6.0,-7.0,-1.2000000000000002,50.0,-22.4,-118.2,16
596,10130.0,-3.5,-12.600000000000001,-0.7000000000000001,4.6000000000000005,-7.300000000000001,-1.3,25.5,10.9,-84.0,16
597,10155.0,-3.3000000000000003,-14.0,-1.9000000000000001,4.6000000000000005,-8.700000000000001,-2.5,15.8,40.800000000000004,-37.6,16
598,10162.0,-4.2,-13.600000000000001,-2.6,3.7,-8.3,-3.1,5.1000000000000005,40.5,-18.900000000000002,16
599,10181.0,-6.0,-11.5,-2.5,1.9000000000000001,-6.4,-2.9000000000000004,-31.3,9.600000000000001,29.1,16
600,10196.0,-5.6000000000000005,-10.9,-2.1,2.4000000000000004,-5.9,-2.5,-47.7,-9.700000000000001,61.8,16
601,10212.0,-3.2,-10.4,-1.5,4.9,-5.800000000000001,-1.9000000000000001,-67.5,-20.599999999999998,121.4,16
602,10229.0,-0.8,-10.0,-0.9,7.5,-5.9,-1.2000000000000002,-66.80000000000001,-5.1000000000000005,163.20000000000002,16
603,10248.0,0.8,-9.4,-0.9,9.3,-5.9,-1.1,-52.400000000000006,9.700000000000001,191.20000000000005,16
604,10262.0,1.3,-8.6,-0.8,9.9,-5.5,-1.0,-42.2,4.7,202.0,16
605,10279.0,2.7,-7.5,-1.2000000000000002,11.600000000000001,-5.0,-1.4000000000000001,-20.5,-26.6,214.39999999999998,16
606,10296.0,3.0,-6.9,-1.8,11.8,-4.3,-2.8000000000000003,-13.5,-43.1,214.8,16
607,10314.0,2.2,-5.0,-2.6,11.3,-3.6,-3.0,-19.5,-54.1,214.39999999999998,16
608,10329.0,1.1,-3.2,-1.8,10.3,-2.5,-2.4000000000000004,-40.6,-33.800000000000004,224.0,16
609,10346.0,1.4000000000000001,-1.8,0.1,10.600000000000001,-1.9000000000000001,-0.5,-50.3,-7.500000000000001,237.10000000000002,16
610,10362.0,2.2,-1.1,0.7000000000000001,11.5,-1.6,0.1,-45.2,-3.9,237.39999999999998,16
611,10379.0,3.7,-0.2,0.9,12.9,-1.4000000000000001,0.30000000000000004,-19.0,-9.2,217.5,16
612,10396.0,3.1,1.2000000000000002,0.0,12.200000000000001,-0.6000000000000001,-0.8,4.800000000000001,-25.8,184.5,16
613,10413.0,2.5,1.8,-0.5,11.600000000000001,-0.2,-1.3,10.200000000000001,-33.300000000000004,174.20000000000002,16
614,10429.0,2.1,3.1,-1.4000000000000001,11.100000000000001,0.6000000000000001,-2.3000000000000003,7.6,-36.9,172.4,16
615,10446.0,3.6,3.8000000000000003,-1.6,12.4,0.7000000000000001,-2.6,-6.0,-37.400000000000006,176.10000000000002,16
616,10462.0,4.5,4.2,-1.6,13.200000000000001,0.9,-2.7,-14.0,-36.9,172.6,16
617,10479.0,5.7,5.0,-1.6,14.3,1.3,-2.9000000000000004,-38.60000000000001,-38.800000000000004,157.1,16
618,10496.0,8.1,5.5,-0.2,16.5,1.4000000000000001,-1.7000000000000002,-59.699999999999996,-38.7,142.7,16
619,10512.0,9.5,6.2,0.8,17.8,1.9000000000000001,-0.9,-68.60000000000001,-34.400000000000006,118.69999999999999,16
620,10529.0,9.3,7.0,0.9,17.5,2.6,-0.9,-70.10000000000001,-28.900000000000002,104.50000000000001,16
621,10547.0,8.6,7.9,0.8,16.8,3.4000000000000004,-1.1,-82.39999999999999,-6.699999999999999,76.3,16
622,10563.0,8.3,8.200000000000001,1.5,16.3,3.7,0.6000000000000001,-92.3,19.9,50.3,16
623,10579.0,8.4,7.9,3.6,16.6,3.4000000000000004,1.6,-86.8,22.9,43.1,16
624,10596.0,9.1,8.6,7.0,17.3,4.1000000000000005,5.0,-38.1,14.900000000000002,37.1,16
625,10613.0,10.200000000000001,9.3,7.9,18.5,4.7,6.0,61.7,-27.700000000000003,23.900000000000006,16
626,10630.0,11.0,8.8,6.5,19.3,3.8000000000000003,2.4000000000000004,110.9,-53.50000000000001,7.699999999999999,16
627,10647.0,10.5,8.0,2.5,18.900000000000002,3.5,0.7000000000000001,161.8,-77.3,-42.60000000000001,16
628,10664.0,8.8,6.7,0.0,17.3,2.4000000000000004,-1.8,152.3,-56.7,-88.7,16
629,10679.0,7.800000000000001,6.300000000000001,-0.2,16.3,2.1,-1.9000000000000001,133.60000000000002,-45.400000000000006,-106.5,16
630,10696.0,6.800000000000001,5.1000000000000005,0.9,15.600000000000001,1.2000000000000002,-0.8,100.1,-24.5,-128.0,16
631,10712.0,5.7,4.2,0.9,14.700000000000001,0.8,-0.6000000000000001,88.00000000000001,-13.3,-151.1,16
632,10731.0,4.2,3.0,0.7000000000000001,13.4,0.1,-0.8,76.80000000000001,-11.1,-178.0,16
633,10752.0,2.5,1.7000000000000002,0.4,12.0,-0.6000000000000001,-1.1,61.39999999999999,-9.5,-199.8,16
634,10763.0,2.0,1.0,0.4,11.5,-1.0,-1.0,51.300000000000004,-6.300000000000001,-207.10000000000002,16
635,10779.0,1.8,0.4,0.30000000000000004,11.8,-1.9000000000000001,-1.7000000000000002,31.099999999999998,9.899999999999999,-214.60000000000002,16
636,10795.0,2.3000000000000003,-1.5,-0.9,12.0,-2.5,-2.3000000000000003,18.1,21.500000000000004,-217.80000000000004,16
637,10813.0,1.4000000000000001,-3.0,-0.9,11.100000000000001,-3.2,-2.2,-18.4,37.6,-229.60000000000002,16
638,10829.0,0.0,-4.4,0.30000000000000004,9.8,-3.8000000000000003,-0.8,-52.1,45.400000000000006,-236.4,16
639,10850.0,-0.6000000000000001,-5.5,1.7000000000000002,9.200000000000001,-4.2,0.8,-62.7,48.0,-231.6,16
640,10862.0,-0.5,-6.2,2.2,9.200000000000001,-4.5,1.4000000000000001,-57.400000000000006,50.5,-223.8,16
641,10879.0,0.1,-7.4,2.7,9.700000000000001,-5.1000000000000005,2.0,-31.6,48.2,-205.7,16
642,10896.0,0.2,-7.800000000000001,2.4000000000000004,9.600000000000001,-5.300000000000001,1.3,-16.6,43.00000000000001,-198.60000000000002,16
643,10912.0,0.0,-8.8,1.3,9.3,-5.6000000000000005,0.9,2.4000000000000004,25.7,-190.2,16
644,10929.0,-0.7000000000000001,-10.100000000000001,0.8,8.3,-6.4,0.4,6.500000000000001,11.6,-176.6,16
645,10946.0,-1.1,-10.700000000000001,0.30000000000000004,7.7,-6.7,-0.1,5.300000000000001,10.4,-144.0,16
646,10963.0,-1.0,-10.9,0.0,7.7,-6.7,-0.4,2.3,17.200000000000003,-123.9,16
647,10979.0,-0.6000000000000001,-11.100000000000001,-0.30000000000000004,8.0,-6.7,-0.5,-5.7,40.800000000000004,-86.89999999999999,16
648,10995.0,-0.30000000000000004,-11.0,0.2,8.200000000000001,-6.6000000000000005,0.1,-3.0,57.20000000000001,-67.9,16
649,11012.0,0.0,-11.600000000000001,0.0,8.4,-7.0,0.0,7.300000000000001,56.6,-62.800000000000004,16
650,11030.0,-0.30000000000000004,-12.9,-2.2,8.1,-8.3,-2.1,29.400000000000002,41.199999999999996,-48.6,16
651,11046.0,-3.4000000000000004,-11.8,-3.8000000000000003,4.9,-7.300000000000001,-3.7,11.4,7.6,-22.6,16
652,11063.0,-4.9,-10.700000000000001,-3.5,2.8000000000000003,-5.300000000000001,-2.7,-10.8,-10.0,4.2,16
653,11079.0,-4.9,-9.0,-1.5,3.4000000000000004,-4.7,-1.4000000000000001,-48.0,-25.300000000000004,87.3,16
654,11095.0,-1.2000000000000002,-8.3,0.0,7.4,-4.5,0.1,-46.1,-12.600000000000001,155.0,16
655,11112.0,2.5,-8.1,0.2,11.3,-4.9,0.30000000000000004,-21.300000000000004,3.8,175.89999999999998,16
656,11129.0,2.8000000000000003,-7.2,0.1,11.700000000000001,-4.3,0.2,-4.1,5.8,173.20000000000002,16
657,11146.0,2.0,-5.5,-1.1,11.0,-3.1,-1.0,29.600000000000005,-9.3,166.3,16
658,11166.0,0.5,-3.9000000000000004,-3.3000000000000003,9.600000000000001,-2.2,-3.4000000000000004,33.0,-27.800000000000004,167.79999999999998,16
659,11179.0,0.0,-3.2,-3.9000000000000004,9.200000000000001,-1.7000000000000002,-4.0,19.9,-31.5,173.3,16
660,11195.0,-0.2,-2.5,-3.7,9.0,-1.6,-4.0,-27.9,-23.800000000000004,187.20000000000002,16
661,11213.0,-0.1,-1.5,-1.4000000000000001,9.200000000000001,-1.3,-1.7000000000000002,-69.3,-5.300000000000001,193.8,16
662,11229.0,0.7000000000000001,-0.9,-0.1,10.0,-0.9,-0.4,-77.80000000000001,2.7,193.9,16
663,11249.0,3.0,0.30000000000000004,1.8,12.3,-0.30000000000000004,1.5,-54.9,9.0,178.20000000000002,16
664,11265.0,2.9000000000000004,1.8,0.30000000000000004,12.200000000000001,0.8,0.0,-7.300000000000001,-7.200000000000001,138.20000000000002,16
665,11279.0,2.0,2.7,-1.1,10.3,1.9000000000000001,-2.8000000000000003,6.1000000000000005,-19.700000000000003,121.5,16
666,11295.0,0.1,3.9000000000000004,-3.5,9.3,2.3000000000000003,-3.9000000000000004,-4.7,-39.699999999999996,108.2,16
667,11312.0,-0.30000000000000004,5.1000000000000005,-3.9000000000000004,8.8,3.2,-4.5,-55.3,-39.0,121.9,16
668,11329.0,2.2,5.2,-1.8,11.200000000000001,2.9000000000000004,-2.6,-113.2,-28.200000000000003,137.0,16
669,11349.0,5.2,5.5,1.4000000000000001,14.100000000000001,2.9000000000000004,0.5,-135.20000000000002,-21.7,126.0,16
670,11362.0,6.5,5.4,2.3000000000000003,15.4,2.7,1.2000000000000002,-131.0,-23.0,111.30000000000001,16
671,11379.0,6.6000000000000005,5.6000000000000005,3.1,15.5,2.7,1.8,-110.30000000000001,-23.099999999999998,76.0,16
672,11398.0,4.7,6.2,2.9000000000000004,13.5,3.2,1.6,-92.60000000000001,-23.3,55.8,16
673,11413.0,4.0,6.5,2.8000000000000003,12.9,3.5,1.3,-89.4,-18.900000000000002,53.599999999999994,16
674,11429.0,4.0,6.800000000000001,3.4000000000000004,12.9,3.8000000000000003,1.9000000000000001,-88.00000000000001,4.300000000000001,52.60000000000001,16
675,11446.0,4.9,6.4,3.9000000000000004,13.700000000000001,3.3000000000000003,2.4000000000000004,-83.5,14.900000000000002,50.3,16
676,11462.0,6.300000000000001,6.0,5.4,15.100000000000001,2.9000000000000004,3.9000000000000004,-56.7,24.1,45.3,16
677,11479.0,7.2,7.4,7.6000000000000005,16.0,4.2,6.2,14.100000000000001,0.0,41.900000000000006,16
678,11496.0,8.700000000000001,8.6,6.4,17.6,5.300000000000001,5.1000000000000005,110.0,-66.80000000000001,30.5,16
679,11512.0,9.9,8.3,4.3,18.8,5.0,2.8000000000000003,144.60000000000002,-94.0,14.700000000000001,16
680,11529.0,10.4,7.5,-0.1,19.400000000000002,4.2,-1.6,155.20000000000002,-105.0,-40.1,16
681,11547.0,9.5,6.800000000000001,-2.1,18.6,3.8000000000000003,-3.8000000000000003,92.90000000000002,-62.50000000000001,-88.50000000000001,16
682,11563.0,9.200000000000001,6.1000000000000005,-1.3,18.3,3.3000000000000003,-3.0,54.300000000000004,-29.700000000000006,-105.10000000000001,16
683,11579.0,8.5,4.4,1.2000000000000002,17.8,2.0,-0.4,7.200000000000001,23.400000000000002,-137.3,16
684,11596.0,7.7,2.2,1.9000000000000001,17.2,0.4,0.4,0.6000000000000001,57.3,-172.00000000000003,16
685,11612.0,7.0,1.0,1.7000000000000002,16.6,-0.5,0.30000000000000004,4.1,66.3,-190.40000000000003,16
686,11629.0,4.6000000000000005,-0.7000000000000001,0.9,14.5,-1.5,-0.2,8.2,73.30000000000001,-218.50000000000003,16
687,11649.0,2.6,-1.6,0.9,12.5,-1.7000000000000002,0.0,11.1,80.10000000000001,-227.0,16
688,11663.0,2.2,-2.3000000000000003,0.7000000000000001,11.600000000000001,-2.3000000000000003,0.0,14.0,83.2,-227.4,16
689,11679.0,1.1,-3.6,0.6000000000000001,11.0,-2.5,0.2,17.1,88.20000000000002,-230.5,16
690,11695.0,-0.1,-4.5,0.8,9.700000000000001,-2.7,0.7000000000000001,24.5,92.0,-230.79999999999998,16
691,11712.0,-0.6000000000000001,-5.4,1.1,9.0,-2.9000000000000004,1.3,44.5,87.3,-225.70000000000002,16
692,11729.0,-0.8,-5.800000000000001,0.8,8.700000000000001,-2.9000000000000004,1.1,58.2,80.10000000000001,-222.60000000000002,16
693,11746.0,-0.8,-6.7,-0.9,8.4,-3.2,-0.4,75.5,69.9,-213.20000000000002,16
694,11762.0,-1.2000000000000002,-7.6000000000000005,-2.0,7.7,-3.5,-1.5,71.10000000000001,60.900000000000006,-203.9,16
695,11780.0,-1.7000000000000002,-7.9,-2.1,7.1000000000000005,-3.5,-1.6,64.0,57.1,-196.6,16
696,11796.0,-2.4000000000000004,-8.200000000000001,-1.9000000000000001,6.1000000000000005,-3.3000000000000003,-1.3,46.800000000000004,41.1,-174.5,16
697,11812.0,-1.7000000000000002,-9.4,-1.8,6.5,-4.2,-1.2000000000000002,35.1,21.8,-145.8,16
698,11829.0,-1.8,-9.8,-2.0,6.300000000000001,-4.4,-1.4000000000000001,29.800000000000004,17.300000000000004,-134.70000000000002,16
699,11849.0,-1.9000000000000001,-10.3,-1.9000000000000001,5.9,-4.7,-1.3,17.7,19.799999999999997,-105.9,16
700,11865.0,-1.3,-11.100000000000001,-1.4000000000000001,6.4,-5.300000000000001,-0.8,10.299999999999999,31.0,-71.8,16
701,11879.0,0.0,-12.8,-2.0,7.6000000000000005,-7.1000000000000005,-1.4000000000000001,12.7,33.400000000000006,-54.300000000000004,16
702,11897.0,0.1,-13.600000000000001,-3.0,7.6000000000000005,-7.9,-2.4000000000000004,14.700000000000001,25.7,-24.400000000000002,16
703,11912.0,-2.7,-12.600000000000001,-3.3000000000000003,4.800000000000001,-6.9,-2.7,-14.0,4.300000000000001,3.1,16
704,11931.0,-4.2,-10.4,-1.6,3.4000000000000004,-5.0,-0.9,-39.0,-14.5,69.4,16
705,11951.0,-0.9,-9.8,-0.5,6.9,-4.800000000000001,0.2,-32.8,-26.300000000000004,142.7,16
706,11962.0,1.0,-9.600000000000001,-0.6000000000000001,8.9,-4.9,0.1,-23.400000000000002,-31.7,159.9,16
707,11979.0,3.3000000000000003,-9.0,-1.2000000000000002,11.5,-4.800000000000001,-0.6000000000000001,-4.300000000000001,-35.8,165.7,16
708,11995.0,3.3000000000000003,-8.3,-1.7000000000000002,11.600000000000001,-4.4,-1.2000000000000002,2.8,-35.5,162.9,16
709,12012.0,2.1,-6.9,-2.5,10.600000000000001,-3.5,-2.2,5.7,-37.6,165.5,16
710,12029.0,0.6000000000000001,-5.6000000000000005,-3.0,9.4,-2.8000000000000003,-2.8000000000000003,-5.2,-42.2,184.20000000000002,16
711,12047.0,0.30000000000000004,-4.9,-2.9000000000000004,9.3,-2.1,-2.5,-15.100000000000001,-43.900000000000006,196.4,16
712,12067.0,0.7000000000000001,-3.6,-2.1,10.0,-1.5,-1.6,-43.00000000000001,-40.1,220.20000000000002,16
713,12079.0,1.1,-2.1,-0.9,10.200000000000001,-1.0,-1.0,-46.7,-34.300000000000004,221.60000000000002,16
714,12096.0,2.1,-0.7000000000000001,0.6000000000000001,11.3,-0.30000000000000004,0.4,-44.7,-27.0,222.0,16
715,12112.0,2.4000000000000004,0.0,0.4,11.600000000000001,0.0,0.30000000000000004,-20.400000000000002,-24.5,210.0,16
716,12129.0,2.9000000000000004,0.9,0.2,12.200000000000001,0.4,-0.1,-1.0,-40.1,188.10000000000002,16
717,12152.0,1.8,2.6,-0.7000000000000001,11.0,1.5,-1.2000000000000002,3.7000000000000006,-60.1,166.5,16
718,12164.0,1.6,3.0,-0.9,11.200000000000001,1.8,-1.4000000000000001,-4.1,-60.6,166.8,16
719,12179.0,3.0,3.6,-0.4,12.100000000000001,1.8,-1.1,-32.0,-47.0,175.10000000000002,16
720,12195.0,4.800000000000001,4.5,1.4000000000000001,13.8,2.2,0.5,-55.7,-24.1,167.7,16
721,12212.0,6.0,4.9,2.5,14.9,2.3000000000000003,1.5,-59.300000000000004,-15.6,155.8,16
722,12229.0,6.7,5.4,3.1,15.5,2.6,2.2,-51.6,-16.700000000000003,120.50000000000001,16
723,12246.0,6.5,6.4,3.0,15.4,3.3000000000000003,2.0,-33.7,-14.100000000000001,98.0,16
724,12262.0,6.5,6.9,2.0,15.3,3.7,0.9,-26.5,-11.3,89.8,16
725,12279.0,6.2,8.0,-0.6000000000000001,15.0,4.6000000000000005,-1.7000000000000002,-38.1,4.300000000000001,71.6,16
726,12295.0,5.7,8.1,-1.4000000000000001,14.4,4.7,-2.5,-87.50000000000001,26.300000000000004,46.9,16
727,12312.0,5.1000000000000005,7.4,1.7000000000000002,13.8,4.0,0.5,-127.9,32.0,31.400000000000002,16
728,12329.0,5.2,7.5,4.3,14.0,4.1000000000000005,3.1,-124.2,25.7,31.400000000000002,16
729,12348.0,6.4,9.3,8.9,15.100000000000001,5.9,7.7,-47.2,-12.5,38.1,16
730,12364.0,9.4,9.200000000000001,7.1000000000000005,18.2,5.7,5.9,71.19999999999999,-73.7,31.0,16
731,12379.0,10.700000000000001,8.4,4.9,19.5,5.0,3.6,111.70000000000002,-95.4,13.200000000000003,16
732,12396.0,10.5,7.7,1.2000000000000002,19.400000000000002,4.3,-0.30000000000000004,133.50000000000003,-100.0,-38.400000000000006,16
733,12412.0,8.700000000000001,7.4,-0.5,17.7,4.2,-2.0,100.0,-63.500000000000014,-77.9,16
734,12429.0,8.0,7.1000000000000005,0.0,17.1,4.1000000000000005,-1.6,74.7,-40.300000000000004,-91.0,16
735,12447.0,7.2,5.800000000000001,1.6,16.5,3.1,0.0,43.2,-1.7,-116.69999999999999,16
736,12462.0,6.800000000000001,4.2,1.9000000000000001,16.2,2.0,0.5,37.0,26.400000000000006,-147.6,16
737,12479.0,6.6000000000000005,3.2,1.5,16.1,1.3,0.1,38.60000000000001,38.7,-164.79999999999998,16
738,12495.0,5.2,1.0,0.5,14.8,-0.30000000000000004,-0.7000000000000001,39.599999999999994,52.80000000000001,-199.1,16
739,12512.0,2.8000000000000003,-0.6000000000000001,-0.1,12.600000000000001,-1.2000000000000002,-1.1,32.2,54.1,-222.1,16
740,12529.0,1.2000000000000002,-1.8,-0.2,11.0,-1.7000000000000002,-1.0,21.7,58.2,-227.20000000000002,16
741,12553.0,1.0,-3.2,0.2,10.8,-2.3000000000000003,-0.4,19.400000000000002,64.4,-223.70000000000002,16
742,12562.0,0.9,-3.9000000000000004,0.2,10.700000000000001,-2.7,-0.2,22.2,62.900000000000006,-224.0,16
743,12579.0,0.30000000000000004,-5.2,0.0,10.0,-3.3000000000000003,-0.30000000000000004,25.300000000000004,57.20000000000001,-226.2,16
744,12596.0,0.0,-5.7,-0.1,9.600000000000001,-3.4000000000000004,-0.30000000000000004,28.900000000000002,43.800000000000004,-227.0,16
745,12612.0,0.0,-6.9,0.1,9.4,-3.9000000000000004,-0.1,32.400000000000006,31.6,-214.90000000000003,16
746,12629.0,0.30000000000000004,-7.5,-0.30000000000000004,9.5,-4.0,-0.5,37.2,16.900000000000002,-196.90000000000003,16
747,12647.0,0.8,-8.3,-0.8,9.8,-4.2,-0.9,28.900000000000002,0.5,-183.9,16
748,12662.0,0.9,-8.5,-0.9,9.700000000000001,-4.2,-1.1,19.200000000000003,-4.7,-178.60000000000002,16
749,12679.0,1.0,-9.1,-1.0,9.600000000000001,-4.3,-1.2000000000000002,-5.500000000000001,-0.6000000000000001,-163.20000000000002,16
750,12695.0,1.2000000000000002,-9.8,-0.8,9.5,-4.800000000000001,-1.0,-31.400000000000002,21.0,-145.5,16
751,12712.0,0.9,-10.100000000000001,-0.30000000000000004,9.1,-4.800000000000001,-0.4,-42.5,35.1,-138.6,16
752,12729.0,-0.2,-10.100000000000001,1.5,7.800000000000001,-4.6000000000000005,1.6,-45.5,58.1,-125.60000000000001,16
753,12748.0,-1.3,-10.0,2.4000000000000004,6.4,-4.3,2.8000000000000003,-11.6,70.10000000000001,-114.10000000000001,16
754,12762.0,-1.3,-10.4,2.1,6.300000000000001,-4.6000000000000005,2.7,20.5,73.8,-101.6,16
755,12779.0,0.2,-12.9,-1.4000000000000001,7.6000000000000005,-7.0,-0.9,85.5,57.699999999999996,-74.4,16
756,12795.0,-3.1,-11.9,-5.5,4.2,-5.9,-5.1000000000000005,78.9,7.300000000000001,-64.4,16
757,12812.0,-4.9,-11.0,-6.1000000000000005,2.2,-4.9,-5.800000000000001,48.50000000000001,-15.8,-46.7,16
758,12832.0,-6.300000000000001,-9.600000000000001,-5.2,0.8,-3.7,-5.1000000000000005,-22.9,-43.70000000000001,33.2,16
759,12852.0,-3.4000000000000004,-8.9,-3.3000000000000003,4.0,-3.3000000000000003,-3.2,-75.2,-56.300000000000004,121.30000000000001,16
760,12862.0,-1.0,-9.1,-2.6,8.5,-3.8000000000000003,-1.5,-90.9,-55.1,146.8,16
761,12880.0,1.7000000000000002,-8.5,-0.4,9.5,-3.7,-0.30000000000000004,-99.10000000000001,-35.699999999999996,159.1,16
762,12896.0,0.9,-6.800000000000001,1.5,8.9,-2.4000000000000004,1.7000000000000002,-63.2,-11.4,164.89999999999998,16
763,12912.0,0.4,-5.6000000000000005,1.0,8.6,-1.8,1.2000000000000002,-1.0,-20.5,188.4,16
764,12929.0,0.6000000000000001,-5.1000000000000005,-0.2,9.1,-1.6,0.0,26.200000000000003,-33.2,200.8,16
765,12947.0,1.1,-3.7,-2.6,9.8,-0.8,-2.6,57.20000000000001,-55.5,216.20000000000002,16
766,12962.0,1.4000000000000001,-2.0,-4.6000000000000005,10.3,0.2,-5.0,47.60000000000001,-66.2,218.79999999999998,16
767,12979.0,1.8,-1.0,-5.2,10.8,0.8,-5.7,27.400000000000002,-64.30000000000001,216.79999999999998,16
768,12995.0,2.9000000000000004,0.5,-5.5,12.0,1.7000000000000002,-6.1000000000000005,-34.60000000000001,-43.800000000000004,206.00000000000003,16
769,13012.0,3.2,2.0,-3.7,12.3,2.6,-4.4,-96.60000000000001,-5.0,186.90000000000003,16
770,13029.0,2.9000000000000004,2.5,-2.4000000000000004,12.100000000000001,2.9000000000000004,-3.0,-117.0,6.8,175.10000000000002,16
771,13048.0,2.2,3.3000000000000003,0.30000000000000004,11.4,3.2,-0.30000000000000004,-131.0,-5.4,152.1,16
772,13063.0,2.6,4.7,2.0,11.8,4.2,1.2000000000000002,-119.7,-46.800000000000004,135.7,16
773,13080.0,3.3000000000000003,5.800000000000001,2.2,12.5,5.0,1.2000000000000002,-108.3,-68.4,117.60000000000001,16
774,13095.0,3.9000000000000004,6.5,2.4000000000000004,13.100000000000001,5.6000000000000005,1.3,-107.30000000000001,-57.699999999999996,113.2,16
775,13112.0,5.800000000000001,7.6000000000000005,4.1000000000000005,15.0,6.5,2.9000000000000004,-106.5,-12.299999999999999,105.60000000000002,16
776,13129.0,6.4,8.5,4.9,15.600000000000001,7.2,3.7,-97.89999999999999,-0.5,93.00000000000001,16
777,13145.0,5.800000000000001,8.8,5.1000000000000005,15.0,7.5,3.9000000000000004,-75.5,-5.0,51.800000000000004,16
778,13164.0,4.2,8.4,4.800000000000001,13.4,7.1000000000000005,3.6,-53.7,-10.299999999999999,16.1,16
779,13179.0,4.5,6.1000000000000005,4.2,13.8,4.800000000000001,3.0,-45.2,4.300000000000001,13.200000000000003,16
780,13195.0,4.2,6.5,5.5,13.4,5.2,4.4,-37.0,12.200000000000001,19.0,16
781,13212.0,5.4,7.5,7.1000000000000005,14.700000000000001,6.300000000000001,6.0,7.400000000000001,-13.6,39.50000000000001,16
782,13229.0,9.8,7.6000000000000005,5.6000000000000005,19.1,6.300000000000001,4.4,63.599999999999994,-49.6,41.6,16
783,13248.0,11.8,6.7,2.3000000000000003,21.200000000000003,5.300000000000001,1.1,84.80000000000001,-54.9,-5.6,16
784,13262.0,11.4,6.1000000000000005,1.0,20.900000000000002,4.800000000000001,-0.4,75.00000000000001,-45.2,-35.8,16
785,13280.0,9.3,5.0,0.4,18.8,3.9000000000000004,-1.0,33.400000000000006,-2.8,-81.4,16
786,13297.0,7.7,3.4000000000000004,1.5,17.400000000000002,2.7,0.30000000000000004,5.2,47.80000000000001,-103.60000000000001,16
787,13312.0,6.9,2.6,2.0,16.6,2.1,0.8,4.0,65.8,-114.70000000000002,16
788,13329.0,5.1000000000000005,0.9,2.1,14.9,0.8,1.2000000000000002,22.000000000000004,80.60000000000001,-140.6,16
789,13348.0,2.8000000000000003,-0.4,1.1,12.600000000000001,0.0,0.5,53.7,82.2,-159.6,16
790,13362.0,1.9000000000000001,-1.0,0.4,11.700000000000001,-0.30000000000000004,0.0,67.8,77.3,-166.10000000000002,16
791,13379.0,0.0,-1.7000000000000002,-1.5,9.8,-0.4,-1.7000000000000002,81.50000000000001,65.7,-174.90000000000003,16
792,13395.0,-1.1,-2.2,-2.6,8.6,-0.30000000000000004,-2.7,69.3,63.0,-172.5,16
793,13412.0,-1.2000000000000002,-2.5,-2.8000000000000003,8.4,-0.4,-2.8000000000000003,59.5,64.80000000000001,-167.60000000000002,16
794,13429.0,-1.0,-3.3000000000000003,-2.4000000000000004,8.5,-0.6000000000000001,-2.2,41.50000000000001,68.0,-161.3,16
795,13446.0,-0.9,-4.0,-1.9000000000000001,8.4,-0.9,-1.6,31.9,60.6,-165.8,16
796,13462.0,-1.1,-4.4,-1.7000000000000002,8.1,-1.0,-1.3,29.700000000000006,55.7,-168.1,16
797,13479.0,-1.3,-5.4,-1.0,7.7,-1.6,-0.5,32.7,48.0,-161.6,16
798,13495.0,-1.1,-6.6000000000000005,-0.1,7.6000000000000005,-2.3000000000000003,0.4,49.199999999999996,25.4,-150.3,16
799,13512.0,-1.5,-7.7,-0.8,7.0,-3.1,-0.4,69.9,-4.800000000000001,-137.4,16
800,13529.0,-1.8,-8.4,-1.7000000000000002,6.6000000000000005,-3.6,-1.4000000000000001,72.80000000000001,-10.1,-130.3,16
801,13545.0,-2.6,-9.200000000000001,-3.3000000000000003,5.6000000000000005,-4.1000000000000005,-3.1,55.2,-6.2,-115.3,16
802,13563.0,-3.6,-9.700000000000001,-3.5,4.4,-4.4,-3.4000000000000004,22.1,5.0,-93.60000000000001,16
803,13579.0,-3.7,-9.9,-3.7,4.1000000000000005,-4.6000000000000005,-3.6,5.6,6.600000000000001,-80.50000000000001,16
804,13595.0,-2.8000000000000003,-11.5,-3.1,5.0,-6.1000000000000005,-3.0,-19.1,7.9,-49.199999999999996,16
805,13612.0,-2.7,-12.5,-3.1,5.0,-7.1000000000000005,-3.0,-34.50000000000001,-6.4,-15.399999999999999,16
806,13629.0,-4.0,-11.600000000000001,-2.7,3.7,-6.300000000000001,-2.6,-48.50000000000001,-21.6,3.0,16
807,13645.0,-4.4,-10.4,-1.0,3.4000000000000004,-5.300000000000001,-0.8,-72.7,-52.5,66.3,16
808,13662.0,-1.8,-9.4,-0.2,6.1000000000000005,-4.800000000000001,-0.2,-83.10000000000001,-72.2,135.3,16
809,13680.0,2.1,-9.4,0.5,10.3,-5.2,0.6000000000000001,-80.50000000000001,-64.50000000000001,168.5,16
810,13696.0,3.0,-9.0,0.5,11.3,-5.2,0.5,-74.10000000000001,-51.6,172.9,16
811,13712.0,2.9000000000000004,-7.5,0.7000000000000001,11.5,-4.2,0.7000000000000001,-54.199999999999996,-24.599999999999998,181.9,16
812,13729.0,2.7,-6.4,0.5,11.5,-3.7,0.5,-27.3,-27.2,199.5,16
813,13746.0,2.4000000000000004,-5.6000000000000005,0.0,11.3,-3.3000000000000003,0.0,-13.8,-38.60000000000001,208.4,16
814,13762.0,2.1,-3.7,-1.1,11.100000000000001,-2.1,-1.4000000000000001,2.8,-61.39999999999999,225.20000000000002,16
815,13779.0,2.5,-2.4000000000000004,-1.9000000000000001,11.600000000000001,-1.5,-2.4000000000000004,-5.300000000000001,-66.60000000000001,235.20000000000002,16
816,13796.0,2.6,-1.7000000000000002,-1.8,11.8,-1.3,-2.4000000000000004,-16.6,-62.50000000000001,234.9,16
817,13812.0,2.4000000000000004,-0.5,-0.30000000000000004,11.600000000000001,-0.8,-1.0,-37.7,-46.199999999999996,227.79999999999998,16
818,13829.0,2.6,0.6000000000000001,1.6,11.700000000000001,-0.30000000000000004,0.8,-40.1,-29.800000000000004,215.1,16
819,13845.0,2.9000000000000004,1.3,2.3000000000000003,12.0,0.0,1.4000000000000001,-30.9,-24.8,206.00000000000003,16
820,13862.0,4.3,2.9000000000000004,2.3000000000000003,13.4,1.1,1.3,3.0,-24.900000000000002,182.1,16
821,13879.0,4.1000000000000005,3.8000000000000003,-0.5,13.100000000000001,1.6,-1.5,34.7,-34.50000000000001,150.8,16
822,13896.0,2.9000000000000004,4.5,-3.0,11.8,1.9000000000000001,-4.1000000000000005,12.299999999999999,-46.50000000000001,126.60000000000002,16
823,13912.0,2.2,5.0,-3.1,11.0,2.2,-4.3,-13.100000000000001,-46.6,121.4,16
824,13929.0,2.7,5.4,-1.7000000000000002,11.3,2.3000000000000003,-3.1,-64.30000000000001,-41.0,124.50000000000001,16
825,13945.0,6.1000000000000005,5.2,-0.30000000000000004,14.700000000000001,1.8,-1.9000000000000001,-101.10000000000001,-36.1,121.5,16
826,13963.0,7.4,5.300000000000001,0.5,15.9,1.8,-1.3,-113.7,-34.1,110.0,16
827,13979.0,7.5,6.300000000000001,2.4000000000000004,16.0,2.7,0.4,-126.20000000000002,-26.5,78.60000000000001,16
828,13996.0,6.1000000000000005,7.9,4.6000000000000005,14.5,4.2,2.4000000000000004,-122.79999999999998,-10.700000000000001,55.2,16
829,14012.0,5.7,8.5,5.7,14.200000000000001,4.9,3.5,-111.50000000000001,-1.9,47.400000000000006,16
830,14030.0,6.6000000000000005,8.6,7.6000000000000005,15.0,5.0,5.4,-65.4,8.5,44.10000000000001,16
831,14046.0,9.1,8.700000000000001,9.700000000000001,17.5,5.0,7.5,22.3,3.9,49.300000000000004,16
832,14063.0,10.5,8.6,10.200000000000001,18.900000000000002,4.800000000000001,8.200000000000001,81.90000000000002,-16.700000000000003,42.400000000000006,16
833,14079.0,12.4,8.1,7.5,20.900000000000002,4.2,5.5,198.70000000000002,-79.9,5.8,16
834,14096.0,12.600000000000001,7.0,2.3000000000000003,21.200000000000003,3.2,0.4,255.2,-106.80000000000001,-50.8,16
835,14112.0,10.600000000000001,6.0,-3.1,19.3,2.3000000000000003,-5.0,215.8,-81.3,-110.5,16
836,14129.0,9.4,5.6000000000000005,-3.8000000000000003,18.2,2.1,-5.7,167.40000000000003,-55.400000000000006,-131.6,16
837,14145.0,7.9,4.5,-1.7000000000000002,17.0,1.5,-3.6,78.10000000000001,-8.100000000000001,-155.70000000000002,16
838,14162.0,7.800000000000001,3.0,-0.7000000000000001,17.1,0.4,-2.5,31.7,11.2,-174.7,16
839,14180.0,7.800000000000001,1.7000000000000002,-0.9,16.7,-1.3,-2.7,14.0,19.9,-188.4,16
840,14196.0,6.1000000000000005,-0.30000000000000004,-0.8,15.700000000000001,-1.8,-2.4000000000000004,-27.0,38.7,-220.20000000000002,16
841,14212.0,3.9000000000000004,-1.7000000000000002,0.2,13.700000000000001,-2.4000000000000004,-1.2000000000000002,-59.60000000000001,68.3,-237.00000000000003,16
842,14229.0,3.2,-2.5,0.9,13.0,-2.8000000000000003,-0.5,-65.7,83.2,-238.60000000000005,16
843,14245.0,2.6,-3.8000000000000003,1.9000000000000001,12.5,-3.3000000000000003,0.9,-59.699999999999996,101.30000000000001,-237.49999999999997,16
844,14262.0,1.9000000000000001,-5.2,2.1,11.700000000000001,-3.9000000000000004,1.4000000000000001,-34.300000000000004,102.10000000000001,-240.6,16
845,14279.0,0.8,-6.300000000000001,2.5,10.5,-4.2,2.2,-3.2,90.6,-243.30000000000004,16
846,14295.0,0.30000000000000004,-6.800000000000001,2.3000000000000003,10.0,-4.4,2.2,14.700000000000001,84.1,-242.0,16
847,14312.0,-0.1,-7.6000000000000005,0.9,9.3,-4.5,1.0,40.300000000000004,73.5,-232.5,16
848,14331.0,-0.1,-8.4,0.9,9.0,-4.6000000000000005,1.2000000000000002,61.8,60.2,-213.0,16
849,14346.0,0.1,-8.9,0.6000000000000001,9.1,-4.800000000000001,0.9,71.19999999999999,52.300000000000004,-202.9,16
850,14362.0,0.6000000000000001,-9.600000000000001,-0.4,9.4,-5.0,-0.2,78.3,35.699999999999996,-185.00000000000003,16
851,14379.0,1.4000000000000001,-10.600000000000001,-1.3,9.9,-5.6000000000000005,-1.1,69.7,24.200000000000003,-170.70000000000002,16
852,14395.0,1.4000000000000001,-11.200000000000001,-1.5,9.700000000000001,-6.0,-1.3,60.7,20.5,-165.9,16
853,14412.0,0.7000000000000001,-11.8,-1.2000000000000002,8.700000000000001,-6.2,-1.0,42.2,14.800000000000002,-153.20000000000002,16
854,14429.0,-0.1,-12.200000000000001,-1.1,7.7,-6.4,-1.0,29.300000000000004,18.700000000000003,-132.70000000000002,16
855,14445.0,0.0,-12.700000000000001,-1.1,7.6000000000000005,-6.800000000000001,-1.0,23.400000000000002,25.300000000000004,-118.69999999999999,16
856,14462.0,0.8,-14.5,-2.0,8.200000000000001,-8.4,-1.9000000000000001,15.5,35.9,-88.20000000000002,16
857,14479.0,-1.7000000000000002,-14.0,-3.1,5.6000000000000005,-7.9,-2.9000000000000004,-9.700000000000001,32.8,-66.4,16
858,14495.0,-4.800000000000001,-12.5,-2.7,2.4000000000000004,-6.4,-2.3000000000000003,-46.6,23.800000000000004,-24.7,16
859,14512.0,-5.9,-11.5,-2.0,1.3,-5.5,-1.5,-58.900000000000006,17.9,9.899999999999999,16
860,14529.0,-5.300000000000001,-10.5,-0.7000000000000001,2.0,-4.7,-0.1,-57.49999999999999,7.1000000000000005,91.90000000000002,16
861,14545.0,-2.2,-10.600000000000001,-1.2000000000000002,5.300000000000001,-5.300000000000001,-0.6000000000000001,-35.2,-2.8,156.8,16
862,14562.0,-1.0,-10.0,-1.2000000000000002,6.7,-4.9,-0.6000000000000001,-23.900000000000006,-7.9,178.4,16
863,14579.0,1.1,-8.700000000000001,-1.5,9.1,-4.3,-0.9,4.5,-26.700000000000003,207.3,16
864,14595.0,2.5,-7.4,-2.5,10.9,-3.7,-2.2,27.700000000000003,-48.0,216.3,16
865,14612.0,2.4000000000000004,-6.5,-3.3000000000000003,10.8,-3.1,-3.0,34.1,-55.0,215.5,16
866,14628.0,1.3,-4.2,-4.6000000000000005,10.0,-1.5,-4.5,25.8,-57.9,216.0,16
867,14645.0,1.0,-2.7,-4.9,9.9,-0.7000000000000001,-5.1000000000000005,-3.0,-47.7,222.1,16
868,14662.0,1.8,-1.9000000000000001,-4.5,10.8,-0.2,-4.7,-19.1,-41.900000000000006,223.8,16
869,14679.0,2.8000000000000003,-0.30000000000000004,-3.7,11.9,0.7000000000000001,-4.0,-41.7,-32.0,213.9,16
870,14695.0,2.6,1.4000000000000001,-3.3000000000000003,11.8,1.8,-3.8000000000000003,-56.7,-37.50000000000001,194.5,16
871,14712.0,3.0,2.5,-3.0,12.100000000000001,2.3000000000000003,-3.7,-81.50000000000001,-55.5,172.6,16
872,14729.0,2.7,3.0,-2.7,11.9,2.7,-3.5,-98.7,-60.7,164.6,16
873,14745.0,2.8000000000000003,3.9000000000000004,-1.2000000000000002,12.0,3.1,-2.2,-136.0,-55.400000000000006,164.1,16
874,14762.0,3.4000000000000004,4.3,0.4,13.4,3.7,0.9,-153.89999999999998,-41.300000000000004,165.9,16
875,14779.0,5.7,5.5,3.6,14.700000000000001,4.1000000000000005,2.3000000000000003,-149.0,-36.6,162.0,16
876,14796.0,7.300000000000001,6.5,5.0,16.400000000000002,4.800000000000001,3.6,-114.10000000000001,-38.300000000000004,133.60000000000002,16
877,14812.0,6.7,7.800000000000001,4.4,15.8,5.800000000000001,2.8000000000000003,-78.7,-40.2,104.3,16
878,14829.0,6.1000000000000005,8.200000000000001,4.1000000000000005,15.100000000000001,6.1000000000000005,2.5,-69.10000000000001,-40.1,94.7,16
879,14845.0,5.2,8.9,3.9000000000000004,14.200000000000001,6.6000000000000005,2.2,-64.2,-32.400000000000006,83.30000000000001,16
880,14862.0,4.9,9.1,4.4,13.9,6.7,2.6,-65.3,-9.700000000000001,72.7,16
881,14879.0,5.0,8.4,5.9,13.9,5.9,4.1000000000000005,-59.20000000000001,11.2,63.4,16
882,14895.0,5.5,8.3,7.6000000000000005,14.4,5.800000000000001,5.800000000000001,-42.800000000000004,12.600000000000001,64.7,16
883,14912.0,7.6000000000000005,9.1,11.100000000000001,16.5,6.4,9.5,41.0,-15.000000000000002,67.8,16
884,14929.0,10.4,8.6,10.4,19.3,5.800000000000001,8.8,168.6,-74.4,44.9,16
885,14945.0,11.100000000000001,8.1,7.800000000000001,20.1,5.2,6.2,220.4,-96.60000000000001,19.300000000000004,16
886,14963.0,10.8,7.300000000000001,2.1,19.700000000000003,4.4,0.4,258.3,-96.60000000000001,-38.7,16
887,14979.0,9.200000000000001,6.5,-2.7,18.3,3.8000000000000003,-4.3,211.70000000000002,-68.0,-87.60000000000001,16
888,14995.0,8.5,6.1000000000000005,-3.5,17.6,3.5,-5.2,162.20000000000002,-50.8,-105.3,16
889,15012.0,7.7,5.1000000000000005,-1.4000000000000001,17.0,2.9000000000000004,-3.1,64.80000000000001,-12.8,-130.20000000000002,16
890,15029.0,7.800000000000001,3.4000000000000004,0.0,17.3,1.8,-1.6,12.0,24.200000000000003,-153.89999999999998,16
891,15045.0,7.4,2.4000000000000004,0.1,17.0,1.0,-1.5,-3.5,37.2,-169.2,16
892,15062.0,5.6000000000000005,0.6000000000000001,0.0,15.3,-0.2,-1.4000000000000001,-30.1,51.50000000000001,-201.29999999999998,16
893,15079.0,3.6,-1.1,1.3,13.4,-1.1,0.1,-47.2,62.4,-219.8,16
894,15095.0,3.1,-2.4000000000000004,2.2,12.9,-1.7000000000000002,1.2000000000000002,-38.2,76.7,-224.8,16
895,15112.0,3.0,-3.2,2.5,12.8,-2.1,1.7000000000000002,-23.2,81.3,-227.3,16
896,15129.0,2.4000000000000004,-4.800000000000001,2.4000000000000004,12.100000000000001,-3.0,1.9000000000000001,15.5,73.9,-237.3,16
897,15147.0,1.1,-6.2,1.8,10.700000000000001,-3.6,1.4000000000000001,44.8,53.2,-245.49999999999997,16
898,15163.0,0.5,-6.800000000000001,1.7000000000000002,9.9,-3.8000000000000003,1.4000000000000001,56.400000000000006,45.6,-245.49999999999997,16
899,15179.0,-0.2,-7.9,0.9,9.0,-4.2,0.6000000000000001,75.2,39.300000000000004,-234.2,16
900,15195.0,-0.2,-9.0,-0.2,8.700000000000001,-4.7,-0.4,84.2,40.1,-214.00000000000003,16
901,15212.0,-0.2,-9.4,-0.7000000000000001,8.5,-4.800000000000001,-0.9,85.0,38.7,-204.1,16
902,15229.0,-0.6000000000000001,-10.0,-1.4000000000000001,7.800000000000001,-5.0,-1.7000000000000002,75.3,28.3,-186.3,16
903,15245.0,-1.3,-10.5,-1.4000000000000001,6.800000000000001,-5.1000000000000005,-1.8,58.1,11.5,-163.80000000000004,16
904,15262.0,-1.5,-10.700000000000001,-1.2000000000000002,6.5,-5.300000000000001,-1.4000000000000001,49.300000000000004,3.9,-147.7,16
905,15280.0,-1.0,-11.200000000000001,-0.8,6.7,-5.4,-1.3,34.800000000000004,-8.4,-111.30000000000001,16
906,15295.0,-0.5,-11.5,-1.0,7.1000000000000005,-5.6000000000000005,-1.6,18.5,-6.699999999999999,-82.8,16
907,15312.0,0.4,-12.9,-1.8,7.800000000000001,-6.9,-2.4000000000000004,-5.7,15.100000000000001,-55.8,16
908,15329.0,0.5,-13.700000000000001,-2.1,7.800000000000001,-7.800000000000001,-2.7,-19.9,25.300000000000004,-43.00000000000001,16
909,15345.0,-2.1,-13.4,-1.5,5.2,-7.5,-2.0,-50.2,29.800000000000004,-18.5,16
910,15365.0,-5.0,-11.4,0.5,2.3000000000000003,-5.6000000000000005,0.30000000000000004,-63.0,11.8,34.300000000000004,16
911,15379.0,-5.1000000000000005,-10.700000000000001,1.2000000000000002,2.3000000000000003,-5.0,1.0,-55.900000000000006,-1.3,74.89999999999999,16
912,15395.0,-1.9000000000000001,-10.200000000000001,1.0,5.7,-5.0,0.8,-23.800000000000004,-16.3,153.4,16
913,15412.0,2.2,-9.8,-0.2,10.100000000000001,-5.2,-0.4,0.6000000000000001,-32.400000000000006,186.70000000000002,16
914,15429.0,3.4000000000000004,-9.600000000000001,-1.0,11.700000000000001,-4.6000000000000005,-2.0,5.8,-37.2,187.4,16
915,15445.0,2.8000000000000003,-7.7,-1.9000000000000001,11.100000000000001,-3.9000000000000004,-2.2,-1.3,-29.1,182.9,16
916,15462.0,1.7000000000000002,-6.6000000000000005,-2.0,10.3,-3.4000000000000004,-2.4000000000000004,-18.1,-16.1,196.10000000000002,16
917,15479.0,1.7000000000000002,-5.6000000000000005,-1.8,10.5,-3.1,-2.3000000000000003,-35.0,-11.8,217.00000000000003,16
918,15495.0,2.2,-4.9,-1.6,11.100000000000001,-2.8000000000000003,-2.0,-41.0,-15.000000000000002,224.70000000000002,16
919,15512.0,2.4000000000000004,-3.3000000000000003,-1.4000000000000001,11.5,-1.9000000000000001,-1.9000000000000001,-51.1,-21.400000000000002,226.2,16
920,15529.0,2.3000000000000003,-1.6,-0.4,11.4,-0.9,-0.9,-49.300000000000004,-22.2,226.9,16
921,15546.0,2.4000000000000004,-0.6000000000000001,0.0,11.600000000000001,-0.30000000000000004,-0.6000000000000001,-40.9,-20.3,226.8,16
922,15562.0,2.9000000000000004,0.8,-0.7000000000000001,12.100000000000001,0.5,-1.4000000000000001,-13.5,-23.0,216.0,16
923,15579.0,2.4000000000000004,1.8,-2.3000000000000003,11.5,0.9,-3.1,-9.5,-45.0,195.4,16
924,15595.0,2.2,2.4000000000000004,-2.9000000000000004,11.3,1.2000000000000002,-3.8000000000000003,-18.5,-55.60000000000001,188.3,16
925,15612.0,2.2,2.8000000000000003,-3.2,11.3,1.0,-4.3,-54.50000000000001,-63.500000000000014,183.00000000000003,16
926,15629.0,3.0,2.8000000000000003,-1.6,11.9,0.5,-3.0,-96.7,-48.0,188.6,16
927,15645.0,3.5,3.0,-0.4,12.3,0.4,-1.9000000000000001,-109.7,-38.0,192.60000000000002,16
928,15664.0,5.4,3.6,1.7000000000000002,14.0,0.6000000000000001,0.0,-113.89999999999999,-31.400000000000002,195.1,16
929,15679.0,8.0,4.5,3.3000000000000003,16.5,1.1,1.4000000000000001,-92.8,-54.699999999999996,180.60000000000002,16
930,15695.0,8.4,5.2,3.4000000000000004,16.6,2.2,0.8,-74.4,-68.7,169.2,16
931,15712.0,8.6,6.7,2.6,16.8,2.7,0.30000000000000004,-50.0,-76.7,152.2,16
932,15729.0,9.200000000000001,8.0,2.6,17.3,3.7,0.1,-49.300000000000004,-53.8,132.8,16
933,15745.0,10.5,8.4,4.1000000000000005,18.400000000000002,3.9000000000000004,1.5,-54.9,-17.300000000000004,109.30000000000001,16
934,15763.0,11.3,8.5,5.1000000000000005,19.200000000000003,3.9000000000000004,2.4000000000000004,-47.2,-2.6,97.89999999999999,16
935,15779.0,12.9,9.3,7.1000000000000005,20.700000000000003,4.6000000000000005,4.5,3.1,7.500000000000001,71.10000000000001,16
936,15795.0,12.8,9.700000000000001,6.9,20.700000000000003,4.9,4.4,86.89999999999999,-29.400000000000002,25.5,16
937,15812.0,12.0,9.700000000000001,5.1000000000000005,20.0,5.0,2.6,121.5,-55.1,-4.4,16
938,15831.0,9.700000000000001,9.0,1.5,17.7,4.3,-0.9,144.9,-60.400000000000006,-60.7,16
939,15846.0,7.7,7.6000000000000005,-0.9,15.9,3.1,-3.2,114.40000000000002,-22.000000000000004,-104.3,16
940,15862.0,7.0,6.7,-1.0,15.4,2.4000000000000004,-3.2,90.19999999999999,-4.2,-119.20000000000002,16
941,15880.0,6.300000000000001,5.4,-0.1,15.0,1.4000000000000001,-2.2,49.9,11.3,-136.2,16
942,15895.0,6.7,3.9000000000000004,0.0,15.600000000000001,0.5,-2.1,30.1,10.700000000000001,-153.60000000000002,16
943,15912.0,5.800000000000001,2.6,-1.3,14.9,-0.30000000000000004,-3.2,5.9,22.2,-184.5,16
944,15929.0,4.4,2.3000000000000003,-1.4000000000000001,13.600000000000001,-0.30000000000000004,-3.3000000000000003,-12.7,30.699999999999996,-202.20000000000002,16
945,15945.0,2.2,1.1,-0.8,11.700000000000001,-0.7000000000000001,-2.6,-51.6,51.50000000000001,-222.60000000000002,16
946,15962.0,2.0,0.5,0.30000000000000004,11.8,-1.4000000000000001,-0.2,-63.2,62.50000000000001,-225.4,16
947,15980.0,2.7,-1.4000000000000001,2.0,12.600000000000001,-2.6,1.0,-43.900000000000006,75.4,-236.10000000000002,16
948,15995.0,3.0,-3.3000000000000003,2.4000000000000004,12.700000000000001,-3.2,1.1,-27.5,74.10000000000001,-242.70000000000002,16
949,16012.0,3.2,-5.7,1.7000000000000002,12.9,-4.800000000000001,0.7000000000000001,-0.2,62.50000000000001,-254.39999999999998,16
950,16029.0,2.8000000000000003,-6.6000000000000005,1.2000000000000002,11.700000000000001,-5.4,0.2,9.700000000000001,60.5,-256.8,16
951,16045.0,1.4000000000000001,-7.7,0.9,11.100000000000001,-5.6000000000000005,0.2,23.400000000000002,62.800000000000004,-251.60000000000002,16
952,16062.0,0.5,-8.700000000000001,0.8,9.9,-5.9,0.2,31.0,57.800000000000004,-233.9,16
953,16080.0,0.30000000000000004,-9.4,0.6000000000000001,9.5,-6.0,0.2,37.800000000000004,42.60000000000001,-204.9,16
954,16095.0,0.7000000000000001,-9.9,0.6000000000000001,9.8,-6.2,0.2,39.1,33.2,-190.1,16
955,16112.0,1.1,-10.700000000000001,0.30000000000000004,10.0,-6.5,-0.1,37.2,15.6,-169.8,16
956,16129.0,0.7000000000000001,-11.200000000000001,-0.2,9.4,-6.7,-0.6000000000000001,28.3,14.900000000000002,-150.8,16
957,16148.0,-0.5,-11.3,-0.8,7.9,-6.5,-1.1,15.899999999999999,40.2,-132.2,16
958,16162.0,-1.4000000000000001,-11.4,-1.1,7.0,-6.4,-1.3,10.8,56.10000000000001,-121.2,16
959,16179.0,-2.0,-12.3,-1.0,6.2,-7.2,-1.1,7.6,73.9,-95.30000000000001,16
960,16195.0,-2.2,-12.9,-1.4000000000000001,5.800000000000001,-7.7,-1.4000000000000001,12.5,71.5,-81.60000000000001,16
961,16212.0,-4.4,-12.3,-2.5,3.6,-7.1000000000000005,-2.4000000000000004,18.3,38.7,-50.60000000000001,16
962,16229.0,-7.300000000000001,-10.700000000000001,-4.0,0.6000000000000001,-5.5,-3.9000000000000004,-4.9,-14.900000000000002,1.0,16
963,16246.0,-7.9,-9.700000000000001,-4.1000000000000005,0.6000000000000001,-4.1000000000000005,-3.2,-27.700000000000003,-30.699999999999996,42.0,16
964,16262.0,-5.5,-9.0,-2.0,2.5,-4.3,-2.0,-64.9,-31.400000000000002,134.10000000000002,16
965,16279.0,-0.30000000000000004,-8.9,-0.4,8.0,-4.7,-0.30000000000000004,-67.4,-24.0,190.50000000000003,16
966,16295.0,3.6,-8.5,0.2,12.100000000000001,-5.0,0.30000000000000004,-39.50000000000001,-21.1,192.50000000000003,16
967,16312.0,3.8000000000000003,-7.5,0.0,12.5,-4.3,0.0,-18.700000000000003,-22.5,181.9,16
968,16329.0,1.9000000000000001,-5.7,-2.2,10.700000000000001,-3.0,-2.3000000000000003,9.700000000000001,-33.800000000000004,167.0,16
969,16346.0,-0.2,-4.2,-4.0,8.8,-2.1,-4.2,-3.0,-41.0,180.0,16
970,16362.0,-0.8,-3.5,-4.1000000000000005,8.200000000000001,-1.8,-4.4,-19.5,-40.1,193.1,16
971,16379.0,-0.2,-2.4000000000000004,-2.8000000000000003,8.9,-1.4000000000000001,-3.3000000000000003,-54.6,-36.5,220.0,16
972,16395.0,1.9000000000000001,-1.3,-1.1,11.100000000000001,-0.9,-1.6,-71.6,-31.0,224.1,16
973,16412.0,2.8000000000000003,-0.6000000000000001,-0.30000000000000004,12.0,-0.6000000000000001,-0.9,-71.8,-28.200000000000003,214.20000000000002,16
974,16429.0,4.0,0.7000000000000001,0.6000000000000001,13.200000000000001,0.2,-0.1,-58.60000000000001,-28.600000000000005,174.20000000000002,16
975,16446.0,1.8,2.2,0.5,11.0,1.2000000000000002,-0.2,-30.4,-26.700000000000003,142.79999999999998,16
976,16463.0,0.0,3.1,-0.2,9.1,1.6,-1.1,-7.699999999999999,-47.5,143.5,16
977,16479.0,0.0,3.3000000000000003,-0.7000000000000001,9.0,1.6,-1.7000000000000002,-5.1000000000000005,-66.80000000000001,150.8,16
978,16495.0,1.9000000000000001,3.8000000000000003,-2.2,10.8,1.7000000000000002,-3.5,-23.2,-86.60000000000001,166.5,16
979,16512.0,4.7,4.0,-1.7000000000000002,13.5,1.4000000000000001,-3.3000000000000003,-68.3,-64.4,165.7,16
980,16529.0,5.7,4.1000000000000005,-0.7000000000000001,14.4,1.3,-2.4000000000000004,-89.30000000000001,-50.3,159.0,16
981,16545.0,7.7,4.7,1.5,16.3,1.7000000000000002,-0.4,-112.60000000000001,-39.400000000000006,141.6,16
982,16562.0,8.1,5.800000000000001,1.7000000000000002,16.7,2.5,-0.5,-117.4,-40.7,114.80000000000001,16
983,16579.0,7.7,6.4,2.1,16.2,3.0,-0.2,-122.50000000000001,-33.300000000000004,102.8,16
984,16595.0,7.5,7.300000000000001,3.4000000000000004,15.9,3.8000000000000003,1.0,-126.10000000000001,-9.0,82.3,16
985,16612.0,8.9,7.300000000000001,5.5,17.3,3.7,3.0,-111.20000000000002,20.400000000000002,73.30000000000001,16
986,16629.0,10.200000000000001,7.5,7.4,19.8,4.2,6.7,-85.69999999999999,28.1,70.5,16
987,16645.0,12.3,8.1,9.3,20.700000000000003,4.4,6.9,12.299999999999999,-2.0,44.6,16
988,16664.0,11.8,9.0,6.9,20.3,5.300000000000001,4.6000000000000005,116.9,-50.60000000000001,-4.7,16
989,16680.0,10.3,8.200000000000001,2.3000000000000003,18.900000000000002,4.6000000000000005,0.1,167.50000000000003,-45.2,-60.2,16
990,16699.0,7.4,6.9,-0.8,16.2,3.5,-3.0,142.7,-17.799999999999997,-113.1,16
991,16712.0,6.2,6.2,-1.0,15.100000000000001,3.0,-3.0,116.5,-1.8000000000000003,-127.9,16
992,16729.0,5.7,4.9,0.30000000000000004,14.8,2.1,-1.7000000000000002,76.1,21.7,-140.4,16
993,16745.0,6.300000000000001,4.1000000000000005,0.5,15.600000000000001,1.6,-1.4000000000000001,67.8,25.6,-147.9,16
994,16762.0,6.300000000000001,2.1,-0.7000000000000001,15.8,0.1,-2.4000000000000004,58.2,39.0,-177.00000000000003,16
995,16779.0,3.7,0.8,-1.6,13.3,-0.5,-3.1,33.300000000000004,49.9,-207.6,16
996,16795.0,2.4000000000000004,0.30000000000000004,-0.9,12.0,-0.7000000000000001,-2.4000000000000004,18.0,53.599999999999994,-215.1,16
997,16812.0,1.2000000000000002,-1.2000000000000002,1.0,10.9,-1.5,-0.30000000000000004,6.2,56.0,-215.2,16
998,16829.0,1.1,-2.5,1.9000000000000001,10.9,-2.1,0.9,19.700000000000003,57.1,-213.0,16
999,16846.0,1.0,-3.2,1.8,10.8,-2.5,0.9,32.2,57.49999999999999,-214.00000000000003,16
1000,16865.0,0.6000000000000001,-4.5,0.9,9.600000000000001,-3.3000000000000003,-0.2,50.3,57.1,-219.3,16
1001,16879.0,-0.6000000000000001,-5.4,0.1,9.0,-3.3000000000000003,-0.6000000000000001,57.60000000000001,56.7,-220.60000000000002,16
1002,16895.0,-1.1,-6.4,0.1,8.3,-3.6,-0.4,57.20000000000001,50.2,-210.40000000000003,16
1003,16912.0,-1.1,-6.9,0.2,8.3,-3.9000000000000004,-0.30000000000000004,56.400000000000006,40.5,-203.10000000000002,16
1004,16929.0,-0.6000000000000001,-7.800000000000001,0.7000000000000001,8.5,-4.2,0.2,56.800000000000004,21.300000000000004,-182.70000000000002,16
1005,16945.0,0.2,-8.8,0.2,9.1,-4.800000000000001,-0.30000000000000004,58.400000000000006,4.6,-162.20000000000002,16
1006,16962.0,0.4,-9.200000000000001,0.0,9.200000000000001,-5.1000000000000005,-0.5,55.2,-0.1,-153.79999999999998,16
1007,16979.0,0.6000000000000001,-9.9,0.1,9.200000000000001,-5.4,-0.5,41.800000000000004,-3.4,-136.8,16
1008,16995.0,0.5,-10.100000000000001,0.30000000000000004,9.0,-5.4,-0.30000000000000004,34.300000000000004,-5.8,-129.70000000000002,16
1009,17012.0,-0.30000000000000004,-10.5,0.0,8.0,-5.6000000000000005,-0.7000000000000001,19.9,-7.9,-118.3,16
1010,17032.0,-1.4000000000000001,-11.200000000000001,-0.8,6.7,-6.1000000000000005,-1.5,0.4,8.899999999999999,-102.60000000000001,16
1011,17045.0,-2.0,-12.600000000000001,-1.4000000000000001,5.9,-7.4,-2.0,-18.5,38.900000000000006,-68.5,16
1012,17062.0,-2.6,-13.200000000000001,-1.5,3.9000000000000004,-7.4,-1.6,-35.1,46.9,-26.5,16
1013,17079.0,-5.1000000000000005,-11.700000000000001,-0.5,2.7,-6.5,-0.9,-41.4,34.2,-1.2000000000000002,16
1014,17095.0,-5.7,-10.200000000000001,0.1,2.2,-5.2,-0.1,-37.300000000000004,-6.8,65.3,16
1015,17112.0,-3.0,-9.5,0.0,5.0,-4.9,-0.2,-21.500000000000004,-22.1,133.20000000000002,16
1016,17129.0,-1.3,-9.3,-0.30000000000000004,6.9,-5.0,-0.6000000000000001,-10.200000000000001,-20.900000000000002,155.8,16
1017,17145.0,1.3,-8.9,-1.6,9.700000000000001,-5.1000000000000005,-1.9000000000000001,5.500000000000001,-13.700000000000001,178.60000000000002,16
1018,17162.0,2.0,-7.5,-2.4000000000000004,10.600000000000001,-4.3,-2.8000000000000003,8.4,-8.600000000000001,192.50000000000003,16
1019,17178.0,2.2,-6.7,-2.6,10.9,-3.9000000000000004,-3.0,8.899999999999999,-14.400000000000002,197.6,16
1020,17195.0,1.9000000000000001,-5.1000000000000005,-3.4000000000000004,10.9,-3.0,-3.9000000000000004,6.0,-30.699999999999996,201.70000000000002,16
1021,17212.0,1.1,-3.4000000000000004,-3.9000000000000004,10.100000000000001,-1.9000000000000001,-4.6000000000000005,-15.700000000000001,-32.9,203.70000000000002,16
1022,17228.0,0.6000000000000001,-2.7,-3.4000000000000004,9.4,-1.3,-3.6,-30.699999999999996,-28.500000000000004,206.10000000000002,16
1023,17246.0,0.2,-1.5,-2.0,9.3,-1.0,-2.8000000000000003,-56.0,-19.200000000000003,211.9,16
1024,17262.0,0.8,-0.8,0.0,10.0,-1.0,-0.9,-61.8,-18.200000000000003,209.70000000000002,16
1025,17279.0,1.5,0.0,1.1,10.700000000000001,-0.8,0.2,-44.10000000000001,-20.5,199.20000000000002,16
1026,17295.0,1.9000000000000001,0.5,1.5,11.0,-0.6000000000000001,0.6000000000000001,-29.900000000000006,-24.200000000000003,191.39999999999998,16
1027,17312.0,2.2,1.6,1.3,11.3,0.0,0.2,2.3,-39.400000000000006,177.20000000000002,16
1028,17329.0,2.9000000000000004,2.3000000000000003,1.1,11.8,0.2,-0.1,24.400000000000002,-53.300000000000004,174.20000000000002,16
1029,17350.0,3.5,3.4000000000000004,0.30000000000000004,12.200000000000001,0.7000000000000001,-1.0,31.3,-59.699999999999996,176.40000000000003,16
1030,17362.0,4.3,3.8000000000000003,0.2,13.0,0.9,-1.2000000000000002,27.6,-56.7,175.3,16
1031,17378.0,5.7,5.1000000000000005,0.2,14.3,1.7000000000000002,-1.3,14.700000000000001,-36.0,164.79999999999998,16
1032,17395.0,6.7,5.6000000000000005,0.1,15.100000000000001,2.0,-1.5,8.899999999999999,-24.900000000000002,156.70000000000002,16
1033,17412.0,8.1,6.9,-1.2000000000000002,16.400000000000002,2.9000000000000004,-2.8000000000000003,-2.9,-1.3,133.60000000000002,16
1034,17428.0,7.800000000000001,8.1,-2.3000000000000003,16.1,3.9000000000000004,-3.9000000000000004,-21.400000000000002,19.400000000000002,104.3,16
1035,17445.0,6.7,9.5,-2.5,14.9,5.2,-4.1000000000000005,-51.9,28.700000000000003,71.6,16
1036,17462.0,6.7,9.3,-1.8,14.9,4.9,-3.4000000000000004,-63.8,31.5,62.300000000000004,16
1037,17479.0,8.6,8.5,1.7000000000000002,16.8,4.2,0.0,-56.6,21.7,57.49999999999999,16
1038,17495.0,10.700000000000001,9.3,4.5,18.900000000000002,4.800000000000001,2.9000000000000004,12.7,-11.900000000000002,40.300000000000004,16
1039,17512.0,11.4,9.3,3.7,19.6,4.800000000000001,2.1,55.60000000000001,-37.50000000000001,21.7,16
1040,17528.0,11.600000000000001,8.8,0.4,19.900000000000002,4.4,-1.2000000000000002,100.4,-73.9,-23.5,16
1041,17545.0,11.200000000000001,7.9,-1.4000000000000001,19.700000000000003,3.7,-3.1,88.60000000000001,-70.10000000000001,-66.7,16
1042,17562.0,11.200000000000001,7.300000000000001,-1.8,19.700000000000003,3.3000000000000003,-3.6,67.7,-60.400000000000006,-86.8,16
1043,17579.0,11.0,6.0,-0.6000000000000001,19.700000000000003,2.3000000000000003,-2.5,25.5,-30.599999999999998,-125.9,16
1044,17595.0,9.9,4.0,-0.1,18.900000000000002,0.8,-1.9000000000000001,7.400000000000001,-6.699999999999999,-170.2,16
1045,17612.0,8.8,3.1,0.1,18.0,0.2,-1.8,1.1,-2.2,-191.30000000000004,16
1046,17630.0,6.9,1.2000000000000002,-0.2,16.400000000000002,-1.0,-2.1,-8.2,3.2,-222.9,16
1047,17649.0,5.4,-0.7000000000000001,-0.30000000000000004,15.0,-2.1,-2.1,-27.6,19.6,-241.4,16
1048,17664.0,3.9000000000000004,-2.2,0.9,13.700000000000001,-2.7,-0.8,-35.8,40.0,-252.99999999999997,16
1049,17679.0,3.2,-2.9000000000000004,1.3,13.0,-3.0,-0.4,-32.7,47.5,-257.8,16
1050,17695.0,2.0,-4.2,1.5,11.8,-3.4000000000000004,0.0,-19.9,54.9,-263.5,16
1051,17712.0,0.9,-5.5,1.3,10.700000000000001,-3.9000000000000004,0.0,-3.0,54.4,-264.6,16
1052,17728.0,0.7000000000000001,-6.4,1.4000000000000001,10.4,-4.4,0.2,5.500000000000001,52.5,-262.3,16
1053,17745.0,0.1,-8.1,1.3,9.5,-5.300000000000001,0.30000000000000004,24.599999999999998,45.0,-256.8,16
1054,17762.0,-1.5,-9.1,0.8,7.7,-5.5,-0.1,36.6,41.900000000000006,-249.6,16
1055,17779.0,-2.4000000000000004,-9.4,1.0,6.7,-5.5,0.1,41.199999999999996,38.50000000000001,-241.10000000000002,16
1056,17795.0,-3.4000000000000004,-10.100000000000001,0.4,5.4,-5.6000000000000005,-0.4,51.800000000000004,29.500000000000004,-209.9,16
1057,17812.0,-3.1,-11.100000000000001,0.30000000000000004,5.300000000000001,-6.2,-0.5,58.5,13.900000000000002,-172.29999999999998,16
1058,17829.0,-2.9000000000000004,-11.600000000000001,0.0,5.4,-7.1000000000000005,-1.4000000000000001,62.900000000000006,1.1,-154.9,16
1059,17846.0,-3.1,-12.5,-0.8,4.9,-7.2,-1.8,58.2,-23.099999999999998,-128.20000000000002,16
1060,17862.0,-4.1000000000000005,-12.600000000000001,-1.1,3.7,-7.2,-2.3000000000000003,32.9,-32.400000000000006,-97.89999999999999,16
1061,17879.0,-4.4,-12.600000000000001,-0.6000000000000001,3.1,-7.1000000000000005,-1.9000000000000001,-0.6000000000000001,-20.3,-55.2,16
1062,17895.0,-4.1000000000000005,-12.9,-0.2,3.4000000000000004,-7.5,-1.5,-12.4,-6.4,-29.800000000000004,16
1063,17912.0,-2.2,-14.3,-0.2,5.300000000000001,-9.0,-1.4000000000000001,-18.8,13.200000000000003,21.0,16
1064,17933.0,-2.4000000000000004,-13.700000000000001,-0.9,5.2,-8.6,-2.1,-26.6,-10.200000000000001,55.1,16
1065,17948.0,-3.4000000000000004,-11.5,-0.4,4.3,-6.7,-1.7000000000000002,-54.199999999999996,-47.0,105.9,16
1066,17962.0,-2.3000000000000003,-10.8,0.1,5.5,-6.300000000000001,-1.2000000000000002,-66.5,-52.400000000000006,140.70000000000002,16
1067,17978.0,1.3,-10.3,0.7000000000000001,9.4,-6.300000000000001,-0.6000000000000001,-76.5,-28.200000000000003,197.5,16
1068,17995.0,3.2,-10.0,1.1,11.5,-6.300000000000001,-0.1,-74.10000000000001,-10.0,213.50000000000003,16
1069,18012.0,5.6000000000000005,-9.200000000000001,1.4000000000000001,14.100000000000001,-6.2,0.30000000000000004,-54.699999999999996,0.8,222.60000000000002,16
1070,18028.0,5.9,-7.6000000000000005,0.8,14.700000000000001,-5.4,-0.4,-32.1,-21.900000000000002,224.60000000000002,16
1071,18045.0,5.9,-7.0,0.4,14.700000000000001,-5.1000000000000005,-0.8,-24.0,-34.0,227.3,16
1072,18062.0,4.800000000000001,-5.300000000000001,-0.8,13.9,-4.2,-2.1,-19.5,-34.400000000000006,236.00000000000003,16
1073,18078.0,3.9000000000000004,-4.0,-0.8,13.0,-3.6,-2.2,-31.3,-14.100000000000001,249.90000000000003,16
1074,18095.0,4.3,-2.6,0.30000000000000004,13.5,-3.1,-1.0,-41.50000000000001,-2.6,259.3,16
1075,18112.0,5.1000000000000005,-1.9000000000000001,0.8,14.200000000000001,-2.7,-0.5,-40.1,-3.1,257.5,16
1076,18128.0,5.2,0.4,1.4000000000000001,14.3,-1.2000000000000002,0.0,-20.900000000000002,-7.6,236.00000000000003,16
1077,18147.0,4.4,2.4000000000000004,0.9,13.3,0.1,-0.5,-0.30000000000000004,-10.299999999999999,216.6,16
1078,18163.0,4.0,3.3000000000000003,0.6000000000000001,12.9,0.7000000000000001,-0.8,7.200000000000001,-11.700000000000001,210.7,16
1079,18178.0,4.6000000000000005,4.9,0.1,13.3,1.7000000000000002,-1.4000000000000001,14.800000000000002,-14.900000000000002,203.8,16
1080,18195.0,5.300000000000001,6.2,-1.8,13.8,2.5,-3.3000000000000003,12.600000000000001,-16.3,185.6,16
1081,18213.0,5.2,6.800000000000001,-2.7,13.600000000000001,2.9000000000000004,-4.2,-2.9,-18.3,170.30000000000004,16
1082,18228.0,4.6000000000000005,8.1,-2.7,12.8,3.9000000000000004,-4.4,-54.800000000000004,-14.100000000000001,139.9,16
1083,18245.0,4.5,8.700000000000001,0.1,12.600000000000001,4.2,-1.7000000000000002,-105.10000000000001,8.100000000000001,127.00000000000003,16
1084,18263.0,5.800000000000001,9.3,3.2,13.8,4.6000000000000005,1.3,-112.1,19.5,115.8,16
1085,18278.0,6.6000000000000005,9.700000000000001,3.9000000000000004,14.5,5.0,2.0,-99.30000000000001,18.1,105.80000000000001,16
1086,18295.0,7.300000000000001,10.4,3.8000000000000003,15.100000000000001,5.5,1.8,-63.599999999999994,14.0,75.2,16
1087,18312.0,6.4,11.4,3.3000000000000003,14.200000000000001,6.6000000000000005,1.3,-39.300000000000004,13.700000000000001,40.6,16
1088,18329.0,6.300000000000001,11.3,3.5,14.100000000000001,6.5,1.5,-28.700000000000003,18.200000000000003,29.0,16
1089,18345.0,7.1000000000000005,11.8,4.5,15.0,7.0,2.6,2.6,26.799999999999997,18.3,16
1090,18362.0,9.3,11.700000000000001,5.7,17.3,7.0,4.0,77.7,2.8,9.5,16
1091,18378.0,10.5,11.4,4.6000000000000005,18.5,6.7,3.0,122.90000000000002,-25.5,-3.1,16
1092,18395.0,12.600000000000001,10.700000000000001,-0.9,20.700000000000003,6.1000000000000005,-2.5,166.9,-80.50000000000001,-48.2,16
1093,18412.0,13.100000000000001,9.200000000000001,-5.6000000000000005,21.400000000000002,4.9,-7.2,120.7,-77.20000000000002,-110.4,16
1094,18428.0,13.100000000000001,8.1,-6.300000000000001,21.5,2.8000000000000003,-7.4,70.0,-57.49999999999999,-138.29999999999998,16
1095,18445.0,12.4,5.1000000000000005,-4.5,21.200000000000003,1.6,-6.300000000000001,-34.7,-15.899999999999999,-184.5,16
1096,18462.0,10.9,2.3000000000000003,-0.30000000000000004,20.0,-0.6000000000000001,-2.2,-100.70000000000002,15.5,-221.1,16
1097,18478.0,9.4,-0.7000000000000001,2.7,18.8,-2.7,0.9,-105.0,47.80000000000001,-245.3,16
1098,18495.0,8.4,-1.9000000000000001,3.6,17.900000000000002,-3.5,1.9000000000000001,-90.4,57.20000000000001,-255.0,16
1099,18512.0,6.2,-3.8000000000000003,4.4,15.9,-4.4,2.9000000000000004,-42.800000000000004,63.0,-264.6,16
1100,18529.0,3.9000000000000004,-4.9,3.7,13.700000000000001,-4.800000000000001,2.4000000000000004,9.5,57.699999999999996,-263.8,16
1101,18547.0,2.8000000000000003,-5.1000000000000005,3.1,12.600000000000001,-4.5,1.9000000000000001,29.600000000000005,54.1,-260.29999999999995,16
1102,18562.0,1.6,-5.9,2.2,11.4,-4.6000000000000005,1.2000000000000002,60.1,53.9,-247.29999999999998,16
1103,18578.0,1.3,-6.800000000000001,1.1,11.0,-4.7,0.30000000000000004,76.7,60.00000000000001,-236.00000000000003,16
