,ms,accelX,accelY,accelZ,accelWithGX,accelWithGY,accelWithGZ,rotRateAlpha,rotRateBeta,rotRateGamma,interval
0,24.0,2.8000000000000003,0.8,1.5,-3.5,-6.5,3.2,30.000000000000004,39.400000000000006,28.800000000000004,16
1,34.0,2.8000000000000003,0.8,1.5,-3.5,-6.5,3.2,30.000000000000004,39.400000000000006,28.800000000000004,16
2,51.0,2.8000000000000003,0.8,1.5,-3.5,-6.5,3.2,30.000000000000004,39.400000000000006,28.800000000000004,16
3,69.0,2.8000000000000003,0.8,1.5,0.2,3.4000000000000004,9.200000000000001,30.000000000000004,39.400000000000006,28.800000000000004,16
4,85.0,5.1000000000000005,-0.7000000000000001,1.8,0.9,3.3000000000000003,8.5,12.200000000000001,-21.900000000000002,34.2,16
5,112.0,5.9,-0.8,1.0,1.2000000000000002,3.4000000000000004,8.4,13.8,-3.3000000000000007,25.300000000000004,16
6,117.0,5.9,-0.8,1.0,1.2000000000000002,3.4000000000000004,8.4,13.8,-3.3000000000000007,25.300000000000004,16
7,138.0,5.7,-0.8,1.3,0.8,3.5,8.8,6.500000000000001,-3.2,11.3,16
8,151.0,5.300000000000001,-0.7000000000000001,1.6,0.6000000000000001,3.6,9.0,6.0,-3.1,9.2,16
9,168.0,5.2,-0.6000000000000001,1.7000000000000002,0.5,3.7,9.200000000000001,7.400000000000001,-1.9,8.0,16
10,184.0,5.1000000000000005,-0.5,1.7000000000000002,0.5,4.0,9.200000000000001,15.8,-0.1,5.500000000000001,16
11,202.0,4.9,-0.2,1.5,0.30000000000000004,4.2,8.9,23.900000000000006,1.0,4.2,16
12,218.0,5.1000000000000005,-0.2,1.3,0.5,4.3,8.700000000000001,25.200000000000003,-6.1000000000000005,5.7,16
13,235.0,5.300000000000001,-0.30000000000000004,1.2000000000000002,0.8,4.2,8.6,21.8,-10.9,6.2,16
14,251.0,5.5,-0.4,1.1,1.0,4.2,8.5,12.9,-16.900000000000002,1.7,16
15,267.0,5.5,-0.4,1.1,1.0,4.3,8.4,10.200000000000001,-17.300000000000004,-2.4000000000000004,16
16,284.0,5.2,-0.2,1.0,0.6000000000000001,4.5,8.5,8.5,-12.200000000000001,-7.6,16
17,301.0,4.9,0.0,1.2000000000000002,0.5,4.7,8.6,7.500000000000001,-6.4,-7.300000000000001,16
18,318.0,4.6000000000000005,0.0,1.3,0.2,4.7,8.700000000000001,5.300000000000001,-1.7,-5.6,16
19,335.0,4.5,-0.1,1.4000000000000001,0.1,4.5,8.9,3.3000000000000007,0.5,-4.2,16
20,351.0,4.6000000000000005,-0.30000000000000004,1.6,0.2,4.3,9.0,0.2,-1.0,-5.8,16
21,367.0,4.6000000000000005,-0.5,1.7000000000000002,0.2,4.2,9.200000000000001,-0.9000000000000001,-1.4,-7.200000000000001,16
22,384.0,4.6000000000000005,-0.5,1.8,0.1,4.1000000000000005,9.3,0.7,-3.0,-11.000000000000002,16
23,401.0,4.4,-0.7000000000000001,1.8,0.0,4.0,9.3,5.6,-6.8,-12.5,16
24,417.0,4.6000000000000005,-0.8,1.6,0.4,3.8000000000000003,9.1,8.700000000000001,-8.2,-16.8,16
25,435.0,4.800000000000001,-0.9,1.4000000000000001,0.5,3.7,8.9,8.3,-7.400000000000001,-20.8,16
26,451.0,4.800000000000001,-0.9,1.4000000000000001,0.6000000000000001,3.7,8.9,7.1000000000000005,-5.500000000000001,-25.4,16
27,467.0,4.2,-0.4,1.6,-0.1,4.2,9.1,4.9,-3.0,-32.6,16
28,484.0,4.0,-0.1,1.5,-0.30000000000000004,4.4,9.1,5.6,-8.899999999999999,-28.1,16
29,501.0,4.800000000000001,-0.30000000000000004,1.2000000000000002,0.5,4.3,8.8,3.5,-11.4,-19.200000000000003,16
30,517.0,4.9,-0.4,1.2000000000000002,0.6000000000000001,4.1000000000000005,8.9,-4.5,-2.5,-19.400000000000002,16
31,534.0,4.7,-0.4,1.7000000000000002,0.4,4.1000000000000005,9.3,-8.4,2.0,-19.799999999999997,16
32,551.0,4.4,-0.5,2.0,0.1,3.9000000000000004,9.600000000000001,-12.200000000000001,7.1000000000000005,-18.900000000000002,16
33,567.0,4.4,-0.6000000000000001,2.1,0.1,3.8000000000000003,9.700000000000001,-11.700000000000001,8.100000000000001,-17.9,16
34,584.0,4.6000000000000005,-0.7000000000000001,2.3000000000000003,0.2,3.5,9.9,-8.3,13.3,-16.6,16
35,601.0,4.1000000000000005,-1.0,2.6,-0.30000000000000004,3.3000000000000003,10.200000000000001,-7.0,19.5,-16.200000000000003,16
36,617.0,4.0,-1.0,2.5,-0.5,3.3000000000000003,10.100000000000001,-6.4,13.100000000000001,-12.7,16
37,634.0,4.1000000000000005,-1.0,2.2,-0.5,3.2,9.8,-5.300000000000001,8.8,-10.700000000000001,16
38,651.0,4.1000000000000005,-1.0,1.5,-0.4,3.2,9.1,-1.3,5.7,-6.9,16
39,667.0,4.1000000000000005,-0.9,1.3,-0.5,3.3000000000000003,8.9,0.9000000000000001,6.9,-4.2,16
40,684.0,4.0,-1.0,0.9,-0.5,3.2,8.5,4.800000000000001,7.6,3.3000000000000007,16
41,701.0,4.2,-1.1,0.4,-0.4,3.1,8.0,6.4,3.0,11.3,16
42,717.0,4.3,-1.2000000000000002,0.2,-0.2,3.1,7.800000000000001,5.7,-0.6000000000000001,14.900000000000002,16
43,734.0,4.5,-1.3,0.1,0.0,3.0,7.6000000000000005,4.300000000000001,-1.0,15.2,16
44,751.0,4.6000000000000005,-1.2000000000000002,0.2,0.1,3.1,7.800000000000001,0.9000000000000001,3.6000000000000005,15.8,16
45,767.0,4.6000000000000005,-1.2000000000000002,0.2,0.1,3.2,8.0,-1.5,5.500000000000001,17.6,16
46,784.0,4.5,-1.1,0.7000000000000001,0.30000000000000004,3.2,8.3,-9.8,7.400000000000001,27.099999999999998,16
47,801.0,5.300000000000001,-1.3,0.8,1.0,3.0,8.3,-22.2,9.100000000000001,34.1,16
48,817.0,5.800000000000001,-1.3,0.8,1.4000000000000001,3.0,8.4,-35.5,17.9,34.2,16
49,834.0,5.9,-1.4000000000000001,1.0,1.5,2.9000000000000004,8.6,-41.199999999999996,20.599999999999998,32.5,16
50,851.0,6.300000000000001,-2.0,1.9000000000000001,1.8,2.2,9.5,-50.7,20.400000000000002,17.400000000000002,16
51,867.0,6.300000000000001,-2.0,1.8,2.1,2.0,9.700000000000001,-53.7,15.399999999999999,2.8,16
52,884.0,6.6000000000000005,-1.9000000000000001,2.4000000000000004,2.1,2.2,10.0,-58.7,0.2,-28.400000000000002,16
53,901.0,6.5,-0.9,1.7000000000000002,2.0,3.0,9.5,-64.4,-7.500000000000001,-38.0,16
54,917.0,6.1000000000000005,0.2,1.1,1.6,3.8000000000000003,9.0,-71.8,-1.4,-34.400000000000006,16
55,934.0,6.1000000000000005,-0.5,1.3,1.6,3.0,9.3,-75.4,4.9,-32.400000000000006,16
56,951.0,5.6000000000000005,1.3,1.0,1.0,4.5,9.1,-82.9,-0.4,-48.300000000000004,16
57,968.0,4.5,0.9,1.6,-0.1,3.8000000000000003,9.8,-91.10000000000001,-11.1,-26.300000000000004,16
58,984.0,4.9,0.4,1.6,0.30000000000000004,3.1,9.9,-93.2,-18.3,-15.399999999999999,16
59,1001.0,5.7,-0.5,2.5,1.1,2.0,10.9,-93.00000000000001,-33.7,-27.400000000000002,16
60,1018.0,5.0,0.7000000000000001,2.5,0.5,2.8000000000000003,11.0,-78.10000000000001,-6.500000000000001,-47.1,16
61,1049.0,4.4,0.2,2.5,-0.1,2.0,11.100000000000001,-35.3,21.6,-43.2,16
62,1051.0,4.4,0.2,2.5,-0.1,2.0,11.100000000000001,-35.3,21.6,-43.2,16
63,1068.0,6.6000000000000005,-1.4000000000000001,0.7000000000000001,1.9000000000000001,0.30000000000000004,9.200000000000001,35.9,101.30000000000001,-82.50000000000001,16
64,1085.0,6.6000000000000005,-1.6,0.4,1.8,0.1,8.700000000000001,58.900000000000006,149.70000000000002,-103.3,16
65,1101.0,5.9,-1.9000000000000001,0.5,0.4,-0.2,8.5,104.50000000000001,254.2,-145.00000000000003,16
66,1118.0,4.3,-2.1,1.5,-2.0,-0.4,8.9,148.0,308.4,-178.20000000000002,16
67,1141.0,4.1000000000000005,-2.3000000000000003,1.8,-3.4000000000000004,-0.8,7.7,170.30000000000004,309.0,-201.1,16
68,1152.0,3.5,-2.9000000000000004,0.6000000000000001,-4.0,-1.4000000000000001,6.7,176.00000000000003,307.1,-211.4,16
69,1168.0,3.6,-3.1,0.6000000000000001,-4.3,-1.7000000000000002,6.2,182.5,311.3,-223.70000000000002,16
70,1184.0,3.0,-3.1,0.5,-5.6000000000000005,-2.0,5.2,202.0,328.5,-252.60000000000002,16
71,1201.0,1.6,-2.3000000000000003,1.1,-7.5,-1.7000000000000002,4.7,200.70000000000002,302.3,-278.8,16
72,1218.0,0.7000000000000001,-2.3000000000000003,1.6,-8.8,-2.4000000000000004,4.2,166.60000000000002,237.90000000000003,-285.7,16
73,1237.0,0.5,-2.2,1.3,-9.0,-2.8000000000000003,3.6,143.70000000000002,203.8,-284.79999999999995,16
74,1252.0,0.6000000000000001,-1.5,1.0,-8.9,-2.8000000000000003,2.6,100.30000000000001,154.2,-272.8,16
75,1268.0,0.30000000000000004,-1.0,1.2000000000000002,-9.3,-2.8000000000000003,2.7,84.3,144.8,-266.9,16
76,1286.0,-0.30000000000000004,-0.30000000000000004,2.4000000000000004,-9.8,-2.9000000000000004,3.6,60.8,122.0,-262.20000000000005,16
77,1301.0,-1.1,0.4,3.5,-10.4,-2.9000000000000004,4.4,46.1,95.20000000000002,-257.8,16
78,1318.0,-1.6,0.9,3.9000000000000004,-10.600000000000001,-3.0,4.5,35.9,69.20000000000002,-252.50000000000003,16
79,1335.0,-2.0,1.8,4.1000000000000005,-10.600000000000001,-2.8000000000000003,4.6000000000000005,13.200000000000003,26.700000000000003,-234.70000000000002,16
80,1351.0,-2.3000000000000003,2.1,4.3,-10.8,-3.2,4.9,2.1,39.0,-214.70000000000002,16
81,1368.0,-2.8000000000000003,2.3000000000000003,4.2,-10.9,-3.3000000000000003,4.6000000000000005,10.700000000000001,60.6,-209.9,16
82,1384.0,-3.6,3.2,3.9000000000000004,-11.700000000000001,-2.5,3.9000000000000004,45.400000000000006,100.1,-203.70000000000002,16
83,1401.0,-6.4,5.300000000000001,4.3,-13.5,-1.4000000000000001,4.4,63.2,65.5,-186.3,16
84,1419.0,-7.6000000000000005,6.6000000000000005,4.6000000000000005,-14.4,-0.2,4.7,41.900000000000006,-25.900000000000002,-140.6,16
85,1438.0,-7.300000000000001,8.5,4.7,-13.700000000000001,1.1,5.0,8.899999999999999,-85.9,-82.7,16
86,1451.0,-6.7,9.1,4.800000000000001,-13.100000000000001,1.6,5.2,-1.9,-90.5,-57.3,16
87,1467.0,-6.4,9.700000000000001,5.5,-12.600000000000001,2.1,6.0,-3.8,-79.3,-34.900000000000006,16
88,1485.0,-6.1000000000000005,9.5,5.4,-12.100000000000001,1.7000000000000002,6.1000000000000005,0.1,-64.50000000000001,7.400000000000001,16
89,1501.0,-5.0,9.0,4.5,-11.200000000000001,1.5,5.300000000000001,7.400000000000001,-35.9,42.5,16
90,1520.0,-4.0,9.0,3.0,-9.9,1.6,3.0,14.700000000000001,-7.500000000000001,60.6,16
91,1548.0,-2.6,8.6,0.9,-9.0,0.0,1.4000000000000001,-31.799999999999997,3.7000000000000006,42.400000000000006,16
92,1557.0,-2.4000000000000004,7.300000000000001,0.5,-9.0,0.0,1.4000000000000001,-31.799999999999997,3.7000000000000006,42.400000000000006,16
93,1568.0,-2.4000000000000004,7.2,0.5,-9.5,-0.8,2.2,-68.2,16.700000000000003,35.3,16
94,1585.0,-3.2,5.2,3.0,-9.700000000000001,-2.7,4.7,-115.10000000000002,31.099999999999998,41.800000000000004,16
95,1601.0,-2.4000000000000004,3.6,5.1000000000000005,-9.1,-3.4000000000000004,5.4,-103.7,40.5,33.50000000000001,16
96,1618.0,-2.3000000000000003,4.1000000000000005,4.6000000000000005,-9.4,-2.6,3.8000000000000003,-48.70000000000001,69.7,34.900000000000006,16
97,1638.0,-1.8,3.0,2.8000000000000003,-8.8,-3.9000000000000004,2.5,7.9,100.2,50.1,16
98,1652.0,-1.8,3.0,2.8000000000000003,-8.8,-3.9000000000000004,2.5,7.9,100.2,50.1,16
99,1675.0,0.0,1.9000000000000001,1.3,-7.1000000000000005,-4.800000000000001,0.6000000000000001,11.000000000000002,104.50000000000001,43.1,16
100,1685.0,0.0,2.5,0.0,-7.1000000000000005,-4.2,-0.8,-7.6,95.1,41.1,16
101,1701.0,0.1,3.6,-1.3,-7.6000000000000005,-2.0,-3.7,-68.0,54.0,44.10000000000001,16
102,1718.0,-1.5,5.1000000000000005,-3.0,-9.4,-0.9,-4.2,-115.8,45.3,41.800000000000004,16
103,1739.0,-2.3000000000000003,6.0,-2.1,-9.9,-0.6000000000000001,-2.5,-131.4,43.300000000000004,31.2,16
104,1755.0,-3.7,5.9,1.7000000000000002,-11.0,-0.2,-0.2,-145.5,39.300000000000004,24.200000000000003,16
105,1773.0,-4.4,7.300000000000001,3.6,-11.8,1.2000000000000002,1.2000000000000002,-161.70000000000002,55.400000000000006,33.7,16
106,1785.0,-4.1000000000000005,6.4,3.4000000000000004,-11.5,0.5,0.8,-149.10000000000002,31.799999999999997,47.2,16
107,1801.0,-2.0,3.0,3.5,-9.4,-2.6,0.6000000000000001,-136.9,-15.100000000000001,77.80000000000001,16
108,1818.0,-1.3,2.7,4.7,-9.0,-2.5,1.6,-165.20000000000002,-88.10000000000001,73.0,16
109,1845.0,0.7000000000000001,2.3000000000000003,1.2000000000000002,-7.2,-2.5,-2.0,-135.4,-95.60000000000002,72.0,16
110,1854.0,1.6,1.2000000000000002,-0.5,-6.4,-3.5,-3.6,-121.10000000000001,-82.7,66.0,16
111,1874.0,3.6,-0.2,-0.8,-4.6000000000000005,-4.6000000000000005,-3.9000000000000004,-106.60000000000001,-50.400000000000006,54.0,16
112,1884.0,3.8000000000000003,-0.4,-0.6000000000000001,-4.4,-4.7,-3.7,-95.9,-26.799999999999997,36.0,16
113,1904.0,3.5,-0.4,0.2,-4.800000000000001,-4.5,-3.0,-57.20000000000001,14.200000000000001,4.7,16
114,1921.0,3.5,-0.1,0.9,-6.1000000000000005,-3.1,-1.1,-33.7,48.800000000000004,-10.299999999999999,16
115,1934.0,1.4000000000000001,0.8,2.6,-6.800000000000001,-3.2,-0.8,-24.599999999999998,64.50000000000001,-25.300000000000004,16
116,1951.0,-2.1,0.6000000000000001,2.5,-10.3,-3.4000000000000004,-1.1,-3.5,82.3,-20.3,16
117,1968.0,-2.1,0.6000000000000001,2.5,-10.700000000000001,-3.2,-1.5,7.200000000000001,85.4,-18.4,16
118,1988.0,-2.6,1.1,1.4000000000000001,-10.5,-3.0,-2.6,19.200000000000003,57.20000000000001,-14.0,16
119,2006.0,-3.0,1.1,1.8,-11.8,-3.2,-1.6,-3.6000000000000005,10.600000000000001,-23.400000000000002,16
120,2022.0,-3.8000000000000003,2.6,2.4000000000000004,-11.600000000000001,-1.7000000000000002,-1.7000000000000002,-21.1,20.7,-0.30000000000000004,16
121,2035.0,-4.0,1.9000000000000001,2.5,-11.8,-2.4000000000000004,-1.7000000000000002,-18.5,20.8,4.2,16
122,2051.0,-4.7,1.2000000000000002,2.3000000000000003,-12.700000000000001,-2.7,-2.9000000000000004,-19.0,22.1,9.0,16
123,2067.0,-4.9,1.5,1.3,-12.5,-2.1,-4.0,-21.6,18.3,10.4,16
124,2084.0,-3.3000000000000003,2.5,-0.7000000000000001,-11.100000000000001,-1.6,-5.0,-24.200000000000003,20.400000000000002,5.500000000000001,16
125,2103.0,-2.6,1.8,1.2000000000000002,-10.3,-2.3000000000000003,-3.3000000000000003,-17.300000000000004,57.20000000000001,-0.30000000000000004,16
126,2120.0,-2.6,1.3,3.7,-10.200000000000001,-2.8000000000000003,-1.0,26.200000000000003,116.69999999999999,-16.8,16
127,2154.0,-5.9,-2.7,6.7,-13.200000000000001,-6.9,1.6,73.8,104.9,-38.400000000000006,16
128,2173.0,-8.5,-3.5,7.5,-15.600000000000001,-8.0,2.3000000000000003,56.2,15.5,-90.5,16
129,2190.0,-7.4,-3.2,9.200000000000001,-14.3,-8.0,4.0,14.900000000000002,-16.200000000000003,-80.9,16
130,2207.0,-5.7,-2.9000000000000004,9.9,-12.5,-7.800000000000001,4.9,-8.700000000000001,-30.4,-61.39999999999999,16
131,2218.0,-2.3000000000000003,-2.8000000000000003,10.3,-9.1,-7.800000000000001,5.2,-22.2,-48.6,-42.7,16
132,2244.0,2.2,-1.9000000000000001,7.300000000000001,-4.6000000000000005,-7.0,2.4000000000000004,-7.500000000000001,-61.199999999999996,-13.399999999999999,16
133,2251.0,2.2,-1.9000000000000001,7.300000000000001,-4.800000000000001,-6.9,0.5,-7.500000000000001,-61.199999999999996,-13.399999999999999,16
134,2271.0,1.9000000000000001,-1.0,2.6,-5.1000000000000005,-6.0,-2.1,4.6,-63.900000000000006,15.299999999999999,16
135,2284.0,0.7000000000000001,-1.0,1.8,-6.300000000000001,-6.1000000000000005,-2.7,-11.8,-67.4,11.3,16
136,2301.0,-0.4,-0.30000000000000004,1.6,-8.5,-4.6000000000000005,-3.0,-48.300000000000004,-84.1,-5.500000000000001,16
137,2318.0,-0.4,0.30000000000000004,2.0,-7.7,-4.6000000000000005,-2.3000000000000003,-74.60000000000001,-71.8,-0.8,16
138,2334.0,0.7000000000000001,0.0,3.2,-6.6000000000000005,-4.800000000000001,-1.0,-80.7,-65.10000000000001,-3.7000000000000006,16
139,2352.0,1.6,-0.6000000000000001,4.1000000000000005,-5.9,-5.4,-0.2,-89.9,-63.30000000000001,-11.2,16
140,2368.0,1.1,0.0,4.2,-6.5,-4.7,0.0,-85.60000000000001,-60.5,-17.200000000000003,16
141,2386.0,0.7000000000000001,0.30000000000000004,4.3,-6.800000000000001,-4.4,0.1,-79.19999999999999,-50.5,-21.400000000000002,16
142,2401.0,0.9,0.4,4.800000000000001,-6.4,-5.1000000000000005,2.2,-66.80000000000001,-27.0,-33.1,16
143,2419.0,0.30000000000000004,0.6000000000000001,5.1000000000000005,-7.9,-2.8000000000000003,1.2000000000000002,-72.7,-52.1,-66.4,16
144,2441.0,0.6000000000000001,1.5,5.5,-6.9,-3.2,1.3,-66.5,-27.6,-75.9,16
145,2453.0,0.6000000000000001,1.5,5.5,-6.9,-3.2,1.3,-66.5,-27.6,-75.9,16
146,2468.0,0.4,1.0,5.2,-8.0,-3.9000000000000004,1.1,-57.800000000000004,-42.60000000000001,-87.10000000000001,16
147,2486.0,-1.1,1.6,6.1000000000000005,-8.700000000000001,-2.9000000000000004,2.4000000000000004,-44.4,-87.10000000000001,-93.2,16
148,2501.0,-3.5,2.7,6.4,-10.9,-2.4000000000000004,2.3000000000000003,-23.0,-163.5,-93.3,16
149,2518.0,-4.4,3.6,4.6000000000000005,-11.8,-1.7000000000000002,1.0,-13.200000000000003,-165.9,-92.50000000000001,16
150,2537.0,-4.0,3.3000000000000003,3.8000000000000003,-11.5,-2.2,0.4,-23.6,-146.60000000000002,-85.80000000000001,16
151,2555.0,-2.7,1.5,3.4000000000000004,-10.100000000000001,-4.1000000000000005,0.2,-61.9,-84.2,-62.900000000000006,16
152,2567.0,-2.1,1.0,3.4000000000000004,-9.5,-4.7,0.30000000000000004,-78.10000000000001,-69.3,-54.9,16
153,2584.0,-0.5,0.2,3.7,-7.9,-5.5,0.7000000000000001,-87.10000000000001,-40.800000000000004,-45.2,16
154,2601.0,0.0,-0.1,4.3,-7.300000000000001,-5.800000000000001,1.2000000000000002,-66.7,-30.699999999999996,-27.5,16
155,2618.0,0.6000000000000001,-0.2,4.4,-6.5,-6.1000000000000005,1.4000000000000001,-29.900000000000006,-24.1,-21.1,16
156,2635.0,0.2,-0.8,3.6,-7.1000000000000005,-6.5,0.5,-11.700000000000001,-20.400000000000002,-29.1,16
157,2651.0,0.1,-0.6000000000000001,3.3000000000000003,-7.2,-6.7,-0.4,7.0,14.600000000000001,-50.400000000000006,16
158,2668.0,-0.2,-1.2000000000000002,2.3000000000000003,-7.4,-7.0,-0.9,14.700000000000001,39.400000000000006,-67.4,16
159,2687.0,-0.4,-1.4000000000000001,1.9000000000000001,-7.5,-7.4,-1.0,27.0,107.6,-114.80000000000001,16
160,2703.0,-1.1,-1.0,3.8000000000000003,-7.5,-7.5,0.9,49.9,132.0,-156.3,16
161,2718.0,-2.2,-1.3,4.9,-8.9,-8.6,1.3,49.699999999999996,198.79999999999998,-158.39999999999998,16
162,2734.0,-4.1000000000000005,-2.2,5.1000000000000005,-9.8,-9.200000000000001,1.3,47.3,210.9,-150.5,16
163,2752.0,-6.5,-2.5,4.9,-11.5,-9.9,0.9,29.300000000000004,158.29999999999998,-137.0,16
164,2770.0,-6.6000000000000005,-1.7000000000000002,4.9,-11.700000000000001,-9.700000000000001,0.8,12.0,112.1,-133.20000000000002,16
165,2784.0,-5.300000000000001,-1.1,4.7,-9.600000000000001,-8.8,0.5,-15.700000000000001,10.4,-106.0,16
166,2801.0,-1.2000000000000002,0.30000000000000004,4.2,-5.300000000000001,-7.5,-0.1,-34.60000000000001,-58.7,-65.2,16
167,2818.0,0.5,1.0,4.5,-2.8000000000000003,-6.7,0.4,-50.3,-96.1,-33.50000000000001,16
168,2835.0,2.5,1.4000000000000001,4.9,-1.6,-6.4,0.6000000000000001,-52.60000000000001,-117.80000000000001,-22.3,16
169,2856.0,2.7,3.0,5.4,-1.5,-4.7,1.2000000000000002,-57.20000000000001,-151.5,-10.200000000000001,16
170,2870.0,2.6,3.7,5.4,-1.8,-4.0,1.2000000000000002,-60.00000000000001,-186.6,8.100000000000001,16
171,2884.0,2.9000000000000004,4.1000000000000005,4.6000000000000005,-1.6,-3.5,0.5,-53.9,-200.70000000000002,11.2,16
172,2901.0,2.3000000000000003,2.0,3.8000000000000003,-2.3000000000000003,-6.1000000000000005,0.7000000000000001,-48.6,-188.70000000000002,33.6,16
173,2918.0,2.5,-2.8000000000000003,3.6,-2.6,-10.3,-0.2,-46.4,-167.9,66.4,16
174,2942.0,0.7000000000000001,-9.9,5.0,-4.9,-17.1,1.3,-74.10000000000001,-13.700000000000001,38.800000000000004,16
175,2962.0,-0.9,-3.7,3.6,-6.5,-10.700000000000001,-0.30000000000000004,-58.7,43.800000000000004,-34.60000000000001,16
176,2969.0,-3.2,-4.9,2.7,-8.8,-12.0,-1.3,-48.2,48.400000000000006,-50.400000000000006,16
177,2984.0,-4.2,-5.4,1.7000000000000002,-9.700000000000001,-12.4,-2.5,-47.2,59.20000000000001,-40.800000000000004,16
178,3003.0,-2.5,-5.4,1.5,-6.300000000000001,-12.0,-2.7,-69.4,50.400000000000006,-5.9,16
179,3020.0,0.9,-2.7,2.5,-4.3,-9.600000000000001,-2.1,-71.30000000000001,-6.600000000000001,18.1,16
180,3034.0,2.1,-1.1,3.0,-3.1,-7.9,-1.6,-61.7,-31.6,28.900000000000002,16
181,3055.0,3.4000000000000004,0.5,4.2,-2.0,-6.1000000000000005,-0.6000000000000001,-39.2,-64.7,34.7,16
182,3068.0,3.6,0.9,4.5,-1.9000000000000001,-5.800000000000001,-0.2,-28.400000000000002,-75.1,29.400000000000002,16
183,3084.0,4.0,1.3,5.1000000000000005,-1.7000000000000002,-5.300000000000001,0.5,-14.100000000000001,-92.10000000000001,5.4,16
184,3101.0,4.2,1.5,5.4,-1.6,-5.0,1.0,-8.8,-87.10000000000001,-16.6,16
185,3118.0,4.3,1.5,5.6000000000000005,-1.5,-5.0,1.3,-3.6000000000000005,-70.3,-28.700000000000003,16
186,3134.0,4.4,1.2000000000000002,5.300000000000001,-1.5,-5.300000000000001,1.1,4.9,-37.300000000000004,-45.5,16
187,3151.0,3.9000000000000004,0.9,4.7,-1.9000000000000001,-5.800000000000001,0.5,17.0,-4.300000000000001,-54.9,16
188,3168.0,3.9000000000000004,0.9,4.7,-2.1,-6.1000000000000005,0.4,27.0,9.899999999999999,-57.00000000000001,16
189,3185.0,2.8000000000000003,-0.1,4.6000000000000005,-3.1,-7.0,0.2,55.400000000000006,18.8,-64.7,16
190,3201.0,-0.9,-0.30000000000000004,2.3000000000000003,-6.300000000000001,-7.4,-1.7000000000000002,77.80000000000001,33.7,-62.7,16
191,3220.0,-4.5,-2.5,0.2,-9.700000000000001,-9.8,-3.7,49.6,108.10000000000001,-13.3,16
192,3245.0,-4.4,-3.5,-0.7000000000000001,-9.4,-10.9,-4.7,22.5,189.1,32.2,16
193,3251.0,-4.4,-3.5,-0.7000000000000001,-9.4,-10.9,-4.7,22.5,189.1,32.2,16
194,3268.0,-2.1,-2.8000000000000003,-1.7000000000000002,-6.9,-10.200000000000001,-6.0,-9.2,168.8,60.6,16
195,3284.0,-0.6000000000000001,-2.3000000000000003,-0.9,-5.300000000000001,-9.600000000000001,-5.5,-23.5,89.30000000000001,30.599999999999998,16
196,3301.0,0.2,-4.1000000000000005,1.4000000000000001,-4.5,-11.200000000000001,-3.4000000000000004,-40.0,42.5,3.4,16
197,3318.0,0.6000000000000001,-4.5,3.9000000000000004,-4.1000000000000005,-11.600000000000001,-1.1,-79.3,19.300000000000004,8.700000000000001,16
198,3337.0,1.5,-4.4,5.300000000000001,-2.3000000000000003,-11.4,0.9,-96.0,-15.6,13.100000000000001,16
199,3352.0,1.5,-4.4,5.300000000000001,-2.3000000000000003,-11.4,0.9,-96.0,-15.6,13.100000000000001,16
200,3372.0,1.9000000000000001,-4.7,7.2,-2.9000000000000004,-11.4,1.8,-75.8,-52.00000000000001,-25.6,16
201,3385.0,2.7,-3.2,6.4,-2.1,-9.700000000000001,0.9,-63.0,-44.10000000000001,-42.5,16
202,3401.0,4.7,-1.9000000000000001,4.7,0.9,-16.1,0.0,-50.900000000000006,-49.9,-86.60000000000001,16
203,3418.0,0.5,-4.7,7.1000000000000005,-3.9000000000000004,-10.5,1.4000000000000001,-35.1,-59.80000000000001,-122.30000000000001,16
204,3434.0,0.9,-4.800000000000001,7.6000000000000005,-3.6,-11.5,2.0,-21.6,-45.0,-117.60000000000001,16
205,3455.0,1.7000000000000002,-2.6,7.800000000000001,-2.6,-9.5,2.3000000000000003,-9.100000000000001,-60.00000000000001,-122.69999999999999,16
206,3468.0,-1.0,-1.6,7.5,-5.300000000000001,-8.5,2.0,-3.2,-58.7,-110.5,16
207,3487.0,2.1,-1.3,6.7,-2.0,-8.4,1.2000000000000002,-16.1,-31.9,-97.8,16
208,3503.0,-1.7000000000000002,0.1,5.7,-5.6000000000000005,-7.0,0.30000000000000004,-9.600000000000001,-2.3,-81.8,16
209,3521.0,1.6,-3.9000000000000004,5.9,-2.1,-11.200000000000001,0.4,5.300000000000001,13.8,-67.2,16
210,3534.0,1.3,-3.9000000000000004,6.6000000000000005,-2.3000000000000003,-11.200000000000001,1.1,4.4,1.3,-67.4,16
211,3552.0,0.7000000000000001,-3.5,6.9,-2.7,-10.9,1.4000000000000001,16.0,-3.2,-78.7,16
212,3570.0,0.7000000000000001,-1.2000000000000002,6.5,-2.6,-8.8,1.1,28.3,1.5,-69.00000000000001,16
213,3586.0,0.5,-0.4,6.300000000000001,-2.7,-8.0,0.9,32.8,-10.4,-58.1,16
214,3602.0,0.4,0.30000000000000004,5.7,-2.5,-7.300000000000001,0.2,51.300000000000004,-26.5,-47.2,16
215,3619.0,0.7000000000000001,-0.5,5.1000000000000005,-2.2,-8.4,0.0,75.7,-23.2,-45.7,16
216,3634.0,1.0,-1.2000000000000002,5.0,-1.9000000000000001,-9.200000000000001,0.0,84.9,-20.8,-43.00000000000001,16
217,3653.0,1.2000000000000002,-1.6,4.4,-1.6,-9.700000000000001,-0.30000000000000004,93.3,-20.599999999999998,-33.9,16
218,3668.0,1.2000000000000002,-1.5,4.3,-1.5,-9.8,-0.5,95.20000000000002,-18.3,-32.5,16
219,3684.0,1.2000000000000002,-1.2000000000000002,3.4000000000000004,-1.5,-9.600000000000001,-0.8,101.0,-10.5,-36.5,16
220,3701.0,1.1,-0.7000000000000001,3.0,-1.6,-9.0,-1.0,107.30000000000001,-2.4000000000000004,-40.7,16
221,3718.0,0.9,0.7000000000000001,2.1,-1.6,-8.1,-1.4000000000000001,105.4,22.3,-41.0,16
222,3734.0,0.7000000000000001,1.5,2.0,-1.7000000000000002,-7.300000000000001,-1.4000000000000001,101.0,39.0,-35.8,16
223,3752.0,-1.0,2.2,3.3000000000000003,-3.3000000000000003,-6.800000000000001,0.1,87.60000000000001,63.4,-18.200000000000003,16
224,3774.0,-1.1,0.9,3.1,-3.2,-8.200000000000001,0.2,53.400000000000006,30.799999999999997,-5.0,16
225,3784.0,-1.2000000000000002,-0.1,3.2,-3.4000000000000004,-9.200000000000001,0.4,43.300000000000004,27.9,-1.2000000000000002,16
226,3801.0,-1.9000000000000001,-0.8,3.4000000000000004,-4.5,-10.5,1.0,36.5,37.6,-3.6000000000000005,16
227,3818.0,-2.8000000000000003,-1.5,3.6,-4.800000000000001,-10.5,0.9,43.300000000000004,43.2,-11.2,16
228,3834.0,-2.8000000000000003,-0.6000000000000001,3.3000000000000003,-4.800000000000001,-9.8,0.7000000000000001,48.70000000000001,46.6,-14.400000000000002,16
229,3851.0,-2.5,-0.1,3.1,-4.5,-9.4,0.7000000000000001,53.0,64.30000000000001,-13.200000000000003,16
230,3871.0,-2.7,0.30000000000000004,3.3000000000000003,-4.5,-9.0,1.0,51.2,72.9,-8.8,16
231,3884.0,-3.2,0.0,3.8000000000000003,-5.1000000000000005,-9.3,1.5,32.7,62.50000000000001,8.600000000000001,16
232,3911.0,-4.3,-0.8,4.0,-6.1000000000000005,-10.200000000000001,1.8,-6.2,32.400000000000006,20.3,16
233,3918.0,-4.3,-0.8,4.1000000000000005,-6.7,-10.700000000000001,1.9000000000000001,-12.600000000000001,27.099999999999998,20.7,16
234,3935.0,-5.4,-2.2,4.3,-7.300000000000001,-11.600000000000001,2.1,-15.700000000000001,26.1,19.9,16
235,3952.0,-4.3,-3.2,4.7,-6.2,-12.5,2.4000000000000004,-19.300000000000004,29.500000000000004,21.400000000000002,16
236,3968.0,-3.4000000000000004,-3.0,4.9,-5.300000000000001,-12.3,2.6,-22.6,23.6,28.600000000000005,16
237,3985.0,-1.9000000000000001,-2.8000000000000003,5.4,-3.4000000000000004,-12.100000000000001,3.2,-42.2,4.0,36.300000000000004,16
238,4001.0,-0.2,-3.1,6.0,-1.9000000000000001,-12.3,3.4000000000000004,-67.10000000000001,-13.100000000000001,36.6,16
239,4024.0,2.2,-2.6,5.7,-0.1,-11.700000000000001,2.9000000000000004,-96.60000000000001,-49.699999999999996,41.4,16
240,4034.0,3.1,-2.2,5.2,0.7000000000000001,-11.200000000000001,2.3000000000000003,-105.10000000000001,-69.80000000000001,46.6,16
241,4051.0,4.5,-1.6,4.7,1.8,-10.4,1.5,-110.4,-101.10000000000001,59.20000000000001,16
242,4068.0,4.800000000000001,-1.6,4.7,2.0,-10.4,1.3,-106.30000000000001,-115.20000000000002,64.50000000000001,16
243,4086.0,5.800000000000001,-2.1,3.8000000000000003,2.7,-10.700000000000001,0.2,-86.2,-142.0,73.6,16
244,4104.0,6.6000000000000005,-2.8000000000000003,3.0,3.1,-11.200000000000001,-0.6000000000000001,-55.2,-126.30000000000001,70.5,16
245,4118.0,5.300000000000001,-2.7,2.7,1.4000000000000001,-10.9,-1.0,-33.300000000000004,-74.0,53.2,16
246,4134.0,5.4,-2.7,2.6,0.0,-10.200000000000001,-0.9,-34.0,-49.199999999999996,42.7,16
247,4151.0,2.0,-1.0,2.5,-2.1,-9.1,-1.1,-74.60000000000001,-43.50000000000001,33.50000000000001,16
248,4169.0,2.3000000000000003,-0.7000000000000001,2.2,-1.9000000000000001,-8.8,-1.5,-97.60000000000001,-38.7,35.699999999999996,16
249,4188.0,2.9000000000000004,0.0,2.6,-1.1,-7.300000000000001,-1.2000000000000002,-119.39999999999999,-19.200000000000003,38.2,16
250,4201.0,3.8000000000000003,0.7000000000000001,3.8000000000000003,-0.7000000000000001,-6.9,-0.4,-129.4,-23.2,29.300000000000004,16
251,4217.0,4.6000000000000005,0.4,4.3,0.30000000000000004,-7.1000000000000005,-0.1,-132.0,-22.5,21.400000000000002,16
252,4234.0,5.300000000000001,0.2,4.9,0.7000000000000001,-7.0,0.2,-116.69999999999999,-10.9,2.2,16
253,4251.0,5.0,-0.5,5.1000000000000005,0.30000000000000004,-7.6000000000000005,0.1,-90.70000000000002,3.1,-14.800000000000002,16
254,4274.0,1.6,-1.2000000000000002,5.9,-2.9000000000000004,-8.200000000000001,0.7000000000000001,-65.2,12.9,-39.2,16
255,4288.0,1.9000000000000001,-1.2000000000000002,5.300000000000001,-2.7,-8.1,0.0,-60.900000000000006,-5.1000000000000005,-64.2,16
256,4301.0,1.9000000000000001,-1.0,4.3,-2.4000000000000004,-7.9,-1.1,-40.2,-17.300000000000004,-85.5,16
257,4318.0,1.0,0.2,4.4,-3.3000000000000003,-6.7,-1.0,-26.200000000000003,-20.7,-85.0,16
258,4334.0,1.0,0.5,3.9000000000000004,-3.2,-6.6000000000000005,-1.6,-16.200000000000003,-40.2,-88.4,16
259,4351.0,0.9,0.1,4.0,-3.1,-7.0,-1.5,-5.9,-35.4,-96.60000000000001,16
260,4368.0,1.3,-1.2000000000000002,4.4,-2.1,-8.9,-0.6000000000000001,43.300000000000004,-22.6,-127.00000000000003,16
261,4384.0,1.3,-0.9,4.5,-2.3000000000000003,-8.3,-0.7000000000000001,54.9,-24.0,-119.60000000000002,16
262,4401.0,0.2,0.5,2.4000000000000004,-3.1,-7.2,-2.7,55.7,24.400000000000002,-98.2,16
263,4418.0,-2.0,0.2,0.9,-5.0,-7.7,-4.1000000000000005,27.6,123.6,-77.60000000000001,16
264,4443.0,-2.0,-1.4000000000000001,1.5,-4.2,-10.3,-3.1,13.900000000000002,159.9,-63.2,16
265,4451.0,-1.6,-3.8000000000000003,2.8000000000000003,-3.9000000000000004,-11.9,-2.3000000000000003,17.9,150.2,-60.1,16
266,4469.0,-1.5,-4.2,2.6,-3.6,-12.3,-2.5,27.099999999999998,133.60000000000002,-55.5,16
267,4484.0,-1.1,-5.0,2.3000000000000003,-2.2,-13.5,-3.1,40.9,121.5,-47.7,16
268,4501.0,2.0,-5.6000000000000005,1.1,0.6000000000000001,-13.9,-4.1000000000000005,20.1,119.8,-41.0,16
269,4519.0,2.5,-5.5,0.9,2.0,-13.4,-4.2,-18.200000000000003,106.1,-45.8,16
270,4535.0,3.4000000000000004,-4.9,1.2000000000000002,2.6,-13.200000000000001,-4.0,-32.8,84.2,-51.50000000000001,16
271,4551.0,4.800000000000001,-6.300000000000001,1.9000000000000001,4.3,-14.5,-3.4000000000000004,-50.5,69.10000000000001,-73.0,16
272,4571.0,4.4,-4.7,5.300000000000001,4.2,-12.9,-0.1,-49.800000000000004,23.2,-97.7,16
273,4589.0,4.2,-4.800000000000001,5.4,4.0,-12.5,0.2,-23.400000000000002,-34.7,-98.60000000000001,16
274,4601.0,3.2,-2.0,6.5,3.3000000000000003,-10.0,1.0,31.099999999999998,-134.6,-74.7,16
275,4618.0,3.2,-0.6000000000000001,6.800000000000001,3.3000000000000003,-8.700000000000001,1.3,47.3,-149.50000000000003,-47.3,16
276,4635.0,2.5,2.0,6.6000000000000005,2.5,-6.1000000000000005,1.2000000000000002,31.6,-151.5,-29.300000000000004,16
277,4652.0,2.3000000000000003,3.2,6.6000000000000005,2.1,-5.1000000000000005,1.2000000000000002,-2.7,-112.7,-9.700000000000001,16
278,4673.0,3.3000000000000003,0.1,7.2,2.9000000000000004,-8.200000000000001,1.9000000000000001,-31.099999999999998,-42.5,-1.2000000000000002,16
279,4687.0,3.3000000000000003,0.0,7.2,3.1,-9.5,2.2,-42.1,-6.699999999999999,-2.4000000000000004,16
280,4701.0,3.8000000000000003,-4.3,8.200000000000001,3.4000000000000004,-12.4,2.7,-59.20000000000001,43.1,-9.100000000000001,16
281,4717.0,3.4000000000000004,-4.5,8.1,3.0,-12.600000000000001,2.5,-60.00000000000001,53.300000000000004,-13.200000000000003,16
282,4734.0,1.5,-2.9000000000000004,7.9,1.3,-10.8,2.2,-36.5,55.8,-20.400000000000002,16
283,4751.0,1.9000000000000001,-0.30000000000000004,7.2,1.8,-8.200000000000001,1.3,4.800000000000001,38.900000000000006,-12.5,16
284,4768.0,1.6,0.4,6.7,1.6,-7.5,0.8,30.3,31.9,-10.600000000000001,16
285,4785.0,1.5,0.6000000000000001,5.9,1.6,-7.4,0.2,89.2,48.300000000000004,-13.6,16
286,4801.0,1.4000000000000001,0.2,5.800000000000001,1.7000000000000002,-8.0,0.4,128.20000000000002,71.39999999999999,-10.5,16
287,4818.0,1.8,-0.4,5.300000000000001,2.4000000000000004,-8.700000000000001,0.1,140.9,101.50000000000001,6.9,16
288,4841.0,1.8,-0.4,4.3,2.4000000000000004,-9.0,-0.2,143.2,145.20000000000002,10.600000000000001,16
289,4853.0,1.5,-0.5,4.0,2.2,-9.3,-0.30000000000000004,139.3,163.90000000000003,7.8,16
290,4868.0,1.4000000000000001,-0.4,3.8000000000000003,1.9000000000000001,-9.200000000000001,-0.7000000000000001,133.0,179.9,-1.1,16
291,4885.0,0.4,1.1,2.2,1.5,-7.9,-1.4000000000000001,122.0,202.40000000000003,-19.799999999999997,16
292,4905.0,-0.5,1.8,-0.2,0.9,-7.300000000000001,-3.4000000000000004,112.9,203.8,-28.0,16
293,4922.0,-1.8,1.9000000000000001,-2.9000000000000004,-0.1,-7.4,-5.6000000000000005,76.4,225.8,-32.0,16
294,4934.0,-2.4000000000000004,1.4000000000000001,-1.9000000000000001,-0.5,-7.9,-4.5,45.099999999999994,223.70000000000002,-31.099999999999998,16
295,4955.0,-2.7,0.0,0.8,-0.6000000000000001,-9.3,-1.5,3.4,92.90000000000002,-20.7,16
296,4968.0,-2.8000000000000003,0.0,0.8,-0.4,-9.5,-0.7000000000000001,5.6,-5.7,-13.100000000000001,16
297,4987.0,-1.2000000000000002,-0.9,3.6,1.0,-10.200000000000001,1.4000000000000001,26.200000000000003,-103.2,-6.600000000000001,16
298,5001.0,-1.7000000000000002,-2.2,4.6000000000000005,0.4,-11.5,2.4000000000000004,22.4,-65.6,-5.1000000000000005,16
299,5020.0,-2.2,-3.6,5.4,-0.1,-13.0,3.2,-2.5,23.400000000000002,-5.500000000000001,16
300,5036.0,-2.5,-4.5,4.800000000000001,-0.4,-13.8,2.6,-14.600000000000001,48.0,-2.8,16
301,5051.0,-3.0,-5.6000000000000005,4.1000000000000005,-0.8,-14.9,1.9000000000000001,-19.5,65.5,2.9,16
302,5067.0,-3.0,-5.6000000000000005,4.1000000000000005,-0.9,-15.100000000000001,1.9000000000000001,-11.2,64.7,1.5,16
303,5084.0,-3.2,-5.6000000000000005,4.3,-1.0,-14.9,2.1,2.5,44.9,4.5,16
304,5101.0,-2.8000000000000003,-2.5,4.0,-0.6000000000000001,-11.8,1.8,-10.200000000000001,11.4,16.900000000000002,16
305,5118.0,-2.5,-1.1,4.0,-0.30000000000000004,-10.4,1.8,-37.400000000000006,-4.9,27.400000000000002,16
306,5141.0,-1.9000000000000001,-0.4,4.6000000000000005,0.2,-9.700000000000001,2.3000000000000003,-68.9,-10.600000000000001,33.6,16
307,5151.0,-1.3,0.2,5.0,0.7000000000000001,-9.0,2.5,-82.0,-18.200000000000003,35.4,16
308,5168.0,-1.3,0.2,5.1000000000000005,1.0,-8.8,2.6,-92.8,-28.800000000000004,35.599999999999994,16
309,5186.0,0.2,0.2,5.9,1.9000000000000001,-9.0,2.9000000000000004,-108.0,-62.800000000000004,31.6,16
310,5208.0,2.5,-1.0,6.7,4.0,-10.0,3.2,-122.50000000000001,-148.60000000000002,25.200000000000003,16
311,5218.0,2.5,-1.0,6.7,4.7,-10.5,3.2,-122.50000000000001,-148.60000000000002,25.200000000000003,16
312,5237.0,4.6000000000000005,-2.5,6.7,5.800000000000001,-11.4,2.7,-121.2,-216.4,30.1,16
313,5251.0,6.9,-4.5,4.5,7.7,-13.200000000000001,0.0,-97.40000000000002,-241.9,41.0,16
314,5269.0,7.5,-5.2,2.9000000000000004,8.0,-13.8,-1.7000000000000002,-84.4,-195.4,39.9,16
315,5284.0,5.800000000000001,-2.7,1.3,6.0,-11.200000000000001,-3.6,-83.4,-0.7,18.700000000000003,16
316,5301.0,3.7,-0.6000000000000001,2.7,3.1,-8.1,-1.7000000000000002,-100.0,101.30000000000001,2.5,16
317,5319.0,1.7000000000000002,0.8,4.4,1.7000000000000002,-7.1000000000000005,-1.1,-102.8,55.900000000000006,0.0,16
318,5336.0,1.0,1.4000000000000001,4.4,1.4000000000000001,-6.7,-1.2000000000000002,-102.8,41.7,-0.1,16
319,5351.0,0.7000000000000001,1.7000000000000002,4.9,1.1,-6.1000000000000005,-1.0,-98.8,9.2,-3.3000000000000007,16
320,5368.0,0.7000000000000001,1.6,5.0,1.1,-5.9,-0.7000000000000001,-93.7,5.6,-6.500000000000001,16
321,5384.0,0.7000000000000001,1.8,6.1000000000000005,1.2000000000000002,-5.800000000000001,-0.1,-74.4,9.4,-15.2,16
322,5402.0,0.8,1.6,6.7,1.5,-5.800000000000001,0.5,-48.800000000000004,18.5,-24.1,16
323,5418.0,0.8,1.8,7.2,1.5,-5.300000000000001,0.7000000000000001,-17.9,22.8,-29.500000000000004,16
324,5438.0,0.5,2.4000000000000004,7.2,1.3,-4.9,0.6000000000000001,12.0,28.900000000000002,-26.400000000000006,16
325,5451.0,0.1,2.7,7.0,1.0,-4.6000000000000005,0.5,25.1,34.1,-23.099999999999998,16
326,5469.0,0.1,2.7,7.0,0.9,-4.7,0.5,37.1,42.2,-19.9,16
327,5484.0,-0.30000000000000004,2.4000000000000004,6.800000000000001,0.8,-5.4,0.5,58.0,64.50000000000001,-16.6,16
328,5501.0,-0.5,0.8,6.800000000000001,0.8,-6.7,0.7000000000000001,80.2,81.0,-19.6,16
329,5521.0,-0.7000000000000001,0.0,6.4,0.9,-8.3,0.5,105.3,89.4,-24.200000000000003,16
330,5540.0,-0.6000000000000001,-1.8,4.2,1.4000000000000001,-10.0,-6.1000000000000005,119.0,84.80000000000001,-24.900000000000002,16
331,5553.0,-3.5,-9.4,-9.8,-1.6,-17.5,-15.100000000000001,60.7,37.400000000000006,-22.4,16
332,5568.0,-3.6,-9.4,-9.9,-1.7000000000000002,-15.9,-12.4,-42.400000000000006,-25.0,8.3,16
333,5584.0,-3.4000000000000004,-6.6000000000000005,-5.5,-1.2000000000000002,-12.9,-8.5,-72.9,-83.60000000000001,41.0,16
334,5601.0,-2.8000000000000003,-4.5,-1.0,-1.3,-12.5,-5.7,-6.4,-52.2,28.700000000000003,16
335,5618.0,-2.3000000000000003,-4.7,0.2,-0.9,-12.200000000000001,-5.300000000000001,6.0,-41.4,20.3,16
336,5637.0,-2.3000000000000003,-4.7,0.2,-0.6000000000000001,-9.0,-4.6000000000000005,-1.6,-24.3,12.9,16
337,5651.0,-0.7000000000000001,-3.5,3.1,0.6000000000000001,-11.4,-2.6,-16.700000000000003,21.200000000000003,-5.300000000000001,16
338,5671.0,0.2,-5.2,4.2,1.5,-13.0,-1.5,-22.6,30.200000000000003,-8.8,16
339,5688.0,0.4,-8.9,9.3,1.9000000000000001,-16.7,3.5,-27.2,117.1,-0.1,16
340,5703.0,0.7000000000000001,-9.0,9.200000000000001,2.3000000000000003,-16.8,3.4000000000000004,-26.5,147.4,6.699999999999999,16
341,5720.0,1.3,-7.800000000000001,8.6,3.8000000000000003,-14.4,2.4000000000000004,-24.5,111.70000000000002,18.700000000000003,16
342,5751.0,3.2,-2.6,7.4,5.2,-10.3,1.7000000000000002,9.3,-18.6,17.200000000000003,16
343,5768.0,3.2,-2.6,7.4,5.4,-9.600000000000001,1.6,29.300000000000004,-52.2,18.1,16
344,5784.0,3.7,-0.7000000000000001,7.1000000000000005,5.5,-8.200000000000001,1.3,60.400000000000006,-92.90000000000002,22.700000000000003,16
345,5801.0,3.1,-0.30000000000000004,6.6000000000000005,4.6000000000000005,-8.200000000000001,1.1,72.9,-76.5,16.700000000000003,16
346,5819.0,2.5,-1.7000000000000002,6.7,3.9000000000000004,-9.8,1.3,63.10000000000001,-13.000000000000002,-14.400000000000002,16
347,5837.0,2.0,-2.3000000000000003,6.5,3.1,-10.600000000000001,1.2000000000000002,47.2,49.199999999999996,-38.1,16
348,5851.0,1.0,-2.2,6.300000000000001,2.5,-10.4,1.1,43.6,72.10000000000001,-40.6,16
349,5868.0,0.8,-2.2,6.2,2.1,-10.100000000000001,1.0,43.800000000000004,90.4,-38.60000000000001,16
350,5884.0,-0.6000000000000001,-0.1,5.2,1.4000000000000001,-8.4,0.4,54.0,117.60000000000001,-29.800000000000004,16
351,5901.0,-1.2000000000000002,1.1,4.7,1.0,-6.800000000000001,0.0,71.6,133.9,-25.4,16
352,5918.0,-1.8,2.3000000000000003,4.4,0.8,-6.1000000000000005,0.1,87.00000000000001,133.0,-24.1,16
353,5938.0,-2.0,2.6,4.4,0.7000000000000001,-6.0,0.5,90.0,116.1,-22.1,16
354,5951.0,-2.1,2.6,4.3,0.8,-6.0,0.7000000000000001,85.9,103.00000000000001,-22.3,16
355,5968.0,-2.2,2.7,4.2,1.0,-6.2,0.8,79.5,88.7,-23.3,16
356,5987.0,-2.2,2.5,3.9000000000000004,1.2000000000000002,-6.5,0.8,64.30000000000001,58.900000000000006,-25.6,16
357,6002.0,-1.8,1.6,3.7,1.7000000000000002,-7.5,0.8,51.50000000000001,32.2,-25.1,16
358,6018.0,-1.5,0.6000000000000001,3.5,2.0,-8.6,0.7000000000000001,46.199999999999996,13.6,-22.700000000000003,16
359,6037.0,-1.3,-0.5,3.2,2.1,-9.3,0.6000000000000001,46.800000000000004,8.600000000000001,-22.700000000000003,16
360,6051.0,-1.4000000000000001,-0.8,3.1,1.9000000000000001,-10.200000000000001,0.4,55.900000000000006,9.0,-27.3,16
361,6072.0,-2.4000000000000004,-2.2,2.5,1.3,-11.0,0.2,74.10000000000001,16.8,-34.300000000000004,16
362,6084.0,-2.7,-2.4000000000000004,2.4000000000000004,0.9,-11.200000000000001,0.2,84.4,20.3,-34.50000000000001,16
363,6101.0,-3.3000000000000003,-3.0,2.1,0.1,-12.100000000000001,0.1,94.9,25.7,-26.6,16
364,6117.0,-4.5,-3.4000000000000004,1.3,-1.4000000000000001,-12.3,-1.4000000000000001,64.60000000000001,25.1,-9.0,16
365,6141.0,-6.0,-4.800000000000001,-1.0,-2.1,-13.700000000000001,-2.4000000000000004,1.1,30.9,10.299999999999999,16
366,6151.0,-6.0,-4.800000000000001,-1.0,-2.1,-13.700000000000001,-2.4000000000000004,1.1,30.9,10.299999999999999,16
367,6171.0,-4.1000000000000005,-5.800000000000001,4.1000000000000005,-0.30000000000000004,-14.700000000000001,2.6,-88.20000000000002,-29.600000000000005,30.4,16
368,6185.0,-3.4000000000000004,-5.800000000000001,4.800000000000001,0.4,-14.700000000000001,3.1,-92.10000000000001,-54.9,29.900000000000006,16
369,6212.0,-0.9,-4.5,6.0,2.6,-13.3,3.8000000000000003,-95.20000000000002,-68.9,25.5,16
370,6227.0,-0.2,-4.0,6.2,3.3000000000000003,-12.8,3.8000000000000003,-99.9,-71.7,22.8,16
371,6234.0,0.9,-3.2,6.0,4.3,-12.0,3.5,-105.60000000000002,-80.30000000000001,20.900000000000002,16
372,6251.0,2.8000000000000003,-1.7000000000000002,5.300000000000001,6.1000000000000005,-10.4,2.3000000000000003,-115.9,-99.60000000000001,22.5,16
373,6267.0,3.2,-1.4000000000000001,5.4,6.4,-10.100000000000001,2.1,-118.2,-105.7,29.700000000000006,16
374,6287.0,4.5,-0.6000000000000001,5.1000000000000005,7.4,-9.200000000000001,1.4000000000000001,-99.5,-127.3,63.8,16
375,6301.0,4.6000000000000005,-0.4,4.9,7.4,-8.9,0.9,-80.7,-136.5,81.2,16
376,6317.0,4.800000000000001,-0.6000000000000001,4.4,6.800000000000001,-9.3,-0.8,-27.099999999999998,-110.0,68.5,16
377,6337.0,3.7,-0.1,3.2,5.5,-8.6,-1.4000000000000001,-41.7,-32.2,26.000000000000004,16
378,6353.0,2.6,0.6000000000000001,3.5,4.3,-7.9,-1.1,-59.80000000000001,-8.4,14.400000000000002,16
379,6367.0,2.3000000000000003,1.1,3.8000000000000003,4.0,-7.4,-0.9,-78.2,-3.3000000000000007,10.700000000000001,16
380,6384.0,1.8,2.4000000000000004,4.4,3.4000000000000004,-5.9,-0.5,-101.7,-31.9,11.700000000000001,16
381,6401.0,1.7000000000000002,3.4000000000000004,4.9,3.2,-4.7,-0.4,-106.4,-74.30000000000001,10.200000000000001,16
382,6418.0,1.7000000000000002,3.7,5.0,2.9000000000000004,-3.8000000000000003,-0.4,-92.3,-89.2,-0.8,16
383,6444.0,1.5,4.3,5.5,2.5,-3.3000000000000003,-0.2,-67.5,-75.60000000000001,-16.3,16
384,6459.0,1.1,4.3,6.1000000000000005,2.2,-3.3000000000000003,0.1,-37.1,-46.7,-34.50000000000001,16
385,6470.0,1.1,4.3,6.1000000000000005,2.2,-3.3000000000000003,0.1,-37.1,-46.7,-34.50000000000001,16
386,6484.0,0.8,3.9000000000000004,6.4,1.9000000000000001,-4.0,0.4,-12.0,-9.899999999999999,-48.2,16
387,6505.0,0.5,2.6,6.800000000000001,1.8,-4.9,0.7000000000000001,4.0,23.800000000000004,-49.9,16
388,6518.0,0.30000000000000004,1.4000000000000001,7.1000000000000005,1.8,-6.2,0.9,14.300000000000002,52.400000000000006,-47.60000000000001,16
389,6534.0,0.2,0.5,7.1000000000000005,1.7000000000000002,-7.0,1.0,18.900000000000002,66.1,-46.1,16
390,6553.0,-0.30000000000000004,-0.8,6.800000000000001,1.6,-8.3,0.8,31.3,98.10000000000001,-41.6,16
391,6568.0,-0.5,-1.2000000000000002,6.5,1.5,-8.8,0.5,42.3,115.60000000000001,-38.900000000000006,16
392,6591.0,-1.9000000000000001,-3.2,5.5,0.6000000000000001,-10.9,0.0,86.1,162.3,-29.600000000000005,16
393,6601.0,-2.3000000000000003,-3.8000000000000003,5.2,0.4,-11.5,-0.1,107.4,182.9,-24.5,16
394,6618.0,-8.200000000000001,-11.0,-5.9,-5.5,-19.8,-14.100000000000001,98.8,84.80000000000001,20.1,16
395,6636.0,-6.800000000000001,-11.9,-12.200000000000001,-2.5,-18.5,-17.8,10.8,-260.40000000000003,108.8,16
396,6653.0,-5.1000000000000005,-10.3,-13.0,0.7000000000000001,-14.9,-16.8,12.299999999999999,-247.0,93.49999999999999,16
397,6668.0,-0.7000000000000001,-1.8,0.0,1.3,-10.100000000000001,-4.9,-23.900000000000006,-41.4,15.2,16
398,6685.0,-0.9,-3.4000000000000004,5.0,1.0,-11.700000000000001,0.0,-49.4,46.300000000000004,7.8,16
399,6701.0,0.4,-8.700000000000001,8.700000000000001,2.4000000000000004,-16.900000000000002,3.6,-71.6,57.1,23.0,16
400,6718.0,1.5,-9.700000000000001,9.200000000000001,4.0,-17.5,4.1000000000000005,-72.4,35.9,21.400000000000002,16
401,6742.0,3.4000000000000004,-6.4,9.200000000000001,5.5,-14.3,3.7,-42.7,-4.7,7.699999999999999,16
402,6753.0,4.1000000000000005,-4.3,8.8,6.1000000000000005,-12.200000000000001,3.3000000000000003,-25.1,-50.1,3.9,16
403,6767.0,5.0,-1.9000000000000001,8.3,6.9,-9.8,2.8000000000000003,1.2000000000000002,-151.20000000000002,14.5,16
404,6784.0,5.2,-1.9000000000000001,8.4,7.1000000000000005,-9.3,2.3000000000000003,9.8,-193.0,25.5,16
405,6802.0,5.9,-1.0,7.2,6.800000000000001,-8.700000000000001,0.9,20.2,-209.60000000000002,34.1,16
406,6821.0,5.2,-1.2000000000000002,6.2,6.0,-9.200000000000001,0.5,22.9,-118.50000000000001,8.700000000000001,16
407,6839.0,4.800000000000001,-1.7000000000000002,6.4,5.1000000000000005,-9.700000000000001,0.8,15.8,-12.8,-27.400000000000002,16
408,6851.0,3.6,-1.0,6.7,4.2,-9.0,1.1,11.4,25.200000000000003,-36.6,16
409,6868.0,2.2,0.1,6.6000000000000005,3.0,-7.9,1.0,10.8,63.70000000000001,-36.2,16
410,6884.0,2.1,0.1,6.6000000000000005,2.5,-7.300000000000001,0.7000000000000001,16.700000000000003,71.5,-34.1,16
411,6901.0,0.5,1.9000000000000001,5.6000000000000005,1.6,-6.1000000000000005,0.1,37.800000000000004,93.49999999999999,-34.400000000000006,16
412,6918.0,-0.30000000000000004,2.7,5.2,1.1,-5.4,-0.1,61.8,123.8,-36.5,16
413,6935.0,-0.5,2.9000000000000004,5.1000000000000005,1.1,-5.2,-0.1,71.8,136.8,-37.0,16
414,6951.0,-0.9,3.0,5.0,1.1,-5.300000000000001,0.1,83.70000000000002,147.9,-36.7,16
415,6967.0,-1.0,2.9000000000000004,4.9,1.1,-5.4,0.2,86.3,144.0,-36.300000000000004,16
416,6984.0,-1.3,2.5,4.7,1.2000000000000002,-5.9,0.30000000000000004,86.4,120.3,-34.50000000000001,16
417,7003.0,-1.3,2.5,4.7,1.2000000000000002,-5.9,0.30000000000000004,86.4,120.3,-34.50000000000001,16
418,7019.0,-1.3,2.5,4.7,1.2000000000000002,-5.9,0.30000000000000004,86.4,120.3,-34.50000000000001,16
419,7049.0,-2.2,-0.6000000000000001,3.8000000000000003,0.7000000000000001,-9.8,0.2,78.60000000000001,11.4,-34.0,16
420,7056.0,-2.7,-1.9000000000000001,3.3000000000000003,0.30000000000000004,-11.0,-0.1,80.7,8.8,-34.50000000000001,16
421,7067.0,-2.8000000000000003,-2.3000000000000003,3.1,0.30000000000000004,-11.0,-0.1,85.60000000000001,14.600000000000001,-34.400000000000006,16
422,7086.0,-3.2,-4.9,2.8000000000000003,0.1,-13.700000000000001,-0.1,104.4,49.300000000000004,-31.799999999999997,16
423,7106.0,-4.5,-7.800000000000001,3.4000000000000004,-1.0,-16.6,1.1,119.1,124.10000000000001,-19.700000000000003,16
424,7118.0,-5.1000000000000005,-7.800000000000001,3.3000000000000003,-1.5,-16.7,1.3,110.10000000000001,139.3,-10.700000000000001,16
425,7134.0,-5.5,-7.2,3.1,-1.9000000000000001,-16.1,1.4000000000000001,95.80000000000001,139.0,0.4,16
426,7160.0,-4.6000000000000005,-6.6000000000000005,-3.3000000000000003,0.30000000000000004,-17.0,-5.5,-18.0,5.300000000000001,8.5,16
427,7167.0,-4.6000000000000005,-6.6000000000000005,-3.3000000000000003,0.30000000000000004,-17.0,-5.5,-18.0,5.300000000000001,8.5,16
428,7191.0,-1.8,-4.800000000000001,2.7,1.9000000000000001,-13.8,1.2000000000000002,-93.8,14.300000000000002,1.1,16
429,7201.0,-1.8,-4.9,2.8000000000000003,2.0,-13.200000000000001,2.3000000000000003,-93.10000000000001,21.200000000000003,4.9,16
430,7217.0,-1.2000000000000002,-1.5,5.7,2.5,-10.4,3.8000000000000003,-88.8,-21.6,12.0,16
431,7234.0,-0.9,-0.2,5.800000000000001,2.7,-9.0,3.8000000000000003,-88.50000000000001,-61.7,15.899999999999999,16
432,7253.0,-0.30000000000000004,1.9000000000000001,5.4,3.3000000000000003,-6.9,3.0,-89.30000000000001,-136.3,28.700000000000003,16
433,7268.0,-0.1,1.9000000000000001,5.6000000000000005,3.7,-6.6000000000000005,2.8000000000000003,-91.10000000000001,-164.1,36.8,16
434,7284.0,1.8,1.6,5.6000000000000005,4.9,-7.2,2.5,-92.7,-214.20000000000002,55.1,16
435,7301.0,3.6,-0.1,5.5,6.300000000000001,-8.8,1.9000000000000001,-87.60000000000001,-245.39999999999998,66.9,16
436,7318.0,5.7,-1.4000000000000001,4.3,7.800000000000001,-10.0,0.2,-70.9,-230.5,62.1,16
437,7335.0,6.5,-1.1,2.8000000000000003,8.4,-9.700000000000001,-1.5,-63.0,-181.50000000000003,51.300000000000004,16
438,7351.0,5.2,0.2,2.5,6.7,-8.4,-2.0,-68.5,-29.500000000000004,19.6,16
439,7367.0,3.0,2.2,3.7,4.5,-6.300000000000001,-1.1,-97.00000000000001,67.9,1.9,16
440,7384.0,2.9000000000000004,2.1,3.8000000000000003,4.0,-5.4,-0.7000000000000001,-110.70000000000002,76.0,-2.6,16
441,7401.0,1.7000000000000002,3.5,5.0,3.1,-4.4,0.1,-125.60000000000001,35.4,-9.100000000000001,16
442,7419.0,0.8,4.2,5.5,2.5,-3.7,0.0,-115.8,-26.6,-16.5,16
443,7438.0,0.5,3.9000000000000004,5.7,2.2,-3.8000000000000003,-0.1,-83.10000000000001,-49.0,-26.5,16
444,7452.0,0.30000000000000004,3.6,5.7,2.0,-4.0,-0.30000000000000004,-61.8,-39.2,-32.2,16
445,7467.0,0.0,3.3000000000000003,5.7,1.7000000000000002,-4.2,-0.4,-20.5,9.5,-41.199999999999996,16
446,7484.0,-0.30000000000000004,3.2,5.800000000000001,1.6,-4.2,-0.30000000000000004,-11.000000000000002,23.5,-42.5,16
447,7501.0,-0.8,2.9000000000000004,6.0,1.2000000000000002,-4.5,-0.1,24.1,72.2,-43.70000000000001,16
448,7517.0,-1.3,2.3000000000000003,6.1000000000000005,1.0,-5.1000000000000005,0.1,54.6,104.80000000000001,-38.50000000000001,16
449,7538.0,-2.0,0.7000000000000001,5.9,0.6000000000000001,-6.800000000000001,0.2,79.6,133.60000000000002,-36.6,16
450,7552.0,-2.5,-1.1,5.6000000000000005,0.30000000000000004,-8.700000000000001,0.1,92.3,150.70000000000002,-37.300000000000004,16
451,7568.0,-8.8,-7.6000000000000005,-6.800000000000001,-5.6000000000000005,-15.4,-11.9,80.2,149.10000000000002,-19.400000000000002,16
452,7585.0,-8.0,-9.8,-9.600000000000001,-4.7,-17.6,-14.5,-13.700000000000001,51.4,39.2,16
453,7601.0,-5.6000000000000005,-9.700000000000001,-10.3,-2.4000000000000004,-17.5,-15.3,-60.1,-103.7,78.0,16
454,7618.0,-3.3000000000000003,-6.6000000000000005,-7.800000000000001,1.5,-10.200000000000001,-10.4,-14.5,-43.6,38.7,16
455,7637.0,-1.8,-2.0,1.6,0.9,-9.8,-3.7,-41.4,18.5,21.300000000000004,16
456,7651.0,-0.8,-9.3,10.4,1.9000000000000001,-17.0,5.0,-53.8,38.0,33.300000000000004,16
457,7669.0,-0.4,-10.8,11.0,2.3000000000000003,-18.5,5.6000000000000005,-59.699999999999996,66.5,38.60000000000001,16
458,7684.0,0.8,-9.1,9.700000000000001,3.5,-16.8,4.2,-72.80000000000001,99.10000000000001,44.300000000000004,16
459,7701.0,2.0,-5.7,8.6,4.7,-13.3,3.0,-58.7,54.50000000000001,43.70000000000001,16
460,7721.0,2.7,-4.7,8.200000000000001,6.0,-11.8,2.4000000000000004,-29.0,-14.200000000000001,32.9,16
461,7735.0,4.3,-4.3,8.200000000000001,7.0,-11.8,2.5,-15.899999999999999,-48.6,26.6,16
462,7751.0,5.1000000000000005,-4.7,7.6000000000000005,7.6000000000000005,-12.200000000000001,1.8,0.8,-103.3,18.5,16
463,7767.0,5.0,-4.800000000000001,7.300000000000001,7.4,-12.200000000000001,1.4000000000000001,4.800000000000001,-99.30000000000001,14.900000000000002,16
464,7785.0,4.3,-4.800000000000001,7.0,6.0,-12.4,1.0,3.7000000000000006,-33.1,-0.5,16
465,7801.0,2.9000000000000004,-4.2,7.1000000000000005,5.0,-11.700000000000001,1.2000000000000002,0.9000000000000001,35.5,-13.5,16
466,7818.0,1.8,-2.2,7.2,4.0,-9.700000000000001,1.3,17.0,45.3,-11.4,16
467,7834.0,1.2000000000000002,-0.9,6.9,3.5,-8.4,1.0,31.7,37.300000000000004,-8.8,16
468,7853.0,1.2000000000000002,-0.9,6.800000000000001,2.8000000000000003,-6.300000000000001,0.30000000000000004,59.699999999999996,37.6,-6.8,16
469,7870.0,0.2,2.0,5.800000000000001,2.3000000000000003,-4.7,0.0,79.3,56.800000000000004,-10.0,16
470,7884.0,-0.30000000000000004,3.1,5.4,2.1,-4.2,-0.1,86.00000000000001,66.3,-12.7,16
471,7901.0,-0.9,4.3,4.9,1.8,-3.5,-0.2,95.30000000000001,84.80000000000001,-18.5,16
472,7917.0,-1.2000000000000002,4.4,4.7,1.8,-3.6,0.0,97.3,96.80000000000001,-24.599999999999998,16
473,7934.0,-1.3,4.3,4.7,1.8,-3.9000000000000004,0.1,96.20000000000002,97.2,-26.1,16
474,7951.0,-1.2000000000000002,3.4000000000000004,4.4,2.1,-4.800000000000001,0.30000000000000004,86.89999999999999,89.30000000000001,-33.2,16
475,7967.0,-1.0,2.8000000000000003,4.2,2.4000000000000004,-5.5,0.30000000000000004,80.7,84.1,-39.0,16
476,7984.0,-0.9,1.9000000000000001,3.9000000000000004,2.9000000000000004,-7.1000000000000005,0.2,70.2,77.80000000000001,-53.8,16
477,8001.0,-0.9,0.30000000000000004,3.6,3.1,-8.6,0.30000000000000004,65.10000000000001,73.30000000000001,-64.80000000000001,16
478,8017.0,-1.3,-1.5,3.2,2.9000000000000004,-9.8,0.2,65.89999999999999,69.00000000000001,-67.10000000000001,16
479,8034.0,-1.7000000000000002,-2.3000000000000003,2.9000000000000004,2.6,-10.600000000000001,0.0,70.0,70.6,-67.3,16
480,8051.0,-2.4000000000000004,-4.0,2.4000000000000004,2.2,-12.3,-0.2,87.00000000000001,85.60000000000001,-72.7,16
481,8068.0,-3.0,-5.1000000000000005,2.1,1.1,-14.700000000000001,-0.2,98.39999999999999,102.89999999999999,-75.4,16
482,8085.0,-4.5,-7.6000000000000005,1.8,0.5,-15.8,-0.1,125.2,140.4,-67.4,16
483,8103.0,-5.4,-8.9,1.3,-0.7000000000000001,-17.6,-0.2,149.3,155.0,-29.800000000000004,16
484,8117.0,-8.1,-10.100000000000001,-6.5,-2.8000000000000003,-18.3,-7.1000000000000005,58.3,14.200000000000001,40.800000000000004,16
485,8134.0,-5.6000000000000005,-7.6000000000000005,-4.1000000000000005,-0.30000000000000004,-15.8,-4.5,-51.9,-100.2,64.60000000000001,16
486,8151.0,-3.5,-3.2,1.8,1.6,-11.5,0.9,-149.20000000000002,-101.30000000000001,46.0,16
487,8170.0,-1.8,-3.0,5.1000000000000005,3.2,-11.4,3.6,-147.4,-40.0,33.1,16
488,8184.0,-1.0,-3.1,6.0,3.9000000000000004,-11.5,4.2,-136.4,-46.4,29.1,16
489,8201.0,0.0,-2.6,6.6000000000000005,5.300000000000001,-10.3,4.0,-119.30000000000003,-135.6,37.400000000000006,16
490,8217.0,1.9000000000000001,-1.2000000000000002,5.5,6.4,-9.4,2.7,-98.60000000000001,-209.8,68.2,16
491,8234.0,2.7,-1.5,5.2,6.9,-9.8,2.1,-82.7,-227.3,85.30000000000001,16
492,8253.0,3.8000000000000003,-2.3000000000000003,5.1000000000000005,7.6000000000000005,-10.600000000000001,1.4000000000000001,-45.099999999999994,-225.3,101.10000000000001,16
493,8268.0,4.1000000000000005,-2.1,5.1000000000000005,7.6000000000000005,-10.4,1.2000000000000002,-27.800000000000004,-215.3,95.30000000000001,16
494,8284.0,4.3,-1.2000000000000002,2.7,7.2,-9.600000000000001,-1.5,-19.9,-146.9,64.50000000000001,16
495,8301.0,3.7,-0.30000000000000004,2.0,5.5,-7.9,-2.2,-67.60000000000001,-14.200000000000001,32.8,16
496,8317.0,1.8,2.4000000000000004,3.5,4.3,-5.9,-1.2000000000000002,-116.30000000000001,44.9,26.6,16
497,8334.0,1.3,3.0,4.3,3.8000000000000003,-5.2,-0.4,-132.0,36.5,27.3,16
498,8351.0,1.2000000000000002,3.4000000000000004,5.1000000000000005,3.7,-4.6000000000000005,0.0,-145.5,-30.799999999999997,28.400000000000002,16
499,8369.0,1.5,3.6,5.2,3.7,-4.2,-0.30000000000000004,-134.4,-97.7,17.5,16
500,8385.0,1.6,3.5,5.4,3.7,-4.0,-0.5,-128.1,-107.9,12.8,16
501,8400.0,1.7000000000000002,3.7,5.6000000000000005,3.6,-3.7,-0.5,-92.7,-115.9,-10.700000000000001,16
502,8418.0,1.7000000000000002,3.6,5.9,3.4000000000000004,-3.5,-0.6000000000000001,-48.70000000000001,-79.7,-36.1,16
503,8434.0,1.5,3.6,6.2,3.1,-3.5,-0.4,-28.400000000000002,-53.2,-46.4,16
504,8451.0,1.3,3.4000000000000004,6.4,3.0,-3.6,-0.2,-9.899999999999999,-27.700000000000003,-53.9,16
505,8473.0,0.6000000000000001,1.9000000000000001,7.0,2.4000000000000004,-5.1000000000000005,0.5,33.50000000000001,22.3,-62.300000000000004,16
506,8484.0,0.4,1.3,7.1000000000000005,2.4000000000000004,-5.7,0.6000000000000001,43.6,34.60000000000001,-61.599999999999994,16
507,8501.0,0.0,0.4,6.9,2.0,-7.300000000000001,0.5,61.39999999999999,64.9,-62.4,16
508,8518.0,-0.8,-1.6,6.5,1.5,-9.4,0.30000000000000004,86.8,112.30000000000001,-65.3,16
509,8534.0,-1.6,-3.9000000000000004,6.2,1.1,-11.100000000000001,0.2,103.8,142.50000000000003,-63.4,16
510,8551.0,-8.9,-11.8,-7.2,-5.7,-19.3,-12.700000000000001,99.00000000000001,111.30000000000001,-25.7,16
511,8567.0,-8.3,-14.200000000000001,-11.700000000000001,-5.0,-21.700000000000003,-17.1,24.599999999999998,-76.60000000000001,45.099999999999994,16
512,8584.0,-5.6000000000000005,-16.1,-15.100000000000001,-0.4,-22.6,-18.5,-9.8,-199.8,75.9,16
513,8601.0,-0.5,-6.7,2.9000000000000004,1.9000000000000001,-14.3,-2.8000000000000003,-28.800000000000004,-136.7,40.7,16
514,8618.0,2.2,-6.0,8.0,4.3,-13.600000000000001,2.2,-27.0,-85.30000000000001,31.2,16
515,8636.0,3.9000000000000004,-4.4,9.9,5.9,-11.9,4.0,-32.400000000000006,-27.700000000000003,-1.7,16
516,8651.0,4.1000000000000005,-1.2000000000000002,8.700000000000001,6.1000000000000005,-8.700000000000001,2.8000000000000003,-20.400000000000002,-33.50000000000001,1.9,16
517,8669.0,3.9000000000000004,-1.2000000000000002,8.0,5.800000000000001,-8.700000000000001,2.0,-3.3000000000000007,-22.700000000000003,38.50000000000001,16
518,8685.0,3.7,-2.5,7.5,5.5,-10.0,1.5,-4.800000000000001,-5.1000000000000005,43.00000000000001,16
519,8701.0,2.8000000000000003,-5.0,7.5,4.6000000000000005,-12.5,1.5,-16.0,67.60000000000001,10.1,16
520,8718.0,2.1,-5.9,7.6000000000000005,4.0,-13.3,1.6,-18.900000000000002,116.0,-24.0,16
521,8734.0,1.8,-6.1000000000000005,7.7,3.8000000000000003,-13.600000000000001,1.6,-17.799999999999997,119.20000000000002,-25.5,16
522,8751.0,0.8,-5.300000000000001,7.300000000000001,3.1,-12.700000000000001,1.3,-7.699999999999999,93.3,-7.8,16
523,8770.0,0.0,-3.2,6.5,2.5,-10.600000000000001,0.6000000000000001,14.300000000000002,61.7,13.200000000000003,16
524,8785.0,-0.1,-3.2,6.5,2.4000000000000004,-9.700000000000001,0.30000000000000004,28.0,56.6,16.200000000000003,16
525,8801.0,-0.5,-0.6000000000000001,5.5,2.1,-8.1,-0.30000000000000004,59.699999999999996,67.4,11.5,16
526,8818.0,-0.7000000000000001,0.9,5.0,2.0,-6.7,-0.5,86.89999999999999,85.20000000000002,6.0,16
527,8835.0,-0.9,1.5,4.800000000000001,1.9000000000000001,-6.2,-0.5,104.2,96.20000000000002,4.2,16
528,8851.0,-1.2000000000000002,2.3000000000000003,4.6000000000000005,1.8,-5.6000000000000005,-0.30000000000000004,129.20000000000002,108.8,3.0,16
529,8873.0,-1.6,3.1,4.4,1.6,-5.0,-0.1,138.10000000000002,107.9,0.4,16
530,8884.0,-1.7000000000000002,3.2,4.1000000000000005,1.5,-4.800000000000001,0.0,135.20000000000002,101.7,-1.6,16
531,8900.0,-2.1,4.4,3.7,1.3,-4.0,0.0,118.40000000000002,85.0,-4.9,16
532,8917.0,-2.4000000000000004,5.300000000000001,3.2,1.1,-3.2,0.0,96.80000000000001,71.8,-5.500000000000001,16
533,8943.0,-2.7,5.7,2.9000000000000004,0.9,-3.0,0.1,80.50000000000001,60.1,-3.4,16
534,8952.0,-2.7,5.300000000000001,2.9000000000000004,0.9,-3.4000000000000004,0.2,74.4,53.8,-1.8000000000000003,16
535,8968.0,-2.8000000000000003,5.300000000000001,2.7,1.0,-4.0,0.30000000000000004,68.5,47.80000000000001,-1.0,16
536,8984.0,-2.5,2.6,2.8000000000000003,1.2000000000000002,-6.2,0.5,54.1,40.0,-6.2,16
537,9001.0,-2.5,0.9,2.5,1.4000000000000001,-8.700000000000001,0.5,41.0,46.1,-18.900000000000002,16
538,9018.0,-2.4000000000000004,-3.4000000000000004,2.2,1.5,-12.200000000000001,0.30000000000000004,36.0,72.9,-30.5,16
539,9034.0,-2.4000000000000004,-5.9,2.0,1.6,-14.700000000000001,0.2,40.7,93.49999999999999,-32.9,16
540,9051.0,-2.8000000000000003,-9.200000000000001,1.9000000000000001,1.3,-18.0,0.4,68.5,133.10000000000002,-26.9,16
541,9067.0,-2.9000000000000004,-9.200000000000001,1.7000000000000002,0.0,-17.6,0.30000000000000004,95.0,132.3,-8.700000000000001,16
542,9084.0,-4.7,-7.5,0.9,-0.4,-16.3,0.1,93.2,103.49999999999999,1.0,16
543,9101.0,-5.1000000000000005,-4.7,-2.2,-0.2,-12.4,-3.9000000000000004,29.900000000000006,26.200000000000003,14.300000000000002,16
544,9119.0,-2.5,-3.4000000000000004,-2.4000000000000004,2.1,-12.4,-1.4000000000000001,-76.1,1.0,16.8,16
545,9134.0,-1.9000000000000001,-3.0,1.2000000000000002,2.4000000000000004,-11.8,0.7000000000000001,-94.0,-5.6,21.1,16
546,9151.0,-0.9,-1.9000000000000001,4.3,3.2,-10.700000000000001,3.4000000000000004,-103.3,-42.5,26.799999999999997,16
547,9168.0,0.2,-1.0,5.7,4.2,-9.9,4.5,-118.3,-100.0,26.5,16
548,9184.0,0.30000000000000004,-1.0,6.0,4.7,-9.700000000000001,4.6000000000000005,-128.1,-134.10000000000002,27.099999999999998,16
549,9201.0,2.1,-1.3,6.300000000000001,5.9,-10.100000000000001,4.1000000000000005,-144.10000000000002,-213.40000000000003,35.4,16
550,9220.0,4.1000000000000005,-2.4000000000000004,6.0,7.6000000000000005,-11.100000000000001,3.1,-141.1,-276.80000000000007,50.400000000000006,16
551,9234.0,5.7,-3.4000000000000004,5.4,8.9,-12.100000000000001,2.2,-128.4,-289.5,57.9,16
552,9250.0,7.4,-4.6000000000000005,4.7,10.100000000000001,-13.200000000000001,0.8,-84.3,-273.70000000000005,61.39999999999999,16
553,9267.0,7.4,-4.1000000000000005,4.5,8.6,-12.0,-1.3,-36.300000000000004,-180.8,29.500000000000004,16
554,9284.0,6.4,-3.5,3.1,7.0,-11.600000000000001,-2.9000000000000004,-36.300000000000004,-180.8,29.500000000000004,16
555,9300.0,5.2,-3.1,1.6,4.0,-9.1,-2.8000000000000003,-79.6,40.7,-7.6,16
556,9317.0,1.1,1.9000000000000001,4.0,3.0,-6.4,-0.9,-139.8,109.39999999999999,-15.100000000000001,16
557,9335.0,0.6000000000000001,2.7,5.0,2.6,-5.4,0.0,-160.4,92.90000000000002,-16.0,16
558,9350.0,0.30000000000000004,2.9000000000000004,5.4,2.5,-5.1000000000000005,0.2,-171.20000000000002,50.5,-15.299999999999999,16
559,9368.0,0.1,3.5,5.7,2.3000000000000003,-4.0,-0.2,-151.7,-98.60000000000001,-14.0,16
560,9384.0,0.2,3.3000000000000003,6.0,2.4000000000000004,-3.8000000000000003,-0.30000000000000004,-130.3,-125.4,-17.5,16
561,9401.0,0.6000000000000001,3.4000000000000004,6.2,2.4000000000000004,-3.6,-0.30000000000000004,-78.2,-129.20000000000002,-30.699999999999996,16
562,9417.0,0.7000000000000001,3.4000000000000004,6.5,2.3000000000000003,-3.4000000000000004,-0.2,-31.2,-95.80000000000001,-44.7,16
563,9440.0,0.4,3.5,6.800000000000001,2.0,-3.4000000000000004,-0.1,1.8000000000000003,-53.50000000000001,-52.300000000000004,16
564,9459.0,0.0,2.8000000000000003,7.2,1.4000000000000001,-4.4,0.4,22.000000000000004,-15.8,-52.900000000000006,16
565,9467.0,0.0,2.8000000000000003,7.2,1.4000000000000001,-4.4,0.4,22.000000000000004,-15.8,-52.900000000000006,16
566,9484.0,-0.5,0.9,7.4,1.2000000000000002,-6.0,0.6000000000000001,35.699999999999996,14.900000000000002,-54.199999999999996,16
567,9501.0,-0.8,-1.3,7.4,1.1,-8.200000000000001,0.6000000000000001,51.1,50.0,-54.50000000000001,16
568,9521.0,-1.1,-4.1000000000000005,7.1000000000000005,1.0,-11.0,0.5,70.6,87.60000000000001,-44.10000000000001,16
569,9540.0,-1.6,-6.1000000000000005,6.1000000000000005,-1.7000000000000002,-15.600000000000001,-5.7,99.5,138.8,-21.300000000000004,16
570,9561.0,-8.200000000000001,-11.9,-13.600000000000001,-5.6000000000000005,-19.200000000000003,-19.6,17.5,-80.0,68.5,16
571,9567.0,-8.200000000000001,-11.9,-13.600000000000001,-5.6000000000000005,-19.200000000000003,-19.6,17.5,-80.0,68.5,16
572,9584.0,-5.800000000000001,-10.200000000000001,-17.2,1.8,-14.5,-19.3,32.9,-133.3,33.9,16
573,9601.0,-1.0,-5.300000000000001,-0.1,0.6000000000000001,-12.9,-0.9,-15.000000000000002,-12.299999999999999,-2.4000000000000004,16
574,9617.0,-0.8,-7.300000000000001,8.3,2.4000000000000004,-16.8,2.6,-23.5,98.2,19.5,16
575,9639.0,2.2,-12.0,9.9,4.4,-19.3,3.8000000000000003,-32.1,108.39999999999999,24.3,16
576,9651.0,3.6,-11.700000000000001,9.9,5.9,-19.1,3.8000000000000003,-22.4,100.0,20.3,16
577,9668.0,4.1000000000000005,-10.5,9.600000000000001,6.4,-17.8,3.5,-6.699999999999999,71.5,12.0,16
578,9685.0,3.8000000000000003,-5.300000000000001,8.4,6.300000000000001,-12.600000000000001,2.4000000000000004,34.300000000000004,-23.6,11.3,16
579,9702.0,2.2,-1.5,7.2,4.5,-8.9,1.2000000000000002,59.9,-80.7,28.500000000000004,16
580,9717.0,0.8,0.5,6.2,2.9000000000000004,-7.0,0.4,64.0,-65.89999999999999,28.500000000000004,16
581,9737.0,0.1,1.0,5.800000000000001,2.0,-6.7,0.1,55.5,2.5,11.000000000000002,16
582,9751.0,-0.2,0.9,5.800000000000001,1.7000000000000002,-6.9,0.1,48.800000000000004,42.1,-1.3,16
583,9768.0,-0.2,1.0,5.7,1.6,-7.0,0.30000000000000004,43.00000000000001,76.89999999999999,-11.8,16
584,9784.0,-0.4,0.8,5.800000000000001,1.8,-7.1000000000000005,0.5,39.1,111.4,-15.299999999999999,16
585,9802.0,-0.4,1.6,5.6000000000000005,2.0,-6.4,0.5,45.7,104.3,-5.0,16
586,9820.0,-0.4,2.2,5.300000000000001,2.3000000000000003,-5.5,0.30000000000000004,60.6,77.00000000000001,7.699999999999999,16
587,9846.0,-0.2,3.6,4.9,2.5,-4.7,0.30000000000000004,80.0,35.8,18.6,16
588,9851.0,-0.2,3.6,4.9,2.5,-4.7,0.30000000000000004,80.0,35.8,18.6,16
589,9867.0,-0.30000000000000004,3.8000000000000003,4.800000000000001,2.3000000000000003,-4.4,0.30000000000000004,82.50000000000001,23.0,18.5,16
590,9884.0,-0.30000000000000004,4.2,4.4,2.3000000000000003,-4.3,0.2,83.00000000000001,1.8000000000000003,13.3,16
591,9900.0,-0.5,4.4,4.0,2.1,-4.2,0.1,78.60000000000001,-4.2,-2.0,16
592,9917.0,-0.5,3.7,3.9000000000000004,2.1,-5.0,0.2,68.80000000000001,6.4,-25.0,16
593,9934.0,-0.30000000000000004,2.3000000000000003,4.0,2.3000000000000003,-6.4,0.4,60.00000000000001,16.4,-37.9,16
594,9950.0,-0.1,-0.4,3.8000000000000003,2.7,-9.1,0.4,39.0,42.2,-66.0,16
595,9967.0,-0.1,-1.5,3.7,2.9000000000000004,-12.3,0.0,25.1,87.40000000000002,-91.10000000000001,16
596,9984.0,-0.4,-3.6,3.2,2.9000000000000004,-14.0,-0.2,24.1,125.7,-100.30000000000001,16
597,10001.0,-2.0,-8.1,2.1,1.8,-16.7,-0.8,41.300000000000004,231.20000000000002,-101.10000000000001,16
598,10017.0,-3.7,-8.4,1.5,-0.1,-16.3,-1.1,82.3,316.90000000000003,-72.0,16
599,10037.0,-5.4,-8.1,1.1,-1.3,-16.400000000000002,-0.6000000000000001,128.4,315.09999999999997,-31.5,16
600,10050.0,-6.6000000000000005,-7.800000000000001,0.8,-1.8,-16.2,-0.4,137.5,275.7,-12.8,16
601,10067.0,-6.7,-7.7,0.30000000000000004,-2.0,-16.0,-0.5,122.50000000000001,206.5,4.800000000000001,16
602,10084.0,-7.6000000000000005,-6.1000000000000005,-2.2,-1.8,-14.3,-1.8,-30.4,-42.2,39.8,16
603,10102.0,-3.0,-3.6,1.3,1.7000000000000002,-12.100000000000001,0.8,-144.10000000000002,-173.20000000000002,32.2,16
604,10121.0,-1.7000000000000002,-1.6,3.3000000000000003,2.9000000000000004,-10.200000000000001,2.0,-167.0,-161.20000000000002,17.6,16
605,10136.0,-0.6000000000000001,-1.4000000000000001,3.9000000000000004,3.9000000000000004,-9.9,2.2,-165.8,-145.20000000000002,16.5,16
606,10151.0,1.5,-2.2,4.6000000000000005,5.9,-10.600000000000001,2.2,-148.60000000000002,-131.2,27.700000000000003,16
607,10168.0,3.6,-4.4,5.4,7.800000000000001,-12.8,2.5,-128.20000000000002,-123.8,47.900000000000006,16
608,10184.0,3.8000000000000003,-4.5,5.7,8.1,-13.200000000000001,2.6,-114.40000000000002,-119.39999999999999,60.6,16
609,10201.0,5.0,-4.4,6.7,8.700000000000001,-12.700000000000001,3.0,-88.8,-140.9,70.5,16
610,10217.0,4.6000000000000005,-1.9000000000000001,6.7,7.9,-10.100000000000001,2.6,-60.900000000000006,-199.5,65.0,16
611,10247.0,3.8000000000000003,0.6000000000000001,5.4,6.6000000000000005,-7.6000000000000005,0.8,-33.9,-218.50000000000003,54.800000000000004,16
612,10252.0,3.3000000000000003,1.2000000000000002,4.2,5.800000000000001,-7.0,-0.5,-25.8,-191.60000000000002,46.4,16
613,10268.0,2.2,2.2,3.3000000000000003,4.3,-6.1000000000000005,-1.6,-40.7,-75.7,23.0,16
614,10284.0,1.8,2.9000000000000004,3.5,3.8000000000000003,-5.300000000000001,-1.5,-59.40000000000001,-20.2,14.100000000000001,16
615,10300.0,1.0,4.1000000000000005,4.3,3.0,-4.0,-0.8,-97.10000000000001,41.50000000000001,6.4,16
616,10317.0,0.7000000000000001,4.9,5.0,2.7,-3.1,-0.30000000000000004,-111.50000000000001,49.0,5.0,16
617,10334.0,0.5,5.4,5.800000000000001,2.6,-2.4000000000000004,0.2,-126.60000000000002,27.099999999999998,1.4,16
618,10350.0,0.4,5.6000000000000005,6.4,2.6,-2.0,0.5,-123.5,-19.400000000000002,-5.2,16
619,10367.0,0.6000000000000001,5.300000000000001,6.6000000000000005,2.7,-2.0,0.4,-107.8,-57.800000000000004,-15.899999999999999,16
620,10384.0,0.8,5.0,6.7,2.8000000000000003,-2.1,0.30000000000000004,-98.3,-66.9,-22.700000000000003,16
621,10402.0,1.2000000000000002,3.8000000000000003,6.800000000000001,3.1,-3.2,0.1,-77.3,-59.20000000000001,-36.9,16
622,10417.0,1.3,2.8000000000000003,7.0,3.1,-4.6000000000000005,0.1,-49.199999999999996,-29.300000000000004,-50.0,16
623,10434.0,1.1,0.8,7.0,3.0,-5.9,0.1,-30.4,-8.4,-55.2,16
624,10451.0,0.8,-1.3,7.0,2.9000000000000004,-7.9,0.0,15.299999999999999,42.400000000000006,-61.8,16
625,10468.0,0.0,-4.1000000000000005,6.800000000000001,2.4000000000000004,-10.700000000000001,-0.1,68.9,106.9,-64.50000000000001,16
626,10484.0,-0.5,-5.7,6.6000000000000005,2.1,-12.3,-0.1,96.30000000000001,144.70000000000002,-63.599999999999994,16
627,10501.0,-2.0,-10.100000000000001,6.2,1.0,-16.900000000000002,-0.1,148.70000000000002,229.40000000000003,-45.400000000000006,16
628,10518.0,-6.7,-13.8,-4.5,-9.9,-25.0,-20.8,76.5,75.00000000000001,49.9,16
629,10542.0,-6.4,-12.9,-24.400000000000002,-0.2,-16.8,-26.8,-16.200000000000003,-216.3,100.5,16
630,10551.0,-0.5,-3.9000000000000004,-9.0,2.5,-11.200000000000001,-14.8,0.4,-101.0,33.400000000000006,16
631,10567.0,-2.0,-4.5,2.9000000000000004,0.8,-11.9,-3.0,-54.300000000000004,21.400000000000002,-4.0,16
632,10584.0,-2.1,-4.6000000000000005,2.9000000000000004,1.7000000000000002,-14.600000000000001,-0.9,-79.5,-4.1,6.600000000000001,16
633,10605.0,-0.2,-6.7,8.0,2.5,-13.8,1.8,-112.1,-90.70000000000002,19.1,16
634,10620.0,1.6,-5.800000000000001,8.8,4.1000000000000005,-12.600000000000001,2.3000000000000003,-79.1,-39.2,14.900000000000002,16
635,10635.0,1.8,-4.7,8.9,4.3,-11.5,2.2,-53.10000000000001,-21.200000000000003,11.8,16
636,10651.0,1.6,-3.5,8.9,4.0,-10.100000000000001,2.2,-14.200000000000001,-42.800000000000004,16.1,16
637,10668.0,1.6,-3.4000000000000004,8.700000000000001,3.9000000000000004,-10.100000000000001,1.9000000000000001,-6.2,-63.4,21.500000000000004,16
638,10685.0,1.3,-4.1000000000000005,7.800000000000001,3.4000000000000004,-10.8,0.9,-13.3,-61.300000000000004,26.400000000000006,16
639,10701.0,1.3,-4.9,7.6000000000000005,3.1,-12.200000000000001,0.7000000000000001,-29.300000000000004,1.6,12.0,16
640,10717.0,1.2000000000000002,-6.2,8.200000000000001,3.2,-12.8,1.2000000000000002,-33.800000000000004,52.900000000000006,-5.6,16
641,10734.0,0.9,-5.1000000000000005,8.3,3.0,-11.700000000000001,1.3,-26.700000000000003,54.800000000000004,-7.200000000000001,16
642,10750.0,0.4,-2.5,7.5,2.5,-9.0,0.5,4.0,32.0,0.2,16
643,10768.0,0.1,-0.2,6.7,2.3000000000000003,-6.7,-0.2,43.50000000000001,34.300000000000004,9.2,16
644,10784.0,0.1,-0.2,6.7,2.3000000000000003,-6.1000000000000005,-0.30000000000000004,64.10000000000001,46.50000000000001,13.100000000000001,16
645,10801.0,-0.1,1.9000000000000001,6.2,2.3000000000000003,-4.800000000000001,-0.5,103.49999999999999,76.1,18.5,16
646,10821.0,-0.30000000000000004,2.9000000000000004,5.800000000000001,2.2,-4.2,-0.5,136.2,104.9,17.799999999999997,16
647,10837.0,-0.5,3.3000000000000003,5.5,2.1,-4.1000000000000005,-0.2,157.9,128.1,6.8,16
648,10852.0,-0.8,3.6,5.800000000000001,2.1,-4.0,0.1,162.6,130.8,-1.1,16
649,10868.0,-1.1,4.0,5.6000000000000005,2.0,-3.9000000000000004,0.5,159.2,110.10000000000001,-12.100000000000001,16
650,10884.0,-1.2000000000000002,4.1000000000000005,5.4,2.0,-3.9000000000000004,0.6000000000000001,152.70000000000002,91.2,-14.900000000000002,16
651,10901.0,-1.3,3.5,4.800000000000001,2.0,-4.7,0.6000000000000001,134.6,51.50000000000001,-19.799999999999997,16
652,10917.0,-1.2000000000000002,2.4000000000000004,4.3,2.5,-6.6000000000000005,0.30000000000000004,114.3,25.0,-27.2,16
653,10938.0,-0.9,0.6000000000000001,3.9000000000000004,2.8000000000000003,-9.1,0.1,105.60000000000002,23.400000000000002,-32.9,16
654,10958.0,-0.8,-3.5,3.0,3.0,-12.0,-0.2,92.10000000000001,63.500000000000014,-56.9,16
655,10968.0,-0.8,-3.5,3.0,3.1,-14.0,-0.30000000000000004,92.10000000000001,63.500000000000014,-56.9,16
656,10984.0,-1.0,-6.800000000000001,2.4000000000000004,3.0,-15.3,-0.4,94.5,123.5,-67.10000000000001,16
657,11001.0,-1.9000000000000001,-10.200000000000001,1.9000000000000001,2.4000000000000004,-18.6,-0.4,111.20000000000002,193.60000000000002,-60.5,16
658,11017.0,-3.7,-11.3,1.7000000000000002,1.0,-19.8,0.1,128.8,224.2,-40.300000000000004,16
659,11036.0,-4.9,-11.600000000000001,1.2000000000000002,-0.1,-20.1,0.0,132.70000000000002,215.0,-30.000000000000004,16
660,11050.0,-8.0,-8.200000000000001,-10.9,-3.0,-16.6,-11.4,40.9,144.8,-0.30000000000000004,16
661,11067.0,-5.9,-4.9,-5.9,-1.0,-13.4,-6.2,-120.50000000000001,60.6,5.4,16
662,11084.0,-4.0,-3.5,-2.5,0.9,-11.9,-2.9000000000000004,-154.40000000000003,-4.300000000000001,-6.300000000000001,16
663,11103.0,-2.3000000000000003,-1.6,2.9000000000000004,2.7,-10.0,2.0,-149.70000000000002,-96.0,-12.7,16
664,11117.0,-1.3,-1.2000000000000002,3.9000000000000004,4.1000000000000005,-9.3,2.9000000000000004,-135.6,-130.1,-9.100000000000001,16
665,11143.0,0.30000000000000004,-1.0,5.5,5.1000000000000005,-9.3,3.4000000000000004,-120.4,-181.70000000000002,21.400000000000002,16
666,11151.0,1.1,-1.5,6.0,5.800000000000001,-9.8,3.5,-126.0,-190.8,34.1,16
667,11167.0,2.7,-2.8000000000000003,6.7,7.1000000000000005,-10.9,3.5,-132.3,-214.39999999999998,50.2,16
668,11185.0,3.6,-3.4000000000000004,6.9,7.800000000000001,-11.5,3.4000000000000004,-129.10000000000002,-226.00000000000003,53.300000000000004,16
669,11201.0,4.9,-3.2,7.0,8.700000000000001,-11.200000000000001,2.8000000000000003,-108.2,-257.3,51.0,16
670,11220.0,4.0,-0.6000000000000001,5.9,7.2,-8.5,1.1,-73.8,-257.8,37.0,16
671,11237.0,3.0,1.1,5.5,5.9,-6.9,0.5,-58.1,-221.2,27.3,16
672,11250.0,2.4000000000000004,1.9000000000000001,5.6000000000000005,5.1000000000000005,-5.9,0.4,-46.9,-173.5,17.799999999999997,16
673,11269.0,1.7000000000000002,2.8000000000000003,5.800000000000001,3.7,-4.7,0.4,-43.2,-72.30000000000001,4.2,16
674,11284.0,0.4,3.2,6.2,2.7,-4.5,0.6000000000000001,-57.00000000000001,16.6,-4.1,16
675,11300.0,-0.30000000000000004,3.4000000000000004,6.300000000000001,2.0,-4.2,0.5,-71.9,69.7,-8.0,16
676,11320.0,-0.8,3.9000000000000004,6.4,1.7000000000000002,-3.6,0.6000000000000001,-78.0,88.50000000000001,-11.8,16
677,11348.0,-1.3,4.1000000000000005,6.4,1.5,-3.2,0.4,-69.20000000000002,73.10000000000001,-19.300000000000004,16
678,11352.0,-1.5,4.1000000000000005,6.4,1.3,-3.1,0.30000000000000004,-69.20000000000002,73.10000000000001,-19.300000000000004,16
679,11369.0,-2.0,3.3000000000000003,6.300000000000001,1.1,-3.7,0.2,-55.1,57.3,-25.1,16
680,11385.0,-2.0,2.8000000000000003,6.300000000000001,1.1,-4.1000000000000005,0.1,-46.1,53.599999999999994,-29.300000000000004,16
681,11401.0,-2.2,0.7000000000000001,6.2,1.1,-6.1000000000000005,-0.1,-24.1,57.699999999999996,-40.300000000000004,16
682,11417.0,-2.4000000000000004,-2.0,6.0,1.1,-8.8,-0.2,9.2,79.5,-52.1,16
683,11434.0,-2.6,-4.0,5.800000000000001,1.1,-10.700000000000001,-0.4,29.700000000000006,93.7,-52.5,16
684,11458.0,-4.0,-15.600000000000001,-10.8,0.2,-22.400000000000002,-16.5,6.4,37.9,13.900000000000002,16
685,11469.0,-4.0,-15.600000000000001,-10.8,0.2,-22.400000000000002,-16.5,6.4,37.9,13.900000000000002,16
686,11484.0,-0.2,-9.1,-18.3,3.8000000000000003,-15.8,-24.1,-101.4,-148.3,58.900000000000006,16
687,11501.0,0.6000000000000001,-0.4,-5.800000000000001,4.3,-7.0,-12.0,-15.6,-33.0,5.500000000000001,16
688,11517.0,-1.8,-5.300000000000001,5.2,1.9000000000000001,-11.9,-1.1,-16.6,-53.0,-21.7,16
689,11536.0,-1.1,-9.8,10.0,2.5,-16.3,3.7,-26.799999999999997,-55.400000000000006,-28.900000000000002,16
690,11551.0,2.1,-12.8,10.8,5.7,-19.3,4.3,-34.1,5.4,-38.2,16
691,11567.0,2.1,-12.9,10.8,5.7,-12.3,3.5,-36.9,21.6,-36.5,16
692,11584.0,1.7000000000000002,-4.5,9.9,5.5,-10.700000000000001,3.3000000000000003,-26.5,7.1000000000000005,-32.5,16
693,11603.0,1.5,-2.3000000000000003,9.3,5.300000000000001,-8.5,2.7,-5.9,-63.500000000000014,-21.6,16
694,11619.0,1.8,-3.2,8.4,5.4,-9.3,1.7000000000000002,2.4000000000000004,-122.60000000000001,-13.900000000000002,16
695,11641.0,2.2,-4.6000000000000005,7.4,5.6000000000000005,-10.700000000000001,0.6000000000000001,5.6,-96.80000000000001,-22.000000000000004,16
696,11652.0,1.9000000000000001,-5.0,7.1000000000000005,5.2,-11.100000000000001,0.2,7.200000000000001,-52.2,-29.700000000000006,16
697,11672.0,0.8,-4.5,7.300000000000001,4.1000000000000005,-10.600000000000001,0.4,11.8,46.7,-50.900000000000006,16
698,11684.0,0.4,-4.1000000000000005,7.4,3.8000000000000003,-10.200000000000001,0.6000000000000001,16.8,81.0,-59.80000000000001,16
699,11701.0,-0.5,-3.0,7.4,3.3000000000000003,-9.0,0.6000000000000001,37.7,107.00000000000001,-59.699999999999996,16
700,11718.0,-1.0,-2.0,7.1000000000000005,2.9000000000000004,-8.1,0.5,51.300000000000004,108.2,-54.800000000000004,16
701,11736.0,-2.1,0.1,6.2,2.0,-5.4,-0.2,77.7,114.50000000000001,-42.7,16
702,11753.0,-3.1,1.7000000000000002,5.6000000000000005,1.6,-4.5,-0.4,95.60000000000002,134.70000000000002,-34.300000000000004,16
703,11767.0,-3.4000000000000004,2.1,5.300000000000001,1.2000000000000002,-3.8000000000000003,-0.6000000000000001,101.80000000000001,146.3,-32.300000000000004,16
704,11784.0,-4.1000000000000005,2.8000000000000003,4.5,1.1,-3.6,-0.8,111.50000000000001,171.70000000000002,-32.6,16
705,11800.0,-4.7,2.9000000000000004,3.7,0.9,-4.1000000000000005,-1.0,121.10000000000001,201.50000000000003,-37.50000000000001,16
706,11817.0,-4.9,1.1,2.9000000000000004,1.1,-5.6000000000000005,-1.1,128.60000000000002,229.70000000000002,-43.50000000000001,16
707,11834.0,-4.9,-0.1,2.6,1.3,-6.800000000000001,-0.9,127.3,239.7,-46.4,16
708,11850.0,-5.1000000000000005,-2.9000000000000004,2.4000000000000004,1.5,-9.700000000000001,-0.30000000000000004,114.50000000000001,248.5,-52.2,16
709,11867.0,-5.2,-4.0,2.2,1.6,-10.8,-0.1,105.20000000000002,239.5,-51.9,16
710,11884.0,-5.0,-7.0,1.8,2.0,-13.700000000000001,0.30000000000000004,87.7,193.4,-40.6,16
711,11901.0,-4.9,-8.3,1.0,2.3000000000000003,-15.8,-0.1,81.3,139.70000000000002,-22.2,16
712,11917.0,-1.1,-13.4,-18.3,6.1000000000000005,-20.0,-18.7,-28.3,-25.7,-19.200000000000003,16
713,11934.0,-3.9000000000000004,-10.4,-16.1,3.4000000000000004,-17.0,-16.5,-137.70000000000002,-102.7,-14.900000000000002,16
714,11952.0,-7.4,-6.5,-1.1,-0.2,-13.0,-2.1,-164.89999999999998,-37.2,4.300000000000001,16
715,11967.0,-7.300000000000001,-6.300000000000001,2.9000000000000004,-0.1,-12.8,1.7000000000000002,-152.4,-11.700000000000001,4.7,16
716,11984.0,-5.4,-4.4,5.2,1.8,-10.9,3.6,-111.4,30.599999999999998,-1.6,16
717,12000.0,-5.1000000000000005,-2.0,4.7,2.3000000000000003,-7.6000000000000005,2.8000000000000003,-114.6,-39.8,5.8,16
718,12024.0,-4.4,-0.5,5.0,2.8000000000000003,-6.9,3.0,-120.80000000000001,-74.4,11.8,16
719,12035.0,-4.4,-0.5,5.0,2.8000000000000003,-6.9,3.0,-120.80000000000001,-74.4,11.8,16
720,12055.0,0.4,-4.800000000000001,4.0,7.300000000000001,-11.0,0.9,-147.4,-219.7,42.900000000000006,16
721,12067.0,4.3,-7.0,-0.4,10.700000000000001,-13.100000000000001,-4.4,-206.5,-218.60000000000002,49.199999999999996,16
722,12084.0,4.9,-5.9,0.2,11.100000000000001,-12.0,-4.3,-243.0,-167.1,51.300000000000004,16
723,12100.0,5.0,-5.1000000000000005,2.8000000000000003,10.5,-10.3,-1.6,-240.7,-80.0,67.4,16
724,12117.0,3.5,-3.7,5.7,9.3,-9.200000000000001,0.0,-211.20000000000005,-60.8,62.1,16
725,12134.0,2.5,-3.1,6.800000000000001,8.0,-8.4,0.6000000000000001,-132.8,-63.30000000000001,28.600000000000005,16
726,12151.0,1.5,-3.3000000000000003,6.800000000000001,6.800000000000001,-8.4,0.4,-65.6,-62.800000000000004,4.5,16
727,12167.0,0.7000000000000001,-3.3000000000000003,7.0,6.0,-8.3,0.30000000000000004,-37.800000000000004,-27.5,-6.300000000000001,16
728,12184.0,0.4,-3.2,6.9,5.6000000000000005,-8.1,0.2,-34.50000000000001,-6.0,-10.9,16
729,12203.0,-0.1,-3.0,6.7,4.9,-7.4,-0.30000000000000004,-32.6,30.200000000000003,-18.0,16
730,12218.0,-1.4000000000000001,-2.2,5.2,4.0,-6.9,-1.5,-9.8,41.199999999999996,-21.0,16
731,12235.0,-2.7,-2.3000000000000003,3.6,2.7,-6.9,-3.1,10.700000000000001,36.0,-22.700000000000003,16
732,12250.0,-4.800000000000001,-2.3000000000000003,0.9,0.7000000000000001,-7.0,-5.7,61.199999999999996,13.100000000000001,-32.1,16
733,12267.0,-6.4,-2.2,-1.0,-0.7000000000000001,-7.0,-7.5,104.50000000000001,-40.5,-50.400000000000006,16
734,12284.0,-6.4,-2.3000000000000003,-0.1,-0.8,-7.2,-6.6000000000000005,112.20000000000002,-75.9,-51.70000000000001,16
735,12301.0,-6.0,-2.1,2.8000000000000003,-0.6000000000000001,-7.1000000000000005,-3.6,92.7,-138.9,-25.900000000000002,16
736,12317.0,-5.4,-2.0,6.300000000000001,-0.2,-7.1000000000000005,-0.2,53.50000000000001,-83.30000000000001,6.8,16
737,12334.0,-5.5,-1.2000000000000002,7.800000000000001,-0.4,-6.4,1.3,36.8,6.1000000000000005,18.5,16
738,12350.0,-7.4,-0.1,7.2,-2.2,-5.4,0.8,15.6,136.3,35.3,16
739,12367.0,-5.5,-2.8000000000000003,6.800000000000001,-0.1,-8.200000000000001,0.7000000000000001,-3.5,71.30000000000001,67.60000000000001,16
740,12384.0,0.5,-6.7,2.0,5.9,-12.100000000000001,-4.1000000000000005,-23.0,71.5,68.3,16
741,12400.0,1.5,-6.800000000000001,-1.2000000000000002,-1.3,-12.200000000000001,-4.4,-125.4,-90.70000000000002,44.9,16
742,12423.0,-1.6,-12.200000000000001,8.4,3.4000000000000004,-17.5,1.8,-142.10000000000002,124.7,42.7,16
743,12438.0,-1.8,-14.700000000000001,9.700000000000001,3.3000000000000003,-20.3,3.2,-142.79999999999998,211.29999999999998,20.400000000000002,16
744,12450.0,-2.4000000000000004,-15.5,9.1,3.2,-20.400000000000002,2.6,-130.0,206.6,17.5,16
745,12469.0,-2.6,-15.0,8.3,3.1,-19.700000000000003,1.9000000000000001,-109.8,192.9,20.8,16
746,12488.0,-1.7000000000000002,-10.0,5.6000000000000005,4.6000000000000005,-14.600000000000001,-0.4,-11.000000000000002,204.9,22.5,16
747,12500.0,-1.9000000000000001,-10.0,5.4,5.0,-13.3,-0.5,35.699999999999996,218.79999999999998,19.200000000000003,16
748,12517.0,-1.0,-7.6000000000000005,4.7,5.9,-12.3,-0.5,132.1,230.89999999999998,19.1,16
749,12534.0,-0.9,-7.1000000000000005,4.3,6.2,-12.0,-0.4,174.6,235.8,20.1,16
750,12550.0,-1.5,-5.800000000000001,4.3,5.9,-11.0,0.5,227.0,238.2,19.700000000000003,16
751,12567.0,-1.9000000000000001,-5.0,4.1000000000000005,5.6000000000000005,-10.4,0.8,231.3,222.20000000000005,22.1,16
752,12584.0,-3.1,-2.7,2.8000000000000003,4.6000000000000005,-8.3,0.5,211.20000000000005,162.8,30.599999999999998,16
753,12600.0,-4.0,-1.3,1.6,3.2,-6.4,-0.30000000000000004,177.3,116.4,20.400000000000002,16
754,12617.0,-5.300000000000001,1.0,0.5,1.4000000000000001,-3.9000000000000004,-3.3000000000000003,146.60000000000002,112.9,-12.0,16
755,12634.0,-9.600000000000001,3.3000000000000003,-25.200000000000003,-1.9000000000000001,-2.6,-25.8,62.1,224.0,-19.6,16
756,12651.0,-10.200000000000001,5.4,-3.9000000000000004,-2.4000000000000004,-0.5,-3.7,-325.8,510.2,-59.00000000000001,16
757,12670.0,-10.3,4.2,-0.7000000000000001,-0.2,-2.2,0.5,-316.7,369.0,-72.10000000000001,16
758,12684.0,-8.1,3.6,-0.4,0.6000000000000001,-2.7,-0.4,-171.90000000000003,14.800000000000002,-36.2,16
759,12700.0,-5.7,-0.5,-3.7,2.3000000000000003,-6.2,-3.2,-130.70000000000002,-71.0,-18.1,16
760,12717.0,-4.5,-4.2,-4.800000000000001,4.6000000000000005,-12.5,-4.9,-207.90000000000003,-42.5,-30.9,16
761,12734.0,-1.6,-9.200000000000001,-2.9000000000000004,6.5,-14.9,-3.1,-270.7,-49.800000000000004,-43.50000000000001,16
762,12750.0,3.9000000000000004,-13.100000000000001,1.7000000000000002,12.0,-18.6,0.6000000000000001,-361.90000000000003,-276.59999999999997,-31.5,16
763,12767.0,8.9,-15.0,-1.0,16.8,-20.1,-3.7,-352.3,-495.2,46.50000000000001,16
764,12784.0,9.600000000000001,-15.100000000000001,-0.5,17.2,-20.1,-4.2,-280.8,-465.40000000000003,64.50000000000001,16
765,12801.0,5.7,-8.700000000000001,3.8000000000000003,12.5,-13.4,-1.4000000000000001,-97.3,-266.3,2.8,16
766,12820.0,1.2000000000000002,-3.2,6.1000000000000005,7.6000000000000005,-7.800000000000001,0.30000000000000004,12.5,-181.60000000000002,-43.00000000000001,16
767,12838.0,0.5,-2.7,6.2,6.4,-7.4,0.0,48.0,-119.49999999999999,-49.50000000000001,16
768,12851.0,0.30000000000000004,-3.2,6.1000000000000005,6.300000000000001,-7.800000000000001,-0.1,42.900000000000006,-76.7,-53.10000000000001,16
769,12874.0,-1.3,-3.2,6.2,4.6000000000000005,-7.7,-0.1,11.900000000000002,2.0,-64.10000000000001,16
770,12884.0,-2.1,-2.4000000000000004,6.1000000000000005,3.9000000000000004,-6.9,-0.2,-15.899999999999999,52.1,-71.10000000000001,16
771,12901.0,-3.6,-1.8,5.9,2.0,-5.7,-0.2,-57.699999999999996,141.3,-85.30000000000001,16
772,12919.0,-5.7,-1.3,5.800000000000001,0.5,-5.0,0.0,-49.9,195.89999999999998,-85.60000000000001,16
773,12934.0,-7.4,-1.2000000000000002,6.0,-0.4,-5.0,0.30000000000000004,-29.400000000000002,205.6,-80.30000000000001,16
774,12950.0,-9.0,-1.5,5.800000000000001,-1.6,-5.1000000000000005,0.6000000000000001,22.6,191.30000000000004,-56.7,16
775,12967.0,-9.600000000000001,-1.4000000000000001,5.4,-1.9000000000000001,-5.0,0.4,51.4,170.70000000000002,-41.199999999999996,16
776,12984.0,-10.4,-1.9000000000000001,4.3,-2.7,-5.6000000000000005,-0.30000000000000004,103.89999999999999,138.9,-9.3,16
777,13001.0,-11.3,-1.6,3.7,-3.1,-5.300000000000001,-0.2,132.2,126.10000000000001,23.5,16
778,13018.0,-11.5,-1.6,3.3000000000000003,-3.2,-5.5,-0.1,126.89999999999999,131.79999999999998,57.400000000000006,16
779,13034.0,-11.4,-2.3000000000000003,3.2,-2.2,-8.700000000000001,0.4,111.30000000000001,139.4,69.9,16
780,13051.0,-9.9,-6.1000000000000005,3.1,-0.2,-14.600000000000001,0.9,68.60000000000001,162.10000000000002,81.60000000000001,16
781,13068.0,-5.5,-17.8,4.1000000000000005,2.8000000000000003,-22.5,2.2,27.400000000000002,185.20000000000002,49.300000000000004,16
782,13087.0,-2.0,-22.1,4.3,6.4,-26.900000000000002,3.0,23.3,139.1,-29.0,16
783,13103.0,0.8,-20.3,3.1,9.200000000000001,-25.1,1.9000000000000001,28.800000000000004,96.80000000000001,-76.5,16
784,13117.0,3.3000000000000003,-13.700000000000001,-0.7000000000000001,11.9,-18.2,-1.6,30.5,-36.1,-104.7,16
785,13134.0,0.4,-11.600000000000001,0.4,9.200000000000001,-15.9,-0.5,27.800000000000004,-68.0,-70.2,16
786,13150.0,-2.8000000000000003,-7.9,1.4000000000000001,6.0,-12.100000000000001,0.30000000000000004,61.199999999999996,11.4,16.200000000000003,16
787,13168.0,-3.2,-6.6000000000000005,1.4000000000000001,5.6000000000000005,-10.9,0.5,80.7,78.60000000000001,29.500000000000004,16
788,13187.0,-4.0,-4.0,0.7000000000000001,4.7,-8.4,0.2,98.8,154.6,24.8,16
789,13212.0,-4.1000000000000005,-0.5,-5.1000000000000005,4.6000000000000005,-4.9,-4.7,43.6,93.49999999999999,5.9,16
790,13217.0,-4.4,0.30000000000000004,-7.5,4.3,-4.2,-6.9,9.100000000000001,66.0,2.4000000000000004,16
791,13234.0,-5.0,1.0,-10.200000000000001,3.7,-3.5,-9.5,-26.6,50.8,-3.9,16
792,13250.0,-6.7,1.2000000000000002,-9.4,2.0,-3.2,-8.700000000000001,-89.2,66.5,-28.200000000000003,16
793,13271.0,-8.0,1.1,-4.0,0.7000000000000001,-3.3000000000000003,-3.2,-96.0,106.60000000000001,-43.900000000000006,16
794,13285.0,-8.3,1.3,-2.9000000000000004,0.5,-3.0,-2.0,-89.10000000000001,102.8,-40.4,16
795,13300.0,-8.5,1.8,-1.3,0.30000000000000004,-2.4000000000000004,-0.30000000000000004,-88.50000000000001,69.9,-26.300000000000004,16
796,13317.0,-7.800000000000001,0.6000000000000001,-1.2000000000000002,0.9,-3.6,-0.1,-108.2,23.3,-1.5,16
797,13334.0,-7.6000000000000005,-0.4,-1.4000000000000001,1.2000000000000002,-4.6000000000000005,-0.4,-127.19999999999999,1.0,10.0,16
798,13350.0,-5.9,-4.1000000000000005,-1.9000000000000001,2.9000000000000004,-8.4,-1.1,-185.5,-65.8,41.6,16
799,13367.0,-2.1,-8.4,1.5,6.6000000000000005,-12.9,1.7000000000000002,-265.40000000000003,-183.2,81.4,16
800,13384.0,0.5,-12.0,4.1000000000000005,9.1,-16.7,3.8000000000000003,-287.8,-249.5,93.00000000000001,16
801,13400.0,9.200000000000001,-20.6,2.9000000000000004,17.6,-25.400000000000002,1.3,-253.7,-438.40000000000003,74.0,16
802,13419.0,9.8,-16.8,0.5,17.7,-21.6,-2.7,-88.8,-300.4,15.6,16
803,13434.0,4.6000000000000005,-10.5,2.6,12.3,-15.3,-1.1,0.4,-172.70000000000002,-19.5,16
804,13450.0,-0.2,-5.0,3.8000000000000003,7.300000000000001,-9.8,-0.2,77.9,-29.0,-30.000000000000004,16
805,13467.0,-2.8000000000000003,-3.6,3.7,4.800000000000001,-8.5,-0.30000000000000004,73.6,19.799999999999997,-1.5,16
806,13485.0,-2.8000000000000003,-3.6,3.6,4.3,-8.5,-0.6000000000000001,60.400000000000006,30.200000000000003,2.5,16
807,13501.0,-4.6000000000000005,-3.4000000000000004,1.4000000000000001,3.1,-8.3,-2.2,33.7,34.1,-18.1,16
808,13517.0,-6.1000000000000005,-1.6,1.2000000000000002,1.7000000000000002,-6.5,-2.3000000000000003,36.2,25.300000000000004,-55.7,16
809,13534.0,-6.7,-0.4,2.0,1.1,-5.2,-1.5,45.2,39.699999999999996,-75.9,16
810,13550.0,-7.7,0.7000000000000001,2.7,0.30000000000000004,-4.0,-0.6000000000000001,52.80000000000001,107.6,-91.6,16
811,13567.0,-8.1,0.9,2.7,0.0,-3.7,-0.30000000000000004,51.6,144.4,-85.60000000000001,16
812,13584.0,-9.0,1.1,2.3000000000000003,-1.1,-2.9000000000000004,0.0,49.6,189.8,-60.400000000000006,16
813,13601.0,-10.700000000000001,2.0,1.7000000000000002,-2.1,-2.3000000000000003,-0.1,58.1,195.4,-34.0,16
814,13617.0,-11.0,1.9000000000000001,1.0,-2.4000000000000004,-2.5,-0.1,61.599999999999994,196.3,-6.699999999999999,16
815,13634.0,-11.3,1.6,0.9,-2.5,-2.7,0.1,52.2,196.79999999999998,8.4,16
816,13653.0,-10.200000000000001,0.30000000000000004,-0.5,-1.4000000000000001,-4.0,-0.6000000000000001,9.4,185.4,36.0,16
817,13670.0,-10.200000000000001,0.30000000000000004,-0.8,0.2,-5.1000000000000005,-1.2000000000000002,-16.3,151.4,46.7,16
818,13684.0,-8.200000000000001,-4.800000000000001,-1.4000000000000001,0.5,-9.3,-0.9,-79.19999999999999,64.9,59.40000000000001,16
819,13700.0,-8.200000000000001,-12.200000000000001,1.8,0.4,-16.900000000000002,2.3000000000000003,-175.89999999999998,47.5,61.0,16
820,13717.0,-6.6000000000000005,-26.3,3.9000000000000004,1.9000000000000001,-31.200000000000003,4.2,-266.1,52.60000000000001,37.2,16
821,13734.0,-4.0,-31.5,4.1000000000000005,4.5,-36.4,4.2,-274.8,54.1,12.0,16
822,13750.0,1.6,-20.700000000000003,0.8,10.100000000000001,-25.700000000000003,0.7000000000000001,-198.70000000000002,80.4,-33.300000000000004,16
823,13767.0,1.6,-20.8,0.9,9.700000000000001,-19.3,0.4,-109.39999999999999,101.30000000000001,-45.9,16
824,13784.0,-2.0,-7.6000000000000005,0.7000000000000001,6.6000000000000005,-12.4,0.8,65.0,147.6,12.8,16
825,13802.0,-3.5,-5.1000000000000005,0.30000000000000004,5.0,-10.0,1.0,138.50000000000003,158.29999999999998,54.9,16
826,13817.0,-3.7,-4.4,-0.2,4.7,-9.3,0.9,139.8,150.8,55.1,16
827,13835.0,-3.7,-3.2,-1.4000000000000001,4.5,-8.200000000000001,0.4,134.9,149.9,47.7,16
828,13850.0,-4.2,-1.3,-1.9000000000000001,3.8000000000000003,-6.300000000000001,0.5,121.9,140.8,31.5,16
829,13867.0,-5.1000000000000005,1.0,-2.9000000000000004,2.8000000000000003,-4.0,0.1,97.60000000000001,133.50000000000003,17.9,16
830,13884.0,-5.4,1.7000000000000002,-3.4000000000000004,2.4000000000000004,-3.2,-0.1,84.9,135.4,13.399999999999999,16
831,13900.0,-3.6,3.8000000000000003,-13.4,4.0,-1.1,-9.600000000000001,47.5,161.8,4.1,16
832,13917.0,-5.4,5.1000000000000005,-9.600000000000001,1.9000000000000001,0.2,-5.300000000000001,-178.1,362.4,-55.5,16
833,13934.0,-6.800000000000001,5.2,-5.0,0.2,0.2,-0.4,-228.6,368.50000000000006,-73.9,16
834,13952.0,-6.800000000000001,5.1000000000000005,-3.1,-0.1,-0.1,2.0,-207.10000000000002,203.4,-64.4,16
835,13967.0,-5.9,3.2,-4.9,0.8,-6.2,-2.1,-193.1,40.1,-35.1,16
836,13984.0,-4.9,-4.800000000000001,-8.9,1.6,-10.3,-4.0,-225.20000000000002,-3.6000000000000005,-23.0,16
837,14000.0,-1.8,-8.9,-7.7,4.800000000000001,-14.8,-3.4000000000000004,-365.40000000000003,-118.60000000000001,-14.600000000000001,16
838,14018.0,1.1,-12.9,-4.5,10.4,-19.400000000000002,-1.3,-496.40000000000003,-448.90000000000003,-7.9,16
839,14043.0,10.4,-15.100000000000001,-8.5,20.6,-23.0,-11.100000000000001,-543.6,-681.5,52.60000000000001,16
840,14051.0,17.0,-18.900000000000002,-14.9,24.1,-25.700000000000003,-15.9,-450.50000000000006,-496.09999999999997,63.10000000000001,16
841,14068.0,6.4,-9.0,0.4,13.100000000000001,-15.600000000000001,-2.2,-111.30000000000001,-1.3,-8.5,16
842,14084.0,2.1,-4.1000000000000005,2.5,8.8,-10.700000000000001,-0.30000000000000004,-20.900000000000002,13.5,-19.0,16
843,14100.0,-1.1,-0.7000000000000001,3.2,5.7,-7.300000000000001,0.5,44.300000000000004,-13.200000000000003,-6.500000000000001,16
844,14117.0,-1.6,-1.0,3.1,5.2,-7.5,0.5,14.5,39.8,-4.1,16
845,14136.0,-2.2,-0.7000000000000001,2.9000000000000004,4.1000000000000005,-7.0,0.5,-50.2,119.49999999999999,-18.700000000000003,16
846,14151.0,-3.9000000000000004,0.0,3.5,3.0,-6.5,1.1,-79.9,158.29999999999998,-26.700000000000003,16
847,14168.0,-5.7,0.4,3.2,1.4000000000000001,-6.0,1.0,-97.40000000000002,191.60000000000002,-37.400000000000006,16
848,14184.0,-5.800000000000001,0.30000000000000004,3.1,0.6000000000000001,-5.6000000000000005,0.6000000000000001,-73.8,185.5,-38.2,16
849,14200.0,-8.6,1.2000000000000002,1.1,-1.1,-4.9,-0.7000000000000001,-2.2,161.6,-31.3,16
850,14217.0,-9.5,1.2000000000000002,0.0,-2.2,-4.9,-1.2000000000000002,120.4,136.1,-16.5,16
851,14241.0,-9.9,1.5,-0.4,-2.1,-4.2,-0.9,199.0,119.89999999999999,9.8,16
852,14250.0,-9.9,1.5,-0.4,-2.0,-3.8000000000000003,-0.8,219.10000000000002,115.20000000000002,24.5,16
853,14268.0,-9.5,2.6,-0.8,-1.9000000000000001,-3.5,-0.7000000000000001,233.2,110.10000000000001,38.7,16
854,14285.0,-9.200000000000001,3.5,-1.9000000000000001,-1.8,-2.8000000000000003,-0.6000000000000001,240.20000000000002,105.10000000000001,65.7,16
855,14300.0,-9.0,3.3000000000000003,-2.1,-1.7000000000000002,-3.0,-0.4,222.0,126.10000000000001,84.5,16
856,14321.0,-8.200000000000001,1.2000000000000002,-2.8000000000000003,-1.2000000000000002,-5.2,-0.30000000000000004,174.5,176.5,97.10000000000001,16
857,14335.0,-6.300000000000001,-1.7000000000000002,-3.5,0.5,-8.1,-0.5,139.3,210.7,95.5,16
858,14350.0,6.2,-13.0,-8.200000000000001,12.600000000000001,-19.5,-4.5,46.0,193.1,31.099999999999998,16
859,14367.0,6.4,-13.0,-8.5,7.0,-31.3,3.3000000000000003,-25.200000000000003,162.3,-61.0,16
860,14383.0,3.2,-26.5,1.3,9.3,-32.9,5.6000000000000005,-143.1,196.3,-148.5,16
861,14400.0,3.5,-18.900000000000002,1.6,9.700000000000001,-25.200000000000003,5.9,-146.7,57.00000000000001,-77.80000000000001,16
862,14418.0,2.3000000000000003,-16.3,-0.2,7.1000000000000005,-18.7,2.2,-52.80000000000001,44.300000000000004,48.10000000000001,16
863,14434.0,-0.6000000000000001,-7.2,-2.7,5.5,-13.700000000000001,1.3,-11.700000000000001,117.5,37.400000000000006,16
864,14450.0,-2.0,-1.8,-3.0,3.8000000000000003,-8.3,1.4000000000000001,38.50000000000001,215.1,1.4,16
865,14467.0,-2.6,1.1,-3.2,2.9000000000000004,-5.4,1.7000000000000002,57.60000000000001,207.7,-2.8,16
866,14484.0,-2.6,1.9000000000000001,-3.7,2.7,-4.5,1.5,62.0,186.10000000000002,1.6,16
867,14500.0,-2.4000000000000004,3.1,-4.800000000000001,2.6,-3.2,0.8,71.0,145.5,16.0,16
868,14517.0,-1.7000000000000002,2.8000000000000003,-6.0,2.9000000000000004,-3.4000000000000004,0.0,80.0,115.60000000000001,30.699999999999996,16
869,14533.0,-1.6,2.5,-6.5,2.9000000000000004,-3.6,-0.30000000000000004,84.0,107.00000000000001,34.2,16
870,14554.0,-0.7000000000000001,2.3000000000000003,-10.5,3.5,-3.7,-3.9000000000000004,84.5,99.8,26.000000000000004,16
871,14567.0,0.30000000000000004,2.2,-22.6,3.4000000000000004,-4.3,-14.200000000000001,4.800000000000001,60.00000000000001,3.7000000000000006,16
872,14584.0,-2.6,4.800000000000001,-14.700000000000001,1.4000000000000001,-1.3,-8.200000000000001,-303.6,6.8,-47.7,16
873,14600.0,-4.2,7.5,-8.3,-0.2,1.0,-0.7000000000000001,-260.8,69.20000000000002,-53.400000000000006,16
874,14618.0,-3.4000000000000004,6.7,-5.0,0.6000000000000001,-0.4,0.4,-177.5,1.7,-43.4,16
875,14634.0,-3.4000000000000004,6.7,-5.0,1.1,-2.4000000000000004,-1.7000000000000002,-177.5,1.7,-43.4,16
876,14651.0,-1.6,1.3,-7.5,2.7,-6.2,-2.8000000000000003,-198.20000000000002,-56.7,-30.9,16
877,14667.0,2.6,-7.1000000000000005,-8.700000000000001,7.0,-14.9,-4.7,-297.1,-118.60000000000001,-8.700000000000001,16
878,14684.0,5.2,-10.200000000000001,-7.2,9.700000000000001,-18.2,-3.7,-365.20000000000005,-183.29999999999998,10.299999999999999,16
879,14700.0,10.4,-16.5,-6.1000000000000005,19.0,-29.1,-5.800000000000001,-464.7,-379.20000000000005,62.199999999999996,16
880,14717.0,17.3,-21.5,-10.200000000000001,21.900000000000002,-30.200000000000003,-10.200000000000001,-367.7,-297.90000000000003,67.5,16
881,14734.0,9.9,-12.700000000000001,-2.3000000000000003,14.4,-21.400000000000002,-3.1,-225.3,-129.70000000000002,38.2,16
882,14750.0,1.6,-1.6,2.5,6.0,-10.200000000000001,1.0,-34.60000000000001,-64.60000000000001,4.800000000000001,16
883,14769.0,-1.0,2.4000000000000004,2.6,3.4000000000000004,-6.300000000000001,1.0,11.4,-67.60000000000001,21.8,16
884,14784.0,-1.6,3.4000000000000004,2.5,2.7,-5.300000000000001,0.9,12.5,-43.4,23.099999999999998,16
885,14800.0,-2.3000000000000003,5.300000000000001,2.0,1.9000000000000001,-3.5,0.30000000000000004,-8.5,13.399999999999999,16.1,16
886,14820.0,-2.8000000000000003,5.9,1.7000000000000002,1.1,-2.5,0.0,-30.699999999999996,67.00000000000001,-2.7,16
887,14834.0,-3.6,6.300000000000001,1.4000000000000001,0.6000000000000001,-2.4000000000000004,-0.2,-34.2,85.80000000000001,-15.000000000000002,16
888,14850.0,-4.9,5.6000000000000005,1.3,-0.6000000000000001,-3.1,-0.30000000000000004,-19.9,105.3,-31.400000000000002,16
889,14867.0,-5.0,5.6000000000000005,1.2000000000000002,-1.8,-3.9000000000000004,-0.8,1.8000000000000003,108.0,-33.6,16
890,14884.0,-6.5,4.3,0.6000000000000001,-2.0,-4.3,-0.8,68.5,119.89999999999999,-34.800000000000004,16
891,14901.0,-6.9,3.9000000000000004,0.30000000000000004,-2.4000000000000004,-4.7,-0.6000000000000001,123.1,127.9,-18.3,16
892,14917.0,-7.0,4.0,-0.2,-2.2,-4.5,-0.5,159.5,123.8,10.5,16
893,14934.0,-6.800000000000001,4.1000000000000005,-0.5,-2.1,-4.5,-0.4,170.60000000000002,118.00000000000001,27.700000000000003,16
894,14954.0,-4.800000000000001,1.4000000000000001,-2.3000000000000003,-0.2,-7.2,-1.5,178.4,99.00000000000001,72.30000000000001,16
895,14967.0,4.5,-2.9000000000000004,-7.6000000000000005,9.0,-11.600000000000001,-6.5,177.10000000000002,31.7,98.9,16
896,14984.0,5.7,-6.0,-12.3,-2.3000000000000003,-14.9,-11.100000000000001,98.7,-361.00000000000006,78.9,16
897,15000.0,-4.1000000000000005,-9.700000000000001,-5.2,0.4,-20.200000000000003,-2.0,-98.60000000000001,113.3,58.0,16
898,15017.0,-0.7000000000000001,-18.5,2.3000000000000003,3.2,-27.400000000000002,3.4000000000000004,-196.4,480.5,-14.200000000000001,16
899,15034.0,-2.0,-18.5,4.800000000000001,1.8,-27.400000000000002,6.0,-187.7,522.3,-27.2,16
900,15050.0,1.4000000000000001,-16.0,4.2,5.0,-25.0,5.5,-77.7,363.40000000000003,17.200000000000003,16
901,15067.0,3.2,-10.8,1.3,6.6000000000000005,-19.8,2.8000000000000003,43.50000000000001,246.9,1.2000000000000002,16
902,15085.0,3.2,-10.8,1.1,6.6000000000000005,-17.0,2.9000000000000004,92.10000000000001,217.20000000000002,-21.1,16
903,15100.0,3.3000000000000003,-4.6000000000000005,1.0,6.7,-12.0,3.3000000000000003,148.0,141.2,-38.0,16
904,15120.0,3.1,0.30000000000000004,-0.4,6.4,-8.4,2.6,174.7,7.1000000000000005,-9.899999999999999,16
905,15136.0,2.5,1.8,-1.6,5.800000000000001,-6.9,1.6,171.8,-49.50000000000001,21.400000000000002,16
906,15150.0,1.6,2.8000000000000003,-4.3,4.9,-5.7,-0.6000000000000001,166.20000000000002,-92.60000000000001,82.2,16
907,15167.0,1.8,2.9000000000000004,-6.300000000000001,4.9,-5.5,-2.2,188.5,-24.7,97.00000000000001,16
908,15184.0,1.9000000000000001,2.8000000000000003,-6.5,4.6000000000000005,-5.0,-2.2,202.30000000000004,35.4,85.69999999999999,16
909,15202.0,0.8,4.7,-6.800000000000001,3.5,-3.3000000000000003,-1.9000000000000001,212.9,133.20000000000002,49.199999999999996,16
910,15217.0,0.6000000000000001,5.800000000000001,-7.7,2.8000000000000003,-1.3,-3.6,198.50000000000003,182.5,20.900000000000002,16
911,15237.0,1.0,7.5,-15.0,2.9000000000000004,0.2,-8.700000000000001,137.5,289.90000000000003,-3.4,16
912,15252.0,2.4000000000000004,8.4,-15.5,4.0,1.3,-8.9,59.80000000000001,421.00000000000006,-21.500000000000004,16
913,15267.0,1.0,8.9,-7.800000000000001,1.6,1.8,-1.0,-78.80000000000001,477.79999999999995,-78.5,16
914,15284.0,1.5,9.0,-7.7,0.8,1.4000000000000001,0.4,-92.90000000000002,380.3,-90.4,16
915,15302.0,0.8,8.3,-5.2,0.30000000000000004,-0.1,1.3,-103.3,149.0,-84.6,16
916,15317.0,0.7000000000000001,6.7,-4.800000000000001,0.1,-3.2,0.7000000000000001,-134.10000000000002,-35.3,-64.80000000000001,16
917,15333.0,-0.1,-3.8000000000000003,-6.0,-0.5,-11.600000000000001,0.0,-169.2,-95.60000000000002,-59.80000000000001,16
918,15350.0,0.7000000000000001,-45.5,-3.9000000000000004,0.8,-53.7,1.5,-369.4,-39.50000000000001,-104.10000000000001,16
919,15367.0,9.4,-18.8,-0.9,10.0,-27.6,3.3000000000000003,-540.7,-175.89999999999998,-297.5,16
920,15383.0,15.3,-11.8,-1.1,16.5,-21.0,2.1,-626.6,-340.6000000000001,-229.10000000000002,16
921,15400.0,15.600000000000001,-2.1,0.6000000000000001,15.700000000000001,-10.100000000000001,-1.5,-674.4,-558.1,88.9,16
922,15417.0,12.4,-2.1,-3.6,14.0,-14.100000000000001,-5.300000000000001,-456.3,-410.6,163.4,16
923,15434.0,12.5,-5.6000000000000005,-1.1,13.5,-15.100000000000001,-3.6,-336.6,-229.00000000000003,96.4,16
924,15450.0,8.700000000000001,0.2,3.0,9.4,-9.0,-0.4,-163.00000000000003,65.3,-63.900000000000006,16
925,15467.0,8.6,0.1,3.3000000000000003,8.4,-7.800000000000001,0.2,-98.8,116.69999999999999,-89.0,16
926,15483.0,4.6000000000000005,2.8000000000000003,5.1000000000000005,5.9,-6.1000000000000005,1.3,-22.6,116.80000000000001,-58.900000000000006,16
927,15500.0,2.3000000000000003,3.4000000000000004,5.0,3.9000000000000004,-5.4,1.2000000000000002,-8.2,127.3,-36.9,16
928,15517.0,0.1,4.6000000000000005,4.9,2.0,-4.3,1.1,-20.1,148.8,-43.50000000000001,16
929,15533.0,-1.1,5.300000000000001,5.0,1.0,-3.5,1.3,-21.1,147.1,-48.800000000000004,16
930,15550.0,-3.0,6.4,5.0,-0.6000000000000001,-2.3000000000000003,1.2000000000000002,-10.5,122.79999999999998,-50.60000000000001,16
931,15567.0,-4.4,7.0,4.1000000000000005,-1.7000000000000002,-1.7000000000000002,0.5,30.599999999999998,64.4,-44.8,16
932,15584.0,-4.9,7.2,3.9000000000000004,-2.1,-1.5,0.4,56.800000000000004,40.1,-41.1,16
933,15600.0,-5.5,7.5,3.5,-2.5,-1.2000000000000002,0.2,101.6,-0.9000000000000001,-28.800000000000004,16
934,15617.0,-5.7,7.5,3.3000000000000003,-2.6,-1.4000000000000001,0.4,126.30000000000001,-24.3,-14.600000000000001,16
935,15635.0,-5.4,7.1000000000000005,3.4000000000000004,-2.4000000000000004,-1.8,0.6000000000000001,130.0,-35.5,-7.9,16
936,15650.0,-4.9,5.2,3.7,-1.9000000000000001,-3.8000000000000003,1.2000000000000002,129.70000000000002,-87.2,-5.0,16
937,15667.0,-4.4,3.6,3.8000000000000003,-0.2,-10.0,2.2,119.60000000000002,-150.2,-5.9,16
938,15684.0,-2.1,-5.5,5.1000000000000005,0.8,-14.700000000000001,3.0,106.1,-190.40000000000003,-10.1,16
939,15700.0,6.2,-26.200000000000003,5.5,9.1,-35.4,3.6,61.50000000000001,-259.40000000000003,-49.1,16
940,15717.0,13.5,-22.400000000000002,0.6000000000000001,16.3,-31.6,-1.4000000000000001,55.2,-145.00000000000003,-45.9,16
941,15734.0,11.100000000000001,-16.0,-0.6000000000000001,14.0,-25.1,-2.6,117.7,-7.6,25.8,16
942,15750.0,6.6000000000000005,-7.9,0.1,9.4,-17.2,-1.3,238.1,256.8,98.60000000000001,16
943,15767.0,4.2,-4.800000000000001,0.2,6.7,-14.3,-0.1,254.9,384.2,61.8,16
944,15784.0,4.3,-4.800000000000001,-0.4,6.300000000000001,-13.8,0.0,244.50000000000003,403.6,35.8,16
945,15800.0,5.0,-0.9,-16.8,7.2,-10.3,-15.5,57.800000000000004,39.400000000000006,-84.6,16
946,15817.0,4.2,-3.0,-9.4,5.800000000000001,-11.8,-6.2,-46.300000000000004,13.6,-48.400000000000006,16
947,15834.0,0.0,1.2000000000000002,-7.7,2.6,-8.200000000000001,-6.4,3.4,107.4,-24.5,16
948,15850.0,-1.7000000000000002,2.7,-9.5,0.9,-6.6000000000000005,-8.0,78.4,208.70000000000002,-5.7,16
949,15867.0,-0.4,2.9000000000000004,-9.0,2.1,-6.4,-7.1000000000000005,58.5,125.80000000000001,4.0,16
950,15883.0,-0.4,2.8000000000000003,-9.1,2.1,-6.2,-6.300000000000001,24.400000000000002,78.0,1.5,16
951,15900.0,-0.9,3.7,-7.6000000000000005,0.6000000000000001,-5.1000000000000005,-4.800000000000001,-41.0,21.8,-4.300000000000001,16
952,15917.0,-3.1,4.3,-3.9000000000000004,-0.7000000000000001,-5.0,-1.9000000000000001,-73.6,-38.50000000000001,11.000000000000002,16
953,15935.0,-2.8000000000000003,5.0,-3.0,-0.5,-4.4,-1.1,-82.3,-58.900000000000006,18.0,16
954,15950.0,-2.7,5.4,-2.4000000000000004,-0.30000000000000004,-4.0,-0.7000000000000001,-92.0,-61.50000000000001,21.300000000000004,16
955,15967.0,-2.1,6.2,-0.6000000000000001,0.30000000000000004,-3.1,1.0,-128.60000000000002,-12.5,33.2,16
956,15984.0,-1.9000000000000001,6.4,0.1,0.4,-3.4000000000000004,1.1,-141.2,-5.500000000000001,44.5,16
957,16002.0,-0.8,3.9000000000000004,0.8,1.2000000000000002,-5.7,1.2000000000000002,-161.3,-12.4,69.20000000000002,16
958,16017.0,0.2,1.6,1.2000000000000002,3.0,-10.0,1.4000000000000001,-177.4,-22.2,84.3,16
959,16034.0,3.8000000000000003,-4.6000000000000005,2.3000000000000003,5.4,-14.3,1.7000000000000002,-214.10000000000002,-55.400000000000006,101.50000000000001,16
960,16050.0,10.100000000000001,-9.700000000000001,1.6,11.4,-19.400000000000002,0.30000000000000004,-222.0,-110.0,98.10000000000001,16
961,16073.0,12.4,-7.5,0.0,13.3,-17.1,-2.1,-129.10000000000002,-117.9,101.9,16
962,16083.0,11.0,-5.7,0.2,11.700000000000001,-15.200000000000001,-2.1,-50.3,-98.0,98.50000000000001,16
963,16100.0,9.200000000000001,-2.6,1.2000000000000002,8.200000000000001,-10.0,-0.9,73.4,-84.3,62.1,16
964,16118.0,7.9,0.2,1.5,8.0,-9.4,-0.5,128.60000000000002,-102.8,53.50000000000001,16
965,16133.0,8.700000000000001,-0.5,1.3,8.6,-10.100000000000001,-0.5,141.1,-93.89999999999999,53.0,16
966,16150.0,9.600000000000001,-1.1,0.7000000000000001,9.3,-10.8,-0.6000000000000001,148.0,-41.6,40.4,16
967,16167.0,9.4,-0.8,0.4,9.0,-10.5,-0.6000000000000001,146.3,-11.3,30.799999999999997,16
968,16184.0,7.800000000000001,0.4,-0.30000000000000004,7.300000000000001,-9.3,-0.8,138.50000000000003,13.700000000000001,11.6,16
969,16202.0,6.1000000000000005,1.6,-1.4000000000000001,4.800000000000001,-7.4,-2.0,136.4,-13.6,-10.4,16
970,16223.0,3.3000000000000003,4.4,-2.1,2.9000000000000004,-5.300000000000001,-1.7000000000000002,146.4,-35.5,-34.800000000000004,16
971,16234.0,2.6,5.300000000000001,-2.0,2.2,-4.5,-1.4000000000000001,147.2,-40.1,-43.300000000000004,16
972,16250.0,0.9,6.9,-2.2,0.7000000000000001,-2.8000000000000003,-1.0,134.9,-47.80000000000001,-46.1,16
973,16268.0,-0.1,8.1,-2.7,-0.1,-1.6,-1.1,106.70000000000002,-50.3,-39.9,16
974,16284.0,-0.4,8.3,-2.9000000000000004,-0.30000000000000004,-1.4000000000000001,-1.2000000000000002,86.5,-41.50000000000001,-38.0,16
975,16300.0,-0.9,7.800000000000001,-2.4000000000000004,-0.7000000000000001,-1.8,-0.4,36.300000000000004,4.1,-39.400000000000006,16
976,16317.0,-1.5,7.0,-2.4000000000000004,-1.3,-3.0,-0.4,-12.299999999999999,85.20000000000002,-46.1,16
977,16333.0,-2.0,5.800000000000001,-2.7,-1.6,-3.7,-0.6000000000000001,-26.1,127.6,-47.400000000000006,16
978,16351.0,-1.7000000000000002,4.1000000000000005,-1.9000000000000001,-1.2000000000000002,-5.5,0.1,-44.4,194.90000000000003,-37.2,16
979,16371.0,-0.1,-0.6000000000000001,-2.3000000000000003,0.30000000000000004,-10.200000000000001,-0.5,-85.80000000000001,199.30000000000004,-9.2,16
980,16389.0,3.5,-8.700000000000001,-1.7000000000000002,3.8000000000000003,-18.400000000000002,-0.2,-132.2,79.5,31.3,16
981,16401.0,4.7,-11.0,-0.30000000000000004,4.9,-20.8,1.0,-160.10000000000002,7.200000000000001,37.1,16
982,16417.0,8.8,-16.8,3.6,9.0,-26.6,4.3,-216.10000000000002,-114.3,-9.5,16
983,16435.0,11.100000000000001,-14.700000000000001,2.3000000000000003,11.8,-22.1,2.0,-213.60000000000002,-151.4,-28.900000000000002,16
984,16450.0,11.100000000000001,-9.700000000000001,1.9000000000000001,11.4,-19.5,1.5,-168.8,-69.7,-16.1,16
985,16467.0,9.3,-7.800000000000001,2.6,9.600000000000001,-17.6,1.9000000000000001,-119.8,23.5,1.2000000000000002,16
986,16483.0,7.7,-4.7,3.5,7.2,-12.600000000000001,2.6,-46.6,120.7,3.5,16
987,16501.0,6.4,-1.3,3.3000000000000003,6.6000000000000005,-10.600000000000001,1.7000000000000002,-9.4,135.20000000000002,-14.0,16
988,16517.0,6.1000000000000005,-0.7000000000000001,2.2,6.5,-10.5,0.8,24.0,140.20000000000002,-21.900000000000002,16
989,16533.0,5.7,-0.5,1.6,6.2,-10.3,0.5,38.300000000000004,144.20000000000002,-22.000000000000004,16
990,16556.0,4.4,0.0,1.1,5.0,-9.700000000000001,0.30000000000000004,52.900000000000006,157.5,-24.599999999999998,16
991,16567.0,3.9000000000000004,0.2,1.0,3.6,-9.4,0.1,49.6,169.1,-31.099999999999998,16
992,16583.0,1.9000000000000001,0.7000000000000001,0.6000000000000001,2.8000000000000003,-9.0,0.0,25.1,208.00000000000003,-52.400000000000006,16
993,16600.0,0.8,1.3,0.2,1.4000000000000001,-8.0,-0.30000000000000004,5.500000000000001,248.9,-66.5,16
994,16619.0,-0.5,2.5,-0.2,0.30000000000000004,-6.6000000000000005,-0.8,2.8,270.9,-64.80000000000001,16
995,16634.0,-1.8,3.9000000000000004,-0.9,-0.30000000000000004,-5.800000000000001,-1.2000000000000002,10.9,274.3,-59.80000000000001,16
996,16650.0,-5.300000000000001,5.6000000000000005,-7.800000000000001,-3.7,-4.0,-7.800000000000001,22.1,156.0,-37.6,16
997,16667.0,-5.800000000000001,5.9,-7.6000000000000005,-4.1000000000000005,-3.8000000000000003,-7.5,-2.7,-59.9,-12.7,16
998,16684.0,-4.6000000000000005,5.7,-4.6000000000000005,-2.8000000000000003,-3.9000000000000004,-4.7,-55.2,-236.20000000000002,33.0,16
999,16700.0,-4.0,6.0,-2.8000000000000003,-2.1,-3.2,-2.2,-91.90000000000002,-130.9,58.1,16
1000,16717.0,-3.4000000000000004,7.7,-0.8,-1.9000000000000001,-1.5,-0.7000000000000001,-106.5,-38.50000000000001,62.0,16
1001,16734.0,-2.7,7.800000000000001,0.8,-1.5,-1.9000000000000001,-0.2,-127.40000000000002,125.00000000000001,64.9,16
1002,16750.0,-2.1,5.9,1.9000000000000001,-1.0,-3.8000000000000003,0.5,-152.4,181.8,82.10000000000001,16
1003,16767.0,-1.4000000000000001,4.4,1.9000000000000001,1.2000000000000002,-9.0,0.9,-163.00000000000003,200.70000000000002,92.90000000000002,16
1004,16783.0,0.4,0.5,3.0,2.6,-12.9,3.8000000000000003,-201.60000000000002,247.4,82.2,16
1005,16800.0,10.0,-17.2,14.4,10.700000000000001,-26.6,11.600000000000001,-270.6,-21.1,32.2,16
1006,16817.0,17.3,-22.1,12.200000000000001,20.6,-30.5,2.1,-254.29999999999998,-395.50000000000006,77.4,16
1007,16833.0,19.8,-16.0,2.1,19.900000000000002,-24.900000000000002,-2.1,-163.00000000000003,-360.7,119.1,16
1008,16854.0,20.700000000000003,-16.1,2.4000000000000004,10.3,-11.200000000000001,-2.0,18.0,-109.60000000000001,112.1,16
1009,16867.0,9.1,0.6000000000000001,2.9000000000000004,8.1,-8.1,-1.5,61.50000000000001,-16.900000000000002,102.10000000000001,16
1010,16884.0,7.300000000000001,2.9000000000000004,3.9000000000000004,6.0,-5.9,-0.30000000000000004,94.4,89.5,86.5,16
1011,16900.0,7.2,2.8000000000000003,4.4,5.800000000000001,-6.1000000000000005,0.4,95.20000000000002,115.39999999999999,66.3,16
1012,16917.0,7.1000000000000005,2.8000000000000003,4.6000000000000005,5.6000000000000005,-6.1000000000000005,0.7000000000000001,86.8,96.7,37.7,16
1013,16940.0,6.6000000000000005,3.1,3.9000000000000004,5.2,-5.9,0.30000000000000004,81.60000000000001,73.30000000000001,28.3,16
1014,16950.0,5.7,3.6,2.4000000000000004,4.3,-5.5,-1.0,77.80000000000001,35.599999999999994,13.5,16
1015,16967.0,5.1000000000000005,4.2,1.7000000000000002,3.0,-4.4,-2.1,86.4,5.6,-0.6000000000000001,16
1016,16986.0,4.4,4.9,0.9,2.4000000000000004,-3.9000000000000004,-2.4000000000000004,95.5,-2.9,-8.700000000000001,16
1017,17000.0,3.1,6.0,-0.30000000000000004,1.3,-2.8000000000000003,-3.9000000000000004,114.3,-0.4,-23.700000000000003,16
1018,17017.0,1.1,7.800000000000001,-5.9,-0.2,-1.7000000000000002,-8.200000000000001,85.5,-14.400000000000002,-30.599999999999998,16
1019,17033.0,-0.5,6.9,-8.5,-1.8,-2.6,-10.600000000000001,37.2,-30.799999999999997,-27.700000000000003,16
1020,17050.0,-0.5,6.9,-8.5,-1.8,-2.6,-10.600000000000001,37.2,-30.799999999999997,-27.700000000000003,16
1021,17067.0,0.6000000000000001,0.1,0.4,-0.6000000000000001,-9.4,-1.8,-88.9,-39.400000000000006,5.4,16
1022,17084.0,1.4000000000000001,-4.0,4.3,0.2,-13.4,1.8,-68.1,134.3,6.500000000000001,16
1023,17101.0,-0.6000000000000001,-2.7,5.1000000000000005,-1.7000000000000002,-12.100000000000001,2.4000000000000004,-23.0,206.80000000000004,14.200000000000001,16
1024,17117.0,-0.7000000000000001,-1.3,4.9,-1.7000000000000002,-10.600000000000001,2.1,1.8000000000000003,228.4,26.700000000000003,16
1025,17133.0,1.1,-2.4000000000000004,5.300000000000001,0.2,-11.8,2.4000000000000004,-6.600000000000001,231.8,29.0,16
1026,17150.0,4.2,-6.1000000000000005,7.6000000000000005,1.2000000000000002,-12.600000000000001,2.9000000000000004,-26.5,230.89999999999998,30.200000000000003,16
1027,17167.0,7.2,-10.3,9.700000000000001,6.6000000000000005,-19.5,6.4,-128.70000000000002,112.80000000000001,5.7,16
1028,17184.0,8.700000000000001,-10.9,9.8,8.200000000000001,-20.0,6.300000000000001,-158.79999999999998,26.700000000000003,-8.3,16
1029,17200.0,11.100000000000001,-9.5,8.5,10.600000000000001,-18.400000000000002,4.4,-166.4,-127.40000000000002,-16.0,16
1030,17217.0,11.700000000000001,-7.7,7.0,10.4,-15.0,1.3,-98.10000000000001,-160.60000000000002,5.2,16
1031,17234.0,9.600000000000001,-4.7,5.2,8.8,-13.4,0.6000000000000001,-57.60000000000001,-115.39999999999999,11.6,16
1032,17250.0,6.9,-3.2,5.7,5.9,-11.700000000000001,1.0,-15.5,10.200000000000001,10.700000000000001,16
1033,17276.0,5.5,-1.6,6.300000000000001,4.3,-9.5,1.7000000000000002,-24.7,102.7,4.7,16
1034,17284.0,5.2,-1.1,6.6000000000000005,4.3,-9.5,1.7000000000000002,-34.7,127.1,-1.1,16
1035,17300.0,4.800000000000001,0.6000000000000001,7.0,4.1000000000000005,-7.800000000000001,2.0,-36.400000000000006,119.60000000000002,-7.9,16
1036,17317.0,4.800000000000001,1.8,6.800000000000001,4.3,-6.6000000000000005,1.7000000000000002,-11.700000000000001,71.30000000000001,3.1,16
1037,17333.0,4.5,2.4000000000000004,6.4,4.1000000000000005,-5.9,1.3,5.8,48.50000000000001,11.6,16
1038,17354.0,3.5,4.0,5.800000000000001,3.2,-4.4,0.7000000000000001,31.400000000000002,25.8,22.9,16
1039,17369.0,3.2,4.6000000000000005,5.6000000000000005,2.9000000000000004,-3.8000000000000003,0.5,46.0,17.300000000000004,27.9,16
1040,17384.0,2.7,5.7,4.7,2.3000000000000003,-2.8000000000000003,-0.1,69.9,16.5,32.9,16
1041,17400.0,2.5,6.1000000000000005,4.1000000000000005,2.0,-2.5,-0.6000000000000001,86.89999999999999,39.300000000000004,25.7,16
1042,17417.0,2.5,5.800000000000001,3.7,2.1,-3.5,-1.0,92.50000000000001,56.6,16.0,16
1043,17433.0,2.6,4.4,3.1,2.2,-4.4,-1.2000000000000002,102.60000000000001,106.30000000000001,-21.8,16
1044,17450.0,2.8000000000000003,2.5,2.8000000000000003,2.7,-6.5,-1.2000000000000002,110.2,174.00000000000003,-77.60000000000001,16
1045,17467.0,2.7,1.6,2.8000000000000003,2.8000000000000003,-7.5,-1.0,109.39999999999999,205.79999999999998,-106.20000000000002,16
1046,17483.0,1.9000000000000001,-0.4,2.7,2.7,-9.600000000000001,-0.7000000000000001,92.50000000000001,244.90000000000003,-150.1,16
1047,17500.0,1.3,-1.9000000000000001,2.3000000000000003,2.9000000000000004,-11.8,-0.7000000000000001,61.0,255.70000000000002,-160.4,16
1048,17517.0,0.6000000000000001,-5.6000000000000005,1.6,2.9000000000000004,-14.700000000000001,-1.1,31.099999999999998,257.6,-137.4,16
1049,17534.0,0.0,-7.0,1.0,2.6,-16.1,-1.5,27.3,260.29999999999995,-116.0,16
1050,17558.0,-6.800000000000001,-8.700000000000001,-10.4,-1.8,-16.400000000000002,-9.200000000000001,-42.60000000000001,-112.7,31.9,16
1051,17568.0,-3.3000000000000003,-4.7,-2.6,-0.2,-13.700000000000001,-4.800000000000001,-68.7,-174.5,59.60000000000001,16
1052,17583.0,-3.1,-4.7,-2.4000000000000004,0.9,-12.100000000000001,-2.9000000000000004,-92.90000000000002,-142.90000000000003,72.80000000000001,16
1053,17600.0,0.6000000000000001,-1.3,3.3000000000000003,3.2,-10.3,0.5,-154.5,-23.099999999999998,84.0,16
1054,17617.0,2.1,-2.4000000000000004,6.1000000000000005,5.800000000000001,-12.600000000000001,3.9000000000000004,-185.80000000000004,48.2,89.9,16
1055,17634.0,5.4,-5.800000000000001,8.4,7.7,-14.600000000000001,4.800000000000001,-186.6,40.800000000000004,87.50000000000001,16
1056,17652.0,6.7,-6.0,8.9,8.700000000000001,-14.700000000000001,4.7,-169.29999999999998,-85.0,81.3,16
1057,17668.0,7.6000000000000005,-4.1000000000000005,7.7,9.200000000000001,-12.600000000000001,3.0,-106.1,-200.8,84.0,16
1058,17683.0,7.7,-3.4000000000000004,7.300000000000001,9.0,-11.8,2.3000000000000003,-66.60000000000001,-221.0,87.3,16
1059,17700.0,7.300000000000001,-1.5,6.6000000000000005,8.0,-9.8,1.5,1.5,-211.0,84.69999999999999,16
1060,17717.0,7.1000000000000005,0.0,6.1000000000000005,6.7,-7.4,0.7000000000000001,38.1,-169.60000000000002,74.10000000000001,16
1061,17733.0,6.0,2.1,5.4,5.800000000000001,-6.300000000000001,0.4,44.9,-143.0,69.9,16
1062,17750.0,5.300000000000001,3.7,4.9,4.7,-4.800000000000001,0.0,41.4,-86.2,60.6,16
1063,17769.0,4.7,4.7,3.8000000000000003,3.7,-3.8000000000000003,-1.0,18.5,-11.8,44.9,16
1064,17783.0,4.7,4.7,3.8000000000000003,3.2,-3.4000000000000004,-1.1,10.0,9.4,39.9,16
1065,17800.0,3.5,5.9,4.0,2.4000000000000004,-2.6,-0.8,-21.1,70.10000000000001,22.6,16
1066,17817.0,2.8000000000000003,6.4,4.2,1.8,-2.0,-0.7000000000000001,-41.0,96.4,8.100000000000001,16
1067,17833.0,2.5,6.7,4.4,1.5,-1.7000000000000002,-0.6000000000000001,-47.400000000000006,101.30000000000001,2.0,16
1068,17850.0,2.3000000000000003,6.5,4.6000000000000005,1.5,-1.8,-0.5,-54.4,100.70000000000002,-9.0,16
1069,17867.0,2.2,6.2,4.7,1.6,-2.1,-0.5,-54.9,100.30000000000001,-15.6,16
1070,17884.0,2.2,5.300000000000001,4.9,2.0,-3.4000000000000004,-0.4,-52.300000000000004,106.70000000000002,-34.2,16
1071,17900.0,2.9000000000000004,2.4000000000000004,5.4,2.8000000000000003,-5.7,-0.2,-45.2,113.00000000000001,-53.599999999999994,16
1072,17917.0,2.9000000000000004,1.0,5.5,3.6,-8.1,-0.30000000000000004,-27.0,120.60000000000001,-69.80000000000001,16
1073,17934.0,3.5,-2.0,5.300000000000001,4.0,-9.9,-0.4,-9.700000000000001,127.5,-73.7,16
1074,17950.0,3.5,-4.5,5.2,4.5,-12.5,-0.5,40.300000000000004,135.3,-67.00000000000001,16
1075,17971.0,3.2,-4.5,5.1000000000000005,4.3,-13.3,-0.6000000000000001,67.8,139.20000000000002,-56.2,16
1076,17983.0,-3.0,-9.4,-6.800000000000001,-1.4000000000000001,-17.5,-12.100000000000001,58.7,-60.400000000000006,0.4,16
1077,18000.0,-2.6,-9.8,-9.5,-1.5,-17.5,-15.4,53.2,-242.60000000000002,27.3,16
1078,18017.0,-1.6,-7.2,-6.6000000000000005,0.6000000000000001,-13.4,-7.6000000000000005,51.300000000000004,-81.10000000000001,9.600000000000001,16
1079,18033.0,0.7000000000000001,-3.0,1.9000000000000001,1.5,-11.3,-3.2,12.9,-9.600000000000001,19.5,16
1080,18050.0,2.8000000000000003,-5.7,6.800000000000001,3.5,-14.0,1.7000000000000002,-64.50000000000001,55.900000000000006,50.7,16
1081,18072.0,4.3,-6.2,5.800000000000001,4.9,-14.4,0.5,-114.70000000000002,-2.8,56.10000000000001,16
1082,18084.0,4.5,-6.1000000000000005,6.1000000000000005,5.0,-14.200000000000001,0.7000000000000001,-113.5,-14.300000000000002,49.4,16
1083,18100.0,4.0,-5.1000000000000005,6.800000000000001,4.4,-13.100000000000001,1.0,-72.60000000000001,15.399999999999999,34.400000000000006,16
1084,18117.0,3.6,-4.4,7.5,4.0,-12.200000000000001,1.7000000000000002,-52.2,32.5,31.799999999999997,16
1085,18135.0,2.4000000000000004,-4.4,8.1,2.8000000000000003,-12.100000000000001,2.0,-38.60000000000001,57.699999999999996,32.6,16
1086,18150.0,2.3000000000000003,-5.1000000000000005,8.200000000000001,2.7,-12.8,2.1,-45.3,57.800000000000004,30.1,16
1087,18168.0,2.3000000000000003,-5.1000000000000005,8.200000000000001,3.3000000000000003,-14.4,2.3000000000000003,-65.5,43.70000000000001,17.9,16
1088,18183.0,3.0,-6.9,8.700000000000001,3.5,-14.4,2.4000000000000004,-73.9,26.700000000000003,12.600000000000001,16
1089,18200.0,3.2,-4.7,8.5,3.7,-12.0,2.0,-72.50000000000001,-22.6,12.200000000000001,16
1090,18217.0,3.1,-2.4000000000000004,7.5,3.5,-9.600000000000001,0.8,-46.199999999999996,-35.5,19.5,16
1091,18234.0,3.0,-1.1,7.1000000000000005,3.3000000000000003,-8.200000000000001,0.4,-37.0,-27.6,20.400000000000002,16
1092,18250.0,2.7,0.8,7.0,3.0,-6.300000000000001,0.30000000000000004,6.699999999999999,25.4,18.200000000000003,16
1093,18267.0,2.4000000000000004,2.4000000000000004,6.9,2.7,-4.7,0.2,52.900000000000006,74.30000000000001,15.6,16
1094,18283.0,2.4000000000000004,2.8000000000000003,6.800000000000001,2.8000000000000003,-4.4,0.1,72.4,93.60000000000001,14.300000000000002,16
1095,18301.0,2.3000000000000003,3.3000000000000003,6.800000000000001,2.9000000000000004,-4.1000000000000005,0.4,100.70000000000002,120.9,9.3,16
1096,18317.0,2.1,3.7,7.0,2.9000000000000004,-3.9000000000000004,0.9,114.2,115.3,2.1,16
1097,18336.0,1.7000000000000002,4.2,6.7,2.7,-3.7,0.9,115.9,81.4,-5.4,16
1098,18350.0,1.4000000000000001,4.2,6.1000000000000005,2.6,-3.7,0.5,115.39999999999999,64.7,-10.299999999999999,16
1099,18367.0,1.4000000000000001,4.1000000000000005,5.7,2.6,-4.0,0.30000000000000004,115.39999999999999,56.2,-17.5,16
1100,18383.0,1.3,3.7,5.1000000000000005,2.9000000000000004,-5.2,-0.1,118.90000000000002,65.7,-40.5,16
1101,18400.0,1.7000000000000002,1.0,4.4,3.4000000000000004,-7.4,-0.30000000000000004,121.2,97.2,-69.4,16
1102,18417.0,1.6,-0.5,4.0,4.0,-10.0,-0.2,109.8,136.6,-95.20000000000002,16
1103,18434.0,1.9000000000000001,-2.9000000000000004,3.6,4.2,-11.5,-0.4,98.39999999999999,156.6,-107.7,16
1104,18450.0,1.3,-5.7,2.7,4.2,-14.4,-0.9,71.9,210.50000000000003,-132.9,16
1105,18467.0,1.0,-5.800000000000001,2.5,4.4,-16.1,-1.0,61.10000000000001,247.9,-141.70000000000002,16
1106,18483.0,0.4,-11.9,2.4000000000000004,4.3,-20.400000000000002,-0.5,44.300000000000004,335.59999999999997,-145.60000000000002,16
1107,18500.0,-1.4000000000000001,-11.9,2.2,2.0,-19.400000000000002,-0.2,21.6,352.6,-113.8,16
