,ms,accelX,accelY,accelZ,accelWithGX,accelWithGY,accelWithGZ,rotRateAlpha,rotRateBeta,rotRateGamma,interval
0,97.0,0.0,0.0,-0.1,0.4,3.8000000000000003,9.600000000000001,-2.4000000000000004,3.7000000000000006,1.2000000000000002,16
1,106.0,0.0,0.1,-0.1,0.4,3.8000000000000003,9.600000000000001,-2.4000000000000004,3.7000000000000006,1.2000000000000002,16
2,127.0,-0.1,0.1,-0.2,0.2,3.8000000000000003,9.4,-5.300000000000001,2.3,2.0,16
3,135.0,-0.1,0.0,-0.2,0.2,3.8000000000000003,9.4,-5.300000000000001,2.3,2.0,16
4,151.0,-0.1,0.0,-0.1,0.2,3.7,9.4,-6.4,3.6000000000000005,2.9,16
5,169.0,-0.2,-0.1,-0.1,0.1,3.7,9.5,-5.6,4.4,3.9,16
6,185.0,-0.2,-0.2,-0.1,0.0,3.6,9.4,-3.7000000000000006,3.1,5.1000000000000005,16
7,201.0,-0.2,-0.2,-0.5,0.0,3.5,9.1,-3.1,1.2000000000000002,5.500000000000001,16
8,219.0,-0.2,-0.2,-0.7000000000000001,-0.1,3.5,8.8,-5.6,1.8000000000000003,6.1000000000000005,16
9,234.0,-0.30000000000000004,-0.1,-0.5,-0.2,3.5,8.9,-9.100000000000001,5.4,8.2,16
10,251.0,-0.30000000000000004,-0.1,-0.2,-0.30000000000000004,3.5,9.1,-9.2,6.8,10.700000000000001,16
11,268.0,-0.30000000000000004,-0.2,-0.2,-0.2,3.4000000000000004,9.200000000000001,-8.5,7.0,12.299999999999999,16
12,284.0,-0.30000000000000004,-0.2,-0.2,-0.2,3.3000000000000003,9.1,-9.2,8.600000000000001,12.600000000000001,16
13,302.0,-0.30000000000000004,0.0,-0.1,-0.30000000000000004,3.4000000000000004,9.200000000000001,-10.4,9.5,13.000000000000002,16
14,317.0,-0.30000000000000004,0.1,-0.1,-0.30000000000000004,3.5,9.3,-11.1,10.1,14.400000000000002,16
15,334.0,-0.2,0.2,0.0,-0.30000000000000004,3.6,9.4,-10.9,11.3,16.4,16
16,351.0,-0.1,0.2,0.1,-0.30000000000000004,3.6,9.4,-10.4,11.700000000000001,18.8,16
17,367.0,-0.1,0.1,0.0,-0.1,3.4000000000000004,9.4,-10.299999999999999,10.5,20.7,16
18,384.0,0.1,-0.1,0.1,0.0,3.3000000000000003,9.5,-9.8,8.700000000000001,21.200000000000003,16
19,401.0,0.2,-0.2,0.0,0.1,3.2,9.5,-7.200000000000001,6.2,21.7,16
20,417.0,0.30000000000000004,-0.2,-0.2,0.30000000000000004,3.1,9.200000000000001,-5.1000000000000005,3.0,22.1,16
21,434.0,0.5,-0.2,-0.5,0.4,3.1,8.9,-4.9,2.9,22.8,16
22,451.0,0.6000000000000001,-0.30000000000000004,-0.7000000000000001,0.5,2.9000000000000004,8.700000000000001,-5.9,4.5,23.2,16
23,467.0,0.6000000000000001,-0.4,-0.6000000000000001,0.6000000000000001,2.8000000000000003,8.8,-7.200000000000001,8.0,23.400000000000002,16
24,484.0,0.5,-0.4,-0.2,0.6000000000000001,2.7,9.1,-6.8,12.200000000000001,24.3,16
25,501.0,0.5,-0.6000000000000001,0.0,0.6000000000000001,2.6,9.3,-4.5,11.900000000000002,24.900000000000002,16
26,517.0,0.6000000000000001,-0.7000000000000001,0.0,0.7000000000000001,2.4000000000000004,9.3,-3.3000000000000007,9.600000000000001,24.1,16
27,534.0,0.6000000000000001,-0.7000000000000001,0.0,0.7000000000000001,2.4000000000000004,9.4,-3.3000000000000007,7.0,22.2,16
28,551.0,0.6000000000000001,-0.6000000000000001,0.0,0.7000000000000001,2.4000000000000004,9.3,-3.5,2.2,20.1,16
29,567.0,0.6000000000000001,-0.4,-0.30000000000000004,0.8,2.6,9.1,-4.9,-1.4,18.8,16
30,584.0,0.7000000000000001,-0.30000000000000004,-0.4,0.9,2.6,9.0,-6.8,-0.4,18.1,16
31,601.0,0.7000000000000001,-0.30000000000000004,-0.2,1.0,2.6,9.1,-7.0,2.9,17.300000000000004,16
32,617.0,0.7000000000000001,-0.30000000000000004,0.2,1.0,2.6,9.4,-4.4,6.8,16.200000000000003,16
33,634.0,0.7000000000000001,-0.30000000000000004,0.30000000000000004,1.0,2.6,9.600000000000001,0.30000000000000004,6.600000000000001,14.600000000000001,16
34,651.0,0.6000000000000001,-0.30000000000000004,0.1,1.0,2.6,9.5,3.1,2.8,12.5,16
35,667.0,0.5,-0.1,-0.1,0.9,2.7,9.3,2.4000000000000004,-0.7,11.2,16
36,684.0,0.5,-0.1,-0.1,0.9,2.8000000000000003,9.200000000000001,-0.4,-3.9,10.600000000000001,16
37,701.0,0.5,-0.1,-0.1,1.0,2.7,9.200000000000001,-2.2,-5.300000000000001,10.200000000000001,16
38,717.0,0.5,-0.2,0.0,1.0,2.6,9.3,-1.5,-3.8,9.600000000000001,16
39,734.0,0.5,-0.2,0.0,1.0,2.6,9.3,0.5,-1.1,8.700000000000001,16
40,751.0,0.4,-0.2,0.2,1.0,2.6,9.5,2.8,1.0,8.4,16
41,767.0,0.4,-0.30000000000000004,0.30000000000000004,1.0,2.6,9.600000000000001,5.2,-0.6000000000000001,7.699999999999999,16
42,784.0,0.5,-0.30000000000000004,0.2,1.1,2.6,9.5,5.6,-4.9,5.4,16
43,801.0,0.5,-0.1,0.1,1.1,2.8000000000000003,9.4,3.5,-6.600000000000001,3.2,16
44,817.0,0.30000000000000004,0.1,0.5,1.0,2.9000000000000004,9.700000000000001,3.1,-5.7,2.8,16
45,834.0,0.30000000000000004,0.0,0.5,1.0,2.9000000000000004,9.8,6.8,-7.1000000000000005,2.8,16
46,851.0,0.30000000000000004,-0.1,0.1,1.1,2.8000000000000003,9.5,8.899999999999999,-8.700000000000001,2.0,16
47,867.0,0.4,-0.1,0.0,1.2000000000000002,2.8000000000000003,9.4,6.8,-6.2,-0.1,16
48,884.0,0.4,-0.2,0.0,1.2000000000000002,2.7,9.3,4.800000000000001,-6.300000000000001,-3.1,16
49,901.0,0.30000000000000004,-0.1,-0.2,1.2000000000000002,2.8000000000000003,9.200000000000001,2.7,-7.300000000000001,-6.300000000000001,16
50,917.0,0.1,0.0,-0.1,1.1,2.9000000000000004,9.3,2.5,-4.4,-8.100000000000001,16
51,934.0,-0.1,0.1,0.2,0.8,3.0,9.5,5.6,-1.9,-8.0,16
52,951.0,-0.1,0.1,0.1,0.7000000000000001,3.0,9.4,9.8,-2.8,-7.1000000000000005,16
53,967.0,-0.1,0.0,-0.30000000000000004,0.8,3.0,9.0,9.5,-5.0,-7.300000000000001,16
54,984.0,-0.2,0.0,-0.4,0.8,3.0,8.8,5.300000000000001,-4.7,-8.3,16
55,1001.0,-0.2,0.0,-0.4,0.6000000000000001,3.1,8.9,1.8000000000000003,-4.4,-8.600000000000001,16
56,1017.0,-0.30000000000000004,0.1,-0.4,0.6000000000000001,3.1,8.9,1.0,-4.9,-7.400000000000001,16
57,1034.0,-0.30000000000000004,0.1,-0.4,0.6000000000000001,3.2,8.8,0.6000000000000001,-2.7,-5.500000000000001,16
58,1051.0,-0.30000000000000004,0.1,-0.4,0.6000000000000001,3.2,8.9,0.0,0.8,-3.5,16
59,1067.0,-0.2,0.1,0.0,0.7000000000000001,3.1,9.200000000000001,-0.1,3.4,-1.5,16
60,1084.0,0.0,-0.1,0.1,0.8,3.0,9.3,-0.2,2.2,-1.5,16
61,1101.0,0.1,-0.2,0.1,0.9,2.9000000000000004,9.3,-0.9000000000000001,0.7,-3.3000000000000007,16
62,1117.0,0.1,-0.2,0.1,0.9,2.9000000000000004,9.3,-1.5,-0.7,-5.6,16
63,1134.0,0.0,0.0,0.1,0.8,3.0,9.3,-1.4,-1.3,-7.1000000000000005,16
64,1151.0,-0.1,0.1,0.1,0.7000000000000001,3.1,9.4,0.0,-0.1,-7.1000000000000005,16
65,1167.0,-0.1,0.1,0.2,0.7000000000000001,3.2,9.5,2.4000000000000004,0.6000000000000001,-6.4,16
66,1184.0,0.0,0.1,0.1,0.7000000000000001,3.1,9.4,3.7000000000000006,0.6000000000000001,-6.699999999999999,16
67,1201.0,0.0,0.1,0.0,0.7000000000000001,3.2,9.200000000000001,2.6,0.9000000000000001,-7.400000000000001,16
68,1217.0,-0.1,0.1,0.1,0.6000000000000001,3.2,9.3,0.7,-0.4,-7.6,16
69,1234.0,-0.1,0.1,0.2,0.6000000000000001,3.2,9.4,0.5,-1.4,-7.500000000000001,16
70,1251.0,-0.2,0.1,0.2,0.6000000000000001,3.2,9.5,1.6,-0.7,-6.9,16
71,1267.0,-0.2,0.1,0.2,0.5,3.3000000000000003,9.5,3.3000000000000007,-2.6,-6.0,16
72,1284.0,-0.1,0.1,-0.1,0.6000000000000001,3.3000000000000003,9.3,2.9,-6.1000000000000005,-5.7,16
73,1301.0,-0.1,0.1,-0.2,0.6000000000000001,3.2,9.0,0.1,-6.8,-5.7,16
74,1317.0,-0.1,0.0,-0.2,0.6000000000000001,3.2,9.1,-1.4,-4.5,-5.4,16
75,1334.0,-0.1,0.0,-0.2,0.6000000000000001,3.2,9.1,0.6000000000000001,-2.6,-5.0,16
76,1351.0,-0.1,0.0,-0.2,0.7000000000000001,3.2,9.0,2.2,-0.2,-4.5,16
77,1367.0,-0.1,0.1,-0.2,0.6000000000000001,3.3000000000000003,9.0,1.9,2.0,-3.8,16
78,1384.0,-0.1,0.1,0.0,0.6000000000000001,3.3000000000000003,9.200000000000001,0.1,1.8000000000000003,-2.9,16
79,1401.0,0.0,0.0,0.1,0.7000000000000001,3.2,9.3,-1.0,-0.9000000000000001,-2.8,16
80,1417.0,0.0,-0.1,0.1,0.7000000000000001,3.1,9.3,-1.4,-3.3000000000000007,-3.8,16
81,1434.0,0.0,0.0,0.1,0.8,3.1,9.3,-0.9000000000000001,-4.4,-5.0,16
82,1451.0,0.0,0.1,-0.1,0.8,3.2,9.200000000000001,-0.30000000000000004,-3.9,-5.300000000000001,16
83,1467.0,0.0,0.1,-0.1,0.8,3.3000000000000003,9.1,-0.6000000000000001,-1.5,-5.2,16
84,1484.0,0.0,0.1,0.0,0.7000000000000001,3.3000000000000003,9.200000000000001,-0.6000000000000001,1.7,-4.2,16
85,1501.0,-0.1,0.1,0.1,0.6000000000000001,3.3000000000000003,9.3,0.2,2.0,-3.0,16
86,1517.0,-0.1,0.1,0.0,0.6000000000000001,3.2,9.3,-0.30000000000000004,0.1,-2.4000000000000004,16
87,1534.0,-0.1,0.0,0.1,0.6000000000000001,3.2,9.3,-2.1,-0.6000000000000001,-2.3,16
88,1551.0,-0.1,-0.1,0.2,0.6000000000000001,3.1,9.4,-2.5,-2.6,-2.4000000000000004,16
89,1567.0,0.0,-0.1,0.1,0.7000000000000001,3.0,9.4,-1.5,-4.7,-3.1,16
90,1584.0,0.0,-0.1,-0.1,0.7000000000000001,3.1,9.200000000000001,-0.7,-3.8,-3.6000000000000005,16
91,1601.0,0.0,0.0,-0.1,0.7000000000000001,3.2,9.1,-0.5,-1.4,-3.2,16
92,1617.0,0.0,0.0,-0.1,0.7000000000000001,3.2,9.1,-0.7,0.2,-2.4000000000000004,16
93,1634.0,0.0,0.0,-0.1,0.7000000000000001,3.1,9.1,-1.6,0.8,-1.7,16
94,1651.0,0.0,-0.1,-0.1,0.7000000000000001,3.1,9.1,-2.5,0.8,-1.9,16
95,1667.0,0.0,-0.1,0.0,0.7000000000000001,3.1,9.200000000000001,-3.0,1.1,-2.2,16
96,1684.0,-0.1,0.0,0.0,0.6000000000000001,3.1,9.200000000000001,-2.5,1.2000000000000002,-1.9,16
97,1701.0,-0.2,0.1,0.2,0.5,3.2,9.4,-2.0,2.0,-0.9000000000000001,16
98,1717.0,-0.1,0.1,0.2,0.5,3.2,9.5,-0.5,2.0,0.4,16
99,1734.0,0.0,0.1,0.2,0.6000000000000001,3.2,9.4,0.2,0.5,0.5,16
100,1751.0,0.0,0.2,0.1,0.7000000000000001,3.3000000000000003,9.4,-0.4,0.2,0.2,16
101,1767.0,0.0,0.2,0.1,0.6000000000000001,3.4000000000000004,9.3,-1.5,-0.7,0.7,16
102,1784.0,0.0,0.2,0.0,0.7000000000000001,3.3000000000000003,9.3,-2.4000000000000004,-1.9,1.3,16
103,1801.0,0.0,0.0,0.0,0.7000000000000001,3.2,9.3,-2.7,-1.3,1.7,16
104,1817.0,0.0,0.0,0.0,0.7000000000000001,3.1,9.3,-2.6,0.2,1.3,16
105,1834.0,0.0,-0.1,0.1,0.7000000000000001,3.0,9.3,-1.8000000000000003,0.6000000000000001,0.8,16
106,1851.0,0.0,-0.1,0.2,0.7000000000000001,3.1,9.4,-0.1,0.8,0.7,16
107,1867.0,0.0,-0.1,0.1,0.7000000000000001,3.0,9.4,0.7,-0.7,0.2,16
108,1884.0,0.1,-0.1,0.0,0.8,3.0,9.3,-0.2,-1.0,-0.8,16
109,1901.0,0.0,-0.1,0.1,0.7000000000000001,3.0,9.3,-0.8,0.4,-1.4,16
110,1917.0,-0.1,-0.1,0.0,0.6000000000000001,3.0,9.3,-0.30000000000000004,0.1,-1.2000000000000002,16
111,1934.0,0.0,-0.1,0.0,0.6000000000000001,3.0,9.3,-0.30000000000000004,-0.2,-0.5,16
112,1951.0,0.0,-0.1,0.1,0.7000000000000001,2.9000000000000004,9.4,0.5,0.5,-0.5,16
113,1967.0,0.0,0.0,0.0,0.6000000000000001,3.0,9.4,1.6,-1.6,-0.7,16
114,1984.0,0.0,0.0,-0.1,0.7000000000000001,3.1,9.200000000000001,0.6000000000000001,-3.2,-0.5,16
115,2000.0,0.1,0.1,-0.1,0.8,3.2,9.200000000000001,-1.6,-1.9,0.2,16
116,2017.0,0.1,-0.1,0.1,0.8,3.1,9.3,-2.8,-0.1,0.7,16
117,2034.0,0.1,-0.1,0.2,0.7000000000000001,2.9000000000000004,9.600000000000001,-2.0,1.4,1.0,16
118,2052.0,0.0,-0.2,0.6000000000000001,0.7000000000000001,2.9000000000000004,9.9,1.2000000000000002,1.8000000000000003,1.2000000000000002,16
119,2067.0,0.1,-0.30000000000000004,0.4,0.7000000000000001,2.8000000000000003,9.8,4.6,-1.3,0.4,16
120,2084.0,0.1,-0.2,0.1,0.8,2.8000000000000003,9.5,4.7,-4.4,-1.3,16
121,2104.0,0.1,-0.1,-0.1,0.8,3.0,9.3,1.7,-4.7,-2.6,16
122,2126.0,0.1,0.0,0.0,0.8,3.1,9.3,0.1,-3.7000000000000006,-3.0,16
123,2134.0,0.0,0.0,0.1,0.8,3.1,9.4,1.6,-1.9,-2.4000000000000004,16
124,2151.0,0.0,-0.1,0.1,0.8,3.0,9.5,4.0,-0.2,-2.1,16
125,2168.0,0.0,-0.1,0.0,0.8,3.0,9.4,5.4,0.2,-2.7,16
126,2185.0,0.0,-0.1,0.0,0.8,3.0,9.3,4.800000000000001,0.0,-3.7000000000000006,16
127,2201.0,0.0,0.0,0.0,0.7000000000000001,3.1,9.3,3.8,-0.5,-4.0,16
128,2223.0,-0.1,0.1,0.1,0.7000000000000001,3.2,9.4,3.5,-1.7,-3.5,16
129,2235.0,0.0,0.1,0.0,0.7000000000000001,3.2,9.3,3.7000000000000006,-3.6000000000000005,-2.9,16
130,2251.0,0.0,0.0,-0.2,0.7000000000000001,3.1,9.200000000000001,3.2,-4.300000000000001,-2.8,16
131,2267.0,0.0,-0.1,-0.2,0.7000000000000001,3.1,9.1,3.0,-2.9,-2.8,16
132,2284.0,0.0,0.0,-0.2,0.8,3.1,9.0,3.4,-1.7,-2.8,16
133,2302.0,0.0,0.0,-0.4,0.8,3.2,8.9,3.2,-0.6000000000000001,-2.9,16
134,2322.0,0.0,0.0,-0.30000000000000004,0.8,3.2,8.9,1.4,2.2,-3.0,16
135,2337.0,-0.2,0.1,0.1,0.6000000000000001,3.3000000000000003,9.200000000000001,0.6000000000000001,5.500000000000001,-2.4000000000000004,16
136,2354.0,-0.2,0.0,0.30000000000000004,0.5,3.2,9.5,2.2,5.9,-0.8,16
137,2369.0,-0.2,-0.1,0.30000000000000004,0.5,3.1,9.600000000000001,3.5,2.4000000000000004,-0.6000000000000001,16
138,2384.0,-0.1,-0.1,0.2,0.6000000000000001,3.1,9.4,4.0,-0.9000000000000001,-0.9000000000000001,16
139,2401.0,-0.1,0.0,0.0,0.6000000000000001,3.2,9.200000000000001,2.8,-4.800000000000001,-1.7,16
140,2417.0,0.0,0.1,-0.30000000000000004,0.7000000000000001,3.3000000000000003,9.0,0.2,-6.4,-2.1,16
141,2435.0,0.0,0.1,-0.2,0.7000000000000001,3.3000000000000003,9.0,-1.1,-4.1,-1.4,16
142,2452.0,0.0,0.1,-0.2,0.7000000000000001,3.3000000000000003,9.0,-1.1,-4.1,-1.4,16
143,2468.0,0.1,0.0,-0.1,0.8,3.2,9.200000000000001,2.1,1.9,-0.7,16
144,2484.0,0.1,0.0,-0.1,0.8,3.2,9.1,3.0,2.3,-1.7,16
145,2509.0,0.0,0.0,-0.2,0.7000000000000001,3.3000000000000003,9.1,-1.1,2.4000000000000004,-2.2,16
146,2519.0,0.0,0.1,-0.1,0.7000000000000001,3.3000000000000003,9.1,-1.1,2.4000000000000004,-2.2,16
147,2534.0,0.0,0.0,0.2,0.7000000000000001,3.2,9.4,-1.0,2.2,-1.4,16
148,2551.0,0.0,-0.1,0.1,0.7000000000000001,3.1,9.3,0.30000000000000004,0.4,-1.5,16
149,2567.0,0.0,-0.1,-0.2,0.7000000000000001,3.1,9.0,-0.30000000000000004,0.0,-2.4000000000000004,16
150,2584.0,0.0,0.0,-0.2,0.7000000000000001,3.2,9.0,-2.1,1.7,-2.7,16
151,2601.0,-0.1,0.1,0.0,0.6000000000000001,3.3000000000000003,9.200000000000001,-2.6,3.1,-1.7,16
152,2617.0,-0.1,0.0,0.1,0.6000000000000001,3.2,9.3,-1.0,2.4000000000000004,-0.6000000000000001,16
153,2634.0,0.0,0.0,0.0,0.7000000000000001,3.2,9.200000000000001,-1.2000000000000002,2.8,-0.9000000000000001,16
154,2651.0,0.0,0.0,0.0,0.6000000000000001,3.2,9.3,-1.9,3.6000000000000005,-1.3,16
155,2667.0,0.0,0.0,0.1,0.6000000000000001,3.2,9.4,-1.6,2.4000000000000004,-1.5,16
156,2684.0,0.0,-0.1,0.0,0.6000000000000001,3.1,9.3,-1.3,1.4,-1.6,16
157,2701.0,0.0,0.0,0.0,0.6000000000000001,3.1,9.3,-1.0,2.6,-1.6,16
158,2717.0,-0.1,0.0,0.0,0.5,3.1,9.3,-0.8,2.7,-1.2000000000000002,16
159,2734.0,-0.1,0.0,0.1,0.5,3.2,9.4,-0.30000000000000004,2.3,-0.4,16
160,2751.0,-0.1,-0.1,0.1,0.5,3.1,9.4,-0.5,0.7,0.30000000000000004,16
161,2768.0,-0.1,-0.1,0.1,0.5,3.0,9.3,-1.3,-2.2,0.2,16
162,2784.0,-0.1,-0.1,-0.1,0.5,3.1,9.200000000000001,-2.2,-5.1000000000000005,0.0,16
163,2801.0,0.0,0.0,-0.2,0.6000000000000001,3.1,9.0,-3.4,-7.400000000000001,0.0,16
164,2819.0,0.1,0.0,-0.4,0.8,3.2,8.8,-5.1000000000000005,-6.699999999999999,-0.30000000000000004,16
165,2834.0,0.1,0.0,-0.5,0.8,3.2,8.700000000000001,-6.9,-3.2,-0.8,16
166,2851.0,0.1,0.1,-0.4,0.7000000000000001,3.2,8.9,-6.9,1.6,-0.8,16
167,2868.0,0.0,0.1,-0.1,0.7000000000000001,3.2,9.1,-5.7,4.6,-0.1,16
168,2885.0,0.0,0.1,0.0,0.7000000000000001,3.2,9.200000000000001,-5.2,5.9,0.2,16
169,2901.0,0.0,0.0,0.2,0.6000000000000001,3.1,9.3,-5.7,5.6,0.1,16
170,2919.0,-0.1,0.0,0.30000000000000004,0.5,3.1,9.5,-6.9,3.9,-0.30000000000000004,16
171,2935.0,-0.1,0.0,0.4,0.5,3.0,9.700000000000001,-6.9,2.0,-0.6000000000000001,16
172,2952.0,-0.1,0.0,0.4,0.5,3.0,9.700000000000001,-6.0,0.4,-0.7,16
173,2968.0,0.0,0.0,0.30000000000000004,0.5,3.0,9.600000000000001,-5.2,0.1,-0.7,16
174,2985.0,0.0,-0.1,0.30000000000000004,0.5,2.9000000000000004,9.600000000000001,-4.0,0.8,-0.6000000000000001,16
175,3001.0,-0.1,-0.1,0.1,0.5,2.8000000000000003,9.5,-2.7,0.8,-1.0,16
176,3024.0,-0.1,-0.1,0.30000000000000004,0.4,2.8000000000000003,9.8,-1.2000000000000002,2.1,0.7,16
177,3034.0,-0.1,-0.1,0.4,0.4,2.8000000000000003,9.8,-1.2000000000000002,2.1,0.7,16
178,3052.0,0.0,-0.2,0.1,0.6000000000000001,2.8000000000000003,9.600000000000001,0.8,-1.7,0.2,16
179,3068.0,0.1,-0.1,-0.1,0.7000000000000001,2.8000000000000003,9.3,-0.2,-3.9,-1.4,16
180,3084.0,0.1,0.0,-0.1,0.7000000000000001,3.0,9.200000000000001,-2.6,-2.0,-2.1,16
181,3102.0,0.1,0.1,0.0,0.6000000000000001,3.0,9.4,-1.9,-0.8,-1.7,16
182,3123.0,0.2,0.0,-0.2,0.8,3.0,9.200000000000001,-0.5,1.3,-2.4000000000000004,16
183,3134.0,0.2,0.1,-0.2,0.8,3.0,9.200000000000001,-0.5,1.3,-2.4000000000000004,16
184,3151.0,0.0,0.1,-0.1,0.7000000000000001,3.1,9.3,-1.2000000000000002,2.9,-2.6,16
185,3167.0,0.0,0.1,0.1,0.5,3.1,9.5,-1.0,3.7000000000000006,-1.8000000000000003,16
186,3184.0,0.0,0.1,0.30000000000000004,0.5,3.0,9.700000000000001,0.8,3.8,-1.0,16
187,3201.0,0.0,-0.1,0.2,0.5,2.9000000000000004,9.600000000000001,2.0,1.3,-1.3,16
188,3217.0,0.0,-0.1,0.1,0.5,2.9000000000000004,9.4,0.1,-1.7,-2.2,16
189,3234.0,-0.1,-0.1,0.0,0.5,2.9000000000000004,9.4,-2.6,-2.9,-2.6,16
190,3251.0,-0.1,0.0,0.1,0.5,2.9000000000000004,9.5,-2.0,-4.0,-2.2,16
191,3267.0,0.0,0.0,0.0,0.6000000000000001,2.9000000000000004,9.4,-0.2,-4.7,-1.5,16
192,3284.0,0.1,0.0,-0.2,0.7000000000000001,2.9000000000000004,9.200000000000001,-0.30000000000000004,-3.8,-1.7,16
193,3301.0,0.1,0.0,-0.30000000000000004,0.7000000000000001,3.0,9.1,-1.4,-1.6,-2.1,16
194,3318.0,0.1,0.0,-0.2,0.7000000000000001,2.9000000000000004,9.200000000000001,-2.1,-0.2,-1.8000000000000003,16
195,3336.0,0.1,0.0,-0.1,0.7000000000000001,2.9000000000000004,9.200000000000001,-1.5,-0.1,-1.8000000000000003,16
196,3351.0,0.2,-0.1,-0.1,0.8,2.8000000000000003,9.200000000000001,-1.6,1.6,-2.3,16
197,3367.0,0.1,0.0,0.1,0.8,2.9000000000000004,9.4,-1.9,2.7,-3.2,16
198,3384.0,0.1,0.0,0.1,0.7000000000000001,2.9000000000000004,9.5,-1.4,2.5,-3.5,16
199,3401.0,0.1,0.0,0.1,0.7000000000000001,2.9000000000000004,9.5,-1.5,1.9,-3.8,16
200,3417.0,0.0,0.0,0.30000000000000004,0.6000000000000001,2.9000000000000004,9.600000000000001,-1.6,2.1,-3.7000000000000006,16
201,3434.0,0.0,0.0,0.30000000000000004,0.5,2.8000000000000003,9.700000000000001,-0.30000000000000004,0.9000000000000001,-3.9,16
202,3451.0,0.0,-0.1,0.30000000000000004,0.6000000000000001,2.8000000000000003,9.600000000000001,0.2,-1.9,-4.9,16
203,3467.0,0.0,0.0,0.2,0.6000000000000001,2.9000000000000004,9.600000000000001,0.0,-1.3,-5.4,16
204,3484.0,-0.1,0.1,0.2,0.5,3.0,9.600000000000001,0.9000000000000001,-1.6,-5.300000000000001,16
205,3501.0,-0.1,0.1,0.0,0.5,3.0,9.4,2.0,-2.8,-4.800000000000001,16
206,3517.0,-0.1,0.1,-0.2,0.5,3.0,9.3,1.9,-1.8000000000000003,-4.300000000000001,16
207,3534.0,-0.1,0.1,-0.2,0.5,3.0,9.200000000000001,1.2000000000000002,-1.8000000000000003,-3.8,16
208,3551.0,0.0,0.1,-0.30000000000000004,0.5,3.0,9.1,0.2,-2.7,-3.6000000000000005,16
209,3568.0,0.0,0.1,-0.4,0.6000000000000001,3.0,9.0,-1.1,-1.2000000000000002,-3.6000000000000005,16
210,3584.0,0.0,0.1,-0.30000000000000004,0.5,3.0,9.1,-2.2,2.1,-2.9,16
211,3601.0,0.0,-0.1,-0.1,0.6000000000000001,2.8000000000000003,9.200000000000001,-1.4,4.6,-2.7,16
212,3618.0,0.0,-0.1,0.0,0.5,2.9000000000000004,9.3,-0.1,4.4,-3.3000000000000007,16
213,3638.0,0.0,0.0,0.1,0.5,2.9000000000000004,9.4,0.1,3.3000000000000007,-4.0,16
214,3652.0,0.0,0.0,0.1,0.5,2.9000000000000004,9.4,-0.5,0.8,-4.0,16
215,3668.0,0.0,0.1,0.1,0.5,3.0,9.4,-1.7,-1.3,-3.8,16
216,3684.0,0.0,0.0,0.0,0.5,2.9000000000000004,9.4,-2.5,-1.6,-3.4,16
217,3701.0,0.1,0.0,0.1,0.6000000000000001,2.9000000000000004,9.5,-2.6,-0.7,-3.4,16
218,3722.0,0.1,-0.1,0.2,0.6000000000000001,2.8000000000000003,9.600000000000001,-1.3,-1.0,-4.1,16
219,3735.0,0.0,0.0,0.2,0.6000000000000001,2.9000000000000004,9.600000000000001,0.2,-2.1,-4.7,16
220,3751.0,0.0,0.0,0.1,0.6000000000000001,2.9000000000000004,9.5,0.8,-3.2,-5.0,16
221,3768.0,0.0,0.0,0.0,0.6000000000000001,2.9000000000000004,9.4,0.5,-5.1000000000000005,-5.500000000000001,16
222,3784.0,0.1,0.1,-0.1,0.6000000000000001,3.0,9.3,-0.6000000000000001,-5.1000000000000005,-5.7,16
223,3801.0,0.1,0.1,-0.1,0.6000000000000001,3.0,9.200000000000001,-0.7,-4.7,-5.6,16
224,3818.0,0.1,0.1,-0.2,0.7000000000000001,3.0,9.200000000000001,-1.1,-3.1,-5.4,16
225,3834.0,0.0,0.1,0.0,0.6000000000000001,3.0,9.3,-0.9000000000000001,-0.9000000000000001,-5.300000000000001,16
226,3851.0,0.0,0.1,0.0,0.6000000000000001,3.0,9.4,0.30000000000000004,-1.3,-5.300000000000001,16
227,3867.0,0.0,0.1,0.0,0.6000000000000001,3.0,9.4,1.0,-2.5,-5.6,16
228,3886.0,0.0,0.1,-0.2,0.6000000000000001,3.0,9.200000000000001,-0.7,-3.6000000000000005,-5.7,16
229,3915.0,0.0,0.0,0.1,0.6000000000000001,2.9000000000000004,9.5,-3.1,-0.5,-4.7,16
230,3918.0,0.0,0.0,0.1,0.6000000000000001,2.9000000000000004,9.5,-3.1,-0.5,-4.7,16
231,3934.0,0.0,-0.1,0.2,0.6000000000000001,2.8000000000000003,9.600000000000001,0.2,-0.5,-4.7,16
232,3951.0,0.0,-0.1,0.0,0.6000000000000001,2.9000000000000004,9.4,2.2,-1.2000000000000002,-5.300000000000001,16
233,3967.0,0.0,0.0,-0.1,0.6000000000000001,2.9000000000000004,9.3,1.6,-0.4,-5.7,16
234,3984.0,-0.1,0.0,0.0,0.5,3.0,9.3,-0.30000000000000004,0.0,-5.4,16
235,4001.0,-0.1,0.0,0.1,0.5,2.9000000000000004,9.4,-0.9000000000000001,-0.7,-4.7,16
236,4017.0,-0.1,-0.1,0.1,0.5,2.9000000000000004,9.4,-0.7,-1.8000000000000003,-4.2,16
237,4035.0,0.0,-0.1,0.0,0.5,2.8000000000000003,9.4,-0.1,-2.7,-4.300000000000001,16
238,4051.0,0.0,0.0,-0.1,0.5,2.9000000000000004,9.3,-0.1,-1.9,-4.300000000000001,16
239,4067.0,-0.1,0.0,-0.1,0.5,2.9000000000000004,9.3,-0.5,-0.30000000000000004,-3.9,16
240,4084.0,-0.1,0.0,0.0,0.5,3.0,9.4,-0.2,0.5,-2.9,16
241,4101.0,-0.1,0.0,0.0,0.4,2.9000000000000004,9.4,0.0,0.2,-2.3,16
242,4117.0,-0.1,-0.1,0.0,0.5,2.8000000000000003,9.4,-0.2,-1.2000000000000002,-2.6,16
243,4136.0,0.0,0.0,-0.1,0.5,2.9000000000000004,9.3,-1.0,-2.2,-3.1,16
244,4151.0,0.0,0.0,-0.1,0.5,2.9000000000000004,9.3,-1.2000000000000002,-2.4000000000000004,-3.3000000000000007,16
245,4168.0,0.0,0.1,-0.2,0.6000000000000001,3.0,9.1,-1.2000000000000002,-1.9,-3.2,16
246,4184.0,0.0,0.1,-0.1,0.5,3.0,9.200000000000001,-2.0,1.6,-2.5,16
247,4201.0,0.0,0.1,-0.1,0.5,3.0,9.200000000000001,-2.0,1.6,-2.5,16
248,4217.0,-0.1,0.0,0.1,0.5,2.9000000000000004,9.5,-0.2,2.1,-1.2000000000000002,16
249,4235.0,0.0,0.0,0.0,0.5,2.9000000000000004,9.4,-0.8,0.4,-1.7,16
250,4251.0,0.0,0.0,0.0,0.5,2.9000000000000004,9.4,-2.0,0.0,-1.8000000000000003,16
251,4267.0,0.0,0.1,0.1,0.5,3.0,9.5,-2.4000000000000004,-0.1,-1.1,16
252,4284.0,0.0,0.0,0.1,0.5,2.9000000000000004,9.5,-1.6,-1.4,-0.9000000000000001,16
253,4301.0,0.1,-0.1,0.0,0.6000000000000001,2.8000000000000003,9.4,-1.3,-1.5,-1.3,16
254,4317.0,0.0,0.0,0.0,0.5,2.9000000000000004,9.4,-1.5,-1.3,-1.8000000000000003,16
255,4334.0,0.0,0.1,0.0,0.5,3.0,9.4,-1.3,-1.6,-1.1,16
256,4351.0,0.0,0.0,0.1,0.5,2.9000000000000004,9.5,-1.5,-1.5,-0.1,16
257,4368.0,0.1,-0.1,0.1,0.6000000000000001,2.8000000000000003,9.5,-1.6,-2.9,-0.6000000000000001,16
258,4384.0,0.0,-0.1,0.0,0.6000000000000001,2.8000000000000003,9.4,-1.6,-2.4000000000000004,-1.7,16
259,4401.0,-0.1,0.0,0.1,0.5,2.8000000000000003,9.4,-0.8,-1.3,-1.7,16
260,4417.0,0.0,0.0,0.1,0.5,2.9000000000000004,9.4,0.5,-1.2000000000000002,-1.2000000000000002,16
261,4434.0,0.0,0.0,-0.2,0.6000000000000001,2.9000000000000004,9.200000000000001,0.7,-1.8000000000000003,-1.2000000000000002,16
262,4452.0,0.1,0.0,-0.2,0.6000000000000001,2.9000000000000004,9.1,-1.1,-0.2,-1.6,16
263,4470.0,0.0,0.1,-0.2,0.5,3.0,9.200000000000001,-1.5,1.9,-1.4,16
264,4484.0,0.0,0.1,-0.2,0.5,3.0,9.200000000000001,-1.5,1.9,-1.4,16
265,4501.0,0.0,0.1,-0.1,0.5,3.0,9.200000000000001,-1.5,3.5,-0.8,16
266,4518.0,0.0,0.1,-0.1,0.5,2.9000000000000004,9.3,-1.1,4.9,-0.30000000000000004,16
267,4534.0,-0.1,0.0,0.0,0.4,2.8000000000000003,9.4,-1.6,4.9,0.0,16
268,4551.0,-0.1,-0.1,0.30000000000000004,0.4,2.7,9.600000000000001,-2.2,3.6000000000000005,-0.30000000000000004,16
269,4567.0,0.0,-0.1,0.30000000000000004,0.5,2.8000000000000003,9.700000000000001,-1.4,0.8,-0.8,16
270,4584.0,0.0,0.0,0.2,0.5,2.9000000000000004,9.600000000000001,-1.5,-1.4,-1.0,16
271,4601.0,0.0,0.1,0.2,0.4,2.9000000000000004,9.600000000000001,-1.1,-1.5,0.1,16
272,4618.0,0.0,0.1,0.1,0.5,2.9000000000000004,9.5,-0.4,-1.3,0.9000000000000001,16
273,4634.0,0.0,0.0,0.1,0.5,2.8000000000000003,9.5,-0.1,-1.1,0.8,16
274,4652.0,0.0,-0.1,0.1,0.5,2.8000000000000003,9.600000000000001,0.9000000000000001,-1.2000000000000002,0.2,16
275,4667.0,0.0,0.0,0.0,0.5,2.8000000000000003,9.5,1.6,-2.0,-0.2,16
276,4684.0,0.1,0.0,0.0,0.6000000000000001,2.8000000000000003,9.4,1.4,-2.2,-0.30000000000000004,16
277,4701.0,0.1,0.0,-0.1,0.6000000000000001,2.8000000000000003,9.3,0.6000000000000001,-1.7,-0.4,16
278,4718.0,0.1,0.0,-0.1,0.6000000000000001,2.8000000000000003,9.3,0.30000000000000004,-0.4,-0.4,16
279,4734.0,0.0,0.0,0.0,0.5,2.9000000000000004,9.4,0.4,0.2,0.1,16
280,4751.0,0.1,-0.1,0.1,0.6000000000000001,2.8000000000000003,9.5,0.4,-0.7,0.4,16
281,4767.0,0.1,-0.1,0.1,0.6000000000000001,2.8000000000000003,9.5,0.5,-1.1,-0.2,16
282,4785.0,0.1,-0.1,0.1,0.6000000000000001,2.8000000000000003,9.5,1.4,-1.2000000000000002,-0.8,16
283,4801.0,0.0,0.0,0.1,0.6000000000000001,2.9000000000000004,9.5,2.7,-1.8000000000000003,-0.9000000000000001,16
284,4818.0,0.1,0.0,-0.1,0.6000000000000001,2.9000000000000004,9.4,2.9,-2.7,-0.7,16
285,4834.0,0.1,0.0,-0.2,0.7000000000000001,2.9000000000000004,9.200000000000001,0.9000000000000001,-2.9,-1.0,16
286,4851.0,0.0,0.1,-0.2,0.6000000000000001,2.9000000000000004,9.200000000000001,-1.1,-2.5,-1.1,16
287,4867.0,0.0,0.1,0.0,0.6000000000000001,2.9000000000000004,9.4,-1.2000000000000002,-1.2000000000000002,-0.4,16
288,4884.0,0.0,0.0,0.0,0.6000000000000001,2.9000000000000004,9.3,0.6000000000000001,-0.7,0.1,16
289,4901.0,0.0,0.0,-0.2,0.6000000000000001,2.8000000000000003,9.200000000000001,1.8000000000000003,0.7,0.1,16
290,4918.0,0.0,0.0,-0.1,0.6000000000000001,2.9000000000000004,9.200000000000001,1.6,2.6,0.0,16
291,4934.0,0.0,0.0,0.0,0.6000000000000001,2.9000000000000004,9.3,1.3,1.7,0.5,16
292,4951.0,0.1,0.0,-0.1,0.6000000000000001,2.9000000000000004,9.3,0.6000000000000001,-0.8,0.8,16
293,4967.0,0.1,0.0,-0.1,0.7000000000000001,2.9000000000000004,9.3,-1.1,-1.4,0.5,16
294,4984.0,0.1,0.0,0.0,0.7000000000000001,2.9000000000000004,9.4,-1.6,-0.5,0.4,16
295,5001.0,0.0,0.0,0.1,0.6000000000000001,2.9000000000000004,9.5,0.0,0.9000000000000001,0.8,16
296,5018.0,0.0,-0.1,0.1,0.6000000000000001,2.8000000000000003,9.5,1.7,1.1,0.9000000000000001,16
297,5034.0,0.0,-0.1,0.1,0.6000000000000001,2.8000000000000003,9.5,1.6,2.0,0.6000000000000001,16
298,5051.0,0.0,-0.1,0.2,0.5,2.8000000000000003,9.600000000000001,1.0,2.1,0.2,16
299,5067.0,-0.1,-0.1,0.2,0.5,2.7,9.600000000000001,0.7,0.1,0.0,16
300,5084.0,-0.1,-0.1,0.2,0.5,2.7,9.600000000000001,1.1,-0.6000000000000001,-0.1,16
301,5101.0,-0.1,-0.1,0.2,0.5,2.7,9.600000000000001,2.4000000000000004,-0.7,0.0,16
302,5117.0,0.0,-0.1,0.0,0.5,2.8000000000000003,9.5,4.1,-2.9,-0.30000000000000004,16
303,5134.0,0.0,0.0,-0.1,0.6000000000000001,2.9000000000000004,9.200000000000001,3.5,-4.6,-0.7,16
304,5151.0,0.1,0.1,-0.4,0.7000000000000001,3.0,9.0,1.0,-3.9,-1.1,16
305,5167.0,0.1,0.1,-0.4,0.7000000000000001,3.0,9.0,-0.9000000000000001,-0.9000000000000001,-0.6000000000000001,16
306,5184.0,0.0,0.1,-0.1,0.6000000000000001,3.0,9.200000000000001,-0.5,2.4000000000000004,0.4,16
307,5200.0,0.0,0.1,0.0,0.6000000000000001,3.0,9.3,1.7,3.5,1.2000000000000002,16
308,5217.0,0.1,0.0,-0.1,0.7000000000000001,2.9000000000000004,9.3,2.5,3.6000000000000005,1.0,16
309,5234.0,0.0,0.1,0.0,0.6000000000000001,3.0,9.3,1.5,2.6,0.4,16
310,5251.0,-0.1,0.1,0.0,0.5,3.1,9.4,-0.2,0.8,0.5,16
311,5267.0,-0.1,0.1,0.1,0.5,3.0,9.4,-1.2000000000000002,-1.1,1.0,16
312,5284.0,-0.1,0.0,0.1,0.5,3.0,9.5,-1.1,-1.5,1.3,16
313,5301.0,-0.1,0.0,0.1,0.5,2.9000000000000004,9.5,-0.5,-0.9000000000000001,1.2000000000000002,16
314,5317.0,-0.1,0.0,0.1,0.5,2.9000000000000004,9.5,0.6000000000000001,0.0,1.1,16
315,5338.0,-0.1,0.1,0.0,0.4,3.0,9.4,1.4,0.2,1.6,16
316,5351.0,-0.1,0.1,0.0,0.5,3.0,9.4,1.3,-0.1,2.2,16
317,5367.0,-0.1,0.0,0.0,0.5,3.0,9.4,1.1,-1.1,2.6,16
318,5384.0,0.0,0.0,-0.1,0.5,2.9000000000000004,9.3,0.5,-2.0,2.3,16
319,5404.0,0.0,0.0,-0.1,0.5,2.9000000000000004,9.3,0.4,0.2,2.0,16
320,5419.0,0.0,0.0,-0.1,0.5,2.9000000000000004,9.3,0.4,0.2,2.0,16
321,5434.0,0.0,0.1,-0.1,0.6000000000000001,3.0,9.200000000000001,1.4,1.1,2.4000000000000004,16
322,5451.0,0.0,0.1,-0.1,0.6000000000000001,3.0,9.200000000000001,1.4,1.1,2.4000000000000004,16
323,5467.0,0.0,0.1,-0.1,0.6000000000000001,3.0,9.200000000000001,0.30000000000000004,2.1,3.8,16
324,5484.0,0.1,0.0,-0.1,0.6000000000000001,3.0,9.200000000000001,-1.0,1.0,3.6000000000000005,16
325,5501.0,0.0,0.0,-0.1,0.6000000000000001,2.9000000000000004,9.3,-2.0,1.5,3.7000000000000006,16
326,5517.0,0.0,-0.1,0.0,0.6000000000000001,2.8000000000000003,9.3,-2.3,2.2,3.9,16
327,5534.0,0.0,-0.2,0.2,0.6000000000000001,2.7,9.5,-1.8000000000000003,3.2,3.2,16
328,5551.0,0.0,-0.2,0.2,0.5,2.8000000000000003,9.600000000000001,0.2,3.1,2.5,16
329,5567.0,-0.1,-0.1,0.1,0.5,2.9000000000000004,9.5,0.8,0.9000000000000001,2.2,16
330,5584.0,-0.1,0.0,0.1,0.5,2.9000000000000004,9.4,0.0,-0.4,2.8,16
331,5600.0,0.0,0.0,0.0,0.5,3.0,9.3,-1.0,-1.7,3.4,16
332,5624.0,0.0,0.0,0.0,0.6000000000000001,2.9000000000000004,9.4,-1.6,-0.5,3.7000000000000006,16
333,5635.0,0.0,0.0,0.0,0.6000000000000001,2.9000000000000004,9.4,-1.6,-0.5,3.7000000000000006,16
334,5651.0,0.1,0.0,0.0,0.6000000000000001,2.9000000000000004,9.4,-0.5,-0.30000000000000004,3.3000000000000007,16
335,5667.0,0.1,0.0,-0.1,0.6000000000000001,2.9000000000000004,9.3,-0.4,0.8,2.9,16
336,5684.0,0.1,0.0,0.0,0.7000000000000001,2.9000000000000004,9.3,-0.5,1.9,2.7,16
337,5701.0,0.1,0.0,0.0,0.7000000000000001,2.9000000000000004,9.3,-0.4,2.2,2.4000000000000004,16
338,5718.0,0.1,0.0,-0.1,0.7000000000000001,2.8000000000000003,9.3,-1.1,2.3,2.0,16
339,5734.0,0.1,0.0,0.1,0.6000000000000001,2.8000000000000003,9.4,-1.2000000000000002,2.9,1.7,16
340,5751.0,0.1,0.0,0.1,0.6000000000000001,2.9000000000000004,9.5,-0.2,2.8,1.6,16
341,5768.0,0.1,0.0,0.1,0.7000000000000001,2.9000000000000004,9.4,0.1,2.0,1.4,16
342,5784.0,0.1,0.0,-0.1,0.7000000000000001,2.9000000000000004,9.3,-0.8,1.1,0.6000000000000001,16
343,5801.0,0.1,0.0,0.0,0.7000000000000001,2.9000000000000004,9.3,-2.5,2.5,0.4,16
344,5818.0,0.0,0.0,0.1,0.6000000000000001,2.8000000000000003,9.5,-1.4,3.7000000000000006,0.7,16
345,5834.0,0.0,0.0,0.1,0.6000000000000001,2.8000000000000003,9.5,1.6,2.3,1.0,16
346,5851.0,0.1,0.0,-0.1,0.7000000000000001,2.9000000000000004,9.3,1.7,0.9000000000000001,0.7,16
347,5867.0,0.1,0.0,-0.2,0.7000000000000001,2.9000000000000004,9.1,-1.2000000000000002,0.30000000000000004,0.0,16
348,5884.0,0.1,0.0,-0.1,0.7000000000000001,2.9000000000000004,9.3,-4.300000000000001,1.0,-0.1,16
349,5901.0,0.0,0.0,0.1,0.6000000000000001,2.8000000000000003,9.4,-3.6000000000000005,0.8,-0.2,16
350,5918.0,0.0,0.0,0.1,0.6000000000000001,2.8000000000000003,9.5,-1.1,1.9,-0.1,16
351,5934.0,0.0,-0.1,0.1,0.6000000000000001,2.8000000000000003,9.5,1.0,2.7,-0.30000000000000004,16
352,5951.0,0.0,0.0,-0.1,0.6000000000000001,2.9000000000000004,9.3,0.30000000000000004,2.7,-0.9000000000000001,16
353,5968.0,0.0,0.1,-0.1,0.5,2.9000000000000004,9.3,-1.4,3.1,-0.9000000000000001,16
354,5984.0,0.0,0.0,0.0,0.5,2.9000000000000004,9.4,-2.3,2.3,-0.9000000000000001,16
355,6001.0,0.0,0.0,0.0,0.5,2.8000000000000003,9.4,-2.1,3.3000000000000007,-0.9000000000000001,16
356,6017.0,0.0,-0.1,0.2,0.5,2.8000000000000003,9.5,-1.1,4.5,-0.9000000000000001,16
357,6035.0,-0.1,0.0,0.2,0.5,2.8000000000000003,9.600000000000001,0.1,4.2,-1.0,16
358,6051.0,-0.1,0.0,0.30000000000000004,0.4,2.8000000000000003,9.700000000000001,1.9,3.2,-0.8,16
359,6067.0,-0.1,0.0,0.2,0.4,2.8000000000000003,9.600000000000001,2.6,0.7,-1.0,16
360,6085.0,-0.1,0.0,0.1,0.4,2.8000000000000003,9.5,1.9,-0.6000000000000001,-1.2000000000000002,16
361,6109.0,-0.1,0.2,0.0,0.4,3.0,9.4,1.4,-1.9,0.30000000000000004,16
362,6118.0,0.0,0.1,0.0,0.4,3.0,9.4,1.4,-1.9,0.30000000000000004,16
363,6139.0,0.0,0.1,-0.1,0.5,2.9000000000000004,9.4,1.4,-1.2000000000000002,1.1,16
364,6151.0,0.0,0.0,0.0,0.5,2.9000000000000004,9.4,1.6,0.9000000000000001,1.2000000000000002,16
365,6167.0,-0.1,-0.1,0.1,0.4,2.8000000000000003,9.5,2.7,2.7,1.3,16
366,6184.0,-0.2,-0.1,0.1,0.2,2.7,9.5,4.2,3.0,1.7,16
367,6204.0,-0.30000000000000004,-0.2,0.0,0.2,2.7,9.5,5.0,1.8000000000000003,2.1,16
368,6217.0,-0.30000000000000004,-0.1,0.0,0.2,2.8000000000000003,9.4,4.5,-1.0,2.5,16
369,6234.0,-0.2,-0.1,-0.1,0.30000000000000004,2.8000000000000003,9.3,3.2,-3.7000000000000006,3.1,16
370,6250.0,-0.2,-0.1,-0.2,0.30000000000000004,2.9000000000000004,9.200000000000001,1.7,-4.800000000000001,3.4,16
371,6267.0,-0.2,0.0,-0.2,0.30000000000000004,2.9000000000000004,9.1,0.2,-2.5,4.300000000000001,16
372,6284.0,-0.2,0.0,-0.2,0.2,2.9000000000000004,9.200000000000001,0.8,0.2,5.8,16
373,6301.0,-0.2,0.0,-0.2,0.2,2.9000000000000004,9.200000000000001,2.4000000000000004,1.7,6.9,16
374,6317.0,-0.2,0.1,-0.2,0.2,3.0,9.1,3.1,1.9,7.500000000000001,16
375,6334.0,-0.2,0.2,-0.30000000000000004,0.2,3.1,9.0,2.0,1.7,8.4,16
376,6351.0,-0.30000000000000004,0.30000000000000004,-0.30000000000000004,0.1,3.2,9.0,-2.0,2.2,10.200000000000001,16
377,6367.0,-0.30000000000000004,0.2,-0.2,0.1,3.0,9.200000000000001,-4.7,4.300000000000001,11.8,16
378,6385.0,-0.30000000000000004,0.0,0.4,0.1,2.9000000000000004,9.600000000000001,-3.7000000000000006,5.1000000000000005,12.8,16
379,6405.0,-0.4,-0.1,0.30000000000000004,0.0,2.9000000000000004,9.5,2.1,1.0,13.6,16
380,6420.0,-0.4,0.0,0.1,0.0,2.9000000000000004,9.5,2.1,1.0,13.6,16
381,6435.0,-0.4,0.1,-0.1,-0.1,3.0,9.3,0.30000000000000004,2.1,14.700000000000001,16
382,6451.0,-0.4,0.1,-0.1,-0.1,3.0,9.3,0.30000000000000004,2.1,14.700000000000001,16
383,6467.0,-0.4,0.1,0.30000000000000004,-0.2,3.0,9.600000000000001,-0.5,4.2,18.6,16
384,6484.0,-0.4,0.1,0.2,-0.1,3.0,9.600000000000001,1.9,3.3000000000000007,20.400000000000002,16
385,6502.0,-0.4,0.1,0.0,-0.2,3.0,9.4,2.6,3.7000000000000006,21.7,16
386,6527.0,-0.5,0.0,0.0,-0.30000000000000004,3.0,9.4,2.5,4.5,25.900000000000002,16
387,6534.0,-0.5,0.0,0.0,-0.30000000000000004,3.0,9.4,2.5,4.5,25.900000000000002,16
388,6551.0,-0.5,0.0,0.0,-0.30000000000000004,3.0,9.3,2.7,5.500000000000001,28.200000000000003,16
389,6568.0,-0.5,0.0,-0.1,-0.30000000000000004,3.0,9.3,3.1,7.8,31.2,16
390,6584.0,-0.6000000000000001,0.0,0.1,-0.4,3.0,9.4,2.4000000000000004,8.4,34.1,16
391,6603.0,-0.5,0.0,0.1,-0.4,3.0,9.5,2.6,6.1000000000000005,37.0,16
392,6619.0,-0.4,-0.1,-0.1,-0.2,2.9000000000000004,9.3,1.9,2.9,39.0,16
393,6634.0,-0.2,-0.1,-0.30000000000000004,-0.1,2.9000000000000004,9.1,-0.4,2.6,40.6,16
394,6650.0,-0.2,-0.1,-0.30000000000000004,0.0,2.8000000000000003,9.1,-1.9,4.0,42.2,16
395,6667.0,-0.1,-0.2,-0.1,0.2,2.7,9.3,-1.2000000000000002,6.699999999999999,43.6,16
396,6684.0,0.2,-0.30000000000000004,0.0,0.30000000000000004,2.7,9.3,1.9,8.8,44.9,16
397,6704.0,0.5,-0.30000000000000004,-0.2,0.8,2.7,9.200000000000001,0.8,11.700000000000001,44.6,16
398,6717.0,0.5,-0.2,-0.1,0.8,2.7,9.200000000000001,0.8,11.700000000000001,44.6,16
399,6734.0,0.5,-0.2,0.4,0.9,2.7,9.600000000000001,0.2,13.6,45.7,16
400,6751.0,0.6000000000000001,-0.4,0.4,1.0,2.5,9.8,1.4,9.700000000000001,45.7,16
401,6767.0,0.8,-0.5,0.2,1.2000000000000002,2.4000000000000004,9.5,1.5,6.300000000000001,43.70000000000001,16
402,6784.0,0.8,-0.4,0.1,1.3,2.4000000000000004,9.4,-1.3,6.600000000000001,41.6,16
403,6806.0,0.8,-0.30000000000000004,0.2,1.3,2.5,9.600000000000001,-2.7,6.600000000000001,40.7,16
404,6818.0,0.9,-0.4,0.2,1.4000000000000001,2.4000000000000004,9.600000000000001,-0.8,6.8,40.300000000000004,16
405,6834.0,1.1,-0.5,0.0,1.5,2.3000000000000003,9.4,1.6,7.699999999999999,38.7,16
406,6851.0,1.1,-0.5,-0.1,1.6,2.3000000000000003,9.3,1.3,9.899999999999999,36.400000000000006,16
407,6867.0,1.1,-0.4,0.0,1.7000000000000002,2.4000000000000004,9.4,-0.2,12.0,34.1,16
408,6885.0,1.1,-0.4,0.2,1.6,2.4000000000000004,9.600000000000001,-0.5,11.3,31.799999999999997,16
409,6906.0,1.1,-0.30000000000000004,0.30000000000000004,1.6,2.4000000000000004,9.700000000000001,0.6000000000000001,9.3,29.400000000000002,16
410,6918.0,1.1,-0.30000000000000004,0.30000000000000004,1.7000000000000002,2.5,9.700000000000001,2.6,7.0,27.099999999999998,16
411,6934.0,1.2000000000000002,-0.2,0.2,1.7000000000000002,2.6,9.600000000000001,4.6,4.0,25.0,16
412,6951.0,1.2000000000000002,-0.2,0.1,1.8,2.6,9.5,6.1000000000000005,1.8000000000000003,22.9,16
413,6967.0,1.2000000000000002,-0.2,0.0,1.9000000000000001,2.6,9.4,7.400000000000001,0.5,20.599999999999998,16
414,6984.0,1.1,-0.1,-0.1,1.9000000000000001,2.7,9.200000000000001,7.9,0.8,18.700000000000003,16
415,7001.0,1.1,-0.1,-0.1,1.9000000000000001,2.7,9.3,8.4,2.6,17.200000000000003,16
416,7024.0,1.1,-0.1,0.0,1.9000000000000001,2.7,9.3,11.2,5.2,13.900000000000002,16
417,7035.0,0.9,-0.1,-0.1,1.9000000000000001,2.7,9.3,11.2,5.2,13.900000000000002,16
418,7051.0,0.9,-0.30000000000000004,-0.1,1.8,2.7,9.200000000000001,6.500000000000001,7.300000000000001,13.700000000000001,16
419,7067.0,0.9,-0.4,0.1,1.9000000000000001,2.4000000000000004,9.5,0.1,7.1000000000000005,11.6,16
420,7084.0,0.9,-0.8,0.5,2.0,2.0,9.8,-3.6000000000000005,1.5,6.0,16
421,7104.0,1.0,-0.9,0.6000000000000001,2.1,1.8,10.0,-3.5,-4.2,-3.2,16
422,7129.0,0.9,-0.5,0.30000000000000004,1.9000000000000001,2.5,9.700000000000001,5.8,-5.8,-19.700000000000003,16
423,7134.0,0.7000000000000001,-0.2,0.2,1.9000000000000001,2.5,9.700000000000001,5.8,-5.8,-19.700000000000003,16
424,7150.0,0.5,0.2,0.0,1.7000000000000002,2.9000000000000004,9.5,11.700000000000001,-3.2,-22.2,16
425,7167.0,0.4,0.30000000000000004,-0.2,1.6,3.1,9.1,15.399999999999999,-1.6,-23.700000000000003,16
426,7184.0,0.30000000000000004,0.30000000000000004,-0.4,1.5,3.2,8.9,14.600000000000001,0.6000000000000001,-24.0,16
427,7200.0,0.1,0.30000000000000004,-0.4,1.4000000000000001,3.3000000000000003,8.9,11.6,2.7,-23.800000000000004,16
428,7217.0,0.0,0.4,-0.4,1.1,3.3000000000000003,9.0,7.300000000000001,4.5,-22.1,16
429,7234.0,-0.2,0.4,0.0,0.9,3.4000000000000004,9.3,3.6000000000000005,4.5,-19.300000000000004,16
430,7250.0,-0.30000000000000004,0.2,0.1,0.8,3.3000000000000003,9.4,2.0,0.8,-15.8,16
431,7268.0,-0.30000000000000004,0.1,0.2,0.9,3.1,9.5,0.6000000000000001,-3.9,-14.0,16
432,7284.0,-0.2,-0.2,0.1,0.9,2.8000000000000003,9.5,-0.7,-7.699999999999999,-14.700000000000001,16
433,7301.0,-0.1,-0.4,0.1,1.0,2.7,9.4,-0.9000000000000001,-10.600000000000001,-17.400000000000002,16
434,7319.0,-0.1,-0.30000000000000004,-0.2,1.0,2.7,9.200000000000001,0.2,-11.700000000000001,-20.8,16
435,7334.0,0.0,-0.30000000000000004,-0.30000000000000004,1.1,2.8000000000000003,9.0,0.9000000000000001,-9.700000000000001,-23.800000000000004,16
436,7351.0,0.0,0.0,-0.4,1.2000000000000002,3.0,8.9,1.1,-6.0,-26.300000000000004,16
437,7367.0,-0.1,0.2,-0.2,1.1,3.2,9.0,0.9000000000000001,-0.9000000000000001,-27.400000000000002,16
438,7384.0,-0.1,0.30000000000000004,0.0,1.0,3.3000000000000003,9.3,1.7,2.9,-26.9,16
439,7410.0,-0.1,0.1,0.1,1.0,3.2,9.4,1.5,1.0,-28.0,16
440,7419.0,-0.1,0.1,0.2,1.0,3.2,9.4,1.5,1.0,-28.0,16
441,7434.0,-0.1,0.1,0.30000000000000004,0.9,3.2,9.600000000000001,0.0,0.1,-28.700000000000003,16
442,7452.0,-0.2,0.1,0.5,0.8,3.2,9.8,0.5,-2.9,-28.500000000000004,16
443,7467.0,-0.1,-0.1,0.30000000000000004,0.8,3.1,9.700000000000001,2.1,-7.500000000000001,-28.400000000000002,16
444,7484.0,0.0,-0.2,0.2,0.9,3.0,9.5,2.5,-10.200000000000001,-29.1,16
445,7500.0,0.0,-0.2,0.1,1.0,2.9000000000000004,9.4,2.8,-11.4,-30.4,16
446,7520.0,0.1,-0.2,0.0,1.0,2.9000000000000004,9.3,3.3000000000000007,-12.600000000000001,-31.799999999999997,16
447,7534.0,0.1,-0.2,-0.1,1.1,2.9000000000000004,9.200000000000001,3.6000000000000005,-12.7,-33.2,16
448,7551.0,0.1,-0.2,-0.4,1.1,2.9000000000000004,9.0,2.6,-12.100000000000001,-35.0,16
449,7568.0,0.0,-0.2,-0.30000000000000004,1.0,3.0,9.0,1.6,-9.700000000000001,-36.7,16
450,7584.0,0.0,-0.1,-0.2,0.9,3.1,9.1,2.2,-7.6,-37.6,16
451,7600.0,-0.1,-0.1,-0.1,0.8,3.1,9.1,3.4,-7.500000000000001,-37.6,16
452,7622.0,-0.1,-0.1,-0.30000000000000004,0.8,3.1,9.0,3.0,-8.700000000000001,-38.0,16
453,7636.0,-0.1,-0.2,-0.30000000000000004,0.8,3.1,8.9,1.3,-9.600000000000001,-39.400000000000006,16
454,7651.0,-0.1,-0.1,-0.30000000000000004,0.7000000000000001,3.1,8.9,-0.7,-11.000000000000002,-41.199999999999996,16
455,7669.0,-0.30000000000000004,0.1,-0.30000000000000004,0.6000000000000001,3.3000000000000003,8.9,-3.2,-11.900000000000002,-41.7,16
456,7684.0,-0.30000000000000004,0.1,-0.30000000000000004,0.5,3.3000000000000003,8.9,-5.4,-11.000000000000002,-40.5,16
457,7701.0,-0.4,0.0,-0.2,0.4,3.2,9.1,-5.500000000000001,-9.600000000000001,-39.400000000000006,16
458,7726.0,-0.4,-0.1,0.0,0.30000000000000004,3.1,9.1,-4.9,-9.2,-38.900000000000006,16
459,7734.0,-0.5,-0.2,0.1,0.30000000000000004,3.1,9.3,-3.5,-8.700000000000001,-38.900000000000006,16
460,7751.0,-0.5,-0.1,0.1,0.2,3.2,9.200000000000001,-1.6,-9.4,-38.900000000000006,16
461,7767.0,-0.6000000000000001,0.0,-0.1,0.1,3.3000000000000003,9.1,-2.0,-8.700000000000001,-38.0,16
462,7784.0,-0.7000000000000001,0.0,-0.1,0.0,3.3000000000000003,9.200000000000001,-3.4,-6.8,-36.300000000000004,16
463,7801.0,-0.7000000000000001,-0.1,0.1,-0.1,3.2,9.3,-3.2,-5.8,-35.0,16
464,7821.0,-0.6000000000000001,-0.1,0.1,-0.1,3.1,9.3,-3.2,-5.2,-34.60000000000001,16
465,7835.0,-0.6000000000000001,-0.1,0.2,-0.2,3.2,9.5,-3.4,-3.8,-34.0,16
466,7851.0,-0.7000000000000001,0.0,0.4,-0.30000000000000004,3.2,9.600000000000001,-2.5,-3.6000000000000005,-32.5,16
467,7869.0,-0.7000000000000001,-0.1,0.4,-0.4,3.1,9.600000000000001,-1.1,-4.9,-30.799999999999997,16
468,7887.0,-0.7000000000000001,-0.1,0.30000000000000004,-0.4,3.0,9.600000000000001,-0.30000000000000004,-6.300000000000001,-29.700000000000006,16
469,7901.0,-0.7000000000000001,-0.1,0.2,-0.4,3.1,9.5,-0.5,-8.600000000000001,-28.900000000000002,16
470,7924.0,-0.6000000000000001,0.0,0.1,-0.4,3.2,9.4,-1.2000000000000002,-10.700000000000001,-27.9,16
471,7934.0,-0.6000000000000001,0.2,-0.1,-0.4,3.3000000000000003,9.3,-1.4,-11.900000000000002,-26.1,16
472,7951.0,-0.6000000000000001,0.2,-0.1,-0.4,3.3000000000000003,9.3,-1.4,-11.900000000000002,-26.1,16
473,7967.0,-0.5,0.2,-0.2,-0.30000000000000004,3.5,9.0,-2.1,-8.4,-20.400000000000002,16
474,7984.0,-0.4,0.2,-0.2,-0.30000000000000004,3.4000000000000004,9.0,-2.1,-6.8,-17.7,16
475,8001.0,-0.4,0.2,-0.30000000000000004,-0.2,3.4000000000000004,9.0,-2.7,-5.9,-15.6,16
476,8021.0,-0.30000000000000004,0.1,-0.2,-0.1,3.3000000000000003,9.1,-3.8,-5.6,-13.8,16
477,8034.0,-0.2,0.1,-0.1,0.0,3.3000000000000003,9.1,-4.6,-7.400000000000001,-12.9,16
478,8051.0,-0.1,0.0,-0.1,0.1,3.2,9.1,-5.6,-9.600000000000001,-12.5,16
479,8067.0,0.0,0.1,-0.2,0.1,3.3000000000000003,9.1,-6.600000000000001,-9.2,-11.8,16
480,8084.0,0.0,0.1,0.0,0.2,3.2,9.200000000000001,-5.4,-7.8,-10.4,16
481,8103.0,0.1,0.0,0.0,0.30000000000000004,3.2,9.200000000000001,-3.7000000000000006,-6.9,-9.8,16
482,8125.0,0.1,0.0,0.0,0.30000000000000004,3.2,9.3,-5.500000000000001,-4.7,-10.1,16
483,8136.0,0.1,0.1,0.1,0.30000000000000004,3.2,9.3,-5.500000000000001,-4.7,-10.1,16
484,8154.0,0.2,0.0,0.1,0.4,3.1,9.4,-6.8,-5.9,-10.5,16
485,8167.0,0.2,0.0,0.1,0.4,3.1,9.4,-6.8,-5.9,-10.5,16
486,8184.0,0.1,0.0,0.2,0.4,3.1,9.4,-5.8,-4.2,-10.8,16
487,8200.0,0.1,0.0,0.2,0.4,3.1,9.4,-5.8,-4.2,-10.8,16
488,8217.0,0.0,0.0,0.30000000000000004,0.30000000000000004,3.1,9.600000000000001,-2.2,0.2,-10.600000000000001,16
489,8234.0,-0.1,0.0,0.30000000000000004,0.2,3.1,9.600000000000001,-0.9000000000000001,1.3,-10.5,16
490,8251.0,-0.1,0.0,0.30000000000000004,0.1,3.1,9.600000000000001,-0.1,-0.6000000000000001,-10.299999999999999,16
491,8269.0,0.0,0.1,0.30000000000000004,0.2,3.2,9.600000000000001,0.4,-4.5,-9.700000000000001,16
492,8285.0,0.0,0.1,0.0,0.2,3.2,9.3,-0.5,-7.200000000000001,-9.0,16
493,8300.0,0.1,0.2,-0.2,0.30000000000000004,3.2,9.200000000000001,-3.0,-6.300000000000001,-8.100000000000001,16
494,8320.0,0.0,0.1,0.0,0.2,3.2,9.3,-3.6000000000000005,-3.3000000000000007,-6.699999999999999,16
495,8335.0,0.0,0.0,0.1,0.30000000000000004,3.0,9.5,-1.2000000000000002,-1.6,-5.4,16
496,8351.0,0.1,-0.1,0.1,0.4,3.0,9.4,1.4,-2.3,-5.2,16
497,8367.0,0.2,0.0,-0.1,0.4,3.1,9.3,1.4,-3.0,-5.6,16
498,8384.0,0.2,0.0,-0.1,0.4,3.1,9.200000000000001,-0.6000000000000001,-3.3000000000000007,-5.7,16
499,8401.0,0.1,0.0,-0.1,0.4,3.1,9.200000000000001,-1.9,-3.5,-5.300000000000001,16
500,8420.0,0.1,0.0,-0.2,0.4,3.0,9.200000000000001,-2.1,-2.5,-4.800000000000001,16
501,8434.0,0.1,-0.1,-0.1,0.30000000000000004,3.0,9.200000000000001,-2.0,-0.2,-4.5,16
502,8451.0,0.0,-0.1,0.0,0.30000000000000004,3.0,9.4,-1.1,2.7,-4.0,16
503,8467.0,0.0,-0.1,0.1,0.30000000000000004,2.9000000000000004,9.4,0.30000000000000004,2.7,-3.9,16
504,8484.0,0.0,-0.1,0.1,0.30000000000000004,2.9000000000000004,9.4,0.5,0.8,-4.0,16
505,8501.0,0.1,-0.1,0.0,0.30000000000000004,3.0,9.4,-0.1,-2.2,-4.1,16
506,8522.0,0.1,-0.1,-0.2,0.4,3.0,9.1,-3.2,-4.1,-4.0,16
507,8535.0,0.1,0.0,-0.2,0.4,3.0,9.1,-3.2,-4.1,-4.0,16
508,8551.0,0.1,0.0,-0.1,0.4,3.0,9.200000000000001,-3.0,-0.9000000000000001,-3.5,16
509,8568.0,0.0,0.0,0.0,0.30000000000000004,3.0,9.4,-1.0,1.6,-2.6,16
510,8584.0,0.0,0.0,0.1,0.30000000000000004,3.0,9.4,1.0,1.7,-2.0,16
511,8601.0,0.0,0.0,0.1,0.30000000000000004,3.0,9.4,0.5,0.6000000000000001,-2.2,16
512,8622.0,0.0,0.0,0.0,0.30000000000000004,3.0,9.3,-1.1,-2.7,-2.9,16
513,8634.0,0.0,0.1,-0.1,0.30000000000000004,3.1,9.200000000000001,-3.3000000000000007,-5.500000000000001,-3.2,16
514,8651.0,0.0,0.1,-0.2,0.30000000000000004,3.1,9.200000000000001,-4.300000000000001,-4.1,-2.8,16
515,8671.0,0.0,0.2,-0.1,0.30000000000000004,3.2,9.200000000000001,-3.4,-1.4,-1.8000000000000003,16
516,8684.0,0.0,0.2,-0.1,0.30000000000000004,3.2,9.200000000000001,-1.6,1.5,-0.5,16
517,8701.0,0.0,0.1,-0.1,0.30000000000000004,3.1,9.200000000000001,-1.2000000000000002,3.8,0.4,16
518,8719.0,0.0,0.1,0.0,0.30000000000000004,3.1,9.3,-1.8000000000000003,4.0,0.6000000000000001,16
519,8734.0,0.0,0.1,0.1,0.30000000000000004,3.1,9.4,-2.2,2.7,0.7,16
520,8751.0,0.0,0.1,0.1,0.30000000000000004,3.1,9.4,-2.7,1.3,0.9000000000000001,16
521,8767.0,0.1,0.1,0.0,0.30000000000000004,3.1,9.4,-3.2,0.5,1.2000000000000002,16
522,8784.0,0.1,0.1,0.1,0.4,3.1,9.4,-3.0,1.9,1.7,16
523,8802.0,0.1,0.0,0.1,0.4,3.0,9.5,-1.9,2.5,1.6,16
524,8818.0,0.1,0.0,0.1,0.4,3.0,9.5,-1.9,2.5,1.6,16
525,8834.0,0.1,0.0,0.30000000000000004,0.4,3.0,9.600000000000001,0.1,2.4000000000000004,1.9,16
526,8850.0,0.1,0.0,0.1,0.4,3.0,9.5,1.1,-0.9000000000000001,1.6,16
527,8867.0,0.2,0.0,-0.1,0.5,3.0,9.3,-0.8,-1.0,1.3,16
528,8884.0,0.2,0.0,0.0,0.5,3.0,9.3,-2.1,0.1,0.9000000000000001,16
529,8900.0,0.1,0.0,-0.1,0.5,3.0,9.3,-1.5,-0.1,0.6000000000000001,16
530,8921.0,0.1,0.0,0.1,0.5,3.0,9.4,-0.5,2.4000000000000004,1.1,16
531,8934.0,0.1,-0.1,0.0,0.5,2.9000000000000004,9.4,1.5,2.0,1.1,16
532,8950.0,0.1,-0.1,-0.2,0.5,2.9000000000000004,9.1,0.30000000000000004,0.30000000000000004,0.4,16
533,8967.0,0.1,-0.1,0.0,0.4,2.9000000000000004,9.3,-2.1,2.1,0.4,16
534,8984.0,0.1,-0.1,0.1,0.4,2.8000000000000003,9.4,-1.9,1.0,0.2,16
535,9003.0,0.2,-0.1,-0.1,0.5,2.9000000000000004,9.3,-1.1,-0.5,-0.4,16
536,9019.0,0.2,0.0,-0.2,0.5,2.9000000000000004,9.200000000000001,-1.9,0.2,-1.1,16
537,9034.0,0.2,0.0,-0.1,0.5,3.0,9.200000000000001,-3.4,0.6000000000000001,-1.4,16
538,9052.0,0.1,0.0,0.1,0.4,3.0,9.4,-3.2,1.9,-0.8,16
539,9067.0,0.1,-0.1,0.1,0.4,2.9000000000000004,9.5,-1.3,2.1,-0.30000000000000004,16
540,9084.0,0.1,-0.1,0.1,0.5,2.8000000000000003,9.5,-0.6000000000000001,1.7,-0.8,16
541,9101.0,0.1,-0.1,0.1,0.5,2.8000000000000003,9.5,-0.8,2.1,-1.7,16
542,9119.0,0.1,0.0,0.2,0.4,2.9000000000000004,9.600000000000001,-0.8,0.8,-2.2,16
543,9160.0,0.1,0.0,0.0,0.4,2.9000000000000004,9.4,-0.6000000000000001,0.0,-3.4,16
544,9167.0,0.0,0.0,0.0,0.4,2.9000000000000004,9.4,-0.6000000000000001,0.0,-3.4,16
545,9184.0,0.0,0.0,0.0,0.4,2.9000000000000004,9.4,0.1,0.9000000000000001,-3.3000000000000007,16
546,9200.0,0.0,-0.1,0.1,0.4,2.8000000000000003,9.4,1.2000000000000002,1.6,-3.1,16
547,9217.0,0.0,-0.1,-0.1,0.4,2.8000000000000003,9.3,1.9,0.2,-3.8,16
548,9234.0,0.0,0.0,-0.4,0.4,2.9000000000000004,9.1,0.8,-1.6,-5.0,16
549,9254.0,-0.1,0.2,-0.1,0.2,3.0,9.4,-2.1,1.0,-2.8,16
550,9268.0,-0.1,0.1,0.0,0.2,3.0,9.4,-2.1,1.0,-2.8,16
551,9286.0,0.0,0.0,-0.2,0.30000000000000004,2.9000000000000004,9.200000000000001,-0.9000000000000001,-0.8,-2.0,16
552,9304.0,0.0,0.0,-0.2,0.30000000000000004,2.9000000000000004,9.3,-3.0,3.9,-2.1,16
553,9318.0,-0.1,0.0,0.0,0.30000000000000004,2.9000000000000004,9.3,-3.0,3.9,-2.1,16
554,9338.0,-0.1,0.0,0.1,0.2,2.9000000000000004,9.5,-1.9,2.4000000000000004,-1.4,16
555,9351.0,0.0,0.0,0.1,0.30000000000000004,2.9000000000000004,9.4,-1.4,0.4,-1.1,16
556,9367.0,0.1,0.0,0.1,0.4,2.8000000000000003,9.4,-2.0,1.1,-1.7,16
557,9384.0,0.0,0.0,0.1,0.30000000000000004,2.9000000000000004,9.5,-1.3,0.9000000000000001,-2.4000000000000004,16
558,9401.0,0.0,0.1,0.0,0.30000000000000004,2.9000000000000004,9.4,-0.6000000000000001,1.3,-2.1,16
559,9419.0,0.0,0.1,0.1,0.30000000000000004,2.9000000000000004,9.5,-0.9000000000000001,3.0,-1.5,16
560,9434.0,0.0,0.0,0.1,0.30000000000000004,2.9000000000000004,9.5,-0.7,1.8000000000000003,-1.7,16
561,9451.0,0.0,0.0,0.2,0.30000000000000004,2.9000000000000004,9.600000000000001,-0.8,0.8,-2.1,16
562,9467.0,0.0,0.0,0.1,0.30000000000000004,2.9000000000000004,9.5,-0.30000000000000004,-0.30000000000000004,-2.1,16
563,9484.0,0.0,0.0,-0.1,0.30000000000000004,2.8000000000000003,9.4,-0.2,-1.4,-2.7,16
564,9501.0,0.0,0.0,-0.1,0.2,2.9000000000000004,9.4,-0.5,0.6000000000000001,-2.8,16
565,9518.0,-0.1,0.0,0.0,0.1,2.9000000000000004,9.4,0.5,2.3,-2.3,16
566,9534.0,-0.1,0.1,0.0,0.1,2.9000000000000004,9.4,1.3,2.2,-1.6,16
567,9551.0,0.0,0.1,0.0,0.2,2.9000000000000004,9.4,1.0,1.9,-1.0,16
568,9567.0,0.0,0.0,-0.1,0.2,2.9000000000000004,9.3,0.0,-0.30000000000000004,-1.0,16
569,9584.0,-0.1,0.0,0.0,0.2,2.9000000000000004,9.3,-1.6,-0.8,-0.9000000000000001,16
570,9603.0,-0.1,0.0,0.1,0.2,2.9000000000000004,9.5,-0.30000000000000004,0.2,-0.2,16
571,9619.0,0.0,-0.1,0.0,0.2,2.8000000000000003,9.3,1.8000000000000003,-1.5,-0.2,16
572,9636.0,0.1,0.0,-0.30000000000000004,0.30000000000000004,2.9000000000000004,9.1,0.8,-0.7,-0.9000000000000001,16
573,9651.0,0.0,0.1,-0.30000000000000004,0.2,3.0,9.1,-1.9,2.4000000000000004,-0.5,16
574,9668.0,0.0,0.1,0.0,0.2,3.0,9.4,-3.1,4.1,0.30000000000000004,16
575,9684.0,0.0,0.0,0.30000000000000004,0.2,2.9000000000000004,9.600000000000001,-0.6000000000000001,3.9,1.1,16
576,9700.0,0.0,-0.1,0.2,0.2,2.8000000000000003,9.600000000000001,0.9000000000000001,1.6,0.8,16
577,9719.0,0.1,-0.1,0.0,0.30000000000000004,2.8000000000000003,9.4,0.30000000000000004,-1.5,-0.30000000000000004,16
578,9735.0,0.1,0.0,-0.2,0.30000000000000004,2.8000000000000003,9.200000000000001,-2.4000000000000004,-2.6,-1.3,16
579,9751.0,0.0,0.0,-0.1,0.2,2.9000000000000004,9.200000000000001,-4.1,-1.0,-1.3,16
580,9767.0,0.0,0.0,0.0,0.2,2.8000000000000003,9.4,-2.5,2.2,-0.5,16
581,9784.0,0.0,-0.1,0.0,0.2,2.8000000000000003,9.4,0.2,3.6000000000000005,-0.4,16
582,9801.0,0.0,0.0,0.0,0.2,2.8000000000000003,9.3,0.5,4.6,-0.6000000000000001,16
583,9819.0,0.0,0.0,0.0,0.2,2.8000000000000003,9.4,-0.4,4.9,-0.6000000000000001,16
584,9837.0,0.0,0.0,0.1,0.2,2.8000000000000003,9.5,-1.2000000000000002,2.2,-0.8,16
585,9851.0,0.0,-0.1,0.1,0.2,2.8000000000000003,9.5,-1.6,1.4,-1.0,16
586,9867.0,0.0,-0.1,0.1,0.2,2.7,9.5,-1.1,0.9000000000000001,-1.3,16
587,9887.0,0.1,0.0,0.0,0.2,2.8000000000000003,9.4,-0.7,0.6000000000000001,-1.9,16
588,9902.0,0.0,0.1,0.0,0.2,2.9000000000000004,9.4,-0.6000000000000001,1.5,-1.6,16
589,9917.0,0.1,0.1,0.0,0.2,2.9000000000000004,9.3,-0.6000000000000001,0.7,-1.7,16
590,9934.0,0.1,0.1,-0.2,0.2,2.9000000000000004,9.200000000000001,-1.7,0.4,-2.2,16
591,9950.0,0.0,0.1,-0.2,0.2,2.9000000000000004,9.200000000000001,-3.0,1.8000000000000003,-2.0,16
592,9967.0,0.0,0.1,0.0,0.1,2.9000000000000004,9.4,-2.6,3.2,-1.3,16
593,9985.0,0.0,0.0,0.0,0.1,2.8000000000000003,9.4,-1.2000000000000002,3.6000000000000005,-0.9000000000000001,16
594,10003.0,0.0,0.0,0.0,0.2,2.8000000000000003,9.4,-1.2000000000000002,3.3000000000000007,-1.2000000000000002,16
595,10018.0,0.0,0.0,-0.1,0.2,2.8000000000000003,9.3,-1.9,2.8,-1.9,16
596,10034.0,0.0,0.0,-0.1,0.1,2.8000000000000003,9.3,-2.7,2.8,-1.9,16
597,10050.0,-0.1,0.0,0.0,0.0,2.8000000000000003,9.4,-2.3,3.5,-1.5,16
598,10067.0,-0.1,0.0,0.1,0.0,2.8000000000000003,9.5,-1.6,4.2,-1.2000000000000002,16
599,10084.0,0.0,0.0,0.1,0.0,2.8000000000000003,9.5,-1.4,4.2,-1.2000000000000002,16
600,10101.0,0.0,0.0,0.0,0.0,2.8000000000000003,9.4,-2.2,3.0,-1.6,16
601,10118.0,-0.1,0.0,0.0,0.0,2.8000000000000003,9.4,-2.4000000000000004,2.3,-1.8000000000000003,16
602,10134.0,-0.1,0.1,0.0,-0.1,2.8000000000000003,9.4,-2.2,2.7,-1.0,16
603,10151.0,-0.1,0.0,0.0,-0.1,2.8000000000000003,9.4,-2.1,3.3000000000000007,-0.30000000000000004,16
604,10167.0,-0.1,0.0,0.1,-0.1,2.7,9.5,-1.8000000000000003,4.4,0.1,16
605,10184.0,-0.1,-0.1,0.1,-0.1,2.7,9.600000000000001,-1.2000000000000002,4.7,0.2,16
606,10201.0,-0.1,-0.1,0.0,-0.1,2.7,9.5,-0.6000000000000001,2.9,0.0,16
607,10217.0,0.0,-0.1,-0.1,-0.1,2.7,9.3,-2.0,2.5,-0.1,16
608,10234.0,0.0,-0.1,0.0,-0.1,2.7,9.4,-2.8,3.9,-0.1,16
609,10251.0,-0.1,0.0,0.1,-0.1,2.7,9.5,-1.7,4.1,0.5,16
610,10271.0,0.0,0.0,0.1,-0.1,2.7,9.600000000000001,-0.4,3.6000000000000005,1.3,16
611,10284.0,0.0,0.0,0.1,-0.1,2.7,9.5,0.0,3.0,1.3,16
612,10303.0,0.0,0.0,0.0,-0.1,2.7,9.5,-1.3,2.3,0.8,16
613,10318.0,0.0,0.0,0.2,-0.1,2.7,9.600000000000001,-2.2,2.3,0.6000000000000001,16
614,10334.0,0.0,0.0,0.2,-0.1,2.7,9.600000000000001,-0.7,1.2000000000000002,0.5,16
615,10350.0,0.0,0.0,0.0,-0.1,2.7,9.5,0.4,0.6000000000000001,0.8,16
616,10367.0,0.0,0.0,0.1,-0.1,2.7,9.5,0.30000000000000004,2.5,1.4,16
617,10384.0,0.1,0.0,0.1,0.0,2.7,9.600000000000001,1.1,2.6,1.3,16
618,10400.0,0.0,0.0,0.0,-0.1,2.7,9.4,1.9,1.7,0.7,16
619,10417.0,-0.1,0.1,0.0,-0.2,2.8000000000000003,9.4,0.8,2.8,1.1,16
620,10434.0,-0.1,0.0,0.1,-0.2,2.7,9.5,1.2000000000000002,1.5,1.9,16
621,10450.0,-0.1,-0.1,-0.1,-0.2,2.7,9.3,1.5,-1.8000000000000003,2.1,16
622,10467.0,0.0,0.0,-0.30000000000000004,-0.1,2.7,9.1,-1.2000000000000002,-0.7,1.9,16
623,10484.0,0.0,0.0,-0.2,-0.2,2.7,9.3,-2.6,1.5,2.1,16
624,10501.0,-0.1,0.0,0.1,-0.2,2.7,9.5,-1.6,1.6,2.8,16
625,10517.0,0.0,-0.1,0.1,-0.1,2.6,9.5,-0.30000000000000004,1.4,2.8,16
626,10534.0,0.0,-0.1,0.1,-0.1,2.6,9.5,-0.30000000000000004,1.7,2.1,16
627,10550.0,0.0,0.0,0.0,-0.2,2.7,9.5,-0.6000000000000001,0.4,1.4,16
628,10567.0,-0.1,0.1,0.1,-0.2,2.8000000000000003,9.600000000000001,0.0,-0.1,1.9,16
629,10584.0,0.0,0.1,0.0,-0.2,2.8000000000000003,9.5,0.7,-0.5,2.6,16
630,10601.0,0.0,0.1,-0.1,-0.1,2.8000000000000003,9.4,0.0,-0.4,3.0,16
631,10617.0,0.0,0.0,0.0,-0.1,2.8000000000000003,9.4,-1.1,1.0,3.3000000000000007,16
632,10634.0,0.0,0.0,0.1,-0.2,2.7,9.5,-0.5,1.0,3.6000000000000005,16
633,10653.0,0.0,0.0,0.1,-0.1,2.7,9.5,0.9000000000000001,-0.1,3.6000000000000005,16
634,10667.0,0.1,-0.1,-0.1,-0.1,2.6,9.4,1.1,-0.7,3.1,16
635,10684.0,0.0,0.0,-0.1,-0.1,2.7,9.3,-0.1,-0.4,2.6,16
636,10701.0,0.0,0.0,-0.1,-0.1,2.7,9.3,-0.1,-0.4,2.6,16
637,10718.0,0.1,-0.1,0.0,-0.1,2.7,9.5,0.7,-0.7,3.6000000000000005,16
638,10734.0,0.1,-0.1,-0.30000000000000004,0.0,2.6,9.200000000000001,0.0,-1.8000000000000003,2.8,16
639,10751.0,0.1,0.0,-0.2,0.0,2.7,9.200000000000001,-2.3,0.30000000000000004,2.3,16
640,10767.0,0.1,0.0,0.1,0.0,2.7,9.5,-2.4000000000000004,1.4,2.6,16
641,10784.0,0.1,-0.1,0.0,0.0,2.6,9.5,-0.5,-0.1,2.2,16
642,10801.0,0.1,-0.1,-0.2,0.1,2.6,9.3,-0.5,0.1,1.2000000000000002,16
643,10821.0,0.1,0.0,-0.1,0.0,2.7,9.4,-2.1,3.1,0.6000000000000001,16
644,10834.0,0.0,0.0,0.30000000000000004,-0.1,2.7,9.700000000000001,-1.0,4.300000000000001,1.2000000000000002,16
645,10851.0,0.0,0.0,0.30000000000000004,-0.1,2.6,9.700000000000001,1.3,2.2,1.6,16
646,10867.0,0.1,-0.1,0.1,0.0,2.6,9.5,1.2000000000000002,-0.1,0.6000000000000001,16
647,10884.0,0.0,0.0,0.0,-0.1,2.6,9.4,-0.6000000000000001,-0.7,-0.8,16
648,10900.0,0.0,0.1,-0.1,-0.1,2.8000000000000003,9.4,-1.8000000000000003,-1.2000000000000002,-0.8,16
649,10920.0,-0.1,0.2,0.1,-0.2,2.8000000000000003,9.600000000000001,-1.6,0.2,0.6000000000000001,16
650,10936.0,-0.1,0.1,0.1,-0.2,2.8000000000000003,9.600000000000001,0.30000000000000004,-0.7,1.8000000000000003,16
651,10951.0,-0.1,0.0,-0.1,-0.1,2.7,9.4,-0.8,-2.2,1.8000000000000003,16
652,10967.0,0.0,0.0,0.1,-0.1,2.6,9.5,-2.5,-0.1,1.5,16
653,10985.0,-0.1,0.0,0.30000000000000004,-0.2,2.6,9.700000000000001,-0.30000000000000004,-0.8,1.6,16
654,11000.0,-0.1,0.0,0.2,-0.1,2.6,9.600000000000001,2.4000000000000004,-2.8,1.6,16
655,11019.0,0.0,0.0,-0.1,-0.1,2.7,9.4,2.6,-2.3,1.3,16
656,11034.0,0.0,0.1,-0.1,-0.1,2.7,9.3,1.1,-1.2000000000000002,1.1,16
657,11051.0,-0.1,0.1,-0.1,-0.1,2.8000000000000003,9.4,0.6000000000000001,-0.4,1.7,16
658,11067.0,0.0,0.0,0.1,-0.1,2.7,9.5,1.5,0.2,2.4000000000000004,16
659,11084.0,0.0,0.0,0.1,-0.1,2.7,9.600000000000001,2.3,0.5,2.2,16
660,11114.0,0.0,0.0,0.0,-0.1,2.7,9.4,1.4,-2.4000000000000004,1.2000000000000002,16
661,11117.0,0.0,0.0,0.0,-0.1,2.7,9.4,1.4,-2.4000000000000004,1.2000000000000002,16
662,11134.0,0.0,0.0,0.0,0.0,2.7,9.5,0.7,-2.2,1.0,16
663,11153.0,0.0,0.0,0.0,0.0,2.7,9.5,1.6,-2.1,1.2000000000000002,16
664,11167.0,0.1,0.0,-0.1,0.0,2.7,9.4,2.2,-1.9,1.4,16
665,11185.0,0.0,0.0,-0.1,0.0,2.7,9.4,1.8000000000000003,-0.30000000000000004,1.6,16
666,11201.0,0.0,0.0,0.1,0.0,2.7,9.600000000000001,2.3,0.30000000000000004,2.1,16
667,11217.0,0.0,-0.1,0.0,0.0,2.6,9.5,2.9,-1.7,1.8000000000000003,16
668,11234.0,0.1,-0.1,0.0,0.1,2.7,9.5,2.3,-2.3,0.9000000000000001,16
669,11251.0,0.0,0.0,-0.1,0.0,2.7,9.4,2.5,-2.8,0.4,16
670,11267.0,0.0,0.0,-0.1,0.0,2.8000000000000003,9.3,2.2,-3.0,0.4,16
671,11284.0,0.1,0.1,-0.2,0.1,2.8000000000000003,9.3,1.7,-1.5,0.7,16
672,11300.0,0.0,0.0,-0.1,0.0,2.8000000000000003,9.3,1.6,-0.5,1.1,16
673,11317.0,0.0,0.0,-0.1,0.0,2.8000000000000003,9.4,1.7,-0.8,1.1,16
674,11334.0,0.0,0.0,0.0,0.0,2.7,9.4,1.5,-0.6000000000000001,0.7,16
675,11351.0,0.0,0.0,0.0,0.0,2.7,9.4,1.6,-0.9000000000000001,1.0,16
676,11369.0,0.0,0.0,0.0,0.0,2.8000000000000003,9.5,1.6,-2.2,1.3,16
677,11384.0,0.0,-0.1,-0.1,0.1,2.7,9.4,1.2000000000000002,-3.4,1.3,16
678,11401.0,0.0,-0.1,-0.1,0.1,2.7,9.4,0.1,-2.9,0.9000000000000001,16
679,11417.0,0.0,-0.1,0.0,0.1,2.7,9.5,0.0,-2.6,0.4,16
680,11434.0,0.0,0.0,0.1,0.1,2.7,9.5,1.6,-2.8,0.30000000000000004,16
681,11451.0,0.0,0.0,0.0,0.1,2.8000000000000003,9.4,2.2,-2.7,0.30000000000000004,16
682,11467.0,0.1,0.0,-0.1,0.1,2.8000000000000003,9.4,1.5,-2.6,0.0,16
683,11484.0,0.0,0.0,0.0,0.1,2.8000000000000003,9.4,0.5,-2.1,-0.30000000000000004,16
684,11501.0,0.0,0.0,0.2,0.1,2.8000000000000003,9.600000000000001,0.9000000000000001,-2.3,-0.30000000000000004,16
685,11518.0,0.1,0.0,0.0,0.2,2.8000000000000003,9.5,2.3,-3.7000000000000006,-0.2,16
686,11536.0,0.1,0.0,-0.1,0.2,2.8000000000000003,9.3,2.4000000000000004,-4.300000000000001,-0.30000000000000004,16
687,11551.0,0.1,0.1,-0.1,0.2,2.9000000000000004,9.3,1.6,-2.8,-0.30000000000000004,16
688,11568.0,0.0,0.0,0.0,0.2,2.9000000000000004,9.4,2.0,-1.8000000000000003,0.2,16
689,11584.0,0.1,0.0,0.1,0.2,2.8000000000000003,9.5,3.4,-1.8000000000000003,0.5,16
690,11601.0,0.1,0.0,0.0,0.30000000000000004,2.8000000000000003,9.4,4.2,-3.0,-0.1,16
691,11617.0,0.1,0.1,-0.2,0.30000000000000004,2.9000000000000004,9.3,2.7,-5.1000000000000005,-0.8,16
692,11634.0,0.0,0.1,-0.2,0.2,2.9000000000000004,9.200000000000001,-0.2,-5.1000000000000005,-0.4,16
693,11650.0,0.0,0.0,0.1,0.2,2.8000000000000003,9.5,-1.3,-3.8,0.4,16
694,11667.0,0.1,-0.1,0.0,0.30000000000000004,2.7,9.5,0.9000000000000001,-5.1000000000000005,0.1,16
695,11684.0,0.1,-0.1,-0.1,0.30000000000000004,2.8000000000000003,9.3,1.8000000000000003,-4.9,-0.8,16
696,11700.0,0.1,0.0,-0.2,0.30000000000000004,2.9000000000000004,9.3,1.2000000000000002,-3.5,-0.7,16
697,11717.0,0.0,0.0,-0.1,0.30000000000000004,2.9000000000000004,9.3,0.6000000000000001,-3.6000000000000005,-0.2,16
698,11734.0,0.1,0.0,-0.1,0.4,2.8000000000000003,9.3,-0.4,-2.9,-0.4,16
699,11750.0,0.1,-0.1,0.1,0.30000000000000004,2.8000000000000003,9.4,-0.8,-0.9000000000000001,-0.9000000000000001,16
700,11767.0,0.0,0.0,0.30000000000000004,0.30000000000000004,2.8000000000000003,9.600000000000001,0.7,-0.4,-1.2000000000000002,16
701,11784.0,0.0,0.0,0.2,0.30000000000000004,2.8000000000000003,9.600000000000001,2.5,-1.9,-1.4,16
702,11801.0,0.0,0.0,0.0,0.30000000000000004,2.9000000000000004,9.4,2.4000000000000004,-2.5,-1.9,16
703,11817.0,0.0,0.1,0.0,0.30000000000000004,2.9000000000000004,9.4,1.3,-2.7,-2.0,16
704,11834.0,0.0,0.1,0.0,0.30000000000000004,3.0,9.4,1.2000000000000002,-3.0,-1.6,16
705,11851.0,0.0,0.1,-0.1,0.30000000000000004,3.0,9.3,1.3,-3.4,-1.2000000000000002,16
706,11867.0,0.0,0.0,-0.1,0.30000000000000004,2.9000000000000004,9.200000000000001,0.5,-2.3,-1.4,16
707,11884.0,0.0,0.0,-0.1,0.30000000000000004,2.9000000000000004,9.3,0.5,-1.2000000000000002,-1.8000000000000003,16
708,11901.0,0.0,0.1,-0.1,0.30000000000000004,3.0,9.3,1.4,-1.0,-1.7,16
709,11919.0,0.0,0.1,-0.1,0.30000000000000004,3.0,9.200000000000001,1.3,-0.4,-1.4,16
710,11936.0,0.0,0.1,-0.1,0.30000000000000004,3.0,9.200000000000001,0.9000000000000001,0.1,-0.9000000000000001,16
711,11951.0,0.0,0.1,-0.1,0.30000000000000004,3.0,9.200000000000001,0.9000000000000001,0.1,-0.9000000000000001,16
712,11967.0,0.0,0.1,0.0,0.30000000000000004,3.0,9.4,-0.9000000000000001,0.2,-0.1,16
713,11984.0,0.0,0.0,0.1,0.30000000000000004,2.9000000000000004,9.5,-0.8,-0.5,0.2,16
714,12000.0,0.0,-0.1,0.1,0.4,2.8000000000000003,9.5,-0.5,-1.6,0.0,16
715,12017.0,0.1,-0.1,0.1,0.4,2.8000000000000003,9.4,-0.2,-1.7,-0.8,16
716,12034.0,0.1,0.0,0.0,0.4,2.9000000000000004,9.3,0.0,-1.6,-1.3,16
717,12052.0,0.1,0.0,0.0,0.4,2.9000000000000004,9.3,-0.30000000000000004,-0.5,-1.0,16
718,12067.0,0.0,0.0,0.1,0.4,3.0,9.4,0.1,0.7,-0.30000000000000004,16
719,12084.0,0.0,-0.1,0.1,0.30000000000000004,2.9000000000000004,9.5,0.9000000000000001,0.4,0.0,16
720,12100.0,0.0,-0.1,0.1,0.4,2.8000000000000003,9.4,1.0,-0.8,-0.4,16
721,12117.0,0.0,-0.1,0.0,0.4,2.8000000000000003,9.3,0.2,-1.9,-1.1,16
722,12135.0,0.0,0.0,0.0,0.30000000000000004,2.9000000000000004,9.3,-0.9000000000000001,-2.6,-1.2000000000000002,16
723,12150.0,0.0,0.0,0.0,0.4,2.9000000000000004,9.3,-1.0,-2.8,-0.8,16
724,12167.0,0.1,0.0,-0.1,0.4,2.9000000000000004,9.200000000000001,-0.6000000000000001,-2.5,-0.7,16
725,12185.0,0.1,0.0,-0.1,0.5,2.9000000000000004,9.200000000000001,-1.0,-0.30000000000000004,-0.9000000000000001,16
726,12206.0,0.0,0.0,0.0,0.4,2.8000000000000003,9.5,-0.1,1.8000000000000003,-0.6000000000000001,16
727,12218.0,0.0,-0.1,0.1,0.4,2.8000000000000003,9.5,-0.1,1.8000000000000003,-0.6000000000000001,16
728,12234.0,0.1,-0.1,0.0,0.4,2.8000000000000003,9.4,0.0,0.2,-1.0,16
729,12250.0,0.1,-0.1,0.0,0.4,2.8000000000000003,9.4,-1.2000000000000002,-0.8,-1.8000000000000003,16
730,12267.0,0.0,0.0,0.0,0.4,2.9000000000000004,9.4,-2.4000000000000004,-0.6000000000000001,-2.2,16
731,12285.0,0.0,0.1,0.2,0.30000000000000004,2.9000000000000004,9.5,-1.6,-0.6000000000000001,-1.4,16
732,12300.0,0.0,0.0,0.1,0.4,2.9000000000000004,9.5,0.2,-1.1,-0.9000000000000001,16
733,12320.0,0.1,0.0,-0.1,0.5,2.8000000000000003,9.3,0.4,-1.6,-1.6,16
734,12334.0,0.0,0.0,-0.1,0.4,2.9000000000000004,9.200000000000001,-1.7,0.2,-2.0,16
735,12350.0,-0.1,0.0,0.0,0.30000000000000004,2.9000000000000004,9.5,-2.3,2.3,-1.3,16
736,12367.0,-0.1,0.0,0.30000000000000004,0.30000000000000004,2.8000000000000003,9.600000000000001,0.0,1.4,-0.7,16
737,12384.0,0.0,0.0,0.1,0.30000000000000004,2.9000000000000004,9.5,0.8,-0.5,-0.9000000000000001,16
738,12401.0,0.0,0.0,0.1,0.30000000000000004,2.9000000000000004,9.5,-0.5,-1.0,-1.1,16
739,12425.0,-0.1,0.0,0.1,0.30000000000000004,2.8000000000000003,9.4,-0.8,-3.1,-0.6000000000000001,16
740,12434.0,0.0,0.0,0.0,0.30000000000000004,2.8000000000000003,9.4,-0.8,-3.1,-0.6000000000000001,16
741,12450.0,0.0,-0.1,0.0,0.4,2.8000000000000003,9.4,-0.2,-2.1,-0.30000000000000004,16
742,12467.0,0.0,-0.2,-0.1,0.4,2.7,9.3,0.8,-1.5,-0.7,16
743,12484.0,0.0,-0.1,-0.1,0.4,2.8000000000000003,9.3,1.0,-1.4,-1.2000000000000002,16
744,12507.0,0.0,0.0,-0.1,0.4,2.8000000000000003,9.3,0.7,-0.1,-1.0,16
745,12517.0,0.0,0.0,-0.1,0.4,2.8000000000000003,9.3,0.2,-0.1,-0.9000000000000001,16
746,12534.0,0.1,0.0,-0.1,0.5,2.8000000000000003,9.3,-0.6000000000000001,-1.0,-1.4,16
747,12551.0,0.1,0.0,-0.2,0.5,2.8000000000000003,9.200000000000001,-1.8000000000000003,-1.8000000000000003,-2.2,16
748,12567.0,0.0,0.0,-0.1,0.4,2.8000000000000003,9.3,-3.2,-1.1,-2.4000000000000004,16
749,12584.0,0.0,-0.1,0.2,0.4,2.8000000000000003,9.5,-2.3,0.2,-2.3,16
750,12607.0,0.0,0.0,0.2,0.4,2.8000000000000003,9.600000000000001,0.9000000000000001,0.1,-2.6,16
751,12617.0,0.0,0.0,0.0,0.4,2.8000000000000003,9.4,2.2,-0.5,-2.8,16
752,12634.0,0.0,0.1,-0.1,0.30000000000000004,2.9000000000000004,9.3,0.5,0.4,-2.3,16
753,12650.0,-0.1,0.0,0.0,0.30000000000000004,2.9000000000000004,9.4,-0.9000000000000001,0.9000000000000001,-1.7,16
754,12667.0,-0.1,0.0,0.1,0.30000000000000004,2.8000000000000003,9.4,-0.8,0.6000000000000001,-1.7,16
755,12684.0,-0.1,0.0,0.1,0.30000000000000004,2.8000000000000003,9.5,0.0,0.5,-2.0,16
756,12701.0,-0.1,0.0,0.1,0.2,2.9000000000000004,9.4,0.6000000000000001,0.7,-1.6,16
757,12725.0,-0.1,0.0,0.0,0.2,2.9000000000000004,9.4,0.6000000000000001,0.1,-1.0,16
758,12734.0,-0.1,0.0,0.0,0.2,2.9000000000000004,9.4,0.4,-0.2,-0.7,16
759,12750.0,-0.1,0.0,-0.1,0.2,2.8000000000000003,9.3,0.0,-0.4,-0.8,16
760,12767.0,-0.1,0.0,-0.1,0.2,2.9000000000000004,9.3,0.2,-0.30000000000000004,-0.5,16
761,12784.0,-0.1,0.1,-0.2,0.2,3.0,9.200000000000001,0.2,0.30000000000000004,0.2,16
762,12802.0,-0.1,0.1,-0.1,0.2,2.9000000000000004,9.3,-0.6000000000000001,2.3,1.4,16
763,12825.0,0.0,0.0,0.0,0.30000000000000004,2.9000000000000004,9.3,-0.2,2.7,1.9,16
764,12834.0,0.0,0.0,-0.1,0.30000000000000004,2.8000000000000003,9.3,0.0,2.4000000000000004,1.8000000000000003,16
765,12851.0,0.0,0.0,0.0,0.2,2.9000000000000004,9.4,-0.6000000000000001,3.0,2.2,16
766,12867.0,0.0,0.0,0.1,0.30000000000000004,2.8000000000000003,9.4,-1.2000000000000002,2.0,2.6,16
767,12884.0,0.0,-0.1,0.1,0.30000000000000004,2.8000000000000003,9.5,-2.0,0.5,2.2,16
768,12905.0,0.0,-0.1,0.1,0.30000000000000004,2.8000000000000003,9.5,-2.0,-0.2,1.4,16
769,12917.0,0.0,0.0,0.1,0.30000000000000004,2.8000000000000003,9.5,-1.4,-0.6000000000000001,1.3,16
770,12935.0,0.1,0.0,0.1,0.4,2.9000000000000004,9.5,-0.6000000000000001,0.5,1.8000000000000003,16
771,12950.0,0.1,0.0,0.1,0.4,2.8000000000000003,9.4,-0.1,0.7,1.9,16
772,12967.0,0.1,-0.1,-0.1,0.4,2.8000000000000003,9.3,-0.2,1.0,1.3,16
773,12984.0,0.0,0.0,0.0,0.30000000000000004,2.8000000000000003,9.4,-0.5,2.2,1.2000000000000002,16
774,13001.0,0.0,0.0,0.0,0.30000000000000004,2.8000000000000003,9.4,0.5,1.3,1.4,16
775,13024.0,0.0,0.1,-0.1,0.30000000000000004,2.9000000000000004,9.3,0.4,0.5,1.8000000000000003,16
776,13034.0,0.0,0.0,-0.1,0.30000000000000004,2.8000000000000003,9.3,-1.6,0.7,2.4000000000000004,16
777,13051.0,0.0,-0.1,0.0,0.30000000000000004,2.8000000000000003,9.4,-3.0,0.2,2.2,16
778,13067.0,0.0,0.0,0.0,0.30000000000000004,2.8000000000000003,9.4,-1.9,-0.2,1.8000000000000003,16
779,13084.0,0.0,0.0,-0.1,0.30000000000000004,2.8000000000000003,9.3,-0.8,-0.1,1.8000000000000003,16
780,13101.0,0.1,0.1,-0.2,0.30000000000000004,2.9000000000000004,9.200000000000001,-1.1,1.6,1.8000000000000003,16
781,13126.0,0.0,0.0,0.0,0.30000000000000004,2.8000000000000003,9.3,-1.4,4.5,2.1,16
782,13139.0,0.0,0.0,0.30000000000000004,0.2,2.7,9.700000000000001,1.3,4.9,2.7,16
783,13153.0,0.0,-0.1,0.30000000000000004,0.2,2.7,9.700000000000001,1.3,4.9,2.7,16
784,13167.0,0.0,-0.1,0.30000000000000004,0.2,2.7,9.700000000000001,1.1,1.7,1.8000000000000003,16
785,13184.0,0.0,-0.1,0.30000000000000004,0.30000000000000004,2.7,9.700000000000001,-0.2,-2.3,0.7,16
786,13200.0,0.0,0.0,0.1,0.30000000000000004,2.8000000000000003,9.5,-1.1,-5.2,0.1,16
787,13229.0,0.1,0.1,-0.1,0.4,2.9000000000000004,9.3,0.4,-1.9,0.8,16
788,13234.0,0.1,0.1,-0.1,0.4,2.9000000000000004,9.3,0.4,-1.9,0.8,16
789,13250.0,0.1,0.0,-0.1,0.5,2.8000000000000003,9.3,2.6,0.5,1.5,16
790,13267.0,0.30000000000000004,-0.1,-0.2,0.6000000000000001,2.8000000000000003,9.3,2.7,0.9000000000000001,0.9000000000000001,16
791,13284.0,0.30000000000000004,0.0,-0.1,0.6000000000000001,2.8000000000000003,9.3,1.5,1.6,-0.30000000000000004,16
792,13300.0,0.2,0.0,0.1,0.5,2.8000000000000003,9.5,0.7,1.2000000000000002,-1.0,16
793,13323.0,0.1,0.0,0.2,0.4,2.9000000000000004,9.700000000000001,1.2000000000000002,0.6000000000000001,-1.0,16
794,13334.0,0.0,0.0,0.30000000000000004,0.4,2.8000000000000003,9.700000000000001,2.3,0.6000000000000001,-0.8,16
795,13350.0,0.0,-0.1,0.30000000000000004,0.30000000000000004,2.7,9.700000000000001,3.4,-0.6000000000000001,-1.1,16
796,13367.0,0.0,-0.2,0.1,0.30000000000000004,2.7,9.600000000000001,3.0,-1.7,-1.6,16
797,13385.0,-0.1,-0.2,0.1,0.30000000000000004,2.7,9.600000000000001,2.7,-0.7,-1.9,16
798,13400.0,-0.2,-0.2,0.2,0.2,2.7,9.700000000000001,3.8,-0.1,-1.6,16
799,13424.0,-0.1,-0.2,0.2,0.2,2.6,9.700000000000001,6.0,-0.6000000000000001,-1.4,16
800,13434.0,0.0,-0.2,0.0,0.30000000000000004,2.7,9.5,6.600000000000001,-1.6,-2.2,16
801,13451.0,0.0,-0.2,0.0,0.30000000000000004,2.7,9.5,6.600000000000001,-1.6,-2.2,16
802,13468.0,-0.1,0.1,-0.2,0.30000000000000004,3.0,9.200000000000001,4.9,-2.9,-2.9,16
803,13485.0,-0.1,0.2,-0.2,0.30000000000000004,3.1,9.200000000000001,4.2,-2.0,-1.5,16
804,13500.0,0.0,0.1,-0.2,0.30000000000000004,3.0,9.200000000000001,3.9,-0.7,-0.6000000000000001,16
805,13521.0,0.0,0.0,-0.1,0.30000000000000004,3.0,9.3,4.4,0.2,-0.4,16
806,13534.0,-0.1,0.0,-0.1,0.30000000000000004,3.0,9.3,4.800000000000001,-0.30000000000000004,-0.4,16
807,13551.0,-0.1,0.1,-0.1,0.2,3.0,9.200000000000001,4.1,-1.2000000000000002,-0.4,16
808,13567.0,-0.1,0.1,-0.1,0.2,3.1,9.3,3.2,-1.6,0.0,16
809,13584.0,-0.1,0.0,-0.1,0.2,3.0,9.3,2.7,-2.0,0.4,16
810,13600.0,-0.1,0.0,-0.1,0.2,3.0,9.3,2.4000000000000004,-1.9,0.6000000000000001,16
811,13623.0,-0.1,0.0,0.0,0.30000000000000004,3.0,9.3,2.9,-1.5,0.7,16
812,13634.0,-0.1,0.1,0.0,0.2,3.1,9.3,3.5,-1.3,1.1,16
813,13651.0,-0.1,0.1,0.0,0.2,3.1,9.3,3.8,-1.3,2.0,16
814,13667.0,0.0,0.0,0.0,0.30000000000000004,3.1,9.3,3.5,-2.8,2.4000000000000004,16
815,13684.0,0.0,0.0,-0.2,0.4,3.0,9.200000000000001,2.3,-3.8,1.8000000000000003,16
816,13700.0,0.0,0.0,-0.2,0.4,3.0,9.1,1.1,-2.5,1.5,16
817,13721.0,0.0,0.0,0.0,0.30000000000000004,3.1,9.3,1.7,0.0,2.0,16
818,13738.0,0.0,0.0,0.2,0.30000000000000004,3.1,9.5,3.8,0.6000000000000001,3.1,16
819,13750.0,0.0,0.0,0.1,0.4,3.0,9.3,3.9,-2.2,3.1,16
820,13767.0,0.1,-0.1,-0.1,0.4,3.0,9.200000000000001,0.8,-3.7000000000000006,2.4000000000000004,16
821,13784.0,0.0,-0.1,0.0,0.4,3.0,9.3,-1.6,-4.1,1.8000000000000003,16
822,13800.0,0.0,-0.1,0.0,0.4,3.0,9.3,-0.8,-5.4,2.0,16
823,13819.0,0.0,0.0,-0.1,0.5,3.0,9.200000000000001,1.1,-5.6,2.6,16
824,13835.0,0.1,0.0,-0.2,0.5,3.1,9.1,1.1,-4.1,2.8,16
825,13851.0,0.1,0.0,-0.2,0.5,3.0,9.1,0.2,-2.6,2.7,16
826,13867.0,0.1,0.0,-0.2,0.5,3.0,9.1,0.2,-2.6,2.7,16
827,13884.0,0.0,0.0,0.0,0.5,3.0,9.3,-0.9000000000000001,-1.4,2.2,16
828,13902.0,0.0,0.0,0.1,0.4,3.0,9.3,-0.30000000000000004,-0.9000000000000001,2.4000000000000004,16
829,13924.0,0.0,0.0,0.1,0.5,3.0,9.4,0.1,-1.2000000000000002,2.8,16
830,13934.0,0.0,0.0,0.1,0.5,3.0,9.4,0.1,-1.2000000000000002,2.8,16
831,13950.0,0.0,0.0,0.1,0.5,3.0,9.4,0.0,0.0,2.7,16
832,13967.0,0.0,0.0,0.2,0.4,3.0,9.5,0.9000000000000001,0.2,2.5,16
833,13984.0,0.0,0.0,0.2,0.5,3.0,9.5,2.1,-0.30000000000000004,2.3,16
834,14001.0,0.0,0.0,0.1,0.5,3.0,9.4,1.9,-1.2000000000000002,1.9,16
835,14017.0,0.0,0.0,0.1,0.5,3.1,9.4,1.0,-2.3,1.8000000000000003,16
836,14034.0,0.0,0.0,0.0,0.5,3.1,9.3,0.5,-3.6000000000000005,1.7,16
837,14054.0,0.1,0.0,0.0,0.6000000000000001,3.1,9.3,-0.30000000000000004,-2.8,1.9,16
838,14067.0,0.1,-0.1,0.0,0.6000000000000001,2.9000000000000004,9.3,0.2,-1.5,1.5,16
839,14084.0,0.1,-0.2,0.0,0.7000000000000001,2.8000000000000003,9.3,1.6,-1.6,0.1,16
840,14101.0,0.1,-0.1,-0.2,0.7000000000000001,2.9000000000000004,9.200000000000001,1.9,-1.5,-1.6,16
841,14124.0,0.1,0.0,-0.1,0.7000000000000001,3.0,9.1,1.0,-0.4,-3.0,16
842,14136.0,0.1,0.0,-0.1,0.6000000000000001,3.1,9.200000000000001,0.6000000000000001,1.5,-3.5,16
843,14151.0,0.1,0.0,0.0,0.6000000000000001,3.1,9.3,1.9,3.2,-3.8,16
844,14167.0,0.1,0.0,0.0,0.6000000000000001,3.1,9.3,2.7,4.9,-4.300000000000001,16
845,14184.0,0.0,0.1,0.1,0.5,3.2,9.4,3.0,6.1000000000000005,-4.6,16
846,14200.0,-0.1,0.30000000000000004,0.2,0.4,3.3000000000000003,9.5,3.2,4.9,-3.5,16
847,14220.0,-0.1,0.2,0.2,0.4,3.4000000000000004,9.5,2.2,2.3,-1.5,16
848,14240.0,0.0,0.1,0.30000000000000004,0.5,3.2,9.600000000000001,0.4,-3.0,1.7,16
849,14251.0,0.0,0.1,0.30000000000000004,0.5,3.2,9.600000000000001,0.4,-3.0,1.7,16
850,14269.0,0.0,0.0,0.1,0.5,3.2,9.5,1.7,-5.7,2.4000000000000004,16
851,14284.0,0.1,0.0,0.0,0.6000000000000001,3.1,9.3,2.6,-6.9,2.9,16
852,14300.0,0.1,-0.1,-0.2,0.6000000000000001,3.1,9.1,2.2,-6.0,3.0,16
853,14320.0,0.1,-0.1,-0.2,0.7000000000000001,3.1,9.1,1.7,-4.300000000000001,2.8,16
854,14334.0,0.1,-0.1,-0.2,0.7000000000000001,3.0,9.0,1.3,-3.1,2.4000000000000004,16
855,14351.0,0.1,-0.1,-0.2,0.7000000000000001,3.0,9.1,0.5,-1.3,1.8000000000000003,16
856,14367.0,0.0,-0.1,0.0,0.6000000000000001,3.0,9.200000000000001,0.9000000000000001,-0.30000000000000004,1.1,16
857,14384.0,0.0,-0.1,0.1,0.6000000000000001,3.0,9.3,2.5,-1.7,0.1,16
858,14400.0,0.0,-0.1,-0.1,0.6000000000000001,3.1,9.200000000000001,2.9,-3.0,-1.1,16
859,14420.0,0.0,0.0,-0.2,0.6000000000000001,3.1,9.1,1.3,-2.2,-2.0,16
860,14438.0,-0.1,0.0,-0.1,0.4,3.2,9.200000000000001,0.8,0.2,-2.5,16
861,14452.0,-0.2,0.1,-0.1,0.4,3.2,9.200000000000001,0.8,0.2,-2.5,16
862,14467.0,-0.2,0.1,0.0,0.4,3.3000000000000003,9.200000000000001,1.9,1.6,-1.4,16
863,14484.0,-0.2,0.1,0.0,0.4,3.2,9.200000000000001,2.2,1.3,-0.2,16
864,14500.0,-0.1,0.0,0.0,0.4,3.2,9.200000000000001,0.6000000000000001,0.30000000000000004,0.4,16
865,14520.0,-0.1,0.0,0.0,0.5,3.2,9.3,0.1,-1.2000000000000002,0.2,16
866,14539.0,-0.1,0.2,-0.1,0.5,3.4000000000000004,9.0,-1.4,-4.9,1.4,16
867,14551.0,-0.1,0.2,-0.2,0.5,3.4000000000000004,9.0,-1.4,-4.9,1.4,16
868,14569.0,0.0,0.2,-0.2,0.6000000000000001,3.4000000000000004,9.0,-2.9,-3.9,2.4000000000000004,16
869,14584.0,0.0,0.1,-0.1,0.6000000000000001,3.3000000000000003,9.1,-3.0,-1.5,3.0,16
870,14600.0,0.0,0.0,0.0,0.6000000000000001,3.2,9.200000000000001,-1.6,1.4,3.4,16
871,14617.0,0.1,0.0,0.0,0.7000000000000001,3.2,9.200000000000001,0.1,3.9,3.2,16
872,14635.0,0.1,-0.1,0.2,0.7000000000000001,3.1,9.3,0.5,5.500000000000001,2.5,16
873,14652.0,0.0,-0.1,0.30000000000000004,0.6000000000000001,3.1,9.5,0.5,4.0,1.7,16
874,14667.0,0.0,-0.1,0.30000000000000004,0.6000000000000001,3.1,9.5,-0.1,0.8,0.9000000000000001,16
875,14684.0,0.0,-0.1,0.30000000000000004,0.6000000000000001,3.1,9.600000000000001,-0.7,-2.5,0.5,16
876,14700.0,0.1,-0.1,0.2,0.7000000000000001,3.1,9.5,-0.7,-5.300000000000001,-0.2,16
877,14718.0,0.1,-0.1,0.0,0.7000000000000001,3.1,9.3,-0.6000000000000001,-5.6,-0.7,16
878,14737.0,0.1,0.0,0.0,0.7000000000000001,3.1,9.200000000000001,0.0,-3.7000000000000006,-1.0,16
879,14751.0,0.1,0.0,-0.1,0.7000000000000001,3.2,9.200000000000001,1.0,-2.6,-0.8,16
880,14770.0,0.1,0.1,-0.2,0.8,3.3000000000000003,9.0,1.3,-0.8,0.2,16
881,14784.0,0.1,0.0,-0.30000000000000004,0.8,3.2,9.0,0.1,1.4,0.9000000000000001,16
882,14800.0,0.1,-0.1,-0.2,0.8,3.1,9.1,-1.1,2.9,0.7,16
883,14824.0,0.1,-0.1,0.0,0.7000000000000001,3.1,9.3,-1.3,3.1,0.30000000000000004,16
884,14835.0,0.0,-0.1,0.1,0.7000000000000001,3.1,9.3,-0.6000000000000001,1.7,0.0,16
885,14852.0,0.0,-0.1,0.1,0.7000000000000001,3.1,9.3,-0.4,-0.30000000000000004,-0.4,16
886,14867.0,0.1,0.0,0.0,0.7000000000000001,3.1,9.3,-1.2000000000000002,-1.3,-1.1,16
887,14886.0,0.0,0.0,0.0,0.7000000000000001,3.1,9.200000000000001,-1.9,-1.1,-1.2000000000000002,16
888,14900.0,0.0,0.1,0.0,0.7000000000000001,3.2,9.3,-1.9,0.30000000000000004,-0.9000000000000001,16
889,14918.0,0.0,0.0,0.1,0.7000000000000001,3.2,9.4,-1.0,1.4,-0.30000000000000004,16
890,14938.0,0.0,0.0,0.1,0.7000000000000001,3.1,9.4,0.1,0.7,-0.5,16
891,14950.0,0.0,0.0,0.0,0.7000000000000001,3.2,9.3,-0.2,0.30000000000000004,-0.9000000000000001,16
892,14967.0,0.0,0.0,0.1,0.6000000000000001,3.2,9.4,-0.7,1.0,-0.7,16
893,14984.0,0.0,0.0,0.1,0.6000000000000001,3.1,9.4,0.5,-0.30000000000000004,-0.4,16
894,15000.0,0.0,-0.1,0.0,0.7000000000000001,3.1,9.3,0.5,-0.5,-0.9000000000000001,16
895,15021.0,0.0,0.0,0.0,0.7000000000000001,3.1,9.200000000000001,-0.2,0.5,-1.4,16
896,15034.0,-0.1,0.1,0.0,0.6000000000000001,3.2,9.3,-0.7,0.1,-1.1,16
897,15052.0,-0.1,0.0,0.1,0.6000000000000001,3.2,9.4,-0.1,-0.30000000000000004,-0.30000000000000004,16
898,15067.0,0.0,0.0,0.0,0.6000000000000001,3.1,9.3,0.7,-1.5,0.0,16
899,15084.0,0.0,0.0,-0.2,0.7000000000000001,3.1,9.1,-0.8,-1.5,-0.4,16
900,15100.0,0.0,0.0,-0.1,0.6000000000000001,3.1,9.200000000000001,-1.7,0.4,-0.30000000000000004,16
901,15117.0,0.0,0.0,0.1,0.6000000000000001,3.1,9.3,-0.5,-0.1,0.1,16
902,15135.0,0.0,0.0,-0.1,0.7000000000000001,3.1,9.200000000000001,-0.4,-1.4,0.0,16
903,15151.0,0.0,0.0,0.0,0.7000000000000001,3.1,9.200000000000001,-1.6,-0.5,-0.30000000000000004,16
904,15168.0,0.0,0.0,0.0,0.6000000000000001,3.1,9.3,-1.9,0.2,-0.1,16
905,15184.0,0.0,-0.1,0.1,0.6000000000000001,3.0,9.4,-0.7,0.30000000000000004,-0.30000000000000004,16
906,15201.0,0.0,0.0,0.1,0.6000000000000001,3.1,9.4,0.7,0.30000000000000004,-0.5,16
907,15220.0,0.0,0.0,0.1,0.7000000000000001,3.1,9.4,0.9000000000000001,-1.0,-0.6000000000000001,16
908,15234.0,0.0,0.1,0.0,0.7000000000000001,3.2,9.3,-0.30000000000000004,-1.9,-0.6000000000000001,16
909,15250.0,0.0,0.1,0.1,0.7000000000000001,3.2,9.4,-0.8,-1.7,-0.1,16
910,15267.0,0.0,0.0,0.1,0.7000000000000001,3.1,9.4,0.4,-1.8000000000000003,0.1,16
911,15284.0,0.0,0.0,0.1,0.7000000000000001,3.1,9.4,1.1,-1.3,0.5,16
912,15300.0,0.0,0.0,0.1,0.7000000000000001,3.1,9.4,1.1,-1.2000000000000002,0.7,16
913,15317.0,0.1,0.0,0.0,0.7000000000000001,3.1,9.3,1.1,-2.6,0.30000000000000004,16
914,15333.0,0.1,0.0,-0.1,0.8,3.1,9.200000000000001,0.6000000000000001,-2.6,-0.30000000000000004,16
915,15350.0,0.0,0.0,-0.2,0.7000000000000001,3.1,9.1,0.1,-1.6,-0.6000000000000001,16
916,15367.0,0.0,0.0,-0.1,0.7000000000000001,3.2,9.200000000000001,-0.2,0.2,0.1,16
917,15383.0,0.0,0.0,0.1,0.7000000000000001,3.1,9.3,0.1,1.0,1.1,16
918,15400.0,0.1,-0.1,0.1,0.8,3.0,9.3,0.1,-0.6000000000000001,1.0,16
919,15417.0,0.1,-0.2,0.0,0.8,3.0,9.3,-0.1,-2.2,-0.1,16
920,15434.0,0.1,-0.1,-0.1,0.8,3.0,9.200000000000001,-0.5,-2.7,-1.0,16
921,15450.0,0.1,0.0,-0.2,0.8,3.1,9.1,-0.5,-2.0,-0.8,16
922,15467.0,0.1,0.0,-0.1,0.8,3.1,9.200000000000001,-0.9000000000000001,0.2,-0.1,16
923,15484.0,0.1,0.0,0.1,0.8,3.1,9.3,-0.4,2.4000000000000004,0.4,16
924,15500.0,0.0,-0.1,0.1,0.8,3.0,9.4,0.4,1.5,0.0,16
925,15517.0,0.0,-0.1,0.2,0.7000000000000001,3.0,9.4,0.5,0.7,-0.6000000000000001,16
926,15534.0,0.0,0.0,0.1,0.7000000000000001,3.1,9.4,0.7,-1.8000000000000003,-0.8,16
927,15550.0,0.0,0.0,0.0,0.7000000000000001,3.1,9.3,-0.5,-3.5,-1.1,16
928,15567.0,0.0,0.0,0.0,0.8,3.1,9.3,-0.9000000000000001,-2.4000000000000004,-1.2000000000000002,16
929,15586.0,0.0,0.0,0.0,0.7000000000000001,3.1,9.3,-0.2,-0.8,-0.8,16
930,15604.0,0.0,0.0,0.0,0.7000000000000001,3.1,9.3,1.2000000000000002,0.4,-0.4,16
931,15617.0,0.0,0.0,0.0,0.7000000000000001,3.1,9.3,1.8000000000000003,0.9000000000000001,-0.1,16
932,15634.0,-0.1,0.0,0.1,0.7000000000000001,3.1,9.4,1.7,0.7,0.0,16
933,15650.0,-0.1,0.0,0.0,0.6000000000000001,3.1,9.3,1.3,-1.1,0.0,16
934,15667.0,-0.1,0.0,0.0,0.6000000000000001,3.2,9.3,0.2,-1.6,0.30000000000000004,16
935,15685.0,-0.1,0.0,0.0,0.7000000000000001,3.2,9.3,-0.30000000000000004,-1.7,0.6000000000000001,16
936,15700.0,-0.1,0.0,0.0,0.7000000000000001,3.1,9.3,0.0,-1.7,0.9000000000000001,16
937,15717.0,0.0,0.0,0.0,0.7000000000000001,3.1,9.3,0.7,-1.2000000000000002,1.3,16
938,15734.0,0.0,0.0,0.0,0.7000000000000001,3.1,9.200000000000001,0.9000000000000001,-0.7,1.7,16
939,15751.0,0.1,-0.1,0.0,0.8,3.0,9.3,0.6000000000000001,-0.7,1.7,16
940,15767.0,0.1,-0.1,-0.1,0.8,3.0,9.200000000000001,0.6000000000000001,-1.0,0.7,16
941,15784.0,0.0,0.0,-0.1,0.8,3.1,9.200000000000001,0.5,-0.4,0.2,16
942,15800.0,0.0,0.1,0.0,0.7000000000000001,3.2,9.3,1.1,0.4,0.8,16
943,15818.0,0.0,0.0,-0.1,0.8,3.1,9.200000000000001,1.4,-0.6000000000000001,1.2000000000000002,16
944,15834.0,0.1,0.0,-0.2,0.8,3.1,9.1,0.1,-0.6000000000000001,1.0,16
945,15850.0,0.0,-0.1,-0.1,0.8,3.1,9.200000000000001,-1.6,1.2000000000000002,0.7,16
946,15867.0,0.0,0.0,0.1,0.7000000000000001,3.1,9.4,-0.5,1.3,0.8,16
947,15885.0,0.0,0.0,0.1,0.7000000000000001,3.1,9.3,1.2000000000000002,-0.1,1.1,16
948,15900.0,0.1,0.0,-0.1,0.8,3.1,9.200000000000001,0.8,-0.6000000000000001,1.3,16
949,15919.0,0.1,0.0,-0.1,0.8,3.1,9.200000000000001,-0.9000000000000001,-0.8,0.9000000000000001,16
950,15934.0,0.1,0.0,0.0,0.8,3.1,9.200000000000001,-1.6,-0.9000000000000001,0.6000000000000001,16
951,15950.0,0.1,0.0,-0.1,0.8,3.1,9.200000000000001,-1.6,-0.9000000000000001,0.6000000000000001,16
952,15967.0,0.0,-0.1,0.1,0.8,3.1,9.3,-0.1,2.4000000000000004,0.5,16
953,15984.0,0.0,-0.1,0.1,0.8,3.0,9.4,1.3,2.5,0.4,16
954,16000.0,0.0,0.0,0.0,0.8,3.1,9.3,1.5,1.2000000000000002,-0.1,16
955,16017.0,0.0,0.0,0.0,0.8,3.1,9.3,-0.4,1.1,0.0,16
956,16035.0,0.0,0.0,0.1,0.7000000000000001,3.1,9.4,-0.7,-0.30000000000000004,0.4,16
957,16051.0,0.1,0.0,0.0,0.8,3.1,9.3,-0.4,-1.4,0.30000000000000004,16
958,16067.0,0.1,0.0,0.0,0.9,3.1,9.3,-0.6000000000000001,0.7,-0.2,16
959,16084.0,0.0,0.0,0.1,0.8,3.1,9.4,0.4,1.7,-0.5,16
960,16101.0,0.0,0.0,0.1,0.8,3.1,9.3,2.0,0.6000000000000001,-0.7,16
961,16117.0,0.1,0.0,-0.1,0.8,3.1,9.1,2.1,0.0,-0.9000000000000001,16
962,16135.0,0.0,0.1,-0.1,0.8,3.2,9.1,0.9000000000000001,0.7,-0.9000000000000001,16
963,16150.0,0.0,0.1,0.0,0.7000000000000001,3.2,9.200000000000001,0.4,1.3,-0.30000000000000004,16
964,16167.0,0.0,0.0,0.0,0.8,3.2,9.200000000000001,0.1,0.30000000000000004,0.0,16
965,16184.0,0.0,0.0,0.0,0.8,3.1,9.200000000000001,-0.30000000000000004,1.5,-0.2,16
966,16200.0,0.0,-0.1,0.0,0.7000000000000001,3.1,9.3,0.2,2.3,-0.6000000000000001,16
967,16217.0,-0.1,0.0,0.0,0.7000000000000001,3.1,9.3,1.0,2.6,-0.6000000000000001,16
968,16235.0,-0.1,0.0,0.1,0.6000000000000001,3.1,9.4,1.1,2.7,-0.30000000000000004,16
969,16251.0,-0.1,0.0,0.2,0.7000000000000001,3.1,9.4,0.5,-0.2,-0.6000000000000001,16
970,16268.0,0.0,0.1,0.0,0.7000000000000001,3.2,9.3,-0.8,-3.1,-1.4,16
971,16284.0,0.0,0.1,-0.1,0.7000000000000001,3.2,9.200000000000001,-2.4000000000000004,-2.5,-1.3,16
972,16300.0,0.0,0.1,0.0,0.7000000000000001,3.2,9.3,-1.9,-0.6000000000000001,-0.7,16
973,16318.0,-0.1,0.1,0.2,0.7000000000000001,3.2,9.4,0.6000000000000001,1.9,0.6000000000000001,16
974,16334.0,0.0,0.0,0.1,0.7000000000000001,3.1,9.4,2.7,1.6,0.8,16
975,16352.0,0.0,-0.1,0.0,0.7000000000000001,3.1,9.3,1.9,0.0,0.0,16
976,16367.0,0.0,0.0,0.0,0.7000000000000001,3.2,9.3,0.4,-1.2000000000000002,-0.7,16
977,16384.0,-0.1,0.1,0.0,0.7000000000000001,3.2,9.3,0.30000000000000004,-2.5,-0.2,16
978,16400.0,0.0,0.0,0.0,0.8,3.2,9.200000000000001,0.7,-2.8,0.0,16
979,16418.0,0.1,0.0,-0.1,0.8,3.2,9.1,0.9000000000000001,-1.8000000000000003,-0.2,16
980,16434.0,0.1,0.0,-0.1,0.8,3.2,9.1,0.8,-0.30000000000000004,-0.30000000000000004,16
981,16451.0,0.1,0.0,-0.2,0.8,3.1,9.1,0.5,0.6000000000000001,-0.30000000000000004,16
982,16467.0,0.0,0.0,-0.2,0.8,3.1,9.1,0.2,1.8000000000000003,-0.30000000000000004,16
983,16484.0,0.0,0.0,0.0,0.7000000000000001,3.2,9.3,0.8,2.2,0.0,16
984,16500.0,0.0,0.0,0.0,0.8,3.1,9.200000000000001,1.0,-0.2,0.1,16
985,16518.0,0.1,-0.1,-0.2,0.8,3.1,9.1,-1.5,-2.1,-0.8,16
986,16535.0,0.0,0.0,0.0,0.8,3.1,9.200000000000001,-3.8,-0.1,-1.2000000000000002,16
987,16550.0,0.0,0.0,0.1,0.7000000000000001,3.1,9.4,-2.2,1.4,-0.7,16
988,16567.0,-0.1,0.0,0.2,0.7000000000000001,3.2,9.5,1.4,0.9000000000000001,0.2,16
989,16584.0,0.0,0.0,0.0,0.7000000000000001,3.2,9.3,2.2,-0.1,0.2,16
990,16600.0,0.0,0.1,0.0,0.7000000000000001,3.2,9.200000000000001,0.1,-0.4,-0.30000000000000004,16
991,16617.0,0.0,0.1,0.1,0.7000000000000001,3.2,9.3,-1.4,-1.0,-0.4,16
992,16635.0,0.0,0.0,0.1,0.7000000000000001,3.2,9.3,-1.2000000000000002,-2.0,-0.30000000000000004,16
993,16653.0,0.0,0.0,0.1,0.7000000000000001,3.2,9.3,0.2,-0.6000000000000001,-0.4,16
994,16669.0,0.0,0.0,0.0,0.7000000000000001,3.2,9.3,1.7,0.6000000000000001,-0.5,16
995,16684.0,0.0,0.1,0.0,0.7000000000000001,3.3000000000000003,9.200000000000001,2.0,1.7,-0.1,16
996,16700.0,-0.1,0.1,0.0,0.7000000000000001,3.3000000000000003,9.3,1.4,2.1,0.6000000000000001,16
997,16719.0,-0.1,0.1,0.1,0.7000000000000001,3.2,9.4,1.1,0.30000000000000004,1.3,16
998,16735.0,0.0,0.0,0.0,0.7000000000000001,3.2,9.3,0.6000000000000001,-2.1,1.5,16
999,16752.0,0.0,0.0,-0.1,0.8,3.2,9.200000000000001,0.0,-2.5,1.3,16
1000,16767.0,0.1,0.0,-0.1,0.8,3.1,9.1,-0.4,-1.9,0.8,16
1001,16784.0,0.1,0.0,-0.1,0.8,3.1,9.200000000000001,0.1,0.1,0.7,16
1002,16800.0,0.1,0.0,-0.1,0.8,3.2,9.200000000000001,1.7,1.3,0.7,16
1003,16817.0,0.0,0.0,-0.1,0.8,3.2,9.200000000000001,1.4,2.3,1.2000000000000002,16
1004,16834.0,0.0,0.0,0.1,0.8,3.2,9.3,0.5,2.3,1.6,16
1005,16850.0,0.1,-0.1,0.1,0.8,3.1,9.4,-0.2,-0.30000000000000004,1.4,16
1006,16867.0,0.1,-0.1,0.1,0.9,3.1,9.4,-0.7,-1.8000000000000003,0.6000000000000001,16
1007,16884.0,0.1,-0.1,0.0,0.9,3.1,9.3,-0.4,-1.9,-0.30000000000000004,16
1008,16900.0,0.1,0.0,0.0,0.9,3.1,9.200000000000001,-0.2,-0.6000000000000001,-0.8,16
1009,16917.0,0.1,0.0,0.0,0.8,3.2,9.3,0.8,1.4,-0.5,16
1010,16934.0,0.0,0.0,0.1,0.8,3.1,9.4,2.3,1.8000000000000003,-0.1,16
1011,16950.0,0.0,-0.1,0.1,0.8,3.1,9.3,2.3,0.0,-0.5,16
1012,16967.0,0.0,0.0,-0.1,0.8,3.2,9.200000000000001,0.9000000000000001,-0.9000000000000001,-1.1,16
1013,16985.0,0.0,0.0,0.0,0.8,3.2,9.200000000000001,-0.30000000000000004,-1.0,-1.1,16
1014,17000.0,0.0,0.0,0.0,0.8,3.1,9.200000000000001,0.2,-1.6,-1.0,16
1015,17017.0,0.0,0.0,-0.1,0.8,3.1,9.1,0.6000000000000001,-0.5,-1.0,16
1016,17035.0,0.0,0.0,-0.1,0.8,3.1,9.200000000000001,0.9000000000000001,1.7,-0.9000000000000001,16
1017,17052.0,0.0,-0.1,-0.1,0.8,3.1,9.200000000000001,1.0,1.2000000000000002,-1.5,16
1018,17068.0,0.0,0.0,-0.1,0.8,3.2,9.200000000000001,-0.1,1.2000000000000002,-2.0,16
1019,17084.0,0.0,0.0,0.0,0.7000000000000001,3.2,9.3,-0.7,1.2000000000000002,-1.6,16
1020,17103.0,0.0,0.0,0.1,0.7000000000000001,3.1,9.3,-0.6000000000000001,-1.3,-1.8000000000000003,16
1021,17117.0,0.0,0.0,-0.1,0.8,3.2,9.200000000000001,-0.5,-1.3,-2.4000000000000004,16
1022,17137.0,0.0,0.1,-0.1,0.8,3.2,9.200000000000001,-0.1,1.3,-1.6,16
1023,17153.0,0.0,0.0,0.1,0.7000000000000001,3.2,9.3,-0.1,1.3,-1.6,16
1024,17167.0,0.0,0.0,0.0,0.7000000000000001,3.2,9.3,0.6000000000000001,0.6000000000000001,-1.5,16
1025,17184.0,-0.1,0.0,0.0,0.7000000000000001,3.2,9.3,0.4,1.4,-1.4,16
1026,17200.0,-0.1,0.0,0.2,0.6000000000000001,3.2,9.4,1.0,0.30000000000000004,-1.1,16
1027,17217.0,0.0,0.0,0.0,0.7000000000000001,3.2,9.3,1.6,-2.3,-1.1,16
1028,17234.0,0.0,0.0,-0.2,0.8,3.2,9.1,0.30000000000000004,-2.9,-1.7,16
1029,17250.0,0.0,0.0,-0.2,0.8,3.2,9.1,-2.2,-0.6000000000000001,-1.8000000000000003,16
1030,17267.0,0.0,0.1,0.1,0.7000000000000001,3.2,9.3,-1.4,1.1,-1.1,16
1031,17284.0,0.0,0.0,0.1,0.7000000000000001,3.2,9.3,0.6000000000000001,0.7,-0.6000000000000001,16
1032,17300.0,0.0,0.0,0.0,0.8,3.2,9.200000000000001,1.0,0.9000000000000001,-0.7,16
1033,17317.0,0.0,0.0,-0.1,0.7000000000000001,3.2,9.200000000000001,0.30000000000000004,0.9000000000000001,-0.9000000000000001,16
1034,17334.0,-0.1,0.0,-0.1,0.7000000000000001,3.2,9.200000000000001,-0.5,0.1,-1.2000000000000002,16
1035,17351.0,0.0,0.0,0.0,0.7000000000000001,3.2,9.200000000000001,-0.6000000000000001,1.0,-1.0,16
1036,17367.0,-0.1,0.0,0.0,0.7000000000000001,3.2,9.200000000000001,0.0,2.0,-0.7,16
1037,17384.0,0.0,0.0,0.0,0.7000000000000001,3.2,9.200000000000001,0.0,2.2,-0.5,16
1038,17400.0,0.0,0.0,0.1,0.7000000000000001,3.2,9.3,-0.2,2.7,-0.2,16
1039,17417.0,0.0,0.0,0.1,0.7000000000000001,3.2,9.4,-0.1,1.6,-0.2,16
1040,17434.0,0.0,0.0,0.1,0.7000000000000001,3.2,9.3,0.2,0.5,-0.30000000000000004,16
1041,17450.0,0.0,0.0,0.0,0.7000000000000001,3.2,9.3,0.1,0.5,-0.4,16
1042,17467.0,0.0,0.0,0.0,0.7000000000000001,3.2,9.3,-0.30000000000000004,1.2000000000000002,-0.1,16
1043,17484.0,0.0,0.0,0.1,0.7000000000000001,3.2,9.4,0.5,1.9,-0.2,16
1044,17500.0,0.0,0.0,0.1,0.7000000000000001,3.2,9.4,2.0,1.3,-0.4,16
1045,17517.0,0.0,0.1,0.0,0.6000000000000001,3.3000000000000003,9.3,2.5,0.6000000000000001,-0.2,16
1046,17534.0,0.0,0.1,0.0,0.6000000000000001,3.3000000000000003,9.200000000000001,2.1,-0.2,0.30000000000000004,16
1047,17550.0,0.0,0.1,-0.2,0.7000000000000001,3.3000000000000003,9.1,0.5,-0.7,0.5,16
1048,17567.0,0.0,0.1,-0.1,0.7000000000000001,3.3000000000000003,9.1,-1.0,0.30000000000000004,0.8,16
1049,17584.0,0.0,0.0,0.1,0.6000000000000001,3.3000000000000003,9.3,-0.4,0.7,1.3,16
1050,17600.0,0.0,0.0,0.1,0.7000000000000001,3.2,9.3,1.2000000000000002,0.2,1.7,16
1051,17617.0,0.1,-0.1,-0.1,0.7000000000000001,3.2,9.200000000000001,1.9,-0.1,1.2000000000000002,16
1052,17634.0,0.0,0.0,-0.1,0.7000000000000001,3.2,9.200000000000001,0.5,0.7,0.8,16
1053,17650.0,0.0,0.0,0.0,0.7000000000000001,3.2,9.200000000000001,0.1,0.1,0.6000000000000001,16
1054,17667.0,0.0,0.0,-0.1,0.7000000000000001,3.2,9.1,-0.1,-0.4,0.7,16
1055,17683.0,0.1,-0.1,0.0,0.7000000000000001,3.2,9.200000000000001,-0.8,1.6,0.7,16
1056,17700.0,0.0,-0.1,0.1,0.7000000000000001,3.1,9.4,0.2,1.6,0.4,16
1057,17717.0,0.0,-0.1,0.1,0.7000000000000001,3.1,9.3,1.2000000000000002,0.4,0.1,16
1058,17734.0,0.0,0.0,-0.1,0.7000000000000001,3.2,9.200000000000001,1.0,-0.30000000000000004,0.1,16
1059,17751.0,0.0,0.0,-0.1,0.6000000000000001,3.2,9.200000000000001,-0.1,-0.1,0.7,16
1060,17767.0,0.0,0.0,0.0,0.7000000000000001,3.2,9.200000000000001,-0.6000000000000001,-0.8,1.1,16
1061,17783.0,0.1,0.0,-0.1,0.7000000000000001,3.2,9.1,-0.30000000000000004,-1.9,0.8,16
1062,17800.0,0.1,0.0,-0.2,0.8,3.2,9.1,-1.0,-0.9000000000000001,0.30000000000000004,16
1063,17817.0,0.0,0.1,-0.1,0.7000000000000001,3.3000000000000003,9.1,-1.4,0.9000000000000001,0.6000000000000001,16
1064,17834.0,0.0,0.0,0.1,0.7000000000000001,3.3000000000000003,9.3,-0.30000000000000004,1.1,1.4,16
1065,17851.0,0.0,0.0,0.1,0.7000000000000001,3.2,9.3,0.5,-0.9000000000000001,1.4,16
1066,17867.0,0.1,0.0,-0.1,0.8,3.2,9.1,-1.4,-2.3,0.6000000000000001,16
1067,17884.0,0.0,0.1,-0.1,0.8,3.3000000000000003,9.1,-3.6000000000000005,-2.7,0.0,16
1068,17901.0,0.0,0.0,-0.1,0.8,3.2,9.1,-4.800000000000001,-3.0,-0.30000000000000004,16
1069,17917.0,0.0,0.0,-0.1,0.7000000000000001,3.2,9.200000000000001,-5.1000000000000005,-1.0,-0.30000000000000004,16
1070,17934.0,0.0,0.0,0.1,0.7000000000000001,3.1,9.4,-3.2,2.3,-0.2,16
1071,17950.0,0.0,-0.1,0.2,0.7000000000000001,3.1,9.5,-0.9000000000000001,3.1,-0.9000000000000001,16
1072,17967.0,0.0,-0.1,0.30000000000000004,0.7000000000000001,3.1,9.5,0.2,3.0,-1.9,16
1073,17984.0,-0.1,0.0,0.30000000000000004,0.6000000000000001,3.2,9.600000000000001,0.4,1.4,-2.1,16
1074,18008.0,-0.1,0.1,0.2,0.5,3.2,9.5,0.1,-1.1,-1.7,16
1075,18017.0,-0.1,0.0,0.1,0.6000000000000001,3.2,9.4,0.1,-1.9,-0.9000000000000001,16
1076,18034.0,-0.1,0.0,0.0,0.6000000000000001,3.2,9.3,0.9000000000000001,-1.8000000000000003,-0.4,16
1077,18050.0,0.0,0.0,-0.1,0.7000000000000001,3.2,9.200000000000001,1.7,-1.4,0.2,16
1078,18067.0,0.0,0.0,-0.2,0.7000000000000001,3.2,9.1,1.3,-0.6000000000000001,0.8,16
1079,18084.0,0.0,-0.1,-0.2,0.7000000000000001,3.1,9.1,0.2,0.5,0.7,16
1080,18111.0,0.1,0.0,-0.1,0.8,3.1,9.200000000000001,0.1,1.4,-0.1,16
1081,18118.0,0.1,0.0,-0.1,0.8,3.1,9.200000000000001,0.1,1.4,-0.1,16
1082,18136.0,0.1,0.0,-0.1,0.8,3.2,9.1,-0.5,1.7,-0.6000000000000001,16
1083,18150.0,0.0,0.0,0.1,0.7000000000000001,3.2,9.3,-1.4,3.8,-0.4,16
1084,18167.0,0.0,-0.1,0.2,0.7000000000000001,3.1,9.4,-0.4,3.6000000000000005,-0.30000000000000004,16
1085,18184.0,0.0,-0.1,0.1,0.7000000000000001,3.1,9.4,0.8,1.8000000000000003,-0.8,16
1086,18200.0,0.0,0.0,0.0,0.7000000000000001,3.1,9.3,0.6000000000000001,1.1,-1.2000000000000002,16
1087,18217.0,0.0,0.0,0.0,0.7000000000000001,3.2,9.3,-0.1,0.6000000000000001,-1.0,16
1088,18235.0,0.0,0.0,-0.1,0.7000000000000001,3.2,9.200000000000001,-0.5,-0.1,-0.8,16
1089,18251.0,0.0,0.0,0.0,0.7000000000000001,3.2,9.200000000000001,-1.3,1.5,-0.5,16
1090,18267.0,-0.1,0.0,0.0,0.6000000000000001,3.1,9.3,-1.0,2.4000000000000004,-0.2,16
1091,18284.0,-0.2,-0.1,0.0,0.5,3.1,9.3,-0.4,2.1,0.0,16
1092,18307.0,-0.2,-0.1,0.0,0.4,3.0,9.3,-0.2,1.5,0.2,16
1093,18317.0,-0.2,-0.1,0.0,0.4,3.1,9.3,0.1,-0.30000000000000004,0.0,16
1094,18334.0,-0.2,0.1,-0.1,0.5,3.2,9.200000000000001,0.2,-2.7,-0.30000000000000004,16
1095,18350.0,-0.1,0.30000000000000004,-0.30000000000000004,0.5,3.4000000000000004,9.0,-1.0,-4.0,0.9000000000000001,16
1096,18367.0,0.0,0.30000000000000004,-0.30000000000000004,0.6000000000000001,3.5,8.9,-3.1,-3.4,2.8,16
1097,18384.0,0.1,0.2,-0.2,0.7000000000000001,3.4000000000000004,9.0,-4.2,-1.9,3.8,16
1098,18409.0,0.1,0.0,0.0,0.8,3.2,9.200000000000001,-2.4000000000000004,1.5,3.0,16
1099,18417.0,0.1,0.0,0.0,0.8,3.2,9.200000000000001,-2.4000000000000004,1.5,3.0,16
1100,18434.0,0.1,0.1,0.0,0.8,3.2,9.3,-1.8000000000000003,2.6,2.6,16
1101,18450.0,0.1,0.1,0.1,0.8,3.2,9.3,-2.1,2.6,2.7,16
1102,18467.0,0.1,0.0,0.30000000000000004,0.8,3.2,9.5,-3.1,2.7,2.8,16
1103,18484.0,0.1,0.0,0.30000000000000004,0.8,3.1,9.600000000000001,-3.1,2.3,3.0,16
1104,18510.0,0.1,-0.2,0.5,0.8,2.9000000000000004,9.8,0.8,0.0,2.3,16
1105,18517.0,0.1,-0.30000000000000004,0.4,0.8,2.9000000000000004,9.8,0.8,0.0,2.3,16
1106,18534.0,0.1,-0.30000000000000004,0.30000000000000004,0.8,2.8000000000000003,9.600000000000001,2.2,-1.2000000000000002,1.3,16
1107,18550.0,0.1,-0.2,0.30000000000000004,0.8,2.9000000000000004,9.600000000000001,2.9,-2.4000000000000004,0.5,16
1108,18567.0,0.1,-0.2,-0.1,0.8,2.9000000000000004,9.4,2.9,-5.0,-0.30000000000000004,16
1109,18584.0,0.1,-0.2,-0.30000000000000004,0.8,2.9000000000000004,9.0,0.9000000000000001,-5.300000000000001,-1.0,16
1110,18607.0,0.0,-0.2,-0.30000000000000004,0.7000000000000001,2.9000000000000004,9.1,0.1,1.9,-1.8000000000000003,16
1111,18617.0,-0.1,-0.2,-0.2,0.7000000000000001,2.9000000000000004,9.1,0.1,1.9,-1.8000000000000003,16
1112,18634.0,-0.1,-0.1,-0.1,0.6000000000000001,3.0,9.200000000000001,2.5,4.2,-1.3,16
1113,18650.0,-0.2,0.0,-0.1,0.5,3.1,9.200000000000001,3.7000000000000006,3.6000000000000005,-0.30000000000000004,16
1114,18667.0,-0.1,0.2,-0.2,0.6000000000000001,3.2,9.1,2.1,-0.4,0.9000000000000001,16
1115,18685.0,0.0,0.2,-0.4,0.6000000000000001,3.3000000000000003,8.9,-2.0,-4.5,1.6,16
1116,18700.0,0.0,0.2,-0.4,0.6000000000000001,3.3000000000000003,8.9,-2.0,-4.5,1.6,16
1117,18725.0,0.0,0.1,-0.1,0.7000000000000001,3.1,9.200000000000001,-5.1000000000000005,1.5,2.6,16
1118,18734.0,0.0,0.1,-0.1,0.7000000000000001,3.1,9.200000000000001,-5.1000000000000005,1.5,2.6,16
1119,18751.0,0.0,0.0,0.30000000000000004,0.7000000000000001,3.1,9.5,-1.8000000000000003,5.8,2.8,16
1120,18767.0,0.1,0.0,0.4,0.8,3.0,9.700000000000001,1.5,5.2,2.2,16
1121,18783.0,0.1,0.1,0.30000000000000004,0.8,3.1,9.600000000000001,1.6,2.4000000000000004,0.6000000000000001,16
1122,18806.0,0.0,0.1,0.2,0.7000000000000001,3.2,9.700000000000001,-2.9,1.3,-0.7,16
1123,18817.0,0.0,0.1,0.4,0.7000000000000001,3.2,9.700000000000001,-2.9,1.3,-0.7,16
1124,18834.0,-0.1,0.0,0.5,0.6000000000000001,3.0,9.8,-0.4,2.2,-0.30000000000000004,16
1125,18850.0,0.0,-0.1,0.4,0.6000000000000001,3.0,9.700000000000001,4.0,2.0,-0.30000000000000004,16
1126,18867.0,0.0,-0.1,0.2,0.6000000000000001,3.0,9.5,6.0,2.6,-0.6000000000000001,16
1127,18885.0,-0.1,0.0,0.1,0.5,3.1,9.5,6.4,2.4000000000000004,0.1,16
1128,18909.0,-0.2,0.0,0.1,0.5,3.1,9.4,6.0,-1.0,1.4,16
1129,18917.0,-0.2,0.0,0.1,0.5,3.1,9.4,6.0,-1.0,1.4,16
1130,18934.0,-0.1,-0.1,-0.4,0.6000000000000001,3.0,9.0,1.4,-6.2,3.2,16
1131,18950.0,0.0,-0.1,-0.4,0.7000000000000001,3.0,8.9,0.30000000000000004,-6.9,3.4,16
1132,18968.0,0.1,-0.1,-0.4,0.8,3.0,8.9,0.30000000000000004,-6.1000000000000005,3.2,16
1133,18983.0,0.2,-0.1,-0.6000000000000001,0.9,3.0,8.700000000000001,0.7,-4.300000000000001,2.5,16
1134,19002.0,0.1,0.0,-0.6000000000000001,0.9,3.1,8.6,-0.9000000000000001,-1.1,1.7,16
1135,19020.0,0.1,0.0,-0.4,0.9,3.1,8.8,-3.7000000000000006,3.1,1.2000000000000002,16
1136,19037.0,0.1,0.0,0.0,0.9,3.1,9.1,-3.6000000000000005,5.6,0.6000000000000001,16
1137,19050.0,0.1,0.0,0.0,0.8,3.1,9.200000000000001,-2.3,6.500000000000001,-0.1,16
1138,19067.0,0.0,0.1,0.1,0.7000000000000001,3.2,9.4,-1.8000000000000003,8.100000000000001,-0.2,16
1139,19084.0,-0.1,0.1,0.4,0.6000000000000001,3.2,9.600000000000001,-1.5,8.5,0.8,16
1140,19100.0,-0.1,0.1,0.5,0.6000000000000001,3.2,9.8,-0.9000000000000001,7.300000000000001,1.6,16
1141,19124.0,-0.1,0.0,0.6000000000000001,0.5,3.1,9.9,0.1,4.9,2.4000000000000004,16
1142,19150.0,0.0,-0.1,0.5,0.7000000000000001,3.0,9.8,3.0,-4.1,3.0,16
1143,19167.0,0.1,-0.2,0.1,0.7000000000000001,2.9000000000000004,9.5,3.3000000000000007,-7.6,2.5,16
1144,19183.0,0.1,-0.1,-0.1,0.8,2.9000000000000004,9.3,2.3,-7.699999999999999,1.9,16
1145,19200.0,0.1,-0.1,-0.1,0.9,2.9000000000000004,9.200000000000001,2.3,-7.0,1.1,16
1146,19217.0,0.2,-0.2,-0.30000000000000004,0.9,2.9000000000000004,9.0,2.7,-6.4,-0.30000000000000004,16
1147,19233.0,0.1,-0.1,-0.4,0.9,3.0,8.9,2.1,-3.2,-1.6,16
1148,19251.0,0.1,0.0,-0.4,0.8,3.1,8.9,2.2,0.6000000000000001,-2.0,16
1149,19267.0,0.0,0.1,-0.30000000000000004,0.8,3.2,9.0,2.7,2.3,-2.1,16
1150,19283.0,0.0,0.2,-0.2,0.7000000000000001,3.3000000000000003,9.1,1.9,3.6000000000000005,-2.1,16
1151,19300.0,-0.1,0.2,0.1,0.7000000000000001,3.3000000000000003,9.3,0.2,4.4,-1.6,16
1152,19317.0,-0.2,0.1,0.2,0.6000000000000001,3.3000000000000003,9.4,-0.30000000000000004,2.6,-0.7,16
1153,19333.0,-0.1,0.0,0.1,0.6000000000000001,3.2,9.4,-0.5,0.30000000000000004,0.1,16
1154,19350.0,-0.1,0.0,0.1,0.6000000000000001,3.1,9.3,-0.4,-0.1,0.7,16
1155,19367.0,-0.1,0.0,0.0,0.6000000000000001,3.1,9.3,0.2,-0.9000000000000001,1.3,16
1156,19384.0,0.0,0.0,-0.1,0.7000000000000001,3.1,9.200000000000001,0.1,-1.7,1.7,16
1157,19400.0,0.0,0.0,-0.2,0.7000000000000001,3.1,9.1,-0.7,-1.2000000000000002,1.7,16
1158,19424.0,0.0,0.0,-0.1,0.8,3.1,9.1,-1.4,0.8,1.3,16
1159,19434.0,0.0,-0.1,-0.2,0.8,3.1,9.1,-1.4,0.8,1.3,16
1160,19450.0,0.1,-0.1,-0.2,0.8,3.0,9.1,-1.9,2.6,0.8,16
1161,19467.0,0.1,-0.1,0.0,0.8,3.0,9.3,-1.7,3.1,-0.1,16
1162,19484.0,0.2,0.0,0.1,0.9,3.1,9.3,-1.3,1.1,-1.3,16
1163,19501.0,0.2,0.1,0.0,0.9,3.2,9.3,-2.2,-0.4,-1.9,16
1164,19527.0,0.2,0.1,0.1,0.9,3.1,9.4,-4.800000000000001,1.5,-2.3,16
1165,19534.0,0.1,0.0,0.2,0.9,3.1,9.4,-4.800000000000001,1.5,-2.3,16
1166,19550.0,0.0,-0.1,0.4,0.8,3.0,9.600000000000001,-2.5,3.6000000000000005,-2.5,16
1167,19567.0,0.0,-0.1,0.5,0.7000000000000001,3.0,9.8,1.1,4.7,-2.5,16
1168,19584.0,-0.1,-0.1,0.4,0.6000000000000001,3.0,9.700000000000001,4.300000000000001,3.9,-2.4000000000000004,16
1169,19600.0,-0.1,0.0,0.30000000000000004,0.5,3.1,9.600000000000001,5.4,1.5,-1.9,16
1170,19624.0,-0.1,0.1,0.0,0.6000000000000001,3.2,9.4,4.2,-2.7,-1.4,16
1171,19633.0,-0.1,0.1,-0.1,0.6000000000000001,3.2,9.200000000000001,1.5,-6.0,-1.1,16
1172,19650.0,0.0,0.0,-0.2,0.7000000000000001,3.1,9.1,-0.1,-6.8,-1.2000000000000002,16
1173,19667.0,0.0,-0.1,-0.30000000000000004,0.7000000000000001,3.1,9.0,-0.1,-5.6,-1.5,16
1174,19683.0,0.1,-0.1,-0.4,0.8,3.1,8.9,0.8,-2.6,-2.0,16
1175,19700.0,0.1,0.0,-0.4,0.8,3.2,8.9,1.3,0.6000000000000001,-2.4000000000000004,16
1176,19727.0,0.0,0.1,-0.2,0.7000000000000001,3.3000000000000003,9.0,0.7,3.4,-1.9,16
1177,19734.0,0.0,0.1,-0.2,0.7000000000000001,3.3000000000000003,9.0,-0.6000000000000001,3.5,-1.7,16
1178,19751.0,0.0,0.1,-0.1,0.7000000000000001,3.2,9.1,-2.5,3.5,-1.8000000000000003,16
1179,19767.0,0.0,0.1,0.2,0.7000000000000001,3.2,9.4,-2.7,4.4,-1.5,16
1180,19785.0,-0.1,0.0,0.2,0.6000000000000001,3.2,9.5,-1.6,4.0,-0.7,16
1181,19800.0,-0.1,-0.1,0.30000000000000004,0.6000000000000001,3.0,9.600000000000001,-1.0,4.1,0.4,16
1182,19820.0,-0.1,-0.30000000000000004,0.4,0.6000000000000001,2.9000000000000004,9.700000000000001,0.0,3.0,0.6000000000000001,16
1183,19835.0,0.0,-0.30000000000000004,0.4,0.6000000000000001,2.8000000000000003,9.700000000000001,1.1,-0.2,-0.30000000000000004,16
1184,19850.0,0.0,-0.2,0.2,0.6000000000000001,2.9000000000000004,9.600000000000001,2.1,-4.1,-1.6,16
1185,19867.0,0.0,0.0,-0.1,0.6000000000000001,3.1,9.3,1.3,-6.4,-2.1,16
1186,19885.0,0.0,0.0,-0.2,0.7000000000000001,3.1,9.1,-0.1,-5.7,-1.8000000000000003,16
1187,19901.0,0.0,0.0,-0.30000000000000004,0.7000000000000001,3.1,9.0,0.2,-3.9,-1.9,16
1188,19920.0,0.0,0.1,-0.30000000000000004,0.7000000000000001,3.2,9.0,0.9000000000000001,-1.5,-1.9,16
1189,19934.0,0.0,0.2,-0.30000000000000004,0.7000000000000001,3.3000000000000003,9.0,1.0,1.1,-1.4,16
1190,19955.0,0.0,0.2,-0.2,0.6000000000000001,3.3000000000000003,9.0,0.2,2.1,-0.6000000000000001,16
1191,19968.0,-0.1,0.1,-0.1,0.6000000000000001,3.2,9.1,-1.7,2.9,-0.1,16
1192,19984.0,-0.2,0.0,0.0,0.5,3.1,9.3,-2.5,4.5,0.4,16
1193,20000.0,-0.2,-0.2,0.30000000000000004,0.4,3.0,9.600000000000001,-1.0,4.5,0.7,16
1194,20020.0,-0.1,-0.2,0.30000000000000004,0.5,2.9000000000000004,9.600000000000001,1.8000000000000003,1.2000000000000002,0.5,16
1195,20035.0,0.0,0.0,0.0,0.6000000000000001,3.0,9.4,2.3,-2.6,-0.30000000000000004,16
1196,20051.0,0.1,0.1,-0.1,0.7000000000000001,3.2,9.200000000000001,0.2,-4.7,-0.6000000000000001,16
1197,20067.0,0.1,0.1,-0.2,0.7000000000000001,3.3000000000000003,9.1,-1.3,-4.5,-0.2,16
1198,20084.0,0.1,0.1,-0.2,0.8,3.2,9.1,-1.8000000000000003,-2.4000000000000004,0.4,16
1199,20100.0,0.1,0.0,-0.1,0.8,3.1,9.200000000000001,-0.9000000000000001,1.2000000000000002,0.4,16
1200,20122.0,0.1,0.0,0.0,0.8,3.1,9.200000000000001,0.8,2.4000000000000004,-0.4,16
1201,20135.0,0.0,0.0,0.0,0.7000000000000001,3.2,9.200000000000001,1.1,2.8,-0.8,16
1202,20155.0,-0.1,0.1,0.0,0.6000000000000001,3.2,9.3,-0.1,3.3000000000000007,-0.5,16
1203,20167.0,-0.1,0.0,0.2,0.5,3.2,9.4,-1.1,3.3000000000000007,0.30000000000000004,16
1204,20183.0,-0.2,0.0,0.30000000000000004,0.4,3.1,9.600000000000001,-0.2,2.3,1.1,16
1205,20200.0,-0.2,-0.1,0.30000000000000004,0.4,3.0,9.600000000000001,1.6,0.0,1.9,16
1206,20219.0,-0.1,-0.1,0.1,0.5,3.0,9.4,2.0,-2.5,2.0,16
1207,20233.0,0.0,-0.1,-0.1,0.6000000000000001,3.0,9.3,0.9000000000000001,-4.5,1.6,16
1208,20250.0,0.0,0.0,-0.1,0.6000000000000001,3.1,9.200000000000001,-0.2,-5.500000000000001,1.6,16
1209,20267.0,0.1,0.0,-0.2,0.7000000000000001,3.1,9.1,-0.7,-4.7,2.0,16
1210,20284.0,0.2,0.0,-0.2,0.8,3.1,9.1,-0.1,-3.4,2.1,16
1211,20300.0,0.2,0.0,-0.30000000000000004,0.9,3.2,8.9,0.30000000000000004,-2.0,1.6,16
1212,20317.0,0.30000000000000004,0.1,-0.30000000000000004,1.0,3.2,9.0,-0.7,0.8,0.9000000000000001,16
1213,20333.0,0.1,0.1,0.0,0.9,3.2,9.200000000000001,-1.1,3.4,0.5,16
1214,20350.0,0.1,0.1,0.1,0.8,3.2,9.4,-0.6000000000000001,4.2,0.9000000000000001,16
1215,20367.0,0.0,0.0,0.2,0.7000000000000001,3.1,9.5,-0.5,3.7000000000000006,1.2000000000000002,16
1216,20384.0,0.0,-0.1,0.30000000000000004,0.7000000000000001,3.0,9.600000000000001,-0.5,2.6,0.8,16
1217,20400.0,0.0,-0.1,0.4,0.7000000000000001,3.1,9.700000000000001,0.4,0.5,0.4,16
1218,20420.0,0.0,-0.1,0.30000000000000004,0.7000000000000001,3.1,9.600000000000001,1.9,-2.4000000000000004,0.2,16
1219,20434.0,0.0,-0.1,0.0,0.7000000000000001,3.0,9.4,1.8000000000000003,-4.0,-0.30000000000000004,16
1220,20450.0,0.1,-0.1,-0.1,0.8,3.0,9.200000000000001,1.5,-3.3000000000000007,-1.3,16
1221,20467.0,0.0,0.0,-0.2,0.7000000000000001,3.1,9.1,1.5,-1.9,-1.8000000000000003,16
1222,20484.0,0.0,0.1,-0.30000000000000004,0.7000000000000001,3.2,9.0,1.6,-0.2,-0.8,16
1223,20500.0,0.0,0.1,-0.30000000000000004,0.8,3.2,8.9,0.4,1.0,0.1,16
1224,20517.0,0.1,0.0,-0.2,0.8,3.1,9.1,-1.5,2.5,0.30000000000000004,16
1225,20533.0,0.0,0.0,0.1,0.7000000000000001,3.1,9.3,-1.3,2.6,0.30000000000000004,16
1226,20550.0,0.0,0.0,0.1,0.7000000000000001,3.1,9.3,-0.1,0.30000000000000004,0.0,16
1227,20567.0,0.1,0.0,0.0,0.8,3.1,9.200000000000001,-0.4,-1.2000000000000002,-0.4,16
1228,20584.0,0.1,0.1,-0.1,0.8,3.2,9.1,-1.6,-0.6000000000000001,-0.9000000000000001,16
1229,20600.0,0.1,0.1,-0.1,0.8,3.2,9.3,-2.0,1.2000000000000002,-1.0,16
1230,20617.0,0.1,0.1,0.2,0.8,3.2,9.5,0.1,3.4,-0.5,16
1231,20634.0,0.1,0.0,0.2,0.8,3.1,9.5,2.8,3.7000000000000006,-0.6000000000000001,16
1232,20650.0,0.1,0.0,0.2,0.8,3.2,9.5,3.5,2.7,-1.5,16
1233,20667.0,0.1,0.1,0.2,0.8,3.2,9.5,2.3,2.3,-2.1,16
1234,20683.0,0.0,0.1,0.30000000000000004,0.7000000000000001,3.3000000000000003,9.600000000000001,2.1,2.1,-1.7,16
1235,20703.0,-0.1,0.0,0.2,0.6000000000000001,3.2,9.600000000000001,3.2,2.0,-0.8,16
1236,20717.0,-0.1,-0.1,0.30000000000000004,0.6000000000000001,3.1,9.600000000000001,4.300000000000001,3.0,-0.2,16
1237,20734.0,-0.1,-0.2,0.30000000000000004,0.5,3.0,9.700000000000001,6.300000000000001,3.8,-0.1,16
1238,20750.0,-0.2,-0.30000000000000004,0.30000000000000004,0.5,2.9000000000000004,9.600000000000001,8.3,2.8,-0.2,16
1239,20767.0,-0.2,-0.2,0.2,0.5,3.0,9.5,9.2,1.3,-0.4,16
1240,20784.0,-0.2,-0.1,0.1,0.5,3.1,9.4,9.0,-0.5,-0.5,16
1241,20800.0,-0.2,-0.1,-0.1,0.5,3.2,9.3,7.9,-2.3,-0.30000000000000004,16
1242,20820.0,-0.1,0.0,-0.1,0.6000000000000001,3.3000000000000003,9.1,7.400000000000001,-3.5,0.5,16
1243,20834.0,-0.1,0.0,-0.2,0.6000000000000001,3.3000000000000003,9.1,7.400000000000001,-3.5,0.5,16
1244,20851.0,0.0,0.0,-0.4,0.6000000000000001,3.3000000000000003,8.9,7.1000000000000005,-3.2,0.8,16
1245,20867.0,0.0,0.0,-0.4,0.7000000000000001,3.3000000000000003,8.8,6.600000000000001,-2.1,1.1,16
1246,20883.0,0.1,0.1,-0.4,0.7000000000000001,3.4000000000000004,8.8,6.8,-0.30000000000000004,1.0,16
1247,20901.0,0.0,0.1,-0.5,0.7000000000000001,3.5,8.700000000000001,5.4,0.9000000000000001,1.5,16
1248,20923.0,0.0,0.2,-0.4,0.6000000000000001,3.5,8.8,0.5,2.9,2.9,16
1249,20935.0,0.0,0.2,-0.30000000000000004,0.6000000000000001,3.5,8.8,0.5,2.9,2.9,16
1250,20950.0,0.0,0.1,-0.30000000000000004,0.6000000000000001,3.5,9.0,-0.4,3.6000000000000005,3.4,16
1251,20967.0,-0.1,0.0,0.0,0.5,3.4000000000000004,9.1,0.0,4.2,3.6000000000000005,16
1252,20983.0,-0.1,0.0,0.1,0.5,3.4000000000000004,9.200000000000001,0.4,3.9,3.8,16
1253,21000.0,-0.1,0.0,0.1,0.5,3.4000000000000004,9.3,0.4,1.9,3.7000000000000006,16
1254,21019.0,-0.1,0.1,0.1,0.5,3.4000000000000004,9.200000000000001,-0.8,-0.4,3.8,16
1255,21035.0,0.0,0.1,0.1,0.6000000000000001,3.5,9.200000000000001,-2.4000000000000004,-3.0,3.9,16
1256,21052.0,0.0,0.1,0.1,0.6000000000000001,3.5,9.200000000000001,-2.8,-4.0,4.4,16
1257,21068.0,0.1,0.0,0.0,0.7000000000000001,3.4000000000000004,9.200000000000001,-2.2,-3.0,4.800000000000001,16
1258,21083.0,0.1,0.0,0.0,0.8,3.4000000000000004,9.200000000000001,-1.0,-1.0,4.7,16
1259,21101.0,0.2,0.0,0.0,0.8,3.3000000000000003,9.200000000000001,0.5,0.0,4.2,16
1260,21119.0,0.2,0.0,-0.2,0.8,3.4000000000000004,9.0,0.4,-0.7,3.3000000000000007,16
1261,21134.0,0.2,0.0,-0.30000000000000004,0.9,3.4000000000000004,8.9,-1.8000000000000003,-0.5,2.6,16
1262,21150.0,0.1,0.0,-0.2,0.8,3.4000000000000004,9.0,-3.7000000000000006,1.1,2.6,16
1263,21167.0,0.1,0.0,0.1,0.8,3.4000000000000004,9.200000000000001,-3.3000000000000007,2.1,2.9,16
1264,21183.0,0.1,-0.1,0.1,0.9,3.3000000000000003,9.200000000000001,-2.1,2.0,2.9,16
1265,21200.0,0.2,-0.1,0.1,0.9,3.2,9.3,-2.0,2.0,2.0,16
1266,21220.0,0.1,-0.1,0.2,0.8,3.2,9.4,-2.3,1.9,1.1,16
1267,21234.0,0.1,-0.1,0.30000000000000004,0.8,3.2,9.5,-1.6,0.7,0.5,16
1268,21251.0,0.1,-0.1,0.2,0.8,3.2,9.4,-0.6000000000000001,-1.6,-0.4,16
1269,21267.0,0.1,-0.1,0.1,0.9,3.2,9.3,-1.2000000000000002,-2.0,-1.1,16
1270,21283.0,0.1,0.0,0.1,0.8,3.3000000000000003,9.3,-1.7,-1.6,-1.3,16
1271,21300.0,0.1,0.0,0.2,0.8,3.2,9.4,-0.8,-2.0,-1.3,16
1272,21318.0,0.1,0.0,0.0,0.8,3.2,9.3,-0.1,-2.3,-1.8000000000000003,16
1273,21336.0,0.0,0.0,-0.1,0.8,3.2,9.200000000000001,-0.6000000000000001,-1.6,-2.5,16
1274,21350.0,0.0,0.0,0.0,0.7000000000000001,3.2,9.200000000000001,-0.9000000000000001,-0.5,-2.9,16
1275,21367.0,-0.1,0.0,0.1,0.6000000000000001,3.3000000000000003,9.3,0.4,-0.8,-3.1,16
1276,21383.0,-0.1,0.0,0.0,0.7000000000000001,3.3000000000000003,9.200000000000001,1.2000000000000002,-1.8000000000000003,-3.2,16
1277,21400.0,-0.1,0.1,-0.2,0.7000000000000001,3.4000000000000004,9.1,0.4,-2.1,-3.4,16
1278,21420.0,-0.1,0.1,-0.1,0.6000000000000001,3.4000000000000004,9.0,-1.1,-1.3,-3.2,16
1279,21438.0,-0.1,0.2,0.0,0.6000000000000001,3.5,9.200000000000001,-1.7,-0.6000000000000001,-2.4000000000000004,16
1280,21450.0,-0.1,0.2,0.0,0.6000000000000001,3.5,9.200000000000001,-1.7,-0.6000000000000001,-2.4000000000000004,16
1281,21467.0,-0.1,0.0,0.1,0.7000000000000001,3.3000000000000003,9.3,-0.5,-1.1,-0.7,16
1282,21484.0,0.0,0.0,0.0,0.7000000000000001,3.3000000000000003,9.200000000000001,-0.7,-2.3,-1.0,16
1283,21500.0,0.0,0.0,0.0,0.7000000000000001,3.3000000000000003,9.200000000000001,-1.3,-2.4000000000000004,-1.4,16
1284,21518.0,0.0,0.0,0.0,0.8,3.3000000000000003,9.200000000000001,-1.0,-1.9,-1.4,16
1285,21534.0,0.1,0.0,0.0,0.8,3.3000000000000003,9.200000000000001,-0.7,-1.1,-1.3,16
1286,21550.0,0.1,0.0,0.0,0.8,3.3000000000000003,9.200000000000001,-0.6000000000000001,0.0,-1.4,16
1287,21567.0,0.1,-0.1,0.0,0.9,3.2,9.200000000000001,-0.4,-0.8,-2.0,16
1288,21584.0,0.2,-0.1,-0.2,0.9,3.2,9.1,-1.3,-1.3,-3.0,16
1289,21600.0,0.1,-0.1,-0.2,0.9,3.2,9.0,-3.0,0.0,-3.7000000000000006,16
1290,21617.0,0.1,-0.2,0.1,0.8,3.1,9.200000000000001,-3.5,3.0,-4.2,16
1291,21634.0,0.0,-0.2,0.2,0.8,3.0,9.4,-0.7,3.3000000000000007,-5.2,16
1292,21650.0,0.0,-0.1,0.1,0.7000000000000001,3.2,9.3,1.4,1.7,-6.0,16
1293,21667.0,0.0,0.2,-0.1,0.7000000000000001,3.5,9.1,0.30000000000000004,0.6000000000000001,-5.9,16
1294,21683.0,-0.1,0.4,-0.1,0.6000000000000001,3.7,9.1,-2.4000000000000004,-0.2,-4.1,16
1295,21703.0,-0.1,0.4,-0.1,0.6000000000000001,3.7,9.1,-2.4000000000000004,-0.2,-4.1,16
1296,21721.0,-0.1,0.2,0.1,0.6000000000000001,3.5,9.3,-5.1000000000000005,-1.5,0.6000000000000001,16
1297,21738.0,-0.1,0.0,0.0,0.6000000000000001,3.3000000000000003,9.200000000000001,-4.6,-3.5,1.1,16
1298,21750.0,-0.1,-0.1,-0.1,0.6000000000000001,3.1,9.1,-5.1000000000000005,-4.5,0.4,16
1299,21767.0,-0.2,-0.1,0.0,0.6000000000000001,3.1,9.200000000000001,-4.0,-3.5,-0.8,16
1300,21784.0,-0.30000000000000004,0.1,0.1,0.5,3.3000000000000003,9.3,-1.1,-2.0,-0.30000000000000004,16
1301,21800.0,-0.30000000000000004,0.1,0.0,0.4,3.4000000000000004,9.200000000000001,1.1,-0.8,1.9,16
1302,21817.0,-0.1,0.0,-0.2,0.6000000000000001,3.3000000000000003,9.0,0.4,-2.2,3.5,16
1303,21834.0,0.1,-0.2,-0.30000000000000004,0.8,3.1,8.9,-4.300000000000001,-3.1,2.5,16
1304,21850.0,0.1,-0.2,-0.2,0.8,3.0,9.0,-7.6,-0.7,1.0,16
1305,21867.0,0.0,-0.2,0.2,0.7000000000000001,3.0,9.4,-5.7,3.2,0.5,16
1306,21883.0,0.0,-0.1,0.30000000000000004,0.7000000000000001,3.0,9.600000000000001,0.0,5.6,1.0,16
1307,21901.0,0.1,0.0,0.30000000000000004,0.8,3.2,9.5,2.8,5.500000000000001,0.8,16
1308,21918.0,0.1,0.2,0.2,0.8,3.3000000000000003,9.4,1.2000000000000002,3.6000000000000005,0.30000000000000004,16
1309,21933.0,0.0,0.30000000000000004,0.0,0.7000000000000001,3.4000000000000004,9.3,-2.6,0.4,0.7,16
1310,21951.0,0.1,0.2,0.1,0.8,3.3000000000000003,9.4,-5.8,-0.6000000000000001,1.6,16
1311,21967.0,0.1,0.0,0.30000000000000004,0.8,3.1,9.600000000000001,-4.7,0.30000000000000004,2.2,16
1312,21983.0,0.1,-0.1,0.30000000000000004,0.8,3.0,9.600000000000001,0.0,0.30000000000000004,1.7,16
1313,22000.0,0.1,-0.1,0.2,0.8,3.1,9.4,2.9,-0.9000000000000001,1.0,16
1314,22017.0,0.1,0.0,-0.1,0.8,3.2,9.200000000000001,2.0,-1.5,0.8,16
1315,22034.0,0.0,0.1,-0.2,0.7000000000000001,3.2,9.1,-0.7,-1.6,1.3,16
1316,22050.0,0.0,0.0,-0.1,0.7000000000000001,3.1,9.1,-2.6,-2.9,2.0,16
1317,22069.0,0.0,-0.1,-0.2,0.8,3.1,9.1,-3.7000000000000006,-2.6,2.0,16
1318,22085.0,0.0,-0.1,0.0,0.8,3.1,9.200000000000001,-4.1,0.5,2.3,16
1319,22100.0,0.0,0.0,0.2,0.7000000000000001,3.1,9.4,-3.0,3.4,3.0,16
1320,22118.0,0.0,0.0,0.2,0.7000000000000001,3.1,9.5,-1.2000000000000002,3.6000000000000005,3.5,16
1321,22135.0,0.0,0.0,0.1,0.8,3.1,9.4,-0.7,2.3,3.1,16
1322,22151.0,0.0,0.0,0.0,0.8,3.1,9.3,-1.9,2.0,2.1,16
1323,22167.0,0.0,0.0,0.1,0.7000000000000001,3.1,9.4,-2.6,2.5,1.9,16
1324,22183.0,0.0,0.1,0.1,0.7000000000000001,3.2,9.4,-2.2,1.8000000000000003,2.8,16
1325,22202.0,0.1,0.0,0.0,0.8,3.1,9.3,-2.9,0.4,3.5,16
1326,22217.0,0.1,0.0,-0.1,0.9,3.0,9.3,-4.5,-0.6000000000000001,3.3000000000000007,16
1327,22235.0,0.2,-0.1,-0.1,0.9,2.9000000000000004,9.3,-5.2,-0.2,2.1,16
1328,22250.0,0.1,-0.1,0.0,0.9,2.9000000000000004,9.3,-4.5,0.7,1.0,16
1329,22267.0,0.0,-0.1,0.0,0.8,2.9000000000000004,9.4,-2.8,2.0,0.8,16
1330,22283.0,0.0,-0.1,0.2,0.7000000000000001,2.9000000000000004,9.5,0.0,2.7,1.3,16
1331,22300.0,0.1,-0.2,0.1,0.8,2.8000000000000003,9.4,2.3,1.3,1.0,16
1332,22319.0,0.1,-0.30000000000000004,-0.2,0.9,2.7,9.3,2.8,-0.7,0.2,16
1333,22343.0,0.1,-0.30000000000000004,0.0,0.9,2.6,9.3,1.2000000000000002,-5.0,-2.7,16
1334,22350.0,0.1,-0.30000000000000004,0.0,0.9,2.6,9.3,1.2000000000000002,-5.0,-2.7,16
1335,22367.0,0.2,-0.30000000000000004,-0.1,1.0,2.7,9.200000000000001,1.5,-7.699999999999999,-4.4,16
1336,22383.0,0.2,-0.1,-0.4,1.0,2.9000000000000004,9.0,0.7,-8.3,-5.8,16
1337,22401.0,0.2,0.1,-0.5,1.0,3.1,8.8,-1.2000000000000002,-6.699999999999999,-6.500000000000001,16
1338,22417.0,0.1,0.2,-0.5,0.9,3.2,8.8,-3.4,-2.2,-5.9,16
1339,22433.0,0.0,0.2,-0.1,0.8,3.1,9.200000000000001,-3.7000000000000006,2.9,-4.4,16
1340,22450.0,-0.1,0.1,0.0,0.8,2.9000000000000004,9.3,-1.4,4.5,-3.9,16
1341,22467.0,-0.1,-0.1,0.1,0.7000000000000001,2.9000000000000004,9.4,-0.4,4.5,-4.800000000000001,16
1342,22484.0,-0.2,0.1,0.2,0.6000000000000001,3.0,9.4,-0.5,3.4,-5.500000000000001,16
1343,22500.0,-0.2,0.2,0.2,0.5,3.2,9.5,-1.1,1.2000000000000002,-4.7,16
1344,22517.0,-0.2,0.2,0.0,0.5,3.2,9.3,-1.9,-0.6000000000000001,-3.2,16
1345,22534.0,-0.2,0.2,-0.1,0.5,3.1,9.200000000000001,-3.0,-0.5,-1.6,16
1346,22552.0,-0.2,0.1,0.0,0.6000000000000001,3.1,9.3,-3.2,1.1,-0.5,16
1347,22567.0,-0.1,0.1,0.0,0.6000000000000001,3.0,9.3,-2.0,1.8000000000000003,-0.1,16
1348,22584.0,-0.1,0.1,0.0,0.6000000000000001,3.1,9.3,-1.7,2.7,0.6000000000000001,16
1349,22600.0,-0.1,0.0,0.1,0.6000000000000001,3.0,9.4,-1.8000000000000003,3.5,1.4,16
1350,22617.0,0.0,-0.1,0.1,0.6000000000000001,2.9000000000000004,9.5,-0.9000000000000001,1.3,1.8000000000000003,16
1351,22633.0,0.0,-0.1,0.0,0.7000000000000001,2.8000000000000003,9.4,-0.9000000000000001,-0.5,1.6,16
1352,22650.0,0.0,-0.1,0.0,0.7000000000000001,2.8000000000000003,9.4,-1.5,0.0,1.0,16
1353,22667.0,0.0,-0.1,0.2,0.7000000000000001,2.9000000000000004,9.5,-1.0,0.9000000000000001,1.1,16
1354,22683.0,0.0,-0.1,0.2,0.7000000000000001,2.8000000000000003,9.5,0.6000000000000001,1.2000000000000002,1.2000000000000002,16
1355,22700.0,0.0,-0.1,0.2,0.7000000000000001,2.8000000000000003,9.5,2.1,1.7,0.6000000000000001,16
1356,22717.0,0.0,0.0,0.1,0.7000000000000001,2.9000000000000004,9.5,2.9,1.1,0.1,16
1357,22733.0,-0.1,0.1,0.0,0.6000000000000001,3.0,9.4,2.6,-0.4,0.2,16
1358,22750.0,0.0,0.1,-0.1,0.6000000000000001,3.1,9.3,1.5,-1.2000000000000002,0.8,16
1359,22767.0,0.0,0.1,-0.1,0.7000000000000001,3.1,9.3,0.6000000000000001,-1.5,1.2000000000000002,16
1360,22784.0,0.0,0.1,-0.1,0.7000000000000001,3.1,9.200000000000001,0.2,-0.9000000000000001,1.5,16
1361,22801.0,0.0,0.1,-0.1,0.7000000000000001,3.1,9.3,0.5,1.0,1.7,16
1362,22819.0,0.0,0.1,0.0,0.6000000000000001,3.1,9.3,2.1,1.5,2.2,16
1363,22836.0,0.0,0.0,-0.1,0.7000000000000001,3.0,9.3,2.7,0.5,2.6,16
1364,22850.0,0.1,0.0,-0.1,0.8,3.0,9.200000000000001,1.7,-0.2,2.5,16
1365,22867.0,0.1,0.0,-0.1,0.8,3.0,9.200000000000001,0.5,0.0,2.2,16
1366,22884.0,0.1,0.0,0.0,0.8,3.0,9.3,0.7,-0.7,2.2,16
1367,22900.0,0.1,0.0,-0.1,0.8,3.0,9.200000000000001,0.4,-2.7,1.9,16
1368,22919.0,0.2,-0.1,-0.1,0.9,2.9000000000000004,9.200000000000001,-1.2000000000000002,-2.4000000000000004,1.3,16
1369,22935.0,0.2,-0.1,0.1,1.0,2.9000000000000004,9.3,-1.7,-1.1,0.8,16
1370,22951.0,0.2,-0.1,0.1,1.0,2.9000000000000004,9.3,-1.7,-1.1,0.8,16
1371,22967.0,0.30000000000000004,-0.2,0.0,1.1,2.8000000000000003,9.3,-0.7,-4.6,-1.2000000000000002,16
1372,22983.0,0.2,-0.2,-0.1,1.1,2.8000000000000003,9.200000000000001,-2.4000000000000004,-4.4,-2.7,16
1373,23000.0,0.2,-0.2,-0.1,1.0,2.8000000000000003,9.200000000000001,-3.6000000000000005,-3.0,-4.0,16
1374,23017.0,0.0,-0.1,0.0,0.9,2.8000000000000003,9.3,-2.7,-0.30000000000000004,-4.300000000000001,16
1375,23033.0,0.0,-0.1,0.2,0.8,2.8000000000000003,9.5,0.0,2.3,-4.1,16
1376,23050.0,0.0,-0.1,0.2,0.8,2.8000000000000003,9.5,2.2,1.1,-4.5,16
1377,23067.0,0.0,0.0,0.0,0.8,2.9000000000000004,9.3,0.9000000000000001,-0.6000000000000001,-5.6,16
1378,23083.0,0.0,0.1,0.0,0.7000000000000001,3.0,9.4,-1.4,-1.4,-6.300000000000001,16
1379,23115.0,-0.1,0.2,-0.1,0.7000000000000001,3.2,9.200000000000001,-1.4,-3.6000000000000005,-5.300000000000001,16
1380,23118.0,-0.1,0.2,-0.1,0.7000000000000001,3.2,9.200000000000001,-1.4,-3.6000000000000005,-5.300000000000001,16
1381,23139.0,-0.1,0.1,-0.2,0.7000000000000001,3.1,9.1,-2.2,-1.8000000000000003,-4.9,16
1382,23152.0,-0.1,0.2,-0.1,0.6000000000000001,3.1,9.4,-2.2,2.1,-4.9,16
1383,23167.0,-0.2,0.2,0.1,0.6000000000000001,3.1,9.4,-2.2,2.1,-4.9,16
1384,23183.0,-0.2,0.1,0.2,0.5,3.1,9.5,-0.30000000000000004,1.9,-3.7000000000000006,16
1385,23200.0,-0.2,0.1,0.1,0.5,3.0,9.4,0.6000000000000001,0.0,-2.7,16
1386,23219.0,-0.2,0.0,-0.1,0.6000000000000001,2.9000000000000004,9.3,-0.6000000000000001,-1.3,-2.6,16
1387,23234.0,-0.1,0.0,0.0,0.6000000000000001,2.9000000000000004,9.3,-2.0,-1.5,-2.5,16
1388,23252.0,-0.1,0.0,0.0,0.6000000000000001,2.9000000000000004,9.3,-1.7,-2.4000000000000004,-1.9,16
1389,23269.0,-0.1,0.0,-0.1,0.7000000000000001,2.9000000000000004,9.200000000000001,-1.5,-2.1,-1.3,16
1390,23286.0,0.0,-0.1,0.0,0.7000000000000001,2.8000000000000003,9.3,-1.8000000000000003,0.5,-1.2000000000000002,16
1391,23302.0,0.0,-0.1,0.0,0.7000000000000001,2.8000000000000003,9.4,-0.9000000000000001,1.8000000000000003,-1.5,16
1392,23318.0,0.0,0.0,0.1,0.7000000000000001,2.9000000000000004,9.5,0.4,1.8000000000000003,-1.8000000000000003,16
1393,23333.0,0.0,0.0,0.1,0.7000000000000001,2.9000000000000004,9.5,0.4,1.4,-1.8000000000000003,16
1394,23350.0,0.0,0.0,0.1,0.7000000000000001,3.0,9.5,0.1,-0.1,-2.0,16
1395,23367.0,0.0,0.1,0.1,0.7000000000000001,3.0,9.4,-0.2,-0.7,-1.9,16
1396,23383.0,0.0,0.1,0.1,0.7000000000000001,3.0,9.4,0.0,-1.1,-1.5,16
1397,23400.0,0.0,0.0,-0.1,0.7000000000000001,3.0,9.3,0.6000000000000001,-1.5,-1.1,16
1398,23417.0,0.0,0.0,-0.1,0.7000000000000001,3.0,9.200000000000001,0.4,-1.6,-0.8,16
1399,23433.0,0.0,0.0,-0.2,0.7000000000000001,3.0,9.1,-0.9000000000000001,-0.9000000000000001,-0.30000000000000004,16
1400,23450.0,0.0,0.0,-0.2,0.7000000000000001,2.9000000000000004,9.200000000000001,-1.5,0.6000000000000001,-0.2,16
1401,23467.0,-0.1,-0.1,-0.1,0.6000000000000001,2.9000000000000004,9.200000000000001,-0.9000000000000001,1.5,-0.1,16
1402,23484.0,-0.1,0.0,0.0,0.6000000000000001,2.9000000000000004,9.3,-0.4,2.6,0.0,16
1403,23500.0,-0.1,0.0,0.0,0.6000000000000001,2.9000000000000004,9.4,0.0,1.1,0.5,16
1404,23517.0,-0.1,0.0,0.0,0.5,2.9000000000000004,9.3,-1.5,-0.6000000000000001,1.0,16
1405,23533.0,-0.1,-0.1,0.1,0.6000000000000001,2.9000000000000004,9.5,-2.8,-1.3,1.4,16
1406,23550.0,-0.1,0.0,0.1,0.6000000000000001,2.9000000000000004,9.5,-1.7,-3.7000000000000006,1.1,16
1407,23567.0,0.0,0.1,0.0,0.7000000000000001,3.0,9.4,-1.4,-4.7,1.0,16
1408,23583.0,0.0,0.1,0.0,0.7000000000000001,3.0,9.3,-1.7,-2.6,1.3,16
1409,23600.0,0.1,0.1,0.0,0.8,3.0,9.3,-1.6,-0.7,1.5,16
1410,23617.0,0.1,0.1,0.0,0.8,3.0,9.4,-1.3,1.6,1.6,16
1411,23633.0,0.0,0.1,0.2,0.7000000000000001,3.0,9.600000000000001,0.4,2.8,1.4,16
1412,23652.0,0.0,0.1,0.1,0.7000000000000001,3.0,9.5,1.7,1.7,1.3,16
1413,23667.0,0.0,0.1,0.2,0.7000000000000001,3.0,9.600000000000001,1.3,1.5,1.8000000000000003,16
1414,23683.0,0.0,0.1,0.30000000000000004,0.7000000000000001,3.0,9.700000000000001,1.3,0.7,2.1,16
1415,23700.0,0.0,0.0,0.30000000000000004,0.8,3.0,9.600000000000001,2.6,-1.9,1.5,16
1416,23718.0,0.0,0.1,0.0,0.7000000000000001,3.0,9.4,2.6,-2.0,1.3,16
1417,23735.0,0.0,0.1,0.0,0.7000000000000001,3.0,9.4,2.7,0.0,2.0,16
1418,23750.0,0.0,0.0,0.0,0.7000000000000001,3.0,9.4,4.4,0.0,2.7,16
