,ms,accelX,accelY,accelZ,accelWithGX,accelWithGY,accelWithGZ,rotRateAlpha,rotRateBeta,rotRateGamma,interval
0,100.0,0.1,0.0,-0.1,1.8,2.9000000000000004,9.700000000000001,3.3000000000000007,21.7,-2.7,16
1,103.0,0.1,0.0,-0.1,1.9000000000000001,3.0,9.700000000000001,3.3000000000000007,21.7,-2.7,16
2,139.0,0.1,0.0,-0.2,1.9000000000000001,2.9000000000000004,9.4,5.9,22.8,-5.0,16
3,153.0,0.1,0.0,-0.2,1.9000000000000001,2.9000000000000004,9.4,5.9,22.8,-5.0,16
4,170.0,0.1,-0.1,-0.6000000000000001,1.5,2.8000000000000003,9.0,4.7,28.200000000000003,-13.700000000000001,16
5,190.0,0.0,-0.2,-0.5,1.2000000000000002,2.7,9.200000000000001,1.4,30.000000000000004,-15.899999999999999,16
6,204.0,-0.2,-0.30000000000000004,-0.30000000000000004,1.1,2.7,9.3,-1.0,31.099999999999998,-17.0,16
7,220.0,-0.2,-0.30000000000000004,-0.1,1.0,2.6,9.3,-1.3,32.1,-16.1,16
8,237.0,-0.1,-0.30000000000000004,-0.2,1.0,2.6,9.200000000000001,-0.9000000000000001,35.0,-14.700000000000001,16
9,253.0,-0.1,-0.2,-0.4,0.8,2.6,8.9,-1.5,38.7,-13.6,16
10,270.0,-0.1,-0.2,-0.6000000000000001,0.6000000000000001,2.6,8.700000000000001,-4.300000000000001,39.9,-13.3,16
11,288.0,-0.2,-0.2,-0.6000000000000001,0.5,2.6,8.8,-9.0,39.1,-12.5,16
12,303.0,-0.2,-0.2,-0.30000000000000004,0.30000000000000004,2.5,9.3,-13.3,36.300000000000004,-10.9,16
13,321.0,-0.2,-0.30000000000000004,0.1,0.30000000000000004,2.4000000000000004,9.9,-14.700000000000001,30.5,-9.2,16
14,337.0,-0.1,-0.30000000000000004,0.5,0.4,2.2,10.0,-12.4,20.7,-7.6,16
15,353.0,0.0,-0.4,0.7000000000000001,0.4,2.1,10.3,-7.6,9.600000000000001,-6.4,16
16,370.0,0.0,-0.5,0.9,0.5,2.0,10.4,-1.4,-1.9,-5.0,16
17,387.0,0.1,-0.6000000000000001,0.7000000000000001,0.6000000000000001,1.9000000000000001,10.100000000000001,4.4,-11.6,-3.4,16
18,404.0,0.1,-0.6000000000000001,0.4,0.6000000000000001,1.9000000000000001,9.9,7.400000000000001,-16.0,-2.0,16
19,422.0,0.2,-0.6000000000000001,0.2,0.7000000000000001,2.0,9.600000000000001,7.6,-15.2,-0.6000000000000001,16
20,440.0,0.2,-0.5,-0.1,0.7000000000000001,2.1,9.3,5.8,-11.5,0.2,16
21,454.0,0.1,-0.4,-0.30000000000000004,0.7000000000000001,2.1,9.1,2.7,-7.6,0.4,16
22,470.0,0.0,-0.30000000000000004,-0.6000000000000001,0.6000000000000001,2.3000000000000003,8.9,-1.3,-5.2,0.7,16
23,487.0,0.0,-0.2,-0.6000000000000001,0.6000000000000001,2.3000000000000003,9.0,-5.6,-4.300000000000001,1.1,16
24,503.0,-0.1,-0.1,-0.5,0.5,2.3000000000000003,9.1,-8.5,-6.8,1.2000000000000002,16
25,520.0,-0.2,-0.1,-0.30000000000000004,0.5,2.3000000000000003,9.3,-9.100000000000001,-12.4,1.4,16
26,537.0,-0.2,-0.1,-0.1,0.5,2.3000000000000003,9.600000000000001,-7.699999999999999,-18.6,2.0,16
27,553.0,-0.2,0.0,0.1,0.6000000000000001,2.3000000000000003,9.600000000000001,-4.9,-24.5,2.9,16
28,570.0,-0.2,0.0,0.1,0.7000000000000001,2.4000000000000004,9.700000000000001,-2.6,-29.300000000000004,3.9,16
29,587.0,-0.2,0.0,0.2,0.8,2.4000000000000004,9.8,-0.7,-32.5,4.6,16
30,603.0,-0.2,0.1,0.30000000000000004,0.8,2.4000000000000004,9.8,1.4,-34.50000000000001,5.2,16
31,620.0,-0.1,0.1,0.30000000000000004,1.1,2.5,9.8,3.3000000000000007,-34.900000000000006,5.7,16
32,637.0,-0.1,0.1,0.30000000000000004,1.2000000000000002,2.5,9.700000000000001,4.4,-33.6,5.300000000000001,16
33,653.0,-0.1,0.1,0.2,1.2000000000000002,2.5,9.700000000000001,4.4,-31.400000000000002,3.9,16
34,670.0,-0.2,0.1,0.0,1.2000000000000002,2.5,9.4,3.2,-28.3,2.5,16
35,687.0,-0.30000000000000004,0.0,-0.1,1.2000000000000002,2.4000000000000004,9.3,0.2,-24.900000000000002,2.1,16
36,703.0,-0.30000000000000004,0.0,-0.1,1.2000000000000002,2.4000000000000004,9.4,-3.1,-20.7,2.5,16
37,722.0,-0.2,0.0,0.0,1.3,2.4000000000000004,9.5,-5.9,-16.8,2.6,16
38,737.0,-0.2,0.0,0.1,1.3,2.4000000000000004,9.5,-7.400000000000001,-12.7,2.2,16
39,753.0,-0.2,0.0,0.1,1.4000000000000001,2.3000000000000003,9.600000000000001,-7.6,-10.1,2.0,16
40,770.0,-0.2,0.0,0.2,1.4000000000000001,2.3000000000000003,9.600000000000001,-7.1000000000000005,-9.0,2.0,16
41,787.0,-0.30000000000000004,0.0,0.1,1.2000000000000002,2.3000000000000003,9.4,-6.2,-7.500000000000001,2.5,16
42,803.0,-0.5,0.1,-0.2,1.0,2.4000000000000004,9.1,-6.4,-4.1,4.800000000000001,16
43,820.0,-0.5,0.0,-0.5,1.1,2.2,8.9,-9.600000000000001,2.3,9.100000000000001,16
44,837.0,-0.1,-0.2,-0.7000000000000001,1.5,2.0,8.8,-16.3,15.2,13.700000000000001,16
45,853.0,0.0,0.0,-0.5,1.5,2.3000000000000003,8.9,-25.4,34.800000000000004,16.900000000000002,16
46,874.0,0.1,0.30000000000000004,-0.5,2.2,2.1,9.200000000000001,-35.4,46.1,17.300000000000004,16
47,891.0,3.6,-0.7000000000000001,0.7000000000000001,5.0,1.0,10.4,-52.900000000000006,26.799999999999997,-7.9,16
48,906.0,3.6,-0.7000000000000001,0.7000000000000001,1.6,1.5,11.700000000000001,-52.900000000000006,26.799999999999997,-7.9,16
49,922.0,-0.8,0.2,1.7000000000000002,-0.2,1.9000000000000001,10.4,-48.50000000000001,-5.0,-34.1,16
50,936.0,-1.4000000000000001,0.2,0.8,-0.2,1.5,10.600000000000001,-38.400000000000006,-0.6000000000000001,-22.700000000000003,16
51,953.0,-1.3,-0.1,0.6000000000000001,0.30000000000000004,1.3,10.0,-35.699999999999996,-3.8,0.2,16
52,970.0,-0.7000000000000001,-0.1,0.30000000000000004,0.7000000000000001,1.3,10.100000000000001,-33.2,6.2,14.300000000000002,16
53,987.0,0.0,0.0,0.7000000000000001,1.3,1.2000000000000002,10.5,-27.9,17.7,21.0,16
54,1003.0,0.5,0.1,0.7000000000000001,1.8,1.4000000000000001,10.4,-19.700000000000003,20.1,21.300000000000004,16
55,1020.0,0.8,0.2,0.6000000000000001,1.8,1.4000000000000001,10.600000000000001,-8.5,25.300000000000004,14.600000000000001,16
56,1037.0,0.8,0.2,0.8,1.7000000000000002,1.4000000000000001,10.600000000000001,4.0,25.5,3.1,16
57,1053.0,0.6000000000000001,0.1,0.5,1.3,1.4000000000000001,10.0,17.300000000000004,13.900000000000002,-9.5,16
58,1070.0,0.2,0.1,-0.1,0.9,1.4000000000000001,9.5,28.200000000000003,4.2,-19.300000000000004,16
59,1087.0,-0.2,0.0,-0.4,0.6000000000000001,1.4000000000000001,9.200000000000001,32.8,-10.4,-24.200000000000003,16
60,1103.0,-0.5,-0.2,-0.5,0.5,1.3,9.1,32.0,-27.700000000000003,-25.4,16
61,1120.0,-0.6000000000000001,-0.30000000000000004,-0.30000000000000004,0.30000000000000004,1.3,9.700000000000001,29.1,-27.3,-23.5,16
62,1137.0,-0.8,-0.30000000000000004,-0.1,0.30000000000000004,1.4000000000000001,9.5,28.700000000000003,-19.1,-17.1,16
63,1155.0,-0.6000000000000001,-0.4,-0.30000000000000004,0.6000000000000001,1.4000000000000001,9.200000000000001,26.400000000000006,-14.0,-9.100000000000001,16
64,1170.0,-0.5,-0.30000000000000004,-0.5,0.9,1.7000000000000002,9.200000000000001,20.400000000000002,-13.100000000000001,-3.7000000000000006,16
65,1187.0,-0.30000000000000004,-0.2,-0.5,1.0,1.7000000000000002,9.200000000000001,13.200000000000003,-16.1,-1.3,16
66,1203.0,0.2,-0.30000000000000004,-0.2,1.7000000000000002,1.5,9.5,6.2,-19.0,-1.3,16
67,1222.0,0.6000000000000001,-0.4,-0.1,1.8,1.5,9.600000000000001,1.3,-16.4,-4.9,16
68,1237.0,0.30000000000000004,-0.30000000000000004,0.1,1.6,1.6,9.8,-0.8,-5.2,-8.600000000000001,16
69,1253.0,0.1,-0.2,0.30000000000000004,1.4000000000000001,1.6,10.0,-0.5,3.9,-9.600000000000001,16
70,1270.0,0.0,-0.2,0.4,1.1,1.6,9.9,1.8000000000000003,10.700000000000001,-9.3,16
71,1287.0,-0.2,-0.1,0.1,1.0,1.9000000000000001,9.8,4.9,17.6,-7.9,16
72,1303.0,-0.1,0.0,0.2,1.2000000000000002,1.9000000000000001,9.8,6.8,23.700000000000003,-5.9,16
73,1320.0,0.2,-0.1,0.0,1.3,1.8,9.5,7.9,16.4,-6.4,16
74,1339.0,0.1,-0.1,-0.2,1.1,1.8,9.3,8.700000000000001,12.100000000000001,-9.4,16
75,1353.0,0.0,-0.1,-0.30000000000000004,1.0,1.9000000000000001,9.4,7.699999999999999,8.5,-10.9,16
76,1370.0,-0.1,-0.1,0.1,1.0,1.9000000000000001,10.0,7.0,2.2,-11.000000000000002,16
77,1387.0,0.0,-0.2,0.6000000000000001,1.1,1.7000000000000002,10.200000000000001,10.9,0.0,-10.200000000000001,16
78,1403.0,0.1,-0.4,0.5,1.1,1.7000000000000002,10.0,20.3,11.700000000000001,-8.5,16
79,1420.0,0.1,-0.5,-0.1,1.0,1.7000000000000002,9.3,25.7,20.7,-6.300000000000001,16
80,1437.0,0.2,-0.30000000000000004,-0.5,1.2000000000000002,2.0,9.200000000000001,21.7,16.6,-7.1000000000000005,16
81,1453.0,0.9,-0.5,0.2,2.2,1.6,10.100000000000001,13.700000000000001,-8.899999999999999,-13.5,16
82,1470.0,0.8,-0.7000000000000001,1.3,1.6,1.8,10.9,13.000000000000002,-54.300000000000004,-25.900000000000002,16
83,1487.0,0.2,-0.5,1.0,1.8,1.3,10.600000000000001,24.0,-70.3,-40.1,16
84,1503.0,0.30000000000000004,-1.9000000000000001,1.1,1.6,0.0,10.600000000000001,35.1,-55.0,-52.7,16
85,1524.0,1.2000000000000002,-1.9000000000000001,0.2,2.8000000000000003,0.8,9.600000000000001,47.2,-58.1,-63.4,16
86,1538.0,1.2000000000000002,-1.9000000000000001,0.2,2.7,2.1,9.4,47.2,-58.1,-63.4,16
87,1555.0,0.2,0.0,-0.4,0.0,4.4,8.0,56.800000000000004,-13.5,-69.9,16
88,1570.0,-1.7000000000000002,1.5,-1.4000000000000001,-0.7000000000000001,4.800000000000001,7.5,56.7,5.7,-59.40000000000001,16
89,1587.0,-3.0,1.7000000000000002,-2.0,-2.0,4.800000000000001,6.7,42.800000000000004,3.3000000000000007,-40.300000000000004,16
90,1603.0,-3.3000000000000003,1.2000000000000002,-2.7,-1.6,4.1000000000000005,6.4,23.2,8.8,-22.2,16
91,1626.0,-2.8000000000000003,0.7000000000000001,-2.7,-1.1,3.9000000000000004,6.300000000000001,-0.7,8.3,-4.0,16
92,1636.0,-2.3000000000000003,0.7000000000000001,-2.9000000000000004,-0.4,3.7,5.800000000000001,-30.3,0.4,14.900000000000002,16
93,1653.0,-1.4000000000000001,0.1,-1.3,0.6000000000000001,2.7,10.3,-70.3,50.1,31.799999999999997,16
94,1670.0,0.1,-0.1,2.3000000000000003,1.8,2.7,13.0,-85.0,52.1,44.8,16
95,1687.0,2.2,-0.30000000000000004,3.3000000000000003,3.7,2.2,12.100000000000001,-75.7,68.0,39.699999999999996,16
96,1704.0,2.2,-0.30000000000000004,3.3000000000000003,3.7,2.2,12.100000000000001,-75.7,68.0,39.699999999999996,16
97,1721.0,2.0,0.2,2.1,2.4000000000000004,2.5,11.200000000000001,-21.1,31.400000000000002,-0.1,16
98,1737.0,0.5,0.1,0.7000000000000001,0.5,2.7,9.8,-1.5,16.4,-12.600000000000001,16
99,1753.0,-0.9,0.4,-0.2,-0.5,2.9000000000000004,9.200000000000001,8.2,7.9,-15.8,16
100,1771.0,-1.1,0.5,-0.6000000000000001,-0.2,2.8000000000000003,8.9,10.4,-1.8000000000000003,-11.000000000000002,16
101,1788.0,-0.7000000000000001,0.30000000000000004,-0.7000000000000001,0.2,2.7,8.9,6.8,-15.000000000000002,-2.7,16
102,1803.0,0.1,0.1,-0.6000000000000001,1.2000000000000002,2.4000000000000004,9.0,2.0,-22.6,4.2,16
103,1820.0,0.6000000000000001,-0.1,-0.5,1.5,2.2,9.3,-3.0,-16.0,6.8,16
104,1836.0,1.0,-0.30000000000000004,-0.2,2.3000000000000003,2.0,9.4,-7.6,-5.7,7.0,16
105,1853.0,2.9000000000000004,-0.8,0.0,2.7,1.7000000000000002,10.0,-11.3,-2.9,-1.4,16
106,1870.0,0.5,-0.30000000000000004,0.4,0.0,2.4000000000000004,9.700000000000001,-12.8,-9.0,-18.200000000000003,16
107,1886.0,-0.9,0.2,0.1,-0.2,2.6,9.5,-10.4,3.2,-16.1,16
108,1903.0,-0.7000000000000001,0.0,0.1,0.30000000000000004,1.9000000000000001,9.700000000000001,-7.1000000000000005,21.500000000000004,-3.5,16
109,1920.0,0.30000000000000004,-0.4,-0.30000000000000004,1.8,2.0,8.8,-4.1,23.400000000000002,5.7,16
110,1936.0,1.1,-0.30000000000000004,-0.7000000000000001,1.6,1.9000000000000001,9.0,-9.0,25.900000000000002,-2.6,16
111,1953.0,0.4,-0.30000000000000004,-0.30000000000000004,0.8,2.1,9.4,-16.0,23.900000000000006,-15.8,16
112,1970.0,-0.30000000000000004,0.0,-0.4,0.1,2.2,9.1,-16.5,17.300000000000004,-19.0,16
113,1987.0,-1.4000000000000001,0.0,-0.30000000000000004,-0.30000000000000004,1.8,9.4,-18.8,13.3,-12.0,16
114,2003.0,-0.6000000000000001,-0.30000000000000004,-0.1,0.2,1.7000000000000002,9.8,-21.0,6.500000000000001,-0.5,16
115,2020.0,0.0,-0.30000000000000004,0.4,0.6000000000000001,1.8,10.200000000000001,-18.900000000000002,1.1,3.3000000000000007,16
116,2037.0,0.30000000000000004,-0.2,0.7000000000000001,0.8,1.8,10.4,-11.700000000000001,-4.6,2.6,16
117,2055.0,0.5,0.0,0.8,1.0,2.0,10.4,-0.9000000000000001,-7.400000000000001,-0.7,16
118,2073.0,0.30000000000000004,-0.2,0.6000000000000001,0.7000000000000001,1.9000000000000001,10.100000000000001,10.0,-9.600000000000001,-5.7,16
119,2087.0,0.1,-0.1,0.2,0.6000000000000001,2.0,9.5,18.0,-12.9,-9.100000000000001,16
120,2103.0,0.0,-0.1,-0.2,0.6000000000000001,2.1,9.3,20.400000000000002,-17.6,-10.700000000000001,16
121,2121.0,0.1,-0.1,-0.30000000000000004,0.7000000000000001,2.2,9.3,19.200000000000003,-19.9,-11.5,16
122,2137.0,0.0,0.0,-0.30000000000000004,0.7000000000000001,2.3000000000000003,9.200000000000001,16.0,-19.200000000000003,-12.9,16
123,2153.0,0.0,0.0,-0.4,0.8,2.2,9.200000000000001,11.700000000000001,-18.200000000000003,-14.600000000000001,16
124,2172.0,0.1,0.0,-0.30000000000000004,0.8,2.4000000000000004,9.3,6.4,-14.600000000000001,-16.0,16
125,2187.0,0.1,0.1,-0.1,0.8,2.1,9.700000000000001,1.3,-8.100000000000001,-16.0,16
126,2203.0,0.0,-0.2,0.1,0.8,2.1,9.8,-2.6,-1.5,-14.800000000000002,16
127,2221.0,0.1,-0.1,0.2,0.9,2.1,9.9,-5.2,6.0,-12.200000000000001,16
128,2238.0,0.2,-0.2,0.4,0.9,2.1,10.0,-5.8,13.3,-11.700000000000001,16
129,2254.0,0.30000000000000004,-0.1,0.4,0.9,2.1,9.9,-5.1000000000000005,17.7,-12.600000000000001,16
130,2279.0,0.4,-0.1,0.2,0.9,2.1,9.8,-4.5,17.5,-12.100000000000001,16
131,2288.0,0.4,-0.1,0.2,0.7000000000000001,2.1,9.8,-4.5,17.5,-12.100000000000001,16
132,2305.0,0.1,-0.1,0.1,0.4,2.1,9.600000000000001,-2.9,19.400000000000002,-12.9,16
133,2327.0,0.0,-0.1,-0.1,0.4,2.0,9.5,-3.3000000000000007,9.0,-10.299999999999999,16
134,2338.0,0.0,-0.1,-0.1,0.4,2.1,9.5,-3.3000000000000007,9.0,-10.299999999999999,16
135,2363.0,0.0,-0.2,-0.1,0.2,2.0,9.3,-1.1,1.3,-10.700000000000001,16
136,2371.0,-0.2,-0.2,-0.30000000000000004,0.1,2.0,9.200000000000001,1.7,-4.6,-10.299999999999999,16
137,2390.0,-0.30000000000000004,-0.1,-0.4,0.1,2.1,9.1,3.8,-8.600000000000001,-9.2,16
138,2404.0,-0.1,-0.1,-0.4,0.7000000000000001,2.2,9.5,3.7000000000000006,-17.300000000000004,-9.5,16
139,2422.0,0.2,-0.1,-0.1,0.7000000000000001,2.1,9.5,4.800000000000001,-24.5,-13.3,16
140,2440.0,0.1,-0.2,-0.30000000000000004,0.5,2.0,9.200000000000001,6.699999999999999,-25.300000000000004,-18.6,16
141,2456.0,-0.1,-0.2,-0.5,0.4,2.1,8.9,4.7,-20.400000000000002,-20.0,16
142,2471.0,-0.30000000000000004,-0.2,-0.8,0.30000000000000004,2.1,8.700000000000001,-0.30000000000000004,-10.0,-18.900000000000002,16
143,2490.0,-0.4,-0.1,-1.1,0.2,2.2,8.3,-8.3,1.2000000000000002,-17.0,16
144,2504.0,-0.4,0.0,-1.3,0.1,2.2,8.200000000000001,-19.799999999999997,10.4,-15.700000000000001,16
145,2523.0,-0.4,0.1,-1.3,0.0,2.1,8.4,-32.7,17.400000000000002,-15.6,16
146,2540.0,-0.4,0.1,-1.2000000000000002,0.0,2.0,8.3,-44.00000000000001,25.6,-15.100000000000001,16
147,2554.0,-0.4,0.2,-1.3,-0.2,1.9000000000000001,8.5,-53.599999999999994,34.800000000000004,-16.0,16
148,2572.0,-0.5,0.1,-0.7000000000000001,-0.5,1.6,9.600000000000001,-63.2,38.400000000000006,-18.8,16
149,2587.0,-0.6000000000000001,0.0,0.0,-0.8,1.3,9.8,-66.2,39.50000000000001,-21.200000000000003,16
150,2605.0,-1.0,-0.1,0.1,-1.3,1.1,9.8,-63.4,46.50000000000001,-19.799999999999997,16
151,2635.0,-1.4000000000000001,-0.1,0.2,-1.8,0.7000000000000001,10.0,-61.300000000000004,47.900000000000006,-11.1,16
152,2638.0,-1.4000000000000001,-0.1,0.2,-1.8,0.7000000000000001,10.0,-61.300000000000004,47.900000000000006,-11.1,16
153,2654.0,-1.2000000000000002,-0.2,0.6000000000000001,-1.8,0.5,10.700000000000001,-59.9,44.8,-5.8,16
154,2670.0,-1.3,-0.1,1.3,-2.0,0.4,11.3,-55.0,39.2,-2.6,16
155,2691.0,-1.3,-0.2,1.7000000000000002,-2.0,0.30000000000000004,11.600000000000001,-45.5,33.7,1.3,16
156,2704.0,-1.1,-0.1,1.9000000000000001,-1.7000000000000002,0.30000000000000004,11.700000000000001,-33.50000000000001,26.200000000000003,5.6,16
157,2726.0,-0.7000000000000001,0.0,1.9000000000000001,-1.7000000000000002,0.4,11.4,-19.799999999999997,19.300000000000004,6.600000000000001,16
158,2737.0,-0.8,0.1,1.4000000000000001,-1.9000000000000001,0.4,11.0,-7.699999999999999,14.800000000000002,5.300000000000001,16
159,2754.0,-1.0,0.1,0.8,-1.9000000000000001,0.4,10.3,-0.4,11.3,5.6,16
160,2770.0,-0.5,0.1,0.5,-1.1,0.5,10.200000000000001,2.8,5.500000000000001,4.7,16
161,2788.0,-0.1,0.2,0.4,-0.9,0.4,9.9,6.300000000000001,-3.2,-1.6,16
162,2803.0,0.1,0.0,0.1,-0.8,0.30000000000000004,9.700000000000001,8.8,-12.100000000000001,-7.500000000000001,16
163,2820.0,-0.1,-0.2,-0.30000000000000004,-1.3,0.1,9.1,8.899999999999999,-16.200000000000003,-10.8,16
164,2839.0,-0.6000000000000001,-0.4,-0.8,-1.5,-0.30000000000000004,8.9,3.9,-15.2,-6.8,16
165,2854.0,-0.5,-0.7000000000000001,-0.8,-1.1,-0.4,9.200000000000001,-4.7,-11.3,3.1,16
166,2871.0,0.0,-0.9,-0.30000000000000004,-0.9,-0.7000000000000001,9.700000000000001,-11.6,-5.0,11.6,16
167,2888.0,-0.2,-1.2000000000000002,-0.1,-1.1,-0.7000000000000001,9.8,-14.100000000000001,1.7,19.6,16
168,2907.0,-0.1,-0.8,0.1,-1.0,-0.6000000000000001,9.9,-15.299999999999999,6.500000000000001,29.600000000000005,16
169,2920.0,-0.1,-0.8,0.2,-0.9,-0.8,10.100000000000001,-13.200000000000003,18.900000000000002,33.6,16
170,2938.0,0.1,-1.0,0.30000000000000004,-1.1,-0.7000000000000001,10.0,-9.4,21.0,36.2,16
171,2954.0,-0.1,-0.9,0.2,-1.1,-0.6000000000000001,9.9,-5.1000000000000005,17.6,39.9,16
172,2972.0,0.0,-0.8,0.0,-0.8,-0.4,9.700000000000001,-1.3,9.600000000000001,44.300000000000004,16
173,2993.0,0.30000000000000004,-0.5,0.0,-0.7000000000000001,-0.1,9.700000000000001,1.7,1.0,45.3,16
174,3004.0,0.2,-0.30000000000000004,0.0,-0.8,0.0,9.700000000000001,5.1000000000000005,-6.500000000000001,44.6,16
175,3021.0,0.2,-0.30000000000000004,-0.2,-0.6000000000000001,0.0,9.600000000000001,8.3,-16.3,45.8,16
176,3037.0,0.4,-0.2,-0.1,-0.4,0.30000000000000004,9.700000000000001,11.2,-18.5,46.800000000000004,16
177,3053.0,0.5,0.0,-0.1,-0.2,0.4,9.700000000000001,12.600000000000001,-20.900000000000002,45.9,16
178,3071.0,0.6000000000000001,0.2,0.0,-0.2,0.7000000000000001,9.700000000000001,12.100000000000001,-20.7,44.00000000000001,16
179,3087.0,0.6000000000000001,0.2,-0.1,-0.5,0.8,9.5,10.700000000000001,-10.1,43.6,16
180,3104.0,0.2,0.30000000000000004,-0.4,-0.6000000000000001,0.8,9.200000000000001,5.7,-0.1,44.6,16
181,3124.0,0.2,0.30000000000000004,-0.4,-0.4,0.7000000000000001,9.600000000000001,-2.7,11.8,47.0,16
182,3142.0,0.7000000000000001,0.2,0.2,0.1,0.8,10.3,-9.600000000000001,15.700000000000001,48.70000000000001,16
183,3153.0,0.9,0.30000000000000004,0.7000000000000001,0.1,0.8,10.5,-9.600000000000001,17.400000000000002,45.0,16
184,3174.0,0.9,0.2,0.8,-0.2,0.7000000000000001,10.3,-5.1000000000000005,17.400000000000002,39.400000000000006,16
185,3187.0,0.7000000000000001,0.2,0.5,-0.4,0.6000000000000001,10.100000000000001,0.6000000000000001,14.600000000000001,34.0,16
186,3205.0,0.5,0.1,0.2,-0.5,0.6000000000000001,9.8,4.6,14.300000000000002,31.400000000000002,16
187,3220.0,0.5,0.0,-0.1,-0.5,0.6000000000000001,9.600000000000001,6.8,14.900000000000002,30.1,16
188,3237.0,0.6000000000000001,0.0,-0.4,-0.30000000000000004,0.5,9.200000000000001,6.699999999999999,15.000000000000002,29.400000000000002,16
189,3254.0,0.7000000000000001,0.0,-0.7000000000000001,-0.30000000000000004,0.6000000000000001,8.9,4.300000000000001,14.900000000000002,26.700000000000003,16
190,3270.0,0.8,0.0,-0.8,-0.30000000000000004,0.6000000000000001,8.9,-0.30000000000000004,13.900000000000002,23.6,16
191,3288.0,0.8,0.1,-0.9,-0.2,0.6000000000000001,8.9,-6.2,12.600000000000001,20.0,16
192,3304.0,0.9,0.0,-0.8,-0.30000000000000004,0.5,8.9,-12.0,10.600000000000001,15.5,16
193,3326.0,0.8,0.0,-0.9,-0.1,0.4,9.0,-17.6,8.0,11.2,16
194,3344.0,1.3,0.0,-0.2,0.2,0.4,9.600000000000001,-25.1,2.8,2.4000000000000004,16
195,3353.0,1.3,0.0,-0.2,0.2,0.30000000000000004,9.700000000000001,-25.1,2.8,2.4000000000000004,16
196,3375.0,1.4000000000000001,0.0,0.0,0.2,0.1,9.8,-24.599999999999998,2.7,-4.4,16
197,3388.0,1.3,-0.1,0.0,0.0,0.1,9.700000000000001,-23.3,1.5,-10.9,16
198,3404.0,1.0,0.0,0.0,-0.1,0.0,9.9,-21.900000000000002,-2.9,-15.5,16
199,3422.0,1.1,-0.1,0.2,0.2,0.0,10.100000000000001,-19.1,-10.4,-19.200000000000003,16
200,3437.0,1.2000000000000002,0.0,0.4,0.1,0.0,10.100000000000001,-14.900000000000002,-19.9,-23.5,16
201,3455.0,1.0,0.0,0.30000000000000004,0.1,-0.1,10.0,-10.4,-23.5,-27.5,16
202,3471.0,1.0,-0.1,0.2,-0.2,-0.1,9.8,-6.699999999999999,-14.600000000000001,-28.700000000000003,16
203,3488.0,0.6000000000000001,-0.1,0.0,-0.30000000000000004,-0.1,9.700000000000001,-6.500000000000001,-7.200000000000001,-27.700000000000003,16
204,3517.0,0.8,0.1,0.30000000000000004,0.0,-0.1,10.100000000000001,-11.6,-1.9,-28.700000000000003,16
205,3523.0,0.8,0.1,0.30000000000000004,-0.4,-0.2,10.5,-11.6,-1.9,-28.700000000000003,16
206,3537.0,0.4,-0.1,1.0,-0.6000000000000001,-0.30000000000000004,11.0,-9.899999999999999,11.6,-30.9,16
207,3554.0,1.0,-0.2,0.8,0.1,-0.2,10.0,-2.9,27.700000000000003,-31.0,16
208,3571.0,1.0,0.2,-0.1,-0.2,0.1,9.5,0.4,23.0,-33.1,16
209,3588.0,0.7000000000000001,0.2,-0.30000000000000004,-0.4,0.0,9.4,-2.0,12.5,-37.1,16
210,3604.0,0.5,-0.1,-0.4,-0.4,-0.5,9.4,-5.9,1.7,-40.800000000000004,16
211,3620.0,0.5,-0.2,-0.30000000000000004,-0.5,-0.5,9.5,-8.899999999999999,-3.9,-44.10000000000001,16
212,3643.0,0.5,-0.2,-0.2,-0.6000000000000001,-0.6000000000000001,9.5,-8.899999999999999,-4.800000000000001,-46.199999999999996,16
213,3654.0,0.4,-0.30000000000000004,-0.2,-0.4,-0.8,9.600000000000001,-8.0,-9.3,-47.5,16
214,3671.0,0.7000000000000001,-0.4,0.0,-0.1,-0.8,9.8,-6.2,-19.799999999999997,-49.6,16
215,3687.0,0.8,-0.4,0.2,0.0,-0.8,10.100000000000001,-2.4000000000000004,-29.0,-53.400000000000006,16
216,3704.0,0.7000000000000001,-0.4,0.30000000000000004,0.0,-0.8,9.8,3.5,-30.000000000000004,-56.6,16
217,3722.0,0.6000000000000001,-0.5,-0.1,-0.1,-1.0,9.600000000000001,7.8,-29.300000000000004,-58.60000000000001,16
218,3737.0,0.30000000000000004,-0.6000000000000001,-0.2,-0.4,-1.0,9.4,9.3,-24.900000000000002,-60.00000000000001,16
219,3756.0,0.0,-0.7000000000000001,-0.4,-0.6000000000000001,-1.0,9.4,9.3,-16.0,-57.400000000000006,16
220,3771.0,-0.1,-0.7000000000000001,-0.4,-0.5,-1.0,9.4,8.4,-9.600000000000001,-51.6,16
221,3788.0,-0.1,-0.6000000000000001,-0.4,-0.5,-1.0,9.5,7.0,-7.9,-46.800000000000004,16
222,3803.0,-0.1,-0.6000000000000001,-0.2,-0.5,-0.9,9.700000000000001,5.9,-3.4,-44.300000000000004,16
223,3821.0,-0.1,-0.5,-0.1,-0.6000000000000001,-0.7000000000000001,9.600000000000001,8.0,-0.8,-42.60000000000001,16
224,3840.0,-0.2,-0.4,-0.2,-0.7000000000000001,-0.6000000000000001,9.5,10.700000000000001,-0.9000000000000001,-41.4,16
225,3856.0,-0.4,-0.30000000000000004,-0.30000000000000004,-0.9,-0.5,9.4,12.9,-1.5,-40.2,16
226,3871.0,-0.5,-0.2,-0.4,-1.0,-0.4,9.4,14.600000000000001,-4.6,-38.400000000000006,16
227,3891.0,-0.6000000000000001,-0.1,-0.30000000000000004,-1.0,-0.2,9.5,15.2,-10.700000000000001,-36.300000000000004,16
228,3905.0,-0.7000000000000001,0.0,-0.2,-1.0,-0.1,9.5,14.800000000000002,-18.700000000000003,-35.4,16
229,3922.0,-0.8,0.0,-0.1,-1.0,-0.1,9.8,12.0,-30.200000000000003,-35.1,16
230,3940.0,-0.7000000000000001,0.0,0.30000000000000004,-0.6000000000000001,-0.1,10.4,7.300000000000001,-39.699999999999996,-34.7,16
231,3954.0,-0.6000000000000001,0.0,0.8,-0.7000000000000001,-0.2,10.9,2.3,-45.6,-36.0,16
232,3980.0,-1.0,-0.2,1.3,-0.7000000000000001,-0.30000000000000004,11.100000000000001,-4.300000000000001,-35.699999999999996,-32.400000000000006,16
233,3988.0,-1.0,-0.2,1.3,-0.8,-0.4,11.100000000000001,-4.300000000000001,-35.699999999999996,-32.400000000000006,16
234,4004.0,-1.2000000000000002,-0.2,1.2000000000000002,-0.9,-0.30000000000000004,10.8,-4.7,-21.8,-26.1,16
235,4023.0,-1.2000000000000002,-0.2,1.0,-0.6000000000000001,-0.2,11.0,-4.300000000000001,-8.700000000000001,-18.8,16
236,4037.0,-0.9,0.0,1.2000000000000002,-0.5,-0.1,11.3,-1.4,0.2,-13.100000000000001,16
237,4053.0,-0.8,0.0,1.4000000000000001,-0.6000000000000001,0.0,11.100000000000001,7.699999999999999,7.400000000000001,-11.4,16
238,4073.0,-0.9,0.1,1.1,-0.4,-0.1,10.3,19.5,10.0,-10.8,16
239,4088.0,-0.6000000000000001,-0.1,0.5,-0.30000000000000004,-0.1,9.8,29.1,4.800000000000001,-10.1,16
240,4129.0,-1.0,-0.1,-0.5,-0.7000000000000001,0.2,9.3,33.6,-18.200000000000003,-9.2,16
241,4137.0,-1.1,-0.1,-0.5,-0.6000000000000001,0.2,9.4,34.50000000000001,-21.8,-6.0,16
242,4158.0,-1.0,-0.1,-0.4,-0.5,0.30000000000000004,9.200000000000001,33.1,-27.5,-2.1,16
243,4170.0,-1.2000000000000002,-0.1,-0.7000000000000001,-0.7000000000000001,0.5,8.9,28.700000000000003,-33.9,3.1,16
244,4188.0,-1.2000000000000002,-0.2,-1.3,-0.30000000000000004,0.2,8.200000000000001,19.700000000000003,-36.300000000000004,12.0,16
245,4205.0,-0.8,-0.30000000000000004,-1.7000000000000002,0.1,0.30000000000000004,8.200000000000001,6.0,-32.6,19.400000000000002,16
246,4221.0,-0.7000000000000001,-0.30000000000000004,-1.4000000000000001,0.1,0.2,8.5,-10.200000000000001,-19.9,25.900000000000002,16
247,4242.0,0.8,-0.7000000000000001,0.1,0.9,0.0,9.5,-31.6,10.0,36.2,16
248,4255.0,0.8,-0.7000000000000001,0.1,1.9000000000000001,-0.6000000000000001,10.200000000000001,-31.6,10.0,36.2,16
249,4272.0,1.0,-0.9,0.8,1.5,-0.5,11.4,-33.9,19.6,28.200000000000003,16
250,4287.0,0.8,-0.6000000000000001,1.8,1.4000000000000001,-0.30000000000000004,11.8,-27.800000000000004,24.400000000000002,18.6,16
251,4304.0,0.4,-0.2,1.8,0.6000000000000001,0.1,11.3,-13.8,19.700000000000003,9.3,16
252,4320.0,-0.4,0.2,1.1,-0.1,1.0,10.4,-1.7,4.1,0.2,16
253,4337.0,-0.5,1.0,0.4,0.30000000000000004,1.4000000000000001,10.0,4.2,-12.600000000000001,-2.5,16
254,4354.0,-1.2000000000000002,0.8,-0.30000000000000004,-0.4,1.1,9.200000000000001,8.0,-19.5,-1.0,16
255,4370.0,-0.8,1.5,-0.4,0.8,0.30000000000000004,10.0,9.700000000000001,-25.0,5.8,16
256,4388.0,0.5,-0.8,0.4,2.0,-1.6,10.3,11.6,-37.50000000000001,6.300000000000001,16
257,4406.0,-0.1,-1.5,0.2,0.4,-0.9,9.9,7.300000000000001,-91.2,-3.3000000000000007,16
258,4421.0,-0.4,-1.6,0.0,1.1,-1.3,9.3,16.900000000000002,-65.5,-4.800000000000001,16
259,4438.0,-0.5,-1.3,-0.30000000000000004,0.8,-0.7000000000000001,9.4,18.6,-41.50000000000001,1.2000000000000002,16
260,4455.0,-0.30000000000000004,-0.4,0.7000000000000001,1.4000000000000001,-0.1,10.8,17.0,5.2,10.200000000000001,16
261,4471.0,0.1,-0.6000000000000001,0.8,1.3,0.1,10.200000000000001,24.400000000000002,26.700000000000003,15.899999999999999,16
262,4493.0,-0.1,-0.30000000000000004,0.4,1.1,0.2,9.9,30.200000000000003,20.400000000000002,15.8,16
263,4504.0,-0.1,-0.4,0.2,1.1,0.2,10.0,32.9,21.200000000000003,19.300000000000004,16
264,4521.0,0.1,-0.2,0.4,1.5,0.7000000000000001,10.3,36.8,19.799999999999997,22.5,16
265,4537.0,0.5,0.0,0.6000000000000001,1.7000000000000002,0.8,10.3,42.60000000000001,12.600000000000001,23.0,16
266,4554.0,0.4,0.1,0.5,1.3,1.0,10.100000000000001,49.6,9.8,22.8,16
267,4570.0,0.0,-0.1,-0.2,0.9,0.9,8.8,56.0,8.8,25.200000000000003,16
268,4588.0,-0.2,-0.1,-1.2000000000000002,0.9,1.5,8.3,52.900000000000006,12.600000000000001,27.099999999999998,16
269,4604.0,-0.1,0.30000000000000004,-1.3,1.1,1.8,8.5,40.300000000000004,14.900000000000002,28.800000000000004,16
270,4620.0,0.4,0.4,-0.9,1.6,1.8,8.9,28.200000000000003,16.4,29.200000000000003,16
271,4637.0,0.7000000000000001,0.4,-0.7000000000000001,1.7000000000000002,1.9000000000000001,9.1,20.3,21.300000000000004,24.0,16
272,4654.0,0.7000000000000001,0.4,-0.6000000000000001,1.6,1.9000000000000001,9.1,13.5,21.8,15.5,16
273,4670.0,0.4,0.30000000000000004,-0.7000000000000001,1.0,1.7000000000000002,8.8,7.500000000000001,19.6,7.400000000000001,16
274,4687.0,-0.1,0.1,-0.8,0.5,1.4000000000000001,9.200000000000001,0.1,20.0,4.1,16
275,4703.0,-0.2,-0.1,-0.30000000000000004,0.6000000000000001,1.3,9.5,-5.7,25.4,6.2,16
276,4720.0,0.0,-0.2,0.0,0.7000000000000001,1.2000000000000002,9.8,-7.300000000000001,29.1,8.899999999999999,16
277,4737.0,0.2,-0.30000000000000004,0.30000000000000004,1.2000000000000002,1.5,10.3,-6.8,27.700000000000003,9.5,16
278,4753.0,0.8,-0.1,0.6000000000000001,1.4000000000000001,1.2000000000000002,10.3,-3.8,29.600000000000005,8.600000000000001,16
279,4770.0,0.2,-0.8,0.2,0.2,0.5,9.5,0.0,35.699999999999996,5.4,16
280,4787.0,-0.30000000000000004,-0.5,-0.30000000000000004,0.1,1.3,9.5,-2.4000000000000004,36.6,6.0,16
281,4804.0,0.0,-0.2,-0.2,0.2,1.2000000000000002,9.600000000000001,-6.300000000000001,33.400000000000006,10.299999999999999,16
282,4822.0,0.0,-0.4,-0.1,0.2,0.9,9.700000000000001,-8.100000000000001,26.1,11.900000000000002,16
283,4841.0,0.2,-0.5,0.0,0.5,0.9,9.600000000000001,-9.700000000000001,19.9,12.5,16
284,4853.0,0.5,-0.4,0.0,0.2,0.8,9.9,-10.5,23.400000000000002,12.0,16
285,4872.0,0.2,-0.5,0.1,0.1,0.8,9.600000000000001,-8.4,26.400000000000006,11.8,16
286,4888.0,0.30000000000000004,-0.4,-0.4,0.2,0.9,9.4,-7.1000000000000005,28.900000000000002,13.399999999999999,16
287,4907.0,0.30000000000000004,-0.4,-0.5,0.0,0.8,9.200000000000001,-9.100000000000001,31.2,14.400000000000002,16
288,4920.0,0.2,-0.4,-0.5,-0.1,0.8,9.4,-12.100000000000001,31.2,15.5,16
289,4937.0,0.4,-0.30000000000000004,-0.2,0.2,0.9,9.5,-13.000000000000002,36.300000000000004,18.0,16
290,4953.0,0.7000000000000001,-0.2,-0.30000000000000004,0.30000000000000004,1.0,9.3,-11.3,39.0,18.3,16
291,4971.0,0.8,-0.1,-0.30000000000000004,0.2,1.0,9.4,-9.8,33.9,14.700000000000001,16
292,4994.0,0.5,-0.1,0.0,-0.2,0.9,9.8,-5.500000000000001,21.1,9.4,16
293,5004.0,0.5,-0.1,0.0,-0.1,1.0,9.700000000000001,-5.500000000000001,21.1,9.4,16
294,5020.0,0.6000000000000001,-0.1,0.0,-0.2,1.1,9.700000000000001,-2.7,14.700000000000001,7.9,16
295,5036.0,0.5,0.0,0.1,-0.30000000000000004,1.1,10.0,-3.3000000000000007,-0.9000000000000001,4.1,16
296,5056.0,0.30000000000000004,-0.1,0.7000000000000001,-0.5,0.8,10.600000000000001,-4.6,-18.5,1.3,16
297,5070.0,0.0,-0.1,0.9,-0.6000000000000001,0.9,10.700000000000001,-3.5,-22.2,4.0,16
298,5089.0,0.0,0.0,1.1,-0.4,1.1,11.0,-2.6,-21.200000000000003,9.899999999999999,16
299,5103.0,0.30000000000000004,0.2,1.4000000000000001,0.1,1.3,11.3,-1.0,-19.9,14.900000000000002,16
300,5120.0,0.6000000000000001,0.30000000000000004,1.6,0.30000000000000004,1.4000000000000001,11.4,4.1,-18.8,16.4,16
301,5137.0,0.7000000000000001,0.4,1.4000000000000001,0.30000000000000004,1.5,11.0,12.0,-13.3,15.6,16
302,5153.0,0.6000000000000001,0.5,0.8,0.30000000000000004,1.7000000000000002,10.200000000000001,17.799999999999997,-7.9,14.200000000000001,16
303,5174.0,0.6000000000000001,0.5,0.2,0.30000000000000004,1.8,9.700000000000001,17.799999999999997,-5.500000000000001,11.5,16
304,5187.0,0.5,0.5,-0.1,0.2,1.8,9.600000000000001,14.800000000000002,-1.8000000000000003,8.2,16
305,5205.0,0.4,0.5,-0.2,0.0,1.7000000000000002,9.5,10.5,2.9,5.8,16
306,5220.0,0.30000000000000004,0.4,-0.2,-0.1,1.7000000000000002,9.600000000000001,6.699999999999999,9.4,5.0,16
307,5241.0,0.2,0.4,-0.2,-0.2,1.7000000000000002,9.600000000000001,3.7000000000000006,13.8,4.4,16
308,5253.0,0.1,0.30000000000000004,-0.1,-0.30000000000000004,1.6,9.700000000000001,1.6,13.700000000000001,3.5,16
309,5276.0,0.1,0.2,0.1,-0.30000000000000004,1.4000000000000001,10.100000000000001,0.4,9.5,3.0,16
310,5289.0,0.2,0.1,0.6000000000000001,-0.2,1.2000000000000002,10.5,1.9,4.300000000000001,3.3000000000000007,16
311,5303.0,0.30000000000000004,-0.1,0.8,-0.2,1.2000000000000002,10.5,7.300000000000001,0.7,4.2,16
312,5320.0,0.2,-0.2,0.7000000000000001,-0.2,1.1,10.200000000000001,13.3,-0.5,5.7,16
313,5340.0,0.2,-0.30000000000000004,0.30000000000000004,-0.1,1.2000000000000002,9.8,16.0,-0.4,8.3,16
314,5354.0,0.4,-0.2,0.0,0.0,1.2000000000000002,9.600000000000001,15.000000000000002,-0.30000000000000004,11.2,16
315,5370.0,0.5,-0.30000000000000004,-0.1,0.2,1.3,9.700000000000001,12.200000000000001,-1.3,12.7,16
316,5387.0,0.6000000000000001,-0.30000000000000004,0.0,0.30000000000000004,1.2000000000000002,9.700000000000001,9.2,-6.500000000000001,12.8,16
317,5404.0,0.8,-0.30000000000000004,0.2,0.5,1.2000000000000002,9.9,8.100000000000001,-10.9,11.700000000000001,16
318,5420.0,0.8,-0.4,0.2,0.5,1.2000000000000002,9.700000000000001,8.700000000000001,-14.200000000000001,9.8,16
319,5439.0,0.8,-0.4,-0.1,0.6000000000000001,1.2000000000000002,9.3,9.0,-15.8,7.9,16
320,5453.0,0.8,-0.4,-0.5,0.7000000000000001,1.2000000000000002,9.1,7.400000000000001,-14.900000000000002,5.6,16
321,5470.0,0.8,-0.4,-0.6000000000000001,0.6000000000000001,1.1,9.200000000000001,4.5,-13.6,2.9,16
322,5487.0,0.6000000000000001,-0.5,-0.30000000000000004,0.30000000000000004,0.9,9.5,3.0,-14.200000000000001,0.7,16
323,5504.0,0.4,-0.7000000000000001,-0.30000000000000004,0.30000000000000004,0.9,9.3,6.2,-11.6,0.8,16
324,5520.0,0.30000000000000004,-0.7000000000000001,-0.7000000000000001,0.2,1.1,8.700000000000001,10.4,-9.0,2.2,16
325,5536.0,0.2,-0.6000000000000001,-1.1,0.1,1.1,8.3,11.6,-11.6,3.0,16
326,5554.0,0.0,-0.6000000000000001,-1.5,0.1,1.1,8.1,10.5,-15.700000000000001,4.1,16
327,5570.0,0.1,-0.5,-1.6,0.30000000000000004,1.2000000000000002,8.1,8.100000000000001,-19.0,5.4,16
328,5586.0,0.30000000000000004,-0.5,-1.3,0.8,1.3,8.700000000000001,5.500000000000001,-25.8,4.1,16
329,5604.0,0.5,-0.5,-0.8,0.7000000000000001,1.2000000000000002,8.9,5.9,-30.200000000000003,-1.4,16
330,5625.0,0.1,-0.6000000000000001,-0.9,0.30000000000000004,1.1,8.5,7.400000000000001,-25.6,-6.0,16
331,5637.0,-0.4,-0.7000000000000001,-1.4000000000000001,-0.1,1.2000000000000002,8.0,4.9,-16.5,-6.600000000000001,16
332,5654.0,-0.4,-0.6000000000000001,-1.5,0.0,1.1,8.1,-3.2,-7.9,-4.4,16
333,5670.0,-0.4,-0.6000000000000001,-1.1,0.0,1.2000000000000002,8.8,-9.5,0.7,-2.0,16
334,5688.0,-0.4,-0.5,-0.6000000000000001,-0.1,1.3,9.1,-9.8,9.0,0.1,16
335,5704.0,-0.5,-0.30000000000000004,-0.5,-0.2,1.4000000000000001,9.0,-5.0,14.800000000000002,1.7,16
336,5723.0,-0.6000000000000001,-0.1,-0.7000000000000001,-0.4,1.7000000000000002,8.9,0.2,15.899999999999999,2.3,16
337,5737.0,-0.6000000000000001,0.1,-0.9,-0.4,2.0,8.6,3.5,15.000000000000002,3.0,16
338,5754.0,-0.5,0.4,-1.0,-0.2,2.3000000000000003,8.8,1.5,10.8,1.8000000000000003,16
339,5771.0,-0.4,0.6000000000000001,-0.6000000000000001,-0.2,2.3000000000000003,9.1,-5.4,0.7,-2.7,16
340,5786.0,-0.4,0.5,0.1,-0.2,2.1,10.100000000000001,-13.3,-9.0,-8.0,16
341,5804.0,-0.4,0.4,1.1,-0.1,1.8,11.200000000000001,-20.0,-15.6,-12.200000000000001,16
342,5824.0,-0.4,0.2,1.8,-0.30000000000000004,1.7000000000000002,11.8,-22.700000000000003,-14.200000000000001,-14.600000000000001,16
343,5837.0,-0.6000000000000001,0.2,2.1,-0.30000000000000004,1.7000000000000002,11.8,-22.9,-5.8,-14.800000000000002,16
344,5859.0,-0.6000000000000001,0.2,2.1,-0.30000000000000004,1.7000000000000002,11.700000000000001,-21.7,5.9,-14.0,16
345,5870.0,-0.5,0.30000000000000004,1.9000000000000001,-0.30000000000000004,1.7000000000000002,11.5,-21.400000000000002,15.299999999999999,-13.6,16
346,5886.0,-0.7000000000000001,0.4,1.5,-0.7000000000000001,1.7000000000000002,11.100000000000001,-22.9,19.700000000000003,-14.800000000000002,16
347,5904.0,-1.1,0.4,1.3,-1.0,1.7000000000000002,11.100000000000001,-26.1,21.7,-14.700000000000001,16
348,5920.0,-1.3,0.4,1.5,-1.4000000000000001,1.6,11.3,-28.700000000000003,21.6,-12.299999999999999,16
349,5937.0,-1.5,0.5,1.8,-1.7000000000000002,1.6,11.600000000000001,-28.400000000000002,19.5,-7.9,16
350,5953.0,-1.6,0.5,2.1,-1.6,1.5,12.0,-24.1,17.5,-1.1,16
351,5972.0,-1.4000000000000001,0.5,2.2,-1.4000000000000001,1.5,11.700000000000001,-14.600000000000001,15.000000000000002,6.300000000000001,16
352,5991.0,-1.1,0.6000000000000001,1.8,-1.0,1.6,10.9,-2.7,11.900000000000002,13.000000000000002,16
353,6009.0,-0.8,0.6000000000000001,1.1,-0.8,1.6,10.4,8.8,9.899999999999999,18.4,16
354,6020.0,-0.4,0.6000000000000001,0.1,-0.5,1.8,9.200000000000001,17.0,11.000000000000002,21.8,16
355,6040.0,-0.2,0.7000000000000001,-0.8,-0.30000000000000004,1.9000000000000001,8.5,20.900000000000002,15.000000000000002,23.400000000000002,16
356,6054.0,0.1,0.7000000000000001,-1.4000000000000001,-0.2,1.9000000000000001,8.1,21.900000000000002,18.900000000000002,22.8,16
357,6071.0,0.1,0.7000000000000001,-1.9000000000000001,-0.30000000000000004,2.0,7.6000000000000005,21.300000000000004,21.0,19.799999999999997,16
358,6087.0,0.1,0.7000000000000001,-2.2,-0.30000000000000004,2.0,7.4,18.5,21.8,15.8,16
359,6111.0,-0.1,0.6000000000000001,-2.3000000000000003,-0.7000000000000001,1.9000000000000001,7.4,7.6,18.8,5.8,16
360,6123.0,-0.1,0.6000000000000001,-2.3000000000000003,-0.8,1.9000000000000001,7.6000000000000005,7.6,18.8,5.8,16
361,6136.0,-0.30000000000000004,0.4,-2.0,-0.9,1.8,7.800000000000001,1.3,14.5,1.4,16
362,6154.0,-0.4,0.30000000000000004,-1.5,-1.1,1.6,8.4,-4.0,8.700000000000001,-2.0,16
363,6170.0,-0.5,0.1,-1.0,-1.2000000000000002,1.4000000000000001,8.8,-7.400000000000001,2.5,-4.2,16
364,6187.0,-0.6000000000000001,0.0,-0.7000000000000001,-1.2000000000000002,1.3,9.0,-10.0,-3.2,-5.2,16
365,6204.0,-0.7000000000000001,-0.1,-0.30000000000000004,-1.3,1.1,9.700000000000001,-13.100000000000001,-9.8,-5.6,16
366,6225.0,-0.7000000000000001,-0.2,0.30000000000000004,-1.3,0.9,10.3,-15.000000000000002,-13.900000000000002,-4.300000000000001,16
367,6238.0,-0.7000000000000001,-0.30000000000000004,0.8,-1.3,0.8,10.600000000000001,-14.100000000000001,-12.4,-2.1,16
368,6255.0,-0.8,-0.30000000000000004,0.9,-1.3,0.9,10.600000000000001,-11.6,-7.6,1.5,16
369,6271.0,-0.8,-0.2,0.7000000000000001,-1.4000000000000001,1.1,10.200000000000001,-10.299999999999999,-1.5,5.4,16
370,6291.0,-0.8,0.1,0.4,-1.4000000000000001,1.3,10.0,-11.5,3.1,9.8,16
371,6304.0,-0.8,0.30000000000000004,0.30000000000000004,-1.3,1.5,10.0,-13.5,4.9,14.200000000000001,16
372,6321.0,-0.7000000000000001,0.6000000000000001,0.4,-1.1,1.7000000000000002,10.200000000000001,-13.700000000000001,3.9,18.1,16
373,6337.0,-0.4,0.8,0.6000000000000001,-0.8,1.9000000000000001,10.3,-11.000000000000002,-0.8,20.3,16
374,6355.0,-0.2,0.9,0.5,-0.7000000000000001,1.9000000000000001,10.200000000000001,-5.1000000000000005,-5.2,20.5,16
375,6370.0,-0.1,1.0,0.2,-0.6000000000000001,2.1,9.8,-0.1,-10.200000000000001,19.1,16
376,6392.0,-0.2,1.0,-0.1,-0.6000000000000001,2.1,9.700000000000001,1.9,-14.200000000000001,16.8,16
377,6404.0,-0.1,1.1,-0.1,-0.5,2.1,9.700000000000001,1.7,-15.8,14.900000000000002,16
378,6420.0,0.0,1.0,0.0,-0.30000000000000004,2.1,9.700000000000001,1.6,-15.5,12.7,16
379,6437.0,0.0,0.9,0.1,-0.30000000000000004,1.9000000000000001,10.0,1.6,-15.5,10.0,16
380,6454.0,0.0,0.8,0.30000000000000004,-0.2,1.8,10.0,2.8,-13.100000000000001,8.3,16
381,6471.0,0.1,0.7000000000000001,0.2,-0.1,1.8,9.9,4.800000000000001,-10.600000000000001,6.500000000000001,16
382,6488.0,0.1,0.6000000000000001,0.1,-0.1,1.7000000000000002,9.700000000000001,6.1000000000000005,-9.100000000000001,3.7000000000000006,16
383,6513.0,0.1,0.6000000000000001,-0.1,0.0,1.7000000000000002,9.600000000000001,5.4,-5.8,1.7,16
384,6521.0,0.2,0.5,-0.1,0.0,1.6,9.700000000000001,2.9,-3.1,-0.30000000000000004,16
385,6537.0,0.2,0.4,0.1,0.0,1.4000000000000001,9.9,2.9,-3.1,-0.30000000000000004,16
386,6557.0,0.1,0.2,0.2,-0.1,1.3,10.0,-1.5,-1.8000000000000003,-4.7,16
387,6572.0,0.1,0.2,0.2,-0.1,1.3,10.0,-1.7,-1.1,-5.2,16
388,6587.0,0.1,0.1,0.30000000000000004,0.0,1.2000000000000002,10.0,-0.6000000000000001,-0.5,-5.4,16
389,6604.0,0.2,0.1,0.1,0.0,1.1,9.700000000000001,0.9000000000000001,-1.4,-6.0,16
390,6620.0,0.2,-0.1,-0.1,0.0,1.0,9.5,0.1,-5.4,-7.400000000000001,16
391,6639.0,0.30000000000000004,-0.30000000000000004,-0.2,0.30000000000000004,0.7000000000000001,9.700000000000001,-3.6000000000000005,-10.4,-8.600000000000001,16
392,6653.0,0.5,-0.5,0.30000000000000004,0.5,0.4,10.600000000000001,-7.8,-16.200000000000003,-10.600000000000001,16
393,6670.0,0.6000000000000001,-0.7000000000000001,1.0,0.6000000000000001,0.30000000000000004,10.9,-8.2,-19.200000000000003,-13.399999999999999,16
394,6687.0,0.6000000000000001,-0.8,1.2000000000000002,0.6000000000000001,0.2,10.9,-4.6,-17.400000000000002,-15.100000000000001,16
395,6703.0,0.6000000000000001,-0.9,0.9,0.7000000000000001,0.30000000000000004,10.4,-0.7,-13.200000000000003,-15.6,16
396,6720.0,0.7000000000000001,-0.7000000000000001,0.4,0.8,0.4,10.100000000000001,0.9000000000000001,-10.299999999999999,-16.3,16
397,6736.0,0.8,-0.6000000000000001,0.2,0.9,0.5,10.0,0.0,-12.299999999999999,-18.3,16
398,6753.0,0.7000000000000001,-0.5,0.4,0.7000000000000001,0.5,10.3,-1.2000000000000002,-17.300000000000004,-20.599999999999998,16
399,6770.0,0.5,-0.5,0.7000000000000001,0.7000000000000001,0.5,10.600000000000001,0.9000000000000001,-20.7,-20.8,16
400,6788.0,0.4,-0.5,0.8,0.7000000000000001,0.7000000000000001,10.5,7.500000000000001,-22.3,-19.200000000000003,16
401,6812.0,0.2,-0.1,-0.2,0.6000000000000001,1.1,9.4,21.500000000000004,-21.900000000000002,-14.400000000000002,16
402,6821.0,0.2,-0.1,-0.2,0.6000000000000001,1.2000000000000002,9.0,21.500000000000004,-21.900000000000002,-14.400000000000002,16
403,6838.0,0.2,0.1,-0.9,0.7000000000000001,1.4000000000000001,8.700000000000001,23.2,-20.0,-11.8,16
404,6853.0,0.5,0.2,-1.2000000000000002,1.1,1.6,8.5,20.900000000000002,-20.900000000000002,-11.5,16
405,6870.0,0.5,0.30000000000000004,-1.2000000000000002,1.2000000000000002,1.6,8.700000000000001,16.1,-22.700000000000003,-13.6,16
406,6887.0,0.6000000000000001,0.2,-0.9,1.2000000000000002,1.6,8.9,12.100000000000001,-22.1,-16.4,16
407,6905.0,0.5,0.2,-0.6000000000000001,1.2000000000000002,1.6,9.1,9.600000000000001,-20.900000000000002,-19.6,16
408,6920.0,0.30000000000000004,0.1,-0.6000000000000001,1.0,1.4000000000000001,9.200000000000001,7.9,-18.4,-22.5,16
409,6939.0,0.2,-0.1,-0.5,0.9,1.4000000000000001,9.3,6.600000000000001,-13.3,-23.5,16
410,6953.0,0.1,-0.1,-0.4,0.9,1.3,9.200000000000001,5.1000000000000005,-8.100000000000001,-23.700000000000003,16
411,6970.0,0.0,-0.1,-0.7000000000000001,0.7000000000000001,1.3,9.0,2.0,-3.1,-22.9,16
412,6989.0,0.0,-0.1,-0.6000000000000001,0.8,1.4000000000000001,9.3,-3.7000000000000006,0.0,-21.300000000000004,16
413,7004.0,0.1,-0.1,-0.30000000000000004,0.9,1.4000000000000001,9.5,-9.4,0.6000000000000001,-19.400000000000002,16
414,7021.0,0.0,0.0,0.1,0.6000000000000001,1.3,10.100000000000001,-13.8,-2.3,-18.6,16
415,7037.0,-0.2,-0.1,0.8,0.5,1.2000000000000002,10.600000000000001,-16.4,-5.0,-16.1,16
416,7053.0,-0.4,-0.2,1.4000000000000001,0.30000000000000004,1.1,11.200000000000001,-13.5,-3.0,-11.2,16
417,7070.0,-0.5,-0.30000000000000004,1.5,0.30000000000000004,1.1,11.100000000000001,-6.0,3.1,-4.1,16
418,7086.0,-0.4,-0.1,1.1,0.5,1.4000000000000001,10.200000000000001,3.7000000000000006,9.100000000000001,3.8,16
419,7108.0,-0.2,0.1,0.2,0.6000000000000001,1.6,9.4,10.700000000000001,11.8,9.899999999999999,16
420,7125.0,-0.1,0.2,-0.30000000000000004,0.6000000000000001,1.6,9.200000000000001,13.5,10.600000000000001,13.399999999999999,16
421,7136.0,0.0,0.2,-0.7000000000000001,0.7000000000000001,1.6,9.0,14.5,10.200000000000001,15.5,16
422,7153.0,0.0,0.30000000000000004,-0.9,0.7000000000000001,1.8,8.6,14.300000000000002,11.000000000000002,16.700000000000003,16
423,7170.0,0.2,0.30000000000000004,-1.4000000000000001,0.8,1.9000000000000001,8.200000000000001,10.200000000000001,10.5,16.4,16
424,7186.0,0.4,0.30000000000000004,-1.1,1.2000000000000002,1.7000000000000002,9.4,-0.8,-1.2000000000000002,12.9,16
425,7208.0,0.6000000000000001,0.1,0.2,1.1,1.2000000000000002,10.9,-11.2,-20.7,6.600000000000001,16
426,7220.0,0.30000000000000004,-0.30000000000000004,1.4000000000000001,1.1,0.9,11.700000000000001,-15.700000000000001,-33.300000000000004,1.4,16
427,7238.0,0.2,-0.7000000000000001,2.5,1.1,0.5,12.4,-13.5,-31.9,0.8,16
428,7254.0,0.2,-0.9,2.5,1.0,0.5,11.5,-4.2,-15.100000000000001,2.7,16
429,7270.0,0.1,-0.8,1.6,0.9,0.7000000000000001,10.8,4.5,6.300000000000001,5.8,16
430,7288.0,0.0,-0.5,0.30000000000000004,0.8,1.0,9.3,8.3,24.400000000000002,8.700000000000001,16
431,7305.0,0.0,-0.30000000000000004,-0.7000000000000001,0.6000000000000001,1.3,8.6,7.400000000000001,33.7,10.200000000000001,16
432,7320.0,0.0,-0.1,-1.2000000000000002,0.6000000000000001,1.4000000000000001,8.3,6.300000000000001,35.699999999999996,10.8,16
433,7337.0,0.0,0.0,-1.7000000000000002,0.6000000000000001,1.5,7.9,6.300000000000001,31.5,10.700000000000001,16
434,7357.0,0.1,0.1,-1.7000000000000002,0.6000000000000001,1.5,8.0,5.8,20.2,9.5,16
435,7370.0,0.1,0.0,-1.7000000000000002,0.6000000000000001,1.5,7.9,5.1000000000000005,6.699999999999999,7.0,16
436,7386.0,0.1,0.0,-1.7000000000000002,0.7000000000000001,1.4000000000000001,8.3,3.0,-5.500000000000001,4.1,16
437,7408.0,0.2,-0.2,-1.2000000000000002,0.7000000000000001,1.1,8.8,-0.9000000000000001,-14.100000000000001,1.1,16
438,7420.0,0.1,-0.4,-0.8,0.7000000000000001,1.0,9.0,-4.7,-17.300000000000004,-0.9000000000000001,16
439,7437.0,0.0,-0.6000000000000001,-0.6000000000000001,0.6000000000000001,0.7000000000000001,9.4,-9.700000000000001,-17.799999999999997,-1.3,16
440,7453.0,-0.1,-0.8,0.30000000000000004,0.6000000000000001,0.5,10.600000000000001,-15.399999999999999,-15.5,1.1,16
441,7470.0,-0.1,-0.8,1.1,0.6000000000000001,0.5,11.0,-15.299999999999999,-10.9,4.4,16
442,7486.0,-0.1,-0.8,1.5,0.7000000000000001,0.5,11.200000000000001,-10.8,-6.1000000000000005,8.4,16
443,7505.0,0.0,-0.6000000000000001,1.3,0.9,0.8,10.600000000000001,-3.5,-3.6000000000000005,11.6,16
444,7521.0,0.2,-0.4,0.7000000000000001,0.9,1.0,10.3,2.0,-4.9,13.100000000000001,16
445,7536.0,0.2,-0.2,0.4,1.1,1.1,9.9,4.4,-6.300000000000001,13.100000000000001,16
446,7554.0,0.30000000000000004,-0.1,0.1,1.3,1.3,9.600000000000001,5.2,-7.9,12.200000000000001,16
447,7570.0,0.5,0.0,-0.2,1.3,1.3,9.5,4.9,-10.700000000000001,10.4,16
448,7586.0,0.4,0.0,0.0,1.3,1.4000000000000001,9.8,4.4,-12.5,8.100000000000001,16
449,7609.0,0.4,0.1,0.1,1.4000000000000001,1.6,9.5,6.1000000000000005,-11.6,5.9,16
450,7620.0,0.5,0.2,-0.30000000000000004,1.4000000000000001,1.6,9.3,6.4,-10.200000000000001,3.0,16
451,7638.0,0.4,0.30000000000000004,-0.6000000000000001,1.3,1.7000000000000002,9.0,2.7,-8.700000000000001,-0.4,16
452,7653.0,0.2,0.30000000000000004,-0.6000000000000001,1.2000000000000002,1.7000000000000002,9.1,-3.1,-5.0,-2.9,16
453,7670.0,0.2,0.30000000000000004,-0.5,1.1,1.6,9.5,-9.700000000000001,-1.7,-4.7,16
454,7686.0,0.0,0.2,-0.1,0.9,1.5,9.700000000000001,-13.8,1.1,-6.0,16
455,7707.0,-0.2,0.1,0.4,0.7000000000000001,1.4000000000000001,10.3,-14.800000000000002,3.0,-6.0,16
456,7720.0,-0.2,0.1,0.7000000000000001,0.8,1.3,10.4,-11.700000000000001,2.8,-5.0,16
457,7740.0,-0.2,0.1,0.8,0.7000000000000001,1.2000000000000002,10.4,-6.1000000000000005,1.4,-4.2,16
458,7753.0,-0.30000000000000004,0.0,0.6000000000000001,0.7000000000000001,1.3,10.200000000000001,-0.6000000000000001,-0.9000000000000001,-3.3000000000000007,16
459,7774.0,-0.2,0.0,0.4,0.9,1.2000000000000002,9.9,2.9,-4.0,-2.3,16
460,7788.0,-0.1,0.0,0.1,0.9,1.2000000000000002,9.700000000000001,3.6000000000000005,-6.300000000000001,-2.3,16
461,7804.0,-0.2,-0.1,0.1,0.8,1.2000000000000002,9.8,2.5,-6.500000000000001,-2.8,16
462,7824.0,-0.2,-0.1,0.0,0.9,1.1,9.700000000000001,1.0,-2.6,-2.4000000000000004,16
463,7838.0,-0.1,-0.1,-0.1,1.0,1.1,9.600000000000001,-0.7,-0.1,-2.7,16
464,7858.0,0.0,-0.1,-0.30000000000000004,1.1,1.1,9.5,-2.1,0.4,-3.8,16
465,7870.0,0.1,-0.2,-0.2,1.1,1.0,9.8,-4.7,-2.6,-5.7,16
466,7888.0,0.0,-0.30000000000000004,0.2,0.9,0.9,9.9,-4.5,-3.0,-7.200000000000001,16
467,7903.0,-0.1,-0.30000000000000004,0.2,0.9,0.9,9.8,-2.5,-0.9000000000000001,-7.300000000000001,16
468,7925.0,-0.2,-0.30000000000000004,0.2,0.8,0.9,9.9,-1.5,-0.1,-6.500000000000001,16
469,7938.0,-0.30000000000000004,-0.30000000000000004,0.2,0.7000000000000001,1.0,9.600000000000001,0.1,3.0,-4.4,16
470,7953.0,-0.30000000000000004,-0.2,-0.2,0.8,1.1,9.4,1.0,5.1000000000000005,-2.2,16
471,7970.0,-0.30000000000000004,-0.2,-0.2,0.7000000000000001,1.1,9.4,1.0,5.1000000000000005,-2.2,16
472,7986.0,-0.30000000000000004,0.0,-0.2,0.7000000000000001,1.2000000000000002,9.600000000000001,-2.6,2.5,1.2000000000000002,16
473,8008.0,0.0,0.1,-0.1,1.2000000000000002,1.3,10.100000000000001,-3.1,-0.4,2.7,16
474,8022.0,0.2,0.1,0.4,1.1,1.3,10.200000000000001,-2.3,-4.4,1.7,16
475,8037.0,0.0,0.1,0.5,1.1,1.3,10.100000000000001,0.6000000000000001,-5.0,0.30000000000000004,16
476,8063.0,0.1,0.1,0.30000000000000004,1.2000000000000002,1.3,10.0,2.3,-4.2,0.1,16
477,8071.0,0.2,0.1,0.2,1.3,1.3,9.9,2.5,-2.4000000000000004,-0.5,16
478,8088.0,0.30000000000000004,0.1,0.1,1.4000000000000001,1.3,9.8,1.8000000000000003,-0.8,-2.4000000000000004,16
479,8104.0,0.30000000000000004,0.0,0.1,1.4000000000000001,1.2000000000000002,9.8,0.5,1.4,-5.0,16
480,8121.0,0.2,-0.1,0.0,1.2000000000000002,1.1,9.700000000000001,-0.7,3.7000000000000006,-7.300000000000001,16
481,8136.0,0.1,-0.2,-0.1,1.1,1.0,9.600000000000001,-1.4,5.300000000000001,-8.600000000000001,16
482,8153.0,0.0,-0.2,0.0,1.0,1.0,9.700000000000001,-2.2,6.1000000000000005,-8.600000000000001,16
483,8170.0,0.0,-0.2,-0.1,0.9,1.0,9.600000000000001,-1.8000000000000003,6.0,-8.4,16
484,8186.0,-0.1,-0.2,-0.30000000000000004,0.9,1.0,9.3,-1.4,4.0,-8.3,16
485,8204.0,-0.1,-0.2,-0.4,0.9,1.0,9.4,-3.0,0.1,-8.100000000000001,16
486,8221.0,-0.1,-0.2,-0.30000000000000004,0.9,1.0,9.5,-4.7,-2.6,-7.500000000000001,16
487,8237.0,-0.1,-0.1,-0.2,1.0,1.0,9.600000000000001,-6.1000000000000005,-4.7,-6.8,16
488,8253.0,0.0,-0.1,-0.1,0.9,1.0,9.700000000000001,-6.9,-6.699999999999999,-7.0,16
489,8270.0,-0.1,-0.1,0.2,0.9,1.0,10.0,-7.500000000000001,-6.600000000000001,-7.1000000000000005,16
490,8287.0,-0.1,-0.1,0.5,0.9,1.0,10.200000000000001,-5.9,-4.4,-6.500000000000001,16
491,8307.0,-0.1,-0.1,0.4,1.0,1.0,10.0,-3.6000000000000005,-2.9,-6.1000000000000005,16
492,8320.0,0.0,0.0,0.2,1.0,1.1,9.9,-2.4000000000000004,-2.4000000000000004,-6.500000000000001,16
493,8336.0,-0.1,0.0,0.1,0.9,1.1,9.8,-2.4000000000000004,-1.6,-6.8,16
494,8354.0,-0.1,0.1,0.0,0.9,1.2000000000000002,9.700000000000001,-3.3000000000000007,-1.6,-6.699999999999999,16
495,8370.0,-0.1,0.1,0.1,0.9,1.2000000000000002,9.9,-4.6,-2.6,-6.600000000000001,16
496,8387.0,-0.1,0.1,0.4,1.0,1.2000000000000002,10.200000000000001,-3.3000000000000007,-2.7,-6.4,16
497,8404.0,0.0,0.2,0.4,1.1,1.2000000000000002,10.100000000000001,0.2,-3.3000000000000007,-6.8,16
498,8420.0,0.1,0.2,0.30000000000000004,1.2000000000000002,1.3,10.0,2.8,-4.6,-7.400000000000001,16
499,8436.0,0.1,0.1,0.2,1.1,1.2000000000000002,9.9,4.7,-4.4,-8.700000000000001,16
500,8453.0,0.0,0.1,0.0,1.1,1.3,9.600000000000001,5.300000000000001,-2.1,-9.3,16
501,8470.0,0.1,0.1,-0.2,1.2000000000000002,1.2000000000000002,9.600000000000001,4.300000000000001,-0.30000000000000004,-10.1,16
502,8486.0,0.1,0.1,-0.1,1.1,1.2000000000000002,9.700000000000001,3.1,0.6000000000000001,-11.5,16
503,8507.0,-0.1,0.0,0.0,1.0,1.2000000000000002,9.8,2.8,1.5,-12.200000000000001,16
504,8520.0,0.0,0.0,0.1,1.1,1.1,9.9,3.3000000000000007,0.9000000000000001,-12.200000000000001,16
505,8536.0,0.0,-0.1,0.1,1.1,1.1,9.8,4.9,1.3,-11.700000000000001,16
506,8553.0,0.1,-0.2,-0.1,1.2000000000000002,1.1,9.600000000000001,6.0,1.3,-11.8,16
507,8570.0,0.1,-0.2,-0.2,1.2000000000000002,1.0,9.4,5.9,1.8000000000000003,-12.5,16
508,8596.0,0.2,-0.2,-0.30000000000000004,1.2000000000000002,1.0,9.5,5.0,2.7,-12.8,16
509,8606.0,0.2,-0.30000000000000004,-0.2,1.3,1.0,9.5,4.2,4.6,-12.7,16
510,8621.0,0.30000000000000004,-0.30000000000000004,-0.30000000000000004,1.3,1.0,9.4,4.800000000000001,6.9,-12.600000000000001,16
511,8636.0,0.4,-0.2,-0.4,1.4000000000000001,1.0,9.200000000000001,5.0,7.6,-12.9,16
512,8653.0,0.4,-0.2,-0.5,1.4000000000000001,1.1,9.200000000000001,4.2,7.500000000000001,-13.3,16
513,8670.0,0.4,-0.2,-0.5,1.4000000000000001,1.0,9.200000000000001,2.9,5.9,-13.900000000000002,16
514,8686.0,0.4,-0.2,-0.5,1.3,1.1,9.1,1.9,4.6,-14.400000000000002,16
515,8712.0,0.4,-0.2,-0.5,1.3,1.1,9.200000000000001,0.30000000000000004,3.5,-15.100000000000001,16
516,8720.0,0.30000000000000004,-0.2,-0.5,1.2000000000000002,1.1,9.200000000000001,-2.0,2.8,-15.6,16
517,8737.0,0.2,-0.2,-0.2,1.1,1.1,9.5,-5.2,1.1,-15.299999999999999,16
518,8753.0,0.1,-0.2,0.0,1.1,1.0,9.700000000000001,-7.400000000000001,-0.7,-14.5,16
519,8770.0,0.1,-0.2,0.2,1.0,1.0,10.0,-9.100000000000001,-2.5,-13.000000000000002,16
520,8789.0,0.1,-0.1,0.4,1.1,1.0,10.4,-11.5,-5.7,-11.6,16
521,8811.0,0.1,-0.1,0.9,1.1,1.0,11.100000000000001,-12.9,-8.0,-10.0,16
522,8820.0,0.1,-0.1,1.4000000000000001,1.0,1.0,11.200000000000001,-11.000000000000002,-7.699999999999999,-8.4,16
523,8838.0,0.0,-0.1,1.5,1.1,1.0,11.3,-6.1000000000000005,-4.7,-6.1000000000000005,16
524,8858.0,0.1,-0.1,1.5,1.1,1.1,10.8,0.4,1.8000000000000003,-3.3000000000000007,16
525,8871.0,0.2,0.0,0.9,1.2000000000000002,1.2000000000000002,10.3,7.1000000000000005,9.0,-1.1,16
526,8896.0,0.2,0.2,0.2,1.2000000000000002,1.4000000000000001,9.700000000000001,10.1,12.4,-0.30000000000000004,16
527,8903.0,0.30000000000000004,0.2,-0.2,1.2000000000000002,1.4000000000000001,9.5,10.5,13.3,-0.5,16
528,8920.0,0.4,0.2,-0.4,1.3,1.4000000000000001,9.3,10.1,13.000000000000002,-1.1,16
529,8936.0,0.5,0.2,-0.6000000000000001,1.4000000000000001,1.5,9.3,9.100000000000001,10.9,-2.4000000000000004,16
530,8954.0,0.6000000000000001,0.2,-0.5,1.4000000000000001,1.4000000000000001,9.4,8.100000000000001,8.5,-4.9,16
531,8975.0,0.7000000000000001,0.1,-0.30000000000000004,1.6,1.3,9.8,7.200000000000001,7.6,-7.200000000000001,16
532,8986.0,0.8,0.0,0.0,1.5,1.3,9.9,6.300000000000001,6.1000000000000005,-9.5,16
533,9009.0,0.8,0.0,0.1,1.5,1.2000000000000002,10.0,6.0,7.400000000000001,-11.2,16
534,9023.0,0.8,-0.2,0.2,1.5,1.1,10.100000000000001,5.0,9.0,-12.4,16
535,9040.0,0.7000000000000001,-0.30000000000000004,0.4,1.4000000000000001,1.0,10.200000000000001,3.8,11.1,-13.000000000000002,16
536,9053.0,0.7000000000000001,-0.4,0.6000000000000001,1.3,0.9,10.600000000000001,3.6000000000000005,12.600000000000001,-12.600000000000001,16
537,9070.0,0.8,-0.5,0.8,1.4000000000000001,0.8,10.700000000000001,5.7,13.5,-11.6,16
538,9088.0,0.9,-0.6000000000000001,0.9,1.5,0.8,10.700000000000001,9.700000000000001,13.900000000000002,-11.000000000000002,16
539,9115.0,1.1,-0.7000000000000001,0.2,1.6,0.8,9.9,16.8,11.1,-13.000000000000002,16
540,9126.0,1.1,-0.7000000000000001,0.2,1.6,0.8,9.8,16.8,11.1,-13.000000000000002,16
541,9138.0,1.1,-0.7000000000000001,0.0,1.6,0.8,9.700000000000001,15.6,8.100000000000001,-14.800000000000002,16
542,9153.0,1.2000000000000002,-0.7000000000000001,0.0,1.6,0.8,9.8,13.200000000000003,6.0,-16.8,16
543,9170.0,1.1,-0.8,-0.1,1.5,0.8,9.700000000000001,11.1,5.6,-19.1,16
544,9187.0,1.1,-0.8,-0.1,1.5,0.9,9.700000000000001,8.4,6.0,-21.0,16
545,9210.0,1.1,-0.8,-0.1,1.4000000000000001,0.9,9.600000000000001,6.500000000000001,6.500000000000001,-23.5,16
546,9225.0,0.9,-0.8,-0.2,1.3,0.9,9.5,5.300000000000001,7.300000000000001,-25.5,16
547,9236.0,0.8,-0.7000000000000001,-0.5,1.0,0.9,9.200000000000001,3.9,6.9,-27.0,16
548,9253.0,0.5,-0.8,-0.7000000000000001,0.7000000000000001,0.9,9.0,2.2,5.9,-27.800000000000004,16
549,9270.0,0.4,-0.7000000000000001,-0.8,0.6000000000000001,0.9,9.0,0.7,4.300000000000001,-27.6,16
550,9287.0,0.2,-0.7000000000000001,-0.7000000000000001,0.4,1.0,9.1,0.7,3.2,-26.700000000000003,16
551,9307.0,0.1,-0.7000000000000001,-0.7000000000000001,0.30000000000000004,1.0,8.8,2.7,1.3,-25.4,16
552,9322.0,-0.1,-0.7000000000000001,-1.0,-0.1,1.1,8.9,3.8,-2.2,-24.200000000000003,16
553,9336.0,-0.30000000000000004,-0.6000000000000001,-0.9,-0.1,1.1,8.9,4.7,-5.2,-21.900000000000002,16
554,9355.0,-0.30000000000000004,-0.6000000000000001,-1.1,-0.1,1.2000000000000002,8.4,6.0,-7.6,-19.5,16
555,9370.0,-0.30000000000000004,-0.5,-1.4000000000000001,0.0,1.3,8.4,4.300000000000001,-11.5,-18.0,16
556,9387.0,-0.30000000000000004,-0.5,-1.2000000000000002,0.0,1.3,8.6,0.5,-14.900000000000002,-17.1,16
557,9403.0,-0.4,-0.4,-1.1,0.0,1.4000000000000001,8.700000000000001,-3.2,-18.700000000000003,-16.8,16
558,9420.0,-0.4,-0.4,-0.9,0.0,1.3,9.200000000000001,-7.400000000000001,-22.9,-16.4,16
559,9443.0,-0.5,-0.4,-0.2,-0.1,1.3,9.9,-9.5,-23.900000000000006,-15.000000000000002,16
560,9453.0,-0.6000000000000001,-0.30000000000000004,0.2,-0.1,1.4000000000000001,9.9,-6.300000000000001,-20.0,-12.5,16
561,9471.0,-0.7000000000000001,-0.2,0.1,-0.2,1.6,9.5,-0.1,-14.5,-10.0,16
562,9487.0,-0.8,0.0,-0.4,-0.30000000000000004,1.7000000000000002,9.200000000000001,5.8,-8.0,-7.699999999999999,16
563,9505.0,-0.9,0.2,-1.0,-0.30000000000000004,2.0,8.4,9.2,-2.3,-5.500000000000001,16
564,9522.0,-0.8,0.5,-1.4000000000000001,-0.30000000000000004,2.3000000000000003,8.200000000000001,9.5,-0.5,-4.9,16
565,9537.0,-0.8,0.7000000000000001,-1.5,-0.2,2.6,8.5,7.699999999999999,-2.9,-6.4,16
566,9564.0,-0.8,0.9,-1.0,-0.30000000000000004,2.7,9.0,5.6,-9.8,-10.4,16
567,9570.0,-0.8,0.9,-1.0,-0.30000000000000004,2.7,9.0,4.1,-16.900000000000002,-16.1,16
568,9586.0,-1.1,0.8,0.0,-0.5,2.5,10.0,2.4000000000000004,-21.200000000000003,-20.900000000000002,16
569,9610.0,-1.1,0.7000000000000001,0.4,-0.2,2.4000000000000004,10.100000000000001,0.0,-22.8,-22.8,16
570,9619.0,-0.9,0.6000000000000001,0.4,0.1,2.3000000000000003,10.100000000000001,-5.4,-23.0,-24.3,16
571,9637.0,-0.5,0.4,0.6000000000000001,0.5,2.0,10.700000000000001,-15.5,-24.200000000000003,-27.400000000000002,16
572,9653.0,-0.30000000000000004,0.2,1.3,0.5,1.9000000000000001,11.200000000000001,-28.700000000000003,-24.900000000000002,-32.0,16
573,9671.0,-0.5,-0.1,2.4000000000000004,0.30000000000000004,1.3,12.600000000000001,-39.2,-21.200000000000003,-35.1,16
574,9686.0,-0.9,-0.30000000000000004,3.5,-0.2,1.0,13.700000000000001,-41.800000000000004,-10.200000000000001,-34.0,16
575,9704.0,-1.1,-0.4,4.1000000000000005,-0.30000000000000004,1.0,13.8,-33.6,6.500000000000001,-26.700000000000003,16
576,9720.0,-1.0,-0.2,3.6,-0.2,1.3,13.0,-19.9,20.1,-18.4,16
577,9737.0,-0.8,0.2,2.4000000000000004,0.0,1.7000000000000002,11.5,-6.1000000000000005,27.3,-11.8,16
578,9753.0,-0.6000000000000001,0.4,1.2000000000000002,0.1,1.9000000000000001,10.200000000000001,3.9,26.799999999999997,-8.899999999999999,16
579,9771.0,-0.4,0.6000000000000001,0.2,0.2,2.0,9.700000000000001,10.5,23.900000000000006,-7.1000000000000005,16
580,9786.0,-0.30000000000000004,0.6000000000000001,-0.6000000000000001,0.30000000000000004,2.1,8.8,14.600000000000001,20.8,-6.4,16
581,9805.0,0.0,0.7000000000000001,-1.2000000000000002,0.5,2.2,8.200000000000001,16.3,18.200000000000003,-6.8,16
582,9827.0,0.1,0.7000000000000001,-1.6,0.6000000000000001,2.3000000000000003,8.0,16.8,15.700000000000001,-8.700000000000001,16
583,9836.0,0.2,0.7000000000000001,-1.8,0.6000000000000001,2.3000000000000003,8.0,16.5,12.200000000000001,-12.200000000000001,16
584,9853.0,0.30000000000000004,0.6000000000000001,-1.8,0.5,2.1,7.800000000000001,15.6,8.2,-17.200000000000003,16
585,9870.0,0.1,0.4,-1.9000000000000001,0.4,2.0,7.9,13.000000000000002,3.9,-22.5,16
586,9887.0,0.0,0.1,-1.3,0.2,1.7000000000000002,8.6,9.2,-0.6000000000000001,-26.200000000000003,16
587,9905.0,-0.2,-0.2,-1.0,0.0,1.5,8.6,7.400000000000001,-2.4000000000000004,-28.3,16
588,9923.0,-0.30000000000000004,-0.30000000000000004,-1.1,-0.2,1.3,8.700000000000001,4.2,-4.5,-29.1,16
589,9936.0,-0.5,-0.5,-0.9,-0.2,1.2000000000000002,9.200000000000001,-1.7,-6.1000000000000005,-27.9,16
590,9953.0,-0.4,-0.5,-0.1,-0.1,1.1,9.9,-6.9,-7.8,-25.4,16
591,9970.0,-0.4,-0.5,0.30000000000000004,-0.1,1.2000000000000002,10.0,-8.0,-9.100000000000001,-23.5,16
592,9986.0,-0.5,-0.5,0.30000000000000004,-0.1,1.2000000000000002,9.9,-8.600000000000001,-10.600000000000001,-21.300000000000004,16
593,10009.0,-0.5,-0.4,0.30000000000000004,-0.2,1.4000000000000001,10.3,-10.9,-12.100000000000001,-19.400000000000002,16
594,10020.0,-0.5,-0.2,0.8,-0.2,1.4000000000000001,10.600000000000001,-12.600000000000001,-9.899999999999999,-17.0,16
595,10036.0,-0.5,0.0,1.0,-0.1,1.6,10.8,-11.5,-6.699999999999999,-14.600000000000001,16
596,10053.0,-0.4,0.1,1.0,0.1,1.7000000000000002,10.8,-9.3,-3.7000000000000006,-13.200000000000003,16
597,10075.0,-0.30000000000000004,0.2,1.0,0.1,1.8,10.700000000000001,-6.0,-0.9000000000000001,-12.9,16
598,10087.0,-0.30000000000000004,0.30000000000000004,0.9,0.1,1.9000000000000001,10.5,-1.6,1.3,-12.9,16
599,10109.0,-0.2,0.30000000000000004,0.6000000000000001,0.1,1.9000000000000001,10.200000000000001,1.9,2.1,-13.3,16
600,10121.0,-0.30000000000000004,0.30000000000000004,0.30000000000000004,0.1,1.9000000000000001,9.8,4.1,4.5,-13.399999999999999,16
601,10141.0,-0.2,0.30000000000000004,0.0,0.2,1.9000000000000001,9.5,5.6,7.8,-13.5,16
602,10154.0,-0.1,0.30000000000000004,-0.30000000000000004,0.2,1.8,9.4,5.7,9.700000000000001,-14.5,16
603,10170.0,-0.1,0.2,-0.4,0.0,1.7000000000000002,9.4,5.300000000000001,9.5,-16.5,16
604,10187.0,-0.2,0.0,-0.4,-0.1,1.6,9.3,5.4,9.0,-17.200000000000003,16
605,10205.0,-0.2,0.0,-0.4,0.0,1.6,9.3,5.9,8.700000000000001,-16.5,16
606,10220.0,-0.1,0.0,-0.4,0.1,1.6,9.3,6.300000000000001,6.8,-15.399999999999999,16
607,10236.0,0.0,0.0,-0.4,0.1,1.6,9.3,6.500000000000001,3.4,-15.2,16
608,10254.0,0.0,-0.1,-0.5,0.2,1.6,9.200000000000001,5.2,-0.30000000000000004,-15.6,16
609,10270.0,0.0,-0.1,-0.5,0.1,1.5,9.3,2.3,-4.6,-16.3,16
610,10287.0,-0.1,-0.2,-0.30000000000000004,0.1,1.4000000000000001,9.700000000000001,-0.6000000000000001,-7.300000000000001,-15.6,16
611,10305.0,-0.1,-0.2,0.0,0.1,1.4000000000000001,9.9,-2.3,-9.2,-14.100000000000001,16
612,10320.0,0.0,-0.30000000000000004,0.30000000000000004,0.2,1.4000000000000001,10.0,-1.5,-11.2,-12.600000000000001,16
613,10337.0,0.1,-0.30000000000000004,0.2,0.30000000000000004,1.4000000000000001,9.9,0.5,-14.0,-10.9,16
614,10353.0,0.2,-0.2,0.0,0.6000000000000001,1.5,9.600000000000001,1.2000000000000002,-18.200000000000003,-9.700000000000001,16
615,10369.0,0.4,0.0,-0.2,0.8,1.7000000000000002,9.5,-0.2,-22.8,-9.5,16
616,10388.0,0.5,0.1,0.0,0.9,1.7000000000000002,10.100000000000001,-2.1,-28.700000000000003,-10.600000000000001,16
617,10405.0,0.4,0.0,0.5,0.9,1.7000000000000002,10.3,-0.9000000000000001,-32.300000000000004,-11.900000000000002,16
618,10420.0,0.30000000000000004,0.0,0.6000000000000001,0.9,1.8,10.200000000000001,3.6000000000000005,-31.3,-12.8,16
619,10437.0,0.2,0.1,0.30000000000000004,0.9,1.8,10.0,7.8,-27.6,-13.100000000000001,16
620,10453.0,0.2,0.1,0.0,0.9,1.9000000000000001,9.600000000000001,9.0,-21.300000000000004,-13.000000000000002,16
621,10474.0,0.2,0.2,-0.30000000000000004,0.9,2.0,9.3,7.1000000000000005,-12.9,-13.5,16
622,10487.0,0.2,0.30000000000000004,-0.5,0.8,2.0,9.1,3.3000000000000007,-5.4,-15.100000000000001,16
623,10504.0,0.0,0.30000000000000004,-0.5,0.7000000000000001,2.0,9.1,-0.6000000000000001,0.30000000000000004,-16.4,16
624,10520.0,-0.1,0.2,-0.5,0.5,2.0,9.200000000000001,-3.8,2.5,-17.200000000000003,16
625,10537.0,-0.2,0.2,-0.4,0.4,1.9000000000000001,9.3,-5.1000000000000005,1.1,-17.6,16
626,10553.0,-0.30000000000000004,0.2,-0.5,0.4,1.9000000000000001,9.200000000000001,-5.0,-2.0,-17.200000000000003,16
627,10570.0,-0.30000000000000004,0.1,-0.2,0.4,1.8,9.8,-4.6,-7.300000000000001,-16.4,16
628,10587.0,-0.30000000000000004,0.0,0.5,0.4,1.7000000000000002,10.3,-1.1,-10.700000000000001,-15.5,16
629,10610.0,-0.30000000000000004,0.0,0.5,0.5,1.8,9.9,5.6,-11.3,-13.8,16
630,10620.0,-0.2,0.0,0.1,0.5,1.9000000000000001,9.700000000000001,10.5,-9.600000000000001,-12.600000000000001,16
631,10639.0,-0.30000000000000004,0.1,-0.30000000000000004,0.4,2.0,9.200000000000001,11.4,-6.300000000000001,-11.700000000000001,16
632,10654.0,-0.30000000000000004,0.2,-0.5,0.5,2.1,9.4,8.3,-3.8,-10.700000000000001,16
633,10670.0,-0.2,0.30000000000000004,-0.30000000000000004,0.5,2.2,9.4,5.6,-0.9000000000000001,-10.0,16
634,10687.0,-0.2,0.30000000000000004,-0.30000000000000004,0.5,2.3000000000000003,9.4,4.9,1.3,-10.0,16
635,10706.0,-0.2,0.4,-0.30000000000000004,0.5,2.4000000000000004,9.4,4.6,2.6,-10.0,16
636,10720.0,-0.1,0.5,-0.2,0.6000000000000001,2.5,9.5,4.0,1.4,-10.5,16
637,10736.0,0.0,0.5,0.0,0.7000000000000001,2.5,9.700000000000001,3.1,-2.0,-12.100000000000001,16
638,10753.0,0.0,0.5,0.2,0.7000000000000001,2.5,9.8,2.2,-4.9,-14.200000000000001,16
639,10770.0,0.0,0.4,0.2,0.7000000000000001,2.5,9.8,0.30000000000000004,-6.2,-15.899999999999999,16
640,10787.0,0.0,0.4,0.30000000000000004,0.7000000000000001,2.5,10.100000000000001,-2.9,-4.300000000000001,-16.700000000000003,16
641,10806.0,0.0,0.4,0.5,0.7000000000000001,2.5,10.3,-6.600000000000001,0.0,-17.400000000000002,16
642,10820.0,-0.1,0.5,0.7000000000000001,0.6000000000000001,2.5,10.4,-10.200000000000001,3.8,-17.400000000000002,16
643,10836.0,-0.2,0.6000000000000001,0.9,0.30000000000000004,2.6,10.700000000000001,-13.6,7.6,-15.899999999999999,16
644,10853.0,-0.2,0.7000000000000001,1.2000000000000002,0.4,2.7,11.100000000000001,-14.600000000000001,11.8,-11.8,16
645,10873.0,-0.2,0.8,1.4000000000000001,0.4,2.8000000000000003,11.0,-10.4,16.700000000000003,-6.9,16
646,10887.0,0.0,0.8,1.2000000000000002,0.5,2.8000000000000003,10.9,-3.2,19.200000000000003,-2.5,16
647,10907.0,0.0,0.8,1.2000000000000002,0.5,2.8000000000000003,10.600000000000001,-3.2,19.200000000000003,-2.5,16
648,10920.0,0.0,0.7000000000000001,0.4,0.4,2.7,10.100000000000001,13.000000000000002,14.300000000000002,4.300000000000001,16
649,10936.0,0.1,0.8,-0.1,0.5,2.9000000000000004,9.5,19.799999999999997,7.699999999999999,8.0,16
650,10953.0,0.2,0.8,-0.6000000000000001,0.7000000000000001,3.0,9.0,24.5,0.2,10.8,16
651,10970.0,0.4,0.8,-1.0,0.8,3.0,8.700000000000001,26.799999999999997,-5.7,11.8,16
652,10994.0,0.5,0.8,-1.3,1.2000000000000002,3.1,8.200000000000001,26.6,-10.700000000000001,11.900000000000002,16
653,11005.0,0.8,0.8,-1.5,1.5,3.2,8.1,24.599999999999998,-14.5,11.2,16
654,11021.0,1.1,0.8,-1.5,1.8,3.3000000000000003,8.1,22.2,-17.799999999999997,7.9,16
655,11036.0,1.2000000000000002,0.8,-1.6,1.8,3.2,8.0,19.9,-19.1,1.6,16
656,11053.0,1.1,0.7000000000000001,-1.8,1.6,3.2,7.800000000000001,15.700000000000001,-18.200000000000003,-5.1000000000000005,16
657,11070.0,0.8,0.5,-1.7000000000000002,1.4000000000000001,3.0,8.200000000000001,9.4,-14.700000000000001,-10.299999999999999,16
658,11087.0,0.6000000000000001,0.4,-1.2000000000000002,1.3,2.9000000000000004,8.5,4.5,-9.2,-13.399999999999999,16
659,11105.0,0.5,0.30000000000000004,-0.8,1.1,2.9000000000000004,8.9,2.9,-3.9,-15.700000000000001,16
660,11120.0,0.30000000000000004,0.2,-0.6000000000000001,0.9,2.9000000000000004,8.8,4.0,-0.7,-16.900000000000002,16
661,11137.0,0.1,0.30000000000000004,-0.9,0.8,2.9000000000000004,8.6,4.4,0.7,-16.8,16
662,11153.0,0.1,0.4,-1.0,0.8,3.1,8.5,1.4,1.8000000000000003,-16.3,16
663,11170.0,0.1,0.5,-0.9,0.6000000000000001,3.2,9.0,-3.6000000000000005,2.9,-16.5,16
664,11186.0,-0.1,0.5,-0.1,0.4,3.1,9.9,-7.6,3.6000000000000005,-16.6,16
665,11209.0,-0.30000000000000004,0.4,0.6000000000000001,0.1,3.0,10.600000000000001,-7.0,5.4,-14.900000000000002,16
666,11221.0,-0.5,0.4,1.0,0.1,3.0,10.600000000000001,-2.5,9.4,-10.9,16
667,11236.0,-0.30000000000000004,0.4,1.1,0.30000000000000004,3.0,10.9,3.2,13.700000000000001,-6.0,16
668,11254.0,-0.1,0.4,1.4000000000000001,0.5,3.0,11.0,9.600000000000001,16.8,-2.2,16
669,11272.0,0.30000000000000004,0.4,1.2000000000000002,0.8,3.0,10.5,16.200000000000003,17.0,-1.5,16
670,11287.0,0.5,0.2,0.8,0.8,2.8000000000000003,10.3,19.0,13.5,-4.300000000000001,16
671,11311.0,0.4,0.0,0.9,0.5,2.5,10.9,15.899999999999999,5.8,-7.8,16
672,11320.0,0.1,-0.30000000000000004,1.5,0.30000000000000004,2.4000000000000004,11.3,13.3,2.8,-10.5,16
673,11338.0,-0.1,-0.5,1.8,0.0,2.3000000000000003,11.0,15.399999999999999,8.899999999999999,-11.3,16
674,11353.0,-0.30000000000000004,-0.5,1.1,0.0,2.4000000000000004,10.4,16.5,18.3,-11.1,16
675,11370.0,-0.2,-0.4,0.2,0.1,2.6,9.600000000000001,10.0,23.900000000000006,-10.299999999999999,16
676,11388.0,0.1,-0.30000000000000004,0.1,0.30000000000000004,2.6,10.0,-3.2,21.7,-11.1,16
677,11405.0,0.30000000000000004,-0.4,0.9,0.4,2.4000000000000004,10.700000000000001,-16.0,10.600000000000001,-13.200000000000003,16
678,11419.0,0.2,-0.8,2.3000000000000003,0.2,1.9000000000000001,12.4,-19.5,1.6,-13.8,16
679,11436.0,0.1,-1.2000000000000002,3.4000000000000004,0.2,1.4000000000000001,13.100000000000001,-8.5,1.8000000000000003,-10.600000000000001,16
680,11454.0,0.2,-1.5,3.0,0.1,1.3,11.200000000000001,14.100000000000001,10.700000000000001,-4.5,16
681,11471.0,0.2,-1.5,1.1,0.2,1.4000000000000001,10.100000000000001,31.400000000000002,21.200000000000003,1.8000000000000003,16
682,11487.0,0.4,-1.4000000000000001,-0.4,0.4,1.7000000000000002,8.6,36.0,29.0,6.600000000000001,16
683,11512.0,0.5,-1.3,-1.2000000000000002,0.30000000000000004,2.0,8.0,32.1,28.400000000000002,8.0,16
684,11520.0,0.6000000000000001,-1.1,-1.5,0.30000000000000004,2.1,8.0,24.900000000000002,21.0,7.9,16
685,11536.0,0.7000000000000001,-1.0,-1.5,0.6000000000000001,2.3000000000000003,8.0,17.6,10.9,6.8,16
686,11553.0,0.9,-0.9,-1.3,0.7000000000000001,2.3000000000000003,8.3,10.4,-1.2000000000000002,3.7000000000000006,16
687,11571.0,1.0,-1.0,-1.0,0.8,2.2,8.4,4.6,-11.900000000000002,-0.1,16
688,11586.0,0.9,-1.0,-0.9,0.7000000000000001,2.1,8.6,-1.1,-18.3,-3.1,16
689,11607.0,0.8,-1.1,-0.9,0.6000000000000001,2.1,8.6,-7.6,-17.9,-5.0,16
690,11620.0,0.6000000000000001,-1.1,-0.8,0.5,2.1,8.700000000000001,-14.0,-10.299999999999999,-5.300000000000001,16
691,11636.0,0.4,-1.1,-0.7000000000000001,0.30000000000000004,2.0,8.9,-18.700000000000003,0.30000000000000004,-4.4,16
692,11653.0,0.30000000000000004,-1.0,-0.30000000000000004,0.2,2.1,9.3,-19.700000000000003,9.100000000000001,-2.1,16
693,11671.0,0.30000000000000004,-0.9,-0.30000000000000004,0.1,2.1,9.200000000000001,-14.0,13.8,-0.5,16
694,11687.0,0.0,-0.9,-0.6000000000000001,-0.2,2.1,8.8,-7.9,14.900000000000002,1.5,16
695,11708.0,-0.2,-0.8,-1.0,-0.6000000000000001,2.2,8.200000000000001,-3.1,14.800000000000002,4.1,16
696,11720.0,-0.30000000000000004,-0.8,-1.4000000000000001,-0.6000000000000001,2.1,8.0,-1.7,12.5,7.300000000000001,16
697,11737.0,-0.4,-0.8,-1.5,-0.7000000000000001,2.1,8.0,-3.1,9.600000000000001,10.700000000000001,16
698,11753.0,-0.5,-0.8,-1.1,-1.0,2.1,8.9,-4.2,5.9,14.100000000000001,16
699,11770.0,-0.7000000000000001,-0.8,-0.30000000000000004,-0.9,2.2,9.200000000000001,0.2,4.9,18.3,16
700,11786.0,-0.6000000000000001,-0.8,-0.8,-0.9,2.2,8.6,6.2,3.2,22.6,16
701,11808.0,-0.4,-0.6000000000000001,-0.9,-0.4,2.4000000000000004,8.6,4.4,-3.8,26.300000000000004,16
702,11820.0,0.1,-0.6000000000000001,-0.7000000000000001,0.2,2.3000000000000003,9.4,-2.5,-13.3,27.2,16
703,11836.0,0.30000000000000004,-0.6000000000000001,0.4,0.30000000000000004,2.3000000000000003,10.200000000000001,-10.5,-24.1,24.1,16
704,11854.0,0.30000000000000004,-0.8,1.5,0.30000000000000004,2.0,11.100000000000001,-11.6,-24.7,20.1,16
705,11871.0,0.1,-0.9,1.3,0.0,2.0,10.100000000000001,-7.6,-11.8,16.8,16
706,11886.0,-0.1,-0.8,0.2,-0.1,2.0,9.5,-9.8,3.2,15.100000000000001,16
707,11905.0,-0.2,-0.8,-0.4,-0.1,2.0,9.200000000000001,-19.300000000000004,14.800000000000002,14.200000000000001,16
708,11921.0,-0.1,-0.7000000000000001,0.0,-0.1,1.9000000000000001,10.0,-29.500000000000004,20.7,13.399999999999999,16
709,11937.0,0.0,-0.7000000000000001,0.7000000000000001,-0.1,1.8,10.4,-31.099999999999998,19.400000000000002,11.5,16
710,11954.0,-0.2,-0.8,1.1,-0.4,1.7000000000000002,10.700000000000001,-23.700000000000003,13.5,10.8,16
711,11970.0,-0.30000000000000004,-0.8,0.9,-0.30000000000000004,1.7000000000000002,10.3,-11.3,4.7,11.6,16
712,11989.0,-0.1,-0.8,0.4,-0.1,1.8,9.5,-0.1,-3.8,12.5,16
713,12004.0,-0.1,-0.7000000000000001,-0.30000000000000004,-0.1,1.8,9.1,6.699999999999999,-10.600000000000001,11.8,16
714,12025.0,-0.1,-0.7000000000000001,-0.9,0.0,1.8,8.5,7.300000000000001,-15.100000000000001,10.600000000000001,16
715,12037.0,-0.1,-0.7000000000000001,-0.9,0.1,1.9000000000000001,9.0,2.0,-14.900000000000002,10.299999999999999,16
716,12053.0,0.0,-0.6000000000000001,-0.5,0.2,1.9000000000000001,9.200000000000001,-2.4000000000000004,-12.8,10.200000000000001,16
717,12070.0,0.2,-0.5,-0.30000000000000004,0.5,2.1,9.3,-4.0,-11.5,9.600000000000001,16
718,12086.0,0.4,-0.30000000000000004,-0.1,0.8,2.2,9.700000000000001,-4.6,-11.8,7.400000000000001,16
719,12106.0,0.6000000000000001,-0.30000000000000004,0.1,0.8,2.3000000000000003,9.5,-4.1,-12.5,3.4,16
720,12120.0,0.5,-0.2,-0.1,0.8,2.2,9.3,-3.8,-11.6,-1.6,16
721,12136.0,0.4,-0.2,-0.30000000000000004,0.6000000000000001,2.3000000000000003,9.3,-6.699999999999999,-8.8,-6.2,16
722,12156.0,0.1,-0.2,-0.1,0.2,2.2,9.600000000000001,-10.4,-2.3,-9.3,16
723,12170.0,-0.1,-0.2,0.0,0.1,2.2,9.600000000000001,-13.3,2.7,-11.1,16
724,12186.0,-0.2,-0.2,0.2,-0.1,2.2,10.100000000000001,-15.899999999999999,3.9,-12.299999999999999,16
725,12204.0,-0.4,-0.1,0.5,-0.30000000000000004,2.1,10.200000000000001,-15.8,2.6,-12.4,16
726,12221.0,-0.4,-0.1,0.6000000000000001,-0.2,2.1,10.200000000000001,-12.8,0.5,-11.3,16
727,12236.0,-0.4,-0.1,0.5,-0.2,2.2,10.0,-9.3,-1.7,-10.0,16
728,12255.0,-0.4,0.0,0.2,0.0,2.2,9.600000000000001,-6.2,-2.3,-8.600000000000001,16
729,12270.0,-0.2,0.1,0.0,0.0,2.3000000000000003,9.600000000000001,-5.7,-2.6,-7.699999999999999,16
730,12292.0,-0.2,0.1,0.0,0.0,2.3000000000000003,9.700000000000001,-6.500000000000001,-2.0,-7.300000000000001,16
731,12303.0,-0.1,0.1,0.0,0.2,2.3000000000000003,9.700000000000001,-5.7,-1.3,-6.300000000000001,16
732,12325.0,0.0,0.2,0.0,0.30000000000000004,2.3000000000000003,9.600000000000001,-3.6000000000000005,-1.9,-5.9,16
733,12337.0,0.1,0.2,-0.1,0.30000000000000004,2.3000000000000003,9.5,-0.5,-2.1,-6.0,16
734,12353.0,0.30000000000000004,0.2,-0.30000000000000004,0.7000000000000001,2.4000000000000004,9.4,2.5,-2.4000000000000004,-5.7,16
735,12370.0,0.5,0.30000000000000004,-0.2,0.8,2.5,9.4,4.800000000000001,-3.8,-7.0,16
736,12387.0,0.6000000000000001,0.30000000000000004,-0.4,0.8,2.5,9.1,7.0,-4.1,-9.8,16
737,12404.0,0.6000000000000001,0.30000000000000004,-0.8,0.8,2.5,8.700000000000001,6.8,-3.7000000000000006,-12.299999999999999,16
738,12420.0,0.5,0.30000000000000004,-0.9,0.7000000000000001,2.5,8.700000000000001,2.8,-2.3,-14.200000000000001,16
739,12436.0,0.5,0.30000000000000004,-0.7000000000000001,0.7000000000000001,2.6,9.1,-1.1,-0.5,-15.399999999999999,16
740,12453.0,0.5,0.4,-0.5,0.8,2.6,9.3,-2.8,0.1,-16.200000000000003,16
741,12470.0,0.6000000000000001,0.4,-0.2,0.8,2.6,9.5,-2.7,-0.2,-17.5,16
742,12486.0,0.6000000000000001,0.4,0.1,0.7000000000000001,2.6,9.9,-1.2000000000000002,-1.8000000000000003,-18.8,16
743,12506.0,0.4,0.30000000000000004,0.4,0.6000000000000001,2.5,10.200000000000001,2.5,-3.4,-19.5,16
744,12520.0,0.4,0.30000000000000004,0.6000000000000001,0.6000000000000001,2.6,10.3,7.300000000000001,-5.2,-18.5,16
745,12536.0,0.5,0.4,0.30000000000000004,0.8,2.8000000000000003,9.700000000000001,12.0,-5.2,-17.9,16
746,12554.0,0.8,0.6000000000000001,-0.4,1.4000000000000001,2.8000000000000003,9.4,10.5,-6.9,-20.0,16
747,12569.0,1.2000000000000002,0.30000000000000004,0.1,1.6,2.6,9.8,1.4,-16.3,-27.400000000000002,16
748,12588.0,0.9,-0.1,0.8,1.0,2.0,10.600000000000001,-6.600000000000001,-29.300000000000004,-37.1,16
749,12611.0,-0.30000000000000004,-0.9,1.4000000000000001,0.1,1.4000000000000001,11.100000000000001,-14.800000000000002,-38.400000000000006,-40.4,16
750,12619.0,-0.30000000000000004,-0.9,1.4000000000000001,0.1,1.3,11.0,-14.800000000000002,-38.400000000000006,-40.4,16
751,12636.0,-0.5,-0.9,1.3,0.1,1.3,11.0,-17.7,-35.1,-35.3,16
752,12654.0,-0.6000000000000001,-0.8,1.7000000000000002,0.1,1.4000000000000001,11.600000000000001,-18.4,-32.400000000000006,-28.700000000000003,16
753,12669.0,-0.4,-0.6000000000000001,2.2,0.6000000000000001,1.6,11.9,-11.900000000000002,-31.2,-21.6,16
754,12687.0,0.0,-0.5,2.1,0.9,1.6,11.700000000000001,4.5,-29.900000000000006,-16.200000000000003,16
755,12710.0,0.5,-0.6000000000000001,0.1,1.4000000000000001,1.7000000000000002,9.700000000000001,40.6,-21.6,-12.299999999999999,16
756,12720.0,0.5,-0.6000000000000001,0.1,1.4000000000000001,1.7000000000000002,9.700000000000001,40.6,-21.6,-12.299999999999999,16
757,12736.0,0.4,-0.6000000000000001,-1.1,1.3,1.9000000000000001,8.200000000000001,45.9,-15.6,-13.000000000000002,16
758,12753.0,0.4,-0.5,-2.0,1.4000000000000001,2.2,7.300000000000001,40.7,-13.5,-13.8,16
759,12770.0,0.5,-0.30000000000000004,-2.0,1.7000000000000002,2.4000000000000004,7.7,28.0,-15.399999999999999,-16.200000000000003,16
760,12792.0,0.8,-0.30000000000000004,-1.5,2.0,2.4000000000000004,8.5,15.000000000000002,-19.700000000000003,-21.500000000000004,16
761,12805.0,1.0,-0.30000000000000004,-0.8,2.1,2.3000000000000003,9.0,5.500000000000001,-21.7,-29.0,16
762,12819.0,1.0,-0.30000000000000004,-0.8,2.1,2.3000000000000003,9.3,5.500000000000001,-21.7,-29.0,16
763,12837.0,1.0,-0.5,-0.2,2.0,2.1,9.4,-0.30000000000000004,-21.7,-36.2,16
764,12855.0,0.8,-0.7000000000000001,-0.2,1.7000000000000002,1.9000000000000001,9.200000000000001,-10.8,-0.8,-46.7,16
765,12871.0,-0.1,-0.9,-1.0,0.7000000000000001,1.8,8.6,-19.799999999999997,37.400000000000006,-45.7,16
766,12890.0,-0.1,-0.6000000000000001,-1.1,0.7000000000000001,2.1,8.4,-32.8,58.7,-41.0,16
767,12905.0,-0.1,-0.6000000000000001,-1.1,0.7000000000000001,2.1,8.4,-32.8,58.7,-41.0,16
768,12923.0,0.1,-0.30000000000000004,-1.0,0.5,2.0,9.200000000000001,-43.4,68.80000000000001,-39.699999999999996,16
769,12937.0,-0.1,0.0,-0.4,0.0,2.3000000000000003,9.200000000000001,-30.000000000000004,55.5,-37.1,16
770,12957.0,-0.7000000000000001,0.4,-0.9,-0.7000000000000001,2.5,7.800000000000001,-11.8,40.6,-33.6,16
771,12970.0,-0.8,0.30000000000000004,-2.0,-1.1,2.6,7.2,3.2,14.200000000000001,-25.8,16
772,12987.0,-0.8,0.30000000000000004,-2.0,-1.1,2.6,7.2,3.2,14.200000000000001,-25.8,16
773,13004.0,-1.0,0.4,-2.7,-0.30000000000000004,2.2,7.4,7.400000000000001,-13.399999999999999,-19.300000000000004,16
774,13023.0,-0.6000000000000001,0.30000000000000004,0.1,-0.2,2.8000000000000003,10.100000000000001,14.300000000000002,-56.800000000000004,-2.5,16
775,13036.0,-0.7000000000000001,0.30000000000000004,0.7000000000000001,-0.5,2.5,9.700000000000001,31.7,-75.60000000000001,-1.3,16
776,13053.0,-1.2000000000000002,-0.1,-0.4,-0.6000000000000001,2.5,8.8,43.6,-73.10000000000001,6.4,16
777,13070.0,-0.1,0.6000000000000001,-1.2000000000000002,1.2000000000000002,3.5,8.3,37.400000000000006,-59.699999999999996,16.8,16
778,13088.0,0.7000000000000001,0.7000000000000001,-1.0,1.7000000000000002,3.2,8.6,21.6,-46.300000000000004,17.400000000000002,16
779,13106.0,0.6000000000000001,0.6000000000000001,-0.30000000000000004,1.6,3.4000000000000004,10.200000000000001,5.1000000000000005,-30.799999999999997,12.200000000000001,16
780,13121.0,0.5,0.7000000000000001,1.1,1.5,3.5,10.9,-2.6,-14.400000000000002,8.5,16
781,13137.0,0.30000000000000004,0.8,2.0,1.2000000000000002,3.6,11.600000000000001,1.0,-4.4,6.4,16
782,13153.0,0.0,0.8,2.0,1.1,3.4000000000000004,11.100000000000001,11.5,0.8,8.4,16
783,13170.0,-0.1,0.6000000000000001,1.4000000000000001,0.9,3.4000000000000004,10.600000000000001,21.500000000000004,4.0,14.0,16
784,13186.0,-0.30000000000000004,0.6000000000000001,0.7000000000000001,1.0,3.4000000000000004,9.9,25.0,6.699999999999999,22.5,16
785,13205.0,0.1,0.6000000000000001,0.4,1.9000000000000001,3.2,9.600000000000001,23.2,12.9,32.7,16
786,13220.0,0.8,0.8,0.6000000000000001,1.8,4.1000000000000005,10.200000000000001,20.900000000000002,26.300000000000004,34.1,16
787,13236.0,0.6000000000000001,1.5,1.8,1.9000000000000001,4.4,11.600000000000001,21.1,29.0,37.1,16
788,13255.0,1.1,1.2000000000000002,2.0,2.0,4.2,10.8,32.0,22.9,39.599999999999994,16
789,13270.0,0.9,0.9,1.2000000000000002,1.6,4.1000000000000005,10.3,42.2,11.000000000000002,33.2,16
790,13287.0,0.6000000000000001,0.7000000000000001,1.1,1.7000000000000002,3.9000000000000004,10.5,41.1,2.9,25.7,16
791,13304.0,0.8,0.7000000000000001,0.2,1.6,4.2,8.6,26.5,17.400000000000002,17.200000000000003,16
792,13322.0,1.1,0.7000000000000001,-0.6000000000000001,3.0,3.7,8.8,15.2,8.4,14.5,16
793,13336.0,2.0,0.1,-0.30000000000000004,2.8000000000000003,3.4000000000000004,9.200000000000001,-5.2,5.9,1.3,16
794,13353.0,1.3,-0.4,0.8,1.9000000000000001,2.4000000000000004,11.100000000000001,-24.900000000000002,-7.0,-16.0,16
795,13375.0,0.4,-1.3,2.5,0.8,1.3,12.9,-31.799999999999997,-12.200000000000001,-24.8,16
796,13387.0,-0.5,-2.0,3.6,0.1,1.0,13.200000000000001,-22.9,-8.3,-24.900000000000002,16
797,13415.0,-1.2000000000000002,-2.1,1.3,-0.30000000000000004,1.1,10.4,21.0,37.6,1.7,16
798,13420.0,-1.2000000000000002,-2.1,1.3,0.2,1.3,9.1,21.0,37.6,1.7,16
799,13436.0,-0.30000000000000004,-1.9000000000000001,-0.9,0.5,1.6,7.9,32.2,52.2,10.5,16
800,13453.0,0.0,-1.5,-2.5,0.4,2.1,6.4,32.6,50.3,7.0,16
801,13471.0,-0.1,-1.3,-3.0,0.30000000000000004,2.1,6.300000000000001,27.2,41.300000000000004,-1.9,16
802,13487.0,-0.2,-1.5,-2.8000000000000003,0.2,2.0,6.5,20.8,30.5,-8.8,16
803,13507.0,-0.1,-1.7000000000000002,-2.3000000000000003,0.4,1.9000000000000001,7.2,14.800000000000002,26.5,-10.9,16
804,13522.0,0.4,-1.6,-1.9000000000000001,0.7000000000000001,2.2,7.300000000000001,8.5,28.0,-11.5,16
805,13536.0,0.6000000000000001,-1.2000000000000002,-2.1,0.8,2.5,7.1000000000000005,0.5,29.800000000000004,-14.400000000000002,16
806,13553.0,0.4,-0.8,-1.5,0.1,2.9000000000000004,8.4,-10.700000000000001,10.5,-18.5,16
807,13570.0,-0.4,-0.1,0.1,-0.2,3.4000000000000004,9.8,-19.1,-9.3,-22.6,16
808,13590.0,-0.1,-0.2,0.7000000000000001,0.8,2.9000000000000004,10.100000000000001,-22.2,-22.5,-22.8,16
809,13605.0,0.7000000000000001,-0.4,0.6000000000000001,1.0,3.1,9.600000000000001,-24.0,-18.4,-21.200000000000003,16
810,13619.0,1.3,-0.4,0.4,2.1,2.6,9.9,-28.3,2.2,-20.0,16
811,13636.0,2.0,-0.6000000000000001,0.6000000000000001,2.1,2.6,9.9,-33.50000000000001,13.200000000000003,-28.900000000000002,16
812,13653.0,0.2,-0.2,2.0,-0.6000000000000001,2.8000000000000003,12.200000000000001,-32.400000000000006,9.3,-42.1,16
813,13670.0,-1.1,-0.5,2.4000000000000004,-1.4000000000000001,2.5,11.0,-12.600000000000001,-17.5,-42.5,16
814,13686.0,-1.8,-0.7000000000000001,0.8,-2.2,2.4000000000000004,9.3,13.700000000000001,-32.6,-31.7,16
815,13703.0,-2.5,-0.6000000000000001,-0.5,-2.4000000000000004,2.8000000000000003,8.6,30.3,-39.599999999999994,-10.4,16
816,13722.0,-3.5,0.30000000000000004,-1.9000000000000001,-3.7,4.1000000000000005,6.1000000000000005,39.400000000000006,-43.800000000000004,15.5,16
817,13736.0,-2.5,0.7000000000000001,-4.7,1.8,3.0,3.1,33.300000000000004,-29.500000000000004,41.800000000000004,16
818,13753.0,2.2,0.4,-5.6000000000000005,3.1,4.4,4.0,-2.0,42.400000000000006,38.2,16
819,13770.0,1.7000000000000002,2.3000000000000003,-1.1,0.6000000000000001,5.0,10.5,-42.3,67.7,13.5,16
820,13787.0,-0.5,0.8,2.5,-0.2,3.5,12.3,-45.099999999999994,1.1,7.500000000000001,16
821,13804.0,-0.30000000000000004,0.4,2.9000000000000004,0.0,3.6,12.200000000000001,-13.5,-46.199999999999996,6.2,16
822,13819.0,-0.6000000000000001,0.4,3.0,-0.4,3.4000000000000004,12.5,24.3,-65.0,1.9,16
823,13836.0,-1.5,-0.2,3.1,-1.1,3.0,11.600000000000001,60.7,-84.3,0.9000000000000001,16
824,13854.0,-2.0,-0.4,1.4000000000000001,-1.0,3.2,10.200000000000001,89.30000000000001,-125.30000000000001,3.9,16
825,13869.0,-1.5,-0.1,-1.8,0.4,4.0,5.9,91.30000000000001,-139.1,8.600000000000001,16
826,13886.0,-0.7000000000000001,0.5,-4.4,1.4000000000000001,4.6000000000000005,4.800000000000001,49.9,-105.5,11.2,16
827,13906.0,0.30000000000000004,0.7000000000000001,-2.7,3.0,4.6000000000000005,9.4,-11.700000000000001,-59.1,13.8,16
828,13925.0,1.3,0.8,1.7000000000000002,3.1,4.4,13.4,-43.50000000000001,-21.500000000000004,16.200000000000003,16
829,13938.0,1.0,0.6000000000000001,4.5,2.5,3.9000000000000004,14.200000000000001,-36.9,-10.200000000000001,9.5,16
830,13953.0,0.6000000000000001,0.4,5.4,2.2,4.5,14.3,-15.399999999999999,-7.200000000000001,6.0,16
831,13971.0,0.2,0.7000000000000001,4.800000000000001,2.1,4.3,13.3,6.600000000000001,-3.2,7.200000000000001,16
832,13987.0,1.1,0.30000000000000004,3.4000000000000004,3.5,3.7,11.9,19.0,4.9,13.5,16
833,14003.0,1.2000000000000002,-0.2,2.1,2.7,3.5,10.3,21.400000000000002,-0.5,10.8,16
834,14026.0,0.6000000000000001,-0.2,1.3,2.4000000000000004,3.4000000000000004,10.8,11.5,-5.7,1.3,16
835,14037.0,0.30000000000000004,-0.5,1.8,1.9000000000000001,3.1,10.9,3.6000000000000005,-5.0,-9.0,16
836,14054.0,-0.1,-1.0,1.6,2.5,2.1,10.100000000000001,12.100000000000001,13.399999999999999,-15.299999999999999,16
837,14071.0,0.5,-1.6,1.2000000000000002,2.3000000000000003,2.4000000000000004,10.200000000000001,27.800000000000004,46.50000000000001,-27.400000000000002,16
838,14087.0,-0.6000000000000001,-1.5,-0.30000000000000004,0.7000000000000001,2.4000000000000004,7.7,40.4,53.9,-35.599999999999994,16
839,14110.0,-0.4,-1.7000000000000002,-2.6,1.0,2.6,5.2,35.0,45.3,-30.4,16
840,14124.0,-0.2,-2.1,-3.5,1.6,1.8,5.2,9.899999999999999,15.299999999999999,-26.300000000000004,16
841,14136.0,0.2,-2.3000000000000003,-3.8000000000000003,1.5,1.8,4.9,-3.9,5.8,-28.1,16
842,14153.0,-0.1,-3.0,-4.1000000000000005,1.0,1.3,5.4,-17.5,3.9,-30.9,16
843,14170.0,-0.30000000000000004,-2.3000000000000003,-2.6,0.5,2.1,7.300000000000001,-29.1,7.0,-28.0,16
844,14189.0,-0.9,-1.8,-1.5,0.0,2.2,7.800000000000001,-29.300000000000004,9.8,-19.1,16
845,14203.0,-1.3,-1.7000000000000002,-0.8,0.0,2.0,8.4,-22.2,24.599999999999998,-7.6,16
846,14227.0,-1.0,-2.3000000000000003,0.30000000000000004,1.0,1.3,7.5,-17.400000000000002,20.1,1.9,16
847,14237.0,0.30000000000000004,-2.4000000000000004,-1.3,1.8,1.4000000000000001,8.0,-25.1,-2.1,2.2,16
848,14253.0,0.1,-1.7000000000000002,-0.4,0.9,2.2,8.4,-27.6,4.1,-1.9,16
849,14272.0,-0.2,-1.1,-0.6000000000000001,0.7000000000000001,3.0,9.0,-36.5,-11.4,-3.1,16
850,14287.0,-0.6000000000000001,-0.5,-0.1,0.5,3.0,9.1,-39.9,-12.4,-4.6,16
851,14304.0,-0.5,-0.30000000000000004,-0.1,1.2000000000000002,3.0,8.9,-37.6,-20.7,0.8,16
852,14320.0,0.5,-0.4,-0.2,2.1,2.3000000000000003,11.600000000000001,-32.9,-23.700000000000003,5.300000000000001,16
853,14342.0,0.8,-0.8,0.9,2.5,2.9000000000000004,8.5,-26.799999999999997,-56.2,-0.30000000000000004,16
854,14353.0,1.0,-0.1,-0.6000000000000001,2.5,3.2,9.0,-23.0,-41.50000000000001,-8.0,16
855,14370.0,0.4,0.2,-0.30000000000000004,1.6,3.3000000000000003,8.6,-15.5,-16.3,-7.6,16
856,14387.0,0.4,0.2,-0.9,2.5,3.3000000000000003,7.9,-2.6,18.4,8.899999999999999,16
857,14409.0,1.1,0.30000000000000004,-1.5,2.8000000000000003,3.7,7.4,6.699999999999999,35.1,17.300000000000004,16
858,14420.0,1.4000000000000001,0.6000000000000001,-1.8,2.7,3.8000000000000003,7.6000000000000005,10.299999999999999,42.60000000000001,15.8,16
859,14436.0,1.4000000000000001,0.7000000000000001,-1.4000000000000001,2.6,3.9000000000000004,8.0,11.8,44.9,10.9,16
860,14453.0,1.2000000000000002,0.7000000000000001,-0.7000000000000001,2.1,4.0,8.700000000000001,16.1,48.10000000000001,5.7,16
861,14469.0,0.4,0.9,-0.30000000000000004,0.7000000000000001,4.2,9.1,22.1,57.800000000000004,3.7000000000000006,16
862,14487.0,-0.4,0.9,-0.30000000000000004,1.1,4.800000000000001,9.1,27.0,77.7,9.600000000000001,16
863,14505.0,0.4,1.4000000000000001,-0.1,0.9,4.800000000000001,9.0,25.0,94.9,17.7,16
864,14521.0,0.30000000000000004,1.1,-0.30000000000000004,0.6000000000000001,4.6000000000000005,8.9,25.0,94.9,17.7,16
865,14537.0,0.6000000000000001,0.9,0.4,0.6000000000000001,3.9000000000000004,10.0,-1.0,111.50000000000001,20.5,16
866,14554.0,1.0,0.2,0.7000000000000001,0.7000000000000001,3.3000000000000003,9.9,-20.8,124.3,14.900000000000002,16
867,14569.0,1.6,-0.1,1.0,0.9,3.3000000000000003,10.8,-50.0,122.90000000000002,-2.5,16
868,14587.0,1.8,0.7000000000000001,2.6,0.9,3.8000000000000003,12.100000000000001,-77.00000000000001,84.5,-24.8,16
869,14604.0,1.2000000000000002,1.7000000000000002,4.3,-0.1,4.6000000000000005,13.600000000000001,-77.80000000000001,32.2,-42.5,16
870,14619.0,0.4,1.8,3.4000000000000004,-0.7000000000000001,4.4,12.200000000000001,-62.800000000000004,-8.3,-51.4,16
871,14636.0,-1.0,1.6,1.6,-2.7,3.9000000000000004,11.0,-54.1,-30.9,-52.00000000000001,16
872,14655.0,-1.9000000000000001,1.4000000000000001,1.9000000000000001,-3.1,3.5,12.5,-58.800000000000004,-13.5,-37.400000000000006,16
873,14670.0,-2.2,1.2000000000000002,3.0,-3.2,3.1,12.9,-54.4,0.30000000000000004,-14.600000000000001,16
874,14687.0,-2.5,0.8,3.7,-3.2,2.8000000000000003,13.4,-35.0,-32.8,10.5,16
875,14704.0,-2.2,0.7000000000000001,3.4000000000000004,-2.8000000000000003,2.8000000000000003,13.0,-9.700000000000001,-50.0,32.6,16
876,14719.0,-2.2,0.7000000000000001,3.4000000000000004,-2.6,2.4000000000000004,12.5,-9.700000000000001,-50.0,32.6,16
877,14736.0,-1.9000000000000001,0.1,2.6,-2.3000000000000003,1.8,11.9,10.8,-43.300000000000004,51.1,16
878,14755.0,-0.4,-1.4000000000000001,0.30000000000000004,-0.6000000000000001,0.9,9.9,25.900000000000002,-33.6,67.8,16
879,14770.0,0.0,-1.6,-0.4,-0.2,0.6000000000000001,9.3,22.1,-30.799999999999997,60.5,16
880,14786.0,-0.4,-1.8,-0.5,-0.7000000000000001,0.6000000000000001,9.200000000000001,17.799999999999997,-27.0,51.1,16
881,14803.0,-0.9,-1.9000000000000001,-0.5,-1.2000000000000002,0.2,9.0,17.7,-29.700000000000006,46.6,16
882,14820.0,-1.3,-2.3000000000000003,-0.7000000000000001,-1.1,0.1,8.8,21.900000000000002,-40.2,46.800000000000004,16
883,14836.0,-1.2000000000000002,-2.4000000000000004,-1.2000000000000002,-0.7000000000000001,0.1,8.1,28.900000000000002,-52.80000000000001,47.5,16
884,14853.0,-0.9,-2.4000000000000004,-1.8,-0.30000000000000004,0.30000000000000004,7.7,34.1,-61.0,44.8,16
885,14869.0,-0.7000000000000001,-2.4000000000000004,-1.9000000000000001,0.2,0.30000000000000004,7.6000000000000005,34.900000000000006,-66.60000000000001,38.1,16
886,14887.0,0.0,-2.7,-1.8,1.5,0.2,7.800000000000001,31.799999999999997,-74.2,26.799999999999997,16
887,14906.0,0.1,-1.6,-1.6,1.7000000000000002,1.4000000000000001,7.9,23.900000000000006,-76.1,10.700000000000001,16
888,14920.0,0.6000000000000001,-1.4000000000000001,-1.1,1.7000000000000002,1.4000000000000001,7.9,9.2,-68.9,4.4,16
889,14938.0,1.1,-1.4000000000000001,0.0,2.9000000000000004,1.4000000000000001,9.700000000000001,1.1,-60.8,-3.0,16
890,14953.0,1.3,-1.3,0.6000000000000001,2.7,1.9000000000000001,9.8,7.6,-45.2,-18.5,16
891,14969.0,0.5,-0.5,0.2,2.0,2.6,9.5,24.0,-14.900000000000002,-30.9,16
892,14986.0,-0.4,0.30000000000000004,-0.4,1.0,3.6,8.6,40.6,20.8,-28.400000000000002,16
893,15003.0,-0.30000000000000004,0.5,-1.3,1.4000000000000001,3.7,7.4,53.2,50.2,-19.300000000000004,16
894,15023.0,-0.1,0.30000000000000004,-2.3000000000000003,0.8,3.8000000000000003,6.6000000000000005,55.900000000000006,66.1,-15.2,16
895,15040.0,-0.4,0.5,-2.6,0.6000000000000001,4.1000000000000005,6.6000000000000005,47.3,69.9,-12.600000000000001,16
896,15053.0,-0.5,0.8,-2.6,0.30000000000000004,4.5,6.6000000000000005,34.50000000000001,59.40000000000001,-7.9,16
897,15070.0,-0.30000000000000004,1.0,-2.4000000000000004,0.8,4.6000000000000005,7.1000000000000005,20.1,43.4,-0.9000000000000001,16
898,15086.0,0.30000000000000004,0.9,-1.7000000000000002,1.2000000000000002,4.6000000000000005,7.7,8.700000000000001,27.5,3.7000000000000006,16
899,15103.0,0.8,0.8,-0.8,1.5,4.4,8.5,4.4,15.8,3.8,16
900,15124.0,0.8,0.7000000000000001,-0.6000000000000001,1.2000000000000002,4.4,8.4,7.699999999999999,10.200000000000001,0.6000000000000001,16
901,15138.0,0.5,0.7000000000000001,-0.7000000000000001,1.1,4.7,8.4,12.0,7.9,-2.2,16
902,15153.0,0.5,0.9,-0.6000000000000001,1.2000000000000002,4.9,8.6,14.600000000000001,6.2,-2.7,16
903,15169.0,0.6000000000000001,1.3,-0.5,1.2000000000000002,5.2,8.6,15.6,7.8,-3.4,16
904,15186.0,0.5,1.3,-0.2,1.1,5.2,8.9,14.400000000000002,10.4,-4.300000000000001,16
905,15203.0,0.7000000000000001,1.6,0.1,1.3,5.7,9.1,13.3,14.900000000000002,-5.2,16
906,15220.0,0.6000000000000001,1.6,-0.1,0.7000000000000001,5.4,9.200000000000001,8.600000000000001,14.5,-9.0,16
907,15237.0,-0.1,1.5,0.7000000000000001,0.0,5.4,11.0,-1.6,11.1,-11.000000000000002,16
908,15253.0,-0.30000000000000004,1.3,2.2,0.1,5.0,11.8,-4.5,12.100000000000001,-9.3,16
909,15273.0,-0.30000000000000004,0.9,3.3000000000000003,-0.1,4.9,12.5,2.4000000000000004,10.700000000000001,-8.899999999999999,16
910,15287.0,-0.5,0.8,3.0,-0.1,4.9,11.3,13.3,2.3,-11.000000000000002,16
911,15312.0,-0.4,0.9,2.0,0.1,5.2,10.200000000000001,18.4,-9.0,-12.600000000000001,16
912,15320.0,-0.2,1.1,1.1,0.2,5.2,9.700000000000001,16.700000000000003,-13.8,-14.700000000000001,16
913,15336.0,-0.2,1.2000000000000002,0.4,0.2,5.4,9.4,9.600000000000001,-12.7,-16.0,16
914,15353.0,-0.2,1.2000000000000002,0.5,0.1,5.300000000000001,9.600000000000001,-1.1,-3.9,-15.399999999999999,16
915,15372.0,-0.30000000000000004,0.7000000000000001,0.8,-0.2,4.4,9.9,-12.200000000000001,7.300000000000001,-13.100000000000001,16
916,15387.0,-0.8,0.0,1.3,-1.7000000000000002,3.8000000000000003,11.3,-24.599999999999998,16.200000000000003,-8.5,16
917,15407.0,-2.3000000000000003,-0.30000000000000004,2.8000000000000003,-0.4,3.2,13.100000000000001,-30.5,23.900000000000006,1.8000000000000003,16
918,15421.0,-0.5,-0.8,3.7,-0.30000000000000004,2.7,12.200000000000001,-16.6,37.0,15.899999999999999,16
919,15439.0,-0.30000000000000004,-2.1,1.4000000000000001,-0.2,1.2000000000000002,9.3,4.800000000000001,50.8,19.9,16
920,15453.0,-0.6000000000000001,-2.7,-0.7000000000000001,-1.1,1.2000000000000002,7.9,4.6,61.9,9.600000000000001,16
921,15470.0,-0.1,-2.3000000000000003,-2.9000000000000004,0.5,1.9000000000000001,5.6000000000000005,-3.9,72.60000000000001,7.400000000000001,16
922,15487.0,1.7000000000000002,-1.7000000000000002,-4.4,1.3,1.9000000000000001,4.3,-18.4,73.7,3.9,16
923,15504.0,1.8,-1.9000000000000001,-4.9,1.0,1.8,4.3,-37.7,70.9,-9.8,16
924,15524.0,1.1,-1.7000000000000002,-4.4,-0.30000000000000004,1.8,5.4,-54.6,65.5,-21.500000000000004,16
925,15540.0,0.7000000000000001,-1.6,-3.7,-0.6000000000000001,1.6,5.9,-65.2,58.900000000000006,-23.700000000000003,16
926,15559.0,0.7000000000000001,-1.6,-2.0,-0.4,2.2,9.200000000000001,-70.4,53.300000000000004,-23.5,16
927,15573.0,0.6000000000000001,-0.8,-0.5,-1.1,2.3000000000000003,8.200000000000001,-62.6,20.2,-20.900000000000002,16
928,15587.0,0.2,-1.0,-0.5,-1.9000000000000001,1.8,8.6,-45.5,-0.2,-10.9,16
929,15610.0,-0.8,-1.2000000000000002,-0.7000000000000001,-1.9000000000000001,1.2000000000000002,8.8,-30.799999999999997,18.700000000000003,1.3,16
930,15620.0,0.0,-1.6,-0.7000000000000001,-1.1,1.0,8.5,-18.4,37.6,12.100000000000001,16
931,15638.0,1.0,-1.6,-1.0,-0.5,1.2000000000000002,8.200000000000001,-8.600000000000001,43.800000000000004,13.100000000000001,16
932,15653.0,1.1,-1.5,-1.4000000000000001,-0.6000000000000001,0.8,7.800000000000001,-7.1000000000000005,38.300000000000004,6.4,16
933,15671.0,1.0,-1.7000000000000002,-0.9,-1.4000000000000001,1.9000000000000001,10.8,-17.5,29.700000000000006,-1.9,16
934,15687.0,0.30000000000000004,-0.7000000000000001,1.8,-2.0,2.0,12.0,-26.1,33.0,-6.9,16
935,15709.0,-0.2,-0.9,3.4000000000000004,-2.0,1.5,13.200000000000001,-25.900000000000002,22.700000000000003,-1.6,16
936,15722.0,-0.2,-0.9,3.4000000000000004,-2.0,1.5,13.200000000000001,-25.900000000000002,22.700000000000003,-1.6,16
937,15737.0,-0.2,-0.9,3.4000000000000004,-2.0,1.5,13.200000000000001,-25.900000000000002,22.700000000000003,-1.6,16
938,15753.0,-0.2,-0.9,3.4000000000000004,-2.0,1.5,13.200000000000001,-25.900000000000002,22.700000000000003,-1.6,16
939,15770.0,1.4000000000000001,-0.30000000000000004,1.8,0.4,2.7,10.3,20.0,-65.89999999999999,-29.500000000000004,16
940,15786.0,1.8,0.2,0.5,0.30000000000000004,2.8000000000000003,9.4,35.699999999999996,-78.2,-47.80000000000001,16
941,15803.0,0.5,0.30000000000000004,-2.0,-1.3,3.2,6.800000000000001,48.10000000000001,-68.80000000000001,-61.39999999999999,16
942,15829.0,-0.1,0.9,-1.2000000000000002,-1.4000000000000001,4.4,9.1,53.9,-20.1,-56.800000000000004,16
943,15841.0,-0.1,1.4000000000000001,-0.8,-1.7000000000000002,4.0,7.5,66.60000000000001,-10.200000000000001,-40.5,16
944,15853.0,-0.4,0.9,-1.7000000000000002,-2.3000000000000003,4.2,7.9,84.6,12.5,-18.0,16
945,15870.0,-1.6,0.8,-1.6,-3.9000000000000004,4.2,7.1000000000000005,105.9,38.2,3.4,16
946,15886.0,-2.4000000000000004,0.5,-1.8,-4.1000000000000005,4.3,7.2,119.30000000000003,91.4,22.000000000000004,16
947,15916.0,-1.8,0.5,1.8,-4.2,4.9,10.5,103.3,190.40000000000003,66.2,16
948,15921.0,-1.8,0.5,1.8,-4.7,4.9,11.5,103.3,190.40000000000003,66.2,16
949,15936.0,-2.2,-0.1,3.4000000000000004,-5.2,4.5,11.700000000000001,99.00000000000001,182.8,84.5,16
950,15954.0,-1.3,-0.9,2.8000000000000003,-3.4000000000000004,4.2,9.9,92.0,141.6,95.5,16
951,15970.0,0.6000000000000001,-0.6000000000000001,0.9,-2.2,5.300000000000001,7.9,70.3,96.4,79.1,16
952,15990.0,0.4,0.4,-0.2,-3.5,6.300000000000001,6.6000000000000005,35.9,49.6,43.800000000000004,16
953,16004.0,-0.4,0.9,-1.2000000000000002,-3.3000000000000003,6.5,6.1000000000000005,-0.7,3.9,25.6,16
954,16020.0,-0.1,1.3,-1.8,-3.2,6.300000000000001,6.1000000000000005,-37.0,-21.500000000000004,24.1,16
955,16037.0,-0.6000000000000001,0.4,-2.1,-2.5,5.5,5.7,-69.4,-33.1,28.0,16
956,16053.0,0.0,0.7000000000000001,-2.1,-2.8000000000000003,6.1000000000000005,6.6000000000000005,-102.4,-68.0,31.6,16
957,16078.0,-0.9,-0.6000000000000001,1.5,-3.5,3.6,10.0,-112.0,15.700000000000001,35.2,16
958,16086.0,-0.9,-0.6000000000000001,1.5,-3.7,2.5,9.600000000000001,-112.0,15.700000000000001,35.2,16
959,16106.0,-1.2000000000000002,-2.1,0.7000000000000001,-3.9000000000000004,1.8,8.9,-88.4,26.6,38.800000000000004,16
960,16119.0,-1.4000000000000001,-2.6,-0.8,-3.8000000000000003,1.4000000000000001,6.9,-70.9,9.4,39.599999999999994,16
961,16138.0,-1.2000000000000002,-2.8000000000000003,-2.6,-3.1,0.8,4.6000000000000005,-68.4,-20.0,39.2,16
962,16153.0,-0.6000000000000001,-3.2,-4.4,-2.7,0.4,4.1000000000000005,-78.0,-30.799999999999997,35.1,16
963,16173.0,-0.4,-3.4000000000000004,-4.5,-2.9000000000000004,-0.1,5.0,-89.2,-19.300000000000004,30.9,16
964,16187.0,-0.9,-3.1,-3.3000000000000003,-3.0,0.6000000000000001,6.4,-92.90000000000002,1.7,30.699999999999996,16
965,16203.0,-0.9,-2.5,-2.4000000000000004,-3.3000000000000003,0.7000000000000001,6.800000000000001,-74.7,37.1,30.699999999999996,16
966,16220.0,-1.5,-2.6,-2.5,-4.4,0.2,6.1000000000000005,-48.2,83.2,31.2,16
967,16238.0,-1.7000000000000002,-2.9000000000000004,-3.3000000000000003,-4.3,-0.2,5.300000000000001,-28.900000000000002,127.6,36.0,16
968,16253.0,-0.9,-3.3000000000000003,-3.5,-3.9000000000000004,-0.6000000000000001,5.1000000000000005,-21.400000000000002,152.0,37.9,16
969,16269.0,-0.9,-3.3000000000000003,-3.5,-3.9000000000000004,-0.6000000000000001,5.1000000000000005,-21.400000000000002,152.0,37.9,16
970,16291.0,-0.9,-3.3000000000000003,-3.5,-3.3000000000000003,-0.9,4.9,-21.400000000000002,152.0,37.9,16
971,16303.0,1.2000000000000002,-2.7,-3.1,-2.2,-0.30000000000000004,5.6000000000000005,-47.0,163.29999999999998,15.299999999999999,16
972,16325.0,-1.1,-1.3,-4.2,-7.1000000000000005,2.0,3.9000000000000004,-73.2,130.8,0.6000000000000001,16
973,16337.0,-1.4000000000000001,-0.7000000000000001,-2.6,-5.7,1.1,6.4,-109.2,109.7,5.1000000000000005,16
974,16353.0,-0.8,-0.5,-1.2000000000000002,-6.1000000000000005,2.1,7.9,-132.4,85.20000000000002,9.0,16
975,16369.0,-1.0,0.4,0.4,-6.5,2.0,9.0,-150.8,77.4,10.600000000000001,16
976,16386.0,-1.6,0.5,2.4000000000000004,-7.1000000000000005,1.7000000000000002,11.8,-162.3,68.9,14.300000000000002,16
977,16406.0,-1.3,0.6000000000000001,5.2,-6.4,1.6,14.9,-157.1,57.1,22.4,16
978,16420.0,-0.8,1.0,7.300000000000001,-6.5,1.8,15.600000000000001,-126.0,52.1,28.400000000000002,16
979,16437.0,-0.7000000000000001,1.8,7.300000000000001,-6.2,2.9000000000000004,14.5,-75.60000000000001,60.6,35.2,16
980,16453.0,0.0,2.3000000000000003,5.7,-6.0,2.9000000000000004,12.5,-28.3,78.4,43.800000000000004,16
981,16475.0,0.2,2.2,4.800000000000001,-5.800000000000001,2.9000000000000004,12.100000000000001,-3.0,93.60000000000001,45.8,16
982,16487.0,0.6000000000000001,2.1,4.6000000000000005,-5.6000000000000005,3.0,11.9,6.9,84.5,44.8,16
983,16508.0,0.9,2.3000000000000003,4.4,-5.6000000000000005,3.7,11.8,6.8,51.70000000000001,40.5,16
984,16520.0,0.6000000000000001,2.8000000000000003,4.6000000000000005,-6.0,4.0,12.0,9.700000000000001,27.3,35.9,16
985,16538.0,0.5,2.6,4.1000000000000005,-6.1000000000000005,3.7,11.0,19.700000000000003,27.700000000000003,34.900000000000006,16
986,16553.0,0.5,2.5,3.6,-5.800000000000001,4.1000000000000005,10.600000000000001,21.0,25.7,37.50000000000001,16
987,16569.0,1.2000000000000002,2.8000000000000003,3.2,-5.300000000000001,4.2,10.3,21.6,23.2,41.50000000000001,16
988,16587.0,1.8,2.5,2.5,-4.7,4.0,9.4,21.1,23.3,41.50000000000001,16
989,16603.0,2.2,2.3000000000000003,1.8,-4.4,4.1000000000000005,8.6,17.7,22.5,37.1,16
990,16620.0,2.3000000000000003,2.3000000000000003,1.3,-4.2,4.3,8.0,11.900000000000002,19.1,30.3,16
991,16637.0,2.2,2.3000000000000003,0.8,-4.9,3.9000000000000004,7.7,5.0,12.299999999999999,21.7,16
992,16653.0,0.5,1.8,1.5,-6.800000000000001,3.7,9.200000000000001,-8.700000000000001,7.300000000000001,13.399999999999999,16
993,16669.0,-0.5,2.0,2.9000000000000004,-7.7,4.0,11.3,-21.6,-10.4,13.100000000000001,16
994,16687.0,-1.4000000000000001,2.1,4.5,-8.4,3.9000000000000004,12.100000000000001,-24.0,-21.900000000000002,15.700000000000001,16
995,16709.0,-2.5,1.0,6.0,-9.0,2.9000000000000004,13.4,-2.3,-49.9,29.500000000000004,16
996,16720.0,-2.5,1.0,6.0,-9.0,2.9000000000000004,13.4,-2.3,-49.9,29.500000000000004,16
997,16736.0,-2.3000000000000003,-0.2,5.6000000000000005,-8.3,1.6,13.0,16.5,-69.80000000000001,35.1,16
998,16753.0,-1.1,-0.9,4.2,-6.2,0.8,10.5,37.6,-85.5,35.4,16
999,16771.0,0.30000000000000004,-2.0,1.1,-5.6000000000000005,-0.1,8.700000000000001,53.300000000000004,-98.3,25.8,16
1000,16787.0,0.0,-2.7,0.6000000000000001,-5.5,-0.30000000000000004,8.5,58.7,-101.9,12.8,16
1001,16806.0,0.2,-3.3000000000000003,-0.5,-5.0,-0.9,6.9,67.2,-104.10000000000001,1.6,16
1002,16820.0,-0.30000000000000004,-3.6,-1.6,-5.7,-0.9,6.6000000000000005,68.80000000000001,-106.9,-11.8,16
1003,16836.0,-0.9,-3.7,-1.7000000000000002,-5.800000000000001,-0.8,6.6000000000000005,65.5,-101.6,-19.5,16
1004,16853.0,-0.9,-3.5,-1.9000000000000001,-5.300000000000001,-0.5,6.300000000000001,62.7,-98.3,-22.4,16
1005,16871.0,-0.30000000000000004,-3.3000000000000003,-2.1,-4.5,-0.2,6.2,59.1,-89.9,-23.6,16
1006,16887.0,-0.2,-3.3000000000000003,-2.2,-4.6000000000000005,-0.2,6.0,52.2,-88.20000000000002,-25.6,16
1007,16909.0,-0.8,-3.4000000000000004,-2.8000000000000003,-5.1000000000000005,-0.7000000000000001,4.4,36.7,-109.30000000000001,-22.6,16
1008,16919.0,-1.2000000000000002,-3.7,-4.2,-3.3000000000000003,0.5,4.800000000000001,10.0,-125.2,-13.000000000000002,16
1009,16936.0,0.8,-1.9000000000000001,-3.3000000000000003,-2.9000000000000004,1.4000000000000001,5.9,-9.8,-101.4,-17.1,16
1010,16953.0,0.1,-1.6,-2.8000000000000003,-3.4000000000000004,1.4000000000000001,6.300000000000001,-21.0,-103.60000000000001,-26.200000000000003,16
1011,16972.0,-0.30000000000000004,-1.4000000000000001,-2.6,-3.0,1.6,6.2,-26.000000000000004,-118.60000000000001,-27.0,16
1012,16987.0,-0.1,-1.2000000000000002,-3.0,-2.6,1.7000000000000002,6.6000000000000005,-29.200000000000003,-131.29999999999998,-20.3,16
1013,17006.0,-0.2,-1.0,-2.2,-2.0,1.8,8.200000000000001,-31.400000000000002,-128.3,-10.1,16
1014,17020.0,0.0,-0.8,-0.9,-1.5,2.0,9.200000000000001,-25.8,-120.2,3.7000000000000006,16
1015,17036.0,0.30000000000000004,-0.4,0.5,-1.4000000000000001,2.5,9.9,-8.899999999999999,-120.10000000000001,12.8,16
1016,17053.0,-0.4,-0.1,0.4,-1.9000000000000001,2.7,9.700000000000001,16.700000000000003,-109.8,17.400000000000002,16
1017,17072.0,-1.4000000000000001,0.2,0.0,-2.6,3.1,9.200000000000001,41.6,-88.4,24.599999999999998,16
1018,17086.0,-1.3,0.1,-0.5,-1.4000000000000001,2.7,8.700000000000001,59.40000000000001,-67.2,36.6,16
1019,17103.0,-0.2,-0.30000000000000004,-0.7000000000000001,-0.4,3.0,8.6,68.5,-73.8,45.400000000000006,16
1020,17125.0,1.0,0.1,-2.6,-0.30000000000000004,3.3000000000000003,6.0,68.9,-54.199999999999996,35.2,16
1021,17137.0,0.0,-0.2,-3.2,-0.30000000000000004,3.7,6.6000000000000005,44.10000000000001,-23.5,12.8,16
1022,17153.0,-0.30000000000000004,0.5,-2.1,-1.1,4.5,8.1,16.8,-41.0,2.0,16
1023,17169.0,-1.1,1.0,-0.8,-1.4000000000000001,4.6000000000000005,8.700000000000001,-2.0,-49.50000000000001,-2.8,16
1024,17186.0,-1.4000000000000001,1.2000000000000002,-0.1,-1.6,4.800000000000001,9.1,-9.100000000000001,-51.0,-0.6000000000000001,16
1025,17203.0,-1.9000000000000001,1.5,0.1,-1.9000000000000001,5.1000000000000005,9.200000000000001,-10.0,-44.7,5.1000000000000005,16
1026,17220.0,-2.1,1.6,0.1,-1.9000000000000001,5.1000000000000005,9.4,-9.700000000000001,-34.900000000000006,14.600000000000001,16
1027,17241.0,-1.8,1.7000000000000002,0.6000000000000001,-1.0,5.1000000000000005,9.9,-10.1,-28.1,26.000000000000004,16
1028,17253.0,-1.1,1.5,0.9,-0.6000000000000001,5.0,10.4,-7.400000000000001,-23.700000000000003,33.800000000000004,16
1029,17270.0,-1.2000000000000002,1.7000000000000002,1.3,-0.7000000000000001,5.2,10.600000000000001,-1.0,-16.900000000000002,37.6,16
1030,17292.0,-1.6,1.7000000000000002,0.8,-1.1,5.300000000000001,10.3,19.0,13.000000000000002,38.1,16
1031,17303.0,-1.6,1.7000000000000002,0.8,-1.1,5.1000000000000005,9.8,19.0,13.000000000000002,38.1,16
1032,17319.0,-1.6,1.5,0.7000000000000001,-1.2000000000000002,5.0,10.0,20.0,34.0,41.4,16
1033,17337.0,-1.9000000000000001,1.4000000000000001,1.2000000000000002,-1.7000000000000002,5.2,10.5,16.4,52.60000000000001,44.6,16
1034,17358.0,-2.0,1.1,1.1,-1.3,4.5,10.4,8.600000000000001,57.20000000000001,49.300000000000004,16
1035,17370.0,-1.8,0.8,1.5,-1.7000000000000002,4.4,10.8,-4.5,52.5,47.900000000000006,16
1036,17396.0,-2.2,0.30000000000000004,1.2000000000000002,-2.1,3.7,10.600000000000001,-13.6,43.2,52.00000000000001,16
1037,17403.0,-2.2,0.2,1.4000000000000001,-2.3000000000000003,3.4000000000000004,11.0,-25.6,35.599999999999994,63.0,16
1038,17420.0,-2.4000000000000004,-0.30000000000000004,2.2,-2.4000000000000004,3.0,11.600000000000001,-30.4,15.299999999999999,72.9,16
1039,17436.0,-1.8,-0.8,1.2000000000000002,-1.6,2.3000000000000003,10.4,-23.099999999999998,-5.9,77.4,16
1040,17453.0,-1.7000000000000002,-1.3,0.7000000000000001,-0.4,1.9000000000000001,8.200000000000001,-18.5,-23.900000000000006,74.4,16
1041,17471.0,-0.8,-1.4000000000000001,-1.6,-0.30000000000000004,1.9000000000000001,7.5,-16.1,-35.2,65.3,16
1042,17487.0,-0.8,-1.1,-2.1,-0.1,2.2,7.1000000000000005,-20.8,-39.8,57.400000000000006,16
1043,17503.0,-0.6000000000000001,-0.7000000000000001,-2.7,0.30000000000000004,2.5,6.6000000000000005,-21.900000000000002,-34.7,53.50000000000001,16
1044,17520.0,-0.8,-0.30000000000000004,-3.1,-0.1,3.0,6.1000000000000005,-20.0,-15.700000000000001,49.9,16
1045,17536.0,-1.0,0.1,-3.2,-0.1,3.1,6.1000000000000005,-18.3,11.3,52.400000000000006,16
1046,17553.0,-1.2000000000000002,0.30000000000000004,-3.2,-0.6000000000000001,3.3000000000000003,6.1000000000000005,-17.799999999999997,36.7,56.9,16
1047,17573.0,-1.6,0.7000000000000001,-3.2,-2.4000000000000004,3.6,7.800000000000001,-19.1,57.20000000000001,63.70000000000001,16
1048,17586.0,-3.4000000000000004,0.9,-1.2000000000000002,-3.1,3.7,8.4,-25.200000000000003,32.1,72.4,16
1049,17605.0,-2.6,1.2000000000000002,-2.5,-1.1,3.6,6.5,-40.1,-24.599999999999998,80.30000000000001,16
1050,17622.0,-1.6,0.6000000000000001,-1.3,0.7000000000000001,2.1,8.8,-59.40000000000001,2.4000000000000004,96.30000000000001,16
1051,17636.0,1.3,-0.7000000000000001,-1.5,3.0,1.2000000000000002,7.5,-63.500000000000014,14.600000000000001,104.00000000000001,16
1052,17653.0,1.9000000000000001,-1.0,-0.7000000000000001,2.4000000000000004,1.5,10.100000000000001,-61.599999999999994,40.1,85.80000000000001,16
1053,17670.0,0.6000000000000001,0.6000000000000001,1.0,0.30000000000000004,2.6,11.4,-43.50000000000001,72.4,73.5,16
1054,17686.0,0.7000000000000001,-0.1,1.0,1.6,1.4000000000000001,10.200000000000001,-7.500000000000001,73.6,80.9,16
1055,17703.0,4.1000000000000005,-1.8,-2.1,5.4,-0.30000000000000004,7.0,-6.4,34.400000000000006,62.300000000000004,16
1056,17722.0,3.2,-1.3,-1.2000000000000002,1.7000000000000002,1.8,9.8,-42.60000000000001,-26.1,3.1,16
1057,17736.0,0.2,1.4000000000000001,1.5,0.2,4.1000000000000005,12.600000000000001,-37.400000000000006,-32.7,-12.100000000000001,16
1058,17753.0,-0.2,2.5,2.6,0.8,4.0,11.8,-19.799999999999997,-27.700000000000003,-3.9,16
1059,17770.0,0.6000000000000001,2.1,1.3,1.7000000000000002,3.3000000000000003,10.4,-1.3,-17.7,4.7,16
1060,17789.0,0.8,1.7000000000000002,0.4,1.1,3.5,9.8,3.3000000000000007,4.5,3.8,16
1061,17803.0,0.4,2.0,0.1,1.1,3.6,9.600000000000001,-5.8,18.3,3.7000000000000006,16
1062,17822.0,0.6000000000000001,1.9000000000000001,0.2,0.9,3.2,10.600000000000001,-19.6,27.5,5.2,16
1063,17838.0,0.1,1.5,2.5,0.7000000000000001,2.4000000000000004,13.5,-30.599999999999998,37.1,4.5,16
1064,17854.0,0.6000000000000001,0.5,3.9000000000000004,1.3,1.5,13.8,-23.900000000000006,33.6,5.2,16
1065,17870.0,1.3,-0.1,3.8000000000000003,0.6000000000000001,2.1,13.3,-11.2,27.800000000000004,-1.0,16
1066,17887.0,-0.5,1.4000000000000001,2.9000000000000004,0.2,2.2,11.8,-1.9,26.9,-4.9,16
1067,17904.0,0.0,0.5,2.1,0.2,1.6,12.0,-0.4,34.1,-4.4,16
1068,17924.0,-0.4,0.1,3.1,-0.8,1.6,13.4,-2.9,42.3,-4.7,16
1069,17940.0,-1.2000000000000002,0.5,3.8000000000000003,-1.1,1.9000000000000001,13.5,1.5,40.6,-0.5,16
1070,17953.0,-0.4,0.2,3.4000000000000004,-0.4,1.4000000000000001,13.0,12.5,40.2,4.300000000000001,16
1071,17969.0,1.6,-2.2,2.2,2.1,-0.9,12.3,20.1,28.900000000000002,0.2,16
1072,17987.0,-1.2000000000000002,0.8,1.5,-1.3,3.1,9.3,25.200000000000003,4.7,-8.4,16
1073,18003.0,-1.3,1.1,-1.6,-1.2000000000000002,1.7000000000000002,8.5,24.7,-48.0,-13.399999999999999,16
1074,18021.0,-1.2000000000000002,-0.2,-0.8,-1.1,1.1,9.5,13.399999999999999,-65.89999999999999,-14.400000000000002,16
1075,18037.0,-0.6000000000000001,-0.2,1.1,0.30000000000000004,1.9000000000000001,12.100000000000001,0.30000000000000004,-64.60000000000001,-14.800000000000002,16
1076,18054.0,-0.8,0.2,3.3000000000000003,-1.3,1.1,13.8,10.600000000000001,-41.199999999999996,-17.7,16
1077,18070.0,-1.2000000000000002,-1.0,3.7,-0.4,0.5,13.100000000000001,32.9,-29.1,-13.6,16
1078,18086.0,0.7000000000000001,-0.8,2.1,0.0,-0.7000000000000001,9.5,58.60000000000001,-27.6,-12.299999999999999,16
1079,18103.0,1.5,-2.5,-1.9000000000000001,2.6,0.9,6.5,70.0,-30.1,-12.8,16
1080,18132.0,1.4000000000000001,-1.5,-3.3000000000000003,0.30000000000000004,2.1,6.1000000000000005,55.400000000000006,-7.1000000000000005,-20.400000000000002,16
1081,18136.0,-0.30000000000000004,-0.1,-3.4000000000000004,0.30000000000000004,2.1,6.1000000000000005,55.400000000000006,-7.1000000000000005,-20.400000000000002,16
1082,18153.0,-0.2,0.5,-2.8000000000000003,0.9,1.9000000000000001,7.5,17.6,-31.7,-11.2,16
1083,18169.0,0.30000000000000004,-0.8,-1.2000000000000002,1.1,1.4000000000000001,8.9,6.4,-21.7,-7.1000000000000005,16
1084,18187.0,0.7000000000000001,-1.0,0.30000000000000004,1.3,1.7000000000000002,10.5,8.3,10.700000000000001,-6.600000000000001,16
1085,18207.0,0.8,-0.1,1.0,0.7000000000000001,1.9000000000000001,9.600000000000001,23.0,27.9,-5.300000000000001,16
1086,18219.0,0.0,-1.4000000000000001,-0.2,0.30000000000000004,1.0,9.3,22.4,72.80000000000001,-4.7,16
1087,18243.0,0.2,-1.5,-1.2000000000000002,1.0,1.5,6.0,42.900000000000006,63.70000000000001,-2.3,16
1088,18253.0,0.8,-1.4000000000000001,-3.5,1.0,1.8,4.2,42.800000000000004,15.399999999999999,-2.3,16
1089,18269.0,0.0,-0.5,-5.9,-0.1,2.5,3.3000000000000003,20.1,-18.8,-7.8,16
1090,18287.0,-0.5,0.0,-5.5,0.30000000000000004,2.8000000000000003,4.7,-8.2,-22.3,-3.7000000000000006,16
1091,18303.0,0.8,0.1,-2.8000000000000003,1.2000000000000002,3.2,8.6,-23.5,-26.000000000000004,-1.4,16
1092,18320.0,1.3,0.7000000000000001,0.30000000000000004,2.4000000000000004,3.6,9.3,-4.6,3.3000000000000007,-5.0,16
1093,18337.0,2.0,0.9,0.1,2.2,3.9000000000000004,9.8,27.700000000000003,-2.4000000000000004,-14.5,16
1094,18353.0,1.1,1.1,1.4000000000000001,1.4000000000000001,4.1000000000000005,11.200000000000001,54.300000000000004,-28.500000000000004,-31.799999999999997,16
1095,18371.0,0.5,1.0,2.2,0.7000000000000001,4.6000000000000005,11.700000000000001,76.1,-77.20000000000002,-48.800000000000004,16
1096,18386.0,-0.30000000000000004,1.3,2.1,0.5,5.0,10.9,96.20000000000002,-125.10000000000001,-58.800000000000004,16
1097,18404.0,-1.1,1.3,-0.1,-0.1,5.2,8.0,103.8,-140.4,-62.1,16
1098,18421.0,-1.6,1.3,-1.2000000000000002,0.1,5.4,8.4,82.10000000000001,-136.5,-57.20000000000001,16
1099,18436.0,-1.3,1.2000000000000002,0.4,0.4,5.4,9.600000000000001,55.8,-105.60000000000002,-43.900000000000006,16
1100,18453.0,-1.1,1.0,1.7000000000000002,0.6000000000000001,5.5,10.600000000000001,46.9,-63.2,-28.700000000000003,16
1101,18470.0,-1.1,1.2000000000000002,1.8,1.3,5.6000000000000005,10.200000000000001,49.199999999999996,-30.699999999999996,-12.200000000000001,16
1102,18487.0,-0.30000000000000004,0.9,1.4000000000000001,1.7000000000000002,5.4,9.9,50.900000000000006,-18.5,-3.5,16
1103,18504.0,-0.4,1.0,0.9,1.1,6.0,9.200000000000001,49.699999999999996,-9.3,-7.8,16
1104,18534.0,-1.4000000000000001,0.7000000000000001,0.2,0.1,5.800000000000001,8.700000000000001,30.599999999999998,36.9,-13.5,16
1105,18537.0,-1.4000000000000001,0.7000000000000001,0.2,-0.4,5.800000000000001,9.3,30.599999999999998,36.9,-13.5,16
1106,18554.0,-2.1,0.8,1.1,-0.8,5.7,9.700000000000001,19.0,44.2,-4.5,16
1107,18570.0,-2.4000000000000004,0.2,1.3,-0.8,4.800000000000001,9.5,18.200000000000003,43.50000000000001,11.900000000000002,16
1108,18588.0,-1.7000000000000002,-0.8,1.0,0.30000000000000004,3.9000000000000004,9.1,21.900000000000002,35.699999999999996,28.1,16
1109,18603.0,-1.0,-1.3,0.6000000000000001,0.5,3.8000000000000003,8.8,22.3,19.9,34.2,16
1110,18619.0,-1.0,-1.3,0.6000000000000001,0.7000000000000001,3.6,8.5,22.3,19.9,34.2,16
1111,18639.0,-0.4,-1.9000000000000001,-0.1,1.1,3.2,8.700000000000001,4.1,-13.000000000000002,31.2,16
1112,18653.0,-0.7000000000000001,-1.8,0.6000000000000001,0.7000000000000001,3.4000000000000004,9.0,-1.4,0.0,26.9,16
1113,18673.0,-1.4000000000000001,-1.6,0.7000000000000001,-0.2,3.5,8.9,3.7000000000000006,20.7,29.400000000000002,16
1114,18687.0,-2.0,-1.7000000000000002,0.2,-0.6000000000000001,3.3000000000000003,7.7,14.600000000000001,40.4,40.9,16
1115,18703.0,-1.9000000000000001,-1.8,-1.2000000000000002,-0.4,3.2,6.800000000000001,21.400000000000002,57.1,55.0,16
1116,18723.0,-1.7000000000000002,-1.8,-2.7,-0.30000000000000004,3.5,5.2,15.399999999999999,67.9,61.7,16
1117,18736.0,-1.7000000000000002,-1.4000000000000001,-3.2,-0.30000000000000004,3.7,5.5,-3.4,68.7,62.300000000000004,16
1118,18753.0,-1.5,-1.3,-2.4000000000000004,-0.2,3.7,6.2,-22.8,56.7,61.0,16
1119,18770.0,-1.2000000000000002,-1.4000000000000001,-1.3,0.2,3.4000000000000004,7.5,-32.5,37.0,55.900000000000006,16
1120,18793.0,-1.1,-1.7000000000000002,-0.8,0.6000000000000001,2.6,7.7,-30.799999999999997,20.0,48.9,16
1121,18803.0,-0.4,-2.4000000000000004,-0.9,1.0,2.3000000000000003,7.6000000000000005,-22.2,13.399999999999999,41.900000000000006,16
1122,18820.0,-0.2,-2.2,-1.6,1.0,2.7,6.6000000000000005,-13.100000000000001,18.900000000000002,32.0,16
1123,18836.0,-0.30000000000000004,-1.9000000000000001,-2.5,0.8,2.8000000000000003,5.7,-10.299999999999999,32.2,23.400000000000002,16
1124,18853.0,-0.8,-1.4000000000000001,-3.0,-0.2,3.7,5.5,-16.200000000000003,45.8,18.0,16
1125,18869.0,-1.2000000000000002,-0.6000000000000001,-3.0,-0.30000000000000004,4.1000000000000005,5.6000000000000005,-24.5,56.800000000000004,20.3,16
1126,18887.0,-1.0,0.0,-2.8000000000000003,0.2,4.6000000000000005,6.1000000000000005,-30.4,65.10000000000001,25.200000000000003,16
1127,18905.0,-0.2,0.5,-2.4000000000000004,0.7000000000000001,5.2,6.800000000000001,-33.400000000000006,67.60000000000001,25.7,16
1128,18920.0,0.0,1.1,-1.8,0.6000000000000001,5.6000000000000005,7.1000000000000005,-33.400000000000006,62.1,20.2,16
1129,18937.0,-0.1,1.8,-1.5,0.1,6.2,7.4,-32.400000000000006,51.2,14.100000000000001,16
1130,18953.0,-0.6000000000000001,2.4000000000000004,-1.3,-0.6000000000000001,6.800000000000001,7.9,-33.50000000000001,37.300000000000004,11.700000000000001,16
1131,18974.0,-0.6000000000000001,2.4000000000000004,-1.3,-0.9,7.0,8.5,-36.8,21.900000000000002,15.000000000000002,16
1132,18986.0,-1.1,2.9000000000000004,-0.6000000000000001,-0.1,7.2,10.3,-37.300000000000004,6.1000000000000005,22.700000000000003,16
1133,19003.0,0.0,3.3000000000000003,2.3000000000000003,0.9,7.1000000000000005,12.200000000000001,-31.3,-15.299999999999999,28.400000000000002,16
1134,19020.0,0.5,3.2,3.6,1.2000000000000002,7.0,12.9,-19.0,-45.9,27.400000000000002,16
1135,19038.0,0.6000000000000001,2.8000000000000003,4.6000000000000005,1.4000000000000001,6.4,13.9,-1.3,-74.89999999999999,24.5,16
1136,19053.0,0.1,2.1,5.1000000000000005,1.2000000000000002,5.7,14.100000000000001,19.700000000000003,-99.2,24.900000000000002,16
1137,19071.0,-0.2,1.6,5.0,1.2000000000000002,5.5,13.8,42.5,-114.3,31.5,16
1138,19086.0,-0.2,1.6,5.0,1.5,5.300000000000001,13.100000000000001,42.5,-114.3,31.5,16
1139,19103.0,-0.1,1.2000000000000002,3.9000000000000004,2.4000000000000004,5.5,10.9,62.4,-113.8,41.50000000000001,16
1140,19124.0,0.4,1.6,0.5,3.0,6.300000000000001,8.3,65.2,-60.900000000000006,55.5,16
1141,19136.0,0.7000000000000001,1.8,-0.30000000000000004,3.3000000000000003,6.4,8.1,44.8,-39.8,58.800000000000004,16
1142,19154.0,1.2000000000000002,1.8,-0.30000000000000004,4.1000000000000005,6.2,8.3,19.9,-23.6,56.300000000000004,16
1143,19170.0,1.6,1.4000000000000001,0.30000000000000004,4.7,5.4,9.200000000000001,-2.6,-10.700000000000001,46.4,16
1144,19188.0,1.9000000000000001,0.7000000000000001,1.0,4.2,4.4,10.0,-17.5,-1.0,31.099999999999998,16
1145,19203.0,1.4000000000000001,0.0,1.6,3.9000000000000004,4.0,10.3,-23.700000000000003,8.5,14.900000000000002,16
1146,19231.0,0.9,-0.6000000000000001,1.9000000000000001,3.4000000000000004,3.4000000000000004,10.3,-23.3,14.600000000000001,3.0,16
1147,19236.0,0.6000000000000001,-0.9,1.7000000000000002,3.3000000000000003,3.2,10.200000000000001,-20.7,15.8,-5.500000000000001,16
1148,19253.0,0.5,-1.4000000000000001,1.5,3.0,2.5,10.100000000000001,-19.200000000000003,19.400000000000002,-12.600000000000001,16
1149,19271.0,0.30000000000000004,-2.0,1.2000000000000002,2.8000000000000003,2.1,9.700000000000001,-16.5,27.700000000000003,-18.700000000000003,16
1150,19286.0,0.30000000000000004,-2.2,0.7000000000000001,2.6,1.7000000000000002,9.3,-12.600000000000001,36.9,-23.800000000000004,16
1151,19305.0,-0.2,-2.6,-0.1,1.9000000000000001,1.6,8.3,-10.1,46.9,-27.099999999999998,16
1152,19320.0,-0.4,-2.4000000000000004,-1.0,1.9000000000000001,1.9000000000000001,7.4,-10.299999999999999,57.1,-27.3,16
1153,19338.0,-0.2,-2.3000000000000003,-1.6,1.0,1.5,7.1000000000000005,-16.0,56.6,-28.900000000000002,16
1154,19353.0,-0.7000000000000001,-2.4000000000000004,-1.8,1.1,1.6,7.0,-22.1,54.1,-26.799999999999997,16
1155,19375.0,-0.5,-2.2,-1.8,1.1,1.7000000000000002,7.5,-26.700000000000003,51.0,-22.1,16
1156,19386.0,-0.2,-2.2,-1.3,1.4000000000000001,1.7000000000000002,7.800000000000001,-25.4,41.7,-20.0,16
1157,19403.0,0.30000000000000004,-1.9000000000000001,-1.5,2.0,2.1,7.2,-18.0,32.0,-18.900000000000002,16
1158,19421.0,-0.2,-1.7000000000000002,-1.7000000000000002,1.5,2.4000000000000004,6.800000000000001,-11.6,19.700000000000003,-20.7,16
1159,19436.0,0.6000000000000001,-1.2000000000000002,-2.6,1.6,2.7,6.2,-7.500000000000001,11.1,-17.7,16
1160,19453.0,0.4,-0.9,-2.8000000000000003,1.5,2.9000000000000004,6.2,-8.3,7.1000000000000005,-20.2,16
1161,19470.0,0.2,-0.6000000000000001,-3.0,1.2000000000000002,3.2,5.7,-8.700000000000001,1.5,-21.400000000000002,16
1162,19486.0,-0.1,-0.30000000000000004,-3.6,0.9,3.8000000000000003,4.5,-12.0,-1.1,-21.200000000000003,16
1163,19504.0,-0.30000000000000004,0.2,-4.3,0.6000000000000001,3.9000000000000004,5.0,-26.300000000000004,5.1000000000000005,-19.400000000000002,16
1164,19523.0,-0.6000000000000001,0.7000000000000001,-3.3000000000000003,0.5,4.3,6.4,-41.300000000000004,10.299999999999999,-14.0,16
1165,19540.0,-0.30000000000000004,0.8,-2.2,0.8,4.3,7.5,-48.2,1.1,-8.4,16
1166,19554.0,-0.2,1.0,-1.1,0.8,4.3,9.200000000000001,-48.6,-8.3,-4.5,16
1167,19570.0,-0.2,1.1,0.2,1.0,4.3,9.8,-41.300000000000004,-20.3,0.5,16
