,ms,accelX,accelY,accelZ,accelWithGX,accelWithGY,accelWithGZ,rotRateAlpha,rotRateBeta,rotRateGamma,interval
0,111.0,0.0,-0.1,0.0,1.1,2.2,9.5,-0.7,1.1,0.0,16
1,124.0,0.0,-0.1,0.0,1.1,2.2,9.5,-0.7,1.1,0.0,16
2,136.0,0.0,-0.1,0.0,1.1,2.2,9.5,-0.5,1.2000000000000002,0.0,16
3,153.0,0.0,-0.1,0.0,1.1,2.2,9.5,-0.5,1.0,0.0,16
4,169.0,0.0,0.0,0.0,1.1,2.2,9.5,-0.2,0.2,0.1,16
5,186.0,0.0,-0.1,0.0,1.1,2.2,9.5,-0.2,-0.2,0.0,16
6,203.0,0.1,0.0,-0.1,1.2000000000000002,2.2,9.4,-0.1,-0.9000000000000001,-0.30000000000000004,16
7,219.0,0.0,0.0,-0.2,1.1,2.2,9.3,-0.2,-1.6,-0.6000000000000001,16
8,236.0,0.0,0.0,-0.2,1.1,2.2,9.3,-1.1,-0.7,-0.5,16
9,253.0,0.0,0.0,-0.2,1.1,2.2,9.3,-1.9,0.4,0.0,16
10,269.0,0.0,0.0,-0.2,1.1,2.2,9.3,-1.8000000000000003,-0.9000000000000001,0.1,16
11,286.0,0.0,-0.1,-0.2,1.1,2.2,9.3,-1.4,-1.4,0.1,16
12,303.0,0.0,-0.1,-0.30000000000000004,1.1,2.2,9.200000000000001,-2.7,-0.9000000000000001,0.0,16
13,320.0,0.0,0.0,-0.30000000000000004,1.2000000000000002,2.1,9.200000000000001,-6.0,-1.4,-0.5,16
14,336.0,0.0,-0.1,-0.2,1.2000000000000002,2.1,9.3,-6.8,-2.3,-0.9000000000000001,16
15,353.0,0.0,-0.1,-0.2,1.2000000000000002,2.1,9.4,-7.1000000000000005,-2.9,-1.3,16
16,369.0,0.0,-0.1,-0.1,1.2000000000000002,2.0,9.4,-7.6,-3.9,-2.2,16
17,386.0,0.0,-0.1,-0.1,1.1,2.1,9.5,-8.100000000000001,-4.7,-2.2,16
18,403.0,-0.1,-0.1,0.30000000000000004,1.1,2.1,9.700000000000001,-5.8,-2.5,-1.5,16
19,420.0,-0.1,-0.1,0.5,1.1,2.0,10.0,-0.7,2.7,0.1,16
20,436.0,0.0,-0.1,0.2,1.2000000000000002,2.0,9.700000000000001,4.0,3.6000000000000005,0.9000000000000001,16
21,453.0,0.1,-0.1,-0.1,1.2000000000000002,2.0,9.5,5.300000000000001,0.6000000000000001,0.2,16
22,469.0,0.1,0.0,-0.1,1.2000000000000002,2.0,9.4,3.1,-0.8,-0.9000000000000001,16
23,486.0,0.0,0.0,0.0,1.1,2.1,9.5,0.8,-0.2,-1.6,16
24,503.0,-0.1,0.0,-0.1,1.1,2.1,9.4,-0.2,-1.3,-1.2000000000000002,16
25,520.0,0.0,0.1,-0.1,1.1,2.2,9.4,0.0,-3.0,-0.5,16
26,536.0,0.0,0.1,-0.1,1.2000000000000002,2.1,9.4,0.1,-2.2,0.0,16
27,553.0,0.0,0.0,-0.1,1.2000000000000002,2.1,9.4,0.0,-0.5,0.0,16
28,570.0,0.0,0.0,-0.1,1.2000000000000002,2.1,9.4,0.4,2.4000000000000004,0.0,16
29,586.0,0.0,0.0,-0.2,1.2000000000000002,2.1,9.3,0.8,2.8,-0.1,16
30,603.0,0.0,0.0,-0.2,1.1,2.1,9.4,0.7,0.9000000000000001,0.1,16
31,619.0,0.0,0.0,-0.1,1.2000000000000002,2.1,9.3,-0.30000000000000004,0.8,0.1,16
32,636.0,0.0,0.0,-0.30000000000000004,1.3,2.0,9.200000000000001,-1.6,0.30000000000000004,-0.30000000000000004,16
33,653.0,0.1,-0.1,-0.2,1.3,2.0,9.3,-2.1,-1.0,-1.1,16
34,669.0,0.0,-0.1,-0.1,1.2000000000000002,2.0,9.5,-2.2,0.5,-1.8000000000000003,16
35,686.0,-0.1,-0.1,0.1,1.0,2.0,9.600000000000001,-1.1,4.0,-1.6,16
36,703.0,-0.1,-0.1,0.1,1.0,2.0,9.600000000000001,0.5,5.9,-0.9000000000000001,16
37,719.0,-0.1,-0.1,0.0,1.1,2.0,9.5,1.8000000000000003,1.6,-1.6,16
38,736.0,0.0,-0.1,0.0,1.2000000000000002,2.0,9.600000000000001,1.3,1.3,-2.4000000000000004,16
39,753.0,0.0,-0.1,0.0,1.1,2.1,9.5,1.1,1.3,-2.8,16
40,769.0,0.0,0.0,0.0,1.1,2.1,9.600000000000001,1.8000000000000003,1.1,-2.6,16
41,786.0,0.0,0.0,0.1,1.1,2.2,9.700000000000001,3.3000000000000007,3.1,-2.1,16
42,803.0,0.0,0.1,0.0,1.1,2.2,9.600000000000001,4.1,4.6,-1.5,16
43,819.0,0.0,0.1,-0.1,1.0,2.2,9.5,4.0,3.5,-1.4,16
44,836.0,-0.1,0.1,0.0,1.0,2.2,9.5,3.7000000000000006,2.0,-1.7,16
45,853.0,-0.1,0.1,0.0,1.0,2.2,9.5,2.6,1.9,-1.8000000000000003,16
46,869.0,-0.2,0.1,-0.1,0.9,2.2,9.5,1.7,0.5,-1.3,16
47,886.0,-0.2,0.0,0.0,0.9,2.2,9.600000000000001,1.9,-0.5,-0.4,16
48,903.0,-0.1,0.0,0.0,0.9,2.1,9.5,2.9,-1.0,0.1,16
49,919.0,0.0,-0.1,-0.2,1.1,2.1,9.3,3.3000000000000007,-2.2,-0.30000000000000004,16
50,936.0,0.1,-0.1,-0.2,1.1,2.1,9.200000000000001,2.6,-2.0,-1.1,16
51,953.0,0.0,-0.1,-0.30000000000000004,1.1,2.1,9.200000000000001,1.9,-0.2,-1.5,16
52,970.0,0.0,0.0,-0.30000000000000004,1.0,2.2,9.200000000000001,1.7,0.1,-0.9000000000000001,16
53,986.0,0.0,0.0,-0.4,1.1,2.1,9.200000000000001,1.4,0.0,-0.4,16
54,1003.0,0.1,-0.1,-0.30000000000000004,1.1,2.1,9.200000000000001,0.8,1.0,-0.9000000000000001,16
55,1020.0,0.0,-0.1,-0.30000000000000004,1.0,2.1,9.3,0.1,3.2,-1.3,16
56,1036.0,-0.1,-0.1,-0.2,1.0,2.1,9.3,0.0,3.2,-1.3,16
57,1053.0,-0.1,-0.1,-0.1,0.9,2.1,9.4,-0.2,1.8000000000000003,-0.9000000000000001,16
58,1069.0,-0.1,-0.1,0.0,0.9,2.2,9.5,-0.2,0.4,-0.8,16
59,1086.0,-0.1,0.0,0.0,1.0,2.2,9.4,-0.30000000000000004,-0.6000000000000001,-0.8,16
60,1103.0,0.0,0.0,-0.1,1.0,2.2,9.4,-0.4,-1.9,-0.9000000000000001,16
61,1119.0,0.0,0.1,-0.1,1.0,2.3000000000000003,9.5,-1.0,0.0,-0.2,16
62,1136.0,-0.1,0.1,0.0,1.0,2.3000000000000003,9.5,-0.1,0.8,0.6000000000000001,16
63,1153.0,0.0,0.1,0.0,1.0,2.2,9.5,1.6,0.4,0.8,16
64,1169.0,0.0,0.1,-0.1,1.0,2.2,9.5,1.3,1.0,0.8,16
65,1186.0,0.0,0.1,-0.1,1.0,2.2,9.4,-0.2,1.6,0.8,16
66,1203.0,0.0,-0.1,-0.1,1.0,2.2,9.4,-0.6000000000000001,0.30000000000000004,0.5,16
67,1220.0,-0.1,-0.1,0.1,1.0,2.1,9.5,-0.2,-0.30000000000000004,0.1,16
68,1236.0,-0.1,0.0,0.1,0.9,2.2,9.600000000000001,0.5,0.0,0.30000000000000004,16
69,1253.0,-0.1,0.0,0.0,0.9,2.2,9.5,2.0,-0.7,0.7,16
70,1270.0,0.0,0.0,-0.2,1.1,2.2,9.3,2.7,-2.5,0.9000000000000001,16
71,1286.0,0.1,0.0,-0.4,1.1,2.2,9.1,1.4,-2.4000000000000004,0.30000000000000004,16
72,1303.0,0.0,0.0,-0.30000000000000004,1.1,2.3000000000000003,9.200000000000001,-0.9000000000000001,0.2,0.30000000000000004,16
73,1321.0,0.0,0.1,-0.1,1.0,2.3000000000000003,9.4,-1.8000000000000003,2.6,1.0,16
74,1336.0,0.0,0.0,-0.1,1.1,2.2,9.5,-0.9000000000000001,1.9,1.6,16
75,1353.0,0.0,-0.1,0.0,1.0,2.2,9.5,0.4,0.6000000000000001,1.3,16
76,1370.0,0.0,0.0,0.0,1.0,2.2,9.5,0.7,0.7,1.1,16
77,1386.0,-0.1,0.0,0.1,1.0,2.2,9.600000000000001,0.7,0.8,1.2000000000000002,16
78,1403.0,-0.1,0.0,0.1,1.0,2.2,9.600000000000001,1.0,0.7,1.3,16
79,1422.0,0.0,0.0,0.0,1.0,2.2,9.4,1.6,-0.9000000000000001,1.1,16
80,1437.0,0.0,0.0,-0.1,1.0,2.2,9.4,1.6,-2.4000000000000004,0.7,16
81,1453.0,0.0,0.0,-0.1,1.0,2.3000000000000003,9.4,0.7,-1.2000000000000002,0.8,16
82,1470.0,0.0,0.0,-0.2,1.1,2.2,9.3,-0.7,-0.2,0.9000000000000001,16
83,1486.0,0.1,0.0,-0.2,1.1,2.2,9.4,-0.7,-1.1,0.4,16
84,1503.0,0.0,-0.1,-0.1,1.0,2.2,9.4,0.2,-0.9000000000000001,0.30000000000000004,16
85,1522.0,-0.1,0.0,-0.1,1.0,2.2,9.3,0.6000000000000001,0.4,1.5,16
86,1536.0,0.0,0.0,-0.2,1.1,2.1,9.3,0.1,0.2,0.8,16
87,1553.0,0.1,-0.1,-0.2,1.1,2.1,9.3,-0.30000000000000004,0.2,0.1,16
88,1570.0,0.0,-0.1,-0.1,1.0,2.1,9.4,-0.5,0.5,0.1,16
89,1586.0,0.0,-0.1,-0.1,1.0,2.2,9.5,-0.6000000000000001,0.8,0.5,16
90,1603.0,0.0,-0.1,0.0,1.0,2.1,9.5,-0.30000000000000004,0.6000000000000001,0.2,16
91,1622.0,0.0,-0.1,0.0,1.1,2.1,9.5,0.0,0.1,-0.7,16
92,1636.0,-0.1,0.0,0.0,1.0,2.2,9.5,0.30000000000000004,0.0,-1.0,16
93,1653.0,0.0,0.0,-0.1,1.0,2.2,9.5,1.0,-0.5,-0.9000000000000001,16
94,1670.0,0.0,0.0,-0.1,1.0,2.3000000000000003,9.4,1.5,-0.4,-0.6000000000000001,16
95,1686.0,0.0,0.1,-0.1,1.0,2.3000000000000003,9.3,0.7,1.5,-0.2,16
96,1703.0,-0.1,0.0,-0.2,1.0,2.3000000000000003,9.3,0.0,1.6,0.1,16
97,1722.0,-0.1,0.1,-0.1,1.0,2.3000000000000003,9.4,0.0,0.5,0.5,16
98,1736.0,-0.1,0.0,-0.2,1.0,2.3000000000000003,9.3,-0.7,0.0,0.7,16
99,1753.0,-0.1,0.0,-0.2,1.0,2.2,9.3,-2.1,-0.7,0.8,16
100,1770.0,0.0,0.0,-0.2,1.0,2.2,9.4,-2.5,-1.7,0.9000000000000001,16
101,1786.0,0.0,-0.1,0.0,1.0,2.2,9.5,-2.0,-0.9000000000000001,1.0,16
102,1803.0,0.0,0.0,-0.1,1.1,2.2,9.4,-0.7,0.1,1.2000000000000002,16
103,1821.0,0.1,-0.1,-0.1,1.2000000000000002,2.1,9.3,-0.1,-0.1,0.7,16
104,1836.0,0.1,-0.1,-0.2,1.1,2.2,9.4,-0.6000000000000001,0.5,0.0,16
105,1853.0,0.0,0.0,-0.1,1.1,2.2,9.5,-1.8000000000000003,2.0,-0.4,16
106,1870.0,0.0,-0.1,0.1,1.0,2.1,9.600000000000001,-1.8000000000000003,2.8,-0.2,16
107,1886.0,0.0,-0.1,0.1,1.0,2.1,9.600000000000001,-0.30000000000000004,1.2000000000000002,-0.2,16
108,1903.0,0.0,-0.1,0.1,1.0,2.1,9.600000000000001,0.4,0.1,-0.4,16
109,1921.0,0.0,0.0,-0.1,1.1,2.2,9.5,-0.7,-1.6,-1.2000000000000002,16
110,1936.0,0.0,0.0,-0.1,1.1,2.2,9.5,0.0,-1.7,-1.4,16
111,1953.0,0.0,0.0,-0.1,1.0,2.2,9.4,-0.2,-0.6000000000000001,-1.3,16
112,1970.0,0.0,0.0,-0.1,1.0,2.2,9.4,-0.6000000000000001,0.4,-1.2000000000000002,16
113,1986.0,0.0,0.0,-0.1,1.0,2.2,9.4,-0.4,0.8,-1.2000000000000002,16
114,2003.0,0.0,0.0,-0.2,1.0,2.2,9.3,-0.1,0.9000000000000001,-1.3,16
115,2021.0,0.0,0.1,-0.2,1.0,2.3000000000000003,9.3,-0.4,1.3,-1.2000000000000002,16
116,2036.0,-0.1,0.1,-0.2,0.9,2.3000000000000003,9.4,-1.4,2.9,-0.7,16
117,2053.0,-0.1,0.0,-0.1,0.9,2.3000000000000003,9.4,-1.8000000000000003,3.1,-0.2,16
118,2070.0,-0.1,0.0,0.0,0.9,2.2,9.5,-1.2000000000000002,2.6,0.1,16
119,2086.0,-0.1,-0.1,0.0,0.9,2.1,9.5,-0.7,1.1,0.1,16
120,2103.0,0.0,0.0,0.0,1.0,2.1,9.5,-0.5,-0.5,-0.1,16
121,2122.0,0.0,0.0,-0.1,1.0,2.1,9.4,-0.8,-1.3,-0.2,16
122,2136.0,0.0,0.0,-0.1,1.0,2.1,9.5,-0.7,-1.0,-0.2,16
123,2153.0,0.0,0.0,0.0,1.0,2.1,9.5,-0.1,0.2,-0.2,16
124,2170.0,-0.1,0.0,-0.1,0.9,2.2,9.3,0.6000000000000001,0.4,0.2,16
125,2186.0,0.0,0.0,-0.30000000000000004,1.0,2.1,9.200000000000001,-0.1,-1.5,0.5,16
126,2203.0,0.0,-0.1,-0.30000000000000004,1.0,2.1,9.200000000000001,-2.2,-3.2,0.1,16
127,2222.0,0.0,0.0,-0.30000000000000004,1.0,2.1,9.3,-4.5,-3.0,-0.2,16
128,2240.0,0.0,0.0,-0.2,1.0,2.1,9.4,-6.4,-2.2,-0.5,16
129,2253.0,0.0,-0.1,-0.1,1.0,2.1,9.5,-6.4,-2.2,-0.5,16
130,2270.0,0.0,-0.1,0.1,1.0,2.0,9.700000000000001,-5.4,-0.7,0.0,16
131,2286.0,0.0,-0.1,0.1,1.0,2.0,9.600000000000001,-2.6,0.4,0.30000000000000004,16
132,2303.0,0.0,-0.1,0.1,1.0,2.0,9.600000000000001,-0.2,-0.2,0.6000000000000001,16
133,2321.0,0.0,-0.1,-0.1,1.1,2.0,9.5,-0.5,-2.9,-0.30000000000000004,16
134,2337.0,0.0,-0.1,-0.1,1.1,2.1,9.600000000000001,-0.5,-2.9,-0.30000000000000004,16
135,2353.0,0.0,0.0,0.0,1.1,2.1,9.600000000000001,-0.7,-1.9,-0.2,16
136,2370.0,0.0,0.0,-0.1,1.1,2.1,9.5,-0.6000000000000001,-2.0,-0.1,16
137,2386.0,0.0,0.0,-0.1,1.1,2.1,9.4,-0.6000000000000001,-3.7000000000000006,0.0,16
138,2403.0,0.0,0.0,0.0,1.1,2.1,9.4,-1.1,-3.4,-0.2,16
139,2421.0,0.0,-0.1,0.0,1.1,2.0,9.600000000000001,-1.7,-0.4,-0.1,16
140,2438.0,0.0,-0.1,-0.1,1.1,2.0,9.4,-1.0,-1.2000000000000002,-0.1,16
141,2453.0,0.0,-0.1,-0.2,1.0,2.0,9.4,-0.2,-3.3000000000000007,-0.30000000000000004,16
142,2470.0,-0.1,-0.1,-0.2,1.0,2.0,9.3,0.1,-3.6000000000000005,-0.2,16
143,2486.0,0.0,0.0,-0.1,1.1,2.1,9.5,0.0,-2.0,-0.1,16
144,2503.0,0.0,-0.1,-0.1,1.1,2.0,9.5,-0.6000000000000001,0.9000000000000001,-0.2,16
145,2521.0,-0.1,0.0,-0.1,1.1,2.1,9.4,-0.30000000000000004,0.7,0.0,16
146,2536.0,0.0,0.0,-0.1,1.1,2.1,9.4,0.30000000000000004,-1.6,0.1,16
147,2553.0,0.0,0.0,-0.1,1.1,2.1,9.5,1.4,-1.5,0.2,16
148,2570.0,0.0,0.0,0.0,1.1,2.1,9.5,1.6,1.3,0.4,16
149,2586.0,0.0,0.1,-0.1,1.1,2.1,9.4,0.8,4.1,1.0,16
150,2603.0,-0.1,0.0,-0.1,1.0,2.1,9.4,0.1,1.9,1.3,16
151,2622.0,0.0,0.0,0.0,1.1,2.1,9.5,-0.1,-0.4,1.4,16
152,2636.0,0.0,0.0,0.0,1.1,2.0,9.600000000000001,-0.30000000000000004,-0.7,1.0,16
153,2653.0,0.0,-0.1,0.1,1.1,2.0,9.600000000000001,0.1,0.1,0.7,16
154,2670.0,0.0,0.0,0.1,1.1,2.0,9.600000000000001,0.8,0.4,0.5,16
155,2686.0,0.1,-0.1,0.0,1.2000000000000002,2.0,9.5,2.2,-1.0,0.1,16
156,2703.0,0.1,-0.1,0.0,1.1,2.1,9.4,2.7,-0.5,-0.2,16
157,2721.0,0.0,-0.1,-0.2,1.1,2.1,9.4,0.9000000000000001,1.2000000000000002,-0.7,16
158,2736.0,0.0,-0.1,-0.2,1.1,2.0,9.4,0.9000000000000001,1.2000000000000002,-0.7,16
159,2753.0,0.0,-0.1,-0.1,1.1,2.1,9.4,1.6,0.1,-0.8,16
160,2770.0,0.0,0.0,-0.2,1.1,2.1,9.3,0.5,0.5,-1.0,16
161,2786.0,0.0,0.0,-0.2,1.1,2.1,9.4,-0.7,1.5,-1.0,16
162,2803.0,-0.1,0.0,-0.1,1.0,2.1,9.4,-0.9000000000000001,1.9,-0.7,16
163,2823.0,-0.1,0.0,0.0,1.0,2.1,9.5,0.1,1.0,-0.4,16
164,2836.0,-0.1,0.0,0.0,1.0,2.1,9.5,1.3,0.9000000000000001,-0.2,16
165,2853.0,-0.1,0.0,-0.2,1.0,2.1,9.4,1.2000000000000002,0.9000000000000001,-0.30000000000000004,16
166,2870.0,-0.1,0.0,-0.1,1.0,2.2,9.4,0.5,0.4,-0.1,16
167,2886.0,-0.1,0.0,-0.1,1.0,2.2,9.4,0.30000000000000004,0.8,0.6000000000000001,16
168,2903.0,0.0,0.0,-0.2,1.0,2.2,9.3,-0.2,-0.30000000000000004,1.3,16
169,2922.0,0.0,0.0,-0.2,1.1,2.1,9.3,-1.1,-1.3,1.3,16
170,2937.0,0.1,-0.1,-0.1,1.1,2.0,9.4,-2.3,0.2,0.6000000000000001,16
171,2953.0,0.0,-0.1,0.0,1.1,2.0,9.5,-2.0,0.7,0.30000000000000004,16
172,2970.0,0.0,-0.1,0.0,1.1,2.0,9.600000000000001,-0.5,0.0,0.4,16
173,2986.0,0.0,-0.1,0.0,1.1,2.0,9.600000000000001,0.7,0.0,0.30000000000000004,16
174,3003.0,0.1,-0.1,0.0,1.1,2.0,9.5,0.9000000000000001,1.2000000000000002,0.2,16
175,3024.0,0.1,-0.1,0.0,1.1,2.0,9.600000000000001,0.0,0.6000000000000001,-1.1,16
176,3036.0,0.0,-0.1,0.0,1.1,2.1,9.600000000000001,0.0,0.6000000000000001,-1.1,16
177,3053.0,0.0,0.0,0.1,1.1,2.1,9.600000000000001,0.6000000000000001,0.0,-1.2000000000000002,16
178,3070.0,0.0,0.0,0.0,1.1,2.1,9.4,1.2000000000000002,-0.4,-1.1,16
179,3086.0,0.0,0.0,-0.1,1.1,2.1,9.4,0.9000000000000001,-1.2000000000000002,-1.0,16
180,3103.0,0.0,0.0,-0.1,1.1,2.1,9.4,0.8,-0.2,-0.9000000000000001,16
181,3121.0,-0.1,0.0,-0.1,1.0,2.1,9.3,1.0,-0.7,-0.6000000000000001,16
182,3136.0,0.0,0.0,-0.2,1.0,2.1,9.3,1.0,-1.4,-0.30000000000000004,16
183,3153.0,-0.1,0.0,-0.2,1.0,2.2,9.3,0.7,-0.4,0.30000000000000004,16
184,3170.0,-0.1,0.0,-0.30000000000000004,1.0,2.2,9.3,0.0,0.8,0.6000000000000001,16
185,3186.0,-0.1,0.0,-0.30000000000000004,1.1,2.1,9.3,-1.1,1.4,0.6000000000000001,16
186,3203.0,-0.1,0.0,-0.1,1.0,2.1,9.4,-1.3,1.4,0.6000000000000001,16
187,3220.0,-0.1,-0.1,0.0,1.0,2.1,9.5,-0.4,1.1,0.8,16
188,3236.0,-0.1,-0.1,0.0,1.0,2.0,9.5,0.4,0.1,0.9000000000000001,16
189,3254.0,0.0,-0.1,0.0,1.1,2.1,9.5,1.0,-0.2,1.0,16
190,3270.0,0.1,-0.1,0.0,1.1,2.1,9.5,0.9000000000000001,0.0,0.7,16
191,3286.0,0.1,0.0,-0.1,1.1,2.1,9.5,0.1,-0.1,0.4,16
192,3303.0,0.0,0.0,0.0,1.1,2.1,9.5,-0.2,0.0,0.4,16
193,3321.0,0.0,0.0,0.0,1.1,2.1,9.5,0.2,0.5,0.6000000000000001,16
194,3336.0,0.0,-0.1,0.0,1.1,2.1,9.5,1.0,0.4,0.30000000000000004,16
195,3353.0,0.0,0.0,0.0,1.0,2.1,9.5,1.7,0.9000000000000001,0.2,16
196,3370.0,0.0,0.0,-0.1,1.0,2.1,9.5,1.9,1.5,0.4,16
197,3386.0,0.0,0.0,-0.1,1.1,2.1,9.4,1.9,0.9000000000000001,0.30000000000000004,16
198,3403.0,0.0,0.0,-0.1,1.1,2.1,9.4,1.6,0.7,-0.1,16
199,3421.0,0.0,-0.1,-0.1,1.0,2.1,9.5,1.5,1.3,-0.30000000000000004,16
200,3436.0,-0.1,0.0,0.0,1.0,2.1,9.5,2.0,2.1,-0.1,16
201,3453.0,-0.1,-0.1,-0.1,1.0,2.1,9.4,2.6,2.4000000000000004,0.0,16
202,3470.0,-0.1,0.0,-0.1,1.0,2.2,9.4,2.9,2.7,0.1,16
203,3487.0,-0.1,0.0,-0.1,1.0,2.2,9.4,3.1,3.5,0.5,16
204,3503.0,0.0,0.0,-0.1,1.0,2.2,9.4,3.3000000000000007,4.2,0.9000000000000001,16
205,3520.0,0.0,0.0,-0.1,1.0,2.2,9.4,3.3000000000000007,6.1000000000000005,0.9000000000000001,16
206,3537.0,0.0,0.0,-0.1,0.9,2.2,9.5,3.8,6.8,1.4,16
207,3553.0,-0.1,0.0,0.0,0.9,2.2,9.5,4.7,7.200000000000001,1.7,16
208,3570.0,0.0,0.0,0.0,1.0,2.2,9.5,5.500000000000001,8.8,1.6,16
209,3586.0,0.0,0.0,0.0,0.9,2.2,9.5,6.0,10.700000000000001,1.8000000000000003,16
210,3603.0,0.0,0.0,-0.30000000000000004,0.9,2.2,9.3,5.4,9.600000000000001,1.1,16
211,3622.0,0.0,0.0,-0.30000000000000004,0.9,2.2,9.200000000000001,3.1,7.300000000000001,0.6000000000000001,16
212,3636.0,0.0,0.0,-0.30000000000000004,0.9,2.2,9.200000000000001,0.5,6.2,0.1,16
213,3653.0,0.0,0.0,-0.30000000000000004,0.9,2.3000000000000003,9.200000000000001,-1.0,3.9,0.1,16
214,3670.0,0.0,0.0,-0.2,0.8,2.3000000000000003,9.3,-1.1,2.6,0.30000000000000004,16
215,3686.0,0.0,0.0,-0.1,0.8,2.3000000000000003,9.4,-1.0,4.9,0.8,16
216,3703.0,0.0,0.0,-0.1,0.8,2.2,9.4,-0.7,7.0,0.6000000000000001,16
217,3722.0,0.0,-0.1,-0.1,0.8,2.2,9.4,0.0,7.0,0.30000000000000004,16
218,3736.0,0.0,0.0,-0.1,0.7000000000000001,2.2,9.5,1.1,5.500000000000001,0.2,16
219,3753.0,0.0,0.0,-0.1,0.7000000000000001,2.2,9.4,1.7,4.6,0.30000000000000004,16
220,3770.0,0.0,0.0,-0.1,0.7000000000000001,2.3000000000000003,9.4,1.2000000000000002,4.1,0.2,16
221,3786.0,0.0,0.0,-0.1,0.7000000000000001,2.3000000000000003,9.4,0.6000000000000001,3.7000000000000006,0.1,16
222,3803.0,0.0,0.0,-0.1,0.7000000000000001,2.2,9.4,-0.1,2.3,-0.2,16
223,3822.0,0.0,0.0,0.0,0.7000000000000001,2.3000000000000003,9.5,-0.4,1.1,-0.5,16
224,3837.0,-0.1,0.0,0.0,0.7000000000000001,2.3000000000000003,9.4,-0.30000000000000004,1.0,-0.30000000000000004,16
225,3853.0,0.0,0.0,-0.1,0.7000000000000001,2.3000000000000003,9.5,-0.5,0.30000000000000004,-0.4,16
226,3870.0,0.0,0.0,0.0,0.7000000000000001,2.3000000000000003,9.5,-0.7,0.5,-0.4,16
227,3886.0,0.0,0.0,-0.1,0.7000000000000001,2.3000000000000003,9.4,-0.6000000000000001,0.2,-0.5,16
228,3903.0,0.0,0.0,-0.1,0.7000000000000001,2.3000000000000003,9.4,-0.6000000000000001,-0.6000000000000001,-0.6000000000000001,16
229,3921.0,-0.1,0.0,0.0,0.7000000000000001,2.2,9.5,-0.8,0.5,-0.4,16
230,3936.0,-0.1,0.0,0.0,0.7000000000000001,2.2,9.5,0.2,0.30000000000000004,-0.30000000000000004,16
231,3953.0,0.0,-0.1,0.0,0.7000000000000001,2.2,9.5,1.2000000000000002,-1.5,-0.30000000000000004,16
232,3969.0,0.0,-0.1,-0.1,0.7000000000000001,2.3000000000000003,9.4,1.3,-2.5,-0.2,16
233,3986.0,0.0,0.0,-0.1,0.7000000000000001,2.3000000000000003,9.4,0.1,-1.2000000000000002,0.0,16
234,4003.0,0.0,0.0,-0.1,0.7000000000000001,2.3000000000000003,9.4,-1.1,-0.5,0.0,16
235,4019.0,0.0,0.0,-0.1,0.7000000000000001,2.3000000000000003,9.4,-1.3,-1.5,-0.2,16
236,4036.0,-0.1,0.0,0.0,0.7000000000000001,2.3000000000000003,9.5,-0.8,-1.9,-0.2,16
237,4053.0,-0.1,0.0,0.0,0.7000000000000001,2.3000000000000003,9.5,-0.6000000000000001,-1.6,0.0,16
238,4069.0,0.0,0.0,0.0,0.7000000000000001,2.3000000000000003,9.5,-0.6000000000000001,-1.3,0.1,16
239,4086.0,0.0,0.0,0.0,0.8,2.2,9.5,-0.7,-0.8,0.1,16
240,4103.0,0.0,-0.1,-0.1,0.8,2.2,9.5,-0.30000000000000004,-1.5,-0.2,16
241,4122.0,0.0,-0.1,-0.1,0.8,2.2,9.4,0.0,-1.8000000000000003,-0.5,16
242,4136.0,0.0,-0.1,0.0,0.8,2.2,9.5,-0.1,-0.4,-0.9000000000000001,16
243,4153.0,0.1,-0.1,-0.1,0.8,2.2,9.4,0.30000000000000004,0.30000000000000004,-1.1,16
244,4170.0,0.0,-0.1,-0.1,0.8,2.2,9.4,0.8,0.30000000000000004,-1.2000000000000002,16
245,4186.0,0.0,-0.1,-0.1,0.7000000000000001,2.2,9.5,0.4,0.7,-1.2000000000000002,16
246,4203.0,0.0,0.0,0.0,0.7000000000000001,2.2,9.5,0.1,1.8000000000000003,-1.2000000000000002,16
247,4221.0,0.0,-0.1,-0.1,0.7000000000000001,2.2,9.4,1.1,1.2000000000000002,-1.4,16
248,4238.0,0.0,0.0,-0.1,0.7000000000000001,2.3000000000000003,9.4,1.6,-0.2,-1.8000000000000003,16
249,4253.0,-0.1,0.1,-0.1,0.7000000000000001,2.3000000000000003,9.4,1.0,0.4,-1.4,16
250,4270.0,0.0,0.0,-0.1,0.7000000000000001,2.3000000000000003,9.5,0.0,2.1,-0.8,16
251,4286.0,0.0,0.0,-0.1,0.7000000000000001,2.2,9.5,-0.4,1.9,-0.8,16
252,4303.0,0.0,0.0,0.0,0.7000000000000001,2.2,9.5,0.4,0.7,-1.2000000000000002,16
253,4322.0,-0.1,0.0,-0.1,0.6000000000000001,2.3000000000000003,9.5,1.4,1.4,-1.1,16
254,4336.0,-0.1,0.0,-0.1,0.7000000000000001,2.3000000000000003,9.4,1.4,1.4,-1.1,16
255,4353.0,0.0,0.0,-0.1,0.7000000000000001,2.3000000000000003,9.4,1.8000000000000003,0.7,-0.9000000000000001,16
256,4369.0,-0.1,0.0,0.0,0.7000000000000001,2.3000000000000003,9.5,1.9,0.6000000000000001,-0.9000000000000001,16
257,4386.0,-0.1,0.0,0.0,0.6000000000000001,2.3000000000000003,9.5,1.9,1.0,-0.4,16
258,4404.0,0.0,0.0,0.0,0.7000000000000001,2.3000000000000003,9.5,2.3,0.6000000000000001,-0.4,16
259,4425.0,0.0,0.0,-0.1,0.7000000000000001,2.3000000000000003,9.4,2.2,0.0,-0.8,16
260,4436.0,-0.1,0.0,0.0,0.6000000000000001,2.3000000000000003,9.5,1.3,0.6000000000000001,-0.6000000000000001,16
261,4453.0,-0.1,0.0,-0.1,0.6000000000000001,2.3000000000000003,9.5,0.7,0.6000000000000001,-0.2,16
262,4470.0,0.0,0.0,-0.1,0.7000000000000001,2.3000000000000003,9.4,1.0,-1.5,-0.4,16
263,4486.0,0.0,0.0,-0.1,0.7000000000000001,2.3000000000000003,9.4,1.0,-1.9,-0.9000000000000001,16
264,4504.0,0.0,0.0,0.0,0.7000000000000001,2.3000000000000003,9.5,0.7,-0.4,-0.8,16
265,4520.0,0.0,0.0,-0.1,0.7000000000000001,2.3000000000000003,9.4,0.7,0.2,-0.7,16
266,4536.0,0.0,0.0,0.0,0.7000000000000001,2.3000000000000003,9.5,1.3,0.2,-0.6000000000000001,16
267,4553.0,0.0,0.0,0.0,0.7000000000000001,2.3000000000000003,9.5,2.4000000000000004,0.30000000000000004,-0.4,16
268,4569.0,0.0,-0.1,-0.2,0.8,2.3000000000000003,9.3,2.6,-0.7,-0.5,16
269,4586.0,0.1,-0.1,-0.2,0.7000000000000001,2.3000000000000003,9.4,1.1,-1.5,-1.5,16
270,4603.0,0.0,0.0,-0.1,0.7000000000000001,2.3000000000000003,9.4,0.0,-0.4,-1.9,16
271,4623.0,0.0,-0.1,-0.1,0.7000000000000001,2.3000000000000003,9.4,0.4,0.30000000000000004,-1.9,16
272,4636.0,0.0,-0.1,-0.2,0.8,2.3000000000000003,9.200000000000001,2.2,-0.9000000000000001,-1.8000000000000003,16
273,4653.0,0.1,-0.1,-0.30000000000000004,0.8,2.3000000000000003,9.200000000000001,3.3000000000000007,-1.6,-2.0,16
274,4669.0,0.0,0.0,-0.30000000000000004,0.7000000000000001,2.4000000000000004,9.3,2.6,0.6000000000000001,-2.2,16
275,4686.0,0.0,0.0,-0.2,0.6000000000000001,2.4000000000000004,9.4,1.3,4.4,-1.7,16
276,4703.0,-0.1,0.0,-0.1,0.5,2.4000000000000004,9.4,0.4,5.500000000000001,-1.1,16
277,4721.0,-0.1,0.0,-0.1,0.6000000000000001,2.4000000000000004,9.5,-0.1,-0.30000000000000004,-0.5,16
278,4736.0,-0.1,0.0,0.0,0.6000000000000001,2.3000000000000003,9.600000000000001,-0.1,-0.30000000000000004,-0.5,16
279,4754.0,-0.1,0.0,0.1,0.7000000000000001,2.3000000000000003,9.700000000000001,-1.9,0.7,-0.9000000000000001,16
280,4770.0,0.0,-0.1,0.2,0.6000000000000001,2.3000000000000003,9.700000000000001,-0.5,-0.4,-1.1,16
281,4786.0,0.0,-0.1,0.1,0.7000000000000001,2.3000000000000003,9.600000000000001,0.8,-1.2000000000000002,-1.3,16
282,4803.0,0.0,-0.1,0.0,0.7000000000000001,2.3000000000000003,9.600000000000001,1.5,-0.8,-1.4,16
283,4822.0,0.0,0.0,-0.1,0.6000000000000001,2.3000000000000003,9.5,2.4000000000000004,-0.5,-1.3,16
284,4836.0,-0.1,0.0,-0.1,0.6000000000000001,2.4000000000000004,9.4,3.1,-0.30000000000000004,-1.0,16
285,4854.0,0.0,0.0,-0.2,0.6000000000000001,2.4000000000000004,9.3,3.1,-0.4,-0.7,16
286,4870.0,0.0,0.0,-0.2,0.6000000000000001,2.4000000000000004,9.200000000000001,2.4000000000000004,0.2,-0.5,16
287,4886.0,0.0,0.0,-0.4,0.6000000000000001,2.4000000000000004,9.1,0.9000000000000001,0.1,-0.4,16
288,4903.0,-0.1,0.0,-0.30000000000000004,0.6000000000000001,2.4000000000000004,9.1,-1.0,-0.4,-0.30000000000000004,16
289,4921.0,-0.1,0.0,-0.2,0.6000000000000001,2.4000000000000004,9.3,-2.4000000000000004,0.0,0.0,16
290,4936.0,-0.1,0.0,-0.1,0.6000000000000001,2.4000000000000004,9.4,-2.5,0.8,0.4,16
291,4953.0,-0.1,-0.1,-0.1,0.6000000000000001,2.3000000000000003,9.4,-0.8,0.4,0.7,16
292,4970.0,0.0,0.0,-0.1,0.7000000000000001,2.3000000000000003,9.4,0.9000000000000001,-0.30000000000000004,1.0,16
293,4986.0,0.0,0.0,-0.2,0.7000000000000001,2.4000000000000004,9.3,0.5,-0.30000000000000004,0.6000000000000001,16
294,5005.0,0.0,0.0,-0.2,0.6000000000000001,2.4000000000000004,9.3,-0.6000000000000001,0.5,0.30000000000000004,16
295,5022.0,0.0,0.0,-0.1,0.6000000000000001,2.4000000000000004,9.4,-1.0,0.4,0.6000000000000001,16
296,5036.0,0.0,0.0,-0.1,0.6000000000000001,2.4000000000000004,9.4,-1.2000000000000002,0.30000000000000004,0.8,16
297,5053.0,0.0,0.0,0.0,0.6000000000000001,2.4000000000000004,9.5,-1.5,1.0,0.7,16
298,5069.0,-0.1,0.0,0.0,0.6000000000000001,2.4000000000000004,9.5,-1.3,0.6000000000000001,0.9000000000000001,16
299,5086.0,-0.1,0.0,0.0,0.6000000000000001,2.4000000000000004,9.5,-0.8,-0.2,1.3,16
300,5103.0,0.0,0.0,0.0,0.7000000000000001,2.4000000000000004,9.5,-0.30000000000000004,-0.30000000000000004,1.5,16
301,5123.0,0.1,0.0,-0.1,0.7000000000000001,2.4000000000000004,9.4,-0.7,0.0,1.0,16
302,5136.0,0.1,0.0,-0.1,0.7000000000000001,2.4000000000000004,9.4,-0.7,0.0,1.0,16
303,5153.0,0.0,0.0,0.0,0.7000000000000001,2.3000000000000003,9.5,-1.7,0.9000000000000001,0.4,16
304,5170.0,0.0,-0.1,0.1,0.7000000000000001,2.3000000000000003,9.600000000000001,-0.1,-0.30000000000000004,0.2,16
305,5186.0,0.0,-0.1,0.1,0.7000000000000001,2.3000000000000003,9.5,1.2000000000000002,-1.0,0.1,16
306,5203.0,0.0,0.0,-0.1,0.7000000000000001,2.4000000000000004,9.4,0.8,-0.8,0.0,16
307,5221.0,-0.1,0.0,0.0,0.6000000000000001,2.4000000000000004,9.5,0.2,0.30000000000000004,0.2,16
308,5236.0,-0.1,0.0,0.0,0.6000000000000001,2.3000000000000003,9.5,0.9000000000000001,0.5,0.7,16
309,5253.0,-0.1,0.0,-0.2,0.6000000000000001,2.3000000000000003,9.4,1.9,-1.7,1.2000000000000002,16
310,5269.0,0.0,0.0,-0.4,0.7000000000000001,2.4000000000000004,9.1,0.6000000000000001,-3.6000000000000005,1.4,16
311,5286.0,0.0,0.0,-0.30000000000000004,0.7000000000000001,2.3000000000000003,9.200000000000001,-2.0,-2.3,1.5,16
312,5303.0,0.0,-0.1,-0.2,0.7000000000000001,2.3000000000000003,9.3,-3.4,-0.2,1.6,16
313,5322.0,0.1,-0.1,-0.1,0.8,2.3000000000000003,9.4,-2.6,-0.5,1.4,16
314,5337.0,0.1,-0.1,0.0,0.8,2.3000000000000003,9.600000000000001,-1.2000000000000002,-0.7,0.7,16
315,5353.0,0.0,0.0,0.1,0.7000000000000001,2.3000000000000003,9.600000000000001,0.0,0.4,0.2,16
316,5370.0,0.0,0.0,0.1,0.7000000000000001,2.4000000000000004,9.600000000000001,1.2000000000000002,2.0,0.1,16
317,5386.0,0.0,0.0,0.1,0.6000000000000001,2.4000000000000004,9.600000000000001,2.3,2.1,0.2,16
318,5403.0,-0.1,0.0,0.1,0.6000000000000001,2.4000000000000004,9.600000000000001,2.9,1.5,0.1,16
319,5421.0,-0.1,0.1,0.0,0.6000000000000001,2.4000000000000004,9.5,2.3,0.5,-0.1,16
320,5436.0,-0.1,0.1,-0.1,0.6000000000000001,2.4000000000000004,9.4,1.1,-1.2000000000000002,0.0,16
321,5454.0,-0.1,0.1,-0.1,0.6000000000000001,2.4000000000000004,9.4,0.30000000000000004,-2.8,0.7,16
322,5469.0,0.0,0.0,-0.1,0.7000000000000001,2.4000000000000004,9.3,0.0,-2.4000000000000004,1.4,16
323,5486.0,0.0,-0.1,-0.2,0.8,2.3000000000000003,9.3,-0.5,-1.9,1.2000000000000002,16
324,5503.0,0.1,-0.1,-0.2,0.8,2.2,9.3,-0.1,-1.6,0.7,16
325,5520.0,0.1,-0.1,-0.2,0.7000000000000001,2.3000000000000003,9.3,-0.4,1.2000000000000002,0.30000000000000004,16
326,5536.0,0.0,-0.1,-0.2,0.8,2.2,9.3,-0.1,1.2000000000000002,0.1,16
327,5553.0,0.1,-0.2,-0.2,0.8,2.2,9.3,0.6000000000000001,0.4,-0.9000000000000001,16
328,5570.0,0.1,-0.1,-0.2,0.8,2.3000000000000003,9.3,0.0,1.0,-1.8000000000000003,16
329,5586.0,0.1,-0.1,-0.2,0.6000000000000001,2.4000000000000004,9.4,-1.1,2.9,-1.8000000000000003,16
330,5603.0,-0.1,0.0,0.1,0.6000000000000001,2.4000000000000004,9.5,-1.0,4.5,-1.1,16
331,5622.0,-0.1,0.0,0.1,0.5,2.4000000000000004,9.600000000000001,0.30000000000000004,2.9,-0.5,16
332,5636.0,-0.1,0.1,0.0,0.5,2.4000000000000004,9.5,1.0,0.4,-0.4,16
333,5654.0,-0.1,0.1,0.0,0.5,2.5,9.5,0.1,0.1,-0.2,16
334,5669.0,-0.2,0.1,0.0,0.5,2.5,9.5,-0.5,0.1,0.30000000000000004,16
335,5686.0,-0.2,0.1,0.0,0.5,2.5,9.4,0.2,-1.5,1.7,16
336,5703.0,-0.1,0.0,-0.2,0.6000000000000001,2.4000000000000004,9.4,0.30000000000000004,-3.3000000000000007,2.5,16
337,5722.0,0.1,0.0,-0.2,0.8,2.3000000000000003,9.3,-1.1,-3.4,2.2,16
338,5736.0,0.1,-0.1,-0.2,0.7000000000000001,2.3000000000000003,9.4,-2.0,-1.8000000000000003,1.6,16
339,5753.0,0.0,-0.1,-0.1,0.7000000000000001,2.3000000000000003,9.4,-1.5,-0.2,1.6,16
340,5769.0,0.0,-0.1,-0.1,0.8,2.3000000000000003,9.4,-0.1,0.6000000000000001,1.7,16
341,5786.0,0.1,-0.1,-0.1,0.8,2.2,9.3,0.8,1.0,1.3,16
342,5803.0,0.1,-0.1,-0.2,0.8,2.2,9.3,0.0,1.1,0.1,16
343,5822.0,0.2,-0.2,-0.30000000000000004,0.8,2.2,9.200000000000001,-1.1,0.2,-1.3,16
344,5836.0,0.2,-0.1,-0.30000000000000004,0.8,2.2,9.200000000000001,-1.1,-0.7,-2.6,16
345,5853.0,0.0,-0.1,-0.30000000000000004,0.7000000000000001,2.3000000000000003,9.200000000000001,-0.7,-0.2,-2.6,16
346,5870.0,-0.1,0.0,-0.2,0.6000000000000001,2.3000000000000003,9.4,-1.7,1.9,-1.5,16
347,5886.0,0.0,0.0,0.0,0.6000000000000001,2.3000000000000003,9.600000000000001,-3.2,1.8000000000000003,-1.0,16
348,5903.0,-0.1,0.0,0.1,0.6000000000000001,2.3000000000000003,9.600000000000001,-3.3000000000000007,-1.9,-1.2000000000000002,16
349,5919.0,0.0,0.1,0.2,0.6000000000000001,2.4000000000000004,9.700000000000001,-3.6000000000000005,-5.4,-0.7,16
350,5937.0,-0.1,0.1,0.30000000000000004,0.6000000000000001,2.4000000000000004,9.700000000000001,-3.8,-4.6,-0.2,16
351,5953.0,-0.1,0.1,0.2,0.7000000000000001,2.3000000000000003,9.700000000000001,-3.2,-6.500000000000001,0.1,16
352,5969.0,0.0,0.0,0.2,0.7000000000000001,2.3000000000000003,9.700000000000001,-1.8000000000000003,-8.700000000000001,0.0,16
353,5986.0,0.0,0.0,0.2,0.6000000000000001,2.4000000000000004,9.9,-1.2000000000000002,-5.7,0.8,16
354,6003.0,-0.30000000000000004,0.2,0.2,0.5,2.4000000000000004,9.8,-0.1,-3.0,2.1,16
355,6020.0,-0.2,0.30000000000000004,-0.30000000000000004,0.6000000000000001,2.6,9.3,2.1,-7.500000000000001,3.4,16
356,6036.0,0.0,0.5,-0.7000000000000001,0.8,2.8000000000000003,8.8,1.2000000000000002,-10.5,4.0,16
357,6053.0,0.1,0.8,-0.7000000000000001,0.9,3.0,8.8,-3.9,-6.2,4.0,16
358,6070.0,0.1,0.9,-0.5,0.9,3.1,9.0,-9.3,2.0,4.7,16
359,6086.0,0.0,0.8,0.1,0.9,2.9000000000000004,9.700000000000001,-11.2,7.699999999999999,6.600000000000001,16
360,6103.0,0.1,0.4,0.6000000000000001,1.0,2.7,10.100000000000001,-9.4,9.5,7.6,16
361,6122.0,0.2,-0.1,0.8,1.1,2.1,10.4,-5.2,7.1000000000000005,6.2,16
362,6136.0,0.2,-0.4,1.0,1.0,1.6,10.5,-0.1,2.8,3.2,16
363,6153.0,0.2,-0.7000000000000001,1.0,1.0,1.5,10.600000000000001,5.2,-0.5,0.1,16
364,6170.0,0.1,-0.9,1.0,0.9,1.3,10.4,11.2,-4.0,-2.6,16
365,6186.0,0.2,-1.0,0.6000000000000001,1.0,1.2000000000000002,9.9,18.3,-8.5,-4.800000000000001,16
366,6203.0,0.2,-1.0,0.0,1.1,1.3,9.5,23.2,-11.900000000000002,-6.600000000000001,16
367,6221.0,0.30000000000000004,-0.9,-0.4,1.1,1.6,9.0,23.3,-12.0,-7.6,16
368,6238.0,0.2,-0.8,-0.6000000000000001,1.0,1.7000000000000002,8.9,20.400000000000002,-7.1000000000000005,-8.5,16
369,6253.0,0.0,-0.7000000000000001,-0.5,0.8,1.8,9.0,17.799999999999997,0.1,-9.600000000000001,16
370,6270.0,-0.4,-0.5,-0.2,0.4,2.1,9.3,19.400000000000002,4.9,-10.700000000000001,16
371,6286.0,-0.7000000000000001,-0.30000000000000004,-0.1,-0.1,2.6,9.200000000000001,24.599999999999998,5.300000000000001,-10.9,16
372,6303.0,-1.0,0.0,-0.30000000000000004,-0.2,2.8000000000000003,9.0,29.1,4.0,-9.899999999999999,16
373,6326.0,-0.9,0.5,-1.1,0.0,3.4000000000000004,8.200000000000001,27.0,-0.8,-4.7,16
374,6336.0,-0.9,0.5,-1.1,0.1,3.5,8.0,21.1,-3.9,-2.3,16
375,6353.0,-0.7000000000000001,0.7000000000000001,-1.4000000000000001,0.2,3.7,7.9,13.399999999999999,-4.300000000000001,0.2,16
376,6370.0,-0.5,0.9,-1.5,0.6000000000000001,4.0,7.7,3.0,-3.1,3.1,16
377,6386.0,-0.2,1.1,-1.6,0.9,4.1000000000000005,7.7,-8.700000000000001,-0.6000000000000001,6.2,16
378,6403.0,0.30000000000000004,1.0,-1.2000000000000002,1.1,4.1000000000000005,7.9,-19.799999999999997,4.5,9.700000000000001,16
379,6420.0,0.4,0.7000000000000001,-0.4,1.2000000000000002,3.7,8.8,-28.1,12.5,13.000000000000002,16
380,6437.0,0.4,0.30000000000000004,0.2,1.2000000000000002,3.1,9.600000000000001,-31.2,15.700000000000001,14.700000000000001,16
381,6453.0,0.4,-0.2,0.7000000000000001,1.2000000000000002,2.7,9.9,-29.1,13.5,14.5,16
382,6469.0,0.5,-0.7000000000000001,1.2000000000000002,1.2000000000000002,2.0,10.600000000000001,-23.6,10.9,12.5,16
383,6488.0,0.5,-1.0,1.3,1.2000000000000002,1.5,10.700000000000001,-15.8,5.6,8.3,16
384,6503.0,0.5,-1.2000000000000002,1.1,1.2000000000000002,1.4000000000000001,10.600000000000001,-7.300000000000001,-2.0,3.7000000000000006,16
385,6522.0,0.4,-1.1,0.7000000000000001,1.1,1.4000000000000001,10.0,-0.30000000000000004,-9.600000000000001,0.0,16
386,6536.0,0.30000000000000004,-1.0,0.0,1.1,1.6,9.200000000000001,3.0,-13.700000000000001,-2.3,16
387,6554.0,0.2,-0.8,-0.5,1.0,1.8,8.6,2.6,-13.6,-3.3000000000000007,16
388,6569.0,0.1,-0.7000000000000001,-0.9,0.9,1.9000000000000001,8.5,0.0,-10.299999999999999,-4.0,16
389,6586.0,-0.1,-0.4,-1.0,0.6000000000000001,2.2,8.5,-4.2,-4.7,-4.2,16
390,6603.0,-0.4,-0.2,-0.8,0.5,2.3000000000000003,8.700000000000001,-7.699999999999999,2.6,-4.1,16
391,6624.0,-0.6000000000000001,-0.1,-0.5,0.1,2.4000000000000004,9.0,-7.300000000000001,7.400000000000001,-3.5,16
392,6638.0,-0.9,0.1,-0.4,-0.2,2.8000000000000003,9.0,-4.2,8.8,-1.9,16
393,6653.0,-1.1,0.4,-0.5,-0.30000000000000004,2.9000000000000004,8.9,-2.6,9.4,0.9000000000000001,16
394,6669.0,-1.2000000000000002,0.6000000000000001,-0.5,-0.4,3.1,9.0,-5.1000000000000005,11.4,4.5,16
395,6687.0,-1.2000000000000002,0.7000000000000001,-0.5,-0.30000000000000004,3.1,8.9,-9.899999999999999,12.600000000000001,8.3,16
396,6703.0,-1.0,0.7000000000000001,-0.6000000000000001,-0.2,3.0,8.9,-15.100000000000001,9.4,11.700000000000001,16
397,6719.0,-0.8,0.5,-0.6000000000000001,0.0,2.8000000000000003,9.0,-27.400000000000002,4.800000000000001,16.1,16
398,6736.0,-0.7000000000000001,0.5,-0.5,0.0,2.7,9.4,-32.2,8.100000000000001,17.7,16
399,6753.0,-0.7000000000000001,0.4,-0.1,-0.1,2.6,9.8,-33.50000000000001,15.8,20.5,16
400,6769.0,-1.3,0.4,1.2000000000000002,-0.6000000000000001,2.5,10.700000000000001,-31.099999999999998,22.9,25.1,16
401,6786.0,-1.3,0.4,1.2000000000000002,-0.8,2.3000000000000003,10.9,-27.2,21.200000000000003,30.1,16
402,6803.0,-1.4000000000000001,0.2,1.5,-0.8,2.2,11.100000000000001,-22.700000000000003,16.6,32.9,16
403,6820.0,-1.3,0.1,1.6,-0.8,1.9000000000000001,11.200000000000001,-18.0,12.4,33.800000000000004,16
404,6837.0,-1.3,0.2,1.5,-0.8,2.0,11.100000000000001,-13.900000000000002,9.0,33.1,16
405,6853.0,-1.4000000000000001,0.30000000000000004,1.4000000000000001,-0.9,2.1,11.0,-9.700000000000001,4.4,32.6,16
406,6869.0,-1.2000000000000002,0.5,1.3,-0.7000000000000001,2.2,11.0,-1.9,-0.4,33.2,16
407,6886.0,-1.1,0.6000000000000001,1.1,-0.5,2.3000000000000003,10.600000000000001,7.200000000000001,0.8,35.2,16
408,6903.0,-0.9,0.6000000000000001,0.30000000000000004,-0.4,2.3000000000000003,10.0,10.600000000000001,5.0,37.800000000000004,16
409,6922.0,-0.7000000000000001,0.6000000000000001,-0.30000000000000004,-0.2,2.3000000000000003,9.3,7.699999999999999,6.699999999999999,39.599999999999994,16
410,6939.0,-0.6000000000000001,0.5,-0.5,0.0,2.2,9.1,1.4,9.4,41.300000000000004,16
411,6953.0,-0.4,0.4,-0.6000000000000001,0.2,2.2,9.0,-5.4,9.8,42.2,16
412,6969.0,-0.2,0.30000000000000004,-0.7000000000000001,0.5,2.0,8.9,-10.9,8.5,42.0,16
413,6996.0,0.30000000000000004,0.0,-1.3,0.9,1.6,8.3,-21.400000000000002,5.8,36.400000000000006,16
414,7004.0,0.30000000000000004,0.0,-1.3,0.9,1.6,8.3,-21.400000000000002,5.8,36.400000000000006,16
415,7021.0,0.4,0.0,-1.3,1.0,1.6,8.4,-27.700000000000003,8.600000000000001,32.8,16
416,7036.0,0.4,0.1,-1.2000000000000002,0.9,1.6,8.5,-31.099999999999998,15.6,30.000000000000004,16
417,7053.0,0.30000000000000004,0.1,-1.1,0.7000000000000001,1.5,8.6,-31.6,27.0,29.1,16
418,7069.0,0.0,0.2,-0.9,0.2,1.5,9.200000000000001,-30.9,40.0,31.0,16
419,7086.0,-0.2,0.2,-0.1,0.0,1.3,10.100000000000001,-26.200000000000003,51.70000000000001,35.5,16
420,7103.0,-0.2,0.1,0.6000000000000001,0.0,1.2000000000000002,10.5,-13.5,58.3,41.1,16
421,7122.0,0.30000000000000004,0.1,0.6000000000000001,0.2,1.2000000000000002,10.5,22.000000000000004,53.400000000000006,50.1,16
422,7136.0,0.30000000000000004,0.1,0.6000000000000001,0.4,1.1,9.8,22.000000000000004,53.400000000000006,50.1,16
423,7153.0,0.7000000000000001,0.0,0.0,0.6000000000000001,1.2000000000000002,9.5,31.799999999999997,37.50000000000001,47.400000000000006,16
424,7169.0,1.2000000000000002,0.1,-1.2000000000000002,0.8,1.5,8.6,23.400000000000002,23.3,42.3,16
425,7186.0,1.2000000000000002,0.1,-1.2000000000000002,1.1,1.6,8.3,11.3,5.8,35.5,16
426,7203.0,1.5,0.2,-1.4000000000000001,1.2000000000000002,1.6,8.5,1.4,-7.9,28.400000000000002,16
427,7224.0,1.6,0.30000000000000004,-0.2,1.2000000000000002,1.8,9.4,-1.7,-13.3,24.0,16
428,7237.0,1.7000000000000002,0.7000000000000001,0.30000000000000004,1.4000000000000001,2.2,10.0,3.1,-17.7,23.400000000000002,16
429,7253.0,2.0,1.3,0.2,1.6,2.6,10.0,9.8,-23.0,25.4,16
430,7269.0,2.4000000000000004,1.6,-0.4,2.2,3.1,9.3,9.3,-26.1,26.9,16
431,7286.0,2.6,1.7000000000000002,-0.5,2.5,3.3000000000000003,9.200000000000001,-3.0,-18.5,25.300000000000004,16
432,7303.0,2.4000000000000004,1.7000000000000002,-0.30000000000000004,2.4000000000000004,3.2,9.3,-20.8,-5.6,21.1,16
433,7319.0,1.8,1.5,0.5,1.6,3.0,10.4,-32.1,4.0,17.0,16
434,7336.0,1.0,1.3,1.6,0.7000000000000001,2.6,11.600000000000001,-30.799999999999997,11.000000000000002,15.8,16
435,7353.0,0.5,1.2000000000000002,2.1,0.5,2.5,11.8,-21.400000000000002,16.8,16.0,16
436,7369.0,0.4,1.0,1.8,0.30000000000000004,2.3000000000000003,11.4,-8.8,14.400000000000002,15.2,16
437,7386.0,0.7000000000000001,1.0,1.1,0.7000000000000001,2.2,10.5,5.2,-1.3,11.700000000000001,16
438,7403.0,0.9,1.1,0.4,0.8,2.3000000000000003,10.0,14.0,-17.9,6.0,16
439,7419.0,1.1,1.3,-0.2,1.1,2.7,9.3,13.100000000000001,-23.2,0.5,16
440,7436.0,1.2000000000000002,1.4000000000000001,-1.0,1.3,2.8000000000000003,8.6,8.2,-27.2,-3.3000000000000007,16
441,7453.0,1.4000000000000001,1.4000000000000001,-1.1,1.5,2.8000000000000003,8.6,4.5,-34.0,-6.0,16
442,7469.0,1.5,1.4000000000000001,-0.9,1.7000000000000002,2.6,8.9,3.7000000000000006,-35.1,-8.2,16
443,7486.0,1.5,1.2000000000000002,-0.7000000000000001,1.7000000000000002,2.5,9.3,5.300000000000001,-28.600000000000005,-9.4,16
444,7503.0,1.3,1.1,-0.4,1.6,2.4000000000000004,9.5,10.0,-19.200000000000003,-9.700000000000001,16
445,7520.0,1.1,0.9,-0.1,1.3,2.3000000000000003,9.700000000000001,22.4,1.1,-7.200000000000001,16
446,7536.0,0.8,0.8,0.0,0.8,2.2,9.700000000000001,24.599999999999998,11.3,-5.2,16
447,7553.0,0.30000000000000004,0.6000000000000001,0.1,0.5,2.1,9.9,24.900000000000002,21.500000000000004,-2.5,16
448,7569.0,-0.8,0.2,0.8,-0.4,1.8,10.3,23.800000000000004,30.1,1.9,16
449,7586.0,-0.8,0.2,0.8,-1.1,1.8,10.8,23.6,31.2,6.500000000000001,16
450,7603.0,-1.4000000000000001,-0.2,1.5,-1.2000000000000002,1.7000000000000002,11.100000000000001,24.400000000000002,26.6,11.4,16
451,7620.0,-1.4000000000000001,-0.2,1.2000000000000002,-1.4000000000000001,1.6,11.0,26.000000000000004,14.800000000000002,16.3,16
452,7636.0,-1.2000000000000002,-0.1,0.5,-1.2000000000000002,1.9000000000000001,10.100000000000001,23.5,0.1,19.9,16
453,7653.0,-1.1,0.2,-0.1,-1.2000000000000002,2.1,9.700000000000001,11.700000000000001,-3.5,23.800000000000004,16
454,7669.0,-1.1,0.2,-0.7000000000000001,-1.0,2.2,8.9,-6.1000000000000005,1.7,27.2,16
455,7686.0,-1.2000000000000002,0.1,-0.8,-1.2000000000000002,2.0,9.0,-25.1,9.4,28.700000000000003,16
456,7703.0,-1.4000000000000001,-0.30000000000000004,0.0,-1.3,1.7000000000000002,9.5,-38.300000000000004,21.300000000000004,28.400000000000002,16
457,7720.0,-1.6,-0.6000000000000001,0.8,-1.7000000000000002,1.2000000000000002,10.4,-35.2,25.6,27.099999999999998,16
458,7736.0,-1.7000000000000002,-0.6000000000000001,0.9,-1.6,1.2000000000000002,10.4,-14.700000000000001,14.900000000000002,26.200000000000003,16
459,7753.0,-1.3,-0.4,0.0,-1.4000000000000001,1.3,9.600000000000001,12.200000000000001,-0.8,26.400000000000006,16
460,7769.0,-0.9,-0.1,-1.3,-0.9,1.8,8.0,30.4,-13.8,27.2,16
461,7786.0,-0.6000000000000001,0.4,-2.8000000000000003,-0.4,2.5,6.300000000000001,29.900000000000006,-15.100000000000001,28.700000000000003,16
462,7803.0,-0.2,0.7000000000000001,-3.7,-0.2,2.6,5.800000000000001,11.700000000000001,-7.200000000000001,29.200000000000003,16
463,7820.0,-0.1,0.7000000000000001,-4.1000000000000005,-0.1,2.6,5.7,-11.700000000000001,2.3,28.400000000000002,16
464,7838.0,-0.30000000000000004,0.7000000000000001,-3.1,-0.4,2.5,7.300000000000001,-29.0,13.6,28.200000000000003,16
465,7853.0,-0.5,0.6000000000000001,-2.0,-0.6000000000000001,2.3000000000000003,7.800000000000001,-31.9,24.3,30.3,16
466,7869.0,-0.8,0.6000000000000001,-1.4000000000000001,-0.9,2.3000000000000003,8.6,-22.000000000000004,26.200000000000003,35.3,16
467,7886.0,-0.8,0.7000000000000001,-1.0,-0.7000000000000001,2.4000000000000004,8.4,-6.0,25.900000000000002,41.300000000000004,16
468,7903.0,-0.5,0.7000000000000001,-1.4000000000000001,-0.5,2.4000000000000004,8.1,7.500000000000001,23.3,46.300000000000004,16
469,7922.0,0.1,1.0,-2.3000000000000003,-0.2,2.6,7.5,7.6,13.3,47.80000000000001,16
470,7936.0,0.1,1.0,-2.3000000000000003,0.1,2.8000000000000003,7.300000000000001,-2.9,11.1,45.0,16
471,7953.0,0.30000000000000004,1.1,-2.4000000000000004,0.2,2.8000000000000003,7.4,-12.100000000000001,6.0,41.4,16
472,7969.0,0.30000000000000004,1.4000000000000001,-1.6,0.2,3.0,7.9,-18.0,2.2,38.7,16
473,7986.0,0.30000000000000004,1.4000000000000001,-1.6,0.1,3.2,8.3,-24.400000000000002,2.6,36.300000000000004,16
474,8003.0,0.1,1.5,-1.0,0.0,3.1,8.4,-31.3,3.1,33.7,16
475,8019.0,-0.2,1.4000000000000001,-0.1,-0.30000000000000004,2.9000000000000004,9.5,-34.1,5.300000000000001,32.6,16
476,8036.0,-0.4,1.3,0.8,-0.6000000000000001,2.7,10.600000000000001,-28.800000000000004,5.9,32.300000000000004,16
477,8053.0,-0.4,1.2000000000000002,1.3,-0.6000000000000001,2.6,10.9,-17.300000000000004,2.3,31.9,16
478,8069.0,-0.2,1.1,1.5,-0.30000000000000004,2.4000000000000004,11.3,-6.2,-1.3,29.700000000000006,16
479,8086.0,0.1,1.1,1.5,0.0,2.4000000000000004,11.200000000000001,0.5,-3.8,25.8,16
480,8103.0,0.1,1.1,1.3,0.0,2.4000000000000004,11.100000000000001,2.2,-7.8,21.200000000000003,16
481,8122.0,0.1,1.0,1.5,0.0,2.2,11.3,-1.0,-10.0,16.900000000000002,16
482,8138.0,0.0,0.7000000000000001,1.9000000000000001,-0.1,1.9000000000000001,11.9,-7.200000000000001,-8.100000000000001,13.5,16
483,8154.0,0.0,0.5,2.4000000000000004,-0.1,1.7000000000000002,12.200000000000001,-11.6,-8.4,10.9,16
484,8169.0,0.1,0.30000000000000004,3.2,0.1,1.4000000000000001,13.100000000000001,-9.8,-12.5,7.6,16
485,8186.0,0.30000000000000004,0.1,3.5,0.5,1.2000000000000002,13.0,0.8,-19.700000000000003,3.6000000000000005,16
486,8203.0,0.6000000000000001,0.1,2.9000000000000004,0.8,1.3,12.5,15.000000000000002,-26.799999999999997,-0.9000000000000001,16
487,8220.0,0.8,0.4,2.3000000000000003,1.0,1.8,11.700000000000001,19.5,-21.0,-5.300000000000001,16
488,8239.0,0.6000000000000001,0.8,1.3,0.5,2.1,10.8,12.0,-5.500000000000001,-7.6,16
489,8253.0,0.1,0.7000000000000001,1.2000000000000002,0.2,1.9000000000000001,11.0,-2.7,11.6,-7.400000000000001,16
490,8269.0,-0.5,0.2,2.0,-0.5,1.2000000000000002,12.3,-13.8,27.800000000000004,-4.9,16
491,8286.0,-0.6000000000000001,-0.4,3.0,-0.4,0.5,13.100000000000001,-7.500000000000001,32.0,-2.6,16
492,8303.0,-0.4,-0.8,3.3000000000000003,-0.2,0.30000000000000004,12.700000000000001,14.700000000000001,24.200000000000003,-3.1,16
493,8320.0,0.0,-1.0,2.1,0.2,0.6000000000000001,10.8,59.300000000000004,-9.100000000000001,-9.8,16
494,8338.0,0.4,-0.1,-1.1,0.4,1.4000000000000001,8.9,51.50000000000001,-6.0,-11.6,16
495,8353.0,0.4,-0.1,-1.1,0.4,1.8,7.800000000000001,27.800000000000004,-3.8,-11.8,16
496,8369.0,0.2,0.30000000000000004,-1.9000000000000001,0.2,2.1,7.6000000000000005,4.300000000000001,-2.7,-9.8,16
497,8386.0,0.2,0.30000000000000004,-1.9000000000000001,0.2,1.7000000000000002,8.4,-8.8,-0.30000000000000004,-7.699999999999999,16
498,8403.0,0.1,-0.4,-0.9,0.2,1.4000000000000001,8.6,-11.4,0.5,-6.8,16
499,8421.0,-0.2,-0.5,-0.30000000000000004,-0.2,1.2000000000000002,9.3,-6.8,4.9,-5.500000000000001,16
500,8436.0,-0.2,-0.5,-0.30000000000000004,-0.8,1.2000000000000002,9.600000000000001,2.8,10.1,-2.6,16
501,8453.0,-0.9,-0.5,-0.30000000000000004,-0.9,1.2000000000000002,9.4,15.899999999999999,7.1000000000000005,2.2,16
502,8469.0,-1.0,-0.4,-0.7000000000000001,-1.1,1.3,9.0,27.700000000000003,0.6000000000000001,7.400000000000001,16
503,8486.0,-0.9,-0.30000000000000004,-1.2000000000000002,-1.0,1.5,8.3,33.7,-5.2,12.100000000000001,16
504,8504.0,-0.9,-0.2,-1.7000000000000002,-0.8,1.8,7.7,33.800000000000004,-10.9,17.200000000000003,16
505,8524.0,-0.7000000000000001,-0.1,-2.2,-0.7000000000000001,1.9000000000000001,7.4,31.9,-17.5,21.8,16
506,8536.0,-0.4,0.0,-2.5,-0.2,2.2,7.0,27.2,-22.2,26.200000000000003,16
507,8553.0,-0.1,0.1,-2.7,0.0,2.3000000000000003,6.9,17.200000000000003,-20.1,29.700000000000006,16
508,8569.0,0.0,0.2,-2.5,0.2,2.5,7.2,4.800000000000001,-13.100000000000001,32.400000000000006,16
509,8586.0,-0.1,0.30000000000000004,-2.0,0.1,2.5,7.800000000000001,-4.1,-6.699999999999999,35.599999999999994,16
510,8603.0,-0.2,0.30000000000000004,-1.6,0.0,2.5,8.0,-9.2,-1.3,39.300000000000004,16
511,8619.0,-0.30000000000000004,0.30000000000000004,-1.2000000000000002,-0.1,2.5,8.5,-12.8,2.8,42.3,16
512,8636.0,-0.4,0.30000000000000004,-0.7000000000000001,-0.2,2.4000000000000004,9.200000000000001,-14.900000000000002,7.1000000000000005,44.5,16
513,8653.0,-0.5,0.30000000000000004,-0.2,-0.2,2.4000000000000004,9.5,-14.0,9.0,45.6,16
514,8669.0,-0.4,0.2,0.2,-0.1,2.2,9.8,-7.8,5.2,45.3,16
515,8686.0,-0.4,0.1,0.30000000000000004,0.1,2.2,9.9,1.7,-2.8,44.00000000000001,16
516,8703.0,-0.2,0.2,0.2,0.2,2.3000000000000003,9.700000000000001,10.299999999999999,-8.899999999999999,42.5,16
517,8721.0,0.0,0.30000000000000004,0.0,0.4,2.5,9.5,15.299999999999999,-7.1000000000000005,38.900000000000006,16
518,8737.0,-0.1,0.4,0.0,0.30000000000000004,2.5,9.5,12.7,-2.2,37.400000000000006,16
519,8754.0,-0.30000000000000004,0.30000000000000004,0.0,0.1,2.5,9.8,10.9,4.1,36.5,16
520,8769.0,-0.9,0.1,0.7000000000000001,-0.2,2.3000000000000003,10.3,11.3,11.700000000000001,35.599999999999994,16
521,8786.0,-0.9,0.1,0.7000000000000001,-0.6000000000000001,2.0,10.700000000000001,14.300000000000002,16.6,35.1,16
522,8803.0,-1.5,-0.30000000000000004,2.0,-0.9,2.0,11.200000000000001,22.4,20.900000000000002,35.1,16
523,8819.0,-1.8,-0.4,2.3000000000000003,-1.3,1.9000000000000001,11.8,35.599999999999994,22.700000000000003,38.60000000000001,16
524,8838.0,-1.7000000000000002,-0.4,1.8,-1.2000000000000002,2.1,11.200000000000001,47.900000000000006,17.9,43.800000000000004,16
525,8853.0,-1.4000000000000001,-0.30000000000000004,0.9,-1.1,2.1,10.700000000000001,48.800000000000004,16.900000000000002,47.900000000000006,16
526,8869.0,-1.0,-0.2,-0.5,-0.6000000000000001,2.5,8.9,30.000000000000004,20.5,48.800000000000004,16
527,8886.0,-0.9,-0.1,-1.3,-0.6000000000000001,2.6,8.1,-5.500000000000001,27.700000000000003,47.400000000000006,16
528,8903.0,-1.2000000000000002,-0.30000000000000004,-1.1,-0.8,2.4000000000000004,8.200000000000001,-47.900000000000006,40.2,44.7,16
529,8920.0,-1.9000000000000001,-0.8,0.6000000000000001,-1.8,1.6,10.3,-81.4,55.2,42.3,16
530,8937.0,-2.6,-1.4000000000000001,2.6,-2.7,0.8,12.8,-85.9,60.7,41.199999999999996,16
531,8953.0,-2.9000000000000004,-1.6,3.9000000000000004,-2.8000000000000003,0.5,13.5,-58.1,52.400000000000006,41.4,16
532,8969.0,-2.7,-1.4000000000000001,3.2,-2.8000000000000003,0.6000000000000001,12.3,-9.5,29.500000000000004,44.4,16
533,8986.0,-2.2,-0.9,0.8,-2.1,1.4000000000000001,9.4,37.0,-5.1000000000000005,47.5,16
534,9004.0,-1.6,-0.30000000000000004,-1.2000000000000002,-1.3,2.2,7.300000000000001,60.2,-29.0,49.800000000000004,16
535,9020.0,-1.2000000000000002,0.2,-2.7,-0.9,2.6,6.2,51.4,-23.3,52.400000000000006,16
536,9036.0,-0.7000000000000001,0.4,-4.2,-0.5,2.8000000000000003,5.1000000000000005,25.200000000000003,-10.200000000000001,54.4,16
537,9053.0,-0.6000000000000001,0.4,-4.3,-0.5,2.8000000000000003,5.300000000000001,0.8,-7.500000000000001,57.3,16
538,9069.0,-0.7000000000000001,0.2,-3.7,-0.5,2.5,6.2,-17.5,-0.9000000000000001,62.300000000000004,16
539,9086.0,-0.9,0.0,-2.9000000000000004,-0.7000000000000001,2.1,7.0,-28.900000000000002,13.3,68.5,16
540,9103.0,-1.0,-0.30000000000000004,-2.4000000000000004,-0.8,1.8,7.5,-33.7,28.200000000000003,74.4,16
541,9125.0,-1.0,-0.8,-1.0,-0.7000000000000001,1.3,8.700000000000001,-19.400000000000002,39.8,82.2,16
542,9137.0,-1.0,-0.8,-1.0,-0.5,1.2000000000000002,8.700000000000001,-2.6,34.2,84.1,16
543,9154.0,-0.7000000000000001,-0.8,-1.0,-0.1,1.5,7.9,10.4,22.700000000000003,83.4,16
544,9169.0,0.1,-0.2,-2.3000000000000003,0.1,1.8,7.5,10.8,12.100000000000001,79.1,16
545,9186.0,0.1,-0.2,-2.3000000000000003,0.4,2.3000000000000003,7.1000000000000005,-2.2,11.3,73.10000000000001,16
546,9203.0,0.30000000000000004,0.5,-2.3000000000000003,0.4,2.5,7.2,-19.5,16.4,68.1,16
547,9220.0,0.2,0.7000000000000001,-1.8,0.4,2.7,7.800000000000001,-32.6,18.0,64.2,16
548,9236.0,0.1,0.8,-1.2000000000000002,0.2,2.8000000000000003,8.6,-40.800000000000004,17.200000000000003,61.0,16
549,9253.0,0.0,0.9,-0.5,0.1,2.7,9.0,-44.10000000000001,16.900000000000002,57.800000000000004,16
550,9269.0,-0.1,0.8,0.4,0.0,2.5,10.100000000000001,-40.300000000000004,19.1,54.199999999999996,16
551,9286.0,-0.1,0.7000000000000001,1.2000000000000002,0.0,2.2,11.0,-29.200000000000003,22.6,49.9,16
552,9303.0,0.0,0.8,1.5,0.1,2.3000000000000003,11.200000000000001,-11.4,21.400000000000002,45.0,16
553,9321.0,0.1,0.9,1.5,0.1,2.4000000000000004,11.100000000000001,8.5,14.200000000000001,41.50000000000001,16
554,9336.0,0.2,1.1,1.0,0.2,2.8000000000000003,10.5,22.3,5.6,39.300000000000004,16
555,9353.0,0.30000000000000004,1.3,0.5,0.30000000000000004,2.8000000000000003,10.200000000000001,22.8,1.9,37.0,16
556,9369.0,0.2,1.2000000000000002,0.4,0.1,2.9000000000000004,10.100000000000001,10.5,7.699999999999999,35.0,16
557,9386.0,-0.2,0.9,1.0,-0.6000000000000001,2.3000000000000003,11.3,-9.0,16.8,32.7,16
558,9403.0,-0.7000000000000001,0.4,2.2,-0.8,2.0,12.100000000000001,-20.8,22.1,31.6,16
559,9419.0,-0.5,0.1,3.6,-0.6000000000000001,1.5,13.4,-17.1,14.700000000000001,29.900000000000006,16
560,9436.0,-0.2,-0.1,3.3000000000000003,-0.1,1.5,12.3,-0.7,-10.4,27.5,16
561,9453.0,0.1,0.1,2.4000000000000004,0.1,1.8,12.0,12.4,-35.1,23.2,16
562,9472.0,0.5,0.7000000000000001,1.8,0.5,2.4000000000000004,11.0,-8.700000000000001,-18.0,18.200000000000003,16
563,9486.0,0.4,0.9,1.1,0.30000000000000004,2.4000000000000004,10.8,-8.700000000000001,-18.0,18.200000000000003,16
564,9503.0,0.1,0.7000000000000001,1.1,0.2,2.0,10.9,-31.9,6.0,18.900000000000002,16
565,9519.0,-0.2,0.0,1.7000000000000002,-0.4,0.8,12.4,-59.9,38.300000000000004,16.3,16
566,9536.0,-0.6000000000000001,-0.8,3.5,-0.4,-0.1,14.3,-34.60000000000001,27.6,11.3,16
567,9553.0,-0.4,-1.3,4.5,-0.2,-0.4,14.100000000000001,6.4,-2.0,3.8,16
568,9569.0,0.6000000000000001,-0.9,2.0,0.4,0.0,12.100000000000001,42.0,-30.200000000000003,-5.0,16
569,9586.0,0.6000000000000001,-0.9,2.0,0.7000000000000001,1.0,10.100000000000001,54.4,-32.300000000000004,-11.6,16
570,9603.0,0.7000000000000001,0.30000000000000004,-1.3,0.8,1.4000000000000001,9.0,45.3,-22.8,-15.5,16
571,9619.0,0.7000000000000001,0.5,-2.2,0.8,2.0,7.5,29.300000000000004,-18.0,-17.400000000000002,16
572,9637.0,0.6000000000000001,0.30000000000000004,-2.3000000000000003,0.7000000000000001,1.8,7.4,14.100000000000001,-11.3,-17.7,16
573,9653.0,0.2,0.1,-1.6,0.5,1.8,7.800000000000001,2.9,4.9,-16.6,16
574,9669.0,-0.2,-0.30000000000000004,-0.6000000000000001,0.0,1.3,9.0,2.9,24.5,-14.100000000000001,16
575,9686.0,-0.5,-0.7000000000000001,-0.4,-0.5,0.8,9.4,15.000000000000002,30.9,-10.9,16
576,9703.0,-0.7000000000000001,-0.8,-0.2,-0.6000000000000001,0.9,9.5,34.400000000000006,25.900000000000002,-6.500000000000001,16
577,9719.0,-0.5,-0.8,-0.8,-0.5,0.9,8.700000000000001,53.9,10.9,-2.1,16
578,9736.0,0.0,-0.9,-1.7000000000000002,0.0,1.1,7.800000000000001,65.10000000000001,-6.500000000000001,-0.1,16
579,9753.0,0.4,-0.8,-2.1,0.30000000000000004,1.2000000000000002,7.5,61.8,-8.5,0.30000000000000004,16
580,9769.0,0.7000000000000001,-0.7000000000000001,-2.6,0.7000000000000001,1.6,6.9,47.7,-2.9,0.30000000000000004,16
581,9786.0,0.6000000000000001,-0.5,-2.6,0.5,2.0,7.2,27.099999999999998,1.6,0.9000000000000001,16
582,9803.0,0.4,-0.5,-2.1,0.30000000000000004,1.9000000000000001,7.5,5.8,4.800000000000001,3.2,16
583,9820.0,0.1,-0.7000000000000001,-1.2000000000000002,0.0,1.6,8.9,-9.100000000000001,4.2,6.4,16
584,9838.0,0.0,-1.0,0.0,-0.1,1.3,9.9,-11.4,5.0,9.3,16
585,9853.0,-0.1,-1.2000000000000002,0.4,-0.2,1.2000000000000002,10.0,-2.7,4.0,11.2,16
586,9869.0,-0.30000000000000004,-1.0,0.4,-0.5,1.5,9.700000000000001,10.700000000000001,1.0,13.100000000000001,16
587,9886.0,-0.4,-0.8,-0.1,-0.4,1.8,8.9,21.0,-2.8,15.100000000000001,16
588,9903.0,-0.4,-0.6000000000000001,-0.7000000000000001,-0.4,2.0,8.700000000000001,22.700000000000003,-4.1,15.399999999999999,16
589,9919.0,-0.4,-0.4,-0.9,-0.6000000000000001,2.4000000000000004,8.5,13.200000000000003,-3.2,16.8,16
590,9936.0,-0.5,-0.1,-0.9,-0.7000000000000001,2.7,8.6,7.400000000000001,-4.800000000000001,19.9,16
591,9953.0,-0.7000000000000001,0.1,-0.9,-0.7000000000000001,2.8000000000000003,8.700000000000001,0.5,-4.2,23.099999999999998,16
592,9969.0,-0.7000000000000001,0.1,-0.6000000000000001,-0.7000000000000001,2.7,8.8,-6.300000000000001,-2.2,25.0,16
593,9992.0,-0.9,-0.2,-0.30000000000000004,-0.8,2.4000000000000004,9.200000000000001,-11.700000000000001,2.8,24.7,16
594,10007.0,-1.4000000000000001,-0.4,0.4,-1.4000000000000001,2.1,10.100000000000001,-15.299999999999999,13.900000000000002,23.800000000000004,16
595,10020.0,-1.8,-0.6000000000000001,1.2000000000000002,-1.7000000000000002,2.0,10.700000000000001,-13.8,23.900000000000006,24.3,16
596,10036.0,-1.9000000000000001,-0.7000000000000001,1.9000000000000001,-1.9000000000000001,1.8,11.4,-5.0,23.3,25.300000000000004,16
597,10053.0,-1.7000000000000002,-0.9,1.7000000000000002,-1.8,1.7000000000000002,11.3,8.899999999999999,13.100000000000001,25.6,16
598,10069.0,-1.4000000000000001,-0.7000000000000001,1.3,-1.4000000000000001,1.8,10.700000000000001,16.6,3.4,24.7,16
599,10086.0,-0.9,-0.4,0.8,-0.8,2.3000000000000003,10.100000000000001,9.8,7.6,22.3,16
600,10103.0,-0.7000000000000001,-0.2,0.0,-0.8,2.4000000000000004,9.600000000000001,-10.0,18.6,20.0,16
601,10121.0,-0.9,-0.2,-0.2,-1.1,2.3000000000000003,9.4,-37.800000000000004,28.600000000000005,17.9,16
602,10136.0,-1.4000000000000001,-0.6000000000000001,0.9,-1.8,1.6,11.200000000000001,-64.50000000000001,38.800000000000004,16.200000000000003,16
603,10154.0,-2.0,-1.0,3.0,-2.4000000000000004,0.9,13.700000000000001,-69.10000000000001,44.00000000000001,15.6,16
604,10169.0,-2.0,-1.3,4.4,-2.3000000000000003,0.8,14.0,-44.00000000000001,38.900000000000006,16.6,16
605,10186.0,-1.6,-1.1,3.5,-1.7000000000000002,1.1,11.9,0.1,15.5,17.1,16
606,10203.0,-0.9,-0.5,1.3,-1.3,1.6,10.700000000000001,38.900000000000006,-19.700000000000003,15.899999999999999,16
607,10221.0,-0.30000000000000004,0.1,-0.5,-0.5,2.4000000000000004,8.5,54.9,-38.300000000000004,13.700000000000001,16
608,10236.0,0.0,0.6000000000000001,-2.1,0.0,3.2,6.6000000000000005,44.00000000000001,-32.2,13.000000000000002,16
609,10253.0,0.2,0.9,-3.3000000000000003,0.1,3.4000000000000004,6.2,21.500000000000004,-21.900000000000002,12.7,16
610,10269.0,0.2,1.1,-3.2,-0.1,3.5,6.6000000000000005,-0.8,-11.2,14.700000000000001,16
611,10286.0,-0.1,1.0,-2.7,-0.5,3.3000000000000003,7.4,-16.900000000000002,3.2,19.5,16
612,10303.0,-0.4,0.9,-2.0,-0.6000000000000001,3.1,7.7,-24.599999999999998,19.0,26.1,16
613,10320.0,-0.6000000000000001,0.6000000000000001,-1.7000000000000002,-0.8,2.7,8.0,-14.5,25.900000000000002,34.50000000000001,16
614,10336.0,-0.7000000000000001,0.4,-1.4000000000000001,-0.9,2.7,8.4,-14.5,25.900000000000002,34.50000000000001,16
615,10353.0,-0.7000000000000001,0.5,-1.2000000000000002,-0.9,2.7,8.4,12.9,13.399999999999999,39.599999999999994,16
616,10369.0,-0.4,0.7000000000000001,-1.4000000000000001,-0.8,2.9000000000000004,8.200000000000001,21.500000000000004,6.8,43.70000000000001,16
617,10386.0,-0.4,0.7000000000000001,-1.4000000000000001,-0.30000000000000004,3.2,7.7,21.0,1.2000000000000002,47.2,16
618,10403.0,0.5,0.9,-2.0,0.0,3.2,7.5,13.399999999999999,-5.6,48.50000000000001,16
619,10420.0,1.0,0.8,-2.1,0.8,3.2,7.4,2.2,-9.899999999999999,45.7,16
620,10436.0,1.1,0.7000000000000001,-1.8,1.0,3.1,7.800000000000001,-10.0,-8.8,40.300000000000004,16
621,10453.0,0.9,0.6000000000000001,-1.3,1.0,3.0,8.1,-19.200000000000003,-3.2,34.300000000000004,16
622,10469.0,0.6000000000000001,0.6000000000000001,-0.5,0.5,2.9000000000000004,9.0,-21.1,4.7,29.700000000000006,16
623,10486.0,0.0,0.6000000000000001,0.4,-0.2,2.8000000000000003,10.200000000000001,-16.6,17.7,27.3,16
624,10503.0,-0.5,0.5,1.2000000000000002,-0.5,2.7,10.700000000000001,-7.500000000000001,29.900000000000006,25.900000000000002,16
625,10519.0,-0.7000000000000001,0.30000000000000004,1.6,-0.8,2.5,11.100000000000001,7.200000000000001,32.2,24.7,16
626,10537.0,-0.5,0.2,1.3,-0.7000000000000001,2.5,10.600000000000001,25.8,20.3,21.7,16
627,10553.0,-0.30000000000000004,0.4,0.4,-0.5,2.8000000000000003,10.0,39.300000000000004,-3.5,17.799999999999997,16
628,10569.0,0.0,0.8,-0.4,-0.2,3.3000000000000003,9.1,37.6,-20.599999999999998,13.000000000000002,16
629,10586.0,0.0,1.1,-0.9,-0.1,3.7,8.5,20.5,-21.500000000000004,9.899999999999999,16
630,10603.0,-0.1,1.2000000000000002,-0.7000000000000001,-0.30000000000000004,3.7,8.9,0.9000000000000001,-18.200000000000003,8.899999999999999,16
631,10619.0,-0.5,0.9,0.7000000000000001,-0.7000000000000001,3.3000000000000003,10.5,-10.299999999999999,-9.600000000000001,11.4,16
632,10636.0,-0.9,0.5,1.6,-1.0,2.8000000000000003,11.700000000000001,-8.5,-2.1,15.8,16
633,10653.0,-1.1,0.2,2.4000000000000004,-1.0,2.6,11.9,2.5,1.5,19.200000000000003,16
634,10669.0,-0.8,0.0,2.3000000000000003,-0.6000000000000001,2.5,11.4,17.200000000000003,-5.8,20.5,16
635,10686.0,-0.5,0.1,1.6,-0.30000000000000004,3.0,10.5,30.3,-22.3,19.6,16
636,10703.0,-0.30000000000000004,0.5,0.9,0.0,3.3000000000000003,10.0,29.700000000000006,-27.2,18.6,16
637,10719.0,0.1,0.7000000000000001,0.2,0.5,3.5,9.5,-15.8,-9.8,16.5,16
638,10736.0,0.2,0.8,0.2,0.5,3.3000000000000003,10.0,-37.2,-3.7000000000000006,15.2,16
639,10753.0,0.2,0.5,0.6000000000000001,0.5,3.0,10.4,-52.400000000000006,5.0,12.0,16
640,10769.0,-0.30000000000000004,-0.5,2.2,0.2,2.1,11.4,-57.49999999999999,14.800000000000002,6.500000000000001,16
641,10786.0,-0.30000000000000004,-0.5,2.2,-0.5,1.5,13.0,-43.900000000000006,21.6,2.1,16
642,10803.0,-0.9,-1.0,3.5,-0.6000000000000001,1.3,13.200000000000001,-10.9,19.5,-0.5,16
643,10821.0,-0.6000000000000001,-0.9,2.3000000000000003,-0.5,1.2000000000000002,12.100000000000001,29.500000000000004,7.400000000000001,-0.9000000000000001,16
644,10836.0,-0.2,-0.30000000000000004,0.6000000000000001,0.0,2.0,9.9,55.8,-5.1000000000000005,0.1,16
645,10853.0,0.2,0.1,-1.3,0.30000000000000004,2.3000000000000003,8.700000000000001,54.0,-3.7000000000000006,0.5,16
646,10869.0,0.8,0.1,-2.8000000000000003,1.0,2.7,6.7,31.3,0.0,-1.7,16
647,10886.0,1.0,-0.1,-2.9000000000000004,1.2000000000000002,2.5,6.7,6.500000000000001,1.3,-6.4,16
648,10903.0,0.8,-0.4,-1.8,1.1,2.3000000000000003,7.4,-9.899999999999999,7.8,-11.1,16
649,10920.0,0.4,-0.5,-0.9,0.5,2.1,8.6,-13.6,19.1,-13.3,16
650,10936.0,-0.1,-0.6000000000000001,-0.5,-0.2,2.0,9.1,-6.699999999999999,26.1,-12.200000000000001,16
651,10953.0,-0.6000000000000001,-0.7000000000000001,-0.30000000000000004,-0.6000000000000001,1.9000000000000001,9.1,3.7000000000000006,30.9,-8.100000000000001,16
652,10969.0,-0.9,-0.5,-0.4,-1.0,2.1,9.0,11.8,34.800000000000004,-1.9,16
653,10986.0,-0.8,-0.4,-0.7000000000000001,-0.9,2.2,8.700000000000001,17.0,32.400000000000006,4.2,16
654,11002.0,-0.6000000000000001,-0.5,-0.9,-0.8,2.2,8.6,20.599999999999998,24.5,9.2,16
655,11019.0,-0.2,-0.4,-1.2000000000000002,-0.4,2.3000000000000003,8.0,19.700000000000003,17.0,12.100000000000001,16
656,11036.0,0.1,-0.4,-1.7000000000000002,-0.2,2.4000000000000004,7.7,10.1,14.5,12.5,16
657,11052.0,0.1,-0.4,-1.6,-0.4,2.4000000000000004,7.9,-6.0,18.8,12.0,16
658,11069.0,-0.4,-0.30000000000000004,-1.0,-0.9,2.4000000000000004,8.8,-19.300000000000004,24.8,13.700000000000001,16
659,11086.0,-0.5,-0.30000000000000004,-0.2,-1.1,2.3000000000000003,9.4,-22.5,26.1,17.6,16
660,11103.0,-0.6000000000000001,-0.4,0.0,-1.0,2.2,9.5,-17.799999999999997,20.7,22.3,16
661,11120.0,-0.30000000000000004,-0.4,-0.2,-0.7000000000000001,2.2,9.0,-8.0,5.0,24.400000000000002,16
662,11136.0,0.0,-0.5,-0.5,-0.4,2.2,9.0,-8.2,4.6,22.4,16
663,11153.0,0.2,-0.4,-0.4,-0.5,2.2,9.1,-6.2,1.8000000000000003,22.000000000000004,16
664,11169.0,0.1,0.0,-0.5,-0.5,2.5,9.1,-0.8,-7.6,23.2,16
665,11186.0,0.1,0.0,-0.5,-0.30000000000000004,2.7,8.8,3.6000000000000005,-15.899999999999999,24.5,16
666,11203.0,0.30000000000000004,0.30000000000000004,-0.7000000000000001,-0.2,2.8000000000000003,8.700000000000001,4.300000000000001,-18.8,25.5,16
667,11219.0,0.30000000000000004,0.30000000000000004,-0.7000000000000001,0.0,2.9000000000000004,8.8,4.2,-17.400000000000002,25.4,16
668,11236.0,0.2,0.2,-0.4,-0.1,2.8000000000000003,9.1,6.8,-14.100000000000001,25.900000000000002,16
669,11253.0,0.0,0.2,-0.2,-0.30000000000000004,2.8000000000000003,9.3,10.700000000000001,-5.7,26.799999999999997,16
670,11269.0,-0.30000000000000004,0.1,0.0,-0.5,2.7,9.5,11.000000000000002,8.5,28.0,16
671,11286.0,-0.8,0.0,0.7000000000000001,-1.2000000000000002,2.6,10.4,7.400000000000001,25.7,29.1,16
672,11303.0,-1.3,-0.1,1.4000000000000001,-1.5,2.6,10.8,5.0,37.6,30.200000000000003,16
673,11319.0,-1.4000000000000001,-0.4,2.2,-1.7000000000000002,2.3000000000000003,11.700000000000001,8.5,35.5,30.1,16
674,11336.0,-1.3,-0.7000000000000001,2.3000000000000003,-1.8,2.0,11.5,19.1,20.900000000000002,28.700000000000003,16
675,11353.0,-1.1,-0.7000000000000001,1.6,-1.6,2.1,11.0,26.700000000000003,3.2,27.0,16
676,11369.0,-0.9,-0.4,0.8,-1.2000000000000002,2.5,9.9,18.900000000000002,-2.8,24.900000000000002,16
677,11386.0,-0.5,-0.4,-0.4,-0.9,2.5,8.6,-3.6000000000000005,0.6000000000000001,22.000000000000004,16
678,11403.0,-0.6000000000000001,-0.5,-0.8,-1.0,2.4000000000000004,8.6,-33.800000000000004,8.3,16.700000000000003,16
679,11420.0,-1.0,-0.8,-0.1,-1.7000000000000002,1.9000000000000001,9.9,-62.900000000000006,22.000000000000004,10.200000000000001,16
680,11436.0,-1.8,-1.0,1.7000000000000002,-2.8000000000000003,1.5,12.5,-73.7,34.900000000000006,5.500000000000001,16
681,11453.0,-2.4000000000000004,-1.0,3.6,-3.1,1.5,13.3,-57.800000000000004,39.300000000000004,5.300000000000001,16
682,11470.0,-2.6,-0.8,4.0,-3.2,1.6,12.8,-17.5,30.000000000000004,10.700000000000001,16
683,11486.0,-2.3000000000000003,-0.5,2.2,-2.7,2.1,10.0,28.500000000000004,6.2,17.400000000000002,16
684,11503.0,-1.9000000000000001,-0.1,0.0,-2.5,2.5,8.9,58.900000000000006,-19.799999999999997,22.6,16
685,11520.0,-1.6,0.5,-1.4000000000000001,-2.1,3.3000000000000003,7.1000000000000005,34.50000000000001,-9.4,33.7,16
686,11536.0,-1.4000000000000001,0.8,-3.0,-1.6,3.5,5.7,3.4,-1.5,38.1,16
687,11553.0,-1.1,0.7000000000000001,-3.8000000000000003,-1.5,3.4000000000000004,5.7,-23.900000000000006,1.9,41.7,16
688,11569.0,-1.0,0.2,-2.8000000000000003,-1.5,3.0,6.4,-43.2,5.6,45.6,16
689,11586.0,-1.0,0.2,-2.8000000000000003,-1.5,2.6,7.5,-49.699999999999996,8.100000000000001,49.4,16
690,11603.0,-0.9,-0.2,-1.4000000000000001,-1.4000000000000001,2.4000000000000004,7.9,-44.00000000000001,6.699999999999999,53.400000000000006,16
691,11621.0,-0.6000000000000001,-0.30000000000000004,-1.2000000000000002,-1.0,2.1,8.4,-29.600000000000005,2.9,55.5,16
692,11636.0,-0.2,-0.30000000000000004,-1.6,-0.5,2.1,7.9,-13.000000000000002,-4.7,56.50000000000001,16
693,11653.0,0.2,0.0,-2.2,-0.30000000000000004,2.2,7.5,-0.5,-13.900000000000002,56.2,16
694,11669.0,0.5,0.30000000000000004,-2.7,0.2,2.6,6.800000000000001,1.8000000000000003,-16.900000000000002,54.800000000000004,16
695,11686.0,0.7000000000000001,0.6000000000000001,-2.8000000000000003,0.6000000000000001,2.9000000000000004,6.7,-4.5,-11.900000000000002,52.400000000000006,16
696,11703.0,0.8,0.8,-2.6,0.7000000000000001,3.0,6.9,-13.3,-5.0,50.3,16
697,11720.0,0.9,0.8,-2.2,0.8,3.1,7.4,-19.1,-1.1,48.400000000000006,16
698,11737.0,0.8,0.8,-1.7000000000000002,0.7000000000000001,3.0,8.1,-22.700000000000003,1.9,45.6,16
699,11753.0,0.6000000000000001,0.8,-1.1,0.6000000000000001,3.0,8.5,-26.400000000000006,8.3,42.1,16
700,11769.0,0.2,0.8,0.0,0.1,2.8000000000000003,9.8,-28.900000000000002,18.3,39.2,16
701,11786.0,-0.1,0.6000000000000001,0.9,-0.2,2.4000000000000004,10.9,-24.0,24.900000000000002,36.5,16
702,11803.0,-0.1,0.4,1.7000000000000002,-0.2,2.2,11.4,-10.600000000000001,22.3,33.2,16
703,11821.0,0.0,0.2,2.2,-0.1,2.1,11.8,8.100000000000001,13.900000000000002,28.600000000000005,16
704,11836.0,0.1,0.2,2.1,0.0,2.2,11.3,24.7,1.8000000000000003,22.700000000000003,16
705,11853.0,0.1,0.30000000000000004,1.4000000000000001,0.0,2.3000000000000003,10.9,30.1,-11.000000000000002,16.6,16
706,11870.0,0.0,0.4,1.0,-0.2,2.3000000000000003,10.600000000000001,21.400000000000002,-17.200000000000003,10.299999999999999,16
707,11886.0,-0.30000000000000004,0.1,1.2000000000000002,-0.5,2.1,11.4,6.9,-16.900000000000002,5.500000000000001,16
708,11903.0,-0.4,-0.1,2.1,-0.4,2.0,12.0,-3.1,-16.900000000000002,3.2,16
709,11921.0,-0.2,-0.2,2.6,0.0,1.8,12.200000000000001,4.4,-36.0,-1.2000000000000002,16
710,11937.0,0.1,-0.30000000000000004,2.5,0.7000000000000001,2.0,11.9,4.9,-40.1,-6.600000000000001,16
711,11953.0,0.6000000000000001,-0.1,2.2,1.0,2.3000000000000003,11.600000000000001,0.9000000000000001,-40.800000000000004,-12.299999999999999,16
712,11969.0,0.6000000000000001,0.6000000000000001,1.5,1.1,2.7,11.200000000000001,-4.2,-37.800000000000004,-15.5,16
713,11986.0,0.6000000000000001,0.6000000000000001,1.5,0.6000000000000001,2.9000000000000004,11.0,-16.0,-19.0,-14.700000000000001,16
714,12004.0,-0.4,0.5,1.9000000000000001,0.30000000000000004,2.8000000000000003,11.100000000000001,-34.1,18.3,-12.5,16
715,12024.0,-1.0,-0.30000000000000004,3.2,-0.5,1.8,12.600000000000001,-38.60000000000001,49.4,-11.000000000000002,16
716,12039.0,-1.1,-0.8,3.9000000000000004,-0.8,1.1,13.5,-15.5,49.9,-9.600000000000001,16
717,12053.0,-0.8,-1.0,2.9000000000000004,-0.7000000000000001,0.9,13.0,24.8,21.7,-9.3,16
718,12070.0,-0.2,-0.6000000000000001,0.8,-0.1,1.3,10.4,58.0,-18.5,-10.0,16
719,12086.0,0.30000000000000004,-0.2,-0.7000000000000001,0.6000000000000001,2.0,8.5,64.30000000000001,-35.1,-12.5,16
720,12103.0,0.7000000000000001,0.2,-2.4000000000000004,0.9,2.3000000000000003,7.4,41.4,-23.700000000000003,-15.100000000000001,16
721,12120.0,0.8,0.2,-2.9000000000000004,1.1,2.6,6.7,13.5,-15.899999999999999,-18.5,16
722,12138.0,0.5,0.0,-1.7000000000000002,0.9,2.5,7.4,-1.7,-7.500000000000001,-20.3,16
723,12153.0,0.1,-0.2,-0.8,0.5,2.2,8.700000000000001,0.0,2.7,-19.200000000000003,16
724,12169.0,-0.30000000000000004,-0.30000000000000004,-0.5,0.0,2.0,9.0,12.4,8.4,-15.299999999999999,16
725,12186.0,-0.5,-0.5,-0.7000000000000001,-0.2,2.0,8.700000000000001,27.5,7.500000000000001,-9.700000000000001,16
726,12203.0,-0.5,-0.5,-0.9,-0.2,2.1,8.5,38.7,4.7,-4.2,16
727,12219.0,-0.4,-0.4,-1.2000000000000002,-0.1,2.3000000000000003,8.200000000000001,43.2,4.4,0.6000000000000001,16
728,12236.0,-0.2,-0.4,-1.6,0.0,2.4000000000000004,7.800000000000001,40.5,3.8,4.2,16
729,12253.0,-0.1,-0.30000000000000004,-2.0,0.2,2.5,7.4,30.1,2.0,6.500000000000001,16
730,12269.0,-0.1,-0.4,-1.9000000000000001,0.1,2.5,7.800000000000001,13.000000000000002,6.4,8.3,16
731,12286.0,-0.30000000000000004,-0.5,-1.5,-0.4,2.3000000000000003,8.3,-5.4,17.400000000000002,10.9,16
732,12303.0,-0.7000000000000001,-0.7000000000000001,-0.8,-0.5,2.1,8.8,-19.400000000000002,24.3,15.2,16
733,12320.0,-0.8,-1.0,0.0,-0.7000000000000001,1.7000000000000002,9.8,-16.5,25.0,24.3,16
734,12336.0,-0.8,-1.2000000000000002,0.4,-0.7000000000000001,1.7000000000000002,9.600000000000001,-4.800000000000001,14.800000000000002,28.3,16
735,12354.0,-0.5,-0.8,-0.6000000000000001,-0.4,2.0,8.6,4.1,0.0,30.1,16
736,12369.0,-0.2,-0.6000000000000001,-1.6,-0.2,2.1,8.0,4.2,-12.9,29.700000000000006,16
737,12386.0,-0.2,-0.6000000000000001,-1.6,0.0,2.5,7.6000000000000005,-1.9,-18.3,28.900000000000002,16
738,12402.0,-0.2,0.0,-1.7000000000000002,-0.1,2.7,7.6000000000000005,-8.2,-17.300000000000004,29.300000000000004,16
739,12420.0,-0.1,0.1,-1.3,0.1,2.8000000000000003,8.1,-9.100000000000001,-13.3,30.5,16
740,12436.0,0.0,0.0,-1.1,0.4,2.7,8.3,-2.9,-13.100000000000001,30.9,16
741,12453.0,0.2,0.1,-1.3,0.5,2.8000000000000003,8.200000000000001,6.300000000000001,-18.0,30.799999999999997,16
742,12469.0,0.30000000000000004,0.30000000000000004,-1.4000000000000001,0.7000000000000001,3.0,8.0,11.3,-16.3,30.200000000000003,16
743,12486.0,0.30000000000000004,0.4,-1.4000000000000001,0.8,3.2,8.0,8.5,-5.2,29.400000000000002,16
744,12503.0,0.2,0.4,-0.8,0.8,3.2,8.4,2.8,8.4,29.300000000000004,16
745,12520.0,0.0,0.4,0.0,0.5,3.1,9.600000000000001,0.2,23.2,30.1,16
746,12536.0,-0.30000000000000004,0.2,0.8,0.2,2.9000000000000004,10.600000000000001,0.2,34.900000000000006,30.799999999999997,16
747,12553.0,-0.4,0.0,1.8,0.0,2.7,11.200000000000001,3.5,40.300000000000004,29.900000000000006,16
748,12569.0,-0.6000000000000001,-0.2,2.8000000000000003,-0.30000000000000004,2.5,12.4,13.6,39.2,28.200000000000003,16
749,12587.0,-0.8,-0.30000000000000004,3.0,-0.8,2.5,12.100000000000001,28.400000000000002,32.1,27.099999999999998,16
750,12603.0,-1.2000000000000002,-0.1,2.4000000000000004,-1.0,2.8000000000000003,11.700000000000001,36.400000000000006,22.6,27.700000000000003,16
751,12619.0,-1.1,0.2,1.5,-0.9,3.2,10.3,26.6,20.7,29.400000000000002,16
752,12636.0,-0.9,0.2,0.2,-0.8,3.1,9.4,-3.7000000000000006,21.300000000000004,29.400000000000002,16
753,12653.0,-0.9,-0.2,0.2,-1.0,2.6,9.700000000000001,-42.900000000000006,26.6,26.000000000000004,16
754,12669.0,-1.6,-0.9,1.9000000000000001,-1.9000000000000001,1.8,12.3,-70.9,32.9,22.1,16
755,12686.0,-2.2,-1.2000000000000002,4.0,-2.3000000000000003,1.2000000000000002,14.0,-67.60000000000001,36.7,21.200000000000003,16
756,12702.0,-2.2,-1.4000000000000001,4.5,-2.2,1.1,13.600000000000001,-36.400000000000006,31.3,22.5,16
757,12719.0,-1.8,-1.4000000000000001,2.9000000000000004,-1.6,1.3,11.0,7.699999999999999,8.899999999999999,24.200000000000003,16
758,12736.0,-1.2000000000000002,-1.0,1.0,-1.0,2.0,8.8,64.80000000000001,-39.8,26.799999999999997,16
759,12753.0,-0.8,-0.6000000000000001,-0.9,-0.7000000000000001,2.4000000000000004,7.9,54.9,-30.699999999999996,29.500000000000004,16
760,12769.0,-0.4,0.0,-2.4000000000000004,0.0,3.0,5.800000000000001,25.6,-10.299999999999999,29.700000000000006,16
761,12786.0,-0.1,0.1,-3.8000000000000003,0.2,2.9000000000000004,5.2,-2.2,0.6000000000000001,29.1,16
762,12803.0,-0.1,-0.30000000000000004,-3.6,0.2,2.8000000000000003,5.5,-22.2,10.8,28.900000000000002,16
763,12819.0,-0.6000000000000001,-0.5,-2.8000000000000003,-0.30000000000000004,2.4000000000000004,6.5,-34.50000000000001,25.1,30.9,16
764,12836.0,-0.9,-0.6000000000000001,-2.3000000000000003,-0.7000000000000001,2.2,7.2,-37.400000000000006,35.599999999999994,34.0,16
765,12853.0,-1.1,-0.8,-1.6,-1.0,2.0,7.7,-30.699999999999996,40.2,38.400000000000006,16
766,12869.0,-1.0,-0.8,-1.2000000000000002,-1.0,1.8,8.200000000000001,-16.200000000000003,41.4,43.00000000000001,16
767,12886.0,-0.7000000000000001,-0.8,-1.6,-0.7000000000000001,1.8,7.6000000000000005,1.8000000000000003,36.0,46.7,16
768,12903.0,-0.2,-0.7000000000000001,-2.5,-0.4,1.9000000000000001,7.1000000000000005,14.5,22.1,47.900000000000006,16
769,12919.0,0.30000000000000004,-0.4,-3.1,0.2,2.3000000000000003,6.4,14.900000000000002,11.3,46.199999999999996,16
770,12936.0,0.7000000000000001,0.0,-3.3000000000000003,0.7000000000000001,2.8000000000000003,6.0,2.6,9.700000000000001,43.70000000000001,16
771,12953.0,1.0,0.2,-3.5,0.9,2.9000000000000004,5.9,-18.1,10.200000000000001,40.2,16
772,12969.0,1.3,0.30000000000000004,-3.0,1.2000000000000002,2.9000000000000004,6.7,-39.8,7.699999999999999,35.0,16
773,12986.0,1.2000000000000002,0.2,-1.8,1.0,2.7,8.4,-57.60000000000001,11.2,29.200000000000003,16
774,13005.0,0.9,0.2,-0.30000000000000004,0.4,2.4000000000000004,10.200000000000001,-68.0,22.1,23.6,16
775,13021.0,0.4,0.1,1.1,0.1,2.2,11.3,-68.2,32.9,18.200000000000003,16
776,13036.0,0.1,0.0,2.9000000000000004,0.0,1.9000000000000001,13.3,-56.800000000000004,41.6,13.700000000000001,16
777,13052.0,0.1,-0.2,4.0,-0.6000000000000001,1.5,13.8,-34.1,42.0,8.0,16
778,13069.0,0.2,0.0,4.1000000000000005,-0.30000000000000004,1.9000000000000001,13.4,-2.3,25.6,3.7000000000000006,16
779,13086.0,0.30000000000000004,0.2,3.1,0.0,2.4000000000000004,12.0,28.1,-7.6,-1.5,16
780,13102.0,0.5,0.6000000000000001,2.3000000000000003,0.0,2.6,11.8,40.9,-33.400000000000006,-6.9,16
781,13121.0,0.5,0.8,1.9000000000000001,0.1,2.9000000000000004,10.9,11.900000000000002,-13.000000000000002,-14.600000000000001,16
782,13136.0,0.4,0.7000000000000001,1.2000000000000002,0.0,2.4000000000000004,11.5,3.3000000000000007,-14.600000000000001,-17.200000000000003,16
783,13153.0,0.30000000000000004,0.30000000000000004,2.1,0.0,2.2,12.100000000000001,9.600000000000001,-24.1,-18.6,16
784,13169.0,0.5,-0.1,2.7,0.2,2.0,12.4,22.6,-34.60000000000001,-19.9,16
785,13186.0,0.5,-0.1,2.7,0.7000000000000001,2.4000000000000004,11.8,30.9,-41.900000000000006,-21.400000000000002,16
786,13203.0,1.3,0.5,1.7000000000000002,1.1,2.6,11.4,29.300000000000004,-43.800000000000004,-23.5,16
787,13219.0,1.3,0.7000000000000001,0.9,1.3,3.0,10.5,18.4,-39.1,-25.1,16
788,13236.0,1.3,0.7000000000000001,0.9,1.2000000000000002,3.2,10.200000000000001,-2.8,-21.0,-25.900000000000002,16
789,13255.0,-0.1,0.4,0.9,-0.5,2.4000000000000004,11.100000000000001,-31.400000000000002,12.600000000000001,-26.200000000000003,16
790,13269.0,-1.3,-0.5,2.7,-1.2000000000000002,1.8,12.3,-44.300000000000004,42.7,-24.5,16
791,13286.0,-1.8,-1.3,4.1000000000000005,-1.8,0.7000000000000001,13.8,-23.700000000000003,49.0,-22.5,16
792,13307.0,-1.7000000000000002,-1.7000000000000002,3.9000000000000004,-1.8,0.5,12.4,22.700000000000003,31.7,-20.400000000000002,16
793,13320.0,-1.3,-1.4000000000000001,1.4000000000000001,-1.5,0.8,10.700000000000001,73.4,-7.300000000000001,-17.400000000000002,16
794,13337.0,-0.7000000000000001,-0.9,-1.0,-0.7000000000000001,1.8,7.9,107.19999999999999,-51.800000000000004,-16.200000000000003,16
795,13353.0,-0.2,-0.4,-2.6,-0.30000000000000004,2.3000000000000003,6.9,106.0,-76.1,-15.899999999999999,16
796,13369.0,0.6000000000000001,0.2,-4.2,0.8,3.2,4.5,67.00000000000001,-57.60000000000001,-16.700000000000003,16
797,13386.0,1.0,0.30000000000000004,-5.800000000000001,1.2000000000000002,3.4000000000000004,4.0,15.899999999999999,-45.6,-21.0,16
798,13402.0,1.1,0.2,-4.3,1.3,3.3000000000000003,5.5,-24.7,-39.599999999999994,-25.8,16
799,13419.0,0.4,-0.1,-2.1,0.6000000000000001,3.0,7.9,-45.8,-18.700000000000003,-27.099999999999998,16
800,13436.0,-0.30000000000000004,-0.30000000000000004,-0.6000000000000001,-0.2,2.6,9.5,-45.9,0.8,-24.599999999999998,16
801,13454.0,-0.8,-0.4,0.5,-0.6000000000000001,2.5,10.100000000000001,-30.799999999999997,14.400000000000002,-18.4,16
802,13469.0,-1.4000000000000001,-0.30000000000000004,1.2000000000000002,-1.3,2.4000000000000004,10.8,-8.700000000000001,26.1,-7.699999999999999,16
803,13486.0,-1.8,-0.4,1.5,-1.6,2.3000000000000003,10.8,9.899999999999999,40.0,4.0,16
804,13503.0,-1.8,-0.6000000000000001,1.3,-1.7000000000000002,2.1,10.5,22.000000000000004,51.6,13.200000000000003,16
805,13521.0,-1.8,-0.8,0.7000000000000001,-1.8,2.0,9.600000000000001,31.7,41.199999999999996,21.300000000000004,16
806,13536.0,-1.7000000000000002,-0.9,-0.1,-1.9000000000000001,2.2,8.4,25.5,26.799999999999997,23.0,16
807,13553.0,-1.7000000000000002,-0.8,-1.0,-2.0,2.4000000000000004,8.0,11.8,15.000000000000002,25.6,16
808,13569.0,-1.8,-0.6000000000000001,-1.5,-2.0,2.6,7.6000000000000005,-4.300000000000001,4.0,30.000000000000004,16
809,13586.0,-1.8,-0.5,-1.7000000000000002,-1.8,2.4000000000000004,7.7,-13.6,-10.299999999999999,34.400000000000006,16
810,13603.0,-1.2000000000000002,-0.8,-1.8,-1.5,2.3000000000000003,7.6000000000000005,-14.5,-27.3,37.2,16
811,13620.0,-0.8,-0.7000000000000001,-1.9000000000000001,-0.9,2.3000000000000003,7.4,-10.9,-39.400000000000006,37.6,16
812,13636.0,-0.6000000000000001,-0.6000000000000001,-2.1,-0.6000000000000001,2.4000000000000004,7.2,-5.7,-42.900000000000006,38.2,16
813,13653.0,-0.6000000000000001,-0.2,-2.4000000000000004,-0.5,2.6,7.0,-1.3,-40.7,41.0,16
814,13669.0,-0.5,0.0,-2.6,-0.1,3.0,6.800000000000001,1.8000000000000003,-35.699999999999996,45.099999999999994,16
815,13686.0,-0.2,0.0,-2.6,0.4,3.0,6.800000000000001,2.8,-28.0,49.699999999999996,16
816,13702.0,0.1,0.0,-2.3000000000000003,0.6000000000000001,2.9000000000000004,7.0,1.7,-13.8,53.2,16
817,13719.0,0.1,-0.1,-1.6,0.8,2.8000000000000003,7.9,-2.6,9.5,54.9,16
818,13737.0,-0.2,-0.2,-1.1,0.4,2.7,8.6,-9.3,33.800000000000004,55.900000000000006,16
819,13752.0,-0.6000000000000001,-0.5,-0.2,0.1,2.4000000000000004,9.200000000000001,-15.000000000000002,49.699999999999996,55.8,16
820,13769.0,-1.0,-0.8,1.2000000000000002,-0.6000000000000001,2.0,11.100000000000001,-18.3,63.599999999999994,54.9,16
821,13786.0,-1.4000000000000001,-1.0,2.8000000000000003,-1.3,1.6,12.700000000000001,-15.299999999999999,73.7,53.0,16
822,13804.0,-1.7000000000000002,-1.2000000000000002,3.6,-1.6,1.6,12.9,-3.5,66.80000000000001,50.900000000000006,16
823,13820.0,-1.8,-1.2000000000000002,3.3000000000000003,-1.6,1.7000000000000002,12.5,13.5,39.0,47.5,16
824,13836.0,-1.6,-0.8,2.8000000000000003,-1.6,2.3000000000000003,12.200000000000001,21.900000000000002,11.5,44.4,16
825,13852.0,-1.6,-0.30000000000000004,2.4000000000000004,-1.5,2.6,11.5,12.100000000000001,11.6,43.00000000000001,16
826,13869.0,-1.7000000000000002,-0.2,1.2000000000000002,-1.7000000000000002,2.6,10.3,-15.000000000000002,23.700000000000003,42.0,16
827,13886.0,-1.9000000000000001,-0.4,1.0,-2.3000000000000003,2.1,11.5,-46.0,33.0,40.1,16
828,13903.0,-2.5,-0.7000000000000001,2.4000000000000004,-2.7,1.7000000000000002,12.4,-62.50000000000001,42.2,39.1,16
829,13922.0,-2.8000000000000003,-1.1,3.0,-3.0,1.3,12.8,-23.800000000000004,30.200000000000003,44.300000000000004,16
830,13936.0,-2.8000000000000003,-1.1,3.0,-2.5,1.4000000000000001,11.200000000000001,10.9,4.4,45.9,16
831,13953.0,-2.2,-0.9,1.4000000000000001,-2.1,1.6,10.0,35.4,-19.400000000000002,45.7,16
832,13969.0,-1.6,-0.5,-0.30000000000000004,-1.4000000000000001,2.2,7.9,43.300000000000004,-29.500000000000004,45.0,16
833,13986.0,-1.2000000000000002,-0.1,-2.0,-0.8,3.1,6.1000000000000005,36.2,-28.500000000000004,44.9,16
834,14003.0,-0.8,0.8,-4.2,-0.7000000000000001,3.3000000000000003,5.4,21.500000000000004,-24.3,47.2,16
835,14029.0,-0.8,1.0,-4.2,-0.6000000000000001,3.7,5.4,3.8,-11.4,52.5,16
836,14036.0,-0.9,0.9,-3.7,-0.7000000000000001,3.6,5.800000000000001,-12.4,11.2,60.1,16
837,14053.0,-1.1,0.6000000000000001,-3.0,-0.8,3.4000000000000004,6.300000000000001,-23.0,36.2,69.7,16
838,14069.0,-1.1,0.4,-2.5,-0.8,3.0,7.0,-25.1,49.800000000000004,79.19999999999999,16
839,14087.0,-0.9,0.2,-2.0,-0.6000000000000001,2.7,7.6000000000000005,-21.6,52.5,85.69999999999999,16
840,14102.0,-0.5,-0.1,-1.7000000000000002,-0.5,2.5,7.800000000000001,-16.900000000000002,51.1,88.00000000000001,16
841,14119.0,0.0,-0.2,-1.6,0.0,2.3000000000000003,7.9,-13.8,46.199999999999996,85.4,16
842,14136.0,0.30000000000000004,-0.1,-1.7000000000000002,0.30000000000000004,2.5,7.800000000000001,-13.3,37.800000000000004,79.6,16
843,14152.0,0.4,0.30000000000000004,-1.8,0.30000000000000004,2.7,7.7,-18.200000000000003,29.700000000000006,73.5,16
844,14169.0,0.4,0.6000000000000001,-1.7000000000000002,0.30000000000000004,3.0,7.9,-30.3,25.7,68.3,16
845,14186.0,0.4,0.7000000000000001,-1.3,0.30000000000000004,3.0,8.700000000000001,-45.7,25.6,63.8,16
846,14203.0,0.4,0.7000000000000001,-0.4,0.30000000000000004,2.8000000000000003,9.3,-56.0,28.0,59.20000000000001,16
847,14220.0,0.30000000000000004,0.7000000000000001,0.5,0.1,2.6,10.4,-58.800000000000004,31.3,54.1,16
848,14237.0,0.2,0.7000000000000001,1.3,-0.2,2.4000000000000004,11.5,-54.6,33.300000000000004,48.6,16
849,14253.0,0.1,0.6000000000000001,2.1,-0.2,2.3000000000000003,11.9,-42.800000000000004,31.5,41.900000000000006,16
850,14269.0,0.1,0.6000000000000001,2.6,-0.2,2.2,12.3,-21.300000000000004,21.400000000000002,34.60000000000001,16
851,14286.0,0.2,0.9,2.5,-0.2,2.8000000000000003,11.5,6.8,1.9,28.500000000000004,16
852,14303.0,0.30000000000000004,1.3,1.6,0.0,3.0,10.9,33.400000000000006,-19.200000000000003,24.5,16
853,14322.0,0.4,1.6,0.6000000000000001,0.0,3.6,9.8,35.9,-18.6,21.500000000000004,16
854,14339.0,0.2,1.9000000000000001,0.0,0.0,3.8000000000000003,9.600000000000001,21.400000000000002,-6.4,22.2,16
855,14352.0,0.2,1.9000000000000001,0.0,0.0,3.6,9.9,11.8,1.0,23.700000000000003,16
856,14370.0,0.0,1.0,0.9,-0.2,3.1,10.4,8.4,1.7,24.0,16
857,14386.0,0.0,1.0,0.9,-0.2,2.5,11.100000000000001,7.9,1.8000000000000003,22.5,16
858,14402.0,0.1,0.4,2.0,-0.1,2.4000000000000004,11.4,10.1,0.30000000000000004,19.9,16
859,14420.0,0.1,0.4,1.6,-0.1,2.5,11.3,12.200000000000001,-7.0,16.5,16
860,14436.0,0.2,0.7000000000000001,1.2000000000000002,0.1,2.9000000000000004,10.8,7.0,-15.899999999999999,12.8,16
861,14453.0,0.30000000000000004,1.0,1.2000000000000002,0.2,3.1,10.8,-4.5,-14.800000000000002,10.200000000000001,16
862,14469.0,0.0,1.2000000000000002,1.3,-0.1,3.3000000000000003,10.9,-17.400000000000002,-4.300000000000001,10.600000000000001,16
863,14486.0,-0.6000000000000001,1.1,1.7000000000000002,-0.7000000000000001,3.0,11.4,-30.9,15.700000000000001,12.600000000000001,16
864,14502.0,-1.2000000000000002,0.5,2.4000000000000004,-1.2000000000000002,2.5,11.9,-40.6,37.0,14.600000000000001,16
865,14519.0,-1.6,-0.1,3.3000000000000003,-1.8,1.7000000000000002,13.0,-34.2,41.900000000000006,15.2,16
866,14538.0,-1.7000000000000002,-0.5,3.5,-1.8,1.2000000000000002,12.9,-10.0,32.5,14.0,16
867,14560.0,-1.3,-0.6000000000000001,2.0,-1.4000000000000001,1.5,10.3,49.50000000000001,-31.099999999999998,7.6,16
868,14571.0,-0.8,0.0,0.1,-1.0,2.0,9.3,49.50000000000001,-31.099999999999998,7.6,16
869,14586.0,-0.30000000000000004,0.6000000000000001,-1.6,-0.30000000000000004,2.8000000000000003,7.300000000000001,57.3,-53.2,5.0,16
870,14602.0,0.1,1.0,-3.0,0.0,3.2,6.4,41.900000000000006,-50.900000000000006,3.9,16
871,14619.0,0.2,1.4000000000000001,-4.1000000000000005,0.2,3.6,5.5,13.399999999999999,-40.2,3.2,16
872,14636.0,0.0,1.4000000000000001,-3.5,-0.1,3.4000000000000004,7.4,-16.6,-24.8,4.7,16
873,14653.0,-0.4,1.0,-1.5,-0.30000000000000004,3.0,8.5,-34.2,1.4,8.899999999999999,16
874,14669.0,-0.8,0.4,0.2,-0.8,2.1,10.3,-28.700000000000003,23.0,14.5,16
875,14686.0,-1.0,-0.1,1.2000000000000002,-1.0,1.7000000000000002,10.9,-4.2,33.6,20.5,16
876,14703.0,-1.1,-0.4,1.3,-1.1,1.6,10.600000000000001,27.3,32.300000000000004,26.300000000000004,16
877,14719.0,-1.1,-0.4,0.5,-1.1,1.8,9.600000000000001,52.400000000000006,18.1,30.699999999999996,16
878,14738.0,-0.9,-0.5,-0.5,-1.0,1.9000000000000001,9.1,48.0,8.2,33.50000000000001,16
879,14752.0,-0.9,-0.5,-0.5,-1.0,1.9000000000000001,8.9,32.0,10.600000000000001,33.0,16
880,14769.0,-0.9,-0.7000000000000001,-0.7000000000000001,-1.0,1.6,9.0,21.500000000000004,6.2,31.2,16
881,14786.0,-0.9,-1.0,-0.4,-0.9,1.6,9.0,17.0,-1.4,29.500000000000004,16
882,14802.0,-0.8,-1.0,-0.5,-0.8,1.6,8.9,17.400000000000002,-9.600000000000001,28.900000000000002,16
883,14821.0,-0.7000000000000001,-0.8,-0.9,-0.7000000000000001,1.9000000000000001,8.6,19.700000000000003,-15.399999999999999,30.200000000000003,16
884,14836.0,-0.5,-0.6000000000000001,-1.6,-0.4,2.2,7.800000000000001,19.9,-20.599999999999998,32.300000000000004,16
885,14853.0,-0.30000000000000004,-0.4,-2.0,-0.2,2.4000000000000004,7.5,15.299999999999999,-23.5,34.60000000000001,16
886,14875.0,-0.1,-0.30000000000000004,-2.1,0.4,2.6,7.300000000000001,7.699999999999999,-20.900000000000002,35.9,16
887,14886.0,0.2,-0.4,-2.0,0.6000000000000001,2.5,7.5,2.0,-17.200000000000003,35.699999999999996,16
888,14903.0,0.4,-0.4,-1.6,0.8,2.5,7.7,0.7,-13.100000000000001,34.2,16
889,14919.0,0.5,-0.2,-1.6,1.0,2.7,7.800000000000001,2.9,-10.600000000000001,31.9,16
890,14938.0,0.5,-0.1,-1.6,1.1,2.8000000000000003,7.800000000000001,5.4,-9.4,30.000000000000004,16
891,14953.0,0.5,-0.1,-1.5,1.1,2.8000000000000003,7.9,6.4,-4.5,28.3,16
892,14969.0,0.5,0.0,-1.1,1.1,2.9000000000000004,8.3,6.300000000000001,5.300000000000001,26.9,16
893,14986.0,0.30000000000000004,0.0,-0.7000000000000001,0.8,2.9000000000000004,9.0,5.300000000000001,18.200000000000003,26.200000000000003,16
894,15007.0,-0.1,0.0,-0.1,0.30000000000000004,2.9000000000000004,9.8,3.5,31.0,25.900000000000002,16
895,15037.0,-0.5,-0.30000000000000004,1.4000000000000001,-0.2,2.6,11.200000000000001,8.600000000000001,40.7,24.400000000000002,16
896,15052.0,-0.7000000000000001,-0.4,2.1,-0.4,2.6,11.600000000000001,18.5,42.2,22.1,16
897,15069.0,-1.1,-0.30000000000000004,2.2,-1.1,2.7,11.3,29.300000000000004,41.1,21.200000000000003,16
898,15086.0,-1.6,-0.2,1.7000000000000002,-1.5,3.0,10.4,36.300000000000004,33.7,24.3,16
899,15102.0,-1.6,-0.1,0.9,-1.4000000000000001,3.1,9.9,27.800000000000004,29.700000000000006,29.400000000000002,16
900,15121.0,-1.3,-0.2,-0.2,-1.1,2.8000000000000003,8.6,-43.50000000000001,23.5,32.7,16
901,15136.0,-1.1,-0.7000000000000001,-0.7000000000000001,-1.1,1.8,9.200000000000001,-85.30000000000001,21.300000000000004,28.400000000000002,16
902,15155.0,-1.5,-2.0,1.8,-1.6,0.9,11.5,-108.2,22.000000000000004,21.900000000000002,16
903,15169.0,-1.6,-2.2,3.6,-1.7000000000000002,0.5,12.700000000000001,-100.2,17.5,14.0,16
904,15186.0,-1.6,-2.2,3.6,-1.7000000000000002,0.30000000000000004,13.8,-63.10000000000001,7.6,7.8,16
905,15202.0,-1.7000000000000002,-1.4000000000000001,3.2,-1.7000000000000002,0.6000000000000001,13.5,-11.6,-4.800000000000001,5.7,16
906,15219.0,-1.5,-0.6000000000000001,1.2000000000000002,-1.6,1.4000000000000001,11.100000000000001,30.4,-18.700000000000003,7.200000000000001,16
907,15236.0,-1.3,0.1,-0.6000000000000001,-1.4000000000000001,2.4000000000000004,8.8,46.199999999999996,-17.400000000000002,10.700000000000001,16
908,15253.0,-1.2000000000000002,0.6000000000000001,-2.4000000000000004,-1.2000000000000002,2.8000000000000003,7.6000000000000005,36.400000000000006,-2.0,15.299999999999999,16
909,15269.0,-1.1,0.7000000000000001,-3.5,-1.1,3.2,6.0,13.3,11.6,19.799999999999997,16
910,15286.0,-1.1,0.6000000000000001,-3.5,-1.2000000000000002,3.1,6.2,-9.700000000000001,23.0,23.5,16
911,15302.0,-1.4000000000000001,0.5,-2.6,-1.4000000000000001,3.0,6.800000000000001,-25.900000000000002,37.7,28.700000000000003,16
912,15319.0,-1.5,0.4,-1.8,-1.7000000000000002,2.8000000000000003,7.800000000000001,-29.400000000000002,48.800000000000004,34.7,16
913,15337.0,-1.4000000000000001,0.30000000000000004,-1.6,-1.7000000000000002,2.6,7.9,-21.1,50.1,40.800000000000004,16
914,15352.0,-1.1,0.30000000000000004,-1.8,-1.5,2.6,7.7,-7.0,42.0,46.1,16
915,15369.0,-0.7000000000000001,0.4,-2.6,-1.1,2.7,6.800000000000001,5.0,28.400000000000002,49.9,16
916,15386.0,-0.2,0.7000000000000001,-3.1,-0.6000000000000001,3.0,6.1000000000000005,6.500000000000001,19.9,52.00000000000001,16
917,15402.0,0.0,0.8,-3.6,-0.4,3.2,5.9,-3.2,19.5,53.50000000000001,16
918,15419.0,0.30000000000000004,1.2000000000000002,-3.5,-0.1,3.5,6.300000000000001,-19.200000000000003,20.599999999999998,55.60000000000001,16
919,15436.0,0.6000000000000001,1.3,-2.7,0.30000000000000004,3.5,7.4,-34.50000000000001,22.4,57.49999999999999,16
920,15452.0,1.0,1.3,-1.9000000000000001,0.5,3.4000000000000004,7.9,-43.800000000000004,24.900000000000002,58.0,16
921,15470.0,1.3,1.3,-0.8,0.9,3.4000000000000004,9.3,-47.3,27.3,57.3,16
922,15486.0,1.5,1.4000000000000001,0.0,0.8,3.2,10.100000000000001,-46.199999999999996,31.2,54.199999999999996,16
923,15502.0,1.4000000000000001,1.4000000000000001,0.6000000000000001,0.7000000000000001,3.2,10.4,-44.300000000000004,35.3,49.9,16
924,15519.0,1.1,1.3,1.3,0.1,2.9000000000000004,11.5,-41.300000000000004,39.50000000000001,44.10000000000001,16
925,15536.0,0.8,1.2000000000000002,2.3000000000000003,-0.1,2.7,12.700000000000001,-18.0,35.3,32.7,16
926,15552.0,0.8,1.1,3.1,-0.2,2.5,13.0,3.6000000000000005,16.700000000000003,27.0,16
927,15569.0,0.8,0.9,3.2,-0.1,2.4000000000000004,12.200000000000001,24.0,-14.900000000000002,21.0,16
928,15586.0,1.0,1.0,2.4000000000000004,0.30000000000000004,2.9000000000000004,11.5,33.1,-37.7,13.3,16
929,15602.0,1.2000000000000002,1.3,1.2000000000000002,0.4,3.0,11.100000000000001,25.8,-36.7,6.4,16
930,15620.0,0.8,1.2000000000000002,1.0,0.1,3.0,10.600000000000001,11.5,-27.2,1.3,16
931,15638.0,0.5,0.9,2.1,-0.2,2.7,11.9,3.0,-18.1,-0.8,16
932,15652.0,0.4,0.6000000000000001,2.7,-0.2,2.5,12.3,10.600000000000001,-22.1,-0.6000000000000001,16
933,15669.0,0.2,0.4,2.9000000000000004,-0.4,2.3000000000000003,12.5,25.200000000000003,-31.5,0.30000000000000004,16
934,15686.0,0.4,0.5,2.1,-0.1,2.4000000000000004,11.5,31.9,-37.6,0.7,16
935,15703.0,0.5,0.5,1.5,0.1,2.5,11.200000000000001,26.200000000000003,-42.7,-0.7,16
936,15719.0,0.6000000000000001,0.5,0.8,0.30000000000000004,2.6,10.4,9.899999999999999,-43.70000000000001,-3.0,16
937,15738.0,0.30000000000000004,0.30000000000000004,0.5,0.0,2.2,10.100000000000001,-14.200000000000001,-39.300000000000004,-6.300000000000001,16
938,15752.0,-0.2,-0.30000000000000004,0.9,-0.30000000000000004,1.7000000000000002,10.5,-36.2,-27.9,-9.5,16
939,15769.0,-0.5,-0.9,1.8,-0.5,1.0,11.600000000000001,-41.199999999999996,-19.6,-12.200000000000001,16
940,15786.0,-0.4,-1.1,2.3000000000000003,-0.2,0.8,11.9,-27.2,-18.5,-15.2,16
941,15802.0,-0.30000000000000004,-1.0,1.9000000000000001,-0.2,0.8,11.4,-2.3,-23.400000000000002,-17.300000000000004,16
942,15819.0,0.0,-0.6000000000000001,0.8,0.30000000000000004,1.4000000000000001,9.9,16.3,-27.6,-16.5,16
943,15836.0,0.30000000000000004,-0.2,-0.7000000000000001,0.6000000000000001,1.7000000000000002,8.3,16.700000000000003,-24.200000000000003,-16.4,16
944,15853.0,0.4,-0.1,-1.4000000000000001,0.7000000000000001,1.8,8.3,2.2,-16.8,-17.9,16
945,15869.0,0.2,-0.2,-0.30000000000000004,0.30000000000000004,1.4000000000000001,10.4,-14.0,3.6000000000000005,-19.400000000000002,16
946,15886.0,-0.30000000000000004,-0.7000000000000001,1.3,-0.4,0.9,11.3,-15.399999999999999,33.800000000000004,-19.700000000000003,16
947,15902.0,-0.7000000000000001,-1.0,1.7000000000000002,-0.8,0.7000000000000001,11.3,2.9,44.2,-18.0,16
948,15919.0,-0.9,-1.1,1.4000000000000001,-1.0,0.7000000000000001,10.4,55.7,9.700000000000001,-14.400000000000002,16
949,15940.0,-0.8,-1.0,-1.0,-1.0,1.0,8.700000000000001,70.8,-14.800000000000002,-13.399999999999999,16
950,15952.0,-0.8,-1.0,-1.0,-0.8,1.2000000000000002,8.200000000000001,70.9,-24.3,-12.100000000000001,16
951,15976.0,-0.4,-0.6000000000000001,-3.5,-0.30000000000000004,1.9000000000000001,5.6000000000000005,58.5,-30.699999999999996,-10.5,16
952,15986.0,-0.4,-0.6000000000000001,-3.5,-0.1,2.1,5.2,36.9,-36.300000000000004,-10.0,16
953,16003.0,0.0,-0.5,-4.2,0.1,2.2,5.1000000000000005,11.000000000000002,-32.300000000000004,-10.0,16
954,16019.0,0.0,-0.7000000000000001,-3.4000000000000004,0.2,2.0,6.0,-10.299999999999999,-18.3,-9.600000000000001,16
955,16036.0,-0.30000000000000004,-0.9,-2.5,0.0,1.7000000000000002,7.0,-19.0,-4.300000000000001,-7.9,16
956,16053.0,-0.6000000000000001,-0.9,-2.0,-0.2,1.7000000000000002,7.300000000000001,-15.8,3.3000000000000007,-3.6000000000000005,16
957,16070.0,-0.7000000000000001,-0.9,-1.5,-0.5,1.7000000000000002,8.0,-6.699999999999999,7.500000000000001,2.0,16
958,16086.0,-0.8,-0.8,-1.3,-0.6000000000000001,1.7000000000000002,8.1,2.8,11.000000000000002,7.9,16
959,16103.0,-0.7000000000000001,-0.8,-1.5,-0.5,1.7000000000000002,8.0,11.1,13.100000000000001,12.0,16
960,16121.0,-0.7000000000000001,-0.7000000000000001,-1.8,-0.5,1.9000000000000001,7.6000000000000005,15.6,12.4,14.700000000000001,16
961,16137.0,-0.7000000000000001,-0.4,-1.9000000000000001,-0.6000000000000001,2.3000000000000003,7.6000000000000005,13.900000000000002,11.5,17.1,16
962,16152.0,-0.7000000000000001,-0.2,-1.7000000000000002,-0.6000000000000001,2.5,7.7,8.700000000000001,9.3,20.0,16
963,16169.0,-0.6000000000000001,-0.1,-1.4000000000000001,-0.4,2.6,8.1,3.9,4.2,22.1,16
964,16186.0,-0.7000000000000001,0.0,-0.9,-0.8,2.8000000000000003,8.9,1.0,0.30000000000000004,22.6,16
965,16202.0,-1.3,0.2,-0.1,-1.2000000000000002,2.9000000000000004,9.4,-2.2,4.300000000000001,24.5,16
966,16219.0,-1.9000000000000001,0.30000000000000004,0.8,-2.0,3.0,10.700000000000001,-6.500000000000001,11.4,29.1,16
967,16236.0,-2.5,0.30000000000000004,2.1,-2.3000000000000003,2.8000000000000003,12.3,-8.4,19.200000000000003,34.300000000000004,16
968,16253.0,-2.5,0.0,3.1,-2.3000000000000003,2.6,12.700000000000001,-2.6,19.1,39.1,16
969,16269.0,-2.1,-0.2,3.1,-1.8,2.4000000000000004,12.200000000000001,9.600000000000001,9.3,42.60000000000001,16
970,16286.0,-1.6,-0.2,2.2,-1.0,2.6,11.0,14.0,-3.2,41.800000000000004,16
971,16302.0,-1.0,-0.1,1.3,-0.8,2.7,10.5,0.4,-4.800000000000001,36.400000000000006,16
972,16319.0,-1.0,0.0,0.8,-1.1,2.6,10.200000000000001,-62.900000000000006,20.1,24.3,16
973,16336.0,-1.5,-0.2,1.0,-1.7000000000000002,1.9000000000000001,11.8,-80.7,24.0,20.7,16
974,16352.0,-1.9000000000000001,-0.6000000000000001,2.5,-2.0,1.5,13.100000000000001,-70.0,21.200000000000003,18.900000000000002,16
975,16369.0,-2.3000000000000003,-1.1,4.9,-2.2,1.0,14.600000000000001,-33.400000000000006,12.7,18.6,16
976,16386.0,-2.3000000000000003,-1.1,4.9,-1.9000000000000001,1.3,12.9,10.9,-6.8,19.5,16
977,16402.0,-1.7000000000000002,-0.1,1.2000000000000002,-1.7000000000000002,1.7000000000000002,11.600000000000001,41.6,-24.200000000000003,20.7,16
978,16419.0,-1.4000000000000001,0.5,-1.0,-1.3,2.5,8.9,47.5,-26.5,24.7,16
979,16436.0,-1.1,1.0,-2.8000000000000003,-0.8,3.2,6.6000000000000005,33.7,-20.7,31.5,16
980,16452.0,-0.8,0.9,-3.8000000000000003,-0.6000000000000001,3.2,6.0,8.5,-8.899999999999999,40.4,16
981,16469.0,-0.6000000000000001,0.7000000000000001,-4.1000000000000005,-0.2,3.0,5.4,-20.3,5.0,47.5,16
982,16486.0,-0.6000000000000001,0.1,-3.5,-0.30000000000000004,2.2,6.300000000000001,-43.6,17.799999999999997,50.2,16
983,16502.0,-0.9,-0.4,-2.4000000000000004,-0.5,1.8,7.1000000000000005,-51.4,25.8,51.2,16
984,16519.0,-1.0,-0.7000000000000001,-1.6,-0.7000000000000001,1.3,8.1,-40.6,27.2,53.300000000000004,16
985,16537.0,-0.9,-0.5,-1.8,-0.5,1.4000000000000001,7.5,-17.799999999999997,20.599999999999998,56.2,16
986,16552.0,-0.6000000000000001,-0.2,-2.9000000000000004,-0.4,1.6,6.800000000000001,4.2,7.1000000000000005,58.900000000000006,16
987,16569.0,-0.2,0.1,-3.7,0.2,2.0,5.800000000000001,13.6,-3.2,60.7,16
988,16586.0,0.30000000000000004,0.30000000000000004,-4.4,0.9,2.2,5.0,6.9,-0.1,59.20000000000001,16
989,16602.0,0.7000000000000001,0.30000000000000004,-4.5,1.0,2.2,5.2,-8.4,6.8,55.0,16
990,16619.0,0.8,0.6000000000000001,-3.4000000000000004,1.2000000000000002,2.5,6.5,-20.5,14.300000000000002,51.0,16
991,16636.0,0.9,0.9,-2.4000000000000004,1.4000000000000001,2.7,7.9,-23.400000000000002,17.200000000000003,48.300000000000004,16
992,16652.0,1.2000000000000002,1.0,-1.4000000000000001,1.5,2.8000000000000003,8.5,-22.700000000000003,23.6,45.9,16
993,16669.0,1.1,1.3,-0.4,1.2000000000000002,3.0,9.8,-24.8,36.2,42.1,16
994,16686.0,0.8,1.3,0.7000000000000001,0.6000000000000001,2.7,11.4,-30.599999999999998,50.2,37.1,16
995,16702.0,0.4,1.1,2.0,0.30000000000000004,2.5,12.200000000000001,-34.0,55.7,31.5,16
996,16719.0,0.1,0.9,3.3000000000000003,-0.1,2.1,13.8,-26.799999999999997,46.1,25.300000000000004,16
997,16736.0,0.1,0.7000000000000001,4.4,-0.1,1.9000000000000001,14.0,9.4,-1.8000000000000003,8.600000000000001,16
998,16752.0,0.2,0.6000000000000001,4.2,0.1,2.0,13.600000000000001,22.000000000000004,-31.7,-1.0,16
999,16769.0,0.4,0.9,3.4000000000000004,0.2,2.5,13.0,25.1,-43.800000000000004,-8.2,16
1000,16786.0,0.4,1.2000000000000002,3.1,0.1,2.9000000000000004,12.3,22.000000000000004,-42.900000000000006,-11.000000000000002,16
1001,16802.0,0.0,1.5,2.4000000000000004,0.0,3.0,12.100000000000001,16.8,-40.4,-10.200000000000001,16
1002,16819.0,0.4,1.2000000000000002,2.7,0.5,2.8000000000000003,12.3,16.900000000000002,-43.300000000000004,-8.899999999999999,16
1003,16836.0,0.7000000000000001,1.0,2.9000000000000004,1.1,2.7,12.600000000000001,23.3,-47.7,-8.700000000000001,16
1004,16852.0,1.0,1.2000000000000002,2.5,1.4000000000000001,2.8000000000000003,12.4,25.5,-46.0,-9.600000000000001,16
1005,16869.0,0.9,1.3,1.6,1.5,3.1,11.200000000000001,17.7,-44.10000000000001,-10.299999999999999,16
1006,16886.0,0.2,1.1,1.0,0.7000000000000001,2.8000000000000003,10.5,-2.0,-30.699999999999996,-7.1000000000000005,16
1007,16902.0,-0.6000000000000001,0.30000000000000004,1.5,0.2,2.3000000000000003,10.9,-32.8,6.4,-3.4,16
1008,16919.0,-1.5,-1.0,3.5,-0.9,0.6000000000000001,13.5,-46.9,41.4,-2.4000000000000004,16
1009,16936.0,-1.7000000000000002,-2.0,5.0,-1.0,-0.6000000000000001,14.600000000000001,-20.3,39.9,-3.5,16
1010,16953.0,-1.2000000000000002,-2.3000000000000003,4.0,-0.8,-0.8,13.600000000000001,34.0,2.0,-6.1000000000000005,16
1011,16969.0,-0.8,-1.7000000000000002,1.1,-0.30000000000000004,0.2,10.200000000000001,82.0,-46.4,-8.3,16
1012,16987.0,-0.5,-0.7000000000000001,-0.9,0.4,1.7000000000000002,7.5,91.6,-63.599999999999994,-9.700000000000001,16
1013,17002.0,-0.1,0.1,-3.4000000000000004,0.8,2.3000000000000003,5.9,58.60000000000001,-42.3,-12.0,16
1014,17019.0,0.1,0.30000000000000004,-4.4,1.0,2.5,5.5,12.600000000000001,-27.2,-15.700000000000001,16
1015,17037.0,-0.1,0.1,-2.7,0.4,2.1,7.9,-18.8,-14.100000000000001,-18.0,16
1016,17052.0,-0.7000000000000001,-0.30000000000000004,-1.3,0.1,1.9000000000000001,8.3,-25.900000000000002,2.7,-17.200000000000003,16
1017,17069.0,-1.2000000000000002,-0.4,-1.0,-0.6000000000000001,1.7000000000000002,8.4,-16.700000000000003,11.8,-14.600000000000001,16
1018,17086.0,-1.8,-0.5,-1.2000000000000002,-1.1,1.8,8.200000000000001,-2.0,14.5,-9.5,16
1019,17102.0,-2.0,-0.4,-1.4000000000000001,-1.3,1.9000000000000001,8.0,13.5,16.6,-3.0,16
1020,17119.0,-2.2,-0.1,-1.8,-1.5,2.2,7.300000000000001,28.800000000000004,23.6,16.0,16
1021,17140.0,-1.9000000000000001,-0.1,-3.1,-1.2000000000000002,2.2,6.4,21.500000000000004,25.5,23.3,16
1022,17154.0,-1.9000000000000001,-0.1,-3.1,-0.7000000000000001,1.9000000000000001,6.6000000000000005,7.300000000000001,26.799999999999997,26.200000000000003,16
1023,17169.0,-1.4000000000000001,-0.4,-3.0,-0.6000000000000001,1.8,6.800000000000001,-3.9,28.700000000000003,26.200000000000003,16
1024,17186.0,-1.2000000000000002,-0.6000000000000001,-2.5,-0.9,1.6,7.7,-8.600000000000001,32.8,27.099999999999998,16
1025,17202.0,-1.6,-0.7000000000000001,-1.1,-1.1,1.6,8.200000000000001,-9.3,40.2,31.799999999999997,16
1026,17219.0,-1.6,-0.6000000000000001,-0.6000000000000001,-1.2000000000000002,1.8,8.8,-6.8,41.199999999999996,38.50000000000001,16
1027,17236.0,-1.2000000000000002,-0.6000000000000001,-0.5,-0.9,1.7000000000000002,9.1,0.0,30.599999999999998,45.099999999999994,16
1028,17252.0,-0.7000000000000001,-0.5,-0.6000000000000001,-0.6000000000000001,1.7000000000000002,9.0,8.600000000000001,13.900000000000002,48.10000000000001,16
1029,17269.0,-0.2,-0.4,-1.0,0.0,2.0,8.5,11.8,1.1,47.0,16
1030,17286.0,-0.2,0.0,-0.9,0.1,2.4000000000000004,8.700000000000001,7.1000000000000005,1.0,45.400000000000006,16
1031,17305.0,-0.30000000000000004,0.2,-0.6000000000000001,0.0,2.6,9.0,1.1,6.500000000000001,45.6,16
1032,17319.0,-0.30000000000000004,0.30000000000000004,-0.30000000000000004,0.0,2.7,9.200000000000001,1.1,3.5,47.80000000000001,16
1033,17336.0,-0.2,0.4,0.2,0.1,2.8000000000000003,9.9,6.500000000000001,-1.4,50.5,16
1034,17353.0,-0.2,0.6000000000000001,0.6000000000000001,0.1,2.9000000000000004,10.100000000000001,11.4,0.5,54.0,16
1035,17369.0,-0.2,0.6000000000000001,0.6000000000000001,0.30000000000000004,3.0,10.100000000000001,10.200000000000001,6.600000000000001,57.1,16
1036,17386.0,-0.1,0.5,0.6000000000000001,0.30000000000000004,2.8000000000000003,10.3,1.2000000000000002,14.100000000000001,57.00000000000001,16
1037,17402.0,-0.2,0.2,1.5,0.2,2.6,11.200000000000001,-8.899999999999999,21.900000000000002,53.7,16
1038,17419.0,-0.5,-0.1,3.0,-0.2,2.2,12.9,-9.899999999999999,27.700000000000003,51.1,16
1039,17436.0,-0.6000000000000001,-0.30000000000000004,3.8000000000000003,-0.30000000000000004,1.9000000000000001,13.3,3.2,21.900000000000002,51.1,16
1040,17452.0,-0.7000000000000001,-0.6000000000000001,3.5,-0.30000000000000004,1.8,12.8,23.099999999999998,6.8,50.2,16
1041,17469.0,-0.30000000000000004,-0.5,2.3000000000000003,0.2,2.1,11.200000000000001,30.699999999999996,-2.8,47.5,16
1042,17486.0,-0.1,-0.2,1.0,0.0,2.4000000000000004,9.8,14.700000000000001,2.9,42.3,16
1043,17502.0,-0.5,-0.2,0.1,-0.30000000000000004,2.3000000000000003,9.600000000000001,-20.5,19.400000000000002,36.300000000000004,16
1044,17519.0,-1.2000000000000002,-0.6000000000000001,0.5,-1.5,1.3,11.200000000000001,-63.8,40.4,29.500000000000004,16
1045,17536.0,-2.2,-1.3,2.4000000000000004,-2.5,0.4,13.600000000000001,-68.5,38.900000000000006,21.400000000000002,16
1046,17552.0,-2.7,-1.7000000000000002,4.1000000000000005,-2.6,0.1,14.0,-23.900000000000006,17.7,20.5,16
1047,17569.0,-2.7,-1.8,3.9000000000000004,-2.5,0.2,11.700000000000001,28.1,-16.1,22.700000000000003,16
1048,17586.0,-2.5,-1.5,1.4000000000000001,-2.1,1.0,8.4,64.80000000000001,-47.3,26.9,16
1049,17602.0,-2.2,-0.4,-3.5,-2.0,1.4000000000000001,7.0,75.5,-60.2,34.400000000000006,16
1050,17619.0,-2.0,0.2,-5.4,-1.6,2.4000000000000004,4.4,54.1,-45.0,45.5,16
1051,17635.0,-2.0,0.4,-7.1000000000000005,-1.4000000000000001,2.8000000000000003,2.3000000000000003,11.900000000000002,-20.0,57.1,16
1052,17652.0,-1.9000000000000001,0.1,-7.4,-1.3,2.6,2.0,-40.7,6.699999999999999,67.2,16
1053,17669.0,-1.9000000000000001,-0.6000000000000001,-6.1000000000000005,-1.3,1.6,3.4000000000000004,-88.9,34.1,72.2,16
1054,17686.0,-2.2,-1.3,-3.8000000000000003,-1.6,0.6000000000000001,6.4,-113.7,56.9,73.8,16
1055,17702.0,-2.1,-1.5,-1.7000000000000002,-1.6,0.30000000000000004,7.7,-110.0,73.2,74.30000000000001,16
1056,17719.0,-1.8,-1.4000000000000001,-1.1,-1.4000000000000001,0.0,8.6,-84.6,77.00000000000001,72.7,16
1057,17736.0,-1.6,-1.0,-1.7000000000000002,-1.5,0.4,7.9,-47.5,55.7,72.80000000000001,16
1058,17755.0,-1.5,-0.2,-1.8,-1.2000000000000002,1.3,8.200000000000001,-10.5,23.3,76.60000000000001,16
1059,17769.0,-1.1,0.5,-1.4000000000000001,-1.0,1.6,8.4,18.1,2.9,81.2,16
1060,17786.0,-0.5,0.8,-1.2000000000000002,-0.2,2.2,8.700000000000001,29.900000000000006,3.8,85.4,16
1061,17802.0,0.2,1.3,-1.3,0.30000000000000004,2.5,8.4,17.200000000000003,30.4,86.5,16
1062,17819.0,1.0,1.5,-2.1,1.1,2.7,7.7,-12.299999999999999,48.0,80.7,16
1063,17838.0,1.4000000000000001,1.4000000000000001,-1.3,1.2000000000000002,2.5,9.5,-40.5,38.50000000000001,69.9,16
1064,17852.0,1.3,1.4000000000000001,0.6000000000000001,1.0,2.5,10.9,-59.60000000000001,27.800000000000004,58.2,16
1065,17869.0,0.9,1.4000000000000001,2.4000000000000004,0.30000000000000004,2.2,12.9,-68.4,24.200000000000003,48.10000000000001,16
1066,17886.0,0.4,1.3,3.9000000000000004,-0.30000000000000004,1.8,14.8,-64.0,16.8,41.50000000000001,16
1067,17902.0,0.0,1.2000000000000002,5.300000000000001,-0.4,1.6,15.4,-43.300000000000004,7.9,37.6,16
1068,17919.0,0.0,1.1,5.7,-0.30000000000000004,1.4000000000000001,15.0,-11.700000000000001,-4.2,36.0,16
1069,17936.0,0.2,1.0,4.800000000000001,0.2,1.6,13.600000000000001,44.4,-40.2,32.0,16
1070,17953.0,0.5,1.2000000000000002,3.7,0.4,1.7000000000000002,12.9,49.199999999999996,-43.70000000000001,28.0,16
1071,17969.0,0.7000000000000001,1.2000000000000002,2.4000000000000004,0.6000000000000001,1.8,11.3,41.900000000000006,-47.1,22.700000000000003,16
1072,17986.0,0.7000000000000001,1.1,1.3,0.8,2.0,11.200000000000001,31.3,-50.3,17.9,16
1073,18003.0,0.8,1.1,1.9000000000000001,0.9,2.0,11.600000000000001,25.200000000000003,-50.5,14.800000000000002,16
1074,18019.0,1.1,1.2000000000000002,1.8,1.4000000000000001,2.2,11.600000000000001,25.900000000000002,-54.9,12.5,16
1075,18036.0,1.1,1.3,1.6,1.6,2.3000000000000003,11.3,24.5,-53.300000000000004,11.4,16
1076,18052.0,0.9,1.3,1.4000000000000001,1.6,2.4000000000000004,11.200000000000001,16.4,-42.400000000000006,12.299999999999999,16
1077,18069.0,0.2,1.0,1.8,1.0,2.2,11.600000000000001,3.4,-18.900000000000002,15.700000000000001,16
1078,18086.0,-0.7000000000000001,0.2,3.1,-0.1,1.2000000000000002,13.100000000000001,-10.1,24.3,21.200000000000003,16
1079,18102.0,-1.3,-0.7000000000000001,4.0,-0.5,0.5,13.600000000000001,-11.700000000000001,53.8,24.5,16
1080,18119.0,-1.2000000000000002,-1.7000000000000002,4.5,-0.5,-0.7000000000000001,14.200000000000001,10.1,45.3,23.2,16
1081,18136.0,-0.5,-2.2,3.4000000000000004,0.2,-1.1,12.200000000000001,52.300000000000004,3.3000000000000007,16.3,16
1082,18153.0,-0.1,-2.0,1.2000000000000002,0.4,-0.7000000000000001,10.9,89.8,-44.300000000000004,9.5,16
1083,18169.0,0.2,-1.1,-0.4,0.9,0.6000000000000001,8.700000000000001,94.4,-52.400000000000006,3.2,16
1084,18186.0,0.2,-0.5,-3.0,1.1,1.6,5.800000000000001,62.300000000000004,-37.2,-0.8,16
1085,18202.0,0.2,-0.2,-3.9000000000000004,1.1,1.7000000000000002,5.800000000000001,14.400000000000002,-28.900000000000002,-4.4,16
1086,18219.0,-0.1,-0.5,-1.6,0.6000000000000001,1.1,9.0,-21.0,-15.700000000000001,-7.9,16
1087,18236.0,-0.6000000000000001,-1.1,0.5,0.2,0.6000000000000001,10.600000000000001,-24.400000000000002,0.7,-9.4,16
1088,18252.0,-0.8,-1.3,1.1,0.1,0.6000000000000001,10.600000000000001,-1.4,4.300000000000001,-10.299999999999999,16
1089,18269.0,-1.1,-1.3,0.5,-0.30000000000000004,0.7000000000000001,9.4,29.800000000000004,-1.5,-10.9,16
1090,18286.0,-1.2000000000000002,-1.0,-1.0,-0.1,1.2000000000000002,7.7,53.400000000000006,-13.5,-10.4,16
1091,18305.0,-1.1,-0.8,-2.1,0.2,1.7000000000000002,6.300000000000001,59.20000000000001,-23.099999999999998,-9.0,16
1092,18319.0,-0.9,-0.6000000000000001,-3.2,0.4,1.8,5.7,59.20000000000001,-23.099999999999998,-9.0,16
1093,18336.0,-0.6000000000000001,-0.5,-4.1000000000000005,0.7000000000000001,2.1,4.9,32.300000000000004,-19.799999999999997,-7.8,16
1094,18352.0,-0.4,-0.4,-4.5,0.7000000000000001,2.2,4.9,14.600000000000001,-10.200000000000001,-6.4,16
1095,18369.0,-0.5,-0.30000000000000004,-4.3,0.6000000000000001,2.4000000000000004,5.4,-1.0,4.9,-3.2,16
1096,18386.0,-0.7000000000000001,-0.2,-3.8000000000000003,0.4,2.6,6.1000000000000005,-10.1,15.399999999999999,1.2000000000000002,16
1097,18402.0,-1.0,0.1,-2.7,0.30000000000000004,2.7,6.5,-11.4,21.6,6.699999999999999,16
1098,18419.0,-1.2000000000000002,0.4,-2.2,-0.1,2.9000000000000004,7.2,-8.100000000000001,27.700000000000003,15.700000000000001,16
1099,18436.0,-1.2000000000000002,0.7000000000000001,-1.8,-0.2,3.3000000000000003,7.6000000000000005,-4.7,34.50000000000001,26.200000000000003,16
1100,18454.0,-1.2000000000000002,0.8,-1.3,-0.2,3.4000000000000004,8.0,-5.0,46.0,35.699999999999996,16
1101,18469.0,-0.9,0.4,-0.8,-0.1,2.9000000000000004,8.700000000000001,-9.600000000000001,57.699999999999996,42.400000000000006,16
1102,18486.0,-0.5,-0.1,-0.2,0.30000000000000004,2.3000000000000003,9.4,-10.0,56.0,43.70000000000001,16
1103,18502.0,-0.2,-0.4,0.7000000000000001,0.4,2.1,10.0,-2.6,44.10000000000001,40.9,16
1104,18519.0,-0.2,-0.4,1.4000000000000001,0.4,2.0,10.9,7.6,33.0,35.9,16
1105,18536.0,-0.30000000000000004,-0.30000000000000004,1.5,0.1,2.3000000000000003,10.9,12.4,26.300000000000004,30.599999999999998,16
1106,18552.0,-0.7000000000000001,-0.2,1.1,-0.30000000000000004,2.3000000000000003,10.600000000000001,10.4,13.700000000000001,26.9,16
1107,18569.0,-1.0,-0.1,1.0,-0.6000000000000001,2.4000000000000004,10.600000000000001,6.9,-7.500000000000001,25.0,16
1108,18586.0,-1.2000000000000002,-0.1,1.6,-0.6000000000000001,2.4000000000000004,11.3,4.6,-21.8,23.5,16
1109,18602.0,-1.2000000000000002,-0.1,2.1,-0.6000000000000001,2.5,11.600000000000001,3.2,-22.3,22.8,16
1110,18619.0,-1.2000000000000002,0.0,2.2,-0.6000000000000001,2.6,11.600000000000001,2.4000000000000004,-15.299999999999999,23.3,16
1111,18636.0,-1.2000000000000002,0.0,1.8,-0.4,2.6,10.9,3.1,-12.600000000000001,25.300000000000004,16
1112,18652.0,-1.0,0.1,1.3,-0.30000000000000004,2.7,10.600000000000001,-1.0,-10.4,28.600000000000005,16
1113,18669.0,-1.0,0.2,0.5,-0.4,2.7,9.600000000000001,-18.6,1.6,32.9,16
1114,18686.0,-1.4000000000000001,0.0,-0.1,-1.2000000000000002,1.9000000000000001,9.700000000000001,-53.50000000000001,23.400000000000002,37.1,16
1115,18702.0,-2.2,-0.8,0.7000000000000001,-1.8,1.2000000000000002,10.9,-96.20000000000002,45.6,38.2,16
1116,18719.0,-3.0,-1.6,3.2,-2.6,-0.30000000000000004,14.700000000000001,-113.5,53.599999999999994,36.9,16
1117,18736.0,-3.1,-2.3000000000000003,5.9,-2.1,-0.8,15.600000000000001,-22.8,18.900000000000002,28.400000000000002,16
1118,18753.0,-2.5,-2.3000000000000003,5.7,-1.9000000000000001,-0.6000000000000001,13.8,43.00000000000001,-22.4,25.5,16
1119,18769.0,-2.2,-1.8,2.3000000000000003,-1.4000000000000001,0.6000000000000001,9.5,81.8,-62.6,28.400000000000002,16
1120,18786.0,-1.8,-0.7000000000000001,-0.8,-0.6000000000000001,2.2,6.7,78.10000000000001,-62.50000000000001,34.300000000000004,16
1121,18802.0,-0.5,1.0,-5.300000000000001,0.0,2.8000000000000003,5.2,39.1,-30.3,40.7,16
1122,18819.0,0.0,1.0,-6.0,0.9,3.1,3.4000000000000004,-8.3,-4.7,42.7,16
1123,18836.0,-0.4,0.6000000000000001,-4.0,0.6000000000000001,2.6,5.9,-43.00000000000001,22.3,43.50000000000001,16
1124,18852.0,-0.9,0.30000000000000004,-2.0,0.2,2.4000000000000004,7.1000000000000005,-54.300000000000004,52.1,45.7,16
1125,18869.0,-1.4000000000000001,0.1,-1.4000000000000001,-0.6000000000000001,1.9000000000000001,8.200000000000001,-46.50000000000001,68.4,50.60000000000001,16
1126,18886.0,-1.6,0.2,-1.2000000000000002,-1.0,1.8,8.5,-29.300000000000004,68.1,57.00000000000001,16
1127,18902.0,-1.6,0.30000000000000004,-1.3,-1.1,1.8,8.4,-9.3,55.900000000000006,64.4,16
1128,18919.0,-1.2000000000000002,0.30000000000000004,-1.5,-0.8,1.9000000000000001,8.200000000000001,7.500000000000001,40.9,69.7,16
1129,18936.0,-0.8,0.30000000000000004,-1.9000000000000001,-0.30000000000000004,1.9000000000000001,7.4,16.900000000000002,30.5,72.4,16
1130,18953.0,-0.30000000000000004,0.4,-2.9000000000000004,-0.1,2.0,6.800000000000001,14.900000000000002,19.700000000000003,71.8,16
1131,18969.0,-0.1,0.6000000000000001,-3.2,0.30000000000000004,2.3000000000000003,6.5,-0.8,12.200000000000001,68.2,16
1132,18989.0,0.2,0.8,-3.1,0.4,2.4000000000000004,6.9,-26.5,13.200000000000003,63.0,16
1133,19002.0,0.2,0.8,-2.4000000000000004,0.4,2.4000000000000004,7.4,-48.9,11.000000000000002,56.50000000000001,16
1134,19019.0,0.1,0.8,-0.9,0.2,2.2,9.200000000000001,-57.1,4.800000000000001,50.900000000000006,16
1135,19036.0,-0.2,0.9,0.30000000000000004,-0.1,2.2,10.700000000000001,-53.2,2.8,46.50000000000001,16
1136,19053.0,-0.4,1.0,1.3,-0.2,2.1,11.200000000000001,-40.800000000000004,3.3000000000000007,44.300000000000004,16
1137,19069.0,-0.4,1.1,1.8,-0.1,2.0,11.700000000000001,-23.3,1.0,42.0,16
1138,19086.0,-0.2,1.0,2.0,0.2,1.9000000000000001,11.8,-4.800000000000001,-5.1000000000000005,38.1,16
1139,19103.0,-0.1,1.1,2.0,0.30000000000000004,2.0,11.600000000000001,11.2,-11.4,32.5,16
1140,19119.0,0.1,1.2000000000000002,1.6,0.5,2.2,11.200000000000001,21.900000000000002,-17.799999999999997,26.1,16
1141,19138.0,0.0,1.3,1.6,0.5,2.4000000000000004,11.3,22.5,-12.600000000000001,15.8,16
1142,19153.0,0.0,1.3,1.6,0.30000000000000004,2.3000000000000003,11.4,22.5,-12.600000000000001,15.8,16
1143,19169.0,-0.30000000000000004,1.1,1.8,-0.30000000000000004,2.1,11.9,16.700000000000003,5.1000000000000005,13.6,16
1144,19186.0,-0.9,0.8,2.4000000000000004,-0.4,1.6,12.3,23.099999999999998,2.4000000000000004,14.600000000000001,16
1145,19202.0,-0.4,0.1,2.3000000000000003,-0.1,1.4000000000000001,12.100000000000001,34.400000000000006,-14.400000000000002,12.8,16
1146,19219.0,0.30000000000000004,0.0,1.7000000000000002,0.7000000000000001,1.3,11.5,47.60000000000001,-40.1,8.8,16
1147,19236.0,0.8,0.4,1.0,1.5,1.9000000000000001,10.600000000000001,53.400000000000006,-58.2,4.2,16
1148,19252.0,1.3,0.8,0.30000000000000004,2.0,2.3000000000000003,10.200000000000001,42.60000000000001,-55.3,-0.1,16
1149,19269.0,1.6,1.2000000000000002,-0.5,2.6,3.0,9.200000000000001,19.9,-42.800000000000004,-3.3000000000000007,16
1150,19286.0,1.5,1.2000000000000002,-1.0,2.4000000000000004,2.9000000000000004,8.6,-4.5,-32.2,-4.800000000000001,16
1151,19302.0,0.9,0.8,-0.7000000000000001,2.1,2.6,8.8,-26.000000000000004,-13.6,-3.7000000000000006,16
1152,19319.0,0.0,0.1,0.7000000000000001,1.1,1.8,10.5,-40.6,23.900000000000006,-1.7,16
1153,19336.0,-0.5,-0.4,1.8,0.5,1.0,11.5,-36.9,56.2,0.0,16
1154,19352.0,-0.5,-0.7000000000000001,1.7000000000000002,0.4,0.8,11.4,-10.700000000000001,56.10000000000001,0.1,16
1155,19369.0,-0.2,-0.6000000000000001,0.2,0.7000000000000001,0.9,9.5,25.1,30.200000000000003,-0.8,16
1156,19386.0,0.1,-0.30000000000000004,-1.8,0.8,1.5,7.0,50.400000000000006,-3.5,-2.2,16
1157,19402.0,0.1,0.30000000000000004,-3.4000000000000004,0.8,2.1,6.1000000000000005,48.70000000000001,-25.8,-1.0,16
1158,19419.0,-0.2,1.1,-4.5,0.5,3.0,4.800000000000001,15.000000000000002,-17.5,3.4,16
1159,19436.0,-0.4,1.0,-4.800000000000001,0.4,2.1,6.4,-38.800000000000004,13.200000000000003,9.100000000000001,16
1160,19453.0,-0.7000000000000001,-0.1,-1.7000000000000002,-0.2,1.2000000000000002,9.4,-91.10000000000001,63.2,9.8,16
1161,19474.0,-1.6,-1.4000000000000001,3.0,-1.3,-0.4,14.4,-72.10000000000001,136.8,12.5,16
1162,19486.0,-1.6,-2.0,5.6000000000000005,-1.2000000000000002,-1.3,14.9,-72.10000000000001,136.8,12.5,16
1163,19502.0,-1.2000000000000002,-2.4000000000000004,4.800000000000001,-1.5,-1.5,13.600000000000001,-4.6,97.8,9.8,16
1164,19519.0,-1.4000000000000001,-2.3000000000000003,2.3000000000000003,-1.6,-0.5,11.3,66.0,15.299999999999999,9.3,16
1165,19536.0,-1.1,-1.2000000000000002,1.4000000000000001,-1.3,0.8,10.600000000000001,131.10000000000002,-77.9,12.100000000000001,16
1166,19552.0,-1.0,-0.6000000000000001,0.9,-0.8,1.6,10.4,93.2,-19.5,15.8,16
1167,19569.0,-0.5,0.2,-0.7000000000000001,-0.4,2.3000000000000003,6.1000000000000005,41.1,10.4,19.1,16
1168,19585.0,-0.4,0.2,-4.0,-0.4,2.1,6.300000000000001,4.0,-3.9,21.6,16
1169,19602.0,-0.30000000000000004,-0.2,-1.5,-0.2,2.1,7.6000000000000005,-13.399999999999999,-10.4,24.900000000000002,16
1170,19619.0,-0.2,-0.2,-0.6000000000000001,-0.1,2.0,8.9,-16.5,-9.0,28.600000000000005,16
1171,19636.0,-0.30000000000000004,-0.1,-0.7000000000000001,-0.1,2.1,8.8,-12.100000000000001,-12.100000000000001,33.0,16
1172,19652.0,-0.30000000000000004,0.0,-1.1,-0.1,2.1,8.5,-7.300000000000001,-21.1,37.400000000000006,16
1173,19669.0,-0.2,0.2,-1.3,0.1,2.3000000000000003,8.3,-5.7,-26.6,40.7,16
1174,19686.0,0.0,0.2,-1.4000000000000001,0.4,2.3000000000000003,8.3,-5.6,-25.7,43.4,16
1175,19702.0,0.2,0.2,-1.2000000000000002,0.6000000000000001,2.2,8.3,-1.2000000000000002,-24.5,44.8,16
1176,19719.0,0.30000000000000004,0.2,-1.0,0.9,2.2,8.6,6.600000000000001,-22.000000000000004,45.400000000000006,16
1177,19736.0,0.30000000000000004,0.30000000000000004,-1.1,1.0,2.3000000000000003,8.4,12.200000000000001,-15.899999999999999,45.3,16
1178,19752.0,0.2,0.30000000000000004,-1.3,0.9,2.3000000000000003,8.3,12.600000000000001,-9.5,44.7,16
1179,19769.0,-0.1,0.2,-0.9,0.5,2.3000000000000003,8.8,7.8,-0.6000000000000001,45.099999999999994,16
1180,19786.0,-0.6000000000000001,0.2,-0.2,0.2,2.1,9.9,1.3,13.8,47.0,16
1181,19803.0,-0.7000000000000001,-0.1,0.8,0.1,1.9000000000000001,10.5,-2.4000000000000004,26.700000000000003,48.800000000000004,16
1182,19819.0,-0.8,-0.5,1.7000000000000002,-0.1,1.4000000000000001,11.5,2.5,31.400000000000002,50.1,16
1183,19847.0,-0.6000000000000001,-0.9,1.3,0.1,1.2000000000000002,10.600000000000001,22.9,17.6,54.0,16
1184,19857.0,-0.6000000000000001,-0.9,1.3,0.30000000000000004,1.3,10.100000000000001,12.4,13.200000000000003,52.5,16
1185,19869.0,-0.2,-0.9,0.4,0.6000000000000001,1.3,9.700000000000001,12.4,13.200000000000003,52.5,16
1186,19886.0,-0.1,-1.1,-0.1,0.4,0.8,9.600000000000001,-17.5,24.8,46.7,16
1187,19902.0,-0.30000000000000004,-1.5,0.30000000000000004,0.1,0.4,10.200000000000001,-56.10000000000001,47.400000000000006,38.300000000000004,16
1188,19919.0,-0.9,-2.0,1.5,-0.8,-0.4,12.3,-84.1,62.300000000000004,27.800000000000004,16
1189,19936.0,-1.3,-2.4000000000000004,3.4000000000000004,-1.1,-1.0,14.100000000000001,-51.9,37.7,9.8,16
1190,19952.0,-1.2000000000000002,-2.5,4.5,-0.9,-1.0,14.100000000000001,-4.6,13.200000000000003,2.0,16
1191,19969.0,-0.8,-2.3000000000000003,3.6,-0.5,-0.4,11.5,36.400000000000006,-17.5,-3.8,16
1192,19985.0,-0.5,-1.6,1.3,-0.2,0.7000000000000001,9.0,49.300000000000004,-29.900000000000006,-7.300000000000001,16
1193,20002.0,0.0,0.0,-2.8000000000000003,0.1,1.3,7.6000000000000005,34.7,-23.099999999999998,-8.3,16
1194,20019.0,0.0,0.30000000000000004,-3.7,0.2,2.0,5.9,7.6,-13.900000000000002,-7.400000000000001,16
1195,20036.0,-0.2,0.4,-3.0,0.0,2.1,6.800000000000001,-16.700000000000003,4.7,-3.8,16
1196,20052.0,-0.5,0.30000000000000004,-2.0,-0.2,2.0,7.4,-29.200000000000003,29.500000000000004,2.7,16
1197,20069.0,-0.7000000000000001,0.2,-1.7000000000000002,-0.6000000000000001,1.8,8.0,-27.2,41.300000000000004,10.4,16
1198,20086.0,-0.9,0.2,-1.7000000000000002,-0.9,1.8,8.0,-16.8,37.50000000000001,17.7,16
1199,20102.0,-0.8,0.30000000000000004,-1.8,-0.9,1.8,8.0,-2.7,26.200000000000003,24.5,16
1200,20119.0,-0.6000000000000001,0.6000000000000001,-2.0,-0.6000000000000001,2.1,7.6000000000000005,11.6,13.6,30.200000000000003,16
1201,20136.0,-0.2,0.8,-2.6,-0.2,2.5,6.800000000000001,23.0,2.8,35.599999999999994,16
1202,20152.0,0.2,1.2000000000000002,-3.4000000000000004,0.1,2.8000000000000003,6.300000000000001,23.5,-2.6,40.4,16
1203,20169.0,0.7000000000000001,1.4000000000000001,-4.0,0.7000000000000001,3.1,5.6000000000000005,11.1,-3.7000000000000006,43.2,16
1204,20186.0,1.0,1.6,-4.2,1.0,3.3000000000000003,5.7,-10.8,-4.5,45.0,16
1205,20202.0,1.1,1.6,-3.4000000000000004,1.1,3.2,6.4,-34.7,-1.8000000000000003,45.9,16
1206,20220.0,1.1,1.5,-2.1,1.1,2.9000000000000004,8.3,-52.900000000000006,6.600000000000001,45.9,16
1207,20236.0,1.0,1.3,-0.4,0.9,2.4000000000000004,10.0,-60.1,15.100000000000001,44.2,16
1208,20253.0,0.8,1.0,0.8,0.7000000000000001,2.2,10.700000000000001,-56.50000000000001,19.0,41.0,16
1209,20269.0,0.4,0.9,1.7000000000000002,0.2,1.9000000000000001,11.9,-45.099999999999994,19.5,36.9,16
1210,20286.0,0.2,0.8,2.5,0.2,1.7000000000000002,12.600000000000001,-29.800000000000004,17.0,32.8,16
1211,20302.0,0.30000000000000004,0.8,2.8000000000000003,0.30000000000000004,1.6,12.600000000000001,-11.3,7.6,26.400000000000006,16
1212,20319.0,0.4,0.8,2.6,0.4,1.8,12.0,7.500000000000001,-11.1,18.3,16
1213,20336.0,0.5,1.1,2.0,0.30000000000000004,2.3000000000000003,11.700000000000001,16.0,-30.599999999999998,2.7,16
1214,20353.0,0.30000000000000004,1.4000000000000001,1.9000000000000001,0.1,2.4000000000000004,11.600000000000001,6.2,-20.3,-0.2,16
1215,20369.0,-0.2,1.5,2.0,-0.6000000000000001,2.4000000000000004,12.5,-1.6,-6.1000000000000005,0.30000000000000004,16
1216,20386.0,-0.9,1.3,3.0,-1.3,1.7000000000000002,13.700000000000001,0.1,-0.8,2.7,16
1217,20402.0,-1.4000000000000001,0.2,4.3,-1.4000000000000001,1.3,13.9,11.900000000000002,-13.000000000000002,3.8,16
1218,20419.0,-0.7000000000000001,0.1,3.8000000000000003,-0.7000000000000001,1.1,13.8,31.799999999999997,-36.1,2.3,16
1219,20507.0,-0.7000000000000001,0.7000000000000001,0.6000000000000001,-0.2,1.3,11.100000000000001,-52.5,22.000000000000004,3.4,16
1220,20521.0,-1.0,-0.6000000000000001,2.3000000000000003,-0.30000000000000004,0.5,12.200000000000001,-60.8,43.00000000000001,6.8,16
1221,20542.0,-0.6000000000000001,-1.4000000000000001,3.0,0.2,-0.6000000000000001,12.700000000000001,-36.300000000000004,36.0,3.9,16
1222,20582.0,0.5,-0.4,-0.9,0.9,0.5,9.0,51.1,-11.900000000000002,-13.399999999999999,16
1223,20585.0,0.5,-0.4,-0.9,1.0,1.0,7.800000000000001,51.1,-11.900000000000002,-13.399999999999999,16
1224,20602.0,0.5,0.1,-2.8000000000000003,1.0,1.3,6.800000000000001,31.099999999999998,7.0,-15.5,16
1225,20619.0,0.4,0.1,-2.8000000000000003,0.8,1.3,7.6000000000000005,1.5,22.6,-16.900000000000002,16
1226,20635.0,0.1,-0.4,-0.9,0.30000000000000004,0.6000000000000001,9.700000000000001,-14.900000000000002,41.4,-16.5,16
1227,20652.0,0.0,-0.7000000000000001,0.30000000000000004,0.2,0.4,10.200000000000001,-9.2,48.0,-15.8,16
1228,20669.0,-0.2,-0.9,0.7000000000000001,-0.2,0.30000000000000004,10.3,11.3,42.0,-16.3,16
1229,20685.0,-0.30000000000000004,-1.0,0.1,-0.5,0.4,8.8,33.7,28.800000000000004,-17.5,16
1230,20702.0,-0.4,-0.8,-1.2000000000000002,-0.5,0.6000000000000001,8.200000000000001,50.60000000000001,8.4,-18.8,16
1231,20719.0,-0.4,-0.6000000000000001,-1.9000000000000001,-0.6000000000000001,1.1,7.300000000000001,57.60000000000001,-6.1000000000000005,-19.1,16
