,ms,accelX,accelY,accelZ,accelWithGX,accelWithGY,accelWithGZ,rotRateAlpha,rotRateBeta,rotRateGamma,interval
0,547.0,-0.4774749254295602,-0.24681809424720702,0.27067957469215614,-0.7442974593673832,-2.238129566369578,-9.327959543034527,1.544048465307244,3.4230938037415184,-7.6407499169329665,0.01666666753590107
1,558.0,-0.4718728311061859,-0.23977464200910178,0.23429633846217765,-0.7772176956619136,-2.261473215219192,-9.3568392717666,0.6064333398592444,4.127650228186548,-7.162586302386945,0.01666666753590107
2,575.0,-0.6186728002872318,-0.40744668229445813,0.2680261558402329,-0.8916904808044434,-2.423530630493164,-9.325265755639597,-3.2330589445681346,8.468671297176062,-7.4860179577018515,0.01666666753590107
3,593.0,-0.5659424595640972,-0.48358887826520947,0.16366293250815941,-0.8221090133224613,-2.4922143271515145,-9.431657854450773,-4.746646793889531,7.602126050950191,-7.283911806387528,0.01666666753590107
4,609.0,-0.5951185408942401,-0.44126079868879164,0.016571683054737513,-0.8773252525771967,-2.4741081040313464,-9.572916159967013,-7.55639451936237,7.721924153897629,-6.74607624415769,0.01666666753590107
5,625.0,-0.621278745001927,-0.44229171263910827,-0.12272067213379777,-0.8886976921966299,-2.460042278875783,-9.715819691390031,-8.71028753151797,6.716722225539091,-5.56783446138464,0.01666666753590107
6,642.0,-0.5499292632004246,-0.3638518341852352,-0.4085980077540502,-0.8394669936249032,-2.3745990975311027,-10.002525879049859,-6.750077454350849,3.2201097596754367,-3.1742271101522297,0.01666666753590107
7,658.0,-0.6810842482756823,-0.35474143947996195,-0.5306425615914165,-0.9632172371353023,-2.346167916284129,-10.128819907025248,-4.7205055255017765,0.7276504679676061,-3.2883395075024557,0.01666666753590107
8,675.0,-0.7051817476999014,-0.30990371517017484,-0.5556652495691552,-0.9864110657180659,-2.2943935245789584,-10.15530565329287,-3.5606160341417286,-0.5543609381224192,-3.691777864320776,0.01666666753590107
9,691.0,-0.6614310879744589,-0.24062123063476754,-0.5746986705368384,-0.997783505337499,-2.2282535758529787,-10.171915646505914,-1.817764774479214,-2.84573513843599,-4.014996929997765,0.01666666753590107
10,709.0,-0.6650795274794101,-0.23256628153286873,-0.5578462103374302,-1.0043675964355467,-2.2185270402770487,-10.155305762890725,-0.8812871423322862,-2.4103406743687077,-3.6630530768794642,0.01666666753590107
11,725.0,-0.4674193953612819,-0.2200850952202454,-0.446252579094097,-0.8164228026458993,-2.2067057791778817,-10.043226978478952,0.27848063292231856,-4.333126650969449,-2.8125312410030308,0.01666666753590107
12,742.0,-0.4410173818543553,-0.20883078382145612,-0.2837538497934118,-0.7984662536621093,-2.1939865097930653,-9.880720650393702,-1.3068385567536398,-5.3431502659951935,-2.610271837319205,0.01666666753590107
13,759.0,-0.3873983121305704,-0.17794954254124312,-0.15965797118311748,-0.7924807495117187,-2.1624129023345184,-9.754875297767576,-3.3231741125997556,-5.650791377722677,-3.385594144207444,0.01666666753590107
14,775.0,-0.31456008960865434,-0.15486578673683107,-0.2367793326506391,-0.7383119369506835,-2.128445348944142,-9.833435167605616,-2.8893512323718107,-5.9341136009103295,-3.242366998302981,0.01666666753590107
15,792.0,-0.23688244596524163,-0.13235201284009962,-0.26891795358080417,-0.6863876701797358,-2.107346264150925,-9.864110730245896,-1.9521694504101366,-5.360262878073837,-2.6815339756942986,0.01666666753590107
16,808.0,-0.1297969397961162,-0.13890636638700962,-0.2646311065744609,-0.6048351761306636,-2.1161749923706052,-9.858125262628123,-1.0156222357110392,-4.92527203549782,-1.3560360891801244,0.01666666753590107
17,825.0,-0.0771687990721315,-0.1624428161286749,-0.22034069568281991,-0.5605425002167002,-2.1369745644942855,-9.813982151252683,-1.8095828481837735,-4.929972059420435,-1.4309109707393313,0.01666666753590107
18,842.0,-0.11068792370841837,-0.17951808876590802,-0.13785474757538177,-0.6060322678275871,-2.1458031100508754,-9.732579322206833,-3.8315359144571075,-4.65570666707222,-1.5848620472492436,0.01666666753590107
19,858.0,-0.09809072806700132,-0.13901037475075573,-0.2829135265117511,-0.6172551063758787,-2.0928314896514637,-9.878925218344293,-5.128083403843948,-5.379127006787766,-0.9645297526766993,0.01666666753590107
20,874.0,-0.10981769847883842,-0.13916347382008099,-0.2895433747139759,-0.6437409622413571,-2.088491953476658,-9.885658526920992,-4.696020577987751,-4.66315370770165,-0.7558778255382705,0.01666666753590107
21,891.0,-0.10880947128436527,-0.18264069603215902,-0.3221896711716428,-0.6697779052955564,-2.130390528195165,-9.917082588107325,-3.4638606415763857,-5.016471709503593,-0.11982103477396844,0.01666666753590107
22,908.0,-0.17440191479595377,-0.18746154031734913,-0.3234196148253977,-0.7553706420456059,-2.130240890591405,-9.918130160931497,-4.115801130637045,-3.8067640989979403,0.21848000906512174,0.01666666753590107
23,925.0,-0.17272746051140128,-0.19436836056374013,-0.2549501819722354,-0.7842507178375497,-2.1354783163208513,-9.848099470110983,-4.035830287626774,-4.243198245922946,-0.05596615651247458,0.01666666753590107
24,941.0,-0.1475461479058489,-0.20904532162128014,-0.3552674726480618,-0.7662942053863778,-2.1444566273453645,-9.94910474305097,-3.024767630073541,-4.02434148255599,-0.6756255573898536,0.01666666753590107
25,958.0,-0.16182864801939575,-0.14787634797459467,-0.46868751560095695,-0.8056488951751962,-2.0817583983047863,-10.061183308267035,-1.0732506761725524,-3.7342859735071734,-1.3576798168925701,0.01666666753590107
26,975.0,-0.16618123547201974,-0.15746374907447025,-0.46705224254932254,-0.8207622383560054,-2.0929811455215326,-10.058490050595067,-0.5701243210357211,-2.5900006896362537,-1.4978646471303219,0.01666666753590107
27,992.0,-0.13093908643540925,-0.20076443654270842,-0.4820115094132721,-0.7962216622062492,-2.14445651774751,-10.071059791973978,0.5097411265437242,-0.6558187558487572,-1.2205376224866478,0.01666666753590107
28,1008.0,-0.041280789880035446,-0.2550895539103076,-0.3693472167311236,-0.7109282828621101,-2.2105962838103994,-9.95568916294258,-0.7829729191714466,-0.9497494367562032,-0.6721125456397928,0.01666666753590107
29,1025.0,-0.0009568840246589388,-0.18641508173802868,-0.38905861002560704,-0.6715735873650701,-2.145055141227785,-9.974693284750543,-0.130417939869111,-1.2315686981613356,-0.5971725638400591,0.01666666753590107
30,1041.0,-0.011381972349470014,-0.1883571374502033,-0.2820594486993737,-0.6902782821268192,-2.1601685209412125,-9.86441027944805,1.253841518157924,-3.7262383031176056,-0.2991322968472339,0.01666666753590107
31,1059.0,-0.03563161871165502,-0.14030119087942874,-0.3046735228991136,-0.7206546677409904,-2.1166239143150394,-9.885658910513483,1.0343150760871889,-2.5109653690988627,0.041457087147435324,0.01666666753590107
32,1075.0,-0.0983464929263573,-0.16806398047870025,-0.2879092159071937,-0.7839513604316394,-2.1571757505997082,-9.866205802829004,1.526445146825417,2.2127731837578577,0.9971303523068759,0.01666666753590107
33,1091.0,-0.08169455113457515,-0.1600021267119795,-0.15366972708636895,-0.7656956367050297,-2.154631783471629,-9.730933463829103,0.5898726390820493,2.3494565815506254,1.1292700734759986,0.01666666753590107
34,1108.0,-0.03182811422586674,-0.11791249553393572,0.010377774017787306,-0.7133224776724004,-2.1167735062530264,-9.566182198369765,-1.9265071490379293,0.7592966553829792,0.9802420692537847,0.01666666753590107
35,1125.0,0.016581516037229446,-0.1152976733930409,0.022382562432228588,-0.6652888411148451,-2.1124340522766114,-9.554510587432445,-3.0756572351451905,-0.5337838193089922,1.325485293352892,0.01666666753590107
36,1141.0,-0.12002752405968493,-0.07611801137756556,-0.001220658232417918,-0.8114846977897454,-2.0654478081634267,-9.579051381208147,-4.8042824914270374,-1.4030020707387187,2.3607340776439627,0.01666666753590107
37,1158.0,-0.22180503261433912,-0.09085864878846332,-0.06465287023968994,-0.9225158454452641,-2.065298188825976,-9.644891823400929,-6.541534703517434,0.08637521257421593,2.968736386660753,0.01666666753590107
38,1175.0,-0.33767712662816046,-0.09699512398317456,-0.16035682190116493,-1.042674822998047,-2.0491373458862303,-9.744849925375544,-5.680900132244562,2.5874873934651004,2.2695713293483912,0.01666666753590107
39,1192.0,-0.38618615986183286,-0.04203361297475639,-0.2323597809090279,-1.0966939979553223,-1.9849427271083229,-9.818321787892188,-4.238133660653381,3.301238319750025,1.3743328853061192,0.01666666753590107
40,1209.0,-0.29772774061551316,-0.03546401619294193,-0.3616432547576725,-1.0133458343948236,-1.9683330900883067,-9.94925478251353,-1.1305093259235328,2.8734654930228305,-0.6156811491911772,0.01666666753590107
41,1226.0,-0.27742501209806647,-0.058220037880330346,-0.4178916866043582,-0.9925462622711434,-1.986738515350758,-10.006416237551905,-0.7004792283973549,4.0067908845968185,-2.075030893200326,0.01666666753590107
42,1241.0,-0.2669527361887507,-0.0706179709228687,-0.470228388367407,-0.9783306351150386,-1.9973627167190424,-10.059387730087153,-0.8471479892307112,4.929575054674928,-2.774138320791566,0.01666666753590107
43,1258.0,-0.19734354044962674,-0.15522128564361481,-0.3241884803060442,-0.9000701500823721,-2.0784663527557625,-9.914688130718842,-3.1493556166198626,3.547719356328275,-3.755310576432942,0.01666666753590107
44,1275.0,-0.17639456818420438,-0.1958829663777724,-0.3982262148108333,-0.8744821198394521,-2.113930464846827,-9.990105921405181,-4.955326575393169,4.109052476850249,-2.796583389621286,0.01666666753590107
45,1291.0,-0.04029454162192996,-0.07060458171833306,-0.5855289843698963,-0.7272387679721927,-1.9782091582367196,-10.180295060055515,-3.147896517458419,2.9761661383738462,-2.2232133413476336,0.01666666753590107
46,1310.0,0.004024513696416397,-0.05471607118025422,-0.6124896181402728,-0.6826467409313627,-1.9557634811401365,-10.208576713296583,-1.9040915353990053,-1.7400320990825915,-3.027801301282085,0.01666666753590107
47,1325.0,-0.05214523887813557,-0.04306701114310417,-0.5512428665496408,-0.7410053818523185,-1.9385550334101775,-10.148272795514016,-2.3382473873489884,-1.6724657333787099,-3.517354896599337,0.01666666753590107
48,1343.0,0.07828449609591626,0.003381531340839865,-0.7523635509178042,-0.612017808510596,-1.8878279368242001,-10.350134069116413,-0.4649410620039643,-0.3748242931467565,-3.788434432586565,0.01666666753590107
49,1358.0,0.1912870899548754,-0.010604722632968333,-0.7605632239863276,-0.49634789513852445,-1.9033903540735482,-10.358214499719441,0.9754658460332417,0.9200078049022058,-4.201455544810413,0.01666666753590107
50,1382.0,0.4912130530007183,0.03567669767910847,-0.5481187431797385,-0.17298106994628906,-1.8671780539636849,-10.145429242651163,3.2731978318861836,2.9082081040097463,-5.889635409035207,0.01666666753590107
51,1392.0,0.5880129466727375,0.05830517258024774,-0.43113004795983434,-0.0674865592956543,-1.8514660804527345,-10.027664886883645,3.558270291048652,3.911993835332565,-5.614148693486028,0.01666666753590107
52,1408.0,0.7577977778609841,0.03231559178213356,-0.37488669414706527,0.11177921694330871,-1.885284162919421,-9.97050324918218,4.421001730396718,4.491553315654718,-4.637800045502562,0.01666666753590107
53,1425.0,0.9150091048106551,-0.13726591483675873,-0.2895589010766707,0.31932668295595795,-2.079813063790137,-9.883414291658159,5.851814090279907,6.80258709491626,-1.0947209489416643,0.01666666753590107
54,1441.0,0.8016024327959865,-0.24283830389603972,-0.023710584749153347,0.2271498825073242,-2.192789445495605,-9.617358470059802,-0.2909009584020165,5.993294201860728,4.0800916209957485,0.01666666753590107
55,1458.0,0.6628216655500233,-0.30073105061734096,0.020270479348814114,0.09546875466611236,-2.2447136392013167,-9.57501114464351,-3.828674065194872,4.763086205448106,6.563754162661132,0.01666666753590107
56,1474.0,0.2506741120882332,-0.34132304538246244,0.05314700893235858,-0.30271687240600587,-2.2620716195037587,-9.54762736725735,-11.398077960492001,0.010489568905789537,10.286111210782877,0.01666666753590107
57,1492.0,0.04530241921208799,-0.3069265990555286,0.03451424803730333,-0.5141548065185546,-2.203712990570068,-9.570671514853869,-12.983626121587713,-1.4977486406361373,11.533170564538391,0.01666666753590107
58,1509.0,-0.214069853518717,-0.21444135371223091,-0.1553518349544145,-0.8031050193786621,-2.0636521934509275,-9.768043443431052,-14.19915902968174,-5.08172819060754,11.958137250733769,0.01666666753590107
59,1529.0,-0.5870175789598375,-0.16843020170889794,-0.47833523205332457,-1.195754091644287,-1.966537461676076,-10.099490717492625,-12.257020352398001,-1.7849416600924832,9.940978336927548,0.01666666753590107
60,1542.0,-0.6105160895776003,-0.13013274762174115,-0.5728105187026783,-1.2237363235473633,-1.9084780531509777,-10.197353893014602,-9.804146595963743,-0.5580572444021598,8.631565332465343,0.01666666753590107
61,1558.0,-0.6181232035804539,-0.137860720658442,-0.5580178405772894,-1.2300211029052734,-1.8857330003821755,-10.188225816522166,-7.350273924363372,2.447927205371288,3.491436249689843,0.01666666753590107
62,1575.0,-0.559262251147814,-0.14728689418146385,-0.5977457841252908,-1.1665747954437509,-1.8839375226669943,-10.230274311972222,-5.46994034821861,2.952490995163289,0.652237495567849,0.01666666753590107
63,1591.0,-0.25463280485244466,-0.03070245749707101,-0.9037211834032088,-0.8518868964706547,-1.763179891951184,-10.53762976743169,0.5986023678932662,3.479273176881931,-2.8536748064593067,0.01666666753590107
64,1608.0,-0.14786604577628895,-0.04588495920724235,-0.8902148552939295,-0.7384615562881343,-1.7845780533058102,-10.523413829748332,3.853534673113249,2.6343796303249998,-4.912968303481689,0.01666666753590107
65,1625.0,-0.035856145899242256,-0.07187364267292431,-0.6717450497832149,-0.6168062049810425,-1.8294692979011218,-10.302100325244291,5.08835304721563,0.9929335212270204,-6.217861430260639,0.01666666753590107
66,1641.0,0.007736767122865421,-0.15175766465365886,-0.473393976258859,-0.572214197918988,-1.927182552691549,-10.100538472979888,3.580600527322951,-2.587754197729554,-4.335506118121552,0.01666666753590107
67,1658.0,-0.0869575679630041,-0.15844359042467548,-0.4139220523210242,-0.6715736022064462,-1.9376573493515141,-10.040084552267379,1.198238015341908,-3.170928342226525,-3.236991212539358,0.01666666753590107
68,1674.0,-0.1732061839390546,-0.21070266037425026,-0.19167314839670432,-0.7779659384796396,-1.991077864295896,-9.816376681706402,-2.3335770320605804,-5.690727066912918,-1.0253923944319192,0.01666666753590107
69,1691.0,-0.16422851223535834,-0.2080954552842304,-0.22159138986365867,-0.7811083646912127,-1.9834465474335476,-9.846453328605461,-2.909260593472163,-6.836036238829105,0.018385093329789055,0.01666666753590107
70,1708.0,-0.3294115487165749,-0.11615927692474796,-0.24045734530994667,-0.9732429748535155,-1.8803461471115237,-9.865607453343365,-3.4154627748913216,-7.6210815334442685,1.9646099996530801,0.01666666753590107
71,1725.0,-0.32955523150358346,-0.08815502498610876,-0.28216985027128827,-1.0006266198089346,-1.8362029535376931,-9.908403661888185,-4.719035754169755,-6.625686476073399,2.5073731164822592,0.01666666753590107
72,1741.0,-0.19876354504907504,-0.07773057027389295,-0.28985806668633596,-0.8891466598068364,-1.816899903582083,-9.916334454887453,-5.15152845505684,-6.559193303842855,2.0874161605996746,0.01666666753590107
73,1758.0,-0.10392715173605829,-0.02864334670990938,-0.21803395311040802,-0.8152257018158212,-1.7443255675771854,-9.847202064613532,-6.8116998479295265,-5.215745466746476,-0.5015345475342481,0.01666666753590107
74,1775.0,-0.046217127470788544,0.0035371114886744177,-0.22571082614753393,-0.7664438110240968,-1.701080256137307,-9.8561800833771,-6.0129856372378745,-5.288787936617416,-2.9979751458371084,0.01666666753590107
75,1791.0,0.02693679852035129,-0.006288585600059013,-0.2744091531419195,-0.7028478408426395,-1.693598406202893,-9.907206561058107,-3.5632130001302142,-2.0641984266200972,-6.4709348800484205,0.01666666753590107
76,1808.0,0.08909499098365195,-0.05613816727208905,-0.41664281905442474,-0.638204407434864,-1.7398363732490223,-10.050259726659952,-2.2707781383973678,0.7303266214617817,-7.586703483804302,0.01666666753590107
77,1825.0,0.12262399769313632,-0.20176258073458447,-0.3493709984879941,-0.5777507881164551,-1.8878281003647484,-9.984569037805125,-1.6302459862413337,4.383289694668139,-8.085732472491067,0.01666666753590107
78,1841.0,0.0762213712873403,-0.269340033184085,-0.28069625232107936,-0.6154594551307615,-1.9615992928878403,-9.915436610998585,-1.7001591622553496,4.311825852269118,-8.225193836285325,0.01666666753590107
79,1858.0,0.1019458417257294,-0.28841099141687154,-0.35429088270086795,-0.559345399386622,-1.9858406394958494,-9.990255230215377,-2.918889666098,2.5909229786176167,-7.809415462070908,0.01666666753590107
80,1874.0,0.059327999122231266,-0.3190626617249101,-0.38314010669682175,-0.5943605849666753,-2.020107723822072,-10.018985796267724,-2.6972212126705255,0.9504183684080413,-6.619278051084635,0.01666666753590107
81,1891.0,-0.09552887822235934,-0.312678440580517,-0.3857631121441722,-0.746093119745655,-2.01112939453125,-10.022277494756876,-6.232171530345462,0.5751958432161614,-5.321135285639773,0.01666666753590107
82,1908.0,-0.2558953538678586,-0.2843285809414461,-0.47109106961134817,-0.911592209039256,-1.9716249575408173,-10.109216979073919,-6.373897528736403,0.5718260519952592,-5.182681374748091,0.01666666753590107
83,1924.0,-0.306024955774378,-0.262499738835264,-0.5233580306064337,-0.9596259346450678,-1.9388545963120645,-10.163535611901803,-6.517238866866053,0.2847014678327457,-5.251879728776783,0.01666666753590107
84,1942.0,-0.3074232965312898,-0.11681527488175779,-0.6112899965595454,-0.9738415252685546,-1.7730560034820808,-10.254066362176463,-5.792495604885639,-0.07481746528149655,-5.939541466866374,0.01666666753590107
85,1958.0,-0.21913955799844115,-0.052319567965157326,-0.6902125804964453,-0.8895955908844247,-1.6994341563018038,-10.334271971661224,-3.8397043938176196,-0.9964603534379799,-6.616942553275313,0.01666666753590107
86,1976.0,-0.16581181763773783,0.058187199623230844,-0.7809257746659218,-0.8358757094009779,-1.5884032187088393,-10.425102070208638,0.7119622171351744,-1.260495403069986,-8.183477602155826,0.01666666753590107
87,1991.0,-0.08880220031584612,0.01623895881040953,-0.6930998263705521,-0.7594107934150379,-1.6319476426719222,-10.336965740789845,1.149073566644216,-2.118098864455253,-8.871736981797794,0.01666666753590107
88,2008.0,-0.08496369073204696,-0.03343169294800609,-0.5842941818779334,-0.7655459808349608,-1.687912133877538,-10.226383734274469,1.7384216685423495,-4.9097205485313475,-10.87083431411756,0.01666666753590107
89,2025.0,-0.11991936924378387,-0.15828611657433211,-0.4180570697665214,-0.8132804038337897,-1.8188450006347148,-10.058190811920165,0.15506323674607395,-5.922428427900907,-11.780632587036184,0.01666666753590107
90,2043.0,-0.13544526614770291,-0.1822523908343166,-0.36628680624719706,-0.8393173194885254,-1.8462288282532244,-10.005069718313775,-1.143105261970094,-6.002444094027607,-11.858481375648697,0.01666666753590107
91,2058.0,-0.22211671064570546,-0.2654610180599615,-0.42154885740503667,-0.9406219772338866,-1.9277812127044422,-10.059537404223532,-3.3150568596580183,-3.5843368542423595,-11.953318552274323,0.01666666753590107
92,2076.0,-0.245527104588598,-0.20749909682627765,-0.40549269868247206,-0.9766846397399902,-1.8727145745208487,-10.042029877648874,-2.233519029588125,-2.081457674322485,-12.786204626270372,0.01666666753590107
93,2103.0,-0.19277718238215893,-0.2085093698473647,-0.4402307980539277,-0.9317933951446786,-1.8798972525665536,-10.075099751547164,-0.5006857364473153,-0.8614929339524718,-14.030539588320696,0.01666666753590107
94,2108.0,-0.1551969549199566,-0.17021770618017762,-0.506759106776677,-0.8942342835357412,-1.8472761818816885,-10.140641387320123,1.4483764047772887,-0.9215350992336441,-13.530384472194527,0.01666666753590107
95,2125.0,-0.1050885510650929,-0.1990352746625431,-0.5334622586546466,-0.8442553512794431,-1.8909704169784671,-10.164732895394973,1.3064695130950477,-1.352326549408867,-13.390305830054027,0.01666666753590107
96,2141.0,-0.09108863075259141,-0.21618587755830956,-0.4411056081270799,-0.830339090662403,-1.9138648242232388,-10.071359176779351,0.009865461204142948,-1.8612355134517602,-13.535848623530537,0.01666666753590107
97,2158.0,-0.01878144522581133,-0.15068776126666925,-0.5084170300515368,-0.7583633290470752,-1.8540098283851052,-10.137648269918747,0.6638264055986566,-2.9309180561132155,-13.735214161440393,0.01666666753590107
98,2175.0,0.010296267463505501,-0.08434682834218256,-0.488738077721931,-0.7296329684907046,-1.7913117820076179,-10.117297701937892,0.9546970550362311,-3.5015558152754513,-13.869767180542352,0.01666666753590107
99,2191.0,0.11512613448472693,-0.04207971713880542,-0.4524668870316818,-0.6232406013931148,-1.7536030647609615,-10.080337359939701,0.736576938243431,-3.428053801739417,-13.246339956502146,0.01666666753590107
100,2208.0,0.15060060357302427,-0.01357876315782778,-0.4891620387550443,-0.5858312187194824,-1.7269676123909186,-10.116848971789702,1.0232018246990493,-3.565187778573994,-11.992901206061841,0.01666666753590107
101,2224.0,0.322199790706858,0.06300604831415693,-0.35431857442539183,-0.4074631950378418,-1.6548422645458252,-9.98172610599678,1.8918424448962337,-5.056601205311533,-11.355547226303978,0.01666666753590107
102,2242.0,0.23321168503062797,0.04533260428779758,-0.21422624965682624,-0.4964975510085933,-1.6739958641273434,-9.841366070202737,-0.3453192366340502,-5.21025314088014,-11.996251413849732,0.01666666753590107
103,2259.0,0.20345058862045406,0.01552152554783388,-0.21832078896146268,-0.5250783515930175,-1.7037737712500673,-9.845555886575394,-0.27632381392890193,-4.06483980857911,-12.41818634982727,0.01666666753590107
104,2276.0,0.15448652336196972,-0.07826629371894524,-0.28242742349524047,-0.5762543207473121,-1.7986439789260737,-9.909301286581345,-1.0048698104101466,-2.06569423804833,-12.293033378570541,0.01666666753590107
105,2291.0,0.17136981709105892,-0.09762174971522763,-0.3190862252635881,-0.550965675309766,-1.8173487159286625,-9.94671061445605,-2.02245785994168,0.2901326421616694,-12.449731578508974,0.01666666753590107
106,2308.0,0.4382575982848182,-0.13124162217909469,-0.4052428521072492,-0.25528171548154205,-1.8534114515000022,-10.034548326254448,0.2106733563078484,1.2413016110068982,-10.771624108875832,0.01666666753590107
107,2325.0,0.5551864530762657,-0.16318163353092968,-0.3195992893522605,-0.10414780874941497,-1.8984523519653826,-9.948955616903863,2.0907516407921682,-0.1670763121965099,-9.016490888425166,0.01666666753590107
108,2342.0,0.5348578046662733,-0.19943088638400658,-0.36913770216628905,-0.10998367529604583,-1.9434932524307629,-9.997886711474507,1.0816743271315878,-1.1668237341931982,-7.421041514353874,0.01666666753590107
109,2359.0,0.3932537966931239,-0.2633794808118604,-0.35814240702986716,-0.23253687277529386,-2.0156184313124976,-9.986664037322997,-1.7619416383927,-2.034300981075659,-5.977893832829642,0.01666666753590107
110,2375.0,0.27841384047232565,-0.293932038126979,-0.28631230210457,-0.3419219245910644,-2.0464439603501,-9.915137299258447,-3.6400985186263437,-1.4712072725734082,-5.7848901892448295,0.01666666753590107
111,2391.0,0.17528839704059063,-0.257081805439759,-0.3436817738704383,-0.4381389038085937,-1.9991584044967776,-9.974842520495503,-4.224993657350746,0.38908031200717474,-4.546225991752908,0.01666666753590107
112,2408.0,0.1864226439899765,-0.22171459611821917,-0.40638354657497255,-0.41913490986479446,-1.9615993842193855,-10.038438611691259,-2.9293594923219834,1.115440861397427,-3.3592530927864668,0.01666666753590107
113,2425.0,0.23997027417905628,-0.172410594848264,-0.47089313588645304,-0.34760815353393554,-1.9119195353743619,-10.104129519741795,-0.8383635655452815,1.4187910135005553,-1.956721344605127,0.01666666753590107
114,2441.0,0.20951977073261513,-0.20610011674854903,-0.4363248035913333,-0.3709516014541499,-1.947982362277247,-10.069563525534234,-0.5502379051021116,1.7077423797813562,-1.8172307390634839,0.01666666753590107
115,2458.0,0.006989735018936335,-0.27779749867226927,-0.4754010052323341,-0.5636848311009729,-2.022202686807327,-10.108768321990967,-2.278495611829247,1.4093921395940887,-3.009377292882798,0.01666666753590107
116,2475.0,-0.08376057115313597,-0.23683418637672438,-0.4852654697079211,-0.6401496414848137,-1.980004864280764,-10.119691940130664,-1.782173939374747,4.84443674667072,-3.5078393758684516,0.01666666753590107
117,2491.0,-0.06897036811262369,-0.23073881037738173,-0.44332445322033015,-0.6162076522827148,-1.9749170578887685,-10.078092868948541,-1.2053536850748863,4.849265690413919,-2.8088773032404855,0.01666666753590107
118,2508.0,-0.018482291032589273,-0.21889338295133784,-0.4216569574220106,-0.5553051486941345,-1.9639934214827603,-10.056843890823236,-1.2790022275129587,5.350117912722253,-2.6031163603899707,0.01666666753590107
119,2526.0,0.08307999587729573,-0.2884491680027917,-0.5673281417688355,-0.41689036407470703,-2.039111662966944,-10.20348888863828,0.44688310905550843,7.436528968296878,-1.9057653586324816,0.01666666753590107
120,2541.0,0.12356005470054224,-0.2725993455072865,-0.3938276510583237,-0.3462613968337886,-2.036118983956985,-10.029161299453861,1.0314185422705746,5.367966904570789,-1.267310757922895,0.01666666753590107
121,2558.0,0.11845344314337708,-0.2918790876525454,-0.29238787742489947,-0.3398269890052732,-2.060958698316943,-9.927257999961915,-0.04936992800196121,4.506029047826914,-0.3673651129232944,0.01666666753590107
122,2575.0,0.06595420776237733,-0.3020791407580487,-0.23254796042488887,-0.3751414634925779,-2.0739771698440426,-9.867702160600293,-3.007011059222212,3.4923162768757163,1.2850080982275154,0.01666666753590107
123,2591.0,0.029541402944619766,-0.25633484126366674,-0.22854687155736608,-0.40776247481193856,-2.0293852552551774,-9.863661908766161,-3.295604907788645,3.4916253605524874,1.6305284785965373,0.01666666753590107
124,2608.0,-0.06607474713581614,-0.2342172636102885,-0.20482147511485962,-0.49155955575029364,-2.001552660955861,-9.841515305947699,-3.5856354439583082,4.561466278225322,1.1372842332499509,0.01666666753590107
125,2625.0,-0.09296768596484326,-0.1907639428636059,-0.3024204102100804,-0.5018845138770993,-1.9532196053436024,-9.940725183370896,-1.8563156428152354,6.285972503550829,0.4463633476679263,0.01666666753590107
126,2641.0,-0.1139867369249463,-0.17089661008873955,-0.3394057405190542,-0.5116109672546386,-1.9336172071152367,-9.978134876571781,-0.7767389308107819,7.578765096441455,0.16996817693849628,0.01666666753590107
127,2659.0,-0.09125902801658958,-0.19965463040359316,-0.2911088339324109,-0.4607341454437002,-1.9662381864685563,-9.930250642439256,-0.41854940330503276,8.867342608840536,-0.04176414217023508,0.01666666753590107
128,2677.0,-0.041335520308534615,-0.25598664888050404,-0.25008765396978705,-0.38741175156745594,-2.024746526071243,-9.889698833554052,-1.137832035765727,8.433267865386947,-0.32274012534186897,0.01666666753590107
129,2691.0,0.030958051109779623,-0.27895645944904535,-0.20082195714991538,-0.3001730148757808,-2.047940208523534,-9.84091712085884,-2.794501676028313,7.351784249943591,0.01829387795435232,0.01666666753590107
130,2708.0,0.043965772914001715,-0.2653219749154523,-0.3359434712359681,-0.26291326067275367,-2.0313305075714365,-9.97738654242251,-2.9349741212631453,5.852623467696554,1.4139615361488274,0.01666666753590107
131,2725.0,0.03421423989413306,-0.30577425068262964,-0.41121655622199177,-0.26276365046845745,-2.0702362845489755,-10.053252917126565,-2.860458891852422,4.925139700582651,2.183094090823448,0.01666666753590107
132,2742.0,-0.05337056115570012,-0.33139800982605666,-0.37984610665272917,-0.3356371497997315,-2.094477503292821,-10.022576879562251,-2.858521252562254,4.639807694231722,2.601397287153243,0.01666666753590107
133,2758.0,-0.18825506531521677,-0.341850722518377,-0.3645370765030384,-0.4613327323913574,-2.1012111954620107,-10.008211852264404,-3.9394456462673157,4.49001993818605,2.803418274546353,0.01666666753590107
134,2774.0,-0.20484883804582057,-0.2935912253326736,-0.35157464601211247,-0.4746504791259765,-2.0488379793471654,-9.996091133294627,-4.588326850910044,4.200682025886909,3.2869687739133986,0.01666666753590107
135,2791.0,-0.2427120471678674,-0.2104493066676892,-0.39102779120672493,-0.5093664031982421,-1.953518862284813,-10.037840280471928,-4.583941869462896,3.339907008849229,2.9436318129229595,0.01666666753590107
136,2808.0,-0.23204609358366576,-0.16071383691160007,-0.4297150665953755,-0.4975450325012207,-1.8986018982375972,-10.07749435506612,-3.139519717328221,3.418096666590008,2.6057297615211468,0.01666666753590107
137,2824.0,-0.18810118992775676,-0.10192905498770996,-0.44507191794216633,-0.4522048385620117,-1.833060773921292,-10.094103836822509,-1.2555989044870273,2.2073694369073196,0.9561036471184307,0.01666666753590107
138,2841.0,-0.21627286172201857,-0.07980586957745253,-0.4733472510403022,-0.47973813938749954,-1.8101661657471209,-10.122535237265192,-0.0282101153450741,2.5695120431169194,0.19842768089966178,0.01666666753590107
139,2858.0,-0.052561774656618945,-0.057953304102388206,-0.4230695276336744,-0.3097498352161376,-1.7917606719860109,-10.071808016525395,1.203771749230088,1.07418651881055,0.2135000007473891,0.01666666753590107
140,2875.0,-0.05847358794971369,-0.09035135685345158,-0.31837033207919446,-0.3142389770286623,-1.8296190359695814,-9.966163649075291,1.2768889242950745,1.2155847748430366,-0.48159503755201233,0.01666666753590107
141,2892.0,-0.006241616069618612,-0.13847972020646557,-0.34978421893138434,-0.2599205177307129,-1.8821418348892591,-9.996839284780807,1.7121751725526946,0.7881979071648006,-0.7547694139020243,0.01666666753590107
142,2908.0,0.10254442867338656,-0.16800551002342254,-0.2982015686723403,-0.14544775085449219,-1.9201497679779305,-9.943867810511868,1.567453389158762,0.9320650097779823,-0.33953609411945923,0.01666666753590107
143,2925.0,0.134622012731852,-0.14619222167939877,-0.28221582657117394,-0.10818799665146507,-1.9024924302695783,-9.927257799032516,1.3481946051261267,1.5052735881107873,0.351343917049251,0.01666666753590107
144,2941.0,0.25043308814028276,-0.207193190948572,-0.2141683271908201,0.021098902130126954,-1.9704280211075207,-9.858275064628664,-0.5271025602793975,0.8546592229661684,1.2446493641955565,0.01666666753590107
145,2958.0,0.2885886312724091,-0.1930804944439791,-0.1725199369742535,0.06584054565429687,-1.9577088247879406,-9.816526136647072,-0.8167022075619679,0.927266054834108,1.9371539198500982,0.01666666753590107
146,2974.0,0.30221781857637686,-0.23048423282811417,-0.25999425882035865,0.08334814529418945,-1.991975872581545,-9.90466272179419,-0.8225460747271485,2.074821291770171,3.183102940978661,0.01666666753590107
147,2991.0,0.29127971525359897,-0.2685549289546907,-0.23079890653416513,0.07556700816499069,-2.0278888061523435,-9.875932064410298,-1.1856060073587926,2.431771673550092,3.7350940702633504,0.01666666753590107
148,3008.0,0.2684363075437024,-0.24567288800114764,-0.25651405202178285,0.06554127044677734,-2.003946880882326,-9.902118919062893,-1.260455382430318,2.8644641574703997,4.913989416762606,0.01666666753590107
149,3026.0,0.19991786618335172,-0.3225990556901321,-0.28920652570873495,0.008678981018066407,-2.076820266049169,-9.935787544305622,-3.7160984604078986,3.139232849383081,5.660442861906728,0.01666666753590107
150,3041.0,0.17190268185874447,-0.34784802670441567,-0.33477493891324844,-0.011073182678222656,-2.0992658700805156,-9.982025235073827,-4.655927367559776,3.636471261290244,6.138194530668433,0.01666666753590107
151,3058.0,0.20585131135294213,-0.2915582399340346,-0.608173873833008,0.03755903854370117,-2.039560429647751,-10.256310889700242,-3.2841707442312207,3.434044944858576,7.329620286086899,0.01666666753590107
152,3075.0,0.209838919684384,-0.2582927886647172,-0.6311874870106577,0.047884033203124995,-2.0042459368941374,-10.279803810827433,-2.1250067470270744,2.083316979880609,7.760344821752597,0.01666666753590107
153,3091.0,0.16320612865136935,-0.1909567802882753,-0.553906313605234,0.004489128112792969,-1.9376573858841322,-10.202441388879343,0.1245860788958308,-0.980172059814792,7.093901920093297,0.01666666753590107
154,3166.0,0.08556366591919214,-0.0873632261544466,-0.563287634206377,-0.08140285644531249,-1.8396447006225585,-10.210671785879693,1.7916220119875788,-2.7591923727836973,6.695928568384634,0.01666666753590107
155,3183.0,-0.009428792455082293,-0.07823888512221165,-0.487224239092879,-0.18450314488619332,-1.8327612703849094,-10.13405718662422,1.216543135760954,-3.2644270152182413,6.2077510427417275,0.01666666753590107
156,3203.0,-0.23189424575651063,-0.07645910729966125,-0.2355759299439378,-0.41808746490478516,-1.8317140446206088,-9.882067516691702,0.13391678431272935,-2.84358960526296,5.294954316777468,0.01666666753590107
157,3218.0,-0.3292446677170694,0.041386291514546605,-0.2524272393658757,-0.5288192734207027,-1.7145477141117442,-9.898527196447551,0.714083150955022,-3.128771134008737,4.327103704781967,0.01666666753590107
158,3248.0,-0.42004473645240065,0.008141493161724064,-0.3229013265723362,-0.6425438522781245,-1.7507599839680332,-9.9679590811247,0.2759305444430973,-0.918553508217522,3.06360493946788,0.01666666753590107
159,3269.0,-0.3975174089543521,0.020789242525910957,-0.4172583206042647,-0.6212953308105469,-1.7392378776329103,-10.062081681878864,0.6353287753081007,0.36758066408854645,1.6007030702035014,0.01666666753590107
160,3288.0,-0.24546488953996448,-0.01382327254587435,-0.47761415123715995,-0.47225625919951125,-1.7778444307769241,-10.121637302044778,1.864933207113676,0.7972727206116617,-0.6863080799734593,0.01666666753590107
161,3300.0,-0.13958263081391342,-0.0358313128520851,-0.5049529706701636,-0.3643675377555657,-1.8031331001890007,-10.14842257924825,1.7926602007414207,0.9394249654954943,-0.895944514847722,0.01666666753590107
162,3317.0,0.262459534689039,-0.017630670038779498,-0.5908441515106707,0.0430956298828125,-1.7969978659616608,-10.232219418158008,4.535611024009063,1.4539694759338828,-1.644166231934937,0.01666666753590107
163,3334.0,0.34977333221118895,-0.04505644966096151,-0.5653288942430168,0.13242927932739257,-1.8339585127788827,-10.204985082012787,5.406437945070886,0.4556035530783222,-2.3983583881303896,0.01666666753590107
164,3350.0,0.35770288310144094,-0.11701086138593964,-0.4484140679769218,0.15218147955629974,-1.92149657034385,-10.08542470967397,5.770381586787253,0.45511780923445794,-4.133869115425844,0.01666666753590107
165,3366.0,0.39594343763589857,-0.1379538879677653,-0.2788699867419898,0.19467850422514602,-1.9635446365356444,-9.911994726916403,6.1324721128044315,0.028317023813840665,-3.9904893574821134,0.01666666753590107
166,3385.0,0.3301523936791345,-0.12209890523995272,-0.1959600502019748,0.1372177009140141,-1.9618986502937505,-9.826552057028374,6.424512218693959,-1.040635348946978,-3.636556211768046,0.01666666753590107
167,3400.0,0.25637111815344543,-0.21606701868530362,-0.011775420654955087,0.061800348619092255,-2.076820266049169,-9.638307922957482,5.12400578090945,-1.1177351646283165,-2.8804751881019675,0.01666666753590107
168,3416.0,0.1077912889514584,-0.20534705162523312,-0.015254731262743007,-0.08394670484238304,-2.084302164503466,-9.638307574755965,4.685344992315021,0.1712835619828923,-1.499219585906923,0.01666666753590107
169,3433.0,0.04994359608143568,-0.21752898099664597,-0.0008839737666639848,-0.13946226497041062,-2.1051018462250006,-9.622296648837427,4.752792683482073,1.3889356163081947,-1.0176500548425924,0.01666666753590107
170,3449.0,-0.048658743902668354,-0.2715584946848452,-0.025357107563875613,-0.22595276341093704,-2.173635832214355,-9.644143525784276,2.6509099687769,3.738761454960824,-0.555849919361482,0.01666666753590107
171,3466.0,-0.04874728070264682,-0.3127863214017823,0.06361994242880027,-0.212635053208936,-2.226158667666651,-9.553163903797534,0.2240001892966672,4.2226355345397995,1.2410861398829254,0.01666666753590107
172,3483.0,0.11471411048457957,-0.3400862335965037,-0.02016476080188295,-0.043843808768456796,-2.253093545941263,-9.63711051959166,-0.3503938003831052,2.7906910708016803,2.077638104472567,0.01666666753590107
173,3500.0,0.04414880133070983,-0.4025594217095524,-0.06443975721197202,-0.10893617553710937,-2.3204303945679214,-9.680505226035882,-2.8747463669356192,2.2767184819845747,2.479765705300479,0.01666666753590107
174,3516.0,0.0151610810378741,-0.45153154241032895,-0.26300551466662436,-0.12704233586683986,-2.353649796472117,-9.882366517904586,-4.252816859821617,3.915834962967051,3.158162291780948,0.01666666753590107
175,3533.0,0.014570336045022121,-0.4429400204800069,-0.3551425310941413,-0.12075755080070812,-2.338536471557617,-9.97589002025444,-3.533326653643177,4.635456436843601,3.229348871188348,0.01666666753590107
176,3549.0,0.0652185458650114,-0.41938112144451584,-0.4309813602041453,-0.05252279435310047,-2.3114520287444815,-10.052654147515819,-3.244970154150402,5.422835094833971,2.7412343113518527,0.01666666753590107
177,3567.0,0.08340410413197241,-0.43172783118989316,-0.4918760104214772,-0.01915361328125,-2.3154923901764675,-10.115352632284722,-1.510075851427541,4.361238002045929,3.383301548523847,0.01666666753590107
178,3583.0,0.1626836574135348,-0.36236506622619924,-0.5564711591245606,0.06718729322128929,-2.251596950707957,-10.178948248556441,-1.001221422176302,3.5065032201120676,3.459922183746227,0.01666666753590107
179,3599.0,0.16288984751012175,-0.28623510868251323,-0.602195164749585,0.07122750852280296,-2.173037281799316,-10.225186633444391,-0.5621990604426849,1.2931264183863103,4.167829242865971,0.01666666753590107
180,3616.0,0.10370931686745025,-0.2763434091401286,-0.5781792791942134,0.011522086356347426,-2.1612157832381316,-10.201543672854639,-1.1365167974636765,0.21716958658004454,4.307740972258627,0.01666666753590107
181,3632.0,-0.03228261424442753,-0.2669950592268258,-0.5837330043312162,-0.1274912292701658,-2.151040627111867,-10.207230084460601,-1.2768357768855951,-0.5003054870096161,3.6843927222806996,0.01666666753590107
182,3650.0,-0.15325309084318578,-0.1789835252314806,-0.5859764724090695,-0.2533364631652832,-2.06200617980957,-10.209624359185993,0.6004686637231192,-0.49009451428300566,3.488584859154774,0.01666666753590107
183,3666.0,-0.15061980146383866,-0.16403841475704684,-0.43016704814657564,-0.25752632520371116,-2.05108257993618,-10.052953349658102,1.1074760070515457,-0.9881604996576508,3.6333814544644594,0.01666666753590107
184,3683.0,-0.052188598529249425,-0.1108717193101067,-0.34416265272255986,-0.1680430381553713,-2.002151037840964,-9.966014303732477,1.1132465564048546,-2.847724644475168,3.850273257784568,0.01666666753590107
185,3699.0,-0.13592531388276255,-0.06911047070305794,-0.19669161587953565,-0.275482819388574,-1.9621978615691884,-9.817872820281982,-0.8294897090704069,-4.22145561936068,2.800850123418428,0.01666666753590107
186,3716.0,-0.18842291442910208,-0.07728525592549704,-0.10981750668259337,-0.33683426432954144,-1.9669863653542008,-9.731531795048435,-2.127600511364387,-4.444310604713032,2.445503555432991,0.01666666753590107
187,3732.0,-0.30843101226910946,-0.012798061108915135,-0.0927584453946445,-0.46896425018310545,-1.8915689034614245,-9.716418607131251,-3.069338242945871,-2.166138999982538,0.13528727777794827,0.01666666753590107
188,3749.0,-0.2870966756816022,0.02438826481500873,-0.008150609191585681,-0.4584896179199218,-1.8477250193444428,-9.632920777996707,-1.6284742992036558,-0.588310713557085,-1.1127991790142187,0.01666666753590107
189,3767.0,-0.22160034035509452,0.031352324824105014,-0.00019615807554382625,-0.3930979668105952,-1.837549742203881,-9.625588258171293,-1.8446225723995853,-0.37645622811071355,-1.7407553520826724,0.01666666753590107
190,3783.0,-0.17054324834011494,0.02059951950693503,-0.11644714482226408,-0.3378817275558598,-1.8400936682327649,-9.743502794216061,-2.4988883139858107,1.6202507514429605,-2.796670687976615,0.01666666753590107
191,3799.0,-0.033573071896785406,-0.08290816470803693,-0.23738054994679986,-0.1916857681329711,-1.9360113357101565,-9.866055909496918,-2.065091260410665,2.404937567848404,-4.604290710547656,0.01666666753590107
192,3816.0,-0.026089125332585533,-0.09241906650559976,-0.24719606071412561,-0.17747019349250476,-1.9410988681075163,-9.87683003616333,-2.642506488220257,2.8288282858060927,-5.444160652970043,0.01666666753590107
193,3833.0,0.14541464316933414,-0.11544745712727307,-0.3328924496348947,0.013168109130859374,-1.9544167427062986,-9.96466752876602,-2.642557287752209,2.8297834450728367,-5.305286685444405,0.01666666753590107
194,3849.0,0.15194213610878213,-0.1323358928223606,-0.4591845779141411,0.030376424430077893,-1.9696797691566403,-10.091410323422215,-1.4138325096065376,2.265818140399469,-5.016545987810816,0.01666666753590107
195,3866.0,0.13299170811627992,-0.27266528688296676,-0.4839916503798216,0.025438392639160156,-2.1059996353149413,-10.117147954736277,-2.781545660946445,1.1855557414353697,-5.021140997574943,0.01666666753590107
196,3883.0,0.0857651159085799,-0.3228375040885061,-0.502794331331551,-0.01825579679184593,-2.1505915681701153,-10.137049536840617,-3.142187119642523,0.8982023192552343,-4.674781677876773,0.01666666753590107
197,3900.0,0.08311770667233503,-0.41105091733150184,-0.6652814797922968,-0.01825579679184593,-2.2309469613891095,-10.30105293508321,-1.3334171706916866,-0.8774739224238621,-3.68149885650673,0.01666666753590107
198,3916.0,0.04621781245737802,-0.4688925731863826,-0.5552187113780528,-0.05790974808845203,-2.2945429429870097,-10.189871976293995,-1.5450437519353617,-2.5927182511522724,-2.632785208040625,0.01666666753590107
199,3932.0,0.025551696270925458,-0.4916687974115833,-0.482182664729096,-0.08274960629559354,-2.3138462304046374,-10.11744733954165,-1.9800028981647617,-2.592671080158317,-1.593154003623345,0.01666666753590107
200,3950.0,0.050893777512316586,-0.4944701916331425,-0.4951154672667384,-0.06584054108771961,-2.3235727477142585,-10.128969106237589,-1.0392856395339598,-3.4426603747229008,-0.4014525860388446,0.01666666753590107
201,3966.0,0.08073121339459903,-0.4583490404054522,-0.4388589982440695,-0.04294600141220726,-2.2846669342041013,-10.073154535763523,-1.6154497687866762,-4.017549286313234,-0.12477613691361435,0.01666666753590107
202,3983.0,0.10630922456700354,-0.354273566239886,-0.33420897559355944,-0.026785121939843518,-2.1820156476227566,-9.968108791793696,-2.765980513601632,-4.954170138989321,-0.33703435057295694,0.01666666753590107
203,3999.0,0.09284521949579938,-0.2426297026466578,-0.32123953083995727,-0.053869546486670146,-2.0735283483643085,-9.954342059182562,-1.6078186332147737,-5.305149654774182,-0.5362785459033393,0.01666666753590107
204,4017.0,0.01897717443553265,-0.2015633135691285,-0.35883093728329984,-0.13587094878044445,-2.0343232231140136,-9.991452404110692,-0.7429757049178222,-4.656514336941574,-0.6028211302836597,0.01666666753590107
205,4033.0,-0.058318086860748006,-0.1268363912237808,-0.33095322520062326,-0.223109658072656,-1.9608511231353505,-9.963170787402241,-1.0421358561302652,-1.0110704482377546,-0.9685694894056445,0.01666666753590107
206,4049.0,0.003546492665428377,-0.1287830865784548,-0.3112551297791302,-0.1619078898367661,-1.961449764881935,-9.943718191174417,-1.2629800978239898,0.7028203824570826,-1.5336747953401697,0.01666666753590107
207,4066.0,0.03182461166110588,-0.0803551740232855,-0.33093970813192425,-0.13108253404368878,-1.9113211858887225,-9.963769264752045,-1.1886176938959452,0.2731680797693709,-1.948314448953899,0.01666666753590107
208,4083.0,0.1955261157641187,-0.02106443817152176,-0.425490178909339,0.03950430912626907,-1.8493711676998297,-10.058938744210637,0.48195570355670075,-2.223406507635098,-3.38570556166828,0.01666666753590107
209,4100.0,0.15161526050828397,-0.05134722950139548,-0.44601939139273017,-0.008080430603027343,-1.8787001654362072,-10.079588952725194,0.41574120838037903,-4.154250399909162,-3.4473008479336897,0.01666666753590107
210,4116.0,0.09246876913253217,-0.07965660643302835,-0.4925956299329176,-0.07077858657836913,-1.9084781536156776,-10.125826753091253,1.1342929305586025,-3.6467327667445417,-2.47167684033248,0.01666666753590107
211,4132.0,0.15204641846716402,-0.11034611540026962,-0.4230769802877679,-0.016759411621093748,-1.9452889219421892,-10.055048458773829,1.9995342509832363,-3.9245724824627897,-1.2830823050466893,0.01666666753590107
212,4150.0,0.023080865161004476,-0.22888604038385674,-0.16371458963016047,-0.1565209380992921,-2.072780069013964,-9.793781111277733,-0.7400764496977105,-4.0857568360254515,-2.4826392939503505,0.01666666753590107
213,4166.0,0.027442768431245348,-0.23967260640673338,-0.13918544818987139,-0.1575684195919195,-2.0869957327026873,-9.76849267590274,-0.740367266345965,-3.656982319367792,-2.693086386901729,0.01666666753590107
214,4183.0,-0.004293693732716201,-0.20931009177099913,-0.2746218460445292,-0.19812020250471685,-2.0612579552581534,-9.902866997483837,0.33707506490371253,-2.2894977659216686,-1.7882900536113762,0.01666666753590107
215,4199.0,-0.012012814173981314,-0.2500918369545601,-0.24530445654755456,-0.20739771310281357,-2.1065982405289074,-9.872640091926511,-0.2449071582222382,-0.6477264224253201,-1.8690584279289522,0.01666666753590107
216,4216.0,0.152543216407625,-0.2466482358393259,-0.2436973501444794,-0.035913034035498274,-2.11258370814668,-9.86934839343736,0.04274171633024646,0.21267738983922568,-2.0101159215548785,0.01666666753590107
217,4233.0,0.2039486926020123,-0.2726577246310189,-0.22150634192870927,0.023044190979003905,-2.1483471137115733,-9.845406157640088,-1.397040596253767,-1.2221283095113202,-0.8321992664584921,0.01666666753590107
218,4250.0,0.2216876350460574,-0.25895918015157804,-0.26499946496281773,0.04399345550537109,-2.1362264860733413,-9.88865144339297,-1.5423208543340539,-1.077681761396598,-0.2084459942669102,0.01666666753590107
219,4266.0,0.17303278186721727,-0.2882119434471242,-0.38059045874662695,-0.0038905594314448534,-2.1697452362502925,-10.003423522009328,-1.317057480247331,-3.2221521996806817,-0.5451484536751,0.01666666753590107
220,4282.0,0.11592499324483796,-0.3064241294261068,-0.365040167186968,-0.06688799061430618,-2.185157854638621,-9.988309868301265,-1.6766919129276552,-3.3684535710418855,-1.0334753897061004,0.01666666753590107
221,4299.0,-0.013289858647272921,-0.27231837314143775,-0.41580903511140493,-0.20245964592092203,-2.155230406951904,-10.038139409548975,-0.5271950346374571,-1.3587116023440653,-0.8955706687123696,0.01666666753590107
222,4316.0,-0.07789747867286205,-0.24430667768185957,-0.400379703050293,-0.2711433562790043,-2.13054025713047,-10.021978256081976,-0.020294756525302434,-1.4999483884357045,-1.2389651527022247,0.01666666753590107
223,4333.0,-0.0987066132093314,-0.17505425949115305,-0.31934348796028644,-0.2979284599525388,-2.0663457068512217,-9.939827357748337,-0.1668929242853377,-0.7137620787031785,-0.9652990027319719,0.01666666753590107
224,4350.0,-0.026495776754582766,-0.16115650264518336,-0.2927048526858911,-0.22924481124324955,-2.056619244340528,-9.91229440398272,0.12441941961203985,-0.9999787546341827,-1.5875307302240145,0.01666666753590107
225,4366.0,-0.049297439098428,-0.17928851779373361,-0.29182719306852667,-0.25363573380622545,-2.0777181464706547,-9.910797735684179,0.053251569864004415,-0.7877636565439758,-2.3534827646229366,0.01666666753590107
226,4383.0,0.033916314110194794,-0.21436748475842177,-0.24247504180790855,-0.16998830188807332,-2.116773469720408,-9.860669339354056,-1.4627803132414934,-0.36761289404369246,-2.5741858134999123,0.01666666753590107
227,4399.0,0.02767080960003659,-0.22301537651848047,-0.22997129660360513,-0.1747767029250972,-2.125153212063573,-9.848249180779979,-2.403689564220996,0.05850623316167224,-1.678924957899426,0.01666666753590107
228,4416.0,0.10542011197386308,-0.20522119675585998,-0.3116203828949481,-0.09157821350097656,-2.106149218119774,-9.930250733770801,-1.6823777252465735,-0.14838746054411373,-0.4221496333691435,0.01666666753590107
229,4433.0,0.03844759401441551,-0.22124752659574148,-0.3996382735658437,-0.15876550672226586,-2.122310280255228,-10.018237644781545,-1.2653534818388634,-1.5139337343698345,-1.6653150589262353,0.01666666753590107
230,4449.0,0.008950677523849298,-0.2362865806976333,-0.3984002927361056,-0.19003977161627844,-2.1384710318634284,-10.016741305276565,-0.9029823844571855,-1.5845504198683618,-2.1490816697474884,0.01666666753590107
231,4466.0,-0.03678052388529759,-0.23891373259713872,-0.4537568537769839,-0.24211362005041445,-2.1441571329421363,-10.071359030648878,0.39889932258887634,-1.8650076988643114,-2.83402157745283,0.01666666753590107
232,4482.0,-0.017905014017730717,-0.24867228901283814,-0.43786958534792064,-0.22550388142405425,-2.1588217277084474,-10.054450017956643,1.0481534662324579,-1.6465554107622664,-2.761072382352743,0.01666666753590107
233,4499.0,-0.08892885890281758,-0.2961703003067523,-0.3576355169536546,-0.301669400046533,-2.2168810266356913,-9.971999442556687,-0.25204483930703375,-1.0109641534187963,-2.981166904063353,0.01666666753590107
234,4516.0,-0.0645274126625387,-0.3006925635041669,-0.34230270406957714,-0.27847557603034656,-2.2246622916290537,-9.955988584280572,-0.686298475019939,-0.5840227421404921,-2.8469733236664663,0.01666666753590107
235,4532.0,0.01794521131408983,-0.24391477402113376,-0.3890106061654165,-0.2015618465561827,-2.1733366300720722,-10.001478342758304,-0.5342314635038925,-3.0853526886720237,-2.2092383474189643,0.01666666753590107
236,4550.0,0.0063451946042798225,-0.22284447693098336,-0.3393534258099273,-0.2220621954171598,-2.152836241824366,-9.951499090841597,-1.9774900288804318,-2.6660002045309854,-2.915975736643343,0.01666666753590107
237,4566.0,-0.014226671423215884,-0.1930636894396506,-0.3222668645936996,-0.245256043978699,-2.1211130880936047,-9.934739861883594,-0.75254479994501,-1.8724669057682,-3.0502073099674885,0.01666666753590107
238,4585.0,0.050316808741423295,-0.12770514601548202,-0.42702622937019913,-0.18270750049094203,-2.0578162995048332,-10.039037454367243,0.5483960485428825,-2.080532824020183,-3.4575032295629846,0.01666666753590107
239,4600.0,0.027403491300204766,-0.10283292675856501,-0.2301514937424101,-0.20605098951035178,-2.0346225348541513,-9.84181492821509,-0.029847646528478045,-1.5839849015494258,-3.8807034580842674,0.01666666753590107
240,4616.0,0.022639697264763524,-0.10177337123565375,-0.2744845929983072,-0.21113866347160654,-2.0337247457642107,-9.886107695460598,-0.9686764245548375,-1.2322478750969288,-4.166686893727286,0.01666666753590107
241,4633.0,0.017501066009473286,-0.1266752367121633,-0.26605724865375086,-0.2159270565171202,-2.0614076202613765,-9.877129146974067,0.187578432331199,-1.2268783859139467,-4.7149291029312845,0.01666666753590107
242,4649.0,-0.017534807307226584,-0.18823046059692278,-0.26740665396871044,-0.2501940826194826,-2.1245547895126973,-9.878176938993949,-0.8966194229150839,-0.37619337254937385,-5.351621835000125,0.01666666753590107
243,4666.0,0.04333944857604801,-0.19322812275374307,-0.2932778850671835,-0.18659811015473676,-2.130540147532616,-9.903914314579684,-0.8258897191301342,-0.017169484742665417,-5.00523989030033,0.01666666753590107
244,4682.0,0.17244857050478457,-0.18807636601375416,-0.4153819322731346,-0.05282207412719726,-2.1296423949752934,-10.025270758288725,0.9088504774495784,-1.1491690825708902,-4.015417840405368,0.01666666753590107
245,4699.0,0.1814729856933467,-0.25937497614454474,-0.2598023529774509,-0.043245267486572266,-2.2056583890167993,-9.868749514228757,-0.1677214715883852,-3.157055374248583,-3.6663469356067027,0.01666666753590107
246,4717.0,0.12727708419598638,-0.23599358910042792,-0.29583164293691516,-0.1016039512191899,-2.186055789859034,-9.903914296313374,-1.033122034138258,-3.5887841611656843,-2.9058875472392347,0.01666666753590107
247,4732.0,0.03768581129510421,-0.20526890835510567,-0.3209797839252278,-0.19707275611765215,-2.1576246268783694,-9.928455119058302,-1.5376980969264247,-3.5915986259905526,-2.978862782435532,0.01666666753590107
248,4750.0,0.028072316772746853,-0.19819378233710302,-0.3146616137543693,-0.20859482420769054,-2.1508908616439437,-9.922020629031397,-1.3266335121853947,-1.5170105211475138,-3.4732310207874084,0.01666666753590107
249,4766.0,0.11571434616884216,-0.13762171513764188,-0.33957211006190624,-0.1164180739914067,-2.092681870314013,-9.946561122982763,0.8333735253872054,0.21311613611190644,-3.188331237344894,0.01666666753590107
250,4782.0,0.13191677236114627,-0.1107989737343043,-0.2592945495857857,-0.08993222725908272,-2.0696377706665543,-9.865756908284034,-0.3983591239946371,1.352733799438129,-2.576377023563017,0.01666666753590107
251,4799.0,0.1744959497549571,-0.1350683591267094,-0.19849707613261416,-0.040402134748827666,-2.0937293152740226,-9.805153496098239,-1.3359099762953297,1.2043453783986633,-2.7211883464681,0.01666666753590107
252,4816.0,0.25292656719014045,-0.13391236662515438,-0.24077603760398922,0.04878185882568359,-2.0911855216758792,-9.847949759441986,-1.9811416187654498,-0.2996440541068824,-2.302071717296839,0.01666666753590107
253,4833.0,0.1866135086532682,-0.1462633780863136,-0.27329795876331625,-0.010175357055664061,-2.0979191316466776,-9.881768150152638,-2.5615930791045245,0.058517912518348696,-1.0567143613051284,0.01666666753590107
254,4850.0,0.2036836667239666,-0.14985060718962923,-0.349347763742879,0.010923563340771943,-2.099864584892336,-9.958232965673878,-1.3347542869434224,-0.21818298921771875,-0.21319461658629546,0.01666666753590107
255,4866.0,0.0810661627036985,-0.1923572034044191,-0.3361037032989785,-0.10773910210649482,-2.143857912533544,-9.944765617868118,-1.120708751516505,0.4286497056227478,0.34131100948873694,0.01666666753590107
256,4883.0,0.051091546840430234,-0.2113504567584954,-0.3094835169967264,-0.13527242576486895,-2.163161254750099,-9.918130233996733,-1.33703396930062,0.712485420297768,-0.14798115766999054,0.01666666753590107
257,4899.0,0.06881423683599569,-0.26911144859259944,-0.32563608529847116,-0.11357493212050758,-2.2234652090652847,-9.933842072793654,-1.3337039319151214,0.06828664383641399,-0.4231584202930427,0.01666666753590107
258,4916.0,0.13149059197148308,-0.2502153537363745,-0.3657462696297094,-0.04773439559936523,-2.2041618485824204,-9.974094295944086,-0.9017986272966576,0.07320953603123373,0.4832580818932047,0.01666666753590107
259,4932.0,0.08954618708356284,-0.252709106780868,-0.38478955440428103,-0.08723873212509788,-2.2107459396804683,-9.992350229733251,-0.3247376088285539,-0.06401651495500647,1.3912816795663885,0.01666666753590107
260,4950.0,0.07476427694736049,-0.2662168596622534,-0.39421303364671767,-0.10145431361543014,-2.227954446775932,-10.001029028088226,0.3265087622577028,-0.3466198807428351,1.2579209553614201,0.01666666753590107
261,4965.0,-0.0008210532531960779,-0.25414677490117027,-0.359732087374106,-0.1767220109678692,-2.2185269854781215,-9.96601382880844,-0.2520880882783017,0.36428101570876914,0.7642877627581132,0.01666666753590107
262,4983.0,-0.0008383159141896612,-0.22903302937280384,-0.35714667399078603,-0.17642273675928843,-2.1932383217742664,-9.96347050100118,-0.18035637439776997,0.5077593578282156,0.7641351507188456,0.01666666753590107
263,5000.0,0.07169142254039179,-0.22598686660993844,-0.2884795996736735,-0.10175359338952694,-2.1933880324432624,-9.894187925134226,-1.3347956949652657,-0.06817700729404338,1.8709143183924914,0.01666666753590107
264,5016.0,0.02608238734783372,-0.16928424298865719,-0.28728688275776804,-0.1467944915716187,-2.1338322113479484,-9.893589666980132,-2.6362128957869135,0.35547143238120144,2.55521197487244,0.01666666753590107
265,5034.0,0.026520187393343074,-0.17327104760250076,-0.2864802973489277,-0.14679448015517554,-2.133832284413185,-9.89358913725717,-1.842023471976984,0.28863792463092086,2.630407661879226,0.01666666753590107
266,5049.0,0.013005867773853241,-0.15544466433702037,-0.37687505495268847,-0.16101007991181684,-2.115277148481738,-9.984120088461227,-0.46733744454643383,0.007863783054162802,1.5984181584827206,0.01666666753590107
267,5066.0,-0.039307809306634585,-0.13977226250134409,-0.36537075084820386,-0.21458033292465842,-2.1003134794373066,-9.972448611096292,-0.3232863803929113,0.08049121137755491,1.7381108949351138,0.01666666753590107
268,5083.0,-0.04717604476397391,-0.14118693333854898,-0.28266300408309325,-0.22595275884435975,-2.099415489417966,-9.890147691566403,-1.3310235095527145,-0.6413527887126403,1.4564932308322025,0.01666666753590107
269,5099.0,-0.09900273747853934,-0.16979507858762516,-0.2917185267959721,-0.28072012638701127,-2.1273977578536605,-9.899275694993603,-1.5488151902959724,-0.07101909303038932,1.2440229077826193,0.01666666753590107
270,5116.0,-0.04333602820967789,-0.16459553718315437,-0.30969686748646197,-0.22774841008947694,-2.1242552951094695,-9.916783495562896,0.11368665778543752,0.007100668663209223,0.1429480553036316,0.01666666753590107
271,5133.0,-0.1033637730991002,-0.17592327914433553,-0.3379118121668696,-0.28954875414199194,-2.13802210078584,-9.944465940801798,0.32956868700586855,0.2942742981196359,0.14319570302189746,0.01666666753590107
272,5149.0,-0.041658386454195714,-0.2089102787984535,-0.29554451482491567,-0.22430675433615688,-2.1778256485870107,-9.900771778770256,0.5410958569806082,2.0122821587388304,0.206544586995855,0.01666666753590107
273,5165.0,0.017279827899159862,-0.26264787860168143,-0.28767073097620155,-0.16011220862348563,-2.2388776630568317,-9.891494557864405,-0.612741126279457,1.43544899111257,1.0353572135441447,0.01666666753590107
274,5183.0,0.06650262629222124,-0.24497577258246017,-0.2859243987655267,-0.1078886757781729,-2.223165897325147,-9.889399850607477,-0.8999986590069476,0.9338871761824948,1.3136279782320441,0.01666666753590107
275,5199.0,0.06522382482832763,-0.24271429392388089,-0.27933577762283385,-0.1074398131992435,-2.22466216376489,-9.882067133099213,-1.040590952717373,0.003313669360755994,1.316782031524709,0.01666666753590107
276,5216.0,0.052388687678612766,-0.1822334304055199,-0.3080917338447645,-0.12000939474795012,-2.167949566738866,-9.910049766861087,-0.09897615120073577,-0.9204961634278617,1.5357418880594507,0.01666666753590107
277,5233.0,0.012845479305571643,-0.19978939923178404,-0.2610154550942592,-0.16310498010663432,-2.1862053543975577,-9.862764229274076,-1.1096956050883884,-0.9257316101483822,1.737417417290946,0.01666666753590107
278,5249.0,-0.08056102619315497,-0.21796998449610544,-0.2462283299268223,-0.2570773941261228,-2.200121706346143,-9.84884804172227,-1.7657423185006946,1.0026613114307052,2.0023875625090093,0.01666666753590107
279,5266.0,-0.037879155609849835,-0.214175907709077,-0.3150822137866169,-0.21323356709135696,-2.1965304586548355,-9.917680882794038,-1.3329469548560136,1.362071308363771,1.7257300031257021,0.01666666753590107
280,5282.0,-0.06908039979177992,-0.19441114025954156,-0.24704757388783619,-0.2419640189792728,-2.1772271712372078,-9.849595974012743,-1.838628014185841,1.9300477483489347,1.233306981305104,0.01666666753590107
281,5299.0,0.00944053027111513,-0.15627583619784563,-0.25738953794836994,-0.16026186506437662,-2.1372740040985865,-9.860369899749756,-1.9821236719020507,1.64346261572872,1.3726151994515667,0.01666666753590107
282,5316.0,0.052696027461579066,-0.14357809365824795,-0.34145332069862633,-0.11058219831162132,-2.123507171022752,-9.944765690933353,-0.6084214051553941,0.865740244399162,1.8023588559194272,0.01666666753590107
283,5332.0,0.05231928027078975,-0.1875864636049606,-0.29623459771461785,-0.10863691402932163,-2.169745199717674,-9.899126112188771,-0.8936499448125679,0.1480087318907218,1.3865244528094745,0.01666666753590107
284,5350.0,0.012663041118974797,-0.19122326747104523,-0.3108041346086189,-0.14814121402243616,-2.174384020233154,-9.913491066421381,-0.46060944140970683,0.22221819027416823,1.4586315069292397,0.01666666753590107
285,5365.0,0.04167130530127324,-0.18283669352829454,-0.37416828021202236,-0.11941079866713844,-2.17064308013916,-9.975890166384913,0.04785259880980023,-0.8466528005158853,1.8838212414897,0.01666666753590107
286,5382.0,0.026771002082945777,-0.17246376807391642,-0.2612359294445254,-0.13602057268447243,-2.161066273498535,-9.86276433887193,-0.9641271984024916,-0.778981740818632,2.641195945673261,0.01666666753590107
287,5399.0,-0.009580899435497121,-0.2001346142065711,-0.2526031987209804,-0.17672199291561846,-2.188599610856641,-9.854084846397209,-1.3246197803190045,-0.7807939821045068,2.708250047189392,0.01666666753590107
288,5416.0,-0.02642396047725342,-0.1774746002395637,-0.24088636611066758,-0.19812017824477515,-2.167500708726514,-9.841964693683012,-1.176910429493426,-1.4247882397569438,2.2951070587775417,0.01666666753590107
289,5433.0,-0.03235780522235436,-0.2026815952756442,-0.17223441629745065,-0.20829551475084152,-2.192490261619631,-9.773280595165863,-2.1146741649167264,-1.4307080927766407,2.0802726365014874,0.01666666753590107
290,5449.0,-0.06859901404958219,-0.16286825673282146,-0.23630406155539674,-0.25049336696015667,-2.1486463523864745,-9.838073878523241,-1.6357032006664682,-0.07592033405914865,1.7991749205491434,0.01666666753590107
291,5466.0,0.02114954547197558,-0.1471622448884882,-0.399287304703705,-0.16145896532363258,-2.1351790593796407,-10.000580151809565,0.1689383124777053,0.07734827715261106,1.741226314970286,0.01666666753590107
292,5483.0,0.045741029825061556,-0.17198710873918607,-0.3483490715617314,-0.1361702194213867,-2.1612159293686037,-9.94940401825849,-0.40802955128146445,0.14482950561570568,1.3894607938223453,0.01666666753590107
293,5499.0,0.047789591818745245,-0.193607587058004,-0.27958434555642303,-0.13362640299035702,-2.1832126936539074,-9.880570903192087,-1.5620022578708572,-0.004848885694440271,1.3127523266361072,0.01666666753590107
294,5516.0,-0.020030391549202612,-0.21707146475380285,-0.35557522342298176,-0.20335751720925327,-2.205658334217872,-9.956736553103662,-1.704855130753145,-0.149593589242216,0.9649144844260413,0.01666666753590107
295,5533.0,-0.03216539705594768,-0.17583034016387536,-0.42151433408092703,-0.21562776646822457,-2.162712159275729,-10.02302579237353,-1.706406437468384,0.4936679305185388,0.7535350172921033,0.01666666753590107
296,5549.0,0.07318295800609048,-0.1731413385419175,-0.38360944124162194,-0.10923545531120617,-2.1606173241546376,-9.98501802368164,0.0288969128774707,-0.5679789479452495,1.326063938441639,0.01666666753590107
297,5566.0,0.10444946771026588,-0.14820299524622968,-0.38211295560617,-0.07930792085952125,-2.137722761646239,-9.98307262523491,0.6814046978404777,-1.7072895595837256,1.89156881044261,0.01666666753590107
298,5583.0,0.05749211176484823,-0.13837701788381673,-0.24269189942898228,-0.13227965998994184,-2.1311388349449727,-9.842862464506645,-0.11020928441500105,-2.213161650766902,1.5408619686160214,0.01666666753590107
299,5599.0,0.04857472801418043,-0.15839880143487825,-0.24806091564884408,-0.14619594800644553,-2.150591732566897,-9.848249016383196,-0.3973337952063418,-2.5731469844158354,1.2624959014448593,0.01666666753590107
300,5616.0,-0.015605827989045064,-0.1784507517953403,-0.19458741014190017,-0.2181716148652951,-2.1739349795577114,-9.793930876745655,-0.6175957899537493,-1.144280694837571,1.0461457107815915,0.01666666753590107
301,5632.0,-0.009507559063006191,-0.16433851194847374,-0.20564482899541034,-0.21353286056518553,-2.160318122012354,-9.804854440086428,-0.9080546536895662,-0.3599095345574023,0.6931566786377195,0.01666666753590107
302,5650.0,0.04966866073072888,-0.14755271464395336,-0.25533311687521637,-0.15188217694931663,-2.146701017871825,-9.85393540972285,-0.04401034059224369,0.6458199458732402,0.3469732363106775,0.01666666753590107
303,5665.0,0.1803851721903309,-0.16933242951193822,-0.2824367941117845,-0.01227028350830078,-2.173037227000389,-9.880271609718259,0.5309133255885886,1.152195283260029,1.1130345003754667,0.01666666753590107
304,5682.0,0.2180927158266306,-0.1696350109213963,-0.2737211708777584,0.030526089433301238,-2.1772270251067356,-9.870844623344484,1.1810838885197155,0.7285730237532339,1.7447828158154528,0.01666666753590107
305,5699.0,0.19568174471724778,-0.20999383625146,-0.1673316658824682,0.013018471527099609,-2.2237643929412587,-9.763255094909667,-0.691348172611547,-0.853634427786402,2.3644674163556094,0.01666666753590107
306,5715.0,0.11880031121913343,-0.2092888663198799,-0.0674015113607049,-0.06209958729399368,-2.2240637777466326,-9.66314724573344,-1.8471563591382483,-0.715316160182768,2.9119128413042437,0.01666666753590107
307,5733.0,0.15327806088766083,-0.2029628416361287,-0.060399537343881086,-0.026336199995409697,-2.2194249754974615,-9.655815016848942,-1.7737469800428323,-1.071980794595459,3.0529442948339596,0.01666666753590107
308,5749.0,-0.04679027858308982,-0.21114627595590427,0.1307140729073435,-0.23104049217111897,-2.2242133605514653,-9.465326845019682,-4.086497057776751,-0.1545605641716301,3.311196095229669,0.01666666753590107
309,5766.0,-0.13131140861283055,-0.15752716969950123,0.06929166792228351,-0.31917703621904364,-2.159869154402148,-9.528922502390598,-4.614041232474673,1.4125674305062041,3.7878611235831072,0.01666666753590107
310,5782.0,-0.16608235994111745,-0.1401248022660613,0.056172553598880764,-0.3547907585144043,-2.1371241107665,-9.543138179779053,-4.182387791081853,2.058116143164201,3.5794735461098988,0.01666666753590107
311,5799.0,-0.17897766174627466,-0.11128897660779766,0.023478018102294298,-0.3682581428527832,-2.0977695214423817,-9.578003629573935,-4.472103925106284,2.6988271608991248,3.157766140809087,0.01666666753590107
312,5816.0,-0.16445950797963887,-0.16203845484517515,0.001007823908618593,-0.35254617619169876,-2.1378725179810076,-9.60269383790464,-6.640110128053173,3.5444417193003153,3.1394181182643175,0.01666666753590107
313,5833.0,-0.14742089582467452,-0.1552197878062725,-0.11827844276949763,-0.3311479805877432,-2.1199159324645995,-9.724349171801656,-7.364686477285745,4.469906738627655,3.060928359086881,0.01666666753590107
314,5849.0,-0.07593563141482881,-0.16259837201656774,-0.1910550530309789,-0.25258824774702077,-2.1046529151474123,-9.801861578413378,-7.212252876710339,2.3233586421754184,2.5850650241872732,0.01666666753590107
315,5866.0,-0.1760155970702879,-0.22108376913508399,-0.21372279364671556,-0.3540425887619145,-2.137273803169187,-9.829694154446385,-8.867570566404085,1.1676521080734736,2.023052513286294,0.01666666753590107
316,5882.0,-0.17236631731512023,-0.22111442000167444,-0.3899681626185775,-0.3480570663452148,-2.1230583404098637,-10.008810694940388,-7.4269120619455,1.9635965703349796,2.376812342950173,0.01666666753590107
317,5899.0,-0.1725628445342183,-0.20265538312215356,-0.6243077374342829,-0.3437175758361816,-2.0890904764922333,-10.246285060650482,-5.187817677003941,1.9034958148373333,1.8362491873639728,0.01666666753590107
318,5928.0,-0.2403246588409878,-0.24690279512228444,-0.6301858356874436,-0.40925884628295894,-2.1238065284286622,-10.254066362176463,-5.329594474926834,1.4717955226156756,1.1421616286475746,0.01666666753590107
319,5933.0,-0.12028718877602368,-0.14249454533839598,-0.5890594600509852,-0.28909985046386716,-2.003348330467287,-10.216058410821482,-3.5935080907503942,-0.24025385172632902,-0.6433386662138215,0.01666666753590107
320,5950.0,-0.09006193631966598,-0.09457377858776599,-0.5779664036285131,-0.2647089119178708,-1.9446901888640595,-10.206930516992136,-2.791551674637102,-2.311860445594525,-1.3237046416919285,0.01666666753590107
321,5966.0,-0.14130170969148165,-0.08752277323086745,-0.6622852205857634,-0.3205237563865725,-1.93212071234663,-10.292224316461384,-1.5657442410406721,-1.5195006587085123,-1.9444585937240153,0.01666666753590107
322,5983.0,-0.10196039997404441,-0.054844999356125475,-0.6566170387562364,-0.28476035995483395,-1.896057972208713,-10.287136564868316,-0.9874614724847823,-1.5174996267251102,-2.4270347239172767,0.01666666753590107
323,5999.0,-0.012894786923570791,-0.07473134735871571,-0.5298858980052172,-0.2039560504996276,-1.9128175664928972,-10.160842061968893,-0.9065666329458554,-3.6655998836662325,-3.459486118856404,0.01666666753590107
324,6016.0,0.055644319340540094,-0.03116487824389478,-0.3637564475193619,-0.14454993436508812,-1.8673277281000626,-9.994894397790729,0.6847897502653066,-4.301863167591009,-4.140926835272583,0.01666666753590107
325,6032.0,0.12827491786060854,-0.06160864827216137,-0.36295236459486185,-0.07526769642485305,-1.9002479712444589,-9.99354729403071,1.550618680401973,-4.082473649468791,-4.275084557176327,0.01666666753590107
326,6049.0,0.195505420035962,-0.06510352748348378,-0.3704400534691289,-0.005536573072802275,-1.9095253793799782,-9.999981674459763,2.40901220257514,-1.5023320177343333,-4.489408209368511,0.01666666753590107
327,6066.0,0.34180348584316667,-0.05776064020765479,-0.27095422691507265,0.14859014053344727,-1.9093757646091047,-9.89927595072193,4.209492969916226,-0.3461836824508799,-4.134943162672829,0.01666666753590107
328,6083.0,0.3917682343104854,-0.15629642232814803,-0.05183760226764716,0.20679915012968703,-2.0239981736556625,-9.677213335750483,3.4167523999839844,-0.28069182662483083,-4.974814385755685,0.01666666753590107
329,6099.0,0.46362318141609427,-0.20779965067543088,0.031212140035280025,0.28371287846220655,-2.084451747308299,-9.59251874884998,2.185270146404332,0.5711710475260255,-4.7774816828975535,0.01666666753590107
330,6116.0,0.48280824928153304,-0.23823554107462985,-0.019593710315122734,0.31753097691191356,-2.122759101734962,-9.642048587915196,1.3138376863839045,1.7139298908391531,-3.7460919554875405,0.01666666753590107
331,6132.0,0.5730779374672099,-0.2049650483040139,-0.2527130523036234,0.42437223512954075,-2.096123663064651,-9.87413683329029,2.452449004045248,5.375264107925301,-1.0439657064975938,0.01666666753590107
332,6149.0,0.6756333624586462,-0.21731290882686152,-0.27418805773714555,0.535552947323583,-2.114080157249514,-9.894636856211815,3.248523133179278,4.380010776979709,-0.3390666253357266,0.01666666753590107
333,6166.0,0.7086511773761361,-0.27623854225985706,-0.2577748292052187,0.5949591399482916,-2.187851331506297,-9.875633026664797,2.529308269001755,2.379475476396243,1.9583778789222666,0.01666666753590107
334,6182.0,0.7248555854629725,-0.3704811526644975,-0.24732198864873498,0.6093243407760747,-2.2888567140441385,-9.863811820364557,1.0917709475504536,-1.0558077604145149,4.674653184943012,0.01666666753590107
335,6199.0,0.70743880591169,-0.43766986152473836,-0.20093234045552089,0.5871779845527838,-2.3557448325226082,-9.817423925737012,-0.4243037576394892,-1.5628406635914762,5.639699150510576,0.01666666753590107
336,6216.0,0.5608545618405565,-0.5017230488382279,-0.1491143470706418,0.44143093109130854,-2.424877368927002,-9.76460172374565,-2.009970993478427,-2.926687607696039,7.0944193069229255,0.01666666753590107
337,6232.0,0.4584188907712698,-0.5125441929841413,-0.13539990176917052,0.3318962234054692,-2.431760735232569,-9.751583444014797,-2.158446499429811,-2.1384628600222344,7.993471130956181,0.01666666753590107
338,6250.0,0.14685464937719517,-0.5525917238753288,-0.08126040663416496,0.012719205452734604,-2.465429086480662,-9.698611823615385,-2.455031028994924,-0.5625169844042078,9.583063617814187,0.01666666753590107
339,6266.0,-0.01884574377532117,-0.5538912986991926,-0.08666740764370187,-0.1562216491920408,-2.4741081040313464,-9.702501990321185,-3.1804677686195055,0.7212829707530088,9.711454098737502,0.01666666753590107
340,6282.0,-0.2228083461716771,-0.5006579768899828,-0.17284555219942702,-0.3612251846092287,-2.4102128106933085,-9.79078850533301,-2.7485385583389466,1.9388396959146221,9.082858129042888,0.01666666753590107
341,6299.0,-0.2812468719411641,-0.3618219357928261,-0.3296714782943949,-0.42646717984848653,-2.2709002381255847,-9.94760858620908,-1.3013515669725924,1.515320903101582,8.19112741402624,0.01666666753590107
342,6316.0,-0.29242713172305373,-0.28196340444637463,-0.42986174505706876,-0.44158055956191383,-2.189646891419869,-10.048015710592828,0.07593790311996293,0.09097678572324758,7.581287997566128,0.01666666753590107
343,6333.0,-0.3253529940407723,-0.24018161537479607,-0.42061164962016045,-0.4758475982223637,-2.1478981278350577,-10.038738142627105,0.14920296111862946,-0.05251540687257728,7.234902637771747,0.01666666753590107
344,6349.0,-0.2934182433859445,-0.21713318661209194,-0.40762631317768244,-0.44966099929809566,-2.124554661648534,-10.025719488436915,-0.06417913882429757,-0.6278611373894554,6.471465073482743,0.01666666753590107
345,6366.0,-0.24021292382851242,-0.11572779017230495,-0.41450438225362446,-0.40566754379272457,-2.0231004576309584,-10.032453180606105,0.15803500936526418,-1.7026416158535318,5.226676757626259,0.01666666753590107
346,6382.0,-0.2478088953828439,-0.10901356988856568,-0.32868696076907217,-0.419434203338623,-2.016217018260155,-9.94656094031967,-0.05243708648074692,-2.9229617395037972,3.979595205755943,0.01666666753590107
347,6400.0,-0.30622758394069965,-0.07673967780671082,-0.2869408823316917,-0.48976387710571284,-1.9828478782874996,-9.904812523794732,-0.1204984641416294,-2.501726257585951,0.8495181715944115,0.01666666753590107
348,6415.0,-0.3518567874217406,-0.07160705959203187,-0.24914653719477353,-0.5488707488571294,-1.9789573690884048,-9.866504968438669,0.3839922479623384,-1.5723256619145083,-0.33262621051565416,0.01666666753590107
349,6432.0,-0.3263494211995974,-0.1089144934282638,-0.21685833345977587,-0.5241804894378409,-2.018611219920311,-9.83373453414468,1.0319230157738035,-0.213009534468044,-1.7938932633300195,0.01666666753590107
350,6449.0,-0.265898934553191,-0.06607143180072307,-0.15507621461711824,-0.468664993241895,-1.9791070934571324,-9.771186107104644,0.6769571774737416,0.7135619755048382,-2.91751167543295,0.01666666753590107
351,6466.0,-0.14757857060441745,-0.03737702162385685,-0.05678652991191484,-0.3588309555496089,-1.954865717166371,-9.671826747341314,0.5402648684185409,-1.0786630674812585,-3.9528686755336833,0.01666666753590107
352,6483.0,-0.17849172312654554,-0.06406668611587957,-0.0027897229063077247,-0.40566752552641555,-1.9828479056869632,-9.61720859356697,-1.90730428562985,-2.5978714154376354,-5.0051549398225275,0.01666666753590107
353,6499.0,-0.220351125745289,-0.10272706436445005,0.00267301061002654,-0.4547486960922368,-2.0195090729423333,-9.611971485500055,-2.776579899976434,-1.3880703167177189,-5.433394567290811,0.01666666753590107
354,6516.0,-0.20725993604185058,-0.0752121942447964,-0.12779762833821587,-0.43724111471865323,-1.9849428230064454,-9.743951944489357,-1.4831534868751721,0.9065616170256837,-6.199401136481386,0.01666666753590107
355,6533.0,-0.05540112170181237,-0.12734333609892054,-0.1642407689287327,-0.2817676170127932,-2.037914653468411,-9.780313836537207,-1.0505772228924604,1.5509259321929179,-6.963868778674595,0.01666666753590107
356,6549.0,0.11887497475738637,-0.0977628295531962,-0.1862940309079364,-0.09068039701157249,-2.0097827382958027,-9.802460037496871,-0.18501305596762452,1.9134405702688717,-7.0986804911913675,0.01666666753590107
357,6565.0,0.22781331485211848,-0.11171018856139853,-0.17178404218144713,0.028880057525634766,-2.026392448381055,-9.787646097387745,0.1800130773506975,0.4859981616891434,-6.742398187289639,0.01666666753590107
358,6585.0,0.2383966681867838,-0.16051071555493399,-0.23605014159325508,0.053570243879687035,-2.0784662979568354,-9.851541025399602,-1.5485592716455086,-1.0951076016817105,-5.982707408647208,0.01666666753590107
359,6599.0,0.2622425492038019,-0.19710708307893945,-0.21288676294768227,0.08304885182036087,-2.109740447544772,-9.829544352445843,-2.62750205671762,-2.530452752574555,-5.497178715741797,0.01666666753590107
360,6616.0,0.21209477231977505,-0.23423174879336728,-0.20575913955746217,0.028580745785497127,-2.14221202675635,-9.823259609620552,-2.829268619564147,-3.6038455820592086,-5.501663161818734,0.01666666753590107
361,6632.0,0.10771299041770398,-0.2581132491130382,-0.16603273037942126,-0.07841010437011718,-2.1586719987731424,-9.78495241959067,-3.774246849019979,-1.748023100246389,-5.0298443661248315,0.01666666753590107
362,6650.0,0.12156027745176105,-0.29326531784655524,-0.2566996925206855,-0.05776011505126953,-2.1966800414596683,-9.875183912924118,-1.903963255908656,-0.08905280014131299,-3.9125325665033497,0.01666666753590107
363,6665.0,0.11562680488270707,-0.3289060103472322,-0.2994098484835587,-0.05805938112563453,-2.2361842775207013,-9.917232390107866,-1.3295865017843673,0.8449947720948647,-3.634811525321931,0.01666666753590107
364,6682.0,0.24009247578661888,-0.319322554770112,-0.3289025032158941,0.07212532501220703,-2.2301988464355467,-9.946112465899809,-0.8187701540548951,-1.2243734140358447,-2.788104563540361,0.01666666753590107
365,6699.0,0.25620814614407716,-0.31597751865852625,-0.312688487050496,0.09172783283842727,-2.229899461630173,-9.929353090811334,-2.0420440677169265,-2.517997902623037,-2.512699169930988,0.01666666753590107
366,6716.0,0.10672854595761745,-0.3441329517040401,-0.37656631779707966,-0.06224922489775345,-2.2590789770264177,-9.9929485974852,-3.623152392408719,-4.316060142667703,-2.9325325420782775,0.01666666753590107
367,6733.0,0.05311960946877952,-0.31866109518669544,-0.47108032902162517,-0.12060791319694834,-2.2321440622191875,-10.087669529458694,-3.4795118066160584,-3.8152792104588307,-3.2813266107721453,0.01666666753590107
368,6750.0,-0.08402964301863684,-0.31158100073263045,-0.47529334360677744,-0.2696469802414067,-2.2240637046813965,-10.091859163168259,-2.1796849726539653,-3.380604050688515,-4.0389512571906465,0.01666666753590107
369,6766.0,-0.10157047820785083,-0.27600184742715206,-0.4395571365760639,-0.2935889694435056,-2.190245569699071,-10.05564715531934,-1.0965720369284435,-3.0897368163455257,-4.588896744818917,0.01666666753590107
370,6783.0,-0.09526028128089382,-0.22062356774481012,-0.4252996613059193,-0.29553428569184614,-2.1398177520309574,-10.040234080273285,-0.2183252359113122,-2.084293056601686,-5.359012526568902,0.01666666753590107
371,6799.0,0.022533163583790882,-0.19790623409999533,-0.34560656792055816,-0.18525136258774436,-2.123357579084765,-9.95913053556811,1.3783511709722023,-3.867265060892267,-6.869334691693386,0.01666666753590107
372,6816.0,0.1043924585597124,-0.17849196058856323,-0.3094782928323373,-0.1060930884651374,-2.1092918269944376,-9.921871210623346,1.3807023568722734,-4.368728585131318,-7.214634051409735,0.01666666753590107
373,6832.0,0.08173407029421068,-0.24626400402840226,0.03277267420013668,-0.13856441194838842,-2.188449918453954,-9.57710563042144,0.16070442605176236,-6.592680867569782,-7.074057232346648,0.01666666753590107
374,6849.0,0.015774315282102908,-0.25962610136140135,0.08540722411531024,-0.2136824924607237,-2.206855416781641,-9.523236570275248,-1.0669218655763009,-6.456277720976396,-6.943982256019279,0.01666666753590107
375,6866.0,-0.056724835453089324,-0.2872272432587109,0.16261550581445916,-0.3004722900833003,-2.2327425943679176,-9.446023612400982,-3.023638727869785,-4.106350283259863,-6.759197891326931,0.01666666753590107
376,6883.0,-0.043274744742806064,-0.32555041630901393,0.09424248254047707,-0.2898480339160887,-2.2602760778564956,-9.516502668043504,-4.765940370747525,-1.2540691555563561,-6.4362106251948985,0.01666666753590107
377,6899.0,0.029289800520439165,-0.2447962878297083,0.11480413598874584,-0.2120364731111447,-2.167949585005175,-9.49839659105381,-5.132749703707536,0.17674835364913719,-5.541506216568357,0.01666666753590107
378,6916.0,0.04584547658022493,-0.2761785374346189,0.13088703658776357,-0.1943792655502446,-2.187103198286425,-9.48477978830738,-7.5102369547250705,-0.9828890877222819,-6.178026486360655,0.01666666753590107
379,6933.0,-0.17634572407379745,-0.2964121645049192,-0.041015407808963206,-0.4101566901718266,-2.173785415019188,-9.66344690453345,-10.186544128157017,1.5018410978877386,-7.736378541728669,0.01666666753590107
380,6949.0,-0.11736356554743833,-0.2760373753982596,-0.23092949237758292,-0.3441664795143064,-2.1366754719498564,-9.856778688591065,-9.034558446327143,2.6521261693359857,-8.08120832593958,0.01666666753590107
381,6966.0,0.008372498609981266,-0.1844898492964916,-0.4358851700650528,-0.20485388982191796,-2.02938501779316,-10.065074324356205,-5.993324937711993,4.457978667015874,-8.285790420828032,0.01666666753590107
382,6982.0,0.24695235161874443,-0.11921457284213974,-0.4665100619640201,0.05731122050629928,-1.952321834519971,-10.098443546527252,-2.310848510380305,4.83397289686226,-9.374544772642867,0.01666666753590107
383,6999.0,0.3256318475147709,-0.10021912753097713,-0.5500405780877917,0.15637133246157317,-1.9307739282470195,-10.182839155047759,-1.0822911785910048,4.768281844972369,-9.991564425467955,0.01666666753590107
384,7016.0,0.57960182281062,-0.17335068870997056,-0.6402960916176438,0.4327519500732422,-2.00753800070947,-10.272771427972614,1.7360990840594277,3.3558704416000182,-9.062555391735025,0.01666666753590107
385,7032.0,0.6473829811386763,-0.2071459177407436,-0.5017398538425565,0.5069721924049314,-2.043451244807523,-10.133907147161661,0.6566696480089527,1.5645510923700354,-7.741292862836493,0.01666666753590107
386,7050.0,0.5025982607701793,-0.3797110090309754,-0.038315921325609084,0.37603932564775455,-2.20760360480044,-9.672275358758494,-5.39498585226689,-3.9696739290996765,-4.5606684267529,0.01666666753590107
387,7066.0,0.424404721760191,-0.4222671982748434,-0.10205224297596141,0.2920926208053715,-2.2378303276946765,-9.738265596815477,-7.130512587818211,-3.6905744703663843,-3.392100539722116,0.01666666753590107
388,7083.0,0.2747249410928227,-0.4121432791454717,-0.2883559732940048,0.14589665453261694,-2.2176292511871085,-9.92650993980728,-3.8953196360212714,-0.5904358095234581,-1.1598568345180793,0.01666666753590107
389,7099.0,0.2858186551024206,-0.4195661226226017,-0.2403335910661146,0.15652091526640577,-2.2186767144134265,-9.879672967971674,-3.5369590336211547,-0.15749677178236868,-0.464296142735927,0.01666666753590107
390,7116.0,0.31070520427878945,-0.36420674857012925,-0.12105295811728574,0.1833060737388674,-2.1520879442077128,-9.762507135219732,-4.119676836104204,1.1283184360255454,0.1515721563065512,0.01666666753590107
391,7133.0,0.3249123010685667,-0.3119929425343871,-0.11322962581417523,0.20455459520644506,-2.0944775398254394,-9.755773351718997,-3.2315616390360207,-1.5835451013999005,0.2975075655984171,0.01666666753590107
392,7149.0,0.23991969476928934,-0.3360764499658718,-0.1341273519495502,0.11462239534682593,-2.1106384375641123,-9.778069254214502,-4.8141649213824,-3.0246141642606275,-0.26285195948213935,0.01666666753590107
393,7166.0,0.0005378982774738687,-0.31698633037488905,-0.07774094553743488,-0.13227964971514303,-2.0756231652190906,-9.724499074266896,-6.91120033621098,-1.250753525601138,-1.3275568683838157,0.01666666753590107
394,7182.0,-0.11285556833739392,-0.2905204213188961,-0.2708192571574822,-0.24735096814804708,-2.0286370307037607,-9.921272148751653,-5.037970156803031,-0.30910029093020636,-0.901996169174059,0.01666666753590107
395,7199.0,-0.21032184436311943,-0.3249100725788623,-0.22973445564042774,-0.3446153923255857,-2.058414950384572,-9.881019706405512,-5.111182100742751,0.04798588755021465,-0.9735904254975443,0.01666666753590107
396,7216.0,-0.34378260389640924,-0.3260625305496156,-0.21398827618248759,-0.4843769233703613,-2.0446482177734375,-9.86785185300298,-6.554993591276944,0.680809831052452,-1.9591522516194169,0.01666666753590107
397,7232.0,-0.3668495912291109,-0.2714712182601914,-0.2953758254608139,-0.5062240043861326,-1.9791070569245144,-9.951199888699314,-5.757989062311911,0.04036936951695087,-2.437419599663458,0.01666666753590107
398,7249.0,-0.3332427974425256,-0.2264355967581272,-0.4011079077269882,-0.47644612123793917,-1.9189526306152342,-10.059537769549712,-3.50714952676228,-2.7421901109488314,-4.703402304933242,0.01666666753590107
399,7266.0,-0.3349272068655118,-0.21891910191448405,-0.3793535373628139,-0.49051208339082075,-1.910872218278516,-10.037690460205077,-2.2800537487336565,-2.3790754834429744,-5.183105273363455,0.01666666753590107
400,7283.0,-0.2638456004862673,-0.21610928692445158,-0.4379807541048154,-0.42063130416870115,-1.9026421318054199,-10.09724648222979,-1.1312460258585422,-0.1561258380901134,-5.671742556114868,0.01666666753590107
401,7299.0,-0.21907535192212088,-0.236126695694495,-0.4208166341403499,-0.3718494270767085,-1.9198504745041018,-10.080636489016749,-1.8590978776849578,1.628421471959294,-5.545624393751051,0.01666666753590107
402,7315.0,0.02422409636239754,-0.20661758301770314,-0.3771471133597195,-0.12270282366656465,-1.8849849493606947,-10.03798988154307,-2.998544185972335,0.48080860530210884,-4.585091475677573,0.01666666753590107
403,7332.0,0.004451758383993001,-0.1877939323431812,-0.2779895506456494,-0.14933834367903326,-1.8546083696669897,-9.940725585229695,-5.508328145788197,-4.328180313349891,-5.34524073076804,0.01666666753590107
404,7350.0,-0.06703115737808402,-0.15470328965149818,-0.33514263971447944,-0.22580313950690906,-1.818396233953908,-9.99833577041626,-6.37364993437899,-4.405568491080251,-5.698268876417082,0.01666666753590107
405,7366.0,-0.10572454741369001,-0.1406104851574637,-0.5187711777402088,-0.2807201355201658,-1.7914613374129869,-10.183886216415278,-1.0356322353799436,-2.4467457960882872,-6.852281843769981,0.01666666753590107
406,7382.0,-0.13114134014239534,-0.1482443775693886,-0.4324579355627298,-0.3100490967239253,-1.800589413905423,-10.097246226501465,-0.24497463302071854,-1.1555839108620016,-7.200151489048369,0.01666666753590107
407,7399.0,-0.07504040874131024,-0.13843559793694876,-0.2567422164881602,-0.2537853759765625,-1.7958008005225565,-9.920673598336615,0.39981822315608107,0.635413085455668,-7.551216382197855,0.01666666753590107
408,7416.0,0.0875738732304424,-0.1292839122400619,-0.2636741711758077,-0.08529345240937546,-1.791910250224266,-9.92680884968862,1.8453548967446576,0.3566077517435094,-7.9572164868417525,0.01666666753590107
409,7432.0,0.3016906528971158,-0.1244380431114696,-0.3051631513132714,0.13078326568603516,-1.7978957178420387,-9.966463015614357,3.007281065137839,-1.6404016237634964,-8.218446463159,0.01666666753590107
410,7450.0,0.39847087375428525,-0.1318107729697134,-0.1498880348568782,0.2362777763366699,-1.8133085462929215,-9.809942283011042,2.3621782357665975,-3.1453911186934937,-8.007709514054717,0.01666666753590107
411,7466.0,0.348501777905412,-0.2136367775973864,-0.09154582733502611,0.18300678939819334,-1.8992004851852542,-9.75083493633559,0.40442953466076526,-1.3641534488435672,-6.360804909871135,0.01666666753590107
412,7482.0,0.3667399203095585,-0.2510242772327736,-0.15750576158529148,0.21607673636171965,-1.9437925093719735,-9.8157778024978,-0.10002719992012438,1.4318048717469567,-3.9500755550499713,0.01666666753590107
413,7499.0,0.44273503595981745,-0.21658651251476257,-0.1441612455747556,0.29403786398847587,-1.9093757874419912,-9.80246017449419,-0.029264545808514654,1.576627400431147,-3.3941937792593135,0.01666666753590107
414,7516.0,0.5365543794510885,-0.22930938036246223,-0.07957985140238888,0.3930980033432133,-1.9211971764053217,-9.738116096209035,-0.8950213720927125,0.5027160101781016,-1.727149615256007,0.01666666753590107
415,7537.0,0.4210400311000645,-0.22481192281274123,-0.08525938574299216,0.29194300146792085,-1.9161094978774897,-9.744101335497945,-2.4823406866175737,-0.29003195023226463,-0.6224390344055231,0.01666666753590107
416,7549.0,0.3747551767218858,-0.24752971311528235,-0.16850883816936985,0.2458545829772949,-1.9357120787689461,-9.827898484934959,-1.4013698689704972,0.07482234112942944,-0.19969007861713733,0.01666666753590107
417,7566.0,0.33000472883675247,-0.25191667776154353,-0.2601018656469881,0.20275896222763692,-1.9394530005966313,-9.919626536969094,-0.10575364652851893,1.1557411119346177,0.012808013753795554,0.01666666753590107
418,7584.0,0.3136118855057284,-0.24608950597802176,-0.22903449067752807,0.21218612213134763,-1.9467851701156236,-9.886556590005569,0.3909129371388538,3.3795773878788977,1.1877109862836261,0.01666666753590107
419,7599.0,0.2592790962883271,-0.2396254427967593,-0.19966608337936922,0.17432779924697242,-1.9469349721161648,-9.8561798824477,0.2466127578436109,3.236791856392958,1.5348268561540805,0.01666666753590107
420,7616.0,0.30310402682637794,-0.24669452266646547,-0.2559025507936254,0.2434603995834477,-1.965040994306933,-9.910648171145654,0.03395632547935806,2.0919674144644302,1.6773435556631566,0.01666666753590107
421,7633.0,0.27515211699632924,-0.2501904019582085,-0.3650960986252874,0.23537995528068859,-1.9806033050979486,-10.017788878100736,0.901929788273063,1.3122695176391521,2.381626985984797,0.01666666753590107
422,7649.0,0.2569099742705002,-0.24750403068475424,-0.37833983027562496,0.22565350190314928,-1.984344336523488,-10.029909158679096,1.1170084965336506,1.458487752791552,3.0774303095650435,0.01666666753590107
423,7666.0,0.26762374905180186,-0.240168080039788,-0.2902237947261892,0.24435820922298587,-1.985541382554639,-9.940276288825926,1.550789114966106,0.6771949534342228,4.265390811196786,0.01666666753590107
424,7682.0,0.18159469411056486,-0.272003772500623,-0.2651596422269009,0.16250644339132703,-2.0260931731735354,-9.91364094148716,1.6952419596614694,0.5359564064344381,4.614495866941302,0.01666666753590107
425,7699.0,0.15909091188488528,-0.2910641910730861,-0.1917228692899458,0.1469441246088012,-2.062604638893064,-9.837026707557868,1.3348606884840866,0.32043605707490036,4.960485075763821,0.01666666753590107
426,7716.0,0.12021941163628361,-0.34884039874263106,-0.1680222419625148,0.11417348653130174,-2.1371243299622087,-9.81024155821856,0.10328649415490306,1.1750766304229834,6.199391318084454,0.01666666753590107
427,7733.0,0.10843129475489258,-0.35765170090347526,-0.13125007034703157,0.10489594767750822,-2.151788595934957,-9.77238276041015,-1.1980103779434763,1.1707775599489894,7.441669539420959,0.01666666753590107
428,7749.0,0.09974052283433266,-0.3669660206830129,-0.07999533686810173,0.09771336767050888,-2.166303699227981,-9.72015947416001,-1.9203533620391593,0.9541613120732083,8.271798778313261,0.01666666753590107
429,7766.0,0.09183168593854643,-0.34787294194996354,-0.1886474986989051,0.08858545143639349,-2.149693815612793,-9.828347525610402,-1.1239265176675215,0.24378500616637272,8.419382090804312,0.01666666753590107
430,7783.0,0.004485194006480742,-0.2690458177441731,-0.20691713221985847,-0.0034416614615416616,-2.0765210639068856,-9.845555667379685,-1.8459508307497412,0.38291758706554563,8.483409137857658,0.01666666753590107
431,7799.0,-0.06494048240887933,-0.2658754440797493,-0.2320185114569962,-0.07646481666288454,-2.0747254857270048,-9.870395765332132,-2.0616966563931687,0.4519879284081525,7.995137697113663,0.01666666753590107
432,7816.0,-0.1212372195098549,-0.18335744773307813,-0.3174955585386604,-0.14006079940242924,-1.9939210152999496,-9.955539634936676,-1.1961502186117057,1.0278466734997753,7.51199999730458,0.01666666753590107
433,7832.0,-0.11767454945906065,-0.13790264183771797,-0.31105346972718834,-0.14021044613934355,-1.9491793261100072,-9.948955507306009,-0.25647264283862675,0.6754442905725838,7.51999473372808,0.01666666753590107
434,7849.0,-0.18997509404085575,-0.07962506965044885,-0.23809503662539644,-0.22370821305427233,-1.8918682608673347,-9.875782554670701,-0.6136942044729382,0.5256729696696021,5.711214646215194,0.01666666753590107
435,7866.0,-0.17635217208089307,-0.007743420625937869,-0.23196776765044777,-0.21906946560402865,-1.8182464901772268,-9.869946962118707,-0.10621671868001126,0.4540427481312685,4.603007061870517,0.01666666753590107
436,7882.0,-0.21841126199020072,-0.02968149640189949,-0.2445942076526582,-0.2669534896739991,-1.8387469343655043,-9.882815394183247,-0.7536703404150341,0.1621852030596932,3.8354180232266133,0.01666666753590107
437,7899.0,-0.23977497080266474,0.023299659010837786,-0.25217532869772985,-0.2989759186122799,-1.7803881775676504,-9.891344609733391,-0.824798916575342,0.44469048492980207,2.6522141080215493,0.01666666753590107
438,7917.0,-0.24417061194572595,-0.0101692880744813,-0.3293427943293005,-0.3118447753685061,-1.8109143491993425,-9.969006580883637,0.18755487351464772,1.3022567804810306,0.0837069364759483,0.01666666753590107
439,7933.0,-0.17573144636666402,-0.014333841000072425,-0.3733336560187861,-0.24375965195808091,-1.8158523707154612,-10.01285072757881,1.3419083764904818,1.7369131572311287,-0.3273786775619539,0.01666666753590107
440,7950.0,-0.07685898420428856,-0.06297653452530502,-0.3566431449154392,-0.14320318679809568,-1.8721160606384277,-9.994744504458643,2.0654876248259373,1.1687924294997485,-0.2503721099710418,0.01666666753590107
441,7966.0,-0.05351019338867627,-0.16201269934941082,-0.15974062623158097,-0.12030861972311976,-1.977610461691208,-9.796624426678568,0.5543388467293224,0.08539280592196465,-0.9508232705597761,0.01666666753590107
442,7983.0,-0.008096714446725672,-0.20813023433666675,-0.1953967354970984,-0.07571660866531019,-2.0278887696197256,-9.831489677827339,0.41427861408307076,-0.9182434816622269,-1.5033392571934985,0.01666666753590107
443,7999.0,0.005870768325831159,-0.22722862856565043,-0.22749122502459213,-0.06569089948820474,-2.055122831770312,-9.862015895124804,0.4170463081203804,-1.3489626812426356,-2.1269367023544263,0.01666666753590107
444,8017.0,-0.03510263553464319,-0.2590983876928687,-0.2708686309908517,-0.1074398131992435,-2.0923826133728025,-9.904363373521436,0.7723706513105886,0.15662422845611276,-1.5751843095255702,0.01666666753590107
445,8033.0,0.0063524959905014835,-0.28352891846373673,-0.24216582972826434,-0.06120178564596571,-2.1288941886901855,-9.873388535673636,1.1308174314881239,1.0172564651916705,-1.5070731295136741,0.01666666753590107
446,8050.0,0.10005982704972848,-0.2721393267801031,-0.23059640623200683,0.03621229097670875,-2.1244050240447745,-9.860519720016606,1.4939029239683028,0.4469608824985966,-1.571593337569436,0.01666666753590107
447,8066.0,0.15454333158312364,-0.22525886286264285,-0.1833477300566621,0.09741408461418467,-2.0887913656814954,-9.811139292509575,0.703374428192647,-0.3452278561734748,-1.9905252314679895,0.01666666753590107
448,8082.0,0.1499409523542039,-0.2181215217960067,-0.18173680599499492,0.09546880033188498,-2.0865466189620085,-9.808595471511968,0.7760346209134773,-0.5587987468139292,-1.780597126171826,0.01666666753590107
449,8099.0,0.16979381821230052,-0.22629182263957334,-0.25659508136874065,0.12150572055319789,-2.105849869847018,-9.881319072944578,0.9906494632798858,-0.2693235904011529,-1.015949017574142,0.01666666753590107
450,8118.0,0.09930125463423319,-0.27297802436025814,-0.0909835446766112,0.053270977805322035,-2.1550807876144535,-9.715221214040229,-1.609355212334615,0.0027282120087504815,-0.7568075316781856,0.01666666753590107
451,8135.0,0.07559357194493059,-0.24770667711738495,-0.11631530773667619,0.03217208937492687,-2.130091179922409,-9.740510307002346,-2.3335087301688806,0.5717734381943089,-0.4167471404986485,0.01666666753590107
452,8150.0,0.11821073869499377,-0.16719821222852915,-0.2459716882846318,0.07826045763320288,-2.050783469125442,-9.869946907319779,-0.4520578311254393,-0.9188406963277799,-0.11936634694648657,0.01666666753590107
453,8166.0,-0.004841474368798663,-0.17251306884204967,-0.19789333808580412,-0.04623802241587836,-2.0573673227614724,-9.821613705577048,-0.8848202711238868,-0.8504520932417049,-0.4006209838269691,0.01666666753590107
454,8183.0,-0.036065327103936576,-0.16330887663979082,-0.2263771993680857,-0.0800561248613405,-2.049137236288376,-9.8498953222855,-0.740992228655021,-0.35009623358696007,-0.888389792017159,0.01666666753590107
455,8200.0,-0.044683387698023574,-0.13914636742165312,-0.28074189982740205,-0.08933364487800281,-2.0251953840835952,-9.90421384551553,-0.7415930718585706,-0.06432910283124034,-1.0286619206102396,0.01666666753590107
456,8217.0,-0.03999291919369716,-0.15173426551176233,-0.30677619426678865,-0.08484452589836437,-2.037764869734179,-9.930250478042476,-1.17404986089166,0.07486795131843779,-1.588230184283706,0.01666666753590107
457,8235.0,0.016516013052966443,-0.14336007612654939,-0.3725288059093058,-0.027234057584009132,-2.0274399846726094,-9.996390627697854,-1.1002504139616127,-0.14047800810374642,-2.073302215010078,0.01666666753590107
458,8250.0,0.06698868820953648,-0.15517231366904452,-0.38619226080905644,0.02498948439445812,-2.0410567874190395,-10.009708045638911,0.778003636385145,-0.48754882807414784,-2.1285228003457504,0.01666666753590107
459,8266.0,0.07828590260171331,-0.18679829063564538,-0.3457422500642016,0.038157593525317494,-2.0808605178833006,-9.967659952047653,1.6458425097676463,-0.8405013613946426,-2.2600920939974714,0.01666666753590107
460,8282.0,0.1362118026739452,-0.20073687268234788,-0.2999210311423987,0.09876081619815667,-2.1007623922485856,-9.920673780999705,1.7165336870168089,-0.41045202728099756,-2.122547025152224,0.01666666753590107
461,8299.0,0.15794000655040144,-0.2450080126179382,-0.13209022009875623,0.12330137864818097,-2.155978558438085,-9.750685499661229,-0.01238723341327244,-1.5641540876245286,-1.9206833455534356,0.01666666753590107
462,8316.0,0.10861535521806218,-0.2562203480385244,-0.11074744447646662,0.07496843720035394,-2.1697452545166014,-9.72883828164814,-2.5401603723758472,-1.220217670812715,-1.7309080335685123,0.01666666753590107
463,8333.0,0.0819596957436297,-0.24774529209472237,-0.14703657268220557,0.04982931291884742,-2.1586719987731424,-9.76564938790137,-2.2560535312072894,0.2124932015152601,-1.59636750090613,0.01666666753590107
464,8349.0,0.07152892545505891,-0.23087756126094608,-0.23154009855659677,0.041599249278637576,-2.1393688574859873,-9.850643327641206,-0.8873096616329449,1.1500847548064952,-1.6607596429149543,0.01666666753590107
465,8366.0,0.18898663099277763,-0.19152119097169487,-0.2853088606830686,0.17387890127706923,-2.104952135556005,-9.903465748828276,0.12047699973855411,2.01502170492624,-1.4493276153409187,0.01666666753590107
466,8382.0,0.21350458431877195,-0.16278335492834448,-0.262254714565631,0.20649990574656402,-2.0784663162231443,-9.879972626771684,0.048795711864004124,1.658115505932513,-1.0312411707955658,0.01666666753590107
467,8399.0,0.2189015479914844,-0.24554540743026881,-0.257042624206841,0.22565351217794813,-2.164358337313868,-9.874136267034709,-1.8974180136930796,0.7178917284692445,-0.8318412684964482,0.01666666753590107
468,8416.0,0.1408148668894544,-0.2475462989239022,-0.3715736606089398,0.1562216640334169,-2.167351016323827,-9.98845979816597,-2.041960611343005,0.8603868168329001,-0.8335254437353853,0.01666666753590107
469,8432.0,0.17297003709562123,-0.2112532434617169,-0.3878513896603137,0.19407996979312736,-2.1308394958053714,-10.004770260443165,-1.2503636712099182,1.2959254085638403,-0.13507500830514899,0.01666666753590107
470,8450.0,0.16997556798737495,-0.1860184836358763,-0.42922596790418027,0.2008136825119145,-2.109591029136721,-10.045321831866353,0.6260440936268203,0.9517621014055355,0.9217000909907822,0.01666666753590107
471,8466.0,0.14403462352040222,-0.19584961209744214,-0.40096860885415225,0.17911621855030535,-2.1224597717285154,-10.016441957003808,0.5015087742423019,1.0268824428880399,1.2574296086280023,0.01666666753590107
472,8483.0,0.21374420176092535,-0.18351718660574406,-0.43258400962781157,0.2549824676734861,-2.116923143856786,-10.046668533767573,0.7930978742031972,-0.25680388033294593,2.0991275871487196,0.01666666753590107
473,8499.0,0.18448228704454375,-0.26619227321026845,-0.2847463679620996,0.2281973548667971,-2.2055086235488766,-9.897629699618555,-0.7175805813360387,-1.7677276623933469,1.956527964874251,0.01666666753590107
474,8516.0,0.14979884046977385,-0.2725122882783413,-0.2950581012811512,0.19183540802001953,-2.2125416091918946,-9.907805239337309,-1.8010154430870504,-1.8439984638641753,2.5055362224823488,0.01666666753590107
475,8533.0,0.15592543359128758,-0.2226685723748058,-0.3035510216752067,0.1943792609836673,-2.165555474676564,-9.915735849673487,-0.35847266019118734,-1.9759308247589646,3.6279582842634692,0.01666666753590107
476,8549.0,0.04887584811891429,-0.22566459411932155,-0.22305828407844527,0.08125321199168684,-2.1709421909498983,-9.834781924305762,-1.518021175701264,-0.9075785681600751,4.379877161404071,0.01666666753590107
477,8566.0,0.0011733060370734164,-0.180453816979751,-0.20725032796328885,0.030675708128577023,-2.1253028131347147,-9.819069829780515,-1.6624809573075032,-0.6232743985575273,3.9606089874106,0.01666666753590107
478,8584.0,-0.046863033292046746,-0.17023027340080588,-0.20631207899879664,-0.021547819507983512,-2.111236914913915,-9.81892010084521,-2.383726201937518,-0.3433044909114551,3.120425710060039,0.01666666753590107
479,8599.0,-0.05107460483878385,-0.04712125953654758,-0.30974640571661294,-0.029628252394299486,-1.9838953780464361,-9.923217766394092,-1.2274976919725966,-0.3382579149297412,2.5027339239319395,0.01666666753590107
480,8616.0,-0.03303821610141312,-0.056142163027194325,-0.29117512236796317,-0.013766666395764331,-1.9906290473827393,-9.905111762469634,-1.2994236393576506,-0.26783044701556463,2.2239228272476685,0.01666666753590107
481,8632.0,-0.04646296459117438,-0.06241666301968507,-0.3226494341704994,-0.030974986261560113,-1.9919758817146997,-9.937582684094085,-1.3722212896355275,0.30225718843379407,1.5258734386475459,0.01666666753590107
482,8649.0,-0.06944338788527529,-0.08520472381315193,-0.3387084424372762,-0.05521628035393077,-2.012027211020654,-9.954192896502837,-1.2267264142049141,0.3015251575734127,0.9013374828059759,0.01666666753590107
483,8667.0,-0.06323696186004672,-0.0988893584982492,-0.2804820433148183,-0.051475351676379795,-2.0204070172959008,-9.897030911741497,-2.018261349026942,-0.06259843027911563,0.1330696274122362,0.01666666753590107
484,8682.0,-0.08273911001775414,-0.15193438206058926,-0.27639870125763116,-0.07107786292753299,-2.0694879595328586,-9.893739012322946,-2.0183680707327234,0.008766910486758357,0.06324545730084212,0.01666666753590107
485,8699.0,-0.10535549490558914,-0.17948670724695548,-0.2795665541714057,-0.09636662652526574,-2.094178319416847,-9.897480281210504,-1.8016848016257117,0.36603744154252027,-0.5623612240746197,0.01666666753590107
486,8716.0,-0.058640847975132054,-0.1832431371710263,-0.339090281361714,-0.049530046844482416,-2.0970212877578103,-9.957185210186616,-1.5127929860567366,0.5812409341575928,-0.9783698503692607,0.01666666753590107
487,8733.0,-0.030184774315496904,-0.19259340504677966,-0.3811843329865485,-0.019602528375817926,-2.107346245884616,-9.999084031500294,-0.93597465274758,1.08420181728961,-1.3936903884658758,0.01666666753590107
488,8749.0,-0.04606337538091466,-0.21885414691949262,-0.3586350128524005,-0.03396773491182248,-2.1345805089646017,-9.9763388965331,-1.654947365374685,0.07927340332277617,-1.1160493885637928,0.01666666753590107
489,8766.0,-0.024351741330057845,-0.23749568249275907,-0.36768684577085076,-0.011671742226416244,-2.152836260090675,-9.98546671729721,-1.7270911317612387,0.29260877249878414,-1.465002899486098,0.01666666753590107
490,8783.0,0.003730871361950994,-0.20763932728087528,-0.44042566303890196,0.01675940876698296,-2.1245547529800795,-10.0578916463105,-0.2818349494958824,-0.0569891040727096,-1.5231189514213266,0.01666666753590107
491,8799.0,0.05264492289542686,-0.15422131482083348,-0.4602673681821674,0.06688800203074934,-2.0738275870392098,-10.077195006793364,1.233934398213393,-0.11916166805501098,-1.2345356683037658,0.01666666753590107
492,8816.0,0.11255421990379691,-0.1451390045657288,-0.2874552433283068,0.12539629254273021,-2.0730793898872566,-9.902717579075787,0.3736179910258824,-2.054835944815302,-1.0232704467558666,0.01666666753590107
493,8833.0,0.118719236206403,-0.17805687537323683,-0.25351715349443255,0.13018471869592904,-2.1076456124236804,-9.868450403418018,-0.4926911067455212,-2.130726176683314,-0.8203171919019029,0.01666666753590107
494,8849.0,0.07390801631105132,-0.2005901759543456,-0.26768260309956965,0.08095395505047635,-2.132186161173973,-9.88221720909439,-0.998841848302493,-1.8471909369709216,-0.7555339148413898,0.01666666753590107
495,8867.0,0.05114583887751214,-0.18460953015340492,-0.27446959635857493,0.05716155664472025,-2.116474249311816,-9.888950426339544,-1.2169878451089453,-1.1338968863084475,-1.1077250955128397,0.01666666753590107
496,8882.0,0.06158724929110612,-0.15394205948803574,-0.18767936605280264,0.06838437749752484,-2.08654678335879,-9.802011142951901,-1.075395035406819,-0.20308680372853607,-1.1109140468032952,0.01666666753590107
497,8899.0,0.11434900349923409,-0.1256187499291729,-0.22926234461665151,0.12345101625194074,-2.0611083815864752,-9.843011937713623,0.0802974647908153,-0.6243697901456681,-0.6146898112661733,0.01666666753590107
498,8916.0,0.08942134599434211,-0.14082506862306035,-0.21039251671284437,0.09965864981222548,-2.0777181373375,-9.823858032171428,-0.280874614226408,-0.3410712591766989,-0.9659454161038902,0.01666666753590107
499,8933.0,0.06675007998095825,-0.16789408553820104,-0.2931248133973218,0.08170214649420814,-2.106897424404882,-9.906158951701316,-0.20888688831391983,0.15850582551053227,-1.6627570463603598,0.01666666753590107
500,8950.0,0.062494052804564125,-0.1691581689235754,-0.3229257668938488,0.07885901033153059,-2.1104887816940434,-9.935488196032866,0.442747029306669,-0.33880838548816194,-1.7951335829946116,0.01666666753590107
501,8966.0,0.06650248472832608,-0.18592032049102708,-0.25253716601375487,0.08230067407636088,-2.1284454037430693,-9.864858772134221,-0.42294201535414433,-0.842920742464708,-1.1732252222710868,0.01666666753590107
502,8983.0,0.026779587248200547,-0.2192579602137208,-0.3444791713258251,0.039953247053723315,-2.162862070874125,-9.956586842434666,-0.4955154966890272,-0.9850325931829024,-0.6170296846654316,0.01666666753590107
503,8999.0,0.03799679977330379,-0.23151408733250572,-0.3511604026554152,0.05117606162748416,-2.177077515367139,-9.96287176792305,-0.7141381126334995,-0.3422721718514311,-0.5518731484389479,0.01666666753590107
504,9016.0,0.050252205372881144,-0.20737581750648096,-0.33543734834473576,0.06344634056920767,-2.156577163652051,-9.946411631509475,-0.3516007695146405,-0.8405401013738413,-0.40818256352712856,0.01666666753590107
505,9032.0,0.06290223631323315,-0.18932919735275208,-0.3535348401691764,0.07541734202012303,-2.1399674444336445,-9.964218615954742,-0.4959299504334295,-1.0549103375905988,0.008818756391684982,0.01666666753590107
506,9050.0,0.08696804369124583,-0.15483902659406884,-0.3318865605279803,0.09681551821612519,-2.1079449789627454,-9.942071739141642,0.084671694026106,-2.1237884120338735,0.2955113627722016,0.01666666753590107
507,9065.0,0.09770614919620565,-0.1607018542128615,-0.3081828461943194,0.10519523943887034,-2.115726061293017,-9.91798048679512,0.014319056370475343,-2.4826354519689424,-0.0509082613598413,0.01666666753590107
508,9083.0,0.10593145902948453,-0.15770228880438952,-0.2320796487933956,0.10848726358206331,-2.113780827243067,-9.84166510794824,-0.3489300855078862,-1.6267274783234251,-0.2657220529961463,0.01666666753590107
509,9099.0,0.08705444333306513,-0.18805462910598142,-0.19708317248038945,0.08843582482096025,-2.1478982191666027,-9.805901738915964,-0.7138369439797841,-0.6970601317483817,0.4226965821112735,0.01666666753590107
510,9116.0,0.06447763697037007,-0.178526885771472,-0.2185355642233044,0.066738371419561,-2.139368839219678,-9.827150132519378,-0.933301167296049,0.08929111638042958,0.6957161319466231,0.01666666753590107
511,9132.0,0.10261570381131023,-0.19491242257887498,-0.17175603992966934,0.10893617839122016,-2.158223250358645,-9.779864996791165,-1.4382469140730423,0.15757561244251472,0.4834409495360612,0.01666666753590107
512,9150.0,0.1068606387715321,-0.16718959053065627,-0.16185858649993315,0.11462239877175888,-2.130390528195165,-9.769988586149458,-1.5800755787449456,-0.4162718553819509,0.13749244170408392,0.01666666753590107
513,9166.0,0.11198176291123964,-0.18270634514689443,-0.16634804340628906,0.12030863741860666,-2.1437083114624023,-9.774926955867093,-2.0834888018269173,-1.2046908365602778,0.6240975964350726,0.01666666753590107
514,9183.0,0.05057587523614056,-0.16694862138163297,-0.2789749449538067,0.05686228200802288,-2.128445239346288,-9.887454488693363,-1.0024678249781236,-0.9107444675620818,1.2556539728872105,0.01666666753590107
515,9199.0,0.058915093772672116,-0.18280960459196938,-0.2670558129707351,0.06479307900304557,-2.142361518229637,-9.875932247073388,-1.9433452728893033,-0.12919014666473508,1.2457771991822548,0.01666666753590107
516,9216.0,-0.008053802320183604,-0.18426612354321403,-0.2866912366858683,-0.0020949110404384556,-2.142511192366015,-9.89583421277022,-1.945529652763238,0.5861400474223432,1.242587394118153,0.01666666753590107
517,9233.0,0.03934654301498085,-0.19214257427304982,-0.32826230561621483,0.04803367137770692,-2.147299760083109,-9.938031889166309,-2.2338586180559217,0.5130187102108311,1.240956366288695,0.01666666753590107
518,9250.0,0.05799482342286501,-0.1860275254588574,-0.33385482839364555,0.06838438035163562,-2.140715486321971,-9.94371793544609,-1.4942686592540158,0.09115344349684892,1.5163476726329053,0.01666666753590107
519,9266.0,0.06731613463219255,-0.19896244688834994,-0.3077148633563891,0.07691374317389563,-2.1538837781159206,-9.917531208657659,-1.0579694085651181,-0.9788235243405377,1.732588473547747,0.01666666753590107
520,9282.0,0.06986526655915659,-0.22173549277577548,-0.3107340285144746,0.0746691648469452,-2.1782744883330536,-9.92022479512319,-0.6977620404073063,-0.9753339380048958,2.2910563297129007,0.01666666753590107
521,9299.0,0.05078430295558646,-0.26122971889944746,-0.3206536937760189,0.055066652168736616,-2.2209213332687505,-9.929502655349857,-0.40852554040908373,-1.116547352042969,2.3631551662613206,0.01666666753590107
522,9316.0,0.026136830081965306,-0.235160115684662,-0.19000444799950345,0.02483982110370125,-2.1969792436019517,-9.798419694331194,-1.5645572822289708,-0.9076468700517752,2.7019105644225623,0.01666666753590107
523,9332.0,0.030263785235304385,-0.18988418262070045,-0.19348841765774413,0.026934764681002706,-2.1504419123000464,-9.802160853620897,-2.359108919508323,-0.7689218860274081,2.7654061373811163,0.01666666753590107
524,9349.0,0.013453326130274217,-0.17275462251296267,-0.2193735494174063,0.005087673961254768,-2.1281460554703138,-9.829095786694436,-2.7181561693634375,-0.8445162853269936,1.9292575808393289,0.01666666753590107
525,9366.0,-0.026374141402600797,-0.12439589360333048,-0.26785507358964533,-0.03606264423979446,-2.077568481467431,-9.878027392721734,-1.493736864994107,0.09223564161411249,1.8639020619924156,0.01666666753590107
526,9382.0,0.07374681613366119,-0.10727394141331315,-0.3147089600274339,0.062249243164062495,-2.061257991790771,-9.924714105899072,0.0981986168730518,-0.9719867184247665,1.7404409499374403,0.01666666753590107
527,9399.0,0.02364822357004741,-0.07522790783715899,-0.2699438260298222,0.010474637971405172,-2.0290858476169173,-9.879972352777049,-0.47998140536059686,-0.7606665351983899,1.7355728393282195,0.01666666753590107
528,9416.0,-0.008800231065091793,-0.1302052740018349,-0.2721146124639548,-0.023193832578518776,-2.0829553986701645,-9.882366426573041,-1.5650930251919937,0.09105806097230676,1.5159040305019718,0.01666666753590107
529,9432.0,-0.049091185069759374,-0.16339909394020213,-0.2604420573867857,-0.06539162142657441,-2.1131821854964827,-9.871293590954691,-2.2015413645545947,-0.05659416706025213,0.5333233151485453,0.01666666753590107
530,9449.0,-0.014998110170150175,-0.16687880754843354,-0.2269690460477024,-0.03187279247616534,-2.113930428314209,-9.838372952801361,-2.6338754769868884,-0.13127716966257066,0.252710302503434,0.01666666753590107
531,9466.0,0.007529063205915736,-0.1397302682568319,-0.27004029040792954,-0.009427179311664076,-2.0837035044905727,-9.882067297495993,-0.902997752382818,0.023534640749842115,1.028341542049484,0.01666666753590107
532,9482.0,0.02903465443230234,-0.19498917760951442,-0.24869853769894687,0.012569559857464628,-2.1414637291396965,-9.860220517874323,-0.5435821525601986,0.5977520627024524,0.9587129928247872,0.01666666753590107
533,9499.0,0.028631327478552702,-0.2017189607885666,-0.23978145534237846,0.014814125055505428,-2.149992962956149,-9.850942785511817,-0.39833102950559013,0.7399876038776474,0.26401263807379194,0.01666666753590107
534,9516.0,0.05942533571659587,-0.21565977132497355,-0.24702170879421753,0.047285490779596144,-2.1657050209487787,-9.857825896089057,-0.6857142804024914,0.30935199407329195,0.33348355933904944,0.01666666753590107
535,9532.0,0.038857928380975494,-0.20373775326507165,-0.2602631754222326,0.02992751618537586,-2.152686585954297,-9.871293572688382,-1.696718774626073,0.3755167035738666,0.4653232324323677,0.01666666753590107
536,9549.0,0.08265769707830622,-0.24020830245232208,-0.22677940522711723,0.07556698419046005,-2.188599647389259,-9.837924368783645,-2.3453450211136895,0.156934441774393,0.3228776095793419,0.01666666753590107
537,9566.0,0.11114867308796383,-0.18322021295316515,-0.3369928706910461,0.10758943767409364,-2.1305401292663064,-9.948357029956206,-0.7579942770464753,0.025082430651370433,1.168277497269353,0.01666666753590107
538,9585.0,0.05914971081272233,-0.19870516592534257,-0.2859924042341299,0.05641336463016632,-2.149843471482862,-9.896582071995455,-0.10821793075629194,0.029035551043387415,1.2421684047012551,0.01666666753590107
539,9600.0,0.043639828895265236,-0.1983110155086033,-0.26246243903217836,0.04085106668264925,-2.150741260572802,-9.872789656465034,-0.9640812013472998,-0.18776531537823554,1.6501075360174962,0.01666666753590107
540,9616.0,-0.015901807269424896,-0.18613372577968984,-0.1976166583025828,-0.021398180191757273,-2.136825018222071,-9.80829575791303,-2.551678846080839,-0.19734577626708913,1.430878420619068,0.01666666753590107
541,9632.0,-0.0067890442230185725,-0.17033068330166862,-0.21932470530699938,-0.013168106847570743,-2.1181202629531732,-9.830591833938472,-2.7670761186331845,-0.27129140525363055,0.9432171078670265,0.01666666753590107
542,9649.0,-0.027114424676157066,-0.13122383079407735,-0.2530788351424038,-0.03546411722846387,-2.072031880995165,-9.865756999615579,-2.114898920829102,-0.4845361276807904,-0.02447055842653902,0.01666666753590107
543,9666.0,0.005959208656864939,-0.0981601035087835,-0.1591014515452087,-0.002693476296853623,-2.0367174521736335,-9.772233205004781,-1.8266333482296526,-0.1972515543410973,-0.232301643902583,0.01666666753590107
544,9682.0,-0.06437905826698988,-0.09852165769701823,-0.1584854933376424,-0.07257423554019769,-2.0340238565749487,-9.772233332868945,-1.469198983514013,1.1628800469994562,-0.6529394042267737,0.01666666753590107
545,9699.0,-0.09401543231895193,-0.12583329686215147,-0.15020668148514812,-0.10070610618867794,-2.059612032948341,-9.764302311540813,-2.1920138909926616,1.6585963939387642,-1.0075570629617234,0.01666666753590107
546,9716.0,-0.11434830024633556,-0.1451326844227966,-0.1728547218865715,-0.11566987526969241,-2.0709844269020015,-9.788543758613523,-3.4908215326645418,2.505069635184672,-2.8272238316813745,0.01666666753590107
547,9733.0,-0.04534621268804185,-0.14535849253530614,-0.29491399836903437,-0.04219780140614311,-2.0672435233406254,-9.91139623130029,-2.1143557073466743,1.2955877410867478,-3.298990974069679,0.01666666753590107
548,9749.0,0.03777345304593909,-0.11931500100931151,-0.3234380637975409,0.04384382246818859,-2.0394108103103004,-9.940276270559616,-1.3899177761665016,0.44167215496646467,-3.151258891520769,0.01666666753590107
549,9766.0,-0.051845831239875406,-0.15499719456415623,-0.2681499831493012,-0.043993460071948355,-2.073977151577733,-9.885209723707566,-1.6762326894276776,-0.13294136126210013,-3.428641198008038,0.01666666753590107
550,9782.0,-0.11213931895997374,-0.1960680040884763,-0.24126360192522406,-0.10579378814144293,-2.110039777551219,-9.859322290392965,-3.2509098574073745,-0.3565872878564258,-4.415130329031445,0.01666666753590107
551,9799.0,-0.13494684250573627,-0.19799942880878224,-0.26994037369741125,-0.12928688622350454,-2.10869305738369,-9.888651388594042,-3.322247981636984,-0.2868765095574245,-4.971938876115109,0.01666666753590107
552,9816.0,-0.18339966117329895,-0.18405280958609654,-0.22868337568491695,-0.18061261285421204,-2.089689154771436,-9.848399183709919,-4.2574601077967555,-0.9376523179624644,-5.600893003854326,0.01666666753590107
553,9833.0,-0.1913282622154802,-0.1411751241697464,-0.3387500896219164,-0.18989012530748076,-2.0328267831443343,-9.961225425488129,-2.8166524063934872,0.4990116464095746,-6.43149096447842,0.01666666753590107
554,9849.0,-0.1655732961741276,-0.1197096720158588,-0.41293855770900845,-0.16310497582546812,-2.007388481836719,-10.036194230297951,-2.5287520354712223,0.9290900355076187,-6.709437401902449,0.01666666753590107
555,9866.0,-0.19973772384347394,-0.14917930206563323,-0.281312685452681,-0.19856909811997864,-2.0248960175445303,-9.90690703012226,-4.974654730083835,-0.7347621356366174,-8.525684593725451,0.01666666753590107
556,9882.0,-0.2822811651586555,-0.13712097167442552,-0.3105691202763468,-0.27967268028535763,-1.9978116751960944,-9.939079060131684,-5.618087151316186,-1.67293349461515,-10.402515563486466,0.01666666753590107
557,9899.0,-0.3082646061936393,-0.16567270142799242,-0.32750871076993643,-0.31154550444215273,-2.0187608209914525,-9.957484631524608,-4.964659602007169,-2.315399123914826,-11.298711514673009,0.01666666753590107
558,9916.0,-0.25064510518945754,-0.1902848723760806,-0.3493730077819899,-0.26844987370310697,-2.0340240027054213,-9.981127628646977,-2.8657680832716377,-3.450505060428072,-12.182853889521773,0.01666666753590107
559,9933.0,-0.228139277137164,-0.2647890553488396,-0.2379502213272266,-0.2518400894109742,-2.1071966448134742,-9.869946834254543,-3.154227249045374,-3.310073382884848,-12.532917306184205,0.01666666753590107
560,9949.0,-0.20444805695889517,-0.3433407418804243,-0.12959980978881938,-0.24390929412841794,-2.1736358687469735,-9.763853846254106,-6.170587556580864,-4.470463399045012,-13.10600518226777,0.01666666753590107
561,9966.0,-0.24923525665784252,-0.38312699148692186,-0.13898251862945035,-0.29747954257468223,-2.2074540037292985,-9.774328441984672,-7.322522011991964,-4.766033005188143,-14.224542573958447,0.01666666753590107
562,9982.0,-0.23149386652838438,-0.4497307035334408,-0.25609321452751754,-0.29134440538710915,-2.2607247714720664,-9.893888869122415,-6.894640969455107,-2.4769941426013347,-15.135318417702027,0.01666666753590107
563,9999.0,-0.176078013048321,-0.3915752690216526,-0.3376954660024494,-0.23478139116591773,-2.192490133755468,-9.977386725085601,-5.308352586608095,-2.109257398018083,-14.709155594628253,0.01666666753590107
564,10016.0,0.07554159059594386,-0.32534064601585266,-0.33329576973877845,0.0143652099609375,-2.1178210060119627,-9.974543610614164,-5.735100671516375,-4.755067990249334,-13.3101714893905,0.01666666753590107
565,10033.0,0.03125182587498566,-0.2698995302303694,-0.3608559768375009,-0.0371101280157105,-2.0525790655716323,-10.003872580951079,-7.172310784217751,-6.694818235757683,-13.380814428428648,0.01666666753590107
566,10050.0,0.07660141098033636,-0.24195036034667863,-0.39443369066007433,-0.0004489219444338232,-2.0132244123154317,-10.03948618451543,-8.175079030797649,-8.562931322816823,-14.421891498515857,0.01666666753590107
567,10067.0,-0.01443443242238136,-0.22538404187858102,-0.3513105517158285,-0.11581950759334722,-1.973121297045797,-10.000430733401513,-7.370060982388899,-9.641498447484585,-18.581927495538842,0.01666666753590107
568,10083.0,0.0056758525376848406,-0.22207685355935244,-0.4101691660609096,-0.1065419658854429,-1.9611504714081063,-10.06073487037979,-5.9990345489713,-9.276679260893985,-18.852266382887947,0.01666666753590107
569,10099.0,0.032471277817478404,-0.10350176593083887,-0.5082495645301416,-0.09352350234985352,-1.8236335135528816,-10.162039491592534,-5.941892759488151,-5.694535751148846,-16.782691743617402,0.01666666753590107
