,ms,accelX,accelY,accelZ,accelWithGX,accelWithGY,accelWithGZ,rotRateAlpha,rotRateBeta,rotRateGamma,interval
0,14.0,0.03211714660058496,-0.35381044224016367,-0.32342754240352656,0.945260968996014,-5.477484412560984,-8.635137090566941,-5.806881690824978,-3.458554865251755,0.39649133406090303,0.01666666753590107
1,198.0,0.013654384535661665,-0.20889535522395744,-0.3285434971777722,0.6337152051151904,-3.412186077604536,-9.576507475015335,-6.254165593246549,-0.5418325569156175,-5.407328430983926,0.01666666753590107
2,211.0,0.01650137603119365,-0.1570282985329628,-0.3345634150544181,0.6380547732560371,-3.348440659332275,-9.586533121402002,-6.466155882063527,-1.4039846574838486,-6.447504769874338,0.01666666753590107
3,227.0,-0.015121557311661307,-0.27132240264033897,-0.20191981712291016,0.611419272936933,-3.4424132754228074,-9.46053845996568,-4.667098995720978,0.038489716798608575,-5.816172455643488,0.01666666753590107
4,244.0,0.059998025604593566,-0.3374138725820929,-0.2492529932439327,0.6901286239734618,-3.501370363439992,-9.510068269348144,-3.440246543181536,0.04599700183095173,-5.5993600532724805,0.01666666753590107
5,261.0,0.20089860258270054,-0.2789011855978519,-0.27596721450518813,0.8346785172393545,-3.433584528936818,-9.539696332229488,-3.365356934026931,-0.9541961033492931,-5.246813435959925,0.01666666753590107
6,277.0,0.16023619119618088,-0.27313505981918423,-0.22871897672126068,0.794874987704493,-3.420715585415624,-9.494805471226666,-3.9414942761314964,-1.3866904050619646,-5.2487950445928755,0.01666666753590107
7,294.0,0.11501284683598205,-0.26155434774393216,-0.1278100494283717,0.7457937988723627,-3.387645802848879,-9.401431615613726,-5.016559221302333,-3.896195180895502,-5.105892546117399,0.01666666753590107
8,310.0,0.3180094628775492,-0.27365100998468694,-0.07150259000398218,0.9368810006072744,-3.381959555639699,-9.351901102978363,-4.294528398196061,-4.9605414248244735,-3.2196009105822707,0.01666666753590107
9,326.0,0.3185946058217436,-0.329387327590771,-0.028958164263144133,0.9311948081970214,-3.432537175308354,-9.311498949963227,-2.3507114153672037,-4.0162968003741835,-1.8900108869816123,0.01666666753590107
10,344.0,0.2900903228059411,-0.3436349755866453,0.004675758417317411,0.8988730857849121,-3.442712167037837,-9.27947655413263,-0.9922521031356059,-0.3582617247397103,-1.0630303652966862,0.01666666753590107
11,360.0,0.20204656704142687,-0.28348372761514035,0.060519615493016314,0.8119336380004882,-3.380463070004247,-9.224260473566455,-1.1368901099905,0.13980039197310032,-1.830791652773721,0.01666666753590107
12,377.0,0.08338880609814077,-0.11204808787941001,-0.003676914968297933,0.7112274941375478,-3.2246902788245584,-9.28202083350043,-1.781030843184122,-0.7223326854510751,-2.387662098446738,0.01666666753590107
13,395.0,0.07476783887762575,-0.11646623311522417,-0.006629033639005502,0.7142203192779794,-3.2426468278083482,-9.279626330446176,-1.9226658079600318,-1.222412722857228,-2.1781155232487435,0.01666666753590107
14,410.0,0.04681837216641288,-0.16875459309136495,-0.01893053826523246,0.6922235504260985,-3.3039981996840795,-9.288455190525774,-2.287516584175542,-0.005740298752299659,-1.2825091027649371,0.01666666753590107
15,427.0,0.025958057715266474,-0.12048781678150407,-0.14899962551663629,0.6820482230531866,-3.2655414542488286,-9.414450160206062,-3.3670335320247577,0.12971230929069727,-2.194116308596556,0.01666666753590107
16,443.0,-0.025802141067769842,-0.110840630052099,-0.1870108191414736,0.6281787039659801,-3.2523733999168964,-9.4538045851334,-3.869532683696711,-0.019309344990022726,-3.30878311746195,0.01666666753590107
17,460.0,0.00174223399299226,-0.12727807970982977,-0.29064083282817155,0.65451487228076,-3.2609025606681126,-9.560197049270757,-1.848361247196521,0.06346428348844037,-3.156168516873539,0.01666666753590107
18,476.0,0.070459346295055,-0.1553520724164322,-0.3695300259521231,0.7242460569961927,-3.2866402193816375,-9.639804035275242,-0.9077331011900467,-0.646344056170333,-3.077112705768638,0.01666666753590107
19,493.0,0.07092415992836468,-0.1446620438368991,-0.32250176932811736,0.7258920432380865,-3.2764648623259736,-9.592518589019775,0.8963134517846084,-0.4214447631828835,-3.0658670127436234,0.01666666753590107
20,510.0,0.04200231365419459,-0.071573312586057,-0.15915336439553648,0.70284785682566,-3.2067339170704363,-9.427617693948186,0.3196688347320375,-0.8521862675998007,-2.651054469966528,0.01666666753590107
21,527.0,0.01856784585761488,-0.10498452443503774,-0.07827569173495284,0.6793547176444029,-3.2390552878560963,-9.347112946253223,-0.6888610766191632,-1.2169628722297923,-3.212318434823156,0.01666666753590107
22,544.0,0.010507011579268146,-0.1346267254395876,0.04169932125278283,0.6715735770902712,-3.2616507852195293,-9.229497648134151,-2.3525877963982533,-0.43839841328076584,-2.740547237010032,0.01666666753590107
23,561.0,0.04511199294021353,-0.14382439656951465,0.0032425478472461688,0.7067384573563001,-3.266289770131791,-9.269450797577287,-2.5699188662593584,-0.5810223147432996,-2.0463334265156945,0.01666666753590107
24,577.0,0.02217518959213048,-0.15688825074145568,-0.11386239815922454,0.6871358399322256,-3.28334824689785,-9.384971104740817,-3.57551865313705,-1.2294661738357353,-1.980864142330418,0.01666666753590107
25,593.0,0.030967092932760714,-0.16116534353876485,-0.12170905653899534,0.6961141326904297,-3.282450275144819,-9.39454794791406,-4.44028420819731,-1.234319663571264,-2.056212654819883,0.01666666753590107
26,611.0,0.071494899887871,-0.21451798087870702,-0.29951590267391875,0.7317278641189449,-3.322253987342771,-9.577255425572115,-2.9203410812966277,-2.6554925988231557,-1.6920310236996228,0.01666666753590107
27,627.0,0.08749954761890694,-0.22856248925160616,-0.31577275333404536,0.7441477852310053,-3.3319803402556105,-9.59521206588745,-2.200187066108228,-2.221670145482034,-1.4805595090944481,0.01666666753590107
28,643.0,0.016876004330132855,-0.2255763130476698,-0.3050189388033002,0.6675333309643611,-3.322254042141698,-9.587131854480132,-1.9832376330669974,-2.71948805625159,-0.7818138147249543,0.01666666753590107
29,660.0,0.07155738436456303,-0.20480708126332609,-0.27352749320287256,0.7134720901599851,-3.292326521389745,-9.559298931387252,-4.073401877590545,-3.7330684922876185,-0.8609916087395635,0.01666666753590107
30,677.0,0.06156561741461046,-0.19096916484581306,-0.233543364670407,0.697460843724804,-3.2706288313825613,-9.522338534590135,-4.652335541829995,-3.5207576114664727,-0.4488364364364263,0.01666666753590107
31,694.0,0.05261905780180823,-0.27743410871997476,-0.328548282950744,0.676661276167701,-3.3445499355040487,-9.622296691363676,-2.9935525983495253,-3.4379022941923405,0.3266151904787934,0.01666666753590107
32,710.0,0.016614532390842214,-0.14348515467778777,-0.43019459374062713,0.6217442162223625,-3.2008979180930646,-9.728389460168406,-2.5518438378379775,-5.726553970430574,-0.3550564183478438,0.01666666753590107
33,727.0,0.005441269176141941,-0.12142342626433819,-0.34119010318517684,0.597951856061691,-3.174112668289058,-9.641749360656737,-2.8372249361735657,-6.231762572768907,-1.327646087729849,0.01666666753590107
34,743.0,0.026877154454716945,-0.1330930130662862,-0.1222822350507602,0.5995978759820922,-3.1850364051597655,-9.424326178122126,-3.628582819685702,-6.023071265321045,-1.8898190013546174,0.01666666753590107
35,759.0,0.03634169407661538,-0.13687224847720936,-0.03241641724152723,0.5997475113025633,-3.180248010972608,-9.337835389703942,-5.143948652625418,-6.032562240059601,-2.24759178059929,0.01666666753590107
36,777.0,0.054728990027331746,-0.1693516456690617,0.12950877050450071,0.6019920662258053,-3.187131486876029,-9.18520526904771,-7.7501951606459585,-4.256713909629932,-1.3001278958941023,0.01666666753590107
37,794.0,0.08733910549334249,-0.2640144359808415,0.06437744626521598,0.6284779266578611,-3.2691326562743632,-9.25478655843318,-7.033978536070659,-3.390167169300179,0.36900054302311575,0.01666666753590107
38,810.0,0.19042848209785296,-0.30853644540496167,-0.22800238941712303,0.7142202644790522,-3.292476268591359,-9.554959824470709,-5.588742524207696,-4.594634957495374,1.7742891263082021,0.01666666753590107
39,827.0,0.10252158665391616,-0.2246313786140643,-0.3973617069359869,0.6124667395881842,-3.197755793275591,-9.728539390033111,-1.1878174945459958,-3.1415252316232665,0.6856052108191827,0.01666666753590107
40,843.0,0.09560675663100555,-0.18991236753556875,-0.626967385097593,0.6082768410171382,-3.1622918090486896,-9.958232746478169,0.18405244055367248,-3.0618374145767278,0.3466765499686051,0.01666666753590107
41,860.0,0.10865723986472002,-0.13143225851352325,-0.5386926701214164,0.6142623543006833,-3.1102177676766645,-9.868300911944731,2.9989843062869777,-2.1906606597633527,-1.4456424081185795,0.01666666753590107
42,877.0,0.11479687513089738,-0.20533963550375772,-0.4030456343239173,0.6183026061348151,-3.188926991990674,-9.731232903433405,2.779868422618384,-1.5474264207386383,-1.171976044704915,0.01666666753590107
43,894.0,0.13986211447557434,-0.2554082279380411,-0.2876971075264737,0.6495768196548335,-3.2580597658570856,-9.609427747842483,2.203671102915169,-1.5454715992538395,0.00511822418252454,0.01666666753590107
44,910.0,0.16862996206469832,-0.20512137137688696,-0.25203829484721646,0.6908768165588378,-3.2327708646912128,-9.564985324726905,1.2024613134047974,-3.260764326275822,0.8386188972263636,0.01666666753590107
45,927.0,0.14115610894202255,-0.20167590709812938,-0.27015883875368163,0.6639420752815436,-3.2380081808228045,-9.580248141114692,0.7744907847176428,-4.120080244152057,0.630472350725663,0.01666666753590107
46,943.0,0.09171127442927099,-0.18349362306706607,-0.0991192765302956,0.6015431762474123,-3.2210989854674783,-9.409511945752055,0.41154520439374337,-3.1935516363048997,0.06783511096935929,0.01666666753590107
47,960.0,0.149482120937109,-0.19861947866957633,-0.11522223353665322,0.6510732139587402,-3.236960461868159,-9.42582240802925,0.1923528946435966,-2.9063048291088402,1.0381415828479827,0.01666666753590107
48,977.0,0.16285020961947738,-0.22223604444274678,-0.11938613914991729,0.6688800888061524,-3.272574339427147,-9.425822179700386,0.05003362695516274,-2.8308453260453623,1.8006756411758422,0.01666666753590107
49,994.0,0.14651622946937568,-0.2539877301482484,-0.013344676982384408,0.639401489998633,-3.3011552861420435,-9.321524930851679,-1.757140975901533,-2.8377879998932687,3.1785442165945006,0.01666666753590107
50,1010.0,0.12813564638723618,-0.22283682334749028,0.007453788317131693,0.615758712071972,-3.266738363282662,-9.30207203494222,-2.122237959092281,-1.6946452786044452,3.4489911063098564,0.01666666753590107
51,1028.0,0.11549201778820715,-0.17696286959145216,-0.10912805398055352,0.5928641769630368,-3.2110730833524834,-9.422380788808548,-3.3474424150510456,-1.9892923823228021,2.816437895764867,0.01666666753590107
52,1043.0,0.10566661581452935,-0.12861903685685247,-0.3270710865376517,0.575206948852539,-3.1545102883270006,-9.643395483895949,-3.1269986999191186,-2.7055704786006314,1.9175581071213317,0.01666666753590107
53,1061.0,0.10476536525902337,-0.15980311527485028,-0.485705212832056,0.5609913856285158,-3.1799485165693797,-9.80455532927569,-0.8854826393908194,-3.3387798141927654,1.0320294173144675,0.01666666753590107
54,1077.0,0.09006567177986725,-0.157934307461977,-0.4758294597774744,0.5457283226455562,-3.1777041534423827,-9.794828629302978,-0.23522864676619792,-3.19176532839353,0.5488221349532149,0.01666666753590107
55,1094.0,0.08926746147372759,-0.17343765460737048,-0.4036233246140182,0.5443816116111818,-3.1958100843016055,-9.72180533253774,-0.3781783162356295,-3.191863939249672,0.2694248959803659,0.01666666753590107
56,1110.0,0.13031854338427074,-0.21363266767784952,-0.26033730010436845,0.5752069579856935,-3.2368108607970174,-9.578751947740185,-1.3850734644976699,-4.124707270427918,0.6832586139524602,0.01666666753590107
57,1128.0,0.15598434243798254,-0.25379306609267366,-0.21714999161642043,0.5856815445831045,-3.272424555692915,-9.537751335641556,-1.0248896284759828,-3.6942871050671093,0.3362585104523522,0.01666666753590107
58,1144.0,0.1354292465946637,-0.254233685999643,-0.21105741036236286,0.5602432067428715,-3.271377275129687,-9.53236427230835,-0.7821735202342907,-2.2849187644134097,0.05851929323041725,0.01666666753590107
59,1160.0,0.14703597902716137,-0.24141155902855096,-0.16639064043899998,0.563984101171093,-3.253869912951812,-9.489567972431983,-2.0080952527776126,-2.507361377094623,-0.2963392297243747,0.01666666753590107
60,1177.0,0.15945640246272086,-0.23338874036427587,-0.1797009345195256,0.5738602104187012,-3.2433950249603014,-9.503783690919633,-2.801170928866007,-2.940588963647719,-0.09127636022148271,0.01666666753590107
61,1194.0,0.2016209437741898,-0.3117648328669369,-0.21736217306237668,0.6006453232253901,-3.307439809771627,-9.546729591867141,-4.890709570750263,-5.02330659442866,1.4329392167577077,0.01666666753590107
62,1210.0,0.18041237072451038,-0.23666328678922727,-0.29329001389639453,0.5749076553787105,-3.2275334937606934,-9.62439112462597,-4.669968955832853,-5.738087171730964,0.811892687169221,0.01666666753590107
63,1227.0,0.15643689024476334,-0.17439817020259796,-0.3093030093306675,0.5541080284561031,-3.1643863336425273,-9.640552004098334,-3.443025576400085,-5.159861712731078,0.12240317978556382,0.01666666753590107
64,1243.0,0.15784237312851473,-0.1406267421725206,-0.2864440387254581,0.5632359588180669,-3.129221697688382,-9.617807599783502,-1.4962397024380933,-4.00438196225392,-0.4259360127685636,0.01666666753590107
65,1261.0,0.1567789816807024,-0.1582836871552281,-0.20421532591525465,0.5666775871719233,-3.1488242237809114,-9.534758218240178,-1.4311262284198925,-1.7141655323655185,-0.3663616620846843,0.01666666753590107
66,1277.0,0.16620112748257815,-0.18374321391396223,-0.16028854243792592,0.5735609352111816,-3.171568938622996,-9.491812262493744,-1.576329006541782,-1.5714195946324239,-0.15946776160559337,0.01666666753590107
67,1294.0,0.19320112514896318,-0.23905553395431486,-0.08559011553470044,0.595707318833936,-3.218555036605708,-9.419986176156439,-3.167439182777706,-1.0779045963182698,0.5920887153026011,0.01666666753590107
68,1310.0,0.1626925896386616,-0.24990089922603217,-0.026499324985116254,0.5859808380569331,-3.251325817959569,-9.352948810516565,-4.178425000702776,-0.8652886515011478,1.5570345759101423,0.01666666753590107
69,1327.0,0.12742596374792045,-0.2459828124668449,-0.029734505230770446,0.5560533447044436,-3.248333029351756,-9.35564213897048,-4.97496934567248,-0.010089403363512097,1.8952432387726654,0.01666666753590107
70,1343.0,0.08865144846723415,-0.21729621342038735,-0.2725676717273891,0.5210381454246584,-3.214365567292925,-9.60000032307729,-4.324245270614317,0.20683635079924828,1.2035824249240317,0.01666666753590107
71,1361.0,0.03496943075916497,-0.19319796507749706,-0.5354322800859809,0.47150809629688734,-3.185784620578028,-9.864110547582804,-0.4970788629570197,0.7974139134284105,-0.30221417958636415,0.01666666753590107
72,1377.0,0.04948002455714159,-0.20395731429988517,-0.6486446716375649,0.488117890863819,-3.197905321281496,-9.976788101605326,1.3099736135826756,0.23484700994632346,-0.5654802192869355,0.01666666753590107
73,1393.0,0.054576653576409444,-0.23010036634337155,-0.57334480824247,0.49200846856157293,-3.231573508132808,-9.899126185254007,1.9642706246286952,-1.1209116294791956,-0.6940049561161232,0.01666666753590107
74,1410.0,0.07303382272582966,-0.2106136121176183,-0.49640989099144933,0.507121843708423,-3.214365512493998,-9.821613760375977,1.103659638852801,-2.6292277467001064,-1.1796617150684718,0.01666666753590107
75,1427.0,0.09514845493687316,-0.2333286259411834,-0.329502040011622,0.5198410537277348,-3.2405520018204115,-9.654019680697656,1.3221655012511484,-3.271622832952261,-1.1058091207289453,0.01666666753590107
76,1444.0,0.039711376005690545,-0.2504113694988191,-0.2652388997418806,0.45789108577119186,-3.2638952670775354,-9.58802927824389,1.8212191426519482,-1.1947794850226487,-1.3201950983973056,0.01666666753590107
77,1460.0,-0.028256400068802756,-0.25197452716231344,-0.1958628369051963,0.38890810477216725,-3.268085266113281,-9.517849497808887,1.3877476970011415,-1.0543528233995965,-1.3932694780582737,0.01666666753590107
78,1477.0,0.04864593008686788,-0.20274455924294887,-0.16103433757023886,0.46941317212753925,-3.239205427783355,-9.476249896903802,-0.8458429962124158,-1.640340365504378,-1.9618597812950922,0.01666666753590107
79,1494.0,0.0647181677279761,-0.1998726388021372,-0.24998492424767463,0.483778386655054,-3.2386067129715346,-9.564536466714554,-1.7751035196450202,-3.6516142175669852,-3.2798384833067287,0.01666666753590107
80,1511.0,0.08942988549382426,-0.1454878271365538,-0.43941579187661406,0.49081131293256763,-3.1778538275787604,-9.756820385687053,-1.2521084643777391,-8.373446507315037,-4.714851409529476,0.01666666753590107
81,1527.0,0.0930056524882093,-0.14981189174759202,-0.4513792379254475,0.4782417816162109,-3.1796492504950145,-9.77028780655805,-1.3138762129196917,-11.593020950914275,-4.770423963050815,0.01666666753590107
82,1544.0,0.12163569904183968,-0.19644195196740327,-0.3450912753421813,0.4607342002426274,-3.216909132562205,-9.668833840002492,-3.5387449146457013,-15.896776934679021,-4.349311637981441,0.01666666753590107
83,1560.0,0.14346349083525128,-0.2329693641747348,-0.27163437293265014,0.4568435768791008,-3.246088227833342,-9.598653767306544,-4.191210687942217,-15.683032994792644,-3.173103330590351,0.01666666753590107
84,1577.0,0.22485795391155405,-0.35050434989947826,-0.1750421489282511,0.503680155989062,-3.354725329092331,-9.506028108845557,-2.684924097400152,-13.025973294441792,-2.47966752133116,0.01666666753590107
85,1594.0,0.1580593220811337,-0.29432059905314817,-0.349461087924242,0.40028059005737304,-3.2992099790268576,-9.681253688049315,1.7857791053177503,-10.85695195462951,-3.501563926125091,0.01666666753590107
86,1612.0,0.09653010028731078,-0.14464002380133606,-0.24331929234601557,0.3113958534240722,-3.1579517796835392,-9.573065481335297,2.4267548996047177,-7.707629421738439,-4.275810264775641,0.01666666753590107
87,1628.0,0.09959552487307227,-0.1756091716938652,-0.11301492361756972,0.3060088905555662,-3.191919817131106,-9.441983113971679,1.6256534310764406,-5.70839249742751,-3.9426344908360655,0.01666666753590107
88,1644.0,0.17097561187539248,-0.3013913228906691,0.11771943891355767,0.39160162730561565,-3.3548752224244174,-9.198821816065815,-2.000290694433815,-1.358080343454368,-1.345605429822163,0.01666666753590107
89,1661.0,0.19693411939851937,-0.3345361251886934,0.061106457203952594,0.43948564224243164,-3.422361854785308,-9.243563742717773,-2.650684785977701,-0.8586897816284164,-0.7964481353519413,0.01666666753590107
90,1677.0,0.10590846174638718,-0.20890640634093433,-0.14866153440237975,0.3719990829467773,-3.3230020109647884,-9.443928530684719,-2.6553617580118676,0.7182795551480544,0.09980751328877326,0.01666666753590107
91,1695.0,0.0983546670996584,-0.13202655287855303,-0.2519422871268354,0.3761889175857417,-3.2447415167989675,-9.54732794135278,-1.2878157328632138,2.014253308644614,0.17268975385869512,0.01666666753590107
92,1711.0,0.05037360326284542,-0.13386448149597271,-0.2867341259795241,0.33623569564819333,-3.2438441752335985,-9.582791980378609,-0.7852979582536013,2.5907458205860197,0.7295745002402869,0.01666666753590107
93,1728.0,0.10568004155168309,-0.13857596538886427,-0.33882647932637483,0.3945943611145019,-3.246986217852682,-9.635315126358158,-0.9272963637985498,1.732026903931925,0.9409546077044597,0.01666666753590107
94,1744.0,0.1721158314190805,-0.16379733601016921,-0.3559219545014202,0.4616319893325679,-3.264194670149218,-9.65506725352183,-3.016117622376543,0.1468523355075137,1.142355328543568,0.01666666753590107
95,1761.0,0.1202353489909321,-0.17303654472688212,-0.23302997178817167,0.4191349281311035,-3.271975789012108,-9.53236407137895,-3.7375414124203306,0.0008662605548198946,1.415994051035435,0.01666666753590107
96,1777.0,0.06945485456078312,-0.18419943324886262,-0.24009503306988625,0.37334581224746066,-3.2840967089112847,-9.538948071145452,-3.738838294588987,0.5020295761665153,1.4831898789768436,0.01666666753590107
97,1794.0,0.0849469679261092,-0.1881636789710261,-0.3327344825942069,0.397437484719092,-3.280954045237694,-9.633669003118946,-2.301875349358201,2.3008202985748456,2.3189435652072397,0.01666666753590107
98,1810.0,0.11362106368402018,-0.19357410491351038,-0.4463450431505218,0.4273650146041997,-3.2849943518707527,-9.74769282065127,-1.6520645986581164,2.2331627925342263,2.393162535162714,0.01666666753590107
99,1827.0,0.04796390720603522,-0.12514850206892006,-0.5551176256237551,0.36960485845373475,-3.214814014313323,-9.856778706857375,0.1612543229810145,0.16667957425526736,1.3024702238925936,0.01666666753590107
100,1844.0,0.039349776151683176,-0.08550700382851063,-0.5092615911168977,0.3606266433273442,-3.1754595163207497,-9.810839670242183,0.16162059187525643,0.16617600788653758,1.0939588492406789,0.01666666753590107
101,1861.0,0.01384610086561297,-0.10638081936533562,-0.3543323106897995,0.33429042620726973,-3.1971572154610883,-9.655665475143305,0.30552628772529145,0.23886892415040317,1.2336225573890998,0.01666666753590107
102,1878.0,0.017719845017930492,-0.1285556618975941,-0.297568951590918,0.33848025057143527,-3.221847255684668,-9.598055143826269,0.37740786556116673,0.2399939843727512,1.51214678612823,0.01666666753590107
103,1894.0,-0.03524079961302923,-0.10681259837872348,-0.28262391418172045,0.27982230761431853,-3.2020950737220697,-9.582642488905321,-0.2692120395381848,-0.26652438678021123,0.7455589038062622,0.01666666753590107
104,1911.0,-0.05141815757944714,-0.04892328572352417,-0.2771113978379406,0.2630629119762452,-3.1429879097097086,-9.577554919975343,-0.9172221549378984,-0.3437796159455941,-0.09256058919789717,0.01666666753590107
105,1927.0,-0.08195128410831093,-0.09050847451076842,-0.24843111893441527,0.2337339370727539,-3.179649670620123,-9.550470385830662,-1.7123577733912865,0.43653953460946454,-0.9355017688692624,0.01666666753590107
106,1944.0,0.001367464843685593,-0.1752892555571161,-0.3006174707076512,0.31932665883872174,-3.256413733949419,-9.605237986268754,-2.2903758721168384,0.3627175693994974,-0.5220649756013958,0.01666666753590107
107,1960.0,0.020416376925795336,-0.16596927322177216,-0.3322240853866562,0.338779512079223,-3.244891273133736,-9.637559471218847,-2.5067150704444106,0.2899484138170642,-0.5232093524524902,0.01666666753590107
108,1977.0,0.07610969107379205,-0.20371515784077346,-0.4159558231709525,0.39384618222885764,-3.2761656236510723,-9.723451601907424,-1.4211436935045072,-0.6334677088418309,-0.37271189706337143,0.01666666753590107
109,1994.0,0.08741082815583795,-0.2123333303160034,-0.42940073994919653,0.4037222549438476,-3.2830492274186573,-9.737517280932515,-0.9152691477220979,-0.9162131012097349,-0.15950081865395918,0.01666666753590107
110,2010.0,0.14930816174284553,-0.20345889979107304,-0.37752639500088986,0.46208089301069266,-3.2728736511672847,-9.686191802038625,-0.12182744286329934,-1.0532370479656514,0.47204525915357093,0.01666666753590107
111,2027.0,0.17173912532748653,-0.19741443199506029,-0.3120476318636909,0.47973817592011764,-3.266140032063331,-9.621099407870508,-0.4119121936594993,-0.9818410805715081,1.0953055704459351,0.01666666753590107
112,2044.0,0.1163892040899489,-0.16459115326898172,-0.20684192982548846,0.42167875826186496,-3.2303766082321292,-9.516951690452638,-1.5684064139913902,-0.41667086115944124,0.8764182846711249,0.01666666753590107
113,2060.0,0.07991356773562729,-0.1601422841013409,-0.15711387619087472,0.3851671920776367,-3.2221464669601056,-9.468469252964947,-2.364274250068145,0.36465542213307695,0.45049985430358885,0.01666666753590107
114,2077.0,0.07688505022730678,-0.1473190063527785,-0.250945750370156,0.3962403747558593,-3.209277596504148,-9.561842861982713,-2.3671087785737,1.2955321390780357,0.6547886779445545,0.01666666753590107
115,2094.0,0.07098475384206976,-0.15188096223976463,-0.32610406813640147,0.40087915417214387,-3.2146646050384264,-9.636362297323531,-2.295003752166345,1.5815591171770136,0.30637667295738447,0.01666666753590107
116,2111.0,0.009061677317385329,-0.1368677549651824,-0.4617905226288363,0.34506429486206613,-3.193416010505613,-9.773879474374466,-1.6405020488886368,0.4393346828055865,-0.3096656491665836,0.01666666753590107
117,2127.0,0.06430409333463757,-0.13950196679313667,-0.4558637263957411,0.40716391983032224,-3.1890765839286614,-9.769988567883148,-0.05034099213791992,-0.05293196503561542,-0.6442932385111837,0.01666666753590107
118,2144.0,0.1303754064043518,-0.1815683358266018,-0.4288683501055464,0.47315409395522434,-3.2314238157301207,-9.742904344265721,0.23742425909966614,-0.12113876769589166,0.053018296225486,0.01666666753590107
119,2160.0,0.13533145790915005,-0.2169981803218834,-0.2876177221473306,0.47659575884169897,-3.2665888718093745,-9.601796339648589,-0.5755972235516054,-0.13235244420917167,1.0225908429334505,0.01666666753590107
120,2178.0,0.13902980097043327,-0.22191389981629325,-0.19699507407182826,0.4798877861244138,-3.268982963871676,-9.512013649528566,-1.7319999033403624,0.2902549985973478,1.0128556889320666,0.01666666753590107
121,2194.0,0.09592141207074746,-0.23615648804455994,-0.1422981916492339,0.43604399562226603,-3.2748189582824705,-9.460089154428756,-2.597386898893388,-0.1432167138577232,1.2869341048517533,0.01666666753590107
122,2210.0,0.0886675502186641,-0.22216750925118103,-0.18282100276881827,0.42766427154541015,-3.2558150739365255,-9.502287205284182,-2.814320964008986,-0.14394914492450128,1.4939806173701118,0.01666666753590107
123,2227.0,0.08907159184175543,-0.21240272402409463,-0.23072465398786587,0.4412812843543943,-3.257909945590235,-9.545831492249947,-3.102782904547073,-0.2870713833921814,1.979127780177354,0.01666666753590107
124,2244.0,0.06308544282645452,-0.19357773990901186,-0.2287901970602572,0.4176385566600831,-3.2420481951949185,-9.542839050702005,-3.101946846703981,-0.43018801897030806,1.9102440417373059,0.01666666753590107
125,2261.0,0.005332104005021392,-0.1698017457904294,-0.3005592011817731,0.358830959545364,-3.212270330313034,-9.616610042295697,-1.8047970200097103,0.4349548240003158,1.6371728652767845,0.01666666753590107
126,2278.0,-0.05385217522676102,-0.13103158702445217,-0.3202952722597867,0.2964321021812502,-3.1733648547295945,-9.636512117590382,-1.4429160954226865,0.649499550206026,0.8046704558130202,0.01666666753590107
127,2295.0,-0.08390305749690159,-0.12712532770037652,-0.2984341718518175,0.2582745223556645,-3.1648356117799876,-9.616460696952883,-2.3782904385752457,0.35484983180587737,-0.3818314535853814,0.01666666753590107
128,2310.0,-0.04593376221845392,-0.1256677219037432,-0.3100373514872044,0.296731381955347,-3.159897178130271,-9.62917972887568,-1.8729804506164203,0.2865362007181139,-0.2390855158522866,0.01666666753590107
129,2327.0,0.006102199036595994,-0.21058334484351798,-0.32972123572025447,0.3491045392755099,-3.239504465528857,-9.650578015811181,-1.4401800710515675,-0.13784122157879092,0.7388198549729867,0.01666666753590107
130,2344.0,0.0350890111513785,-0.21977098776977508,-0.3217040796117857,0.3773860161325312,-3.2475847317351025,-9.642946644149907,-1.2944281030317266,-0.5662164389742689,0.7417188433888341,0.01666666753590107
131,2360.0,0.05208979606358334,-0.16214224401321262,-0.21968047820841893,0.39743745731962843,-3.194762803738378,-9.539247803010698,-2.3756971011247567,-0.502511211224707,-0.03049162864653645,0.01666666753590107
132,2378.0,0.09214004863481969,-0.18236545928735284,-0.12253086691643111,0.4382885414123535,-3.2041901919709517,-9.445574343396677,-3.175486639723862,0.7827366373148464,0.861918700197687,0.01666666753590107
133,2394.0,0.13353910373281686,-0.2513975857908837,-0.15770570460418237,0.48018707046508785,-3.2671874222244135,-9.48268453306118,-3.536951989988573,0.6389530444364387,1.416148370621995,0.01666666753590107
134,2410.0,0.11887930387263186,-0.247721253632009,-0.18577857393277808,0.4653729568260256,-3.2480338272094724,-9.515754480024706,-5.267634413871063,0.19919470313932627,1.1283370056023514,0.01666666753590107
135,2427.0,0.03269156265478814,-0.2560374109533615,-0.2528336282096803,0.3785831580618047,-3.2429463130784217,-9.58713148915395,-4.975886298568554,-0.0881435045276286,-0.049992459057157546,0.01666666753590107
136,2445.0,0.021083476232131942,-0.24929632092900572,-0.32980401863288134,0.36706103288955055,-3.2288799947325137,-9.666439382614008,-3.893504086362517,0.06110269222205556,-0.04330911895430006,0.01666666753590107
137,2461.0,0.06695253005076665,-0.34214612526837734,-0.45071847246177493,0.4140472541698487,-3.31222839575503,-9.790339574255421,-2.017985366695791,0.358618575443417,0.24611973024332706,0.01666666753590107
138,2477.0,0.12607445780741983,-0.3612926512217149,-0.42842188497968015,0.4724059059364255,-3.323451142971776,-9.770587410559132,-2.592173543565964,-0.6463100119461886,0.17719563765828047,0.01666666753590107
139,2494.0,0.06256241903277114,-0.3304571487793699,-0.32119806631840764,0.41210197902070356,-3.3093849890226497,-9.657910002667084,-2.230775854862719,-0.7861514650955884,0.597334780832847,0.01666666753590107
140,2511.0,0.09094116683960891,-0.31211569213122126,-0.3390182390388101,0.4462193435447756,-3.321655528259277,-9.665691596454009,-1.2190478941956446,-0.9936768379077882,1.022111555752786,0.01666666753590107
141,2528.0,0.061703299719095224,-0.25601403007777407,-0.28735634953109546,0.41838674011230464,-3.274070934660453,-9.611223417353909,-1.8682377380114927,-0.926241526458606,0.808867660418846,0.01666666753590107
142,2544.0,-0.012873619696311652,-0.20781170643940566,-0.19293323146039618,0.34267011260986324,-3.227383984021097,-9.5163531400376,-2.2317837346521188,0.21524610125610583,0.38429200255345203,0.01666666753590107
143,2561.0,-0.017739681087917413,-0.187533582640253,-0.22058330879965796,0.3380313571681094,-3.2037410599639635,-9.545083413829001,-1.8710812311403338,0.2176417901074878,0.5257411648395964,0.01666666753590107
144,2577.0,-0.006047063324364717,-0.15151502413735723,-0.29562013734439385,0.349553440670346,-3.1637877923606426,-9.621398591746482,-0.9303311022241512,0.0774134641045237,-0.509827144238584,0.01666666753590107
145,2594.0,-0.03276276929405285,-0.08057615983020514,-0.272289000916481,0.3232171990049188,-3.0886695965422315,-9.599401918792724,-1.5064114549378291,-0.07029161785282347,-1.0691228940363375,0.01666666753590107
146,2611.0,-0.034068771575414575,-0.09694686439465731,-0.20499935243241488,0.3226186874057865,-3.1013890851227566,-9.533262024865671,-2.1569240075751326,0.1407679576381414,-1.0049749312903413,0.01666666753590107
147,2628.0,0.031616151975619136,-0.123154314310709,-0.17781417092485352,0.38965630420740927,-3.1317653451560528,-9.504681589607427,-2.5881283640300237,-0.291028170675308,-1.0754415660705396,0.01666666753590107
148,2644.0,0.03822021728261606,-0.13257296211440114,-0.1567424125299789,0.39863458783245875,-3.138200008712895,-9.484480184306296,-3.166638556540934,-0.0789772839397657,-0.8023094515160172,0.01666666753590107
149,2661.0,0.023948471458524,-0.1815729754691012,-0.12660797102907673,0.3866635932314093,-3.1848867766891606,-9.455001576365623,-4.683100848285848,0.127188100825128,-0.7440133067022823,0.01666666753590107
150,2677.0,0.040603534505865534,-0.14874584255181253,-0.17534281237525864,0.40836099782751406,-3.144783807549998,-9.505878690437505,-5.187932936446185,0.338037321163891,-1.1654370990699798,0.01666666753590107
151,2694.0,0.01706139366728603,-0.15786434749830514,-0.22855985890310257,0.386813172611309,-3.1488239863188934,-9.560645889016799,-5.0434834001237006,0.48144584060732987,-1.3736074978719226,0.01666666753590107
152,2711.0,0.11661600771630182,-0.21421300658276304,-0.36692612706404176,0.4950011749709956,-3.1917701429947276,-9.702951250192337,-5.192282913173837,1.6265999458850162,-0.8237058195038754,0.01666666753590107
153,2728.0,0.21852560908487065,-0.3443662490032613,-0.5924611217206344,0.6010942725692875,-3.30878684046641,-9.932495480490289,-4.471457618456071,1.2048775995453953,0.573175334521454,0.01666666753590107
154,2744.0,0.233047069053445,-0.4279567882185802,-0.7746713173810392,0.6248866515670902,-3.3957261055877432,-10.11325723090805,-2.374909921822913,-0.5669094897316136,2.3328178138456512,0.01666666753590107
155,2761.0,0.29833725081598383,-0.36337775040008125,-0.7748171555925161,0.6697778961624018,-3.330933132757619,-10.114304986395315,0.3816828169296543,-6.480785720378871,5.575151301533017,0.01666666753590107
156,2777.0,0.33449648729804904,-0.31421492943279444,-0.5370548763191327,0.6871358764648438,-3.28080468162857,-9.877577895388566,-1.3439181596537582,-9.420177266487723,6.9666452505722045,0.01666666753590107
157,2794.0,0.358639689027518,-0.20542145030200482,-0.029855859738250726,0.6584054382766596,-3.155857063293457,-9.377339949991962,-7.399277116563629,-14.024517069020039,10.421326758234327,0.01666666753590107
158,2811.0,0.3978346216773614,-0.13446679477067663,0.27953464292949065,0.64478843460083,-3.05904169805767,-9.077615685813967,-11.507477100428096,-17.475552963212667,12.91101181920037,0.01666666753590107
159,2828.0,0.480691037931852,-0.08944259884492493,0.3290222206054255,0.6842927437270991,-2.9896096215842753,-9.036764419058152,-15.323548185943825,-21.356814789261584,14.292534545824985,0.01666666753590107
160,2845.0,0.7031382591735571,0.05720588783514686,0.3122299296280369,0.792031845833594,-2.76754728974062,-9.078363819033838,-25.763459888909757,-31.353792139646774,16.69890752061615,0.01666666753590107
161,2861.0,0.6082890611778944,-0.13488376894057727,0.2223835266220383,0.5665279724010499,-2.854337081654975,-9.199570405943412,-31.03750656975099,-30.59465417944029,17.63279074809553,0.01666666753590107
162,2877.0,0.33252624667100605,-0.2463835204885341,-0.0018755936039808146,0.23403323054658248,-2.91284553998867,-9.438541357610953,-29.24330125215327,-26.154331124542075,15.54001737130904,0.01666666753590107
163,2895.0,-0.5427223274962977,-0.23576975374929607,-0.4798025646595284,-0.7050923889160156,-2.8345853472169487,-9.934440623208694,-22.83290233871867,-18.334980298549738,9.571221777340677,0.01666666753590107
164,2911.0,-0.48265649278592315,-0.3673452657915652,-1.3984728588588535,-0.7043441643645987,-2.9117982776917515,-10.866682931164652,-10.69867000457728,-15.069767384690124,0.11681492444594302,0.01666666753590107
165,2928.0,-0.38736159684937443,-0.500816418854706,-1.7622610166907309,-0.6329670639038085,-3.036446365091018,-11.232247451019287,-2.9687205918482973,-14.107668645749419,-4.769873279048983,0.01666666753590107
166,2944.0,-0.2903833874683827,-0.42003746646139767,-2.0195468020036818,-0.5719149033035151,-2.9915550108978524,-11.478850514276324,17.89693977650931,-11.64244334597484,-10.61665906943929,0.01666666753590107
167,2961.0,-0.1713972896198742,0.08255341471992432,-1.8194864403434097,-0.4767453690459951,-2.5956139478821307,-11.248408458355813,35.442660980612814,-10.122891887734376,-15.161114334649874,0.01666666753590107
168,2979.0,-0.27295720076793806,0.23973105859570204,-1.4293826686464248,-0.5916671035324222,-2.543689699377492,-10.827327949114888,40.429269395517814,-9.888423446358885,-18.673072954918077,0.01666666753590107
169,2995.0,-0.354347398661077,0.3612467297207564,-0.861476252065599,-0.6781576202392577,-2.495206823498383,-10.23730731588155,40.647149014946635,-8.891932997399875,-21.247733253121893,0.01666666753590107
170,3011.0,-0.3641346697146073,0.26182266155760736,0.12958000910980627,-0.6970119583129882,-2.725349567678757,-9.205107143412995,32.34615373925251,-9.86622191646176,-20.048652563191137,0.01666666753590107
171,3028.0,-0.026473553506331515,-0.18625468527823685,0.699527302134782,-0.3640682990806643,-3.2013468948364254,-8.626009160204976,28.303718231811512,-10.886398607688728,-18.26438517083578,0.01666666753590107
172,3044.0,0.2392805748818442,-0.2544756597956642,0.9176561852533369,-0.1666962905883789,-3.334524325649999,-8.383895590386912,4.6552464830768905,-26.659100887226238,-6.67772483358608,0.01666666753590107
173,3061.0,0.21976780943199992,-0.18956086895046756,0.9085250034883617,-0.26695348510742184,-3.2592564830946733,-8.39257493673116,-7.751140288072359,-33.4384717422668,-0.2677283410235582,0.01666666753590107
174,3077.0,0.14483603043062612,-0.16340387971317394,0.8291865322269499,-0.40237549824370067,-3.2275333841628395,-8.47038605229482,-11.938880386142563,-35.09851506909255,3.4645280791243427,0.01666666753590107
175,3095.0,-0.04282398246773518,-0.09408520961953326,0.5471792338399216,-0.7191583328025881,-3.1100679382766594,-8.759635576895064,-13.54052644933835,-34.234407346626725,9.566277574155233,0.01666666753590107
176,3112.0,-0.027158355149428826,0.0009944576796748152,0.4718990615259856,-0.803105026228528,-2.975543564817621,-8.83984151517339,-14.699948499627075,-34.30615165366854,12.199937900183267,0.01666666753590107
177,3128.0,-0.0075492286402877645,0.09435980704352259,0.4914951578777283,-0.9141361036729213,-2.8193219463072716,-8.828319419683888,-18.105192244303,-32.100765532941466,15.155716777658272,0.01666666753590107
178,3144.0,-0.059870581566332834,-0.11101173970215023,0.7389769767306744,-0.9985317070560297,-3.0059201112609353,-8.583512372998147,-19.842102520048073,-31.53486045454381,16.601029202262573,0.01666666753590107
179,3161.0,0.1096624257187359,-0.2175302048393525,0.5106634572714567,-1.0006266015426255,-2.9946974553757344,-8.828768259429932,-28.16253139147818,-32.48218720185707,28.990252988688052,0.01666666753590107
180,3178.0,0.2659974447579123,0.0034524334464833373,0.1477338890302926,-0.8815151054824701,-2.74555079887913,-9.19552995317988,-28.23976546306539,-32.906861043691784,32.46031693613469,0.01666666753590107
181,3194.0,0.35278340074736625,0.07619600851722061,-0.31603586124964056,-0.9530418618133291,-2.5650877305846658,-9.66958202802129,-22.557994054814827,-32.7027066894001,44.31390191992213,0.01666666753590107
182,3211.0,-0.06356895659365691,-0.45523247928749766,-0.13989368779077194,-1.506401766182715,-3.011606522866897,-9.496900224149366,-14.148075191105569,-21.20967885416117,44.11125362234244,0.01666666753590107
183,3228.0,-0.2745936245970428,-0.5141903527559712,-0.040344184883357954,-1.7609353210449217,-3.0409355662690474,-9.398588154082418,-9.262721769325065,-11.32115807760661,39.51299268817144,0.01666666753590107
184,3245.0,-0.5923659907830878,-0.43898214969970284,-0.16337096382426097,-2.1067479329315946,-2.925564571911469,-9.527875162461864,-1.8776051290147537,10.583413123654253,28.275123644851252,0.01666666753590107
185,3261.0,-0.6226481336589902,-0.321293160723336,-0.04318105684367474,-2.1302410001892595,-2.8028618464263153,-9.410110436801588,-1.4544198415322804,14.730284784825686,26.382879499454457,0.01666666753590107
186,3278.0,-0.5515741808632388,-0.570028157975152,-0.2753531194611452,-2.013822907931544,-3.053056102575734,-9.649081658039893,-3.003203869090165,29.01064793354971,19.42802230161605,0.01666666753590107
187,3294.0,-0.5704015943974257,-0.6609034108385443,-0.3470201610455289,-1.9819500617980956,-3.1296704826354977,-9.732280147464014,-6.3374016935669095,34.992595910538576,16.111967167122152,0.01666666753590107
188,3311.0,-0.4037354066863656,-0.701810517701134,-0.3259134774677455,-1.7018284675598143,-3.133411495794728,-9.737218005724996,-9.765105234667951,29.9361249057081,3.947798113848595,0.01666666753590107
189,3327.0,-0.7364815066531301,-0.7462267286632209,-0.5933995350819081,-1.989282304382324,-3.163039741339162,-10.014646196160838,-8.2853080387179,23.627622169406333,-5.0497300350065,0.01666666753590107
190,3344.0,-0.5862544125676155,-0.8997624358400702,-0.8898333816956728,-1.7727566917419433,-3.3062428550720213,-10.322301109490915,-3.292998763733462,23.142055483573664,-10.504595301953245,0.01666666753590107
191,3362.0,0.26532524458477275,-0.6419884286187589,-0.9748118316054344,-0.8384195486648939,-3.0578445789612827,-10.414926859283447,4.303131448342516,17.536710477040963,-9.38545429229467,0.01666666753590107
192,3377.0,0.40474633729457854,-0.3961941244613379,-1.097734666114673,-0.6678326255798339,-2.8251581781800836,-10.538078826373443,6.909805696959828,14.905651599313057,-9.008501274643544,0.01666666753590107
193,3394.0,0.45243740520887077,-0.2924787523124367,-0.8504605717282742,-0.5753565864562988,-2.7513866933960465,-10.288034098229929,7.078369643033865,6.967967745950248,-8.276918005096185,0.01666666753590107
194,3411.0,0.3475229960011318,-0.3415765086868778,-0.3304080124080181,-0.6572083922455086,-2.8223148810455574,-9.764751470947266,4.128326416914379,3.875316573263243,-8.213655085456235,0.01666666753590107
195,3428.0,0.3590487812850624,-0.3358898778852075,-0.014597410139971179,-0.6405985816955566,-2.8206687578063456,-9.44841772158795,3.6962204754890458,3.586734250641034,-8.215245665759202,0.01666666753590107
196,3444.0,0.16448827741639688,-0.30883729151505973,-0.041279858298273756,-0.7761702324355952,-2.8607718913422895,-9.463231452776165,1.9028362746956038,2.7087802406237143,-12.394162866969042,0.01666666753590107
197,3461.0,-0.12528813886847345,-0.36248127648439255,-0.0504226163366111,-1.05225166617129,-2.920028163235448,-9.4722099601635,1.4730569731780123,4.12606220920452,-16.92124725357299,0.01666666753590107
198,3478.0,-0.10589908199668861,-0.46426633815784,0.16354153461819515,-0.9853636298912111,-3.0171431872712446,-9.264064140098634,-8.128841211437601,8.131708183341715,-24.024334924326308,0.01666666753590107
199,3495.0,-0.011640706625691381,-0.5296862472472712,0.359237179996632,-0.8623614636601123,-3.0624833081452176,-9.076418530184961,-16.12763562107816,8.351297911383979,-32.69828414191252,0.01666666753590107
200,3511.0,-0.07473138845791108,-1.077970081328228,0.4676194845106452,-0.8683469872184563,-3.5139397760253397,-8.998457082897797,-37.06289113476656,11.608026876520793,2.4537832388109275,0.01666666753590107
201,3528.0,2.0776490084908903,-0.4326169620493427,0.4324760557413101,1.2654852149963378,-2.7961283003875983,-9.050381550598145,-37.708477200021576,-9.054708358152327,37.98924578623329,0.01666666753590107
202,3544.0,0.3783552105078474,-0.4471402121162042,-1.1259997335471212,-0.5042787612030283,-2.7274444210661573,-10.622923274639993,-18.178125004260394,-8.683965690004035,56.53914823230124,0.01666666753590107
203,3561.0,-1.6020003121078012,-0.3852288591369986,-1.3109507888808847,-2.525134709576517,-2.6910826660156246,-10.797849195043742,27.63282973077618,-1.3599128618643412,19.354143560458606,0.01666666753590107
204,3578.0,-1.4600908183820545,0.001570895443255722,-1.1107701618418098,-2.384624853515625,-2.3753473292177962,-10.579976843969524,43.76223437084937,0.6119973293510131,-1.813775730560515,0.01666666753590107
205,3594.0,-0.4012408133916557,0.49383930985108015,-0.7365555948026478,-1.3066355560302734,-2.0699371189393103,-10.1587474277772,52.872344100906965,3.279419920776654,-14.691803499041836,0.01666666753590107
206,3611.0,-0.21206910815555602,0.27249091669674963,0.21004247943246737,-1.0619780373504384,-2.4600422423431647,-9.169792559327837,41.00126358756054,16.075244655049577,-20.042334638208875,0.01666666753590107
207,3628.0,-0.46346232829857614,0.04262228131659794,0.5586299080610275,-1.2614450362274423,-2.757820923128049,-8.805724068450926,35.13777841153637,24.396657073720164,-26.166203700866852,0.01666666753590107
208,3644.0,-0.6267471664756536,-0.06816599292717873,0.7728992662072182,-1.3198036651611327,-2.9547440507750955,-8.573636145019531,28.333380035829585,33.2858204294116,-31.951464427874154,0.01666666753590107
209,3661.0,-0.43463823874387886,0.12088761148774065,0.916635171642527,-0.9516951599121093,-2.850446704886621,-8.414720790630952,17.477923038854662,42.448450899092,-33.45610387560919,0.01666666753590107
210,3678.0,-0.33224034240171313,-0.01130515338674886,1.022869029418379,-0.7534253349304199,-3.00756611348585,-8.305335775347798,11.037884519516794,45.56629565141942,-30.59449708508938,0.01666666753590107
211,3695.0,-0.2622566325280815,-0.13069132221941834,1.242204000391066,-0.48722003784179685,-3.141192404595064,-8.088211466161907,-1.4532043880251355,44.28752031425296,-27.128830071920937,0.01666666753590107
212,3711.0,-0.402859756362997,0.4442630127120763,0.5779571243435144,-0.5542576843261718,-2.547131218133494,-8.760084599304198,-14.691591763177565,29.978116908725333,-26.529373396772893,0.01666666753590107
213,3728.0,-0.22076677560778332,0.6149779643572867,0.4187969283483922,-0.2560299331830931,-2.285864181164652,-8.948927401379496,-30.18930635786213,22.451268933938792,-26.114482093376928,0.01666666753590107
214,3744.0,-0.21946900914851575,0.8117752325683831,0.16657259114347397,-0.18225860366268315,-2.016815623474121,-9.223212763744964,-24.766037119129038,19.193656313078108,-25.229071010889836,0.01666666753590107
215,3761.0,-0.0723406893625157,0.5870139622306451,0.05521141694914549,0.06793547667351085,-2.183661588198878,-9.350854041610845,-10.62149057450343,23.055259147148437,-29.459586022410893,0.01666666753590107
216,3778.0,-0.17565938577745108,0.4828152270115912,0.13435386331495827,0.029927520751953124,-2.278232371111959,-9.273341826795367,-2.9802243379578917,29.096137996296175,-34.23050730861065,0.01666666753590107
217,3795.0,-0.2741790341804735,0.4582665497537702,0.4499825959352776,0.10833764338837935,-2.30875866147466,-8.950423521688766,5.070862213411696,43.717766424258,-41.40007833319758,0.01666666753590107
218,3811.0,-0.19314822591794653,0.3844161910472437,0.5072105403386056,0.23986906056059523,-2.3861214122163132,-8.889970185498148,5.788651062156568,45.08068286180986,-41.54029187157418,0.01666666753590107
219,3827.0,0.002640290513113723,0.14803208652557803,0.17421300462773068,0.6254851888532197,-2.6346691250014116,-9.208698372837993,4.708694847766355,39.72915109992941,-33.391640550222604,0.01666666753590107
220,3844.0,0.03298966425195103,-0.08893518817890435,-0.024774446554423773,0.7951742058297968,-2.8761845645295456,-9.39604448606515,2.0187228136827406,32.689353669572725,-9.67719130853978,0.01666666753590107
221,3861.0,0.0005869590505661108,-0.08775409776871092,0.022350146583525927,0.8179191681589634,-2.8790273228079544,-9.343072920464666,2.4341430298525557,30.93572309073946,3.6784756440253528,0.01666666753590107
222,3878.0,-0.17990286856610327,-0.017780628444592002,-0.08414672092651017,0.7318774834563955,-2.824260190444032,-9.436297049425589,2.1812744857398743,31.91024082113854,22.647379032935493,0.01666666753590107
223,3894.0,-0.3182603688986972,-0.20631558613013476,-0.14053270721351727,0.582988140780665,-3.0300119481293484,-9.488520655336137,0.38123503933262176,28.403744644659056,26.61286050654525,0.01666666753590107
224,3912.0,-0.41084337552804495,-0.3722399059653282,-0.5099695567231625,0.4768950797149911,-3.1637878562927244,-9.868899170098826,-19.310628425256454,-7.225720302206312,41.30363264702241,0.01666666753590107
225,3927.0,-0.2958412692817859,-0.12004824718730524,-0.7257080375738442,0.4554968841110356,-2.823960876420606,-10.122235852459818,-32.66934463039917,-31.254727075924908,45.976909548847665,0.01666666753590107
226,3945.0,-0.366927953694947,-0.31923301332313564,-0.5114614757813513,0.3021183585235849,-2.9715034258635713,-9.9289040684022,-32.370639967427,-34.40037411326887,46.06246791348583,0.01666666753590107
227,3961.0,-0.6011409064562991,-0.8143746014118194,-0.18298200201680884,-0.08783727340698241,-3.3845033218383787,-9.632920504572894,-19.74264984309081,-29.264689989539164,39.800321671080944,0.01666666753590107
228,3978.0,-0.7148887565914541,-1.0494774887502192,-0.18561660657040774,-0.26351182022094727,-3.6017771224975585,-9.64354493883662,-9.20776862858408,-24.07026453140006,33.176175402665386,0.01666666753590107
229,3994.0,-0.7009241633206605,-0.9130492759797721,-0.06434006426373962,-0.3275566780975088,-3.4804210989136246,-9.521590351137915,9.555694196036299,-11.278228631125787,13.36804282845437,0.01666666753590107
230,4012.0,-0.524841802890785,-0.7806856822997331,-0.051058293024799785,-0.2899976943527348,-3.554192364501953,-9.454402802188298,13.738986133409533,1.0742984698799147,-4.7987141797061845,0.01666666753590107
231,4028.0,-0.45332989706918597,-0.7548668389756232,0.026761202208139,-0.20635023731840774,-3.5470098325867205,-9.370755623715183,9.55505642712255,4.464694877404113,-12.8353512524432,0.01666666753590107
232,4044.0,-0.45567499889060853,-0.7982780376136303,0.20108835300114006,-0.17253217540131882,-3.595043430328369,-9.194033686740138,-1.85727635161068,10.248374415618557,-19.958646037856,0.01666666753590107
233,4061.0,-0.3157677118327468,-0.8705616219274699,0.06074203063861932,-0.0028431144714355467,-3.6525041240416467,-9.337835702514484,-9.655913561727896,10.776650274331317,-19.805429526846982,0.01666666753590107
234,4078.0,0.07424260029396973,-0.7735108222343027,-0.36450664483215656,0.415992565851612,-3.598634878949076,-9.749189123623632,-22.119849372389556,2.199878000048285,-16.86320259845893,0.01666666753590107
235,4094.0,0.20605264261132106,-0.827369472867623,-0.531430460566096,0.550965675309766,-3.5761891653198745,-9.938630476113968,-31.18433173124417,-7.0111358221651985,-18.065274911246153,0.01666666753590107
236,4111.0,0.2344486429470591,-0.8540905257284641,-0.8040871622838079,0.5648819359268061,-3.5045126800537107,-10.240000646618753,-38.89607975705213,-11.487921415060702,-17.124587107806146,0.01666666753590107
237,4128.0,0.27460626488290724,-0.9986446156788616,-0.7965350664038211,0.5916670852661132,-3.575291339697316,-10.253318320288136,-41.57127702474395,-11.711050034866679,-14.36153823946233,0.01666666753590107
238,4144.0,0.3195139491563663,-1.0827439446665346,-0.9243892929006368,0.600794979095459,-3.4790742874145506,-10.42959141751714,-37.333506644777046,-9.022220563365162,-6.977180817366949,0.01666666753590107
239,4161.0,0.3340312809390947,-1.0323900872837752,-1.0670211095515638,0.6037877311706542,-3.367594199548289,-10.587758072430267,-32.93448915888448,-7.922580597560618,-6.3266680512862346,0.01666666753590107
240,4178.0,0.31092608048785475,-0.6960617449160665,-1.2561482084609568,0.5657797798156738,-2.955941297735646,-10.795455431775004,-25.067673640802436,-7.3141302708229565,-9.26833276972823,0.01666666753590107
241,4194.0,0.35375155165977773,-0.409708708942309,-1.6508027753300965,0.5850830307006836,-2.6102784330505875,-11.204564640454203,-10.597777865252437,-12.830789539851278,-17.208113491166234,0.01666666753590107
242,4212.0,0.38635954366736114,-0.23393946958221493,-1.730043777566403,0.5960065940414555,-2.4253263548035173,-11.28641611744985,-2.778106447255932,-17.803521571683753,-21.23367160116813,0.01666666753590107
243,4228.0,0.44582894685454666,0.04985893173897639,-1.4099337256804108,0.5991489837204106,-2.1525369848831555,-10.964844760839641,5.9143222740165715,-23.278756597169593,-28.03127906129263,0.01666666753590107
244,4245.0,0.4696235178094357,0.0020217808732071714,-0.8977188011832534,0.6307225181137212,-2.192639742104592,-10.454281695202738,5.632867680680094,-24.215949051301845,-30.670500015078698,0.01666666753590107
245,4261.0,0.5985618497485294,-0.18007937591047957,-0.4244754854414612,0.7018003525001462,-2.390161463121045,-9.978284112316741,3.0102184733677677,-16.435170011099864,-31.348532893985862,0.01666666753590107
246,4278.0,0.7133483222164213,-0.33587731066457926,-0.361844074559398,0.8040028084686025,-2.5513210710387675,-9.914538602712936,3.5701855560557396,-12.846820847606944,-27.88545793760744,0.01666666753590107
247,4295.0,0.9181617966879159,-0.3916740897536278,-0.5133750543177128,0.9961375373619142,-2.618957341003418,-10.063428128051758,3.326258583340251,-7.184177384127002,-22.62994839017362,0.01666666753590107
248,4311.0,0.9573853343777358,-0.2176239840700291,-0.5364802547689527,1.0359411034293937,-2.450914366780128,-10.085125799792632,3.67554720041871,-4.032474530310182,-21.738057165711478,0.01666666753590107
249,4328.0,1.1246540180265903,-0.0666578077207785,-0.7973604843772948,1.2165536820342764,-2.3130980332526843,-10.342801680401712,6.035197412418756,2.2082020796558264,-20.220739179329605,0.01666666753590107
250,4345.0,1.339007255063951,-0.23016988791562615,-1.5985643463097512,1.4827589699897448,-2.520046957983449,-11.13303757359609,12.139666603399782,9.90719024487714,-16.11276459170775,0.01666666753590107
251,4361.0,1.4077816622130572,-0.1859110412060283,-1.7240137036219239,1.57448693982549,-2.4992473127945325,-11.25244823526591,13.871884539185055,8.920482334356882,-14.080944676848098,0.01666666753590107
252,4379.0,1.4024768338032065,-0.052477128580468706,-1.647462086600065,1.6005238828796893,-2.4202385255786356,-11.161917777252196,16.554317538528856,4.148371741467897,-11.817287650990703,0.01666666753590107
253,4395.0,1.2392892819881438,-0.027260198955552185,-1.3399445359140634,1.4489408806731923,-2.426224105077551,-10.84633207092285,18.288432559356103,3.5151323103547325,-11.52467039411631,0.01666666753590107
254,4411.0,0.974474489409849,0.145819908635132,-0.5552262370973825,1.2122142463241703,-2.331503394583054,-10.040832849884033,25.064099744319225,6.41652986198833,-10.935558894239893,0.01666666753590107
255,4428.0,0.9510928101047873,0.2246105184891261,-0.15353462946461513,1.2078747740814462,-2.3021747347733936,-9.625588517716992,29.169231265699064,8.661067480811566,-9.458080547513061,0.01666666753590107
256,4445.0,0.9113565005872398,0.31560013671349735,0.592547265634127,1.21939683303833,-2.331952307394333,-8.84492923023384,36.64400929334801,15.799800201295888,-3.600704975701472,0.01666666753590107
257,4461.0,0.8845724654927849,0.4550757178232073,1.3125140926748513,1.208622962100245,-2.2258593559265134,-8.114996889495849,37.78818892273021,17.815546119717563,-1.0301874006726799,0.01666666753590107
258,4478.0,0.7942647103190421,0.5493825891030952,1.8071376847714185,1.1909656883239745,-2.26671060441602,-7.57809716720581,36.72565054449718,26.356137601306564,12.964615143806629,0.01666666753590107
259,4495.0,0.24215507087223231,0.26676411828147245,1.8396485000148415,0.7384615745544433,-2.6648960670913566,-7.505372999517619,28.857808790492335,40.6535352418206,27.443597632273683,0.01666666753590107
260,4511.0,0.04122004070270341,0.11565768407816067,1.5070315793856977,0.5976525848499266,-2.8661585710830053,-7.818714141790569,26.449844381624555,45.37573337357607,33.45316689426608,0.01666666753590107
261,4529.0,-0.08124930985141544,0.18233179447976872,0.6680299747828394,0.5874771958282217,-2.899378374846,-8.617779457324371,26.510713319960416,43.183963234959414,43.95867061137894,0.01666666753590107
262,4545.0,0.4174804389223456,0.7960413646027446,0.2654305133238435,1.1417349166870117,-2.386869709832966,-8.981996873418986,23.01146909683219,25.80538871267717,54.02115459854643,0.01666666753590107
263,4561.0,0.6830139011640102,1.102029075372964,0.4909751525916159,1.4100351402282714,-2.101361015728861,-8.749160908099263,19.115717024459094,23.07343940317172,57.55165888995851,0.01666666753590107
264,4578.0,0.4246694005783647,1.0747666091118007,1.1815710333172231,1.1566986770629881,-2.157923810754344,-8.047959462207183,-7.8596566260582295,28.897987378284935,74.30187137652521,0.01666666753590107
265,4595.0,0.06729157557967118,0.7264758070759475,1.0700396536551415,0.8087912026557605,-2.485330814715475,-8.166023458508402,-21.749313317463656,34.48545094957054,80.57716231798778,0.01666666753590107
266,4611.0,-0.5071234465770423,0.3419454881297424,0.14599996877661905,0.26126725616455077,-2.7729342526091263,-9.12101065483638,-40.51752226978355,34.519383329367166,79.61551949417418,0.01666666753590107
267,4628.0,-1.413913150705397,0.24872244829749687,-0.9085893739614636,-0.6278794584412127,-2.7347769376450217,-10.217255365521087,-43.047093074181525,23.15682235255923,60.81304689788292,0.01666666753590107
268,4645.0,-1.7801552775606513,0.21374427482616154,-1.2846300604492424,-0.9914987625122069,-2.7380687639983368,-10.603170964813232,-40.86006650194344,20.219871745305014,54.02946352367175,0.01666666753590107
269,4662.0,-2.1899413625881077,0.27057452514879404,-1.571712579741329,-1.3780126930236816,-2.576310696997121,-10.920851451464742,-27.805396167703844,17.931794231843885,23.823981570307737,0.01666666753590107
270,4679.0,-1.9994889333590864,0.04132204890560824,-1.6631111988916991,-1.1155482629638165,-2.743006763823214,-11.024550749261676,-12.47405132082245,25.317231677601775,-5.019081695540184,0.01666666753590107
271,4695.0,-1.7060118907243011,-0.2738405046747997,-1.9132512041032312,-0.7674911966186017,-3.0451254191743207,-11.273248154449462,-3.94281677150954,27.413452592371833,-16.091362193943514,0.01666666753590107
272,4711.0,-0.9028864861447363,-1.2149564394380896,-2.558038761921227,0.15607209378667175,-3.993827863543853,-11.9029234833315,9.073830326507423,26.245865904704,-26.632102856984467,0.01666666753590107
273,4728.0,-0.36313970386050637,-2.259895627171546,-3.0571017977699637,0.7695861961364746,-5.063437382153421,-12.385953083746134,13.504357182588548,16.548189151296064,-24.19561045550084,0.01666666753590107
274,4745.0,-0.11525333192781545,-2.6894325607210394,-3.2129177979037165,1.0449193048560526,-5.510703741399944,-12.533047432763874,12.081855882264794,7.0386209302721525,-18.949973946512273,0.01666666753590107
275,4762.0,0.18480812146542594,-2.8192387980684637,-2.8430753084689377,1.333720017109718,-5.652710119628906,-12.160898419952392,0.08562577273557893,-15.616880905133778,-11.562858835539497,0.01666666753590107
276,4778.0,0.2516782658957876,-1.9628233365237713,-1.8127106625981628,1.3257891875778325,-4.765508766937256,-11.14874981425181,-9.530020368719867,-30.636123672986024,-17.191123395605825,0.01666666753590107
277,4795.0,0.18929986166041343,-1.0875230687018482,-0.7558168331768363,1.2170025948455556,-3.8711247361999,-10.102783037036284,-7.852138295329338,-33.07201501782269,-22.659746797975092,0.01666666753590107
278,4811.0,0.4388935581007972,-0.49969435602221635,0.2980294817747548,1.385943449490331,-3.2677860274383796,-9.06205339328926,3.7117365308491994,-30.674536656878175,-34.61634127973009,0.01666666753590107
279,4828.0,0.6428569550815969,-0.22410138165690002,0.7782832973331213,1.5599720922607927,-3.002029679693654,-8.581866213226318,11.364057642009813,-27.78246039247094,-39.92919026524616,0.01666666753590107
280,4845.0,1.0287580874569713,0.22717530920952558,1.4636230841614306,1.9107225624084472,-2.609380534362793,-7.882310269518941,26.004606547746228,-20.700322619449345,-44.72673562883063,0.01666666753590107
281,4862.0,1.4764396033756435,0.46987628699410705,1.9472231779403983,2.3458687872070816,-2.4577977513520044,-7.371746765490621,31.02638019159304,-13.720005891479714,-39.44135083396717,0.01666666753590107
282,4878.0,1.6484103272356092,0.49781351071167734,2.0699039473220706,2.5189994216918943,-2.476801727029495,-7.234080608423054,29.555860953856808,-9.133503127964886,-32.59074964361984,0.01666666753590107
283,4895.0,1.933791303306818,0.3934973961906507,2.1978530124954876,2.811690574645996,-2.6569654019562527,-7.080851556042582,18.812024615845523,-1.705509868418114,-12.19272351287244,0.01666666753590107
284,4912.0,1.9677201686546206,0.35105518871527164,2.1700534436829386,2.8489503379821777,-2.7196633387358857,-7.101650890704244,9.616651073057724,1.199702557310347,-2.050816805375573,0.01666666753590107
285,4928.0,1.6437943578727543,0.8337940990876406,1.76679939077273,2.529474053955078,-2.2355858732361344,-7.504924232836812,-6.441956094947349,4.856516789991534,9.639804560570422,0.01666666753590107
286,4944.0,1.5367355205148459,0.9648550857365131,1.4800471263483166,2.4281693231444805,-2.069787335205078,-7.802553865106403,-17.94161262877578,7.883053439060108,16.22075671267482,0.01666666753590107
287,4962.0,1.5208004308886824,1.0899155898615718,0.7322337860807776,2.428468671417236,-1.8733131614685057,-8.571840201513469,-23.817479230217888,13.08789066681525,22.899689635970347,0.01666666753590107
288,4978.0,1.5915779945537447,0.9419752915389835,0.3272872865715995,2.5119664543151856,-1.9828477412901817,-8.987683358090184,-24.55136598106283,15.806563796121493,24.759232543168416,0.01666666753590107
289,4995.0,1.3226384501956403,0.7331569653403014,-0.3143044708797708,2.2884078742980956,-2.115277239813283,-9.648333451754786,-23.264898143343636,22.0989985124008,20.639100218823934,0.01666666753590107
290,5012.0,0.7385968913719058,0.6601001316316425,-0.9024234717428684,1.7685667657714337,-2.1260509280882776,-10.248380206298828,-15.804524984654245,21.395050188235313,7.83439687896023,0.01666666753590107
291,5028.0,0.2346268125255592,0.6157182613305747,-1.3543679058030247,1.2964601441756822,-2.1499932369507846,-10.70282931665629,-10.580062062092717,17.61332129386641,-0.45389061633967703,0.01666666753590107
292,5045.0,0.08212317920965143,0.35131047865059223,-1.3833411945700644,1.1900679083671886,-2.3930045958587898,-10.732757129669189,-2.363737226444653,5.970258961998037,-12.648645470159963,0.01666666753590107
293,5062.0,0.1927561761267483,0.13903792947796173,-1.2404781995117664,1.3112742486815898,-2.6001029572639145,-10.590152493286132,-0.9690381044157308,0.39127939279608087,-15.603037819233453,0.01666666753590107
294,5078.0,0.6088967082148418,-0.432615354614146,-0.6965886183343827,1.7277157364776357,-3.1579518801482394,-10.050259872790425,-3.401777423672143,-6.631974945864865,-15.171212769337737,0.01666666753590107
295,5095.0,0.6871585997533053,-0.6754181853380054,-0.3089346874749288,1.8038813863892107,-3.3951278109010308,-9.66449453215655,-4.702878941688089,-6.56584334677351,-14.34627788930923,0.01666666753590107
296,5115.0,0.573029422150366,-0.9754272600900381,0.3038229339517653,1.6907553214142097,-3.6673183198790995,-9.059658935900776,-6.965086686780972,-0.7051627104555738,-11.19049314368968,0.01666666753590107
297,5128.0,0.42733880245070904,-1.1556349202889948,0.33809637495353817,1.5611690834930165,-3.819799184240773,-9.031377428790181,-6.619536317612626,2.6653359686342015,-8.561968266143852,0.01666666753590107
298,5146.0,0.39861740608550605,-1.1713320364408195,0.26536720229666677,1.540519130706787,-3.823090992327779,-9.106645180013961,-5.825667272363452,2.2428505620982433,-7.651124974282216,0.01666666753590107
299,5161.0,0.3833412918247282,-1.203139233459532,0.09282326339231803,1.534084713745117,-3.842095406396687,-9.281721267744432,-2.7168720937994753,0.6161415466299184,-7.275240027462551,0.01666666753590107
300,5178.0,0.45080987707227466,-0.897683291478455,-0.07902495746598578,1.7034744812011717,-3.803338974761963,-9.361178789675096,4.005012047204853,-1.4116613632241197,-4.16965375714801,0.01666666753590107
301,5195.0,0.572782680847682,-0.7970921157646924,-0.07927517850054427,1.8237831511566414,-3.7147535864014176,-9.357886808058153,8.115500998214921,-1.524698539388598,-1.4305334960659823,0.01666666753590107
302,5212.0,0.7552334072656929,-0.49638420856092125,0.04311782344831153,2.001552587890625,-3.455730857760645,-9.222913725999463,13.154671133877757,0.019094264067286745,3.8792046584482724,0.01666666753590107
303,5228.0,0.8625684312164783,-0.07856656444030813,0.2796350710966624,2.1070470985412597,-3.0820858251045924,-8.972420559968706,9.6642831047821,3.8799034721777295,11.205864484416795,0.01666666753590107
304,5245.0,0.8630677590407431,0.06258294579756911,0.34879904381893573,2.108094561767578,-2.949357229470485,-8.900444452435151,7.924644168463608,4.948049008832521,13.274453015125918,0.01666666753590107
305,5262.0,0.8797199108950793,0.3146231814401224,0.21831835954235865,2.125003464861959,-2.7127802281586453,-9.025840965315233,-1.7653125501915128,6.126363362365502,20.43196790205413,0.01666666753590107
306,5278.0,0.804621269160509,0.4838382864490151,-0.14408933111601507,2.0389619888305663,-2.526930214691162,-9.395146598793799,-10.998298450634692,2.2890832588164134,23.16660318345069,0.01666666753590107
307,5295.0,0.8033175661507993,0.5182607805326581,-0.3284772635411471,2.025045691680908,-2.4747066909790036,-9.586981924615428,-13.729820019543375,-0.8050176748827801,22.119270513857398,0.01666666753590107
308,5312.0,0.8175591497320681,0.618482611477375,-0.5652507875055074,2.00080432680659,-2.33045604095459,-9.842862300109863,-15.727787809329152,-6.403507252562054,19.072481927012912,0.01666666753590107
309,5329.0,0.8626856278553604,0.5017387578640132,-0.5664863206498325,2.0233996780395507,-2.4236804872926325,-9.854384249468891,-15.866741177803892,-7.337617583831339,17.685600063210778,0.01666666753590107
310,5345.0,0.6826827695135027,-0.0036268729875926506,-0.4340046535480767,1.9427450826782733,-2.7847557206313254,-9.753229448523,-18.253931566311074,-6.133864617621468,17.38504100387895,0.01666666753590107
311,5361.0,0.592488046260178,-0.37437921954896297,-0.21422782055940479,1.8167501472473144,-3.0864248863553625,-9.55855081643369,-25.05257550764212,-4.018371043447751,20.735214640824356,0.01666666753590107
312,5378.0,0.5381705459434539,-0.5447658890878782,-0.21921068700589239,1.7435773590087889,-3.2134677964692933,-9.578452435070648,-28.302195099626598,-4.605147472401669,22.38389765551308,0.01666666753590107
313,5395.0,0.4358690591804683,-0.9310172596730292,-0.294239788901899,1.6002244615416974,-3.4979284793578085,-9.687089792057964,-34.08037633555918,-4.56271278774885,23.943101776980054,0.01666666753590107
314,5412.0,0.27940491560259834,-1.119508691027388,-0.25349746241327376,1.4279915978805162,-3.629160730920359,-9.66374575961586,-35.74987264419623,-1.639663109559489,23.77972535958064,0.01666666753590107
315,5429.0,-0.2296209305296652,-1.3360910753563047,-0.002382191276543017,0.9109937499557621,-3.758447693634033,-9.43644683287441,-35.191723245601125,5.654662387434781,21.5268643014801,0.01666666753590107
316,5445.0,-0.18501606512768193,-1.4208682305403053,0.08165139697943814,0.9638158240829594,-3.788225576782226,-9.365368587781441,-33.04051760046518,11.028320547131484,19.988400049427867,0.01666666753590107
317,5461.0,-0.19022400903431697,-1.608925727456808,0.10622178374556825,1.018882462266553,-3.857059020642191,-9.362375826573093,-23.606137809372058,23.79002528484902,9.569762678179233,0.01666666753590107
318,5478.0,-0.45745611015371973,-1.7944740180313585,-0.026523514144879298,0.8366237695556134,-4.008342345782369,-9.491962368171674,-7.7516320616926,36.238787830269494,2.5323639248816896,0.01666666753590107
319,5495.0,-0.3513761277653277,-1.8780515881672502,-0.14184391767624766,1.009305637359619,-4.093336650848388,-9.59760601181928,4.1010312734437155,36.43012533458365,-5.381117580044002,0.01666666753590107
320,5512.0,-0.5522353481857106,-1.4298815580792725,-0.4097505022574216,0.9466075179168953,-3.695300624847412,-9.832687016119435,23.35562525363621,32.9069942323806,-28.449467638510413,0.01666666753590107
321,5529.0,-1.011873368955776,-0.9768616037420927,-0.5746348115203902,0.5433340661864727,-3.272424756622314,-9.98112755558174,24.247303034686787,15.400020691438579,-52.136203387635916,0.01666666753590107
322,5546.0,-1.9545345238670706,0.012367500230012228,0.1857209802603349,-0.2750339157104492,-2.3139958645834646,-9.191788830422796,17.804447062316292,27.06794235056486,-63.35281858980631,0.01666666753590107
323,5563.0,0.6582903057307005,-1.3975919843710958,-0.5673078296331688,2.412756723022461,-3.738096979522705,-9.927557293435745,17.699849545366714,29.53357063150047,-49.324419412016766,0.01666666753590107
324,5578.0,1.2559586772382259,-0.6671044574357569,-0.5700004662506282,3.1016882507324217,-3.0364462554931637,-9.905410672350973,3.337516229196313,1.6718041655245706,-0.3659477152683845,0.01666666753590107
325,5595.0,1.7066199396200477,-0.5808742904318496,-0.6684594522412866,3.5235166557312008,-2.9483096703460436,-10.010007722705229,-6.157753631130411,-18.227684856878007,16.68710666127766,0.01666666753590107
326,5612.0,2.088251066526025,-0.5294703394742682,-0.913816534025222,3.71714786112681,-2.8483518240997565,-10.302100252179056,-27.052024594704143,-63.37035168540574,34.60936424149292,0.01666666753590107
327,5628.0,1.8633922175653277,-0.41660635950155556,-0.7268333883419632,3.343502618408203,-2.6874912904601542,-10.151414746801555,-35.67957292216387,-77.64063176736752,40.52235804371592,0.01666666753590107
328,5646.0,1.6579935636170207,-0.47447033678609873,-0.056960297309933225,2.8911481422424314,-2.648735114553757,-9.539696323096333,-46.72573050831284,-82.68732194130655,50.27011374411839,0.01666666753590107
329,5662.0,1.2322602601341903,-0.3684338282132521,0.674161024883762,2.131138679681346,-2.365920189578272,-8.884732942431793,-61.12427812779289,-77.73882256687563,59.74203908507907,0.01666666753590107
330,5679.0,1.0906127783454953,-0.20158431982453912,0.9226832927003502,1.8427870903015136,-2.09043743412178,-8.670900879724323,-66.85775065296586,-66.90419593932195,57.22212616816749,0.01666666753590107
331,5695.0,0.48145895356442775,0.12741983540123328,0.9517406064890325,0.9958382530212402,-1.5189712609664536,-8.702025355175882,-70.4818558567638,-52.02001503966483,38.22571035039372,0.01666666753590107
332,5712.0,-0.032331184360198675,0.37068157060742374,0.7013053446579725,0.3464110527038574,-1.0898108143128453,-8.988581147180124,-69.33390596295976,-42.887720855183034,25.542819165508956,0.01666666753590107
333,5728.0,0.16616214717905967,0.5559393172701821,0.8235144779399037,0.4212298545837402,-0.7167641585418955,-8.89685307687968,-69.61169658669334,-42.97548195582853,19.494413447895866,0.01666666753590107
334,5746.0,0.2766401635969989,0.7296982031885534,1.0799215076569466,0.40402151188505814,-0.3541922080993652,-8.665813128131255,-69.23746369187917,-44.843354278719424,15.334968262236085,0.01666666753590107
335,5761.0,0.21818682385087013,0.7348504713851958,1.1741341613147407,0.2651578292957274,-0.22355858001708984,-8.58545773491226,-68.30064177550939,-41.70211612848471,10.531460143506198,0.01666666753590107
336,5779.0,0.16460326383188367,0.32362244392111894,1.199790288357809,0.07661446225815452,-0.34910445650629696,-8.58336251619868,-57.16444522062673,-20.199611696679465,1.6840363939978287,0.01666666753590107
337,5795.0,0.16849407899165525,0.034159979823092,1.0836499535955488,0.05072715680771507,-0.5425859420997556,-8.705317090197653,-50.68182388690842,-15.086193989644004,0.662674291423893,0.01666666753590107
338,5811.0,0.1761273320827633,-0.35334578387048093,0.8515276895031333,0.022744915771484374,-0.7776666267395019,-8.944737694604694,-36.11377146279617,-6.579678748711016,-6.574401573803535,0.01666666753590107
339,5828.0,0.15806571528930216,-0.3370672145688906,0.6683310766212642,0.001197100830078125,-0.7055413017272949,-9.130138539532572,-28.689103117993017,-0.682431520732654,-11.068130304708903,0.01666666753590107
340,5845.0,0.15323716262169182,-0.43767552408054466,-0.33229269364345815,0.012120645904541014,-0.7481880553314462,-10.133009796463138,-17.521123985354993,8.241987563907093,-14.993866907538356,0.01666666753590107
341,5862.0,-0.036812167982442766,-0.3393553620386868,-0.5972441547460854,-0.11731588363094488,-0.621145693206787,-10.399514332226664,0.4481061398037638,12.62582324682201,-19.339748936782804,0.01666666753590107
342,5878.0,-0.003331872381802532,-0.34598672634456307,-0.7212992081556469,-0.07347206059193413,-0.630722481581103,-10.523563540417328,3.053834353860177,10.708251052435516,-19.73054162523967,0.01666666753590107
343,5895.0,-0.15205266554486005,-0.28837668728847055,-0.9030509559914469,-0.20111293488654772,-0.6046855567932129,-10.704475914819538,11.026920358351632,2.163046204948991,-22.349009049232656,0.01666666753590107
344,5912.0,-0.422542252356559,-0.14092044615577906,-0.8558203451957553,-0.53974282762832,-0.5337573326110839,-10.6538983316835,15.817150589335013,-1.7625508058893005,-29.527160498964413,0.01666666753590107
345,5928.0,-0.5185374420495703,-0.20469667969141153,-0.7090197914928198,-0.6383540267723147,-0.6289268486022949,-10.505756884765624,16.977184795328103,-2.902336489201063,-30.278761345421785,0.01666666753590107
346,5946.0,-0.5171403251353651,-0.3444632065717131,-0.5491647085687146,-0.6382043983017094,-0.8007108542511239,-10.344447511379979,16.968471181494458,-1.3947681709725626,-28.061371167228412,0.01666666753590107
347,5962.0,-0.4123345639338717,-0.6538900249451398,-0.16595464190822093,-0.6540659477676265,-1.3702315376281737,-9.94341887943428,13.196488967071161,3.169540960051366,-24.214188570043273,0.01666666753590107
348,5978.0,-0.28630242003137246,-0.6160484431330114,-0.08565016602571122,-0.5642834037780762,-1.4751274978637694,-9.850643629035307,6.484061649859538,2.490621864099391,-22.657796778967054,0.01666666753590107
349,5995.0,-0.01370623345390777,-0.8379806640572846,-0.047122355515090746,-0.28341362037935175,-1.6971897018432616,-9.812336183277099,-4.711006439913581,-0.34288945019767103,-14.38052958044955,0.01666666753590107
350,6012.0,0.24484116815105078,-1.1062771612714974,-0.12995074211833998,-0.03486556167602539,-1.9265841484069823,-9.898228049104194,-13.872062977877123,-5.959863414081277,-8.231710690527164,0.01666666753590107
351,6029.0,0.2768653689213097,-1.0900490069828928,-0.15563963891984894,-0.01631049880981445,-1.881393592071533,-9.925911334593314,-16.53595799003986,-8.691186053730384,-7.334051371310945,0.01666666753590107
352,6045.0,0.1854712432829663,-0.8720040027555078,-0.31678861584570256,-0.13437453164365143,-1.6163853958129881,-10.089913947384618,-17.395317023485234,-10.628533353311358,-7.748281853904709,0.01666666753590107
353,6063.0,0.07227179797792341,-0.6063660937586799,-0.43632586303725834,-0.27922375491599083,-1.2990040747711433,-10.212168052319436,-11.33386991342565,-7.813027778368198,-11.403463564652556,0.01666666753590107
354,6079.0,-0.0544566393593559,-0.48620457718893884,-0.523196994825825,-0.4128501350734615,-1.1679215704102068,-10.299556485980377,-4.630897712459441,-3.2733246172726522,-13.532858708221363,0.01666666753590107
355,6095.0,-0.13763755202759057,-0.37737588061429556,-0.7492359204165637,-0.47749359359741206,-1.078138862023875,-10.524910351916402,10.138883921902314,7.89007060465865,-17.09657479447263,0.01666666753590107
356,6113.0,-0.07955619653216563,-0.30732038414608687,-0.7253583473533392,-0.3956418517402839,-1.0362403695037588,-10.499771380615234,16.189932068950554,12.856441169052907,-18.745754705423476,0.01666666753590107
357,6128.0,-0.1629435869913548,-0.14381458756155333,-0.5438749315975233,-0.41748891448974607,-0.9690531128150877,-10.312425210305861,25.12643717332664,20.121342851432996,-23.23525341479849,0.01666666753590107
358,6146.0,-0.17157131274621934,-0.05701653470892924,-0.430592762745358,-0.38322190322875976,-0.9334393768199952,-10.195707806308008,27.94042559250041,21.563711464505023,-25.029713156942798,0.01666666753590107
359,6162.0,0.0753255184261594,-0.00622210822237248,-0.25759300636490806,-0.04863222122192382,-0.9864111028215061,-10.01434704881748,26.70850535304023,21.27829664211041,-21.83955719187245,0.01666666753590107
360,6179.0,0.436075176211819,-0.2596598027016036,-0.2584074828192591,0.38726212309685065,-1.3198037199600599,-10.00746337198466,18.627344838424843,16.170080124127914,-14.921116855141259,0.01666666753590107
361,6196.0,0.5059021611537784,-0.3244563739946112,-0.30307945864070207,0.48243164137135025,-1.4133271309783682,-10.04906310075391,14.66180530820714,11.142521310054097,-13.258247537546417,0.01666666753590107
362,6212.0,0.4871128146076575,-0.2581426761369221,-0.35006274361182005,0.4884171293960149,-1.3789105003799311,-10.092458005844243,4.572969597448093,2.9416397455628434,-8.494316096188522,0.01666666753590107
363,6228.0,0.5340919348603114,-0.21206985707422718,-0.3595004705753177,0.5394435678329987,-1.3355156683548353,-10.101585936206206,0.528795273254797,1.2827041900431055,-4.622077803806839,0.01666666753590107
364,6246.0,0.583178073862195,-0.2758593519502319,-0.6377892964284867,0.5904699810111022,-1.3950713981186038,-10.380360499749704,-1.8597533624018676,0.5657087638198665,0.29982131886018537,0.01666666753590107
365,6262.0,0.4644587919900193,-0.20328869432331992,-0.7030773227665573,0.5729623847961426,-1.3447931632553227,-10.442459959179535,-1.7880160989926352,0.06988203328624748,1.6921440419860454,0.01666666753590107
366,6279.0,0.48431613309383387,-0.05579065987551585,-0.6466271212700754,0.5912181633216794,-1.1920131698166019,-10.386645132977142,-0.7159783683671419,1.4440918484552807,5.37708862220734,0.01666666753590107
367,6296.0,0.4749875655932352,-0.007758418407314457,-0.6407993649646639,0.5874772323608398,-1.1460743934963131,-10.380509918157756,1.7995855856729905,4.53611731178129,6.075437898800709,0.01666666753590107
368,6312.0,0.46059312953781334,-0.022788869077642448,-0.8433946519300342,0.5936123558486811,-1.1828852988201426,-10.580276703698933,7.8601321779791915,5.999709883925486,5.415007271158313,0.01666666753590107
369,6329.0,0.4406460643239319,0.17849685595938936,-0.7713166001256555,0.5828384757774416,-1.009455329762306,-10.504709640735015,6.360911204690093,1.5524749977523356,3.965040499521469,0.01666666753590107
370,6346.0,0.34579478396903723,0.26995180840687827,-0.4452367165824398,0.4885667671424802,-0.922665519581642,-10.17805049599912,5.064256993597471,1.042826345566671,3.332987600333183,0.01666666753590107
371,6362.0,0.31691070785541087,0.1506262586040888,-0.2447915751219727,0.45938745267563497,-1.047463290250441,-9.97693783054063,-0.9185038826243336,-0.5704676981240728,1.0753947152417016,0.01666666753590107
372,6379.0,0.3360983695367351,0.09491977901384234,-0.22573588752355425,0.4762965019004885,-1.1005846487183124,-9.958232856076023,-1.4909678636159014,-1.5065485923297584,-0.10591014723994081,0.01666666753590107
373,6395.0,0.29632499767811965,0.10762473674551583,-0.18310816741343586,0.43200376205444335,-1.083675517295068,-9.916184981680475,-1.3410349660503664,-1.7982357695382667,-2.7447956146737797,0.01666666753590107
374,6412.0,0.2279360096500255,0.10501354046696797,-0.13905196713646872,0.4086602958679199,-1.0586860283340327,-9.87473516450962,-1.050261966973582,-1.3006547809555453,-4.969429635368776,0.01666666753590107
375,6429.0,0.20180059292372315,0.11336346306060441,-0.04561740344539284,0.385616104888916,-1.0443207909736316,-9.781959941510111,-2.13589342823384,0.9760206921815995,-7.558639090278366,0.01666666753590107
376,6445.0,0.2634566559676081,-0.09387198699396103,0.01434912419252796,0.45893853073120117,-1.233462804324366,-9.723900124276348,-6.473555111368767,2.8828659677548836,-7.527084470086553,0.01666666753590107
377,6462.0,0.29902408230267463,-0.22212922306740654,-0.00146839776035049,0.5026327110290527,-1.3470377273117191,-9.74125844593044,-8.208357419981244,3.730704819947971,-7.8206630760866265,0.01666666753590107
378,6479.0,0.3253893439957872,-0.24841696254489942,-0.12412207249747588,0.5430348640441894,-1.3492822548354975,-9.866355422166455,-8.353544189847266,4.5143964564470025,-8.798217679345422,0.01666666753590107
379,6495.0,0.24980328407045452,-0.30690650611557063,-0.287665671208594,0.4975450325012207,-1.3851952980041502,-10.031705193516705,-3.8171532436123528,9.185486843964206,-10.664863129506656,0.01666666753590107
380,6513.0,0.29836857753600926,-0.3251076775101945,-0.44456447987668213,0.5681739997421391,-1.400159094912745,-10.188375454125925,-0.7180781179283918,11.204285003171229,-11.417380928860103,0.01666666753590107
381,6529.0,0.2851378514977172,-0.3445279423709959,-0.5507530737387016,0.5991489654541016,-1.4233528869628906,-10.292822757278568,1.8166508133142674,9.711975754435361,-13.270164510100797,0.01666666753590107
382,6546.0,0.37155433485396205,-0.38138347228784114,-0.5720938218006864,0.7202057868957519,-1.4612112372467294,-10.312874050051905,0.16594003285484157,6.840500621225354,-13.546592511094968,0.01666666753590107
383,6562.0,0.4045199811927974,-0.4228518662950024,-0.6026599327171221,0.7603087012359871,-1.5020623030731453,-10.343250191354192,-0.19377059912341058,6.338211924757202,-13.338279425372395,0.01666666753590107
384,6578.0,0.5137051265222952,-0.5820890365164727,-0.6747378018584101,0.8942342835357412,-1.659181750488281,-10.414627803271635,0.6721347437545954,5.2041636003482505,-11.033668585251604,0.01666666753590107
385,6595.0,0.633386896751076,-0.6937425081882626,-0.7861327687244862,1.0326491035461425,-1.7781436454772948,-10.524461512170358,2.7643135205573257,3.651108783568404,-7.398261979698235,0.01666666753590107
386,6612.0,0.6459770598635077,-0.7025051489017904,-0.7757346357636153,1.0521020285675302,-1.7904139289855956,-10.5133882564269,1.9707800083511289,2.791199706451435,-6.148719852179423,0.01666666753590107
387,6629.0,0.46642720598615706,-0.5270394955981522,-0.6882607888415455,0.969801309967041,-1.716044039916992,-10.40953961328715,1.542435580167769,0.5060666982136689,-3.9174584135553983,0.01666666753590107
388,6646.0,0.470900040551275,-0.5312823207996785,-0.6563618949513882,0.9756371765136718,-1.7268179473876952,-10.37676919725947,3.054345337387458,0.3066663423473018,-1.1955916372036457,0.01666666753590107
389,6662.0,0.3735881057038903,-0.5244246003920212,-0.5479458708308637,0.8822633117675781,-1.7357962401458993,-10.266186935015767,4.560052002180306,1.397715504321129,2.702067445330061,0.01666666753590107
390,6679.0,0.3914029081294313,-0.5146482891239226,-0.539993560119532,0.9009680487701669,-1.7338509878296404,-10.257208788388036,3.9115383470922898,0.6801862561255709,3.3264116222663414,0.01666666753590107
391,6695.0,0.08252132994807325,-0.3162497231960296,-0.35247323881965126,0.6040869972450192,-1.5931915672302246,-10.061632586404494,1.8193916401621466,0.8099381324886867,2.686130266118894,0.01666666753590107
392,6712.0,0.049270272530289365,-0.2644701073264703,-0.40186603261791165,0.5750573203819338,-1.5454572812287135,-10.110264917224272,1.5282775585136845,2.307132033698172,1.287376679765629,0.01666666753590107
393,6729.0,-0.15690562200136482,-0.20582959271147847,-0.5806765759026631,0.3802291511535644,-1.493383285522461,-10.287585514212212,2.967594464408892,5.312720065695494,-1.6354664919230448,0.01666666753590107
394,6745.0,-0.1895909352951683,-0.20844264302039517,-0.7054214016746729,0.3474584976638667,-1.5312415444747545,-10.407594543633982,5.193790677433117,10.113128132315842,-3.587705418163645,0.01666666753590107
395,6762.0,-0.15166728295646606,-0.25990479043861847,-0.7468598389349878,0.40581718139648437,-1.5916950998610815,-10.446649885150045,5.047726655145571,10.755601338856629,-3.8000735018190896,0.01666666753590107
396,6779.0,-0.14172287597930988,-0.3892645078612491,-0.9459761977434158,0.4553472008415032,-1.7350479790618643,-10.641478191375732,3.530477397542224,10.46383956317578,-2.5579730788444177,0.01666666753590107
397,6796.0,-0.21924659856949,-0.4939616575891152,-1.1757804672170429,0.41689040060732513,-1.8559550898345185,-10.866533220495656,5.985662319236885,9.978289952816036,-2.052602046069885,0.01666666753590107
398,6812.0,-0.1830960203179158,-0.4234139936897903,-1.3335858145371078,0.46836568150175734,-1.7989433454651385,-11.021408359582722,8.014836816453625,7.415133400721813,-1.8188832179558037,0.01666666753590107
399,6829.0,-0.13978503978452644,-0.2825764948434196,-1.3737965366333722,0.5291185760276857,-1.6901567892654799,-11.055824716186523,8.819889869581873,3.345126127148765,-0.6136828919721253,0.01666666753590107
400,6846.0,-0.17061034049326554,-0.32346506140232084,-1.2922183236211537,0.5030816055740229,-1.7470190238952636,-10.971578745269774,8.750172421176261,2.3442564597147184,-0.1926624676316421,0.01666666753590107
401,6862.0,-0.23774247859437017,-0.37274281398616727,-1.058362148408219,0.43948567877504974,-1.8260276056151836,-10.733056331811472,7.454408695996679,0.19539068797802586,1.6848011617414587,0.01666666753590107
402,6879.0,-0.18877404768802225,-0.30449564558155834,-0.9983937827229499,0.44592005920410155,-1.7956511720519512,-10.670208611297607,6.883387379023865,-2.3095266553324962,2.734884156414445,0.01666666753590107
403,6895.0,-0.17241161776157096,-0.23381642772443592,-0.9656794807966798,0.43679214710844677,-1.7503109781127422,-10.63519363121353,7.116096619801254,-8.526473480574587,4.918849950130716,0.01666666753590107
404,6912.0,-0.19677571396641433,-0.20973777913115918,-0.8959311871141195,0.3947439987182617,-1.7416319970946759,-10.564115550231932,8.704551880162454,-8.873900444217394,5.417720990692923,0.01666666753590107
405,6929.0,-0.2915357723738998,-0.171464454838261,-0.666718088466674,0.2793734062194824,-1.7503111242432146,-10.328586108044535,15.543282201732305,-1.8288723696169473,3.625606564754869,0.01666666753590107
406,6946.0,-0.33123485515359785,-0.10225169280450791,-0.5525353175129741,0.24510639495849607,-1.7348983414581045,-10.205135158007964,21.518258263125883,4.424347242429555,1.8311577082245514,0.01666666753590107
407,6962.0,-0.19164868980888275,0.002555760028450459,-0.4975065271217376,0.39713820037841796,-1.6722001378191125,-10.14213758069463,23.744346687227267,8.156677647399988,1.76012800972465,0.01666666753590107
408,6979.0,-0.02893982945543248,-0.06406590523116756,-0.31874212453365325,0.5963058464160887,-1.8236334450542226,-9.945962609100341,21.99434806148516,11.5892797147964,5.4167289057159795,0.01666666753590107
409,6995.0,0.031299635655642484,-0.15497343009607867,-0.29480588008575137,0.6745663405819097,-1.9518729217086916,-9.913940088830515,19.607765559814105,11.29676832585414,8.39056040005415,0.01666666753590107
410,7012.0,0.2510730300116353,-0.26231840918529775,-0.3488726570444181,0.9171288551772944,-2.1236569090912116,-9.954192859970219,15.646950812954758,5.919525597503651,12.696972473632387,0.01666666753590107
411,7029.0,0.35181543249804526,0.26017354264371095,-0.3080934508778155,1.0090063986847178,-1.6518494348388164,-9.904064226178079,11.997306678076498,-3.6173953967120442,11.880695712150517,0.01666666753590107
412,7045.0,0.3405653223503381,0.3494061793992296,-0.2262117431406863,0.9910498497009277,-1.5737386422088369,-9.820416677812206,11.569350930345594,-5.122566745428693,11.675988112536064,0.01666666753590107
413,7062.0,0.3982591306997463,0.32491533327586947,-0.05997430223571136,1.0694599175384267,-1.5798738935608416,-9.656413864091503,11.50909585526139,-9.2704236613879,12.041333223692755,0.01666666753590107
414,7079.0,0.6253101194098591,0.13828449902846476,0.14830084786382502,1.2603975364685058,-1.8086696527122053,-9.442132751575437,9.770770876584477,-6.138721735894993,9.58289200931129,0.01666666753590107
415,7096.0,0.3503779470408335,0.23270874047717077,0.2166589566964656,1.0327987776825205,-1.7049709485703146,-9.372401600823924,4.550541390647887,-0.08350441202890818,11.11884616684354,0.01666666753590107
416,7113.0,0.28921401489544657,0.4004823962397873,0.36173436710722745,0.9723451857635751,-1.5439607955932617,-9.225906386743112,2.5171855369986287,3.4824590332429186,11.436671944397158,0.01666666753590107
417,7129.0,0.33363278314080086,0.4429663239650428,0.4085704256273806,1.0301052277496083,-1.5107411014281213,-9.176226629229635,1.93042404908352,7.052802110536391,10.165676192695335,0.01666666753590107
418,7146.0,0.4778374385990202,0.538314411393553,0.3625152883518487,1.1935095275878906,-1.4251485382080078,-9.218873419366403,3.5881075455510296,9.772323890847009,6.759066837072232,0.01666666753590107
419,7162.0,0.5058086011188104,0.5544430873630568,0.3328826954258606,1.2395979460785165,-1.4176666945526375,-9.24535953096021,4.5968095189723766,11.490021698230482,4.7426050294481765,0.01666666753590107
420,7179.0,0.45124308085776865,0.5305035184469074,0.4301671942770481,1.3105261337280272,-1.3946225401062518,-9.147197080230713,5.170586817275291,14.062102746248971,1.67642489521979,0.01666666753590107
421,7195.0,0.4231041240230202,0.51981549916137,0.49349751067608594,1.3079823675293474,-1.4136264061858876,-9.079860450799762,4.450730555646022,14.411285922282119,-0.1371541205565435,0.01666666753590107
422,7212.0,0.32731976406909524,0.5130127238113433,0.5349869109386578,1.2692261550903319,-1.4339770837645978,-9.030180729818902,4.2293747968164865,16.184515728938734,-5.012282669108259,0.01666666753590107
423,7229.0,0.2760144146477803,0.3153569025421515,0.5055701161878183,1.3423989067962392,-1.6051625389983877,-9.051877743972652,5.1541614929818795,22.404557270205075,-8.856726787323044,0.01666666753590107
424,7245.0,0.21958008657386524,0.20605368379093705,0.5148803077815101,1.3096282898391596,-1.7181388933043926,-9.039158620718307,5.148027983107208,24.549547443196314,-9.283361747223196,0.01666666753590107
425,7263.0,0.12410860109454952,-0.03644163362002,0.4780416924668476,1.326537421262404,-1.9695301954849622,-9.060706727920659,1.3773046579253094,31.10347595184956,-11.70134689737703,0.01666666753590107
426,7279.0,0.03443912327474682,-0.04959870076705701,0.23758657564660532,1.3483845639269683,-1.9786581532463896,-9.287257822550925,0.39953031467430916,22.150482770817064,-14.031241390257916,0.01666666753590107
427,7296.0,0.01826823728995514,-0.13848291681054978,0.2085916778359562,1.3760674327159126,-2.070236138418503,-9.309554099505768,4.445138338263074,21.95576603041105,-15.323508912356097,0.01666666753590107
428,7312.0,-0.27028538774279876,-0.20281839166413992,0.3195632681908086,1.1994950500045902,-2.1529858063628895,-9.178172173806837,9.183144942852538,31.135349029611426,-16.930884650491876,0.01666666753590107
429,7329.0,-0.3474379115335643,-0.42895263085551555,0.3879786327691748,1.2231379192627965,-2.395698109259084,-9.090185262796096,8.155670194497413,35.63953435324926,-15.567814533683698,0.01666666753590107
430,7346.0,-0.41987664987649764,-0.5382091974534094,0.3067324647229165,1.2202945490630344,-2.511517541503906,-9.158270335974171,5.407861185739187,36.271203908070376,-14.129668685066031,0.01666666753590107
431,7362.0,-0.49374081791266794,-0.645030353597924,0.09910761349196545,1.2822446266174317,-2.612971763787791,-9.34247397960727,-2.817755695387856,34.2246640817757,-12.78628488099312,0.01666666753590107
432,7379.0,-0.6457761304639279,-0.7229561815824359,-0.20771909625250845,1.2437877624511717,-2.6473885587830095,-9.636212659719773,-13.841101730369454,25.656900400121096,-9.625685705782358,0.01666666753590107
433,7395.0,-0.7009951827302575,-0.9170270205043256,-0.6717339438673109,1.2265794380187987,-2.81079289515391,-10.09874282173477,-15.984126516427022,17.779421249197362,-8.14548723621857,0.01666666753590107
434,7412.0,-0.7463347190823405,-0.9336179436907172,-0.916850056502223,1.1445781042236833,-2.8471546867370603,-10.347290662384033,-15.606422177967195,11.491304066247151,-5.820922425324409,0.01666666753590107
435,7429.0,-0.7706476878881454,-0.9215806652206927,-1.223434052665159,1.138891802215576,-2.788646310601756,-10.659434630761668,-4.667907519363978,-1.8164794182547823,-2.9071152737425443,0.01666666753590107
436,7445.0,-0.8700126097425818,-0.7598633320886641,-1.3123963115140795,1.031003089904785,-2.622399078955129,-10.751013209588825,-0.8226622413038915,-6.735134707994153,-4.805232314608492,0.01666666753590107
437,7462.0,-0.9637371876224875,-0.38251791967786847,-1.0587222869575024,0.8946832328796386,-2.253692023291066,-10.504110871124267,6.0740206345479315,-17.004666061453648,-7.97938130447209,0.01666666753590107
438,7479.0,-0.7664754437047988,-0.3339971594737842,-0.5784234997462481,1.0387841722350566,-2.224063595083542,-10.030358144555613,9.269973722676326,-23.992933129617175,-6.3279073037337685,0.01666666753590107
439,7495.0,-0.6713137456938624,-0.38295934330243614,-0.5146256023680791,1.0890624801635742,-2.2858640715667975,-9.972448720694146,7.397339050386638,-26.78706106623184,-3.6869617271822706,0.01666666753590107
440,7512.0,-0.5373949219284578,-0.5485020434089005,0.32280699935238805,1.137096187503077,-2.449717211151123,-9.150937910726853,-6.49319702787443,-21.055844211032262,2.8657339323257873,0.01666666753590107
441,7529.0,-0.08912438147491775,-0.8290419361244886,0.312452121011354,1.523310961538041,-2.6672903600830584,-9.184456807034277,-27.178101349046116,-13.499979885104215,10.823749551300432,0.01666666753590107
442,7545.0,0.1329450194303412,-0.8312922723345458,0.08461052077966742,1.7280149477530735,-2.6996120094299316,-9.409362353814068,-37.78995794172524,-13.558678530831305,11.447210072512842,0.01666666753590107
443,7563.0,0.25532692459644746,-0.9113205524910241,-0.036423645872180346,1.8149543681380338,-2.659359567083791,-9.559149152219598,-49.12040507660307,-10.351798847578182,3.5018862256765506,0.01666666753590107
444,7579.0,0.05541084394480567,-1.2520770134992896,-0.5700334552047774,1.5833154077502665,-2.8259061470031734,-10.12822132007759,-44.848005637544205,-10.132026411975621,-4.393698049189592,0.01666666753590107
445,7596.0,0.4217898996192962,-0.2797076796751469,-1.4220366897977887,1.9267337129455058,-1.7540519182067364,-10.999710760907083,-31.49407397991508,-9.057190278141979,-5.48939742272986,0.01666666753590107
446,7612.0,0.4013701753923669,-0.20841434850767254,-1.5571325579859316,1.8873791327545417,-1.6368856013976036,-11.144709598950296,-22.31156082956077,-12.728118136247645,-6.870300309687297,0.01666666753590107
447,7629.0,0.4754814500574022,-0.1965373021006584,-1.1679035232968629,1.9008464074950664,-1.5720926651000975,-10.772411240796,-9.653913170074729,-19.669126271770207,-7.935008980529102,0.01666666753590107
448,7646.0,0.5317800777213648,-0.22337536893729118,-0.8812835069499909,1.925985488394089,-1.5854103022368624,-10.492289354296773,-5.474667266011082,-17.6404508052497,-7.151110730807678,0.01666666753590107
449,7663.0,0.5247804280923679,-0.4805401947516948,-0.3745513977780938,1.930025849826075,-1.8870797479491679,-9.977535851232707,0.7727699505727699,-9.580877957279782,-2.4878189252187473,0.01666666753590107
450,7679.0,0.6906723069626838,-0.35534488526582714,-0.11106509559089317,2.0795137063842266,-1.788319002532959,-9.712528038566653,13.9505350212514,-2.338397438067317,3.268811783221978,0.01666666753590107
451,7695.0,0.7134144462551921,0.12953944877055473,-0.8637033535305411,2.0944776128906755,-1.3461398377570788,-10.459817921215668,26.081823543860512,-4.268084893937534,5.0279062999478406,0.01666666753590107
452,7712.0,0.6072073668884113,0.3294816182781011,-0.8421507893487811,1.967135975558497,-1.245134573950246,-10.425551421411335,40.17697586795588,-8.557147860137116,2.7100348609968807,0.01666666753590107
453,7729.0,0.6169915692020207,0.2843844210482202,-0.5063164410430938,1.960551811395213,-1.3658919923202133,-10.07928978711553,42.351701269498776,-9.198148307138117,-1.2341339678032044,0.01666666753590107
454,7746.0,0.7276139442604035,0.047704164857883,0.4289547132147476,2.059312629876658,-1.7132009071792476,-9.125948723159917,22.806385836813387,-10.687475324527629,-9.144879661801188,0.01666666753590107
455,7762.0,0.8562970227967948,0.06820487733257469,1.1212446479745208,2.14894570065923,-1.6766894094936782,-8.441954907580465,-17.44439364021907,-15.58901031822554,-18.501508848251113,0.01666666753590107
456,7779.0,0.7392582778900861,-0.05892446895579342,1.1847796931654213,2.0049942527770996,-1.747467923006811,-8.392125731658934,-32.085827909226644,-19.393881601049742,-19.209500644405246,0.01666666753590107
457,7796.0,1.0093458963047712,-0.19221700948243958,0.2819639159030281,2.208351756286621,-1.7281647406204603,-9.329156497734132,-42.34299277830701,-21.081693061946176,-12.668581938573583,0.01666666753590107
458,7812.0,1.0931630473501979,-0.35164128150753676,-0.18289879897907374,2.2438158683776854,-1.7797897321838885,-9.816526227978617,-35.79002391123215,-18.315531334888128,-8.327086598323575,0.01666666753590107
459,7829.0,1.1242077355638145,-0.20111399889905004,-0.8045582138616592,2.2246623281616715,-1.541267355258204,-10.456675823797658,-15.167372495476897,-12.183039158403009,-5.781722262130413,0.01666666753590107
460,7845.0,1.2476444378793239,-0.09356035462836734,-0.9859979000736028,2.331353793511912,-1.4220061759285163,-10.641627902044728,-2.8333889311809575,-9.320780084817466,-4.876677373987295,0.01666666753590107
461,7863.0,1.138615542557463,0.031365540498704644,-0.9274065218299626,2.20236625213623,-1.3242928435062755,-10.581473512268065,13.107360974818018,-3.6566877674598355,-7.5044082420421105,0.01666666753590107
462,7879.0,0.8868255051165819,0.05719838038212619,-0.6281088102176785,1.9514239175658672,-1.3114239684837403,-10.280252723638712,15.337630328465098,-0.3574169957580237,-9.172103088285567,0.01666666753590107
463,7895.0,0.4005395697871223,0.09642115088696591,-0.07586550248779822,1.495927161318995,-1.3355155861564445,-9.71537088361003,20.148176957134684,10.460118817625416,-13.983535080226316,0.01666666753590107
464,7912.0,0.39988797401059417,0.07542050323323346,0.11931189573677256,1.5477017722198738,-1.4223054876686538,-9.504082893061916,18.8424377406723,12.24187184659256,-13.652815613067006,0.01666666753590107
465,7929.0,0.4689999790836125,-0.13761301124137826,0.2892566849933937,1.7281647588867692,-1.6956932253409642,-9.310601160873286,15.957522929609823,10.870601233912135,-12.345839278591201,0.01666666753590107
466,7946.0,0.4761676056906581,-0.23836963404938577,0.38071149131041016,1.756446192932129,-1.817647972869873,-9.212887878683395,12.347486207954821,9.853741453300852,-10.211146469547403,0.01666666753590107
467,7963.0,0.4829145957328379,-0.42374771915618326,0.3632392917774617,1.8094179046630858,-2.031629782778956,-9.219322551373391,3.3854270180161903,8.820157954506795,-2.4132755212776975,0.01666666753590107
468,7979.0,0.48578138334080573,-0.6061025474516675,0.07181221307558007,1.8351555725097655,-2.211494109432958,-9.507973151099263,-2.747736224554882,5.362623562205723,2.1478511684798285,0.01666666753590107
469,7996.0,0.3672461527986452,-0.7295130558799952,-0.16084995744666084,1.7247231305329127,-2.3288101003784685,-9.74051023393711,-4.121417680568911,5.144063485180839,3.738140761519999,0.01666666753590107
470,8012.0,0.27903029187023637,-0.6396625429544598,-0.46666638503689317,1.6889596336364745,-2.3030722864013162,-10.027814268759078,-3.4796321887001795,6.869934467679879,5.750644474520032,0.01666666753590107
471,8029.0,0.25170533656580374,-0.6756222565427422,-0.6722070412717759,1.667262308955472,-2.337339370727539,-10.23281774937734,-2.7593562973237775,7.303589581386335,5.8926125177396855,0.01666666753590107
472,8046.0,0.28156777445860204,-0.8423704234488308,-1.1178259986374526,1.724274035058543,-2.50912333984375,-10.673500419384613,2.13617197188593,9.91385309441249,8.833449502631641,0.01666666753590107
473,8063.0,0.4080249205738306,-1.0166057312399148,-1.592783132559806,1.8775030143737792,-2.710386063031107,-11.139621920422464,7.981585748026712,8.311867229305495,12.981102366689393,0.01666666753590107
474,8079.0,0.4281101521493867,-0.9930566594786941,-1.727710950704664,1.9047370947906745,-2.708889540863037,-11.269507068224996,10.802686101673759,5.898660223362909,14.192608024494051,0.01666666753590107
475,8096.0,0.5028202694904059,-0.8589576203081757,-1.5748172677583991,1.9800048460144548,-2.6220998037476093,-11.107898748425393,9.510479197504461,1.8931062433360977,17.39893702374534,0.01666666753590107
476,8112.0,0.4369872130228206,-0.8246497655801475,-1.3165434943214058,1.9089268746307118,-2.6050410438537597,-10.847230188806355,5.832912822412366,-0.12764585690165106,18.703578287298647,0.01666666753590107
477,8129.0,0.4143844822010025,-0.8918754089172929,-0.7694632273439318,1.8589479149749502,-2.686593610968068,-10.301650974041596,-2.164676272283097,-6.248159722531992,20.970241450164494,0.01666666753590107
478,8146.0,0.411145938671194,-0.9346602192852645,-0.4501897724125534,1.8119617073943837,-2.713378595910594,-9.99190113425888,-10.829776339469321,-7.718695181967506,24.8797717216408,0.01666666753590107
479,8163.0,0.37797928986754264,-0.988674206610769,-0.36098658094722774,1.7586907204559072,-2.752434083557129,-9.908403460958786,-12.280551207862342,-6.150518753252075,25.97501646071444,0.01666666753590107
480,8179.0,0.22521873178165405,-1.063813253420964,-0.3543231044700369,1.5963340665070338,-2.8815714086670425,-9.892990860836766,-12.732656796951119,0.7119319615315853,24.899061883404208,0.01666666753590107
481,8198.0,-0.08110541700185277,-1.1259566250577568,-0.17367866028901188,1.3087304002845193,-2.924517327880859,-9.713276390982232,-8.003385150536454,15.814671230666299,17.42677516725502,0.01666666753590107
482,8212.0,0.07360596462455578,-1.1114102133110164,-0.3026221981261857,1.546504534392478,-2.9165865348815916,-9.828497108415235,4.955709492873513,29.74797026954717,10.568293646152785,0.01666666753590107
483,8229.0,0.3912407763702795,-0.9553054593637585,-0.3823061766233295,1.9144634659698232,-2.780565953063965,-9.896432781451567,11.310904256115128,29.638304752233445,9.430338880425408,0.01666666753590107
484,8246.0,-0.2963378936923109,-0.4295179365880787,-0.7255573039915412,1.271620301951561,-2.2988826526917516,-10.223839858477934,17.08525204837604,12.195441928162106,0.7201391275104432,0.01666666753590107
485,8262.0,1.099278972947225,0.07058598204914014,-0.09192083465987816,2.7260977922301737,-1.8661305610546142,-9.56678101250464,20.459237432315405,17.368554634769833,2.11009687095576,0.01666666753590107
486,8279.0,1.4188190429255365,0.17561280668936669,-0.24106970505462957,3.066373776245117,-1.801487038598582,-9.70399862208711,22.49750760707249,10.519784788893707,5.004185479847209,0.01666666753590107
487,8301.0,0.7081851672995835,0.24444075239030644,0.5299890295861288,2.344671540246531,-1.842637470964063,-8.911218469503707,14.67301364863513,-4.043172740984537,6.336583351526977,0.01666666753590107
488,8312.0,0.9018182723913342,0.18338698435481637,0.8278147324170917,2.5333645585875955,-1.914762814242579,-8.611793514782562,10.98558917613659,-3.628942258390774,8.811894279384727,0.01666666753590107
489,8330.0,1.0899746265724302,0.15498042609244583,1.0407575181346387,2.7123312057495115,-1.9542671051025389,-8.397961671270803,1.4404084555019399,-1.7381646826748278,14.438099537416296,0.01666666753590107
490,8345.0,0.9843617502391337,0.14047453815233893,1.2202142138358205,2.581099027252197,-1.9376572854194323,-8.22976871238388,-19.646627628644186,-4.411672545764127,23.412052861464268,0.01666666753590107
491,8362.0,1.1299330544080584,0.22194259618781506,1.0217498891953378,2.6806081068176772,-1.7681179990906268,-8.454824106829985,-34.81088897295414,-7.2695214515799575,30.967425413772077,0.01666666753590107
492,8379.0,1.0670062042433768,0.3487902759905904,0.9635313628520816,2.5974094529967755,-1.5812204858642072,-8.528744644695893,-40.53213887460738,-3.2174585790604135,33.8992499640542,0.01666666753590107
493,8402.0,0.13528221193994394,0.19827378877075388,0.5030974059313535,1.7797896865181158,-1.5448587490799837,-9.006238457489014,-44.24828087747124,10.483436229678192,28.182484081591078,0.01666666753590107
494,8413.0,-0.38760603659711773,-0.019230626323504838,-0.017835361156379802,1.3247417791504412,-1.632845534509851,-9.538050345987592,-35.69862573485362,31.099620310063088,13.90004028649114,0.01666666753590107
495,8429.0,-0.6889626535005867,-0.16512842021714896,-0.24820363032147286,1.0908581314086914,-1.72651878177803,-9.764751324816793,-29.6598847349161,41.92281661604075,8.540878349534145,0.01666666753590107
496,8446.0,-0.2747232788586989,-0.07480359517759642,-0.6321992944017052,1.6675614197662099,-1.5496468692725058,-10.130764757482707,-24.618810684022122,46.66881795705371,6.885818072594743,0.01666666753590107
497,8462.0,-0.10764968852368183,0.04750007082025986,-0.6071241821169853,1.9119196175727526,-1.3839982748058857,-10.096198763275146,-26.706913918963618,43.871944284392704,8.899765516830588,0.01666666753590107
498,8479.0,0.09749120040442794,0.20080787382563575,-0.44180352726336564,2.258181041806005,-1.1324574765854514,-9.914090055227838,-31.607335591826818,40.55625285747211,10.06286647776101,0.01666666753590107
499,8496.0,-0.020799259313137735,0.13639192674751394,-0.3933627004276961,2.2131402349554583,-1.1433810490593779,-9.856030336175486,-32.40886512111698,43.41070160974174,9.071625029179156,0.01666666753590107
500,8512.0,-0.20213572489591314,-0.24518252893462775,-0.5648145515127108,2.152686549421679,-1.444751064300537,-10.008660582412592,-32.059142360139404,48.199948293484645,6.759015183766633,0.01666666753590107
501,8529.0,-0.16639617513064295,-0.22875253193099052,-0.6767459998756646,2.2726960355011747,-1.375319252688624,-10.105775569915771,-30.8984507484387,47.84266451309586,4.196791806267764,0.01666666753590107
502,8546.0,0.027111072808445897,-0.26360737128360195,-0.8502834615956991,2.6129719076349747,-1.3085808266128414,-10.251971435723826,-28.548189485226484,37.117816100977215,0.924304420776967,0.01666666753590107
503,8563.0,0.4207559169290587,-0.3103891971321776,-0.829885255080834,3.1010895176542923,-1.2605471375396475,-10.21516043906845,-26.625482696131435,21.04144787980917,4.275788066660838,0.01666666753590107
504,8579.0,0.5689609306024387,-0.33224063466265796,-0.83932725636065,3.2746692110808566,-1.242291386413574,-10.22129580001831,-23.35269168738769,12.907722229341362,5.376851273133683,0.01666666753590107
505,8596.0,0.32661925111692397,-0.5070162964081392,-0.8257632067147642,3.0509609203947705,-1.3684359229156746,-10.206930370861663,-9.384133504463918,2.1125121966010054,4.824761532992851,0.01666666753590107
506,8613.0,0.36485366817153986,-0.4939083199666813,-0.8525839936230332,3.0746039175171402,-1.3690344002654775,-10.236708254009857,8.900870299928837,-6.42970871199187,8.74027376952162,0.01666666753590107
507,8629.0,0.45210536024291065,-0.4422027922466397,-0.8876709429647773,3.153612389639206,-1.3322236593384296,-10.272771354907379,13.957845884984252,-8.40010644319289,10.312509038151331,0.01666666753590107
508,8646.0,0.5584829738710075,-0.42290918597280974,-0.916483049820736,3.2041900823730973,-1.419761584472656,-10.306738944830371,33.98337398896666,-19.22233286230841,13.9024983008187,0.01666666753590107
509,8663.0,0.6824210498373955,-0.29576466038161886,-0.8222889547329395,3.1980547944884745,-1.4522329627548343,-10.22997470797114,43.883825398453936,-45.77329477950042,15.478181961205621,0.01666666753590107
510,8679.0,0.7799220044508576,-0.3489948221193626,-0.6754202311646192,3.195959941101074,-1.5921441405365242,-10.098143979058786,45.07272910652138,-56.92336686368196,16.578539096873016,0.01666666753590107
511,8696.0,0.9237879660066217,-0.30519752850690857,-0.41652660879623143,3.0988452093262224,-1.7209821721726095,-9.873537826217524,43.225576162477715,-69.01094046805571,21.6937736342277,0.01666666753590107
512,8713.0,0.9153938663445412,-0.32083741631247104,-0.28362342834677545,3.0247745223999023,-1.7791911817688495,-9.749039486019871,42.72224927725572,-70.51216140611115,23.29567156064913,0.01666666753590107
513,8729.0,1.0149177781529723,-0.15306341348998248,-0.20207590273376552,2.8330887519836425,-1.7859247278075665,-9.699360093832574,44.70345151395006,-83.72057929856773,29.206452381581048,0.01666666753590107
514,8746.0,1.084502551836893,0.2195078798541799,-0.08913875706014222,2.5209447836060077,-1.6142905789582058,-9.615113620592327,56.631594842717355,-112.90388075395703,31.989228543795154,0.01666666753590107
515,8763.0,1.0250556527424604,0.3417788993911817,0.018818468750972532,2.2336405843872575,-1.6138416661469266,-9.514557610948424,66.11921595839073,-122.86287712991506,32.79309058268688,0.01666666753590107
516,8779.0,0.9096666478041558,0.4449355782113969,0.3067951546955853,1.6946458625793457,-1.785625525665283,-9.210493713555858,74.48433305001294,-96.42363149433508,30.785875570538554,0.01666666753590107
517,8796.0,0.19529773210203275,0.295516567372065,1.0179007394865154,0.7818564613784663,-2.11901812510835,-8.46873989252299,61.801286478324556,-53.73876384240684,22.099336606764716,0.01666666753590107
518,8813.0,-0.02880181835738476,0.28113955737547947,1.364925978565961,0.48602295984460503,-2.2288520897354,-8.101080446215718,49.835331222312064,-31.653774047993732,12.675432618311106,0.01666666753590107
519,8829.0,-0.616075696466118,-0.2491224987320602,1.4082554172046482,-0.16819263009335844,-2.8845642338074744,-8.027009832354635,26.48859204478604,-13.229141540172053,-4.524448787357969,0.01666666753590107
520,8846.0,-0.0726314981357893,-0.6254893484342843,1.0508579102579503,0.3612251617763424,-3.3048961897034195,-8.372673062365875,4.83853973209606,1.4086935393080435,5.689121545571142,0.01666666753590107
521,8862.0,0.1261346818283666,-0.6987889048576355,0.7440498960807919,0.5578489959495607,-3.370287749481201,-8.681824424798785,-7.671262933276353,2.220996731518553,16.026374651538138,0.01666666753590107
522,8879.0,0.1757489454907365,-0.7544920143138617,0.428532724943012,0.5969044196640141,-3.404105774865672,-9.00399403956309,-15.027845391111878,-1.747295578378077,19.330374502146963,0.01666666753590107
523,8896.0,0.07680041328431107,-0.7745127658184617,0.11982338892286643,0.4610334663169924,-3.3497876169618217,-9.334842726677003,-24.61661990084584,-5.45129051668989,18.864753676238024,0.01666666753590107
524,8912.0,-0.3514391830641776,-0.5596178961850703,-0.09333337747207843,0.023792378997802732,-3.1127615795411168,-9.554360844797408,-25.699484922048832,-5.1725048197715955,18.36964009349297,0.01666666753590107
525,8929.0,-0.4938527538545429,-0.5032048848938196,-0.40584406940340995,-0.1452981132507324,-2.9562404268126934,-9.894337635803222,-19.791270544697547,1.2865122339487993,13.09855942229881,0.01666666753590107
526,8946.0,-0.5073666076831519,-0.5580255854923277,-0.6427673771020025,-0.1505353928497061,-2.9721021589417007,-10.140940625995025,-12.44234814401619,8.256512814950772,8.669039165346618,0.01666666753590107
527,8962.0,-0.4306917661404237,-0.7209677842441946,-0.7659675672478974,-0.05581482620239257,-3.1194950525145977,-10.26738432810679,-7.908448936167861,13.358309808887103,7.425995109049426,0.01666666753590107
528,8980.0,-0.2348445651957765,-0.9428088928189128,-0.9580779197517781,0.20171148986816406,-3.330783495153859,-10.459518646008148,-0.7911685058452272,22.270728251155138,8.060143168765613,0.01666666753590107
529,8996.0,-0.14633935679881832,-0.9914147374905645,-1.1612572171501814,0.36706108768847767,-3.3865982482910155,-10.657040356036275,2.5919726933156833,24.012764583872308,10.508037717294933,0.01666666753590107
530,9013.0,-0.0848901597049553,-0.9654502751506865,-1.251618602207303,0.4629787368995603,-3.367145505932718,-10.743830312347411,2.8847581435983884,21.729881429274972,12.396847131312857,0.01666666753590107
531,9029.0,-0.06801399440297391,-0.9520134320810436,-1.2843756472967565,0.5267243880672613,-3.3584663787841795,-10.772560586138814,-0.993003530666013,13.489371747549539,15.743512612345814,0.01666666753590107
532,9046.0,-0.0793008335316088,-0.915532763358578,-1.1958034106787294,0.5241805351036135,-3.319859950079396,-10.683975490039213,-2.5636517408090485,7.473868758715692,16.732739155122516,0.01666666753590107
533,9063.0,-0.026313627403997814,-0.5496991807715967,-0.937257250041142,0.5618892158176517,-2.9490579314300787,-10.427645836407319,-1.7321087594802593,-4.039283802025861,16.44218120028288,0.01666666753590107
534,9080.0,-0.21591897025043144,-0.444799421143718,-0.5587393597848713,0.3543418274368159,-2.844012187460251,-10.05026016505137,-0.9304992956324627,-6.2527722346558665,16.249008082629288,0.01666666753590107
535,9096.0,-0.3686686598824337,-0.3938612245343625,-0.06670176559351385,0.0805049942901358,-2.8775312664307653,-9.542988761371001,-1.8018431766370913,-3.8285810038674306,15.25967567192045,0.01666666753590107
536,9113.0,-0.5238122041147202,-0.49608065903708337,0.28004955191537734,-0.08544307174682617,-2.9649193347655234,-9.200617850903422,-7.315255544488717,5.079576254132164,14.278962959944169,0.01666666753590107
537,9129.0,-0.7294936935923994,-0.6342275122936815,0.45414592615980653,-0.2748842781066894,-3.0871733301024884,-9.02988130848091,-10.309731712480074,15.721971903250886,14.558717263064137,0.01666666753590107
538,9146.0,-0.7215560324609279,-0.6274355871312319,0.4639115699034184,-0.20829554443359374,-3.05170929107666,-9.024494318212941,-12.032082586235619,31.252152094607812,21.497834289960252,0.01666666753590107
539,9163.0,-0.6015723932087421,-0.6595515578381717,0.1749710016544908,-0.036062662506103516,-3.0674213856019077,-9.314641339642181,-10.032403834062753,36.70609571290343,23.919807416815726,0.01666666753590107
540,9179.0,-1.0236873600639402,-1.0722323413938284,-0.43014662641305473,-0.3227683113098144,-3.465606903076172,-9.914388965109177,-1.6021217218384542,45.892085429545276,16.2905048969317,0.01666666753590107
541,9197.0,-0.9502190229449421,-1.0407318722367287,-0.9724009710714221,-0.09068046094365417,-3.4503438674926756,-10.439467134039104,5.756902208460233,48.71752295331528,13.68667029946182,0.01666666753590107
542,9212.0,-0.7106609097633511,-0.9427554090660065,-1.0839029054433107,0.22281031893305478,-3.369539488397166,-10.539574983215331,9.461721038340679,42.866769249904024,11.235711557316105,0.01666666753590107
543,9229.0,-0.48340318296737966,-0.8061622149921953,-1.2683973030507565,0.5374981996398419,-3.2679357746399935,-10.70597199859619,13.192755414916103,30.998243227307174,5.539709023042997,0.01666666753590107
544,9246.0,-0.4971906661055982,-0.8501848235268146,-1.1383156828280538,0.6075286712646484,-3.3571197134155777,-10.554538962787017,10.183875231738835,23.542490691591297,5.969549049211179,0.01666666753590107
545,9264.0,-0.4608568950405344,-0.9581818915829062,-0.8047431419745087,0.6818985968658701,-3.47937356262207,-10.212616526739298,5.9920421428085,23.667705134550555,8.44272426229283,0.01666666753590107
546,9279.0,-0.40366106280852104,-1.1056409091945736,-0.4991271140608936,0.8119336014678701,-3.6343980470519512,-9.895833792645112,-1.007317472732244,22.27045675113563,9.165990922752052,0.01666666753590107
547,9296.0,-0.17777133643012494,-0.9606251200165599,-0.6410255749359727,1.0313024016449228,-3.6578914431031793,-9.991601785986125,-0.6798955461990223,12.677831722257073,5.597115055469662,0.01666666753590107
548,9313.0,0.08232278430182487,-0.9444382475864141,-0.7413475783195346,1.3039421156952158,-3.644573404107615,-10.089465290301666,1.7224107446324874,7.108818199466959,4.387158143059304,0.01666666753590107
549,9329.0,0.3745716368485242,-0.8411303602598607,-0.6528423425231129,1.6020201127868146,-3.562123303631693,-9.994145698315277,7.006567279384106,2.2051180358021543,5.278961855722707,0.01666666753590107
550,9346.0,0.3334669615872204,-0.7279387192353606,-0.5672851063447073,1.5658078857421873,-3.464260164642334,-9.903465712295658,8.368811370189537,5.288202247896088,4.996445594857115,0.01666666753590107
551,9363.0,0.14106035694996827,-0.4519982466066256,-0.45405017416775223,1.403002200251026,-3.2272342368194833,-9.774777190399169,12.182944389528275,10.739007394268084,1.8703010954710713,0.01666666753590107
552,9379.0,0.04872000910323113,-0.26275996067402885,-0.40452922394517804,1.3278842053620143,-3.062184051204007,-9.715670081185735,14.209891818188769,9.7457220115771,0.4983835358101979,0.01666666753590107
553,9396.0,-0.02458363897334784,0.006703674915194279,-0.36447266949731855,1.2773066222259775,-2.8489502523588537,-9.655366273001022,16.75737564745875,3.96276263143327,-0.7791432641203322,0.01666666753590107
554,9413.0,-0.1000397341097705,0.031542442852014206,-0.08467728413925506,1.2044330909286625,-2.8636149350317774,-9.362974440920212,14.177677230968404,-1.2059700029257743,-2.2331920342816107,0.01666666753590107
555,9429.0,-0.0766450583258178,0.04870439140899106,0.02700332898449851,1.2238860433495138,-2.865260855058301,-9.24595772746551,10.073555723812081,-3.879202097127334,-3.5002339602276424,0.01666666753590107
556,9447.0,-0.09368667528862133,0.1960400383693166,0.22763035950064658,1.1813887903518043,-2.7259483555558135,-9.04634133529663,-1.950438637785773,-10.828450428996693,-9.041809545904757,0.01666666753590107
557,9463.0,-0.17830228323535993,0.2308313657653518,0.3114496659705415,1.0809821774247101,-2.679859973597806,-8.968230469601414,-6.057646963560119,-12.50038596894108,-10.382843764903184,0.01666666753590107
558,9479.0,-0.11004135116687976,0.11461502489112317,0.41093912752009926,1.1100116807578597,-2.7659015409607437,-8.883386203997954,-10.969843028778772,-10.529809799047994,-12.162526392778169,0.01666666753590107
559,9496.0,-0.06563793575428425,0.0036888457222201392,0.48605205350834874,1.1384428894042968,-2.8206689027951737,-8.827571268197707,-16.31452325714805,-8.277608707976004,-14.850047029279983,0.01666666753590107
560,9513.0,-0.006099403720488772,-0.058523423007386735,0.4716543660499155,1.1923123628257308,-2.847154609105247,-8.85345831791982,-19.348976522351492,-7.436849987187869,-15.013408078753763,0.01666666753590107
561,9530.0,0.23937077391594647,-0.20261839384632183,0.43918530758898705,1.4303858543395995,-2.9017724303756838,-8.913163758352585,-26.35627078999538,-6.544195062199154,-13.952876922363068,0.01666666753590107
562,9546.0,0.42062571467813104,-0.3960962535774335,0.2550787037227303,1.6059108000824227,-3.0424317231109366,-9.113079925769194,-28.95505360880039,-7.12876832825892,-12.925318504190606,0.01666666753590107
563,9563.0,0.3603536533385515,-0.44591684433370826,0.11217760514374822,1.6033669242858886,-3.105429190826416,-9.244760542153752,-30.112214012700196,-6.774889397171389,-12.031368831467352,0.01666666753590107
564,9579.0,0.3892326514182612,-0.5045131179481744,-0.08485054008061997,1.615786808865331,-3.030460751342773,-9.480889110144926,-27.659231827012864,-7.898361600537399,-9.090477205062037,0.01666666753590107
565,9596.0,0.3452052936432883,-0.4438317086227238,-0.2778695592614822,1.537975327975489,-2.8754361938476563,-9.703100906062405,-24.538885517901925,-13.742844336516944,-7.5836264835832115,0.01666666753590107
566,9613.0,0.36434166352879255,-0.47771677136141805,-0.30987697329372166,1.5348327921660616,-2.866308190420456,-9.748890177209674,-22.947364356377037,-14.59301847307594,-7.916558078259959,0.01666666753590107
567,9629.0,0.1739761636645533,-0.5008315433586016,-0.3730015014549717,1.3168109313522465,-2.831592412478663,-9.829843792050145,-19.34575608815783,-11.356781782996459,-9.296638781196055,0.01666666753590107
568,9647.0,0.15175559142758138,-0.4995859272116795,-0.403025431786105,1.2814964111991691,-2.7998692404815926,-9.868899170098826,-14.876273248145539,-9.186081070421999,-9.623497483927016,0.01666666753590107
569,9663.0,0.18020873791119082,-0.43072639906238763,-0.5117817937768996,1.284938012153562,-2.697816321652196,-9.988609472302347,-3.611839464709062,-10.40773041291777,-8.846519923382106,0.01666666753590107
570,9679.0,0.3006462401444092,-0.3926220015956089,-0.5583318384299054,1.3506289750030263,-2.6744728554656727,-10.037840134341456,10.28263037562711,-22.625122861525007,-5.708992273414002,0.01666666753590107
571,9696.0,0.3569404108289629,-0.31501718572638926,-0.5947655262054875,1.356015965270996,-2.623596033654734,-10.073304100302048,17.094993605679775,-31.9525470128576,-3.675011030568864,0.01666666753590107
572,9713.0,0.2132108803355135,-0.31905816821288313,-0.5059616362560541,1.0877157599960454,-2.7066449402740225,-9.977236941351368,24.53561385728949,-34.76571068668909,-1.2487136469168314,0.01666666753590107
573,9729.0,0.10263214348945766,-0.29632969211954624,-0.47380120535288,0.8927379805633797,-2.760215129354782,-9.93294417410586,27.991025341419157,-31.74136097881539,-1.1692179289406992,0.01666666753590107
574,9746.0,0.0960855987896677,-0.15703670103512704,-0.5621102609900758,0.7917325523597654,-2.7015572252135724,-10.0073141362397,31.481557658261032,-38.94962844014503,-2.433984227954353,0.01666666753590107
575,9763.0,0.18290590457329525,-0.007555126945645315,-0.539430044485256,0.7148188514267094,-2.6684875693693466,-9.963170860467478,33.26344814478522,-52.53910600149121,-5.697564513158924,0.01666666753590107
576,9779.0,0.16890711677195502,-0.010596205966372507,-0.47757860499974336,0.6106710426772944,-2.7259482208417842,-9.890447313833794,30.085791425896,-51.91444080566394,-6.138955669874067,0.01666666753590107
577,9796.0,0.09621402007546276,-0.4348523564185947,-0.08502167713013477,0.4144961624145508,-3.22633630159907,-9.480589707073243,17.002325014115627,-26.369473545661016,-2.1018308479561636,0.01666666753590107
578,9813.0,0.07376806441766676,-0.5344700109250843,0.04984131388389505,0.35299508443640076,-3.350535731915384,-9.339630737271671,13.231756648850522,-21.809919293516472,-0.9661650493743884,0.01666666753590107
