,ms,accelX,accelY,accelZ,accelWithGX,accelWithGY,accelWithGZ,rotRateAlpha,rotRateBeta,rotRateGamma,interval
0,235.0,0.0,0.0,0.1,0.4,-0.1,9.9,-4.6,-1.2000000000000002,-2.0,16
1,251.0,0.0,0.1,0.1,0.4,0.0,9.9,-2.5,-4.2,-1.5,16
2,268.0,0.0,0.1,0.0,0.4,0.0,9.8,-0.7,-6.300000000000001,-0.9000000000000001,16
3,284.0,0.0,0.1,0.0,0.5,0.1,9.8,-1.3,-6.300000000000001,-0.7,16
4,301.0,0.1,0.30000000000000004,0.0,0.5,0.1,9.8,-3.3000000000000007,-4.4,-1.3,16
5,318.0,0.0,0.2,0.0,0.4,0.0,9.8,-4.6,-3.1,-0.9000000000000001,16
6,334.0,-0.1,0.1,0.1,0.4,-0.1,10.0,-4.6,-2.6,-0.5,16
7,351.0,-0.1,0.1,0.2,0.4,0.0,10.0,-3.7000000000000006,-1.9,0.5,16
8,369.0,-0.1,0.2,0.2,0.4,0.0,10.0,-3.5,-1.7,1.1,16
9,384.0,-0.1,0.2,0.30000000000000004,0.4,0.0,10.100000000000001,-2.5,-1.9,1.7,16
10,401.0,0.0,0.2,0.2,0.5,0.0,10.0,-0.8,-3.0,2.2,16
11,418.0,0.1,0.2,0.2,0.6000000000000001,0.0,10.0,0.9000000000000001,-3.6000000000000005,1.7,16
12,435.0,0.1,0.1,0.1,0.6000000000000001,-0.1,9.9,0.8,-3.6000000000000005,1.4,16
13,451.0,0.1,0.1,0.1,0.6000000000000001,-0.2,9.9,-0.9000000000000001,-1.4,1.1,16
14,468.0,0.1,0.1,0.1,0.5,-0.2,9.9,-1.5,0.30000000000000004,1.0,16
15,484.0,0.0,0.0,0.1,0.5,-0.30000000000000004,9.8,-0.2,-0.30000000000000004,1.7,16
16,501.0,0.0,-0.1,0.0,0.5,-0.30000000000000004,9.700000000000001,0.5,-1.7,2.2,16
17,518.0,0.0,-0.1,-0.1,0.6000000000000001,-0.2,9.600000000000001,-0.4,-2.1,2.3,16
18,534.0,0.1,0.0,-0.2,0.6000000000000001,-0.2,9.5,-1.6,-2.0,2.2,16
19,551.0,0.1,0.1,-0.30000000000000004,0.6000000000000001,-0.30000000000000004,9.600000000000001,-4.0,-1.8000000000000003,1.3,16
20,568.0,0.1,-0.1,0.0,0.6000000000000001,-0.4,9.8,-5.1000000000000005,-0.1,2.1,16
21,584.0,0.1,-0.1,0.0,0.6000000000000001,-0.4,9.8,-4.5,0.9000000000000001,2.8,16
22,601.0,0.2,-0.1,-0.1,0.7000000000000001,-0.30000000000000004,9.700000000000001,-3.1,0.0,3.2,16
23,618.0,0.30000000000000004,0.1,-0.2,0.8,-0.2,9.600000000000001,-2.9,-1.0,3.0,16
24,635.0,0.30000000000000004,0.1,0.1,0.8,-0.2,9.9,-3.8,-1.9,1.2000000000000002,16
25,651.0,0.30000000000000004,0.1,0.1,0.9,-0.2,10.0,-3.3000000000000007,-0.7,-0.2,16
26,668.0,0.30000000000000004,0.0,0.2,0.8,-0.2,10.0,-1.9,0.9000000000000001,-1.3,16
27,685.0,0.30000000000000004,0.1,0.2,0.8,-0.2,10.0,-1.6,2.3,-2.0,16
28,701.0,0.2,0.1,0.2,0.7000000000000001,-0.30000000000000004,10.0,-1.9,3.6000000000000005,-1.7,16
29,718.0,0.2,0.0,0.1,0.7000000000000001,-0.30000000000000004,9.9,-1.6,3.0,-1.3,16
30,734.0,0.2,0.1,0.1,0.7000000000000001,-0.2,10.0,-0.2,1.0,-0.8,16
31,751.0,0.2,0.1,0.2,0.8,-0.2,10.0,0.5,0.9000000000000001,-1.0,16
32,768.0,0.30000000000000004,0.2,0.2,0.8,-0.2,10.0,-0.1,2.5,-1.3,16
33,784.0,0.2,0.2,0.1,0.7000000000000001,-0.1,9.9,-0.4,2.4000000000000004,-2.0,16
34,801.0,0.2,0.1,0.1,0.7000000000000001,-0.2,9.9,0.30000000000000004,2.3,-2.1,16
35,818.0,0.2,0.1,0.1,0.7000000000000001,-0.2,9.9,2.5,0.7,-2.0,16
36,835.0,0.2,0.1,0.1,0.7000000000000001,-0.1,9.9,5.4,0.6000000000000001,-1.7,16
37,851.0,0.2,0.1,0.1,0.7000000000000001,-0.1,9.8,7.1000000000000005,1.5,-1.5,16
38,868.0,0.2,0.2,-0.1,0.7000000000000001,0.0,9.5,6.1000000000000005,1.8000000000000003,-2.0,16
39,885.0,0.30000000000000004,0.30000000000000004,-0.4,0.8,0.1,9.4,3.3000000000000007,1.0,-3.2,16
40,901.0,0.30000000000000004,0.30000000000000004,-0.4,0.8,0.1,9.4,1.3,1.8000000000000003,-3.4,16
41,918.0,0.2,0.2,-0.30000000000000004,0.7000000000000001,0.0,9.5,-2.6,2.9,-3.2,16
42,934.0,0.30000000000000004,0.30000000000000004,-0.2,0.8,0.1,9.700000000000001,-4.5,1.8000000000000003,-2.3,16
43,951.0,0.4,0.4,0.30000000000000004,0.9,0.1,10.100000000000001,-2.8,-0.1,-2.3,16
44,968.0,0.5,0.4,0.7000000000000001,1.0,0.1,10.5,1.1,1.8000000000000003,-3.1,16
45,984.0,0.4,0.5,0.4,0.8,0.2,10.200000000000001,4.4,0.7,-2.9,16
46,1001.0,0.30000000000000004,0.4,0.4,0.8,0.2,10.200000000000001,5.1000000000000005,-0.5,-2.3,16
47,1018.0,0.4,0.5,0.5,0.8,0.30000000000000004,10.3,5.2,-1.5,-0.4,16
48,1035.0,0.4,0.5,0.5,1.0,0.4,10.4,5.7,0.2,0.30000000000000004,16
49,1051.0,0.6000000000000001,0.7000000000000001,0.6000000000000001,1.0,0.4,10.3,8.100000000000001,3.0,0.0,16
50,1068.0,0.6000000000000001,0.7000000000000001,0.30000000000000004,1.0,0.6000000000000001,9.8,9.4,3.7000000000000006,-0.9000000000000001,16
51,1085.0,0.5,0.8,-0.1,1.0,0.7000000000000001,9.4,9.3,2.4000000000000004,-2.6,16
52,1102.0,0.6000000000000001,0.9,-0.5,1.1,0.8,9.4,9.2,0.6000000000000001,-4.1,16
53,1118.0,0.6000000000000001,0.7000000000000001,-0.4,0.9,0.6000000000000001,9.4,9.100000000000001,-0.30000000000000004,-7.1000000000000005,16
54,1134.0,0.5,0.6000000000000001,-0.5,0.9,0.5,9.3,6.4,-0.2,-8.899999999999999,16
55,1151.0,0.4,0.5,-0.4,0.8,0.4,9.4,2.1,0.2,-9.600000000000001,16
56,1170.0,0.4,0.5,-0.1,0.8,0.4,9.700000000000001,-1.2000000000000002,1.5,-10.299999999999999,16
57,1185.0,0.4,0.5,0.2,0.8,0.5,10.0,-1.0,4.9,-11.3,16
58,1201.0,0.30000000000000004,0.7000000000000001,0.1,0.7000000000000001,0.7000000000000001,9.9,0.0,5.2,-11.8,16
59,1217.0,0.2,0.8,-0.1,0.6000000000000001,0.8,9.700000000000001,3.0,3.7000000000000006,-12.8,16
60,1234.0,0.2,0.8,-0.1,0.5,0.8,9.5,3.6000000000000005,1.5,-13.100000000000001,16
61,1251.0,0.0,0.9,-0.4,0.4,0.9,9.4,-0.30000000000000004,0.4,-11.700000000000001,16
62,1268.0,-0.1,0.9,-0.30000000000000004,0.30000000000000004,0.9,9.700000000000001,-3.5,1.5,-9.600000000000001,16
63,1284.0,0.0,0.9,0.0,0.4,0.9,9.9,-3.4,1.4,-9.100000000000001,16
64,1301.0,0.0,1.0,0.1,0.4,0.9,9.8,0.1,-1.0,-8.4,16
65,1318.0,0.0,0.9,-0.1,0.4,0.9,9.700000000000001,2.3,-4.4,-7.6,16
66,1334.0,0.1,0.9,0.0,0.5,0.9,9.8,1.0,-4.4,-7.6,16
67,1351.0,0.0,1.0,0.1,0.4,1.0,9.9,-1.7,-2.8,-9.100000000000001,16
68,1368.0,-0.1,0.9,0.1,0.30000000000000004,0.9,9.9,-3.4,-1.8000000000000003,-10.1,16
69,1384.0,-0.30000000000000004,0.8,0.30000000000000004,0.2,0.8,10.100000000000001,-3.3000000000000007,-1.7,-10.4,16
70,1401.0,-0.4,0.7000000000000001,0.2,0.1,0.6000000000000001,10.0,-1.5,-1.3,-10.600000000000001,16
71,1418.0,-0.4,0.7000000000000001,0.2,0.0,0.6000000000000001,9.9,-0.2,-0.9000000000000001,-10.4,16
72,1434.0,-0.4,0.6000000000000001,0.0,0.0,0.6000000000000001,9.8,0.30000000000000004,-1.6,-9.899999999999999,16
73,1452.0,-0.4,0.6000000000000001,0.0,0.0,0.6000000000000001,9.700000000000001,1.3,-1.0,-9.700000000000001,16
74,1468.0,-0.4,0.6000000000000001,-0.4,0.0,0.6000000000000001,9.200000000000001,0.8,-1.8000000000000003,-9.4,16
75,1484.0,-0.5,0.7000000000000001,-0.7000000000000001,-0.1,0.6000000000000001,9.1,-2.8,-3.1,-8.5,16
76,1501.0,-0.6000000000000001,0.6000000000000001,-0.6000000000000001,-0.2,0.6000000000000001,9.3,-7.400000000000001,-2.2,-7.1000000000000005,16
77,1518.0,-0.6000000000000001,0.7000000000000001,-0.5,-0.2,0.6000000000000001,9.3,-9.2,-1.5,-5.0,16
78,1534.0,-0.5,0.7000000000000001,-0.5,-0.1,0.6000000000000001,9.3,-7.699999999999999,-4.7,-3.1,16
79,1551.0,-0.30000000000000004,0.8,-0.6000000000000001,0.2,0.7000000000000001,9.200000000000001,-7.0,-10.299999999999999,-2.6,16
80,1569.0,-0.1,0.9,-0.5,0.4,0.7000000000000001,9.3,-11.900000000000002,-12.299999999999999,-3.8,16
81,1584.0,0.0,0.7000000000000001,-0.1,0.6000000000000001,0.6000000000000001,9.700000000000001,-15.8,-11.3,-4.5,16
82,1601.0,0.0,0.7000000000000001,-0.1,0.7000000000000001,0.4,9.9,-21.6,-7.6,-5.8,16
83,1618.0,0.2,0.6000000000000001,0.30000000000000004,0.8,0.30000000000000004,10.200000000000001,-23.700000000000003,-6.4,-7.500000000000001,16
84,1635.0,0.1,0.6000000000000001,0.5,0.7000000000000001,0.30000000000000004,10.600000000000001,-24.1,-4.4,-8.600000000000001,16
85,1651.0,0.0,0.6000000000000001,0.9,0.6000000000000001,0.0,10.600000000000001,-23.400000000000002,-0.9000000000000001,-8.2,16
86,1668.0,0.0,0.4,0.8,0.7000000000000001,-0.1,10.3,-23.0,0.1,-7.500000000000001,16
87,1684.0,0.1,0.5,0.30000000000000004,0.7000000000000001,-0.1,9.9,-23.700000000000003,-3.4,-6.500000000000001,16
88,1701.0,0.1,0.5,0.2,0.8,-0.1,10.0,-25.7,-12.299999999999999,-5.9,16
89,1718.0,0.2,0.5,0.9,0.9,-0.2,10.700000000000001,-26.700000000000003,-16.4,-6.1000000000000005,16
90,1735.0,0.30000000000000004,0.4,1.7000000000000002,1.1,-0.4,11.5,-23.6,-12.5,-6.8,16
91,1751.0,0.30000000000000004,0.5,2.0,1.1,-0.4,11.8,-19.9,-9.100000000000001,-8.0,16
92,1768.0,0.1,0.2,1.8,0.9,-0.6000000000000001,11.5,-9.5,-3.4,-8.5,16
93,1784.0,0.0,0.30000000000000004,1.0,0.8,-0.6000000000000001,10.700000000000001,0.7,0.5,-7.0,16
94,1801.0,0.0,0.30000000000000004,1.0,0.8,-0.5,10.3,9.600000000000001,-0.4,-5.8,16
95,1818.0,0.1,0.4,0.2,1.0,-0.5,9.600000000000001,14.700000000000001,-1.7,-5.7,16
96,1835.0,0.2,0.2,-0.6000000000000001,1.1,-0.6000000000000001,8.700000000000001,14.600000000000001,-2.2,-5.500000000000001,16
97,1851.0,0.30000000000000004,0.1,-1.4000000000000001,1.2000000000000002,-0.6000000000000001,8.200000000000001,12.7,-4.1,-5.2,16
98,1873.0,0.5,0.1,-1.6,1.5,-0.6000000000000001,8.200000000000001,3.3000000000000007,-7.699999999999999,-5.2,16
99,1884.0,0.8,0.1,-1.3,1.8,-0.6000000000000001,8.8,-0.30000000000000004,-7.200000000000001,-5.7,16
100,1901.0,0.9,0.0,-0.7000000000000001,1.8,-0.7000000000000001,9.0,-6.8,-2.9,-7.1000000000000005,16
101,1917.0,0.9,-0.1,-0.4,1.8,-0.8,9.3,-11.2,-0.1,-7.300000000000001,16
102,1934.0,0.8,0.1,0.0,1.7000000000000002,-0.7000000000000001,9.8,-12.600000000000001,0.1,-6.699999999999999,16
103,1953.0,0.7000000000000001,0.2,0.4,1.5,-0.6000000000000001,10.200000000000001,-11.1,-0.6000000000000001,-5.0,16
104,1968.0,0.7000000000000001,0.30000000000000004,0.8,1.6,-0.6000000000000001,10.5,-9.100000000000001,-0.7,-3.9,16
105,1984.0,0.7000000000000001,0.30000000000000004,0.8,1.6,-0.5,10.5,-3.2,-1.2000000000000002,-2.2,16
106,2002.0,0.7000000000000001,0.5,0.8,1.7000000000000002,-0.2,10.5,2.6,-0.5,-2.1,16
107,2018.0,0.9,0.7000000000000001,0.7000000000000001,1.8,0.0,10.200000000000001,6.4,2.8,-3.8,16
108,2035.0,0.9,0.9,0.2,1.8,0.2,9.700000000000001,7.9,6.699999999999999,-6.1000000000000005,16
109,2054.0,0.8,0.9,-0.4,1.6,0.2,9.1,7.300000000000001,8.4,-7.1000000000000005,16
110,2068.0,0.6000000000000001,0.9,-0.8,1.4000000000000001,0.1,8.8,6.699999999999999,8.600000000000001,-7.1000000000000005,16
111,2085.0,0.5,0.8,-1.0,1.3,0.1,8.700000000000001,6.4,8.100000000000001,-5.4,16
112,2101.0,0.4,0.9,-1.2000000000000002,1.2000000000000002,0.2,8.6,6.600000000000001,7.699999999999999,-2.2,16
113,2118.0,0.5,1.0,-1.2000000000000002,1.3,0.4,8.5,7.200000000000001,8.4,0.8,16
114,2134.0,0.7000000000000001,1.3,-1.4000000000000001,1.4000000000000001,0.6000000000000001,8.4,7.200000000000001,8.600000000000001,1.8000000000000003,16
115,2152.0,0.8,1.6,-1.4000000000000001,1.6,1.0,8.3,6.699999999999999,9.3,1.5,16
116,2169.0,0.8,1.8,-1.7000000000000002,1.5,1.2000000000000002,8.0,5.9,7.300000000000001,-1.3,16
117,2184.0,0.8,1.8,-1.7000000000000002,1.4000000000000001,1.3,8.1,3.2,1.3,-4.9,16
118,2201.0,0.5,1.8,-1.5,0.9,1.0,8.5,0.0,-6.4,-5.500000000000001,16
119,2218.0,0.0,1.4000000000000001,-0.8,0.7000000000000001,0.6000000000000001,9.700000000000001,-1.5,-12.600000000000001,-0.9000000000000001,16
120,2234.0,0.0,1.1,0.6000000000000001,0.8,0.30000000000000004,11.100000000000001,-1.0,-12.600000000000001,1.5,16
121,2251.0,0.1,0.7000000000000001,2.0,1.0,-0.1,12.4,3.0,-6.600000000000001,6.2,16
122,2270.0,0.2,0.4,3.0,1.2000000000000002,-0.2,12.5,12.4,7.8,11.700000000000001,16
123,2285.0,0.7000000000000001,0.30000000000000004,2.4000000000000004,1.5,-0.2,12.100000000000001,20.599999999999998,18.8,15.399999999999999,16
124,2301.0,1.4000000000000001,0.6000000000000001,0.9,2.1,0.2,10.700000000000001,21.400000000000002,16.200000000000003,10.600000000000001,16
125,2318.0,1.2000000000000002,1.7000000000000002,0.7000000000000001,1.9000000000000001,1.3,10.5,13.3,8.4,-1.7,16
126,2335.0,1.3,0.4,0.2,2.0,0.1,10.0,4.1,3.2,-9.0,16
127,2351.0,0.6000000000000001,0.2,1.3,1.3,-0.2,11.100000000000001,-14.200000000000001,-3.2,-14.200000000000001,16
128,2369.0,0.4,-0.5,2.3000000000000003,1.1,-1.0,12.100000000000001,-27.3,-8.3,-13.399999999999999,16
129,2385.0,0.4,-0.5,2.3000000000000003,1.1,-1.3,12.600000000000001,-34.900000000000006,-9.0,-7.699999999999999,16
130,2401.0,0.2,-1.0,3.2,0.9,-1.8,13.600000000000001,-34.50000000000001,-3.2,3.4,16
131,2418.0,0.30000000000000004,-1.2000000000000002,4.1000000000000005,1.2000000000000002,-1.7000000000000002,13.700000000000001,-27.6,1.8000000000000003,8.600000000000001,16
132,2434.0,0.6000000000000001,-0.8,3.5,1.5,-1.3,12.600000000000001,-0.1,3.3000000000000007,11.6,16
133,2451.0,0.8,-0.4,2.1,1.5,-0.9,10.9,36.1,-7.500000000000001,8.4,16
134,2467.0,0.8,-0.30000000000000004,0.30000000000000004,1.6,-0.8,10.100000000000001,65.8,-24.8,3.3000000000000007,16
135,2484.0,0.8,0.0,-1.4000000000000001,1.7000000000000002,-0.30000000000000004,8.3,81.8,-47.400000000000006,-5.1000000000000005,16
136,2501.0,0.9,0.30000000000000004,-2.3000000000000003,2.0,0.2,7.5,80.2,-71.7,-16.200000000000003,16
137,2517.0,0.7000000000000001,0.1,-1.4000000000000001,2.1,0.30000000000000004,8.3,74.10000000000001,-76.2,-21.8,16
138,2534.0,0.4,-0.2,-0.2,1.9000000000000001,0.2,9.4,52.400000000000006,-62.300000000000004,-28.900000000000002,16
139,2551.0,0.4,-0.2,-0.2,1.4000000000000001,0.1,9.4,26.9,-29.200000000000003,-26.400000000000006,16
140,2568.0,-0.2,-0.4,-0.30000000000000004,1.0,-0.1,8.9,2.8,1.4,-18.3,16
141,2584.0,-0.9,-0.7000000000000001,-1.1,0.30000000000000004,-0.2,8.1,-14.100000000000001,14.200000000000001,-6.4,16
142,2601.0,-1.4000000000000001,-0.4,-2.1,0.1,0.0,7.6000000000000005,-13.6,0.5,5.8,16
143,2618.0,-1.7000000000000002,-1.2000000000000002,-1.8,-0.1,-0.30000000000000004,8.700000000000001,-7.300000000000001,-9.5,19.400000000000002,16
144,2634.0,-0.8,0.0,-1.0,0.9,0.6000000000000001,8.3,11.8,-26.400000000000006,31.400000000000002,16
145,2651.0,-0.5,-0.4,-1.0,1.3,0.1,8.700000000000001,31.5,-52.2,36.9,16
146,2668.0,0.1,0.8,-0.2,2.0,1.3,9.4,51.70000000000001,-59.1,41.0,16
147,2684.0,0.9,2.5,-1.6,3.0,3.2,8.0,63.500000000000014,-75.2,26.400000000000006,16
148,2701.0,1.4000000000000001,4.1000000000000005,-1.3,3.8000000000000003,4.9,8.200000000000001,62.50000000000001,-83.2,11.6,16
149,2717.0,0.9,2.9000000000000004,-1.4000000000000001,3.4000000000000004,3.9000000000000004,8.0,39.599999999999994,-57.400000000000006,-21.400000000000002,16
150,2735.0,-0.30000000000000004,1.9000000000000001,-2.0,2.3000000000000003,3.0,7.4,-3.9,-23.5,-27.5,16
151,2751.0,-0.30000000000000004,1.9000000000000001,-2.0,1.9000000000000001,2.9000000000000004,7.6000000000000005,-53.300000000000004,4.800000000000001,-16.700000000000003,16
152,2768.0,-0.8,2.1,-1.6,2.2,2.7,7.4,-91.50000000000001,9.600000000000001,-13.5,16
153,2784.0,0.1,1.4000000000000001,-1.5,2.7,1.8,10.100000000000001,-107.5,5.2,-19.6,16
154,2801.0,0.30000000000000004,1.4000000000000001,2.1,2.9000000000000004,1.4000000000000001,11.600000000000001,-104.10000000000001,15.399999999999999,-23.0,16
155,2818.0,0.30000000000000004,1.2000000000000002,2.1,2.7,1.3,11.200000000000001,-77.5,26.000000000000004,-26.799999999999997,16
156,2834.0,0.30000000000000004,1.4000000000000001,0.9,2.8000000000000003,1.4000000000000001,9.600000000000001,-39.0,16.6,-34.50000000000001,16
157,2851.0,0.4,1.3,0.2,2.7,1.2000000000000002,9.8,-2.5,-17.6,-47.80000000000001,16
158,2869.0,0.6000000000000001,1.1,0.9,3.1,1.1,10.4,33.9,-47.60000000000001,-63.4,16
159,2884.0,0.8,0.4,1.7000000000000002,3.5,0.6000000000000001,11.100000000000001,68.5,-55.7,-79.9,16
160,2901.0,0.5,-1.1,2.1,3.3000000000000003,-0.5,11.5,81.0,-55.8,-85.0,16
161,2917.0,-0.1,-1.8,2.9000000000000004,2.8000000000000003,-0.9,12.200000000000001,93.4,-45.3,-81.3,16
162,2934.0,-0.1,-1.8,2.9000000000000004,2.7,-0.6000000000000001,12.200000000000001,86.8,-30.4,-63.30000000000001,16
163,2951.0,-0.4,-1.0,2.3000000000000003,2.6,1.2000000000000002,11.600000000000001,18.700000000000003,-5.4,-55.900000000000006,16
164,2967.0,-0.30000000000000004,-1.1,1.0,2.5,0.7000000000000001,10.8,-48.0,36.9,-39.599999999999994,16
165,2984.0,0.0,0.5,0.6000000000000001,3.0,1.7000000000000002,9.0,-68.80000000000001,37.50000000000001,-38.2,16
166,3001.0,-0.30000000000000004,0.30000000000000004,0.8,2.4000000000000004,0.9,10.8,-88.4,11.700000000000001,-39.0,16
167,3018.0,-0.2,-0.2,1.5,2.5,0.1,10.8,-86.5,11.5,-35.9,16
168,3034.0,-0.30000000000000004,-0.8,1.3,2.4000000000000004,-0.30000000000000004,10.8,-76.7,16.900000000000002,-31.3,16
169,3051.0,-0.30000000000000004,-1.3,0.6000000000000001,2.3000000000000003,-1.0,10.0,-63.0,21.200000000000003,-22.2,16
170,3069.0,0.1,-1.2000000000000002,0.30000000000000004,2.7,-1.0,9.700000000000001,-46.0,18.0,-12.600000000000001,16
171,3085.0,0.5,-0.2,-0.2,3.0,-0.1,9.3,-34.60000000000001,14.100000000000001,-10.4,16
172,3101.0,0.7000000000000001,0.6000000000000001,-0.8,3.3000000000000003,0.6000000000000001,8.700000000000001,-9.700000000000001,-1.4,-15.299999999999999,16
173,3117.0,0.7000000000000001,0.6000000000000001,-0.8,3.2,1.0,8.6,13.399999999999999,-19.700000000000003,-29.0,16
174,3134.0,0.4,1.0,-0.8,2.7,1.2000000000000002,8.5,32.400000000000006,-26.700000000000003,-41.900000000000006,16
175,3151.0,-0.2,0.9,-1.2000000000000002,2.3000000000000003,1.1,8.0,42.3,-29.600000000000005,-50.2,16
176,3169.0,-0.7000000000000001,0.4,-1.7000000000000002,1.8,0.6000000000000001,7.7,43.6,-26.9,-45.6,16
177,3185.0,-1.1,-0.4,-1.6,1.7000000000000002,0.2,7.2,41.7,-20.7,-37.1,16
178,3201.0,-1.0,-0.2,-2.7,2.1,1.1,6.2,37.300000000000004,-16.1,-19.700000000000003,16
179,3218.0,-0.6000000000000001,0.7000000000000001,-3.2,2.4000000000000004,1.8,6.4,30.9,-18.200000000000003,-15.899999999999999,16
180,3234.0,-0.6000000000000001,0.9,-2.4000000000000004,2.4000000000000004,1.8,6.9,20.8,-13.6,-18.900000000000002,16
181,3251.0,-0.7000000000000001,0.7000000000000001,-1.1,2.3000000000000003,1.7000000000000002,8.200000000000001,12.9,6.300000000000001,-17.6,16
182,3268.0,-0.8,0.7000000000000001,-0.5,2.1,1.8,8.9,12.0,20.400000000000002,-15.6,16
183,3284.0,-0.8,0.6000000000000001,-1.5,2.0,1.8,7.9,15.000000000000002,43.900000000000006,-15.000000000000002,16
184,3301.0,-1.1,0.9,-1.7000000000000002,1.5,2.1,7.7,17.799999999999997,35.3,-14.5,16
185,3317.0,-1.1,0.9,-1.7000000000000002,1.4000000000000001,2.1,8.6,20.5,18.0,-10.1,16
186,3334.0,-1.0,0.8,0.2,1.9000000000000001,2.0,10.200000000000001,20.5,23.099999999999998,-5.500000000000001,16
187,3351.0,-0.6000000000000001,0.5,1.0,2.0,1.9000000000000001,10.4,16.5,36.5,-0.2,16
188,3368.0,-0.30000000000000004,0.4,0.9,2.2,1.7000000000000002,10.200000000000001,12.200000000000001,42.400000000000006,2.6,16
189,3384.0,0.0,0.30000000000000004,0.9,2.3000000000000003,1.6,10.5,1.0,50.0,8.5,16
190,3401.0,0.2,-0.1,1.3,2.4000000000000004,0.9,11.0,-9.0,59.9,16.200000000000003,16
191,3417.0,0.4,-0.7000000000000001,1.4000000000000001,2.3000000000000003,0.6000000000000001,11.0,-15.5,73.30000000000001,27.2,16
192,3434.0,0.9,0.0,0.8,2.6,1.3,10.4,-20.900000000000002,65.5,33.300000000000004,16
193,3451.0,1.3,1.1,0.8,2.8000000000000003,2.2,10.4,-25.7,28.800000000000004,27.2,16
194,3468.0,1.1,1.3,2.1,2.7,2.3000000000000003,11.8,-28.500000000000004,7.300000000000001,20.5,16
195,3484.0,0.9,0.1,3.9000000000000004,2.5,1.1,13.5,-33.0,-23.700000000000003,8.4,16
196,3501.0,0.9,0.1,3.9000000000000004,2.5,0.30000000000000004,14.200000000000001,-29.0,-26.300000000000004,7.0,16
197,3518.0,0.7000000000000001,-1.4000000000000001,4.9,2.4000000000000004,-1.1,14.3,-15.5,-16.0,16.6,16
198,3535.0,0.6000000000000001,-2.1,4.0,2.6,-1.1,12.5,6.4,-16.1,26.1,16
199,3552.0,0.9,-1.6,1.7000000000000002,2.9000000000000004,-0.6000000000000001,10.200000000000001,26.200000000000003,-34.7,26.000000000000004,16
200,3568.0,1.2000000000000002,-0.9,0.1,3.3000000000000003,0.5,9.5,31.9,-47.900000000000006,22.6,16
201,3584.0,1.0,0.1,0.30000000000000004,2.9000000000000004,1.2000000000000002,10.4,33.400000000000006,-63.8,11.000000000000002,16
202,3601.0,0.1,-0.30000000000000004,1.5,2.4000000000000004,0.8,11.0,12.299999999999999,-44.8,5.1000000000000005,16
203,3618.0,-0.9,-1.0,2.1,1.5,0.0,11.600000000000001,-16.3,6.1000000000000005,18.700000000000003,16
204,3636.0,-1.3,-0.6000000000000001,0.5,0.9,0.30000000000000004,10.0,-33.6,46.9,37.1,16
205,3651.0,-1.3,0.4,-1.3,0.9,1.2000000000000002,8.3,-31.7,47.0,47.3,16
206,3667.0,-0.7000000000000001,1.1,-2.0,1.3,1.7000000000000002,7.5,-25.5,38.0,48.6,16
207,3685.0,-0.5,0.9,-2.1,1.5,1.6,7.5,-9.100000000000001,18.4,44.2,16
208,3701.0,-0.5,0.9,-2.1,1.4000000000000001,1.2000000000000002,7.7,7.0,6.4,39.8,16
209,3718.0,-0.7000000000000001,0.6000000000000001,-1.9000000000000001,1.4000000000000001,1.2000000000000002,7.5,19.1,-0.6000000000000001,35.4,16
210,3734.0,-0.4,0.6000000000000001,-2.2,1.8,1.4000000000000001,7.4,28.200000000000003,-5.4,27.0,16
211,3751.0,-0.1,0.7000000000000001,-2.3000000000000003,2.0,1.6,7.1000000000000005,30.799999999999997,-7.1000000000000005,21.6,16
212,3768.0,0.1,0.7000000000000001,-2.8000000000000003,2.2,1.5,6.300000000000001,34.1,-10.200000000000001,9.5,16
213,3784.0,0.0,0.5,-3.7,1.9000000000000001,1.5,5.7,32.9,-20.3,-2.1,16
214,3801.0,-0.5,0.2,-3.4000000000000004,1.7000000000000002,1.3,6.1000000000000005,24.599999999999998,-34.50000000000001,-10.1,16
215,3817.0,-0.9,-0.7000000000000001,-1.7000000000000002,1.4000000000000001,0.4,7.800000000000001,10.299999999999999,-33.0,-8.3,16
216,3834.0,-1.3,-1.5,-0.30000000000000004,1.0,-0.4,9.200000000000001,1.3,-26.5,-2.1,16
217,3851.0,-0.9,-2.0,1.3,1.5,-0.9,10.700000000000001,-17.1,-10.600000000000001,15.8,16
218,3868.0,0.2,-1.6,2.8000000000000003,2.6,-0.7000000000000001,12.3,-34.2,12.600000000000001,35.599999999999994,16
219,3886.0,1.0,-0.4,1.5,3.3000000000000003,0.30000000000000004,11.0,-42.1,29.500000000000004,50.400000000000006,16
220,3901.0,1.0,-0.4,1.5,3.6,1.4000000000000001,9.200000000000001,-43.2,11.6,47.80000000000001,16
221,3918.0,1.7000000000000002,2.3000000000000003,-1.9000000000000001,4.5,3.4000000000000004,7.9,-40.0,-43.2,7.200000000000001,16
222,3935.0,2.1,2.3000000000000003,0.0,4.2,1.1,11.200000000000001,-39.599999999999994,-54.0,-16.700000000000003,16
223,3951.0,0.9,-0.7000000000000001,3.3000000000000003,2.7,-1.8,14.600000000000001,-48.800000000000004,-35.9,-36.7,16
224,3967.0,-0.9,-2.9000000000000004,6.4,1.6,-3.0,16.2,-63.0,21.7,-13.399999999999999,16
225,3984.0,-1.6,-4.0,5.4,0.8,-4.0,14.9,-73.30000000000001,64.0,8.0,16
226,4001.0,-2.6,-0.8,6.4,-0.4,-1.0,15.9,-56.10000000000001,72.30000000000001,43.1,16
227,4018.0,1.5,-1.6,4.2,3.6,-1.9000000000000001,13.8,3.2,32.2,42.3,16
228,4034.0,2.0,-0.5,2.2,4.0,-0.8,11.8,40.800000000000004,15.399999999999999,33.9,16
229,4051.0,1.7000000000000002,0.0,0.6000000000000001,3.7,-0.1,10.200000000000001,71.0,-18.3,20.0,16
230,4068.0,1.7000000000000002,0.0,0.6000000000000001,3.0,1.0,9.5,47.900000000000006,0.7,5.9,16
231,4084.0,0.9,0.9,-0.1,2.8000000000000003,1.4000000000000001,9.1,16.3,36.7,-4.1,16
232,4101.0,0.8,1.2000000000000002,-1.3,2.7,1.2000000000000002,7.7,12.5,31.3,-13.399999999999999,16
233,4118.0,0.8,1.1,-2.7,2.6,1.6,6.2,34.50000000000001,-13.900000000000002,-21.1,16
234,4135.0,0.6000000000000001,1.3,-3.8000000000000003,2.4000000000000004,1.4000000000000001,6.0,46.4,-38.50000000000001,-25.200000000000003,16
235,4151.0,0.30000000000000004,0.8,-3.4000000000000004,2.5,1.4000000000000001,6.2,65.5,-70.2,-29.800000000000004,16
236,4168.0,0.4,0.8,-3.2,2.7,1.6,6.300000000000001,77.20000000000002,-84.6,-36.5,16
237,4184.0,0.1,0.4,-1.7000000000000002,2.6,1.5,7.7,87.60000000000001,-75.5,-46.800000000000004,16
238,4201.0,-0.1,-0.8,-1.7000000000000002,2.6,0.5,7.7,97.00000000000001,-68.60000000000001,-44.2,16
239,4218.0,-1.1,-0.5,-2.2,1.9000000000000001,1.2000000000000002,7.0,98.10000000000001,-65.7,-44.7,16
240,4234.0,-1.7000000000000002,-0.7000000000000001,-2.9000000000000004,1.4000000000000001,1.3,6.1000000000000005,99.39999999999999,-67.60000000000001,-47.900000000000006,16
241,4251.0,-2.3000000000000003,-1.2000000000000002,-2.4000000000000004,0.9,1.2000000000000002,6.6000000000000005,99.10000000000001,-57.1,-60.00000000000001,16
242,4268.0,-2.3000000000000003,-1.2000000000000002,-2.4000000000000004,0.9,1.1,6.6000000000000005,91.90000000000002,-0.9000000000000001,-81.4,16
243,4284.0,-2.3000000000000003,-1.7000000000000002,-2.5,0.4,1.8,3.6,56.2,49.50000000000001,-84.9,16
244,4301.0,-3.4000000000000004,-0.30000000000000004,-8.9,-0.6000000000000001,2.1,1.0,-19.5,5.300000000000001,-53.599999999999994,16
245,4318.0,-3.2,-3.2,-2.5,1.5,-0.2,7.1000000000000005,-48.70000000000001,39.699999999999996,-30.799999999999997,16
246,4334.0,-0.1,-3.7,1.1,2.4000000000000004,-0.5,9.8,-106.1,168.6,18.700000000000003,16
247,4351.0,1.0,-1.3,-2.0,1.5,2.7,3.4000000000000004,-215.8,275.40000000000003,50.900000000000006,16
248,4368.0,-4.4,0.0,-2.1,-3.1,1.4000000000000001,7.6000000000000005,-297.90000000000003,136.7,84.5,16
249,4384.0,-3.1,1.4000000000000001,10.0,-2.2,1.9000000000000001,19.700000000000003,-224.50000000000003,139.70000000000002,156.0,16
250,4401.0,3.1,8.1,8.3,3.6,8.1,18.1,-103.89999999999999,130.70000000000002,37.50000000000001,16
251,4418.0,-0.1,-0.4,3.9000000000000004,0.2,-0.5,13.700000000000001,-38.400000000000006,34.800000000000004,1.2000000000000002,16
252,4434.0,-3.4000000000000004,-1.8,5.9,-2.8000000000000003,-1.9000000000000001,15.700000000000001,40.6,-96.9,-8.100000000000001,16
253,4451.0,-3.4000000000000004,-1.8,5.9,-3.1,-2.1,11.0,60.8,-170.8,-2.3,16
254,4469.0,-4.3,-2.3000000000000003,1.3,-2.1,-3.0,16.0,38.900000000000006,-225.5,30.3,16
255,4486.0,-3.9000000000000004,-2.8000000000000003,4.2,-1.1,-2.4000000000000004,14.9,16.8,-206.6,72.80000000000001,16
256,4501.0,-3.0,-1.9000000000000001,5.800000000000001,0.30000000000000004,-1.4000000000000001,14.3,9.100000000000001,-168.6,87.60000000000001,16
257,4517.0,-1.4000000000000001,-1.1,3.4000000000000004,2.1,-0.2,11.200000000000001,-11.5,-91.10000000000001,94.3,16
258,4534.0,-2.0,0.1,0.4,1.1,0.1,9.8,-21.200000000000003,-36.6,75.4,16
259,4551.0,-4.5,-0.7000000000000001,-2.6,-1.4000000000000001,-0.9,6.7,-25.6,-57.3,85.69999999999999,16
260,4567.0,-2.4000000000000004,-1.6,1.4000000000000001,0.9,-1.9000000000000001,10.600000000000001,-35.0,-57.49999999999999,114.50000000000001,16
261,4584.0,-0.30000000000000004,-0.4,2.6,3.1,-0.9,11.8,-27.6,-14.800000000000002,106.4,16
262,4602.0,0.30000000000000004,-0.1,4.1000000000000005,3.6,-0.8,13.3,-6.4,40.4,86.60000000000001,16
263,4617.0,-1.0,-0.30000000000000004,2.3000000000000003,2.1,-1.0,11.600000000000001,12.0,61.7,75.3,16
264,4634.0,-1.7000000000000002,0.2,-2.1,1.1,-0.5,7.300000000000001,50.400000000000006,88.50000000000001,72.4,16
265,4651.0,-1.7000000000000002,0.2,-2.1,0.9,0.0,5.5,64.80000000000001,74.0,68.5,16
266,4670.0,-1.8,1.1,-5.6000000000000005,0.6000000000000001,0.30000000000000004,2.4000000000000004,59.5,39.0,58.400000000000006,16
267,4685.0,-2.3000000000000003,0.6000000000000001,-7.4,0.0,0.1,1.9000000000000001,40.300000000000004,7.9,64.4,16
268,4701.0,-2.5,0.1,-7.5,0.30000000000000004,-0.2,2.2,23.800000000000004,-3.6000000000000005,71.7,16
269,4718.0,-1.2000000000000002,0.6000000000000001,-5.800000000000001,2.3000000000000003,-0.2,6.800000000000001,-13.100000000000001,-15.5,81.3,16
270,4734.0,0.2,-0.30000000000000004,-0.7000000000000001,2.7,-0.8,8.8,-23.0,19.6,83.00000000000001,16
271,4751.0,0.8,0.30000000000000004,-0.4,3.1,-0.30000000000000004,9.1,-0.6000000000000001,40.7,75.5,16
272,4767.0,-0.1,-0.1,-0.30000000000000004,2.1,-0.7000000000000001,9.3,32.8,38.0,68.3,16
273,4785.0,0.30000000000000004,1.4000000000000001,-1.8,2.5,0.9,7.7,76.2,-18.5,56.400000000000006,16
274,4801.0,1.7000000000000002,0.4,1.0,4.0,0.2,10.600000000000001,94.3,-27.099999999999998,48.800000000000004,16
275,4817.0,2.1,1.2000000000000002,0.9,4.4,1.3,10.4,110.4,-26.9,28.200000000000003,16
276,4834.0,2.1,1.2000000000000002,0.9,4.2,1.0,10.100000000000001,90.30000000000001,-9.5,8.600000000000001,16
277,4851.0,1.6,0.2,-0.1,3.9000000000000004,0.1,9.1,30.799999999999997,25.300000000000004,-0.7,16
278,4868.0,1.5,-0.4,-0.1,4.0,-0.2,10.5,-34.7,73.0,-11.6,16
279,4884.0,1.9000000000000001,-0.8,1.4000000000000001,2.8000000000000003,-1.4000000000000001,11.5,-52.60000000000001,87.2,-20.599999999999998,16
280,4901.0,-0.5,-2.7,2.3000000000000003,0.0,-3.6,11.9,-55.8,80.30000000000001,-22.2,16
281,4917.0,-2.3000000000000003,-4.4,2.3000000000000003,-1.0,-4.9,12.100000000000001,-32.1,41.1,2.8,16
282,4934.0,-2.4000000000000004,-5.2,2.5,-0.9,-5.2,12.200000000000001,-3.3000000000000007,4.800000000000001,38.2,16
283,4951.0,-1.0,-5.300000000000001,1.6,0.6000000000000001,-5.4,11.3,9.0,-15.8,77.60000000000001,16
284,4967.0,1.9000000000000001,-3.3000000000000003,1.9000000000000001,3.6,-3.4000000000000004,11.600000000000001,-3.7000000000000006,-14.100000000000001,96.7,16
285,4984.0,5.0,-1.8,2.8000000000000003,6.6000000000000005,-2.0,12.5,-13.3,-0.9000000000000001,91.7,16
286,5001.0,5.2,-0.8,1.6,6.7,-1.2000000000000002,11.3,-43.4,35.0,64.2,16
287,5018.0,4.0,-0.4,0.6000000000000001,5.300000000000001,-1.0,10.200000000000001,-76.1,50.60000000000001,32.2,16
288,5034.0,4.0,-0.4,0.6000000000000001,4.800000000000001,-0.8,10.4,-86.00000000000001,33.2,2.1,16
289,5051.0,3.1,-0.1,1.1,3.7,-1.5,11.3,-60.8,1.9,-20.8,16
290,5067.0,1.9000000000000001,-0.9,2.0,2.8000000000000003,-2.4000000000000004,11.100000000000001,-15.6,-23.700000000000003,-23.800000000000004,16
291,5084.0,0.9,-1.6,0.30000000000000004,1.8,-2.9000000000000004,8.6,2.4000000000000004,-36.6,-18.6,16
292,5101.0,0.0,-1.8,-2.1,1.6,-2.8000000000000003,6.9,16.700000000000003,-61.599999999999994,-1.0,16
293,5118.0,0.30000000000000004,-1.4000000000000001,-2.6,2.0,-2.4000000000000004,7.0,9.5,-74.60000000000001,17.6,16
294,5134.0,1.2000000000000002,-0.30000000000000004,-1.3,3.1,-1.3,8.3,4.300000000000001,-71.39999999999999,24.7,16
295,5151.0,2.0,0.1,1.9000000000000001,4.1000000000000005,-0.9,11.4,3.7000000000000006,-24.5,19.1,16
296,5167.0,1.9000000000000001,0.30000000000000004,1.3,4.0,-0.7000000000000001,10.8,1.6,4.2,14.300000000000002,16
297,5185.0,1.1,1.4000000000000001,-1.3,3.0,0.4,8.200000000000001,2.7,54.800000000000004,0.6000000000000001,16
298,5201.0,1.1,1.4000000000000001,-1.3,1.8,1.5,5.4,10.0,53.7,-15.899999999999999,16
299,5217.0,0.0,2.5,-4.2,1.4000000000000001,1.8,4.6000000000000005,21.1,19.799999999999997,-28.600000000000005,16
300,5234.0,-0.7000000000000001,2.9000000000000004,-5.300000000000001,0.7000000000000001,2.0,4.3,27.700000000000003,-10.9,-37.400000000000006,16
301,5251.0,-1.4000000000000001,2.5,-5.300000000000001,0.30000000000000004,1.4000000000000001,4.3,20.2,-25.900000000000002,-37.400000000000006,16
302,5267.0,-1.5,1.8,-5.2,0.5,0.9,4.7,9.8,-31.7,-34.900000000000006,16
303,5284.0,-1.2000000000000002,1.4000000000000001,-4.0,1.1,0.4,7.7,-20.7,-43.4,-29.1,16
304,5301.0,-0.6000000000000001,0.8,1.1,2.1,-0.30000000000000004,13.5,-44.300000000000004,-28.500000000000004,-23.6,16
305,5318.0,0.4,0.0,6.300000000000001,2.6,-0.8,15.9,-39.699999999999996,10.200000000000001,-19.9,16
306,5334.0,0.7000000000000001,0.0,7.800000000000001,2.8000000000000003,-0.9,17.3,-16.0,47.400000000000006,-17.300000000000004,16
307,5351.0,1.3,0.2,4.800000000000001,3.2,-0.7000000000000001,14.4,15.299999999999999,40.2,-20.599999999999998,16
308,5368.0,2.0,0.9,1.9000000000000001,3.9000000000000004,0.1,11.5,31.0,21.200000000000003,-23.800000000000004,16
309,5384.0,1.5,1.2000000000000002,1.7000000000000002,3.5,0.6000000000000001,11.3,59.5,-29.800000000000004,-38.7,16
310,5401.0,1.5,1.2000000000000002,1.7000000000000002,3.1,0.8,13.3,67.00000000000001,-28.3,-58.1,16
311,5417.0,2.0,1.5,7.0,2.0,-1.4000000000000001,13.5,23.400000000000002,36.8,-69.10000000000001,16
312,5435.0,-2.5,-1.2000000000000002,1.9000000000000001,-2.3000000000000003,-1.8,9.600000000000001,-1.4,40.2,-44.7,16
313,5451.0,-4.800000000000001,-1.2000000000000002,-1.0,-3.2,-0.8,9.3,-9.700000000000001,18.3,-20.8,16
314,5468.0,-4.2,-0.6000000000000001,0.1,-1.4000000000000001,-1.4000000000000001,9.600000000000001,-27.9,-22.000000000000004,20.1,16
315,5484.0,-2.7,-1.5,0.6000000000000001,0.1,-2.1,12.200000000000001,-35.599999999999994,-68.60000000000001,40.1,16
316,5501.0,-0.6000000000000001,-1.5,5.7,1.5,-2.0,15.3,-31.2,-50.60000000000001,52.900000000000006,16
317,5518.0,0.1,-2.3000000000000003,6.4,2.3000000000000003,-3.0,15.9,-28.500000000000004,20.0,78.0,16
318,5534.0,1.7000000000000002,1.5,2.7,3.7,0.7000000000000001,12.3,22.3,23.099999999999998,39.699999999999996,16
319,5551.0,0.0,1.2000000000000002,2.2,2.0,0.5,11.8,44.4,16.200000000000003,12.5,16
320,5567.0,-1.2000000000000002,0.4,-0.1,0.8,-0.1,9.5,71.5,6.699999999999999,-8.2,16
321,5584.0,-1.2000000000000002,0.4,-0.1,0.4,0.4,5.9,69.60000000000001,5.2,-12.7,16
322,5601.0,-1.5,0.6000000000000001,-3.7,0.1,0.4,5.1000000000000005,50.1,-15.700000000000001,-9.100000000000001,16
323,5617.0,-2.5,0.0,-4.5,-0.9,-0.7000000000000001,5.5,17.7,-7.9,3.7000000000000006,16
324,5634.0,-2.9000000000000004,-1.0,-4.1000000000000005,-0.7000000000000001,-0.8,4.9,-13.100000000000001,1.4,21.7,16
325,5651.0,-2.4000000000000004,0.0,-4.7,-0.30000000000000004,0.4,5.300000000000001,-23.3,-1.7,26.5,16
326,5667.0,-2.3000000000000003,0.2,-3.9000000000000004,-0.4,-0.4,6.1000000000000005,-38.400000000000006,-1.3,32.300000000000004,16
327,5685.0,-2.3000000000000003,-0.30000000000000004,-3.0,0.0,-0.6000000000000001,6.9,-40.300000000000004,-3.2,40.2,16
328,5701.0,-1.9000000000000001,0.0,-2.1,0.1,-0.4,7.5,-16.4,-18.0,40.2,16
329,5717.0,-1.1,-0.5,-1.1,1.0,-1.0,8.5,26.700000000000003,-35.0,35.3,16
330,5735.0,-0.30000000000000004,-0.7000000000000001,-1.0,1.8,-1.0,8.5,52.900000000000006,-38.50000000000001,37.300000000000004,16
331,5752.0,1.1,0.30000000000000004,-1.4000000000000001,3.4000000000000004,0.1,8.200000000000001,50.8,-30.699999999999996,35.699999999999996,16
332,5768.0,1.8,0.9,-0.4,4.1000000000000005,0.8,9.1,24.8,-3.1,22.5,16
333,5785.0,1.8,0.9,-0.4,3.9000000000000004,0.8,9.8,-0.6000000000000001,25.7,5.1000000000000005,16
334,5801.0,1.3,0.8,0.6000000000000001,2.9000000000000004,0.4,10.200000000000001,-11.4,38.0,-5.7,16
335,5817.0,0.1,0.30000000000000004,0.4,1.5,-0.30000000000000004,10.100000000000001,-12.200000000000001,29.500000000000004,-6.699999999999999,16
336,5834.0,-1.1,-0.5,0.7000000000000001,0.5,-1.1,10.4,-9.8,24.1,-3.2,16
337,5851.0,-1.9000000000000001,-1.3,0.5,-0.2,-1.7000000000000002,10.100000000000001,-4.300000000000001,12.0,9.899999999999999,16
338,5868.0,-2.0,-1.3,0.8,0.4,-1.3,10.8,2.0,0.6000000000000001,26.1,16
339,5884.0,-1.0,-0.8,1.3,0.9,-1.1,11.0,13.100000000000001,-3.7000000000000006,33.9,16
340,5901.0,0.1,-0.8,1.1,2.0,-1.1,10.700000000000001,14.900000000000002,-4.800000000000001,35.5,16
341,5917.0,0.9,-0.30000000000000004,0.9,2.9000000000000004,-0.5,10.5,1.6,-0.1,31.400000000000002,16
342,5934.0,1.5,0.2,2.5,3.4000000000000004,0.0,12.100000000000001,-6.699999999999999,8.700000000000001,25.4,16
343,5952.0,0.8,0.1,3.0,2.6,-0.2,12.600000000000001,-18.5,32.6,8.600000000000001,16
344,5967.0,0.8,0.1,3.0,1.6,-0.7000000000000001,12.100000000000001,-21.1,44.7,0.4,16
345,5984.0,-1.0,-0.6000000000000001,2.0,0.2,-1.4000000000000001,11.200000000000001,-7.6,31.799999999999997,10.0,16
346,6001.0,-1.5,-1.2000000000000002,1.0,0.30000000000000004,-1.5,10.0,11.700000000000001,3.9,24.3,16
347,6017.0,-0.8,-0.7000000000000001,0.2,1.4000000000000001,-0.8,10.0,22.2,-11.700000000000001,30.3,16
348,6034.0,0.5,0.0,0.4,2.6,-0.1,9.9,22.2,-10.299999999999999,28.0,16
349,6051.0,1.3,0.5,-0.2,2.9000000000000004,0.30000000000000004,9.3,12.200000000000001,-4.5,15.899999999999999,16
350,6068.0,1.0,0.30000000000000004,0.1,2.6,0.0,9.700000000000001,-6.300000000000001,6.4,0.8,16
351,6084.0,0.1,-0.7000000000000001,0.4,1.6,-1.0,10.100000000000001,-26.000000000000004,22.8,-4.6,16
352,6101.0,-0.4,-0.8,-0.4,1.1,-1.3,9.3,-40.5,27.700000000000003,-6.9,16
353,6117.0,-0.4,-1.7000000000000002,-0.30000000000000004,1.0,-2.2,9.4,-39.1,25.7,-8.8,16
354,6134.0,-1.5,-0.8,1.3,-0.30000000000000004,-1.5,11.0,-34.50000000000001,53.300000000000004,-1.4,16
355,6151.0,-1.5,-0.8,1.3,0.8,-2.7,9.4,0.30000000000000004,47.5,8.700000000000001,16
356,6167.0,-0.30000000000000004,-2.0,-0.30000000000000004,0.0,-3.3000000000000003,9.8,17.5,33.400000000000006,20.599999999999998,16
357,6184.0,-1.2000000000000002,-2.0,-0.4,-0.2,-1.5,9.8,12.7,35.8,46.1,16
358,6201.0,-0.6000000000000001,-0.2,-0.4,1.0,-0.4,8.3,1.6,39.0,56.2,16
359,6217.0,1.0,0.7000000000000001,-2.0,2.1,0.6000000000000001,7.6000000000000005,-5.300000000000001,34.300000000000004,55.400000000000006,16
360,6235.0,1.7000000000000002,1.7000000000000002,-2.3000000000000003,2.4000000000000004,1.1,6.7,-10.4,27.400000000000002,36.300000000000004,16
361,6252.0,2.1,1.4000000000000001,-4.6000000000000005,2.7,-0.4,7.6000000000000005,-5.9,-8.5,8.700000000000001,16
362,6268.0,1.2000000000000002,-0.1,0.2,1.9000000000000001,-0.7000000000000001,10.0,11.4,-3.8,-11.2,16
363,6284.0,0.2,0.30000000000000004,0.2,0.8,-0.30000000000000004,10.0,18.6,10.299999999999999,-8.8,16
364,6301.0,0.2,0.2,0.4,0.7000000000000001,-0.4,10.100000000000001,3.3000000000000007,26.400000000000006,-8.2,16
365,6317.0,0.1,-0.1,0.8,0.6000000000000001,-0.7000000000000001,10.600000000000001,-5.4,29.700000000000006,-6.600000000000001,16
366,6334.0,-0.30000000000000004,-0.6000000000000001,1.1,0.1,-1.2000000000000002,10.9,-12.5,28.900000000000002,-0.30000000000000004,16
367,6354.0,-0.4,-1.1,2.1,-0.1,-1.8,11.9,-8.3,23.400000000000002,11.1,16
368,6368.0,-0.4,-1.1,2.1,-0.5,-2.6,12.8,7.6,28.900000000000002,31.3,16
369,6384.0,-0.4,-1.7000000000000002,2.0,1.2000000000000002,-1.5,14.0,39.9,45.9,41.0,16
370,6402.0,2.8000000000000003,-0.9,4.6000000000000005,-0.4,-2.5,9.9,58.900000000000006,35.2,38.7,16
371,6418.0,-2.4000000000000004,-3.6,-2.5,-2.2,-4.5,6.4,54.800000000000004,-12.0,70.4,16
372,6435.0,-1.7000000000000002,-2.7,-0.4,-1.2000000000000002,-1.2000000000000002,9.9,44.300000000000004,-58.7,102.7,16
373,6456.0,0.1,-0.7000000000000001,1.6,0.9,-1.7000000000000002,10.600000000000001,22.1,-52.7,104.3,16
374,6468.0,0.2,-1.7000000000000002,0.9,0.7000000000000001,-1.8,10.700000000000001,-15.700000000000001,-19.6,97.8,16
375,6484.0,-1.0,-1.1,1.2000000000000002,-0.5,-1.4000000000000001,11.0,-28.800000000000004,-0.6000000000000001,92.7,16
376,6501.0,0.7000000000000001,-0.8,-3.9000000000000004,1.2000000000000002,-1.1,5.9,-17.1,-29.700000000000006,86.3,16
377,6517.0,0.2,-3.1,-1.1,0.9,-3.4000000000000004,8.700000000000001,-12.299999999999999,-65.89999999999999,62.199999999999996,16
378,6534.0,0.2,-3.1,-1.1,2.8000000000000003,-2.7,9.8,-20.900000000000002,-57.1,60.6,16
379,6551.0,2.4000000000000004,-1.7000000000000002,-1.0,4.1000000000000005,-1.2000000000000002,13.0,-21.0,-45.8,23.3,16
380,6567.0,1.3,-1.6,1.4000000000000001,1.3,-2.7,13.200000000000001,-37.2,-8.4,17.6,16
381,6584.0,-0.1,-1.8,3.3000000000000003,1.8,-0.8,11.9,-34.1,21.8,33.0,16
382,6602.0,1.9000000000000001,2.1,0.5,5.300000000000001,2.4000000000000004,6.800000000000001,-9.2,-21.6,8.0,16
383,6618.0,2.3000000000000003,1.7000000000000002,-2.3000000000000003,0.30000000000000004,-0.8,2.7,3.2,-51.4,1.6,16
384,6634.0,-2.2,-1.3,-1.5,-0.8,-2.1,8.200000000000001,-5.7,-69.9,15.899999999999999,16
385,6651.0,-0.30000000000000004,-0.5,-0.5,1.2000000000000002,-1.4000000000000001,9.1,-41.300000000000004,-17.200000000000003,24.400000000000002,16
386,6667.0,-1.7000000000000002,-0.4,-1.4000000000000001,-0.2,-1.5,8.3,-58.1,-16.900000000000002,15.5,16
387,6684.0,-1.3,-0.2,1.3,0.2,-1.5,10.9,-54.699999999999996,-9.899999999999999,11.900000000000002,16
388,6701.0,-0.6000000000000001,-1.5,1.6,0.8,-2.8000000000000003,11.200000000000001,-33.800000000000004,15.8,15.899999999999999,16
389,6717.0,-1.7000000000000002,1.1,0.1,-0.2,-0.2,9.700000000000001,-3.5,-19.799999999999997,21.6,16
390,6734.0,-1.7000000000000002,1.1,0.1,0.5,-0.5,9.5,12.9,-34.0,23.5,16
391,6751.0,-0.2,0.0,0.7000000000000001,0.7000000000000001,-1.4000000000000001,9.9,5.7,-2.7,27.9,16
392,6768.0,-0.1,0.30000000000000004,0.5,2.4000000000000004,0.4,7.2,-33.400000000000006,29.400000000000002,23.400000000000002,16
393,6785.0,0.6000000000000001,0.1,-0.5,0.2,-3.0,9.4,-54.50000000000001,47.900000000000006,17.7,16
394,6801.0,-2.6,-1.0,0.0,-1.7000000000000002,-2.7,9.700000000000001,-59.5,39.300000000000004,22.700000000000003,16
395,6819.0,-3.0,-3.6,3.4000000000000004,-0.9,-3.3000000000000003,11.600000000000001,-6.600000000000001,6.699999999999999,31.3,16
396,6834.0,-0.4,2.1,-1.1,0.8,0.30000000000000004,8.4,8.100000000000001,-18.4,15.2,16
397,6851.0,-1.4000000000000001,-0.2,-2.2,-0.1,-2.0,7.4,-1.9,-31.400000000000002,1.4,16
398,6867.0,-1.5,-1.5,3.4000000000000004,-0.2,-3.3000000000000003,13.0,-11.1,-3.6000000000000005,9.100000000000001,16
399,6884.0,-1.9000000000000001,-1.0,-0.30000000000000004,-0.5,-2.8000000000000003,9.200000000000001,-2.7,-14.400000000000002,14.900000000000002,16
400,6901.0,-1.0,0.8,-2.0,0.5,-1.1,7.5,-12.4,-24.599999999999998,15.5,16
401,6918.0,-1.0,0.8,-2.0,2.8000000000000003,-1.5,9.3,-29.800000000000004,-35.4,-0.7,16
402,6934.0,1.3,0.4,-0.2,2.2,-0.5,8.5,-32.2,-29.600000000000005,-18.200000000000003,16
403,6952.0,0.0,0.5,0.2,1.4000000000000001,-2.5,10.0,-19.200000000000003,-24.0,-23.099999999999998,16
404,6967.0,-1.6,-0.6000000000000001,2.3000000000000003,-0.7000000000000001,-3.2,9.600000000000001,-22.9,-1.1,-17.7,16
405,6984.0,-0.8,-0.8,-0.6000000000000001,3.2,-1.4000000000000001,8.1,-23.400000000000002,5.7,-4.4,16
406,7001.0,2.8000000000000003,1.2000000000000002,1.3,2.1,-2.1,10.600000000000001,-15.399999999999999,-5.300000000000001,-17.9,16
407,7019.0,0.1,0.7000000000000001,-1.1,3.3000000000000003,-2.3000000000000003,10.0,-7.0,-26.6,-30.1,16
408,7034.0,1.2000000000000002,-0.1,1.7000000000000002,3.1,-2.4000000000000004,11.100000000000001,-28.200000000000003,4.6,-42.60000000000001,16
409,7051.0,1.1,0.30000000000000004,0.7000000000000001,2.9000000000000004,-2.0,10.100000000000001,-25.300000000000004,17.9,-60.900000000000006,16
410,7068.0,-1.1,-0.30000000000000004,0.7000000000000001,0.7000000000000001,-2.6,10.0,-16.900000000000002,21.400000000000002,-69.5,16
411,7084.0,0.2,1.5,1.0,1.9000000000000001,-0.8,10.4,-10.4,31.099999999999998,-77.3,16
412,7101.0,0.2,1.5,1.0,2.4000000000000004,-1.1,9.5,3.2,40.2,-118.60000000000001,16
413,7118.0,0.7000000000000001,1.1,0.1,1.1,-1.6,10.9,9.899999999999999,60.5,-142.10000000000002,16
414,7140.0,-1.1,-2.2,-1.6,0.5,-4.3,7.800000000000001,9.8,57.400000000000006,-121.10000000000001,16
415,7175.0,-3.3000000000000003,-3.1,2.3000000000000003,-2.0,-5.2,11.9,-9.600000000000001,51.9,-34.900000000000006,16
416,13123.0,-1.5,0.9,3.7,-1.4000000000000001,0.1,13.5,6.8,19.400000000000002,-30.599999999999998,16
417,13141.0,-1.9000000000000001,1.2000000000000002,1.9000000000000001,-1.8,0.4,11.700000000000001,28.0,-3.0,-26.200000000000003,16
418,13156.0,-1.9000000000000001,1.2000000000000002,1.9000000000000001,-1.5,0.8,10.5,29.400000000000002,-25.7,5.300000000000001,16
419,13174.0,-1.2000000000000002,2.0,-0.4,-0.30000000000000004,1.5,8.5,14.700000000000001,-43.6,24.400000000000002,16
420,13191.0,-0.1,2.1,-1.7000000000000002,0.6000000000000001,1.4000000000000001,7.9,-4.9,-48.70000000000001,24.400000000000002,16
421,13207.0,0.4,2.2,-1.9000000000000001,0.8,1.6,8.200000000000001,-13.8,-45.3,19.1,16
422,13224.0,-0.1,2.3000000000000003,-1.3,0.4,1.5,8.700000000000001,-18.0,-23.2,4.800000000000001,16
423,13240.0,-0.30000000000000004,2.3000000000000003,-1.2000000000000002,0.0,1.3,8.0,-4.800000000000001,-2.1,-0.7,16
424,13258.0,-1.1,1.7000000000000002,-2.4000000000000004,-0.5,1.0,7.300000000000001,9.899999999999999,-12.0,7.9,16
425,13275.0,-1.2000000000000002,1.9000000000000001,-2.9000000000000004,-0.5,1.2000000000000002,6.800000000000001,11.8,-26.400000000000006,15.399999999999999,16
426,13291.0,-0.6000000000000001,2.0,-3.4000000000000004,0.2,1.3,6.4,3.9,-37.7,14.400000000000002,16
427,13306.0,-0.1,1.7000000000000002,-3.0,0.8,1.0,6.7,-1.8000000000000003,-36.9,11.900000000000002,16
428,13324.0,-0.6000000000000001,2.1,-2.0,0.4,1.4000000000000001,7.7,-10.700000000000001,-23.900000000000006,4.4,16
429,13342.0,-1.0,2.3000000000000003,-1.4000000000000001,0.0,1.5,8.3,-13.3,-0.6000000000000001,-2.2,16
430,13359.0,-1.2000000000000002,2.0,-1.4000000000000001,-0.2,1.2000000000000002,8.3,-8.5,3.3000000000000007,3.3000000000000007,16
431,13375.0,-1.2000000000000002,2.0,-1.4000000000000001,0.0,1.1,8.3,-1.8000000000000003,-11.000000000000002,14.600000000000001,16
432,13391.0,-0.7000000000000001,1.9000000000000001,-1.3,0.7000000000000001,1.2000000000000002,9.0,0.8,-21.500000000000004,16.900000000000002,16
433,13408.0,-0.1,2.1,-0.30000000000000004,1.1,1.3,9.8,2.6,-23.400000000000002,13.8,16
434,13423.0,0.0,2.0,0.30000000000000004,1.1,1.1,10.5,9.0,-24.5,2.9,16
435,13442.0,-0.2,1.7000000000000002,1.1,0.8,0.9,11.0,16.6,-15.700000000000001,-6.699999999999999,16
436,13459.0,-0.6000000000000001,1.6,1.8,0.4,1.1,12.200000000000001,22.1,6.1000000000000005,-5.6,16
437,13477.0,-1.2000000000000002,1.7000000000000002,2.5,0.0,1.1,12.200000000000001,26.6,27.2,9.899999999999999,16
438,13491.0,-1.7000000000000002,1.4000000000000001,2.8000000000000003,-0.6000000000000001,0.9,12.600000000000001,26.400000000000006,30.599999999999998,33.2,16
439,13507.0,-1.0,1.7000000000000002,3.9000000000000004,-0.1,1.3,13.600000000000001,24.5,32.6,42.0,16
440,13524.0,0.2,1.7000000000000002,4.2,1.1,1.3,14.0,17.799999999999997,33.7,45.0,16
441,13540.0,0.2,1.7000000000000002,4.2,1.5,1.1,13.600000000000001,11.4,26.1,32.400000000000006,16
442,13557.0,1.0,1.3,3.6,2.2,1.0,13.5,5.8,12.8,12.9,16
443,13573.0,1.9000000000000001,1.6,3.8000000000000003,2.5,1.2000000000000002,13.3,4.1,10.600000000000001,1.2000000000000002,16
444,13590.0,1.3,1.4000000000000001,2.9000000000000004,1.5,0.8,12.0,6.300000000000001,7.1000000000000005,-17.6,16
445,13607.0,0.30000000000000004,1.3,1.8,0.8,1.2000000000000002,11.0,12.600000000000001,5.0,-23.2,16
446,13624.0,0.1,1.7000000000000002,0.6000000000000001,0.8,1.4000000000000001,10.4,16.700000000000003,10.600000000000001,-20.3,16
447,13640.0,0.4,1.9000000000000001,-0.4,1.0,1.7000000000000002,9.3,15.100000000000001,22.9,-14.5,16
448,13660.0,0.6000000000000001,1.9000000000000001,-1.7000000000000002,1.1,1.7000000000000002,8.1,8.3,32.8,-16.0,16
449,13674.0,0.7000000000000001,2.2,-1.4000000000000001,1.1,2.0,8.4,0.6000000000000001,45.2,-22.8,16
450,13692.0,0.30000000000000004,2.0,-1.4000000000000001,0.6000000000000001,1.8,8.4,3.1,40.5,-27.5,16
451,13707.0,-0.1,1.5,-2.0,0.1,1.4000000000000001,7.800000000000001,8.600000000000001,25.7,-28.0,16
452,13724.0,-0.2,1.3,-2.2,0.0,1.2000000000000002,7.6000000000000005,22.3,-4.300000000000001,-29.1,16
453,13742.0,-0.2,1.3,-2.2,0.1,1.5,7.300000000000001,35.8,-14.800000000000002,-33.300000000000004,16
454,13757.0,-0.1,1.6,-2.4000000000000004,0.1,1.7000000000000002,7.2,47.5,-3.2,-37.300000000000004,16
455,13775.0,-0.30000000000000004,1.5,-3.3000000000000003,-0.1,1.7000000000000002,6.6000000000000005,53.9,8.600000000000001,-31.7,16
456,13790.0,-0.4,1.4000000000000001,-2.7,-0.4,1.9000000000000001,6.7,53.50000000000001,21.300000000000004,-24.900000000000002,16
457,13807.0,-0.5,1.4000000000000001,-3.4000000000000004,-0.6000000000000001,2.0,6.5,44.9,32.300000000000004,-9.0,16
458,13823.0,-0.5,1.3,-3.4000000000000004,-0.5,2.0,6.4,27.400000000000002,32.400000000000006,1.0,16
459,13840.0,-0.2,0.9,-3.3000000000000003,-0.30000000000000004,1.6,6.5,6.8,15.700000000000001,1.9,16
460,13858.0,-0.2,0.9,-2.6,-0.30000000000000004,1.6,7.2,-8.4,-6.600000000000001,-3.9,16
461,13874.0,0.1,1.3,-1.1,0.1,2.0,8.700000000000001,-10.299999999999999,-12.8,-8.700000000000001,16
462,13891.0,-0.30000000000000004,0.8,-1.1,-0.30000000000000004,1.5,8.700000000000001,-3.5,-20.3,-19.400000000000002,16
463,13910.0,-1.5,-0.5,-0.5,-1.4000000000000001,0.2,9.3,6.1000000000000005,-12.4,-19.700000000000003,16
464,13923.0,-1.5,-0.5,-0.5,-0.7000000000000001,1.2000000000000002,7.5,11.000000000000002,8.0,-8.100000000000001,16
465,13943.0,-1.2000000000000002,1.0,-0.6000000000000001,-1.3,1.4000000000000001,11.0,18.1,63.599999999999994,6.300000000000001,16
466,13957.0,-1.3,0.30000000000000004,0.9,-2.0,0.7000000000000001,10.4,24.1,104.60000000000001,29.700000000000006,16
467,13974.0,-2.0,-0.5,0.8,-2.7,0.30000000000000004,10.700000000000001,26.200000000000003,107.5,42.1,16
468,13990.0,-1.9000000000000001,-0.4,0.9,-3.1,0.9,11.5,30.000000000000004,74.89999999999999,57.20000000000001,16
469,14009.0,-2.2,0.2,3.2,-2.5,1.7000000000000002,13.200000000000001,37.50000000000001,18.8,57.00000000000001,16
470,14024.0,-0.8,0.8,2.8000000000000003,-1.6,2.0,12.5,36.8,-34.7,52.7,16
471,14040.0,1.4000000000000001,1.8,2.0,0.7000000000000001,3.1,11.700000000000001,-5.0,-59.300000000000004,36.1,16
472,14057.0,0.6000000000000001,1.2000000000000002,-0.5,0.1,2.3000000000000003,9.200000000000001,-58.5,-68.2,11.4,16
473,14075.0,-0.4,1.3,2.1,-0.7000000000000001,2.3000000000000003,11.8,-59.60000000000001,-62.1,12.200000000000001,16
474,14089.0,-0.4,1.3,2.1,-0.1,2.5,11.100000000000001,-37.1,-16.3,18.3,16
475,14111.0,1.0,1.8,-0.5,0.7000000000000001,2.6,9.3,-27.800000000000004,40.300000000000004,26.9,16
476,14125.0,1.0,1.8,-0.5,0.1,4.1000000000000005,9.4,-44.8,72.9,10.4,16
477,14142.0,0.1,4.5,-0.2,-1.1,4.5,9.3,-58.1,67.2,-3.9,16
478,14156.0,-1.0,3.1,-0.2,-1.9000000000000001,3.5,9.8,-63.10000000000001,51.6,3.4,16
479,14174.0,-0.9,3.7,0.1,-2.0,4.2,10.100000000000001,-69.3,7.699999999999999,20.7,16
480,14191.0,-1.4000000000000001,3.9000000000000004,-0.2,-2.4000000000000004,3.7,10.700000000000001,-66.80000000000001,-36.0,40.0,16
481,14207.0,-1.9000000000000001,3.9000000000000004,3.9000000000000004,-2.6,3.8000000000000003,13.700000000000001,-43.50000000000001,-14.900000000000002,62.800000000000004,16
482,14224.0,-0.4,3.8000000000000003,-1.2000000000000002,-1.1,3.7,8.5,-2.8,-29.600000000000005,69.60000000000001,16
483,14241.0,0.4,3.9000000000000004,-2.3000000000000003,-0.2,3.8000000000000003,7.5,-1.0,-49.4,56.800000000000004,16
484,14256.0,0.0,3.8000000000000003,-2.6,-0.4,3.6,7.2,-5.0,-50.3,45.9,16
485,14275.0,-0.30000000000000004,4.0,-2.3000000000000003,-0.6000000000000001,3.9000000000000004,7.5,-1.0,-34.300000000000004,37.1,16
486,14292.0,-0.1,3.8000000000000003,-2.9000000000000004,-0.4,3.7,6.9,6.0,1.3,41.4,16
487,14308.0,-0.1,3.8000000000000003,-2.9000000000000004,-0.5,3.6,6.300000000000001,-2.6,24.1,52.900000000000006,16
488,14325.0,0.1,3.7,-3.8000000000000003,-0.2,3.5,5.6000000000000005,-27.700000000000003,-4.5,61.0,16
489,14340.0,0.4,4.2,-2.9000000000000004,0.30000000000000004,4.2,8.700000000000001,-33.9,-43.4,47.0,16
490,14359.0,0.2,3.7,-0.30000000000000004,0.0,3.8000000000000003,10.700000000000001,-26.799999999999997,-29.300000000000004,32.8,16
491,14373.0,0.7000000000000001,4.800000000000001,0.2,0.4,4.3,9.5,-28.200000000000003,-10.600000000000001,21.0,16
492,14391.0,-0.2,3.8000000000000003,0.5,-0.4,3.4000000000000004,10.3,-30.5,11.2,11.2,16
493,14406.0,-1.4000000000000001,3.0,0.9,-1.6,2.5,10.700000000000001,-17.200000000000003,-6.500000000000001,24.3,16
494,14424.0,-1.7000000000000002,1.3,1.0,-1.8,0.8,10.8,4.800000000000001,-58.0,42.0,16
495,14440.0,-0.6000000000000001,2.6,1.5,-0.5,2.1,11.3,11.5,-70.3,46.0,16
496,14457.0,0.1,1.4000000000000001,2.2,0.4,1.0,12.0,9.700000000000001,-59.300000000000004,35.599999999999994,16
497,14475.0,0.8,2.1,3.8000000000000003,1.2000000000000002,1.6,13.600000000000001,3.7000000000000006,-20.0,26.400000000000006,16
498,14489.0,0.8,2.1,3.8000000000000003,1.0,1.3,14.600000000000001,14.5,20.1,9.5,16
499,14507.0,0.4,1.5,5.300000000000001,0.5,1.0,15.200000000000001,37.1,28.1,-3.2,16
500,14524.0,0.0,1.1,6.1000000000000005,0.1,1.0,14.5,51.0,18.4,-17.200000000000003,16
501,14540.0,-0.2,0.9,4.1000000000000005,-0.5,0.5,13.600000000000001,52.300000000000004,9.600000000000001,-21.0,16
502,14557.0,-0.8,0.5,2.7,-0.8,0.5,11.8,42.60000000000001,-5.2,-13.900000000000002,16
503,14573.0,-0.9,0.4,1.5,-0.7000000000000001,0.5,11.3,21.200000000000003,-7.200000000000001,1.6,16
504,14590.0,-0.5,0.5,0.5,-0.30000000000000004,0.6000000000000001,10.3,4.4,-1.0,11.3,16
505,14610.0,0.2,0.9,0.1,0.6000000000000001,0.9,9.3,-0.7,22.2,8.8,16
506,14623.0,0.8,0.8,-1.0,0.8,1.0,8.8,1.4,36.9,6.0,16
507,14641.0,0.9,0.9,-1.6,0.8,1.1,8.3,11.4,58.1,-0.7,16
508,14657.0,0.6000000000000001,0.9,-2.5,0.30000000000000004,1.2000000000000002,7.300000000000001,22.4,65.3,-5.7,16
509,14673.0,0.6000000000000001,0.9,-2.5,-0.2,1.2000000000000002,6.9,24.7,51.6,-6.1000000000000005,16
510,14690.0,0.0,0.9,-3.4000000000000004,-0.6000000000000001,1.2000000000000002,6.300000000000001,18.700000000000003,25.200000000000003,-3.4,16
511,14708.0,0.0,0.8,-3.3000000000000003,-0.30000000000000004,1.2000000000000002,6.800000000000001,12.4,5.8,-3.5,16
512,14723.0,0.5,0.8,-2.9000000000000004,0.0,1.3,7.1000000000000005,12.7,0.5,-5.0,16
513,14741.0,0.8,0.9,-2.5,0.30000000000000004,1.5,7.5,16.700000000000003,4.7,-9.4,16
514,14757.0,1.0,1.0,-2.4000000000000004,0.2,1.6,7.300000000000001,20.8,22.4,-15.8,16
515,14773.0,0.7000000000000001,0.9,-2.4000000000000004,-0.1,1.5,7.300000000000001,25.1,33.9,-17.7,16
516,14790.0,0.2,0.9,-2.4000000000000004,-0.6000000000000001,1.6,7.300000000000001,27.9,33.50000000000001,-14.200000000000001,16
517,14807.0,-0.4,0.9,-2.7,-1.4000000000000001,1.7000000000000002,7.1000000000000005,27.3,20.400000000000002,-2.5,16
518,14823.0,-0.2,0.7000000000000001,-2.1,-1.2000000000000002,1.6,7.6000000000000005,23.6,13.399999999999999,3.1,16
519,14842.0,0.4,0.7000000000000001,-1.0,-0.6000000000000001,1.6,8.700000000000001,12.9,14.0,10.4,16
520,14856.0,0.4,0.7000000000000001,-1.0,-0.5,1.6,8.9,10.700000000000001,17.7,8.700000000000001,16
521,14876.0,0.1,0.6000000000000001,-0.4,-1.0,1.6,9.3,17.9,22.5,0.7,16
522,14889.0,0.1,0.6000000000000001,-0.4,-1.5,1.6,9.200000000000001,22.6,28.800000000000004,0.2,16
523,14908.0,-0.6000000000000001,0.4,-0.8,-2.0,1.5,8.4,14.400000000000002,18.1,3.3000000000000007,16
524,14925.0,-1.1,0.4,-1.5,-2.7,1.4000000000000001,8.0,4.5,5.6,5.2,16
525,14939.0,-1.5,0.30000000000000004,-1.8,-2.5,1.5,8.3,-27.5,-20.8,16.700000000000003,16
526,14958.0,-0.9,0.7000000000000001,-0.2,-1.4000000000000001,1.7000000000000002,10.8,-62.50000000000001,-23.5,33.9,16
527,14973.0,0.30000000000000004,0.9,2.5,-0.8,1.7000000000000002,12.200000000000001,-73.4,9.8,46.0,16
528,14991.0,1.5,0.9,4.3,0.2,1.5,14.0,-51.9,62.1,40.9,16
529,15007.0,1.6,1.7000000000000002,4.800000000000001,0.1,2.1,14.4,-12.4,80.7,20.0,16
530,15024.0,-0.9,-0.1,3.9000000000000004,-2.6,0.4,13.5,7.300000000000001,77.1,11.3,16
531,15039.0,-0.9,-0.1,3.9000000000000004,-3.7,0.1,9.600000000000001,28.400000000000002,56.400000000000006,15.8,16
532,15059.0,-1.6,1.1,-1.3,-3.5,1.7000000000000002,8.3,1.4,6.9,10.8,16
533,15073.0,-1.6,1.1,-1.3,-2.8000000000000003,2.5,8.3,-58.900000000000006,-11.900000000000002,-3.4,16
534,15091.0,-0.7000000000000001,2.3000000000000003,-0.2,-2.3000000000000003,2.6,11.200000000000001,-79.19999999999999,3.3000000000000007,12.0,16
535,15107.0,0.1,2.1,3.6,-0.9,3.0,14.100000000000001,-71.8,25.7,24.3,16
536,15124.0,1.0,4.0,4.0,-1.1,3.1,12.9,-37.800000000000004,52.80000000000001,21.500000000000004,16
537,15141.0,0.6000000000000001,2.3000000000000003,1.5,-1.9000000000000001,2.3000000000000003,9.9,-7.300000000000001,20.5,7.0,16
538,15158.0,0.30000000000000004,3.1,-1.3,-1.8,3.1,8.3,8.8,-28.700000000000003,-40.7,16
539,15173.0,0.0,2.0,-3.2,-2.0,2.0,6.4,4.1,-39.2,-65.5,16
540,15193.0,0.1,2.9000000000000004,-4.0,-1.8,2.8000000000000003,5.6000000000000005,-1.1,-4.6,-59.40000000000001,16
541,15208.0,0.6000000000000001,2.3000000000000003,-4.9,-1.4000000000000001,2.3000000000000003,4.7,-0.1,4.4,-47.5,16
542,15223.0,0.8,1.7000000000000002,-3.9000000000000004,-1.2000000000000002,1.6,5.7,-0.30000000000000004,41.50000000000001,-39.0,16
543,15240.0,0.8,1.7000000000000002,-3.9000000000000004,-1.0,1.5,3.8000000000000003,-0.30000000000000004,50.60000000000001,-37.9,16
544,15258.0,1.6,1.6,-6.5,-0.2,1.9000000000000001,2.5,-14.800000000000002,-35.3,-18.700000000000003,16
545,15273.0,2.5,3.2,-6.800000000000001,0.4,3.5,4.6000000000000005,-36.0,-95.60000000000002,-16.8,16
546,15290.0,1.7000000000000002,3.1,-4.1000000000000005,0.30000000000000004,2.6,5.5,-56.10000000000001,-118.10000000000001,-33.1,16
547,15308.0,2.5,3.1,-2.7,1.1,2.3000000000000003,8.5,-60.300000000000004,-127.3,-41.6,16
548,15324.0,1.8,3.1,0.7000000000000001,1.1,2.8000000000000003,11.3,-54.800000000000004,-125.4,-48.0,16
549,15342.0,1.3,3.7,2.0,0.2,3.0,11.9,-28.1,-88.60000000000001,-47.900000000000006,16
550,15357.0,0.2,3.9000000000000004,2.3000000000000003,-0.2,3.1,12.100000000000001,-3.0,-31.7,-32.6,16
551,15374.0,-0.30000000000000004,4.4,3.2,-0.7000000000000001,3.6,13.0,1.5,42.900000000000006,-8.600000000000001,16
552,15390.0,1.3,3.7,4.7,0.6000000000000001,2.9000000000000004,14.4,-5.300000000000001,74.80000000000001,0.0,16
553,15407.0,2.7,3.3000000000000003,8.6,1.7000000000000002,2.4000000000000004,18.3,-17.300000000000004,115.20000000000002,1.0,16
554,15425.0,1.7000000000000002,1.9000000000000001,10.200000000000001,0.30000000000000004,1.0,19.900000000000002,4.6,117.0,-32.7,16
555,15441.0,1.7000000000000002,1.9000000000000001,10.200000000000001,-0.7000000000000001,0.4,17.7,31.099999999999998,92.90000000000002,-63.500000000000014,16
556,15458.0,0.9,1.2000000000000002,8.1,-1.6,-0.1,15.600000000000001,28.3,50.60000000000001,-74.7,16
557,15473.0,-1.0,0.6000000000000001,4.9,-3.3000000000000003,0.2,13.700000000000001,25.8,30.200000000000003,-77.4,16
558,15490.0,-1.4000000000000001,1.1,3.1,-3.1,0.4,11.5,14.600000000000001,17.1,-76.2,16
559,15507.0,-1.0,1.2000000000000002,0.8,-2.6,0.2,8.6,-1.6,5.2,-69.3,16
560,15526.0,-0.5,1.3,-0.2,-1.5,0.6000000000000001,8.700000000000001,-30.699999999999996,-34.800000000000004,-79.00000000000001,16
561,15541.0,0.0,1.1,-1.0,-1.6,0.1,8.6,-42.7,-53.300000000000004,-86.89999999999999,16
562,15557.0,-1.4000000000000001,1.1,-0.5,-2.8000000000000003,-0.1,9.200000000000001,-31.9,-49.699999999999996,-67.9,16
563,15573.0,0.0,1.8,-0.1,-1.2000000000000002,0.6000000000000001,9.600000000000001,-14.5,-43.2,-60.300000000000004,16
564,15590.0,-0.4,1.2000000000000002,-1.0,-1.6,0.1,8.700000000000001,27.3,-5.500000000000001,-61.599999999999994,16
565,15608.0,-0.2,1.2000000000000002,-3.2,-1.5,0.2,6.4,64.9,37.800000000000004,-58.1,16
566,15624.0,-0.2,1.2000000000000002,-3.2,-1.7000000000000002,0.30000000000000004,5.6000000000000005,82.9,71.7,-57.00000000000001,16
567,15639.0,-0.5,0.8,-5.300000000000001,-2.3000000000000003,-0.1,3.4000000000000004,83.30000000000001,67.60000000000001,-45.8,16
568,15657.0,0.0,0.6000000000000001,-7.6000000000000005,-1.4000000000000001,0.0,1.6,59.20000000000001,32.5,-51.6,16
569,15674.0,0.30000000000000004,0.0,-8.4,-1.9000000000000001,-0.8,1.3,27.6,-5.8,-58.0,16
570,15690.0,-0.5,-0.7000000000000001,-7.5,-2.9000000000000004,-1.1,2.9000000000000004,18.4,-13.000000000000002,-56.300000000000004,16
571,15708.0,-1.6,-1.2000000000000002,-6.5,-3.6,-1.9000000000000001,2.7,11.8,18.200000000000003,-41.6,16
572,15724.0,-1.5,-2.0,-7.4,-3.4000000000000004,-2.3000000000000003,2.2,0.1,65.10000000000001,-27.2,16
573,15739.0,-1.0,-2.6,-7.4,-3.2,-3.0,2.1,-28.1,99.39999999999999,-16.700000000000003,16
574,15758.0,-2.0,-3.3000000000000003,-6.300000000000001,-4.5,-3.8000000000000003,3.1,-54.800000000000004,109.9,-3.9,16
575,15773.0,-1.9000000000000001,-4.5,-6.1000000000000005,-4.800000000000001,-5.300000000000001,3.3000000000000003,-68.7,99.10000000000001,4.4,16
576,15790.0,-2.1,-6.0,-5.1000000000000005,-5.1000000000000005,-7.0,4.2,-103.40000000000002,59.60000000000001,16.4,16
577,15807.0,-2.1,-6.0,-5.1000000000000005,-5.4,-8.700000000000001,5.300000000000001,-138.9,26.700000000000003,25.300000000000004,16
578,15828.0,-1.9000000000000001,-7.2,-2.7,-5.1000000000000005,-9.1,6.4,-169.0,27.0,36.1,16
579,15840.0,-1.9000000000000001,-7.2,-2.7,-4.800000000000001,-9.1,7.4,-189.70000000000002,69.9,49.699999999999996,16
580,15856.0,-1.2000000000000002,-6.6000000000000005,0.0,-4.800000000000001,-9.200000000000001,9.600000000000001,-192.50000000000003,107.00000000000001,56.400000000000006,16
581,15874.0,-0.6000000000000001,-6.9,1.1,-4.1000000000000005,-10.4,9.200000000000001,-188.9,157.4,60.400000000000006,16
582,15890.0,0.6000000000000001,-7.800000000000001,0.6000000000000001,-3.7,-12.0,8.8,-199.6,156.9,39.2,16
583,15908.0,0.7000000000000001,-8.700000000000001,2.0,-4.5,-12.8,10.100000000000001,-212.70000000000002,131.7,8.3,16
584,15923.0,0.30000000000000004,-9.1,3.0,-4.800000000000001,-13.5,10.100000000000001,-219.20000000000002,112.1,-18.200000000000003,16
585,15941.0,0.0,-8.700000000000001,4.2,-5.300000000000001,-13.600000000000001,10.8,-229.70000000000002,109.9,-51.6,16
586,15959.0,0.30000000000000004,-7.4,6.5,-5.1000000000000005,-13.0,12.600000000000001,-229.99999999999997,129.5,-88.50000000000001,16
587,15975.0,0.7000000000000001,-5.1000000000000005,10.0,-4.800000000000001,-11.100000000000001,15.4,-214.39999999999998,154.00000000000003,-105.5,16
588,15989.0,0.7000000000000001,-5.1000000000000005,10.0,-4.4,-10.0,14.8,-166.20000000000002,212.40000000000003,-144.60000000000002,16
589,16007.0,0.8,-2.8000000000000003,7.800000000000001,-5.300000000000001,-9.0,10.9,-150.4,229.8,-178.1,16
590,16025.0,-0.5,-1.4000000000000001,6.300000000000001,-6.800000000000001,-8.1,11.4,-137.8,207.7,-190.40000000000003,16
591,16041.0,-2.9000000000000004,0.30000000000000004,8.700000000000001,-8.8,-6.800000000000001,12.200000000000001,-98.0,140.0,-170.2,16
592,16058.0,-3.4000000000000004,2.1,8.8,-8.0,-5.300000000000001,10.700000000000001,-68.7,71.30000000000001,-156.70000000000002,16
593,16073.0,-3.5,3.6,7.300000000000001,-8.6,-3.9000000000000004,9.4,-61.300000000000004,48.50000000000001,-152.5,16
594,16090.0,-5.1000000000000005,5.300000000000001,6.5,-9.3,-3.2,9.0,-48.9,23.800000000000004,-140.10000000000002,16
595,16106.0,-7.2,6.5,4.7,-11.100000000000001,-2.2,7.0,-46.9,-3.5,-110.30000000000001,16
596,16123.0,-8.200000000000001,7.6000000000000005,4.0,-11.9,-1.2000000000000002,6.2,-58.2,-36.400000000000006,-63.10000000000001,16
597,16141.0,-7.6000000000000005,8.1,4.5,-11.100000000000001,-0.8,6.5,-64.9,-62.800000000000004,-17.1,16
598,16161.0,-6.2,8.4,5.5,-9.700000000000001,-0.5,7.4,-62.1,-74.89999999999999,15.399999999999999,16
599,16173.0,-4.9,9.1,7.4,-8.4,0.1,9.4,-54.4,-77.1,23.800000000000004,16
600,16190.0,-4.9,9.1,7.4,-8.5,0.30000000000000004,10.0,-29.600000000000005,-57.1,31.0,16
601,16207.0,-5.300000000000001,9.1,8.6,-9.3,-0.2,10.700000000000001,-1.4,-34.0,35.4,16
602,16225.0,-6.5,7.800000000000001,9.200000000000001,-10.200000000000001,-2.1,10.8,19.1,-16.5,37.400000000000006,16
603,16241.0,-6.6000000000000005,5.800000000000001,8.6,-10.700000000000001,-3.9000000000000004,11.3,37.7,-19.799999999999997,44.00000000000001,16
604,16256.0,-6.7,3.9000000000000004,8.8,-10.200000000000001,-5.5,10.200000000000001,45.9,-21.400000000000002,46.7,16
605,16274.0,-5.9,3.0,7.6000000000000005,-9.8,-5.800000000000001,10.200000000000001,47.3,-23.700000000000003,41.7,16
606,16292.0,-6.2,2.9000000000000004,8.9,-11.5,-5.800000000000001,12.600000000000001,55.400000000000006,-14.600000000000001,26.700000000000003,16
607,16308.0,-8.200000000000001,1.5,9.9,-12.3,-6.9,12.700000000000001,73.2,10.1,15.6,16
608,16326.0,-9.4,0.5,9.8,-13.600000000000001,-7.9,12.8,81.10000000000001,23.5,21.6,16
609,16342.0,-11.200000000000001,-2.6,9.4,-15.5,-10.8,12.5,88.50000000000001,5.7,55.7,16
610,16358.0,-9.1,-3.0,9.8,-13.600000000000001,-10.9,13.3,95.80000000000001,-8.4,78.3,16
611,16375.0,-4.9,-2.8000000000000003,8.5,-9.700000000000001,-10.5,12.3,120.50000000000001,-32.0,105.10000000000001,16
612,16390.0,-4.9,-2.8000000000000003,8.5,-8.200000000000001,-10.200000000000001,11.600000000000001,148.4,-30.699999999999996,110.30000000000001,16
613,16406.0,-1.7000000000000002,-1.6,7.5,-6.1000000000000005,-8.4,11.100000000000001,173.3,31.2,100.70000000000002,16
614,16423.0,0.2,-0.4,5.7,-5.4,-6.7,9.5,183.2,71.6,95.30000000000001,16
615,16442.0,-0.9,-0.6000000000000001,3.4000000000000004,-5.0,-6.800000000000001,7.7,188.5,151.9,95.9,16
616,16457.0,1.7000000000000002,0.30000000000000004,2.7,-5.2,-6.6000000000000005,7.0,186.00000000000003,157.8,88.8,16
617,16473.0,1.5,-1.2000000000000002,1.8,-5.0,-6.800000000000001,6.7,188.70000000000002,137.5,88.7,16
618,16491.0,2.7,-1.6,0.9,-4.1000000000000005,-6.7,5.800000000000001,204.1,105.60000000000002,86.60000000000001,16
619,16507.0,3.3000000000000003,-2.1,-0.5,-3.8000000000000003,-6.6000000000000005,4.5,210.3,103.49999999999999,79.5,16
620,16523.0,3.8000000000000003,-2.1,-1.5,-3.5,-6.1000000000000005,3.6,207.79999999999998,111.30000000000001,77.4,16
621,16540.0,4.1000000000000005,-2.8000000000000003,-1.7000000000000002,-3.5,-6.4,3.2,197.20000000000002,129.60000000000002,76.3,16
622,16556.0,4.1000000000000005,-2.8000000000000003,-1.7000000000000002,-3.6,-6.800000000000001,4.0,185.6,162.0,76.89999999999999,16
623,16575.0,5.1000000000000005,-4.4,0.0,-3.2,-7.1000000000000005,4.4,179.40000000000003,200.60000000000002,74.7,16
624,16590.0,5.1000000000000005,-4.4,0.0,-3.1,-7.9,3.0,174.20000000000002,208.3,71.10000000000001,16
625,16609.0,6.1000000000000005,-6.0,-2.6,-1.4000000000000001,-7.1000000000000005,0.6000000000000001,160.0,133.0,62.1,16
626,16626.0,7.1000000000000005,-5.4,-3.6,-2.3000000000000003,-8.1,0.30000000000000004,123.9,79.5,35.0,16
627,16640.0,7.1000000000000005,-6.2,-3.0,-2.0,-7.6000000000000005,1.3,107.19999999999999,67.7,25.1,16
628,16661.0,7.0,-6.1000000000000005,-1.8,-2.0,-7.7,1.8,72.7,76.89999999999999,-0.2,16
629,16673.0,7.0,-6.300000000000001,-1.7000000000000002,-2.1,-7.800000000000001,1.6,62.4,82.39999999999999,-6.300000000000001,16
630,16691.0,6.5,-6.9,-2.4000000000000004,-2.7,-8.4,0.6000000000000001,36.300000000000004,83.2,-14.700000000000001,16
631,16708.0,6.6000000000000005,-8.0,-2.0,-2.7,-9.600000000000001,0.8,1.4,76.0,-29.900000000000006,16
632,16723.0,7.300000000000001,-8.4,-1.8,-2.0,-10.100000000000001,0.8,-12.5,57.1,-44.00000000000001,16
633,16740.0,7.0,-7.9,-0.9,-2.3000000000000003,-9.9,1.7000000000000002,-43.00000000000001,3.7000000000000006,-76.89999999999999,16
634,16757.0,7.0,-7.9,-0.9,-2.5,-9.700000000000001,2.2,-71.5,-31.6,-99.9,16
635,16773.0,6.6000000000000005,-7.4,-0.2,-2.9000000000000004,-9.700000000000001,3.8000000000000003,-90.6,-38.0,-125.80000000000001,16
636,16792.0,5.6000000000000005,-7.2,2.5,-4.7,-10.4,6.2,-80.50000000000001,-17.300000000000004,-142.20000000000002,16
637,16806.0,2.9000000000000004,-7.5,4.3,-6.5,-11.200000000000001,6.800000000000001,-64.2,-3.3000000000000007,-143.4,16
638,16823.0,1.9000000000000001,-7.6000000000000005,3.4000000000000004,-7.300000000000001,-11.5,4.5,-39.400000000000006,20.599999999999998,-143.9,16
639,16842.0,0.8,-7.300000000000001,0.6000000000000001,-7.9,-11.700000000000001,2.0,-43.50000000000001,7.0,-149.50000000000003,16
640,16861.0,0.5,-6.800000000000001,-0.5,-7.5,-10.9,1.8,-69.9,-57.800000000000004,-160.0,16
641,16872.0,0.6000000000000001,-5.7,0.0,-7.300000000000001,-10.9,2.5,-96.4,-110.6,-172.1,16
642,16890.0,0.0,-4.7,1.0,-7.5,-10.5,3.7,-119.60000000000002,-114.2,-178.8,16
643,16907.0,-1.5,-2.9000000000000004,2.6,-8.6,-9.200000000000001,5.300000000000001,-124.90000000000002,-93.4,-176.20000000000002,16
644,16922.0,-2.6,-1.3,3.3000000000000003,-9.3,-8.0,5.7,-116.2,-26.9,-162.6,16
645,16942.0,-4.0,0.0,2.3000000000000003,-10.4,-7.1000000000000005,4.5,-92.39999999999999,25.8,-145.20000000000002,16
646,16958.0,-4.0,0.0,2.3000000000000003,-10.8,-6.5,3.4000000000000004,-69.9,32.7,-123.7,16
647,16975.0,-4.6000000000000005,1.3,0.0,-10.600000000000001,-6.0,0.30000000000000004,-67.8,-10.5,-110.2,16
648,16991.0,-4.2,1.9000000000000001,-2.8000000000000003,-9.9,-5.4,-1.4000000000000001,-95.69999999999999,-76.0,-110.0,16
649,17007.0,-4.5,2.5,-2.9000000000000004,-10.100000000000001,-5.1000000000000005,-0.5,-113.00000000000001,-98.39999999999999,-107.19999999999999,16
650,17024.0,-4.4,3.3000000000000003,-1.4000000000000001,-9.200000000000001,-4.7,0.9,-137.1,-113.1,-97.89999999999999,16
651,17039.0,-4.0,3.9000000000000004,0.4,-9.0,-4.5,1.8,-143.1,-95.1,-99.10000000000001,16
652,17059.0,-4.800000000000001,4.7,2.2,-9.9,-3.7,3.7,-129.5,-53.400000000000006,-98.39999999999999,16
653,17073.0,-6.0,5.2,3.3000000000000003,-10.4,-3.4000000000000004,4.1000000000000005,-100.5,-25.4,-95.4,16
654,17090.0,-7.6000000000000005,6.1000000000000005,3.5,-11.8,-2.7,4.1000000000000005,-81.7,-18.3,-92.2,16
655,17107.0,-9.9,6.9,1.9000000000000001,-13.9,-2.0,2.5,-49.0,-18.1,-80.9,16
656,17123.0,-9.9,6.9,1.9000000000000001,-15.5,-1.6,1.8,-35.3,-25.300000000000004,-58.800000000000004,16
657,17142.0,-12.9,7.1000000000000005,1.0,-16.7,-1.9000000000000001,1.4000000000000001,-34.0,-22.3,-37.0,16
658,17158.0,-12.9,7.1000000000000005,1.0,-17.400000000000002,-2.5,1.5,-42.60000000000001,-16.3,-16.3,16
659,17173.0,-13.8,6.1000000000000005,1.7000000000000002,-17.400000000000002,-3.2,2.8000000000000003,-46.300000000000004,-10.700000000000001,0.8,16
660,17191.0,-13.3,5.6000000000000005,3.6,-17.0,-3.7,5.0,-33.6,-1.0,6.4,16
661,17206.0,-13.4,5.5,6.2,-17.6,-3.4000000000000004,7.4,-18.900000000000002,7.6,8.700000000000001,16
662,17224.0,-14.700000000000001,5.4,8.1,-19.5,-4.1000000000000005,8.5,23.5,36.8,23.099999999999998,16
663,17240.0,-16.2,4.2,8.0,-20.200000000000003,-4.7,8.200000000000001,63.900000000000006,71.30000000000001,55.2,16
664,17259.0,-16.400000000000002,2.4000000000000004,6.7,-20.6,-6.5,7.0,89.10000000000001,91.4,97.50000000000001,16
665,17273.0,-15.200000000000001,0.1,4.9,-19.8,-8.6,5.300000000000001,94.3,94.2,116.4,16
666,17291.0,-13.0,-1.2000000000000002,3.5,-18.0,-9.600000000000001,4.1000000000000005,92.2,83.70000000000002,142.0,16
667,17307.0,-11.0,-1.9000000000000001,3.3000000000000003,-16.5,-10.100000000000001,4.0,78.80000000000001,61.10000000000001,156.0,16
668,17323.0,-11.0,-1.9000000000000001,3.3000000000000003,-15.600000000000001,-10.0,4.3,69.4,43.800000000000004,168.9,16
669,17343.0,-6.1000000000000005,-1.7000000000000002,4.3,-12.4,-9.1,5.2,70.6,37.7,178.60000000000002,16
670,17359.0,-6.1000000000000005,-1.7000000000000002,4.3,-11.600000000000001,-8.8,5.4,83.00000000000001,41.1,183.5,16
671,17373.0,-4.0,-1.7000000000000002,4.5,-10.0,-8.6,5.7,93.4,44.8,184.0,16
672,17391.0,-2.1,-1.9000000000000001,4.6000000000000005,-8.9,-8.5,5.6000000000000005,118.90000000000002,60.1,184.1,16
673,17406.0,-0.8,-2.5,4.0,-7.800000000000001,-8.6,4.800000000000001,144.60000000000002,82.9,185.90000000000003,16
674,17424.0,0.7000000000000001,-3.1,2.8000000000000003,-6.800000000000001,-8.8,3.5,161.6,108.90000000000002,185.80000000000004,16
675,17440.0,1.8,-3.8000000000000003,1.8,-6.5,-8.9,3.0,165.00000000000003,132.9,182.4,16
676,17459.0,2.6,-4.7,0.8,-6.1000000000000005,-9.200000000000001,2.0,158.2,142.90000000000003,177.8,16
677,17473.0,3.1,-5.1000000000000005,0.30000000000000004,-5.800000000000001,-9.0,1.3,151.3,143.6,174.6,16
678,17490.0,3.3000000000000003,-5.7,0.0,-5.800000000000001,-9.200000000000001,0.7000000000000001,133.3,140.0,167.7,16
679,17507.0,3.6,-6.6000000000000005,-0.6000000000000001,-5.7,-9.600000000000001,-0.1,110.4,126.4,158.50000000000003,16
680,17526.0,4.1000000000000005,-7.300000000000001,-1.4000000000000001,-5.4,-9.9,-1.2000000000000002,77.5,103.3,152.3,16
681,17541.0,4.1000000000000005,-7.300000000000001,-1.4000000000000001,-4.800000000000001,-10.0,-1.7000000000000002,32.7,63.8,149.4,16
682,17559.0,5.5,-7.9,-1.9000000000000001,-3.4000000000000004,-10.100000000000001,-1.8,-15.2,11.8,137.4,16
683,17574.0,7.0,-8.4,-1.2000000000000002,-2.2,-10.200000000000001,-0.6000000000000001,-35.8,-11.5,128.1,16
684,17590.0,7.800000000000001,-9.200000000000001,-0.1,-1.5,-10.9,0.4,-65.5,-47.5,108.90000000000002,16
685,17607.0,8.8,-10.100000000000001,0.9,-0.5,-11.4,1.7000000000000002,-83.60000000000001,-70.8,83.80000000000001,16
686,17625.0,9.700000000000001,-10.5,2.0,0.0,-11.5,2.4000000000000004,-90.1,-75.1,54.699999999999996,16
687,17639.0,10.700000000000001,-9.8,2.8000000000000003,0.9,-10.700000000000001,3.4000000000000004,-85.4,-68.9,18.1,16
688,17660.0,10.9,-8.9,3.3000000000000003,1.1,-9.8,4.2,-75.2,-54.0,-24.0,16
689,17672.0,9.600000000000001,-8.9,3.4000000000000004,-0.1,-10.0,4.3,-69.9,-45.099999999999994,-46.0,16
690,17690.0,7.800000000000001,-8.8,3.6,-1.9000000000000001,-10.3,4.6000000000000005,-58.0,-25.900000000000002,-87.40000000000002,16
691,17707.0,7.800000000000001,-8.8,3.6,-2.8000000000000003,-10.3,4.6000000000000005,-42.800000000000004,-0.8,-120.00000000000001,16
692,17723.0,5.9,-8.6,3.3000000000000003,-4.4,-10.600000000000001,3.9000000000000004,-30.5,15.299999999999999,-146.8,16
693,17740.0,4.6000000000000005,-8.4,2.6,-5.4,-10.8,3.2,-25.6,19.200000000000003,-173.3,16
694,17758.0,3.4000000000000004,-8.1,1.9000000000000001,-6.6000000000000005,-10.9,2.4000000000000004,-29.900000000000006,11.2,-197.9,16
695,17773.0,2.1,-7.4,1.2000000000000002,-7.300000000000001,-10.700000000000001,1.9000000000000001,-35.2,0.9000000000000001,-209.20000000000002,16
696,17792.0,1.4000000000000001,-6.4,1.3,-7.7,-10.3,2.4000000000000004,-47.1,-24.7,-230.20000000000005,16
697,17808.0,0.2,-5.2,1.9000000000000001,-8.9,-9.700000000000001,3.2,-53.10000000000001,-45.400000000000006,-243.30000000000004,16
698,17823.0,-1.3,-3.9000000000000004,2.7,-9.4,-9.4,3.6,-49.0,-52.7,-240.7,16
699,17840.0,-3.0,-2.7,2.7,-10.600000000000001,-8.8,3.7,-37.0,-57.400000000000006,-227.0,16
700,17856.0,-3.8000000000000003,-1.4000000000000001,2.0,-11.0,-8.0,3.0,-30.599999999999998,-60.00000000000001,-217.00000000000003,16
701,17873.0,-3.9000000000000004,-0.4,0.7000000000000001,-10.600000000000001,-7.4,1.8,-26.300000000000004,-62.0,-201.40000000000003,16
702,17892.0,-4.3,0.8,0.2,-10.5,-6.7,1.4000000000000001,-32.400000000000006,-63.0,-193.0,16
703,17906.0,-4.3,0.8,0.2,-10.700000000000001,-6.4,1.4000000000000001,-39.8,-61.39999999999999,-185.4,16
704,17924.0,-5.1000000000000005,1.7000000000000002,0.2,-11.100000000000001,-5.7,1.3,-46.0,-63.10000000000001,-173.9,16
705,17939.0,-6.1000000000000005,2.8000000000000003,0.0,-12.0,-4.9,1.1,-49.1,-67.4,-166.20000000000002,16
706,17962.0,-7.7,3.8000000000000003,-0.1,-13.200000000000001,-4.4,1.1,-55.3,-91.90000000000002,-130.3,16
707,17975.0,-9.1,4.6000000000000005,0.1,-13.700000000000001,-3.5,1.4000000000000001,-56.10000000000001,-98.10000000000001,-116.1,16
708,17990.0,-9.5,5.7,0.5,-13.8,-3.1,1.6,-54.199999999999996,-101.9,-95.9,16
709,18007.0,-10.8,6.5,1.0,-14.700000000000001,-2.4000000000000004,2.1,-44.7,-81.10000000000001,-82.8,16
710,18023.0,-12.3,6.7,0.5,-16.1,-2.3000000000000003,1.6,-30.9,-52.300000000000004,-74.10000000000001,16
711,18040.0,-13.9,6.9,-0.9,-17.400000000000002,-2.2,0.2,-30.5,-43.4,-70.0,16
712,18062.0,-15.700000000000001,6.2,-1.5,-19.200000000000003,-2.9000000000000004,-0.6000000000000001,-61.39999999999999,-42.7,-40.0,16
713,18075.0,-16.6,5.800000000000001,0.7000000000000001,-20.0,-3.3000000000000003,1.5,-72.0,-53.0,-28.500000000000004,16
714,18090.0,-16.6,5.800000000000001,0.7000000000000001,-19.900000000000002,-3.2,3.5,-66.4,-61.599999999999994,-9.5,16
715,18107.0,-16.3,6.5,4.800000000000001,-19.6,-2.2,7.1000000000000005,-17.1,-34.2,4.2,16
716,18123.0,-16.5,7.4,7.2,-20.3,-1.8,8.0,46.199999999999996,22.6,26.799999999999997,16
717,18140.0,-17.3,6.9,6.5,-21.0,-2.9000000000000004,6.2,70.8,51.4,44.300000000000004,16
718,18160.0,-17.3,5.300000000000001,4.1000000000000005,-20.900000000000002,-4.7,4.0,103.2,93.00000000000001,104.4,16
719,18173.0,-16.400000000000002,3.1,1.8,-20.5,-5.7,3.0,101.6,91.8,122.39999999999999,16
720,18190.0,-14.3,1.2000000000000002,0.1,-18.8,-7.4,1.4000000000000001,79.3,78.10000000000001,147.4,16
721,18206.0,-12.200000000000001,0.1,0.1,-17.2,-8.3,1.5,45.400000000000006,55.400000000000006,161.6,16
722,18223.0,-10.0,-0.5,1.8,-15.4,-8.5,3.2,23.5,37.9,174.80000000000004,16
723,18239.0,-8.1,-0.9,3.9000000000000004,-14.0,-8.6,5.300000000000001,22.000000000000004,34.2,182.5,16
724,18259.0,-5.7,-1.0,4.9,-12.100000000000001,-8.3,6.300000000000001,36.6,33.6,198.60000000000002,16
725,18273.0,-5.7,-1.0,4.9,-11.200000000000001,-8.3,6.300000000000001,63.599999999999994,36.400000000000006,207.90000000000003,16
726,18290.0,-3.3000000000000003,-1.5,4.5,-9.4,-8.3,5.7,89.9,42.2,207.79999999999998,16
727,18308.0,-1.2000000000000002,-1.9000000000000001,3.9000000000000004,-8.1,-8.3,5.0,109.10000000000001,65.89999999999999,202.20000000000002,16
728,18322.0,0.30000000000000004,-2.5,2.7,-6.9,-8.200000000000001,3.8000000000000003,114.10000000000001,77.7,197.9,16
729,18340.0,1.5,-3.0,1.9000000000000001,-6.4,-8.3,3.3000000000000003,117.80000000000001,95.5,187.50000000000003,16
730,18356.0,2.3000000000000003,-3.6,1.6,-6.1000000000000005,-8.3,3.2,117.60000000000001,104.4,176.3,16
731,18374.0,2.5,-4.3,1.5,-6.2,-8.4,2.9000000000000004,117.4,104.4,168.8,16
732,18391.0,2.9000000000000004,-4.800000000000001,0.8,-6.1000000000000005,-8.5,2.1,110.10000000000001,94.80000000000001,162.20000000000002,16
733,18407.0,3.4000000000000004,-5.4,0.2,-5.800000000000001,-8.6,1.3,92.2,88.20000000000002,153.89999999999998,16
734,18423.0,3.5,-6.4,-0.1,-5.800000000000001,-9.1,0.9,79.00000000000001,88.00000000000001,149.4,16
735,18442.0,4.0,-7.2,0.7000000000000001,-5.5,-9.5,1.5,51.1,87.60000000000001,139.9,16
736,18457.0,4.5,-7.7,0.7000000000000001,-5.1000000000000005,-9.600000000000001,1.2000000000000002,25.0,87.2,128.70000000000002,16
737,18473.0,4.5,-7.7,0.7000000000000001,-4.7,-9.8,1.7000000000000002,-1.7,56.0,117.20000000000002,16
738,18489.0,5.4,-8.1,2.3000000000000003,-3.8000000000000003,-9.9,2.9000000000000004,-11.900000000000002,18.1,101.80000000000001,16
739,18510.0,6.4,-8.8,2.5,-3.0,-10.600000000000001,2.7,-18.4,-24.200000000000003,78.3,16
740,18523.0,6.9,-10.0,2.1,-2.6,-11.200000000000001,2.2,-23.3,-40.0,64.10000000000001,16
741,18540.0,7.5,-10.0,1.6,-1.9000000000000001,-10.600000000000001,1.6,-36.300000000000004,-54.300000000000004,36.1,16
742,18559.0,8.3,-9.1,0.8,-1.3,-9.5,2.1,-55.900000000000006,-60.7,5.300000000000001,16
743,18572.0,8.200000000000001,-8.1,1.7000000000000002,-1.5,-9.200000000000001,2.6,-64.60000000000001,-55.3,-21.500000000000004,16
744,18591.0,7.4,-8.200000000000001,2.3000000000000003,-2.3000000000000003,-9.3,3.2,-60.00000000000001,-53.300000000000004,-43.300000000000004,16
745,18607.0,7.0,-8.3,2.2,-2.7,-9.700000000000001,3.3000000000000003,-55.60000000000001,-54.699999999999996,-56.2,16
746,18623.0,6.300000000000001,-8.3,1.2000000000000002,-3.2,-10.0,2.5,-47.900000000000006,-53.0,-82.60000000000001,16
747,18640.0,5.6000000000000005,-8.0,0.5,-3.9000000000000004,-10.100000000000001,1.9000000000000001,-52.1,-47.900000000000006,-110.6,16
748,18656.0,5.6000000000000005,-8.0,0.5,-4.3,-9.9,2.0,-62.0,-38.400000000000006,-139.60000000000002,16
749,18674.0,4.5,-7.1000000000000005,0.6000000000000001,-5.6000000000000005,-9.4,2.3000000000000003,-70.6,-30.200000000000003,-162.6,16
750,18691.0,2.9000000000000004,-6.0,1.2000000000000002,-7.0,-8.700000000000001,3.0,-70.10000000000001,-27.700000000000003,-174.00000000000003,16
751,18707.0,1.4000000000000001,-4.6000000000000005,1.5,-7.9,-7.800000000000001,2.7,-67.10000000000001,-30.3,-176.5,16
752,18723.0,0.8,-3.3000000000000003,0.6000000000000001,-7.800000000000001,-7.1000000000000005,1.7000000000000002,-64.9,-48.2,-181.70000000000002,16
753,18740.0,0.6000000000000001,-2.2,-0.1,-8.1,-6.800000000000001,1.5,-72.7,-70.2,-187.7,16
754,18757.0,-0.30000000000000004,-1.4000000000000001,0.0,-8.4,-6.7,1.7000000000000002,-81.60000000000001,-75.4,-187.7,16
755,18774.0,-1.7000000000000002,-0.7000000000000001,0.4,-9.4,-6.5,2.1,-84.3,-64.60000000000001,-181.70000000000002,16
756,18793.0,-2.3000000000000003,0.30000000000000004,0.8,-9.700000000000001,-5.9,2.5,-81.2,-46.6,-175.20000000000002,16
757,18807.0,-2.7,1.3,0.6000000000000001,-9.700000000000001,-5.4,2.2,-78.4,-39.0,-174.20000000000002,16
758,18823.0,-3.4000000000000004,2.3000000000000003,-0.1,-10.0,-4.800000000000001,1.4000000000000001,-76.7,-33.0,-175.79999999999998,16
759,18842.0,-4.7,3.4000000000000004,-0.5,-10.9,-4.1000000000000005,0.9,-82.7,-38.800000000000004,-175.10000000000002,16
760,18857.0,-4.7,3.4000000000000004,-0.5,-11.600000000000001,-4.0,0.9,-96.80000000000001,-50.5,-167.79999999999998,16
761,18873.0,-6.5,4.0,0.1,-13.0,-3.5,2.4000000000000004,-102.4,-60.2,-155.60000000000002,16
762,18890.0,-8.4,5.0,2.5,-14.4,-2.7,4.7,-80.4,-51.2,-141.2,16
763,18906.0,-10.100000000000001,6.1000000000000005,4.4,-16.0,-1.9000000000000001,5.5,-60.5,-40.0,-134.3,16
764,18924.0,-12.100000000000001,6.800000000000001,3.7,-17.400000000000002,-1.8,3.3000000000000003,-22.000000000000004,-19.700000000000003,-118.40000000000002,16
765,18942.0,-13.9,6.7,1.1,-19.1,-2.5,1.3,-14.800000000000002,-17.6,-97.00000000000001,16
766,18957.0,-15.600000000000001,5.9,0.30000000000000004,-19.8,-3.0,1.2000000000000002,-31.3,-25.6,-69.10000000000001,16
767,18973.0,-16.3,5.5,2.0,-20.3,-3.4000000000000004,2.8000000000000003,-39.0,-22.5,-44.6,16
768,18990.0,-16.3,5.800000000000001,4.3,-20.200000000000003,-3.1,5.1000000000000005,-22.8,-2.3,-31.6,16
769,19006.0,-17.3,6.4,6.2,-21.200000000000003,-2.5,6.9,-5.4,13.000000000000002,-24.3,16
770,19023.0,-17.3,6.4,6.2,-22.700000000000003,-3.1,6.6000000000000005,33.7,46.199999999999996,7.1000000000000005,16
771,19042.0,-18.400000000000002,4.0,4.4,-22.5,-4.800000000000001,5.300000000000001,58.800000000000004,63.599999999999994,58.800000000000004,16
772,19057.0,-18.400000000000002,4.0,4.4,-21.8,-6.0,4.7,67.10000000000001,60.00000000000001,107.19999999999999,16
773,19073.0,-16.2,1.5,3.2,-19.5,-8.0,3.8000000000000003,63.0,49.699999999999996,138.20000000000002,16
774,19090.0,-13.3,-0.1,2.4000000000000004,-18.2,-8.5,3.5,57.699999999999996,43.800000000000004,147.5,16
775,19107.0,-10.200000000000001,-0.8,2.1,-14.3,-8.9,3.5,45.2,30.4,159.1,16
776,19124.0,-7.4,-0.9,2.6,-13.200000000000001,-8.700000000000001,3.9000000000000004,39.9,18.8,165.4,16
777,19139.0,-5.0,-0.6000000000000001,3.3000000000000003,-11.200000000000001,-8.1,4.6000000000000005,48.400000000000006,15.899999999999999,167.50000000000003,16
778,19156.0,-3.4000000000000004,-0.5,3.4000000000000004,-10.0,-7.6000000000000005,4.800000000000001,66.3,21.900000000000002,168.9,16
779,19174.0,-2.2,-0.7000000000000001,2.9000000000000004,-9.200000000000001,-7.4,4.4,85.30000000000001,29.1,172.9,16
780,19191.0,-0.8,-1.2000000000000002,2.1,-8.200000000000001,-7.4,3.8000000000000003,93.8,32.8,174.6,16
781,19207.0,0.6000000000000001,-1.6,1.5,-7.1000000000000005,-7.4,3.3000000000000003,106.70000000000002,41.300000000000004,174.10000000000002,16
782,19226.0,1.8,-2.1,0.7000000000000001,-6.300000000000001,-7.4,2.6,113.7,54.1,170.70000000000002,16
783,19240.0,1.8,-2.1,0.7000000000000001,-6.0,-7.300000000000001,2.4000000000000004,112.9,68.9,164.5,16
784,19258.0,2.5,-2.5,0.4,-5.7,-7.4,2.2,110.0,83.70000000000002,159.6,16
785,19273.0,3.2,-3.1,0.30000000000000004,-5.2,-7.6000000000000005,2.0,107.7,89.30000000000001,156.0,16
786,19290.0,3.8000000000000003,-3.9000000000000004,0.4,-5.0,-8.1,1.9000000000000001,101.10000000000001,99.5,147.4,16
787,19307.0,4.2,-4.9,0.5,-4.9,-8.6,1.9000000000000001,94.5,102.5,137.3,16
788,19323.0,4.4,-6.0,0.2,-4.9,-9.0,1.4000000000000001,82.8,94.4,130.3,16
789,19341.0,4.9,-6.6000000000000005,-1.1,-4.5,-9.200000000000001,0.0,52.5,69.80000000000001,125.9,16
790,19356.0,5.800000000000001,-6.9,-1.7000000000000002,-3.7,-9.200000000000001,-0.7000000000000001,10.5,31.099999999999998,119.89999999999999,16
791,19373.0,6.6000000000000005,-7.7,-1.1,-3.0,-9.700000000000001,-0.2,-9.3,10.200000000000001,115.60000000000001,16
792,19390.0,7.2,-8.9,-0.30000000000000004,-2.4000000000000004,-10.600000000000001,0.6000000000000001,-41.50000000000001,-27.0,101.80000000000001,16
793,19408.0,8.0,-9.700000000000001,0.4,-1.7000000000000002,-11.200000000000001,1.4000000000000001,-64.10000000000001,-51.1,80.0,16
794,19424.0,8.0,-9.700000000000001,0.4,-1.0,-10.9,1.8,-79.00000000000001,-59.1,48.9,16
795,19441.0,9.4,-8.9,0.8,0.30000000000000004,-9.8,2.4000000000000004,-88.7,-50.8,9.0,16
796,19459.0,10.100000000000001,-8.1,1.5,0.1,-9.5,3.4000000000000004,-90.1,-35.3,-35.2,16
797,19474.0,9.1,-8.1,2.7,-1.3,-9.9,4.7,-85.1,-27.0,-56.400000000000006,16
798,19490.0,7.2,-8.200000000000001,3.5,-3.4000000000000004,-10.4,4.9,-66.60000000000001,-10.4,-91.10000000000001,16
799,19508.0,5.2,-8.4,3.1,-4.7,-11.0,4.0,-46.9,-8.600000000000001,-114.3,16
800,19523.0,4.5,-8.4,2.1,-4.800000000000001,-11.100000000000001,3.6,-39.50000000000001,-17.400000000000002,-138.00000000000003,16
801,19543.0,4.3,-7.800000000000001,1.6,-4.9,-11.0,3.1,-42.1,-20.599999999999998,-171.0,16
802,19558.0,3.3000000000000003,-6.800000000000001,1.5,-5.6000000000000005,-10.5,3.0,-47.80000000000001,-22.700000000000003,-203.4,16
803,19573.0,2.1,-5.5,1.8,-6.5,-9.9,3.3000000000000003,-49.0,-25.6,-215.8,16
804,19590.0,0.9,-4.2,1.8,-7.4,-9.3,3.4000000000000004,-48.6,-36.2,-233.60000000000002,16
805,19606.0,0.9,-4.2,1.8,-8.0,-9.0,3.6,-43.900000000000006,-43.70000000000001,-239.79999999999998,16
806,19624.0,-1.0,-2.9000000000000004,2.2,-9.5,-8.1,3.9000000000000004,-29.1,-42.7,-230.79999999999998,16
807,19639.0,-2.6,-1.3,2.0,-10.0,-7.300000000000001,3.1,-14.0,-42.900000000000006,-214.90000000000003,16
808,19657.0,-2.8000000000000003,-0.1,0.8,-9.4,-6.7,1.8,-12.200000000000001,-43.900000000000006,-208.5,16
809,19672.0,-2.7,0.7000000000000001,-0.6000000000000001,-8.9,-6.4,0.7000000000000001,-17.400000000000002,-44.00000000000001,-208.3,16
810,19691.0,-3.0,1.2000000000000002,-1.3,-9.0,-6.6000000000000005,0.30000000000000004,-36.2,-43.4,-209.00000000000003,16
811,19706.0,-3.9000000000000004,1.3,-1.3,-9.3,-6.7,0.4,-59.300000000000004,-44.00000000000001,-208.8,16
812,19723.0,-5.800000000000001,2.0,0.4,-10.600000000000001,-6.4,2.1,-68.80000000000001,-46.1,-199.4,16
813,19739.0,-7.7,2.9000000000000004,1.9000000000000001,-12.0,-5.800000000000001,3.4000000000000004,-65.3,-46.4,-188.70000000000002,16
814,19758.0,-8.9,3.8000000000000003,2.1,-12.700000000000001,-5.1000000000000005,3.6,-48.0,-53.599999999999994,-164.6,16
815,19773.0,-10.8,4.5,2.0,-14.200000000000001,-4.6000000000000005,3.5,-23.400000000000002,-65.10000000000001,-149.70000000000002,16
816,19790.0,-14.100000000000001,5.4,1.1,-17.1,-3.9000000000000004,2.6,5.6,-59.40000000000001,-134.00000000000003,16
817,19806.0,-14.100000000000001,5.4,1.1,-18.1,-3.5,1.0,14.800000000000002,-36.9,-105.5,16
818,19824.0,-16.2,5.800000000000001,-2.3000000000000003,-19.400000000000002,-3.7,-1.8,-23.5,-26.799999999999997,-73.10000000000001,16
819,19839.0,-17.7,5.2,-3.4000000000000004,-20.6,-4.6000000000000005,-0.5,-49.50000000000001,-28.800000000000004,-56.9,16
820,19858.0,-18.400000000000002,4.4,0.0,-20.700000000000003,-5.300000000000001,3.4000000000000004,-72.7,-40.300000000000004,-28.400000000000002,16
821,19873.0,-18.3,4.2,4.1000000000000005,-20.700000000000003,-5.0,6.7,-47.3,-40.7,-9.8,16
822,19890.0,-18.900000000000002,4.6000000000000005,6.0,-21.200000000000003,-4.9,7.2,6.4,-15.700000000000001,12.4,16
823,19906.0,-19.6,4.1000000000000005,4.6000000000000005,-22.0,-5.300000000000001,5.9,40.9,31.2,56.800000000000004,16
824,19926.0,-18.5,2.7,2.8000000000000003,-21.3,-6.6000000000000005,4.2,45.2,62.4,106.70000000000002,16
825,19941.0,-16.400000000000002,0.8,2.2,-19.6,-8.4,3.7,39.9,66.60000000000001,144.9,16
826,19957.0,-13.5,-0.4,1.5,-17.2,-9.4,3.0,34.1,60.2,156.70000000000002,16
827,19976.0,-10.9,-0.8,1.9000000000000001,-15.100000000000001,-9.600000000000001,3.4000000000000004,17.9,39.699999999999996,170.60000000000002,16
828,19990.0,-10.9,-0.8,1.9000000000000001,-14.100000000000001,-9.4,4.0,8.600000000000001,26.700000000000003,181.50000000000003,16
829,20008.0,-8.4,-0.8,3.2,-12.100000000000001,-9.0,5.300000000000001,16.900000000000002,29.900000000000006,189.9,16
830,20024.0,-5.9,-0.6000000000000001,4.3,-10.3,-8.6,6.0,39.0,45.099999999999994,193.60000000000002,16
831,20041.0,-3.8000000000000003,-0.7000000000000001,4.5,-8.8,-8.3,5.9,52.400000000000006,55.3,193.9,16
832,20058.0,-1.9000000000000001,-0.7000000000000001,4.1000000000000005,-7.800000000000001,-8.1,5.5,79.5,78.0,192.0,16
833,20073.0,-0.7000000000000001,-1.3,3.4000000000000004,-7.4,-8.200000000000001,5.0,102.8,98.7,188.70000000000002,16
834,20093.0,0.7000000000000001,-1.9000000000000001,2.4000000000000004,-6.2,-8.5,3.5,117.5,109.39999999999999,180.70000000000002,16
835,20107.0,1.7000000000000002,-2.6,1.4000000000000001,-5.9,-8.6,3.0,123.00000000000001,113.5,171.60000000000002,16
836,20123.0,2.4000000000000004,-3.1,0.7000000000000001,-5.5,-8.6,2.3000000000000003,122.0,114.2,166.9,16
837,20143.0,2.8000000000000003,-3.9000000000000004,0.6000000000000001,-5.5,-9.0,2.0,107.7,117.80000000000001,156.10000000000002,16
838,20159.0,3.1,-4.7,0.5,-5.5,-9.3,1.8,100.70000000000002,119.1,154.8,16
839,20174.0,3.1,-4.7,0.5,-5.5,-9.9,1.2000000000000002,83.80000000000001,118.10000000000001,152.6,16
840,20191.0,3.3000000000000003,-5.7,0.1,-5.2,-10.100000000000001,1.0,58.800000000000004,102.4,152.3,16
841,20207.0,4.2,-6.5,0.1,-4.3,-10.4,0.7000000000000001,31.799999999999997,74.30000000000001,148.3,16
842,20223.0,5.4,-7.0,0.0,-3.4000000000000004,-10.3,0.8,17.300000000000004,58.3,143.3,16
843,20242.0,6.300000000000001,-7.300000000000001,0.4,-2.6,-10.3,1.1,-16.6,10.5,118.40000000000002,16
844,20257.0,7.1000000000000005,-7.800000000000001,1.0,-2.5,-10.9,2.0,-24.7,-1.2000000000000002,108.3,16
845,20274.0,6.800000000000001,-9.1,1.7000000000000002,-2.7,-11.5,2.2,-32.300000000000004,-14.5,88.8,16
846,20290.0,6.5,-10.4,1.3,-3.1,-12.600000000000001,1.8,-37.2,-20.7,73.10000000000001,16
847,20306.0,7.9,-9.8,0.2,-1.7000000000000002,-11.8,0.8,-54.0,-25.300000000000004,54.0,16
848,20323.0,9.4,-8.8,0.2,-0.2,-10.700000000000001,0.8,-67.60000000000001,-27.0,40.6,16
849,20341.0,9.5,-9.0,1.4000000000000001,-0.1,-11.0,2.1,-91.30000000000001,-25.5,8.600000000000001,16
850,20357.0,8.8,-9.3,2.6,-0.7000000000000001,-11.5,3.3000000000000003,-98.7,-21.900000000000002,-29.900000000000006,16
851,20373.0,8.8,-9.3,2.6,-1.2000000000000002,-11.8,3.6,-93.4,-16.5,-68.7,16
852,20390.0,7.6000000000000005,-9.600000000000001,3.1,-2.3000000000000003,-12.0,3.8000000000000003,-81.7,-15.399999999999999,-106.5,16
853,20409.0,6.800000000000001,-9.1,3.1,-3.0,-11.700000000000001,3.5,-70.3,-19.400000000000002,-149.3,16
854,20425.0,5.9,-8.4,2.7,-3.9000000000000004,-11.3,3.6,-60.300000000000004,-29.800000000000004,-194.90000000000003,16
855,20441.0,4.1000000000000005,-7.1000000000000005,3.2,-5.9,-10.600000000000001,4.0,-53.0,-31.3,-211.8,16
856,20456.0,1.7000000000000002,-5.800000000000001,3.0,-7.0,-10.3,3.7,-34.7,-31.5,-230.30000000000004,16
857,20472.0,-0.30000000000000004,-4.3,2.1,-8.6,-9.4,2.9000000000000004,-18.700000000000003,-33.2,-231.10000000000005,16
858,20491.0,-1.4000000000000001,-2.5,1.5,-9.3,-8.200000000000001,2.4000000000000004,-5.0,-25.6,-222.20000000000005,16
859,20508.0,-2.0,-1.2000000000000002,-0.1,-9.5,-7.5,0.8,-3.9,-20.599999999999998,-212.70000000000002,16
860,20523.0,-2.3000000000000003,-0.1,-1.3,-9.4,-6.9,-0.4,-8.8,-21.8,-210.0,16
861,20542.0,-2.7,0.8,-2.0,-9.3,-6.4,-1.1,-25.900000000000002,-28.3,-206.99999999999997,16
862,20560.0,-3.9000000000000004,1.5,-1.6,-10.0,-6.2,-0.8,-46.9,-33.1,-204.0,16
863,20572.0,-3.9000000000000004,1.5,-1.6,-10.8,-6.0,-0.6000000000000001,-61.50000000000001,-38.400000000000006,-193.60000000000002,16
864,20590.0,-5.7,2.4000000000000004,-1.0,-11.700000000000001,-5.1000000000000005,-0.2,-69.10000000000001,-43.2,-173.20000000000002,16
865,20607.0,-6.6000000000000005,3.5,-0.8,-11.9,-4.6000000000000005,0.0,-72.60000000000001,-46.1,-163.00000000000003,16
866,20624.0,-7.6000000000000005,4.1000000000000005,-0.2,-12.9,-4.2,0.9,-78.0,-51.50000000000001,-146.7,16
867,20642.0,-9.200000000000001,4.800000000000001,1.2000000000000002,-14.100000000000001,-3.6,2.1,-73.0,-52.1,-132.0,16
868,20656.0,-10.600000000000001,5.7,1.9000000000000001,-14.700000000000001,-3.2,2.2,-56.6,-43.6,-122.30000000000001,16
869,20672.0,-12.9,6.300000000000001,1.4000000000000001,-16.7,-2.8000000000000003,1.6,-45.6,-36.7,-112.80000000000001,16
870,20690.0,-15.8,6.6000000000000005,1.4000000000000001,-19.200000000000003,-2.6,1.6,-39.599999999999994,-35.1,-103.3,16
871,20706.0,-18.2,6.4,1.2000000000000002,-21.5,-2.8000000000000003,1.3,-25.1,-34.300000000000004,-72.0,16
872,20727.0,-17.900000000000002,6.1000000000000005,0.5,-21.200000000000003,-3.1,0.6000000000000001,-17.1,-39.0,-11.4,16
873,20739.0,-17.900000000000002,6.1000000000000005,0.5,-20.5,-3.4000000000000004,0.5,-20.3,-39.2,2.3,16
874,20761.0,-15.600000000000001,5.9,3.5,-19.0,-3.3000000000000003,3.5,-20.0,-24.5,16.3,16
875,20778.0,-16.7,5.4,5.9,-20.200000000000003,-3.7,6.0,2.7,21.300000000000004,29.300000000000004,16
876,20789.0,-16.7,5.4,5.9,-20.900000000000002,-4.5,6.4,20.900000000000002,48.800000000000004,42.2,16
877,20807.0,-17.7,3.7,6.2,-21.5,-6.6000000000000005,6.1000000000000005,59.1,92.60000000000001,77.5,16
878,20822.0,-17.5,1.2000000000000002,5.300000000000001,-21.3,-8.8,4.4,88.20000000000002,112.60000000000001,112.5,16
879,20844.0,-16.400000000000002,-0.8,3.1,-19.900000000000002,-9.9,2.6,91.50000000000001,108.2,142.3,16
880,20856.0,-14.0,-1.4000000000000001,1.6,-18.900000000000002,-9.9,2.0,71.7,84.9,167.20000000000002,16
881,20875.0,-11.0,-1.5,1.8,-16.3,-9.700000000000001,2.3000000000000003,50.7,53.8,189.8,16
882,20891.0,-7.800000000000001,-1.7000000000000002,2.9000000000000004,-13.700000000000001,-9.5,3.4000000000000004,46.1,27.2,204.5,16
883,20906.0,-4.7,-1.7000000000000002,4.0,-11.100000000000001,-9.200000000000001,4.6000000000000005,51.800000000000004,20.8,208.6,16
884,20924.0,-2.1,-1.9000000000000001,4.3,-8.9,-8.9,5.0,75.7,25.900000000000002,210.8,16
885,20939.0,-2.1,-1.9000000000000001,4.3,-8.1,-8.700000000000001,4.800000000000001,104.10000000000001,47.5,207.79999999999998,16
886,20957.0,-0.1,-2.1,3.5,-6.9,-8.6,4.0,125.2,75.4,203.60000000000002,16
887,20973.0,1.3,-2.6,2.6,-6.1000000000000005,-8.700000000000001,3.0,132.3,89.30000000000001,201.60000000000002,16
888,20991.0,2.4000000000000004,-3.3000000000000003,1.6,-5.4,-8.700000000000001,2.1,138.20000000000002,110.6,196.7,16
889,21006.0,3.3000000000000003,-3.9000000000000004,0.8,-5.0,-9.0,1.2000000000000002,134.10000000000002,122.0,189.60000000000002,16
890,21023.0,3.9000000000000004,-4.7,0.2,-4.800000000000001,-9.1,0.9,121.4,119.49999999999999,178.4,16
891,21040.0,4.4,-5.300000000000001,0.1,-4.6000000000000005,-9.200000000000001,0.6000000000000001,102.8,109.00000000000001,164.3,16
892,21057.0,4.7,-6.0,-0.1,-4.5,-9.4,0.2,79.1,93.4,150.2,16
893,21073.0,4.9,-6.4,-0.1,-4.4,-9.4,0.1,49.199999999999996,76.4,139.0,16
894,21090.0,5.1000000000000005,-7.1000000000000005,-0.2,-4.3,-9.700000000000001,-0.2,32.400000000000006,66.4,137.1,16
895,21107.0,6.0,-7.6000000000000005,0.2,-3.6,-9.8,0.1,-1.4,36.7,132.1,16
896,21127.0,6.6000000000000005,-8.1,0.9,-3.0,-10.0,0.7000000000000001,-30.000000000000004,2.5,123.00000000000001,16
897,21139.0,6.6000000000000005,-8.1,0.9,-2.7,-10.100000000000001,1.0,-51.300000000000004,-28.900000000000002,111.50000000000001,16
898,21156.0,7.2,-8.8,1.5,-2.4000000000000004,-10.9,1.8,-61.199999999999996,-52.2,97.2,16
899,21173.0,7.5,-10.100000000000001,2.0,-1.7000000000000002,-11.700000000000001,2.1,-61.7,-61.50000000000001,86.60000000000001,16
900,21190.0,8.700000000000001,-10.4,1.9000000000000001,-0.5,-11.3,2.0,-60.5,-70.0,57.00000000000001,16
901,21208.0,9.700000000000001,-9.700000000000001,1.1,0.4,-10.100000000000001,1.3,-64.0,-65.4,22.2,16
902,21223.0,10.3,-8.5,0.6000000000000001,0.6000000000000001,-9.600000000000001,1.3,-76.0,-56.300000000000004,-12.8,16
903,21240.0,10.100000000000001,-8.200000000000001,1.1,0.4,-9.5,1.9000000000000001,-86.4,-45.0,-48.10000000000001,16
904,21256.0,8.9,-8.700000000000001,2.0,-0.7000000000000001,-10.200000000000001,2.8000000000000003,-86.1,-35.599999999999994,-84.2,16
905,21274.0,7.5,-9.4,2.4000000000000004,-2.1,-11.3,3.3000000000000003,-83.70000000000002,-31.9,-102.3,16
906,21292.0,6.0,-9.8,2.5,-3.5,-12.200000000000001,3.5,-75.60000000000001,-27.5,-138.6,16
907,21306.0,6.0,-9.8,2.5,-3.9000000000000004,-12.4,3.4000000000000004,-68.2,-26.5,-177.9,16
908,21325.0,2.9000000000000004,-8.9,2.1,-6.1000000000000005,-12.5,3.0,-67.9,-27.700000000000003,-219.7,16
909,21340.0,2.9000000000000004,-8.9,2.1,-7.1000000000000005,-12.4,3.3000000000000003,-69.4,-28.800000000000004,-252.30000000000004,16
910,21357.0,0.8,-7.9,2.5,-8.700000000000001,-12.3,3.6,-63.30000000000001,-36.7,-274.2,16
911,21373.0,-1.2000000000000002,-7.0,3.0,-10.100000000000001,-11.9,4.4,-56.50000000000001,-39.599999999999994,-281.3,16
912,21390.0,-3.0,-5.7,3.7,-11.4,-11.200000000000001,4.7,-34.400000000000006,-33.2,-286.5,16
913,21406.0,-4.800000000000001,-4.2,3.0,-12.0,-10.8,4.1000000000000005,-8.899999999999999,-17.5,-280.40000000000003,16
914,21423.0,-6.5,-2.6,1.1,-13.0,-9.8,2.2,4.9,-13.8,-269.70000000000005,16
915,21440.0,-8.1,-0.8,-0.9,-14.100000000000001,-8.5,0.2,0.2,-22.000000000000004,-250.60000000000002,16
916,21459.0,-9.3,0.8,-3.0,-14.600000000000001,-7.300000000000001,-1.9000000000000001,-27.9,-42.5,-222.0,16
917,21474.0,-9.700000000000001,2.1,-3.4000000000000004,-14.5,-6.4,-2.3000000000000003,-48.400000000000006,-55.8,-205.90000000000003,16
918,21492.0,-9.5,2.9000000000000004,-1.6,-13.8,-5.9,-0.6000000000000001,-85.9,-77.00000000000001,-174.00000000000003,16
919,21508.0,-9.5,2.9000000000000004,-1.6,-12.8,-5.1000000000000005,1.3,-97.89999999999999,-82.7,-152.9,16
920,21522.0,-8.9,3.9000000000000004,0.5,-12.4,-4.7,1.6,-87.7,-75.7,-146.4,16
921,21540.0,-8.9,4.9,1.1,-12.700000000000001,-3.7,1.8,-71.6,-60.7,-145.20000000000002,16
922,21558.0,-10.4,6.1000000000000005,1.4000000000000001,-14.5,-2.7,2.0,-61.300000000000004,-54.300000000000004,-142.50000000000003,16
923,21574.0,-13.0,7.2,1.8,-16.6,-1.8,2.2,-35.599999999999994,-37.2,-124.0,16
924,21590.0,-15.0,8.0,1.2000000000000002,-17.900000000000002,-1.4000000000000001,0.8,-9.5,-16.200000000000003,-95.5,16
925,21608.0,-16.2,8.0,-0.30000000000000004,-18.400000000000002,-1.6,0.0,-2.9,-1.2000000000000002,-67.2,16
926,21623.0,-17.5,7.0,-1.2000000000000002,-19.5,-2.6,-0.9,-13.900000000000002,0.8,-44.7,16
927,21641.0,-18.8,6.7,0.1,-20.700000000000003,-2.9000000000000004,0.30000000000000004,-21.400000000000002,-0.6000000000000001,-22.700000000000003,16
928,21656.0,-19.400000000000002,6.6000000000000005,2.1,-21.400000000000002,-3.1,2.3000000000000003,-18.3,-0.6000000000000001,-9.5,16
929,21674.0,-20.0,6.2,4.3,-22.1,-3.4000000000000004,4.5,-0.9000000000000001,11.6,19.1,16
930,21690.0,-20.0,6.2,4.3,-23.0,-5.4,5.300000000000001,27.800000000000004,48.70000000000001,64.50000000000001,16
931,21708.0,-20.700000000000003,4.1000000000000005,5.0,-22.900000000000002,-6.800000000000001,4.800000000000001,49.6,82.39999999999999,116.2,16
932,21723.0,-19.900000000000002,1.1,3.8000000000000003,-22.200000000000003,-9.8,3.4000000000000004,51.0,91.90000000000002,159.6,16
933,21742.0,-18.400000000000002,-1.9000000000000001,2.3000000000000003,-21.0,-12.3,2.0,30.599999999999998,73.30000000000001,192.9,16
934,21758.0,-16.2,-4.1000000000000005,1.1,-18.7,-13.4,1.5,14.900000000000002,54.300000000000004,205.5,16
935,21773.0,-12.700000000000001,-4.6000000000000005,1.7000000000000002,-15.600000000000001,-12.9,3.0,-14.100000000000001,10.600000000000001,224.60000000000002,16
936,21791.0,-9.200000000000001,-4.2,3.7,-14.3,-12.600000000000001,4.1000000000000005,-18.1,-19.700000000000003,236.70000000000005,16
937,21806.0,-6.1000000000000005,-4.0,5.300000000000001,-11.8,-11.9,5.7,6.2,-29.500000000000004,241.60000000000002,16
938,21823.0,-3.6,-3.9000000000000004,5.9,-9.9,-11.4,6.4,47.1,-18.6,240.20000000000002,16
939,21840.0,-1.6,-4.1000000000000005,5.2,-8.5,-11.100000000000001,5.9,68.5,-7.400000000000001,237.80000000000004,16
940,21856.0,-0.2,-4.4,3.7,-7.6000000000000005,-10.9,4.6000000000000005,105.20000000000002,17.6,232.1,16
941,21874.0,0.8,-5.0,2.3000000000000003,-7.0,-10.9,3.3000000000000003,127.69999999999999,41.900000000000006,226.70000000000005,16
942,21890.0,0.8,-5.0,2.3000000000000003,-6.6000000000000005,-10.8,2.8000000000000003,135.1,63.70000000000001,222.20000000000005,16
943,21908.0,2.0,-5.300000000000001,1.2000000000000002,-5.9,-10.4,2.0,132.4,83.30000000000001,215.9,16
944,21926.0,3.0,-5.6000000000000005,0.7000000000000001,-5.4,-10.100000000000001,1.7000000000000002,124.60000000000001,97.7,207.50000000000003,16
945,21939.0,3.7,-6.0,0.7000000000000001,-5.0,-10.0,1.6,121.0,102.60000000000001,203.00000000000003,16
946,21957.0,4.3,-6.7,0.4,-4.6000000000000005,-10.3,0.9,111.70000000000002,104.9,192.9,16
947,21973.0,4.9,-7.5,-0.2,-4.5,-10.4,0.5,94.7,95.20000000000002,183.4,16
948,21990.0,5.5,-8.3,-1.2000000000000002,-4.0,-10.700000000000001,-0.8,64.50000000000001,69.7,175.79999999999998,16
949,22006.0,6.7,-8.8,-1.6,-2.9000000000000004,-10.700000000000001,-1.3,25.300000000000004,34.50000000000001,165.6,16
950,22026.0,8.0,-9.0,-1.3,-1.7000000000000002,-10.5,-1.0,-14.5,1.3,147.7,16
951,22039.0,9.1,-9.4,0.0,-0.6000000000000001,-10.4,0.30000000000000004,-30.3,-12.5,135.20000000000002,16
952,22056.0,9.1,-9.4,0.0,-0.1,-10.200000000000001,1.3,-47.0,-33.6,105.80000000000001,16
953,22075.0,9.8,-9.5,1.9000000000000001,-0.2,-11.0,2.8000000000000003,-38.1,-42.1,74.7,16
954,22089.0,9.5,-10.4,2.3000000000000003,-0.2,-10.8,2.4000000000000004,-25.5,-42.0,44.10000000000001,16
955,22107.0,9.700000000000001,-10.0,1.0,0.1,-10.100000000000001,0.6000000000000001,-30.699999999999996,-36.1,14.100000000000001,16
956,22122.0,10.100000000000001,-9.1,-1.2000000000000002,0.7000000000000001,-9.0,-1.2000000000000002,-43.00000000000001,-37.300000000000004,-1.3,16
957,22141.0,10.600000000000001,-8.0,-2.1,0.7000000000000001,-8.700000000000001,-0.6000000000000001,-80.4,-47.400000000000006,-34.300000000000004,16
958,22156.0,10.100000000000001,-8.0,-0.5,-0.2,-9.200000000000001,1.7000000000000002,-106.5,-56.9,-71.39999999999999,16
959,22173.0,8.8,-8.6,1.4000000000000001,-0.8,-9.700000000000001,2.6,-107.4,-57.49999999999999,-107.9,16
960,22189.0,7.5,-9.200000000000001,1.9000000000000001,-2.1,-10.8,3.3000000000000003,-94.6,-52.00000000000001,-144.0,16
961,22206.0,6.1000000000000005,-9.5,1.3,-3.3000000000000003,-11.8,2.7,-87.80000000000001,-41.199999999999996,-181.50000000000003,16
962,22223.0,4.5,-9.3,0.7000000000000001,-4.800000000000001,-12.200000000000001,2.2,-88.7,-32.9,-200.3,16
963,22241.0,1.9000000000000001,-8.9,0.9,-7.1000000000000005,-12.5,2.3000000000000003,-99.30000000000001,-18.700000000000003,-234.9,16
964,22256.0,1.9000000000000001,-8.9,0.9,-8.1,-12.600000000000001,2.5,-110.10000000000001,-17.5,-261.09999999999997,16
965,22273.0,0.0,-8.1,1.4000000000000001,-9.1,-12.600000000000001,3.2,-116.5,-28.500000000000004,-286.4,16
966,22290.0,-1.6,-7.300000000000001,2.8000000000000003,-10.700000000000001,-12.4,5.0,-104.50000000000001,-27.800000000000004,-304.90000000000003,16
967,22306.0,-4.4,-6.0,4.6000000000000005,-13.3,-11.600000000000001,6.0,-89.0,-19.6,-307.3,16
968,22323.0,-7.300000000000001,-4.2,4.5,-14.8,-10.3,4.6000000000000005,-52.400000000000006,1.7,-295.0,16
969,22340.0,-8.700000000000001,-2.2,2.8000000000000003,-15.0,-9.1,2.5,-31.7,12.8,-271.3,16
970,22356.0,-9.0,-0.6000000000000001,0.8,-14.700000000000001,-8.6,1.6,-35.1,4.4,-254.00000000000006,16
971,22372.0,-9.200000000000001,0.9,0.2,-14.3,-7.5,0.9,-53.2,-17.400000000000002,-242.20000000000002,16
972,22391.0,-9.9,2.2,1.0,-14.3,-6.5,1.6,-67.00000000000001,-37.7,-226.8,16
973,22406.0,-11.200000000000001,3.5,2.2,-15.0,-5.5,2.7,-67.5,-42.60000000000001,-216.10000000000002,16
974,22423.0,-12.9,5.1000000000000005,2.9000000000000004,-16.3,-4.1000000000000005,3.2,-56.10000000000001,-43.4,-185.20000000000002,16
975,22441.0,-13.9,6.7,2.3000000000000003,-16.900000000000002,-2.6,2.6,-32.2,-39.1,-149.20000000000002,16
976,22458.0,-13.9,6.7,2.3000000000000003,-17.3,-1.6,0.7000000000000001,-16.700000000000003,-37.6,-120.2,16
977,22475.0,-14.700000000000001,7.800000000000001,0.4,-17.8,-1.4000000000000001,0.0,-22.4,-44.00000000000001,-95.1,16
978,22491.0,-16.1,8.1,-0.5,-19.200000000000003,-1.8,-0.2,-40.6,-47.60000000000001,-62.50000000000001,16
979,22508.0,-17.3,7.300000000000001,0.30000000000000004,-19.6,-3.0,1.7000000000000002,-48.300000000000004,-40.6,-29.300000000000004,16
980,22523.0,-17.3,5.9,3.2,-19.3,-4.2,4.6000000000000005,-40.800000000000004,-30.000000000000004,-18.3,16
981,22541.0,-17.3,5.1000000000000005,5.6000000000000005,-20.0,-4.6000000000000005,6.0,-5.4,7.400000000000001,-7.1000000000000005,16
982,22556.0,-18.900000000000002,4.800000000000001,5.800000000000001,-21.0,-4.7,5.800000000000001,37.7,51.4,8.3,16
983,22574.0,-21.5,3.5,4.4,-23.8,-6.1000000000000005,4.6000000000000005,61.39999999999999,83.89999999999999,51.1,16
984,22589.0,-22.5,1.4000000000000001,2.3000000000000003,-25.1,-8.1,2.5,64.80000000000001,87.2,82.50000000000001,16
985,22607.0,-20.3,-1.2000000000000002,0.9,-23.400000000000002,-10.5,1.3,51.2,68.4,147.8,16
986,22623.0,-16.3,-3.5,0.7000000000000001,-19.900000000000002,-12.600000000000001,1.1,27.2,29.500000000000004,195.00000000000003,16
987,22640.0,-16.3,-3.5,0.7000000000000001,-17.900000000000002,-13.0,1.5,3.9,-7.0,218.00000000000003,16
988,22657.0,-11.5,-4.2,1.8,-13.9,-12.700000000000001,3.0,-3.8,-25.1,221.9,16
989,22674.0,-7.300000000000001,-3.7,3.4000000000000004,-10.9,-11.600000000000001,4.6000000000000005,10.0,-23.400000000000002,213.9,16
990,22690.0,-4.3,-2.9000000000000004,4.7,-8.8,-10.4,5.6000000000000005,23.5,-16.4,208.3,16
991,22706.0,-2.1,-2.2,5.2,-7.4,-9.4,5.9,58.0,5.7,196.4,16
992,22723.0,-0.5,-1.8,4.800000000000001,-6.6000000000000005,-8.8,5.300000000000001,95.1,31.400000000000002,187.3,16
993,22741.0,0.6000000000000001,-1.7000000000000002,3.8000000000000003,-6.0,-8.5,4.2,125.80000000000001,51.300000000000004,182.4,16
994,22758.0,1.6,-1.9000000000000001,2.5,-5.7,-8.4,3.6,144.5,68.2,179.40000000000003,16
995,22773.0,2.4000000000000004,-2.7,1.1,-5.300000000000001,-8.700000000000001,2.4000000000000004,149.9,81.3,174.6,16
996,22791.0,3.0,-3.3000000000000003,0.1,-5.0,-8.8,1.5,148.4,85.60000000000001,170.70000000000002,16
997,22806.0,3.4000000000000004,-3.6,-0.4,-4.9,-8.700000000000001,1.0,139.3,92.60000000000001,162.50000000000003,16
998,22823.0,3.4000000000000004,-3.6,-0.4,-4.9,-8.6,0.9,125.7,99.30000000000001,155.4,16
999,22840.0,3.7,-4.0,-0.5,-4.800000000000001,-8.5,0.7000000000000001,110.4,105.5,150.2,16
1000,22856.0,4.0,-4.5,-0.5,-4.800000000000001,-8.8,0.4,91.10000000000001,106.5,145.3,16
1001,22874.0,4.4,-5.2,-0.6000000000000001,-4.6000000000000005,-9.1,0.4,68.7,98.50000000000001,138.8,16
1002,22891.0,4.6000000000000005,-6.0,-0.30000000000000004,-4.5,-9.600000000000001,0.30000000000000004,56.9,91.8,135.4,16
1003,22906.0,5.0,-6.7,-0.2,-4.1000000000000005,-9.600000000000001,0.30000000000000004,30.5,70.3,126.8,16
1004,22923.0,5.5,-7.1000000000000005,0.1,-4.0,-9.700000000000001,0.5,4.4,40.2,116.6,16
1005,22942.0,6.2,-7.5,0.6000000000000001,-2.8000000000000003,-9.8,1.4000000000000001,-15.8,3.8,102.89999999999999,16
1006,22958.0,7.0,-8.1,1.4000000000000001,-2.6,-10.100000000000001,1.8,-25.8,-20.2,86.2,16
1007,22974.0,7.2,-9.1,1.1,-2.4000000000000004,-11.0,1.5,-30.5,-33.2,64.9,16
1008,22990.0,7.9,-9.0,0.5,-1.7000000000000002,-10.700000000000001,1.0,-34.2,-36.9,52.900000000000006,16
1009,23006.0,7.9,-9.0,0.5,-1.3,-10.5,0.6000000000000001,-48.0,-42.400000000000006,25.5,16
1010,23025.0,9.600000000000001,-6.9,0.0,0.0,-8.700000000000001,0.7000000000000001,-70.4,-49.4,-6.4,16
1011,23039.0,9.600000000000001,-6.9,0.0,-0.2,-8.700000000000001,1.4000000000000001,-87.00000000000001,-56.9,-39.400000000000006,16
1012,23056.0,8.9,-7.1000000000000005,1.4000000000000001,-1.2000000000000002,-9.4,3.1,-82.9,-58.7,-70.2,16
1013,23076.0,7.9,-7.6000000000000005,2.7,-1.9000000000000001,-10.200000000000001,3.7,-66.4,-50.5,-100.4,16
1014,23089.0,7.1000000000000005,-7.9,2.2,-2.8000000000000003,-10.8,2.6,-60.8,-46.0,-116.6,16
1015,23107.0,6.0,-7.9,0.8,-3.6,-11.0,1.4000000000000001,-62.1,-42.2,-149.10000000000002,16
1016,23126.0,5.0,-7.4,0.0,-4.6000000000000005,-11.0,1.4000000000000001,-78.7,-42.7,-184.1,16
1017,23141.0,3.4000000000000004,-6.800000000000001,0.7000000000000001,-5.4,-11.0,1.9000000000000001,-94.10000000000001,-42.400000000000006,-216.6,16
1018,23156.0,1.2000000000000002,-6.0,1.8,-7.2,-10.9,3.0,-96.80000000000001,-42.0,-228.10000000000002,16
1019,23175.0,-0.6000000000000001,-5.1000000000000005,2.5,-8.6,-10.700000000000001,3.7,-84.2,-44.00000000000001,-247.7,16
1020,23190.0,-2.5,-3.7,3.0,-10.0,-9.9,4.2,-74.30000000000001,-40.300000000000004,-249.10000000000002,16
1021,23208.0,-4.0,-2.4000000000000004,2.6,-11.0,-9.200000000000001,3.7,-50.8,-23.2,-245.3,16
1022,23223.0,-4.0,-2.4000000000000004,2.6,-11.4,-8.9,3.3000000000000003,-30.9,-2.9,-239.79999999999998,16
1023,23240.0,-5.5,-1.2000000000000002,1.6,-12.4,-8.1,1.9000000000000001,-21.900000000000002,7.300000000000001,-230.40000000000003,16
1024,23258.0,-6.9,0.30000000000000004,0.30000000000000004,-13.200000000000001,-7.0,0.5,-25.4,-2.2,-218.3,16
1025,23273.0,-8.3,1.8,-1.1,-14.200000000000001,-5.800000000000001,-0.8,-33.1,-15.2,-210.8,16
1026,23291.0,-9.9,3.2,-1.9000000000000001,-14.9,-4.7,-1.0,-57.3,-50.3,-188.3,16
1027,23306.0,-10.5,4.7,-1.2000000000000002,-14.9,-4.1000000000000005,-0.4,-82.9,-75.60000000000001,-159.2,16
1028,23323.0,-10.4,6.0,0.8,-14.4,-3.0,1.4000000000000001,-88.60000000000001,-76.2,-134.3,16
1029,23340.0,-10.8,6.9,2.8000000000000003,-14.4,-2.2,3.2,-68.0,-53.8,-118.50000000000001,16
1030,23357.0,-11.700000000000001,7.9,3.0,-15.100000000000001,-1.4000000000000001,3.3000000000000003,-50.7,-37.400000000000006,-111.6,16
1031,23374.0,-13.3,7.9,1.5,-16.3,-1.4000000000000001,1.8,-21.1,-11.700000000000001,-97.60000000000001,16
1032,23391.0,-15.200000000000001,7.300000000000001,0.5,-18.1,-2.1,0.8,-9.700000000000001,-3.8,-77.3,16
1033,23406.0,-15.200000000000001,7.300000000000001,0.5,-19.1,-2.9000000000000004,0.5,-12.200000000000001,-5.8,-51.6,16
1034,23423.0,-17.2,5.7,0.5,-20.5,-4.1000000000000005,1.4000000000000001,-17.300000000000004,-1.3,-26.5,16
1035,23440.0,-18.1,5.2,2.1,-20.900000000000002,-4.1000000000000005,3.3000000000000003,-9.600000000000001,15.399999999999999,-4.800000000000001,16
1036,23459.0,-18.400000000000002,5.7,4.0,-21.5,-3.7,4.7,12.100000000000001,36.2,23.800000000000004,16
1037,23473.0,-19.200000000000003,5.2,4.7,-22.6,-5.1000000000000005,4.800000000000001,23.400000000000002,44.7,44.5,16
1038,23489.0,-19.700000000000003,3.0,4.3,-22.700000000000003,-6.300000000000001,4.5,41.7,47.400000000000006,96.60000000000001,16
1039,23507.0,-17.6,0.4,3.2,-21.1,-8.8,3.6,47.80000000000001,37.1,142.10000000000002,16
1040,23525.0,-14.5,-1.7000000000000002,2.6,-18.400000000000002,-10.700000000000001,3.0,43.2,26.5,165.8,16
1041,23540.0,-11.4,-2.9000000000000004,2.6,-15.9,-11.600000000000001,3.2,38.50000000000001,24.0,171.60000000000002,16
1042,23556.0,-8.5,-2.7,3.4000000000000004,-13.5,-11.200000000000001,4.0,32.0,23.5,175.3,16
1043,23576.0,-6.2,-2.2,4.2,-11.600000000000001,-10.3,4.800000000000001,36.8,26.000000000000004,174.6,16
1044,23590.0,-6.2,-2.2,4.2,-10.9,-10.0,5.0,53.10000000000001,29.400000000000002,173.9,16
1045,23607.0,-4.4,-1.8,4.3,-9.8,-9.5,5.0,74.7,34.0,174.3,16
1046,23622.0,-3.0,-1.9000000000000001,3.9000000000000004,-8.9,-9.1,4.6000000000000005,96.9,41.300000000000004,176.40000000000003,16
1047,23642.0,-1.6,-1.9000000000000001,3.4000000000000004,-7.800000000000001,-8.700000000000001,4.1000000000000005,116.4,53.7,177.9,16
1048,23657.0,-0.1,-2.0,2.4000000000000004,-6.800000000000001,-8.6,3.0,122.39999999999999,59.300000000000004,177.8,16
1049,23673.0,1.1,-2.5,1.4000000000000001,-6.5,-8.6,2.6,126.89999999999999,69.5,175.70000000000002,16
1050,23690.0,2.0,-2.9000000000000004,0.6000000000000001,-5.9,-8.6,1.9000000000000001,124.50000000000001,77.00000000000001,172.2,16
1051,23707.0,2.9000000000000004,-3.2,0.2,-5.300000000000001,-8.5,1.5,117.5,81.90000000000002,167.60000000000002,16
1052,23723.0,3.7,-3.5,0.0,-4.800000000000001,-8.3,1.3,108.2,84.2,161.3,16
1053,23740.0,4.3,-3.9000000000000004,-0.2,-4.4,-8.200000000000001,1.0,102.4,83.80000000000001,158.50000000000003,16
1054,23756.0,4.6000000000000005,-4.5,-0.6000000000000001,-4.3,-8.3,0.5,88.10000000000001,79.9,155.4,16
1055,23774.0,4.6000000000000005,-4.5,-0.6000000000000001,-3.8000000000000003,-8.700000000000001,-0.2,66.3,68.4,156.6,16
1056,23790.0,5.300000000000001,-5.300000000000001,-1.2000000000000002,-3.4000000000000004,-8.9,-0.30000000000000004,36.9,49.300000000000004,152.9,16
1057,23806.0,6.4,-6.1000000000000005,-1.1,-2.3000000000000003,-9.1,-0.1,7.9,28.700000000000003,137.60000000000002,16
1058,23823.0,7.7,-6.300000000000001,-0.4,-1.5,-8.9,1.0,-3.4,20.3,126.10000000000001,16
1059,23840.0,8.200000000000001,-6.7,0.7000000000000001,-1.4000000000000001,-9.1,1.7000000000000002,-17.200000000000003,7.400000000000001,100.0,16
1060,23858.0,8.0,-7.300000000000001,1.2000000000000002,-1.7000000000000002,-9.700000000000001,1.9000000000000001,-23.0,-4.0,76.4,16
1061,23873.0,7.7,-8.200000000000001,1.0,-1.9000000000000001,-10.100000000000001,1.7000000000000002,-27.800000000000004,-14.200000000000001,55.0,16
1062,23889.0,8.0,-8.5,0.30000000000000004,-1.6,-10.3,1.1,-38.900000000000006,-25.0,31.400000000000002,16
1063,23910.0,9.0,-7.800000000000001,-0.1,-0.6000000000000001,-9.600000000000001,0.8,-58.0,-35.3,0.6000000000000001,16
1064,23923.0,9.5,-7.2,0.5,-0.1,-9.1,1.4000000000000001,-67.60000000000001,-38.300000000000004,-17.5,16
1065,23940.0,8.700000000000001,-7.5,1.6,-0.8,-9.600000000000001,2.7,-79.5,-41.7,-58.5,16
1066,23956.0,8.700000000000001,-7.5,1.6,-1.4000000000000001,-9.9,3.3000000000000003,-77.1,-39.50000000000001,-100.1,16
1067,23974.0,7.300000000000001,-7.7,2.5,-2.8000000000000003,-10.5,3.7,-66.5,-30.699999999999996,-135.1,16
1068,23989.0,5.6000000000000005,-7.800000000000001,2.5,-4.5,-11.100000000000001,3.4000000000000004,-56.50000000000001,-22.700000000000003,-162.3,16
1069,24007.0,3.9000000000000004,-7.9,1.9000000000000001,-5.7,-11.5,2.7,-54.199999999999996,-21.0,-185.5,16
1070,24023.0,2.8000000000000003,-7.4,1.2000000000000002,-6.4,-11.4,2.1,-56.9,-23.099999999999998,-197.5,16
1071,24041.0,1.8,-6.5,1.1,-7.2,-11.100000000000001,2.7,-65.5,-32.5,-221.0,16
1072,24057.0,0.5,-5.5,2.0,-7.7,-10.9,3.1,-65.4,-37.9,-238.0,16
1073,24073.0,-0.7000000000000001,-4.4,2.6,-8.4,-10.4,3.7,-55.3,-34.800000000000004,-249.10000000000002,16
1074,24089.0,-1.8,-3.3000000000000003,2.8000000000000003,-9.0,-9.9,3.9000000000000004,-39.599999999999994,-23.5,-254.6,16
1075,24107.0,-3.0,-2.1,2.6,-9.600000000000001,-9.3,3.7,-21.300000000000004,-8.700000000000001,-254.6,16
1076,24122.0,-4.3,-1.2000000000000002,1.7000000000000002,-10.3,-8.9,2.8000000000000003,-13.6,-3.2,-253.30000000000004,16
1077,24139.0,-4.3,-1.2000000000000002,1.7000000000000002,-10.3,-8.9,2.8000000000000003,-8.100000000000001,-0.7,-251.00000000000003,16
1078,24157.0,-5.7,-0.2,0.6000000000000001,-11.4,-8.1,1.0,-5.2,-6.1000000000000005,-243.60000000000002,16
1079,24175.0,-7.1000000000000005,0.7000000000000001,-0.30000000000000004,-12.5,-7.4,0.6000000000000001,-15.8,-35.5,-221.70000000000002,16
1080,24189.0,-8.9,2.0,-0.4,-13.3,-6.2,0.6000000000000001,-19.9,-53.300000000000004,-194.6,16
1081,24207.0,-9.700000000000001,3.5,-0.8,-13.100000000000001,-5.0,0.0,-23.800000000000004,-59.00000000000001,-179.70000000000002,16
1082,24224.0,-9.8,4.6000000000000005,-1.4000000000000001,-12.8,-4.3,-0.4,-39.0,-66.0,-151.7,16
1083,24240.0,-10.100000000000001,5.1000000000000005,-1.2000000000000002,-12.9,-4.1000000000000005,0.2,-57.20000000000001,-70.0,-134.10000000000002,16
1084,24257.0,-10.8,5.5,0.1,-13.200000000000001,-4.0,0.9,-62.1,-68.4,-127.3,16
1085,24274.0,-12.700000000000001,5.9,1.5,-14.700000000000001,-3.6,2.2,-48.50000000000001,-56.400000000000006,-118.80000000000003,16
1086,24290.0,-15.4,5.5,2.0,-17.0,-4.1000000000000005,2.6,-28.700000000000003,-39.400000000000006,-99.2,16
1087,24307.0,-17.900000000000002,4.6000000000000005,2.3000000000000003,-19.3,-5.1000000000000005,2.9000000000000004,-19.0,-30.200000000000003,-84.0,16
1088,24323.0,-19.0,3.8000000000000003,2.4000000000000004,-20.3,-5.9,3.0,0.9000000000000001,-9.0,-50.400000000000006,16
1089,24343.0,-19.400000000000002,3.7,2.3000000000000003,-20.6,-6.0,3.0,19.200000000000003,13.6,-25.300000000000004,16
1090,24358.0,-19.400000000000002,3.7,2.3000000000000003,-21.5,-5.7,2.7,36.5,37.2,-5.2,16
1091,24373.0,-20.200000000000003,4.0,1.9000000000000001,-22.1,-5.800000000000001,2.5,48.70000000000001,55.3,31.099999999999998,16
1092,24390.0,-21.0,3.4000000000000004,1.3,-22.3,-7.0,1.8,49.50000000000001,63.30000000000001,88.20000000000002,16
1093,24407.0,-19.8,1.8,0.5,-20.5,-8.8,1.4000000000000001,45.7,62.1,116.4,16
1094,24422.0,-17.3,-0.4,0.1,-18.5,-11.0,1.1,32.5,53.599999999999994,159.70000000000002,16
1095,24440.0,-14.5,-2.4000000000000004,0.1,-17.400000000000002,-11.8,1.3,12.600000000000001,45.9,184.4,16
1096,24464.0,-11.600000000000001,-3.1,0.9,-14.0,-12.100000000000001,2.5,-14.0,34.900000000000006,198.60000000000002,16
1097,24472.0,-9.0,-3.0,2.1,-13.0,-11.9,3.1,-17.300000000000004,29.700000000000006,201.1,16
1098,24490.0,-6.800000000000001,-2.8000000000000003,3.4000000000000004,-11.4,-11.4,4.4,-10.4,19.300000000000004,204.6,16
1099,24508.0,-4.800000000000001,-2.4000000000000004,4.3,-10.0,-10.700000000000001,5.300000000000001,-0.7,16.700000000000003,205.4,16
1100,24523.0,-3.1,-2.3000000000000003,4.4,-8.8,-10.200000000000001,5.4,27.6,18.700000000000003,205.5,16
1101,24541.0,-3.1,-2.3000000000000003,4.4,-7.7,-9.8,5.0,58.900000000000006,28.700000000000003,204.1,16
1102,24560.0,-0.1,-2.4000000000000004,3.1,-6.800000000000001,-9.4,4.3,86.4,42.5,202.0,16
1103,24573.0,-0.1,-2.4000000000000004,3.1,-6.4,-9.3,3.7,105.7,56.9,199.70000000000002,16
1104,24590.0,1.2000000000000002,-2.7,1.9000000000000001,-5.5,-9.1,2.7,111.0,64.0,197.9,16
1105,24607.0,2.5,-3.0,0.8,-4.6000000000000005,-9.0,1.9000000000000001,112.7,74.5,190.9,16
1106,24624.0,3.6,-3.2,0.30000000000000004,-4.2,-8.8,1.6,107.19999999999999,82.9,179.1,16
1107,24640.0,4.1000000000000005,-3.8000000000000003,0.2,-4.2,-8.9,1.5,97.7,92.7,168.5,16
1108,24656.0,4.1000000000000005,-4.7,-0.1,-4.5,-9.4,1.1,81.4,98.9,162.10000000000002,16
1109,24673.0,4.5,-5.5,-0.5,-4.3,-9.700000000000001,0.5,70.8,99.30000000000001,160.70000000000002,16
1110,24690.0,5.4,-6.1000000000000005,-0.7000000000000001,-3.6,-9.9,0.1,42.2,87.60000000000001,157.70000000000002,16
1111,24706.0,6.800000000000001,-6.4,-0.6000000000000001,-2.4000000000000004,-9.700000000000001,0.1,10.0,59.40000000000001,149.20000000000002,16
1112,24725.0,8.200000000000001,-6.5,0.2,-1.1,-9.600000000000001,0.8,-18.5,19.200000000000003,130.20000000000002,16
1113,24740.0,8.200000000000001,-6.5,0.2,-0.6000000000000001,-9.600000000000001,1.3,-35.4,-19.9,103.00000000000001,16
1114,24758.0,9.1,-6.7,1.3,-0.4,-9.600000000000001,2.5,-37.2,-42.2,75.00000000000001,16
1115,24773.0,8.5,-7.6000000000000005,2.1,-1.4000000000000001,-10.600000000000001,2.6,-29.0,-42.7,53.7,16
1116,24790.0,7.800000000000001,-8.4,1.3,-1.8,-10.9,1.5,-26.799999999999997,-39.9,45.3,16
1117,24806.0,7.800000000000001,-8.3,-0.4,-1.2000000000000002,-10.100000000000001,-0.2,-36.7,-35.9,28.400000000000002,16
1118,24823.0,8.700000000000001,-7.0,-1.6,-0.8,-9.4,-0.6000000000000001,-68.0,-42.5,5.7,16
1119,24840.0,8.6,-6.6000000000000005,-1.0,-0.9,-9.1,0.1,-102.7,-55.3,-20.1,16
1120,24856.0,8.1,-7.1000000000000005,0.8,-1.3,-9.8,2.1,-116.9,-71.39999999999999,-51.0,16
1121,24873.0,7.300000000000001,-7.7,2.8000000000000003,-1.9000000000000001,-10.600000000000001,4.1000000000000005,-114.50000000000001,-73.6,-68.7,16
1122,24891.0,6.2,-8.1,3.2,-2.9000000000000004,-11.4,4.7,-94.5,-66.3,-104.4,16
1123,24906.0,4.5,-7.800000000000001,2.6,-4.4,-11.600000000000001,4.0,-75.00000000000001,-45.099999999999994,-141.6,16
