,ms,accelX,accelY,accelZ,accelWithGX,accelWithGY,accelWithGZ,rotRateAlpha,rotRateBeta,rotRateGamma,interval
0,406.0,-0.30000000000000004,-0.2,0.0,1.1,2.9000000000000004,9.8,1.3,8.899999999999999,-15.6,16
1,423.0,-0.30000000000000004,-0.2,0.0,1.0,2.9000000000000004,9.700000000000001,1.3,8.899999999999999,-15.6,16
2,439.0,-0.2,-0.2,-0.1,1.1,2.9000000000000004,9.4,6.9,7.6,-12.600000000000001,16
3,456.0,0.1,-0.1,-0.7000000000000001,1.3,3.0,8.9,12.7,4.4,-7.0,16
4,474.0,0.30000000000000004,0.0,-0.8,1.7000000000000002,3.1,8.700000000000001,9.3,3.9,-6.4,16
5,489.0,0.30000000000000004,0.0,-0.8,1.9000000000000001,3.2,8.6,9.3,3.9,-6.4,16
6,508.0,0.6000000000000001,0.0,-0.8,1.9000000000000001,3.1,8.6,2.9,8.2,-8.100000000000001,16
7,523.0,0.6000000000000001,0.0,-0.7000000000000001,1.8,3.0,8.8,-6.699999999999999,17.400000000000002,-12.299999999999999,16
8,539.0,0.30000000000000004,-0.1,-0.30000000000000004,1.5,2.9000000000000004,9.200000000000001,-17.7,23.900000000000006,-16.4,16
9,556.0,0.30000000000000004,-0.1,-0.30000000000000004,1.2000000000000002,2.7,9.5,-17.7,23.900000000000006,-16.4,16
10,573.0,-0.5,-0.5,1.1,0.4,2.3000000000000003,10.8,-27.0,21.900000000000002,-14.800000000000002,16
11,589.0,-0.5,-0.5,1.1,0.30000000000000004,2.2,10.9,-24.0,18.3,-11.5,16
12,606.0,-0.7000000000000001,-0.4,1.2000000000000002,-0.1,2.3000000000000003,10.9,-18.5,12.0,-7.699999999999999,16
13,622.0,-0.9,-0.30000000000000004,0.9,-0.2,2.4000000000000004,10.700000000000001,-0.6000000000000001,-2.2,5.6,16
14,639.0,-0.9,-0.30000000000000004,0.9,0.0,2.5,10.3,-0.6000000000000001,-2.2,5.6,16
15,656.0,-0.7000000000000001,-0.1,0.30000000000000004,0.30000000000000004,2.7,9.5,9.0,-7.9,12.0,16
16,674.0,-0.2,0.2,-1.0,0.6000000000000001,2.9000000000000004,8.700000000000001,15.5,-2.0,18.0,16
17,689.0,-0.2,0.2,-1.0,0.6000000000000001,3.0,8.4,15.5,-2.0,18.0,16
18,706.0,-0.2,0.2,-1.4000000000000001,0.6000000000000001,3.1,7.800000000000001,12.9,4.6,17.0,16
19,724.0,-0.1,0.5,-1.6,0.6000000000000001,3.3000000000000003,7.9,-0.6000000000000001,7.400000000000001,11.1,16
20,739.0,-0.1,0.5,-1.6,0.6000000000000001,3.3000000000000003,8.3,-0.6000000000000001,7.400000000000001,11.1,16
21,756.0,0.0,0.4,-0.9,0.9,3.1,9.1,-6.300000000000001,-0.6000000000000001,8.600000000000001,16
22,772.0,0.4,-0.1,0.1,1.2000000000000002,2.7,9.600000000000001,-4.5,-14.800000000000002,2.7,16
23,789.0,0.4,-0.1,0.1,1.2000000000000002,2.4000000000000004,9.700000000000001,-4.5,-14.800000000000002,2.7,16
24,806.0,0.30000000000000004,-0.4,0.30000000000000004,1.2000000000000002,2.4000000000000004,9.700000000000001,-2.7,-15.399999999999999,0.8,16
25,824.0,0.30000000000000004,-0.4,0.2,1.3,2.2,9.5,-1.9,-14.200000000000001,0.9000000000000001,16
26,840.0,0.1,-0.5,0.2,1.1,2.2,9.8,-7.6,-4.2,1.8000000000000003,16
27,856.0,0.1,-0.5,0.2,1.0,2.1,9.9,-7.6,-4.2,1.8000000000000003,16
28,873.0,0.0,-0.5,0.30000000000000004,1.0,2.1,9.600000000000001,-7.699999999999999,1.6,4.6,16
29,890.0,0.1,-0.2,-0.2,1.0,2.4000000000000004,9.3,-5.0,11.8,11.000000000000002,16
30,907.0,0.1,-0.2,-0.2,1.1,2.5,9.200000000000001,-5.0,11.8,11.000000000000002,16
31,923.0,0.2,0.0,-0.4,1.1,2.7,9.1,-5.300000000000001,11.8,11.5,16
32,940.0,0.1,0.1,-0.5,1.0,2.6,9.0,-7.0,8.2,5.500000000000001,16
33,959.0,0.0,0.0,-0.5,0.8,2.5,9.0,-8.8,10.9,3.3000000000000007,16
34,972.0,0.0,0.0,-0.5,0.6000000000000001,2.5,9.0,-8.8,10.9,3.3000000000000007,16
35,997.0,-0.30000000000000004,0.0,-0.4,0.5,2.5,9.1,-13.200000000000003,18.200000000000003,2.7,16
36,1006.0,-0.30000000000000004,0.0,-0.4,0.5,2.4000000000000004,9.1,-13.200000000000003,18.200000000000003,2.7,16
37,1023.0,-0.2,0.0,-0.30000000000000004,0.6000000000000001,2.5,9.1,-14.200000000000001,19.6,2.8,16
38,1039.0,0.2,0.2,-0.1,0.8,2.5,9.4,-14.5,19.799999999999997,-0.8,16
39,1056.0,0.2,0.2,-0.1,0.7000000000000001,2.5,9.8,-14.5,19.799999999999997,-0.8,16
40,1073.0,0.0,0.2,0.5,0.5,2.4000000000000004,10.4,-11.4,11.000000000000002,-4.7,16
41,1090.0,-0.1,0.1,0.8,0.1,2.1,10.200000000000001,-4.5,-0.2,-9.5,16
42,1106.0,-0.4,-0.2,0.6000000000000001,0.0,2.1,10.100000000000001,2.4000000000000004,0.8,-11.000000000000002,16
43,1122.0,-0.6000000000000001,-0.1,0.30000000000000004,-0.1,2.3000000000000003,9.700000000000001,3.6000000000000005,17.6,-5.500000000000001,16
44,1141.0,-0.4,0.1,0.1,0.2,2.6,9.600000000000001,1.8000000000000003,36.5,1.3,16
45,1156.0,-0.1,0.30000000000000004,0.0,0.2,2.8000000000000003,9.4,1.0,47.900000000000006,4.6,16
46,1186.0,0.0,0.5,-0.2,0.2,3.0,9.3,2.6,47.400000000000006,3.2,16
47,1199.0,0.1,0.6000000000000001,-0.30000000000000004,0.1,2.9000000000000004,9.0,4.1,34.400000000000006,-2.0,16
48,1206.0,0.1,0.6000000000000001,-0.30000000000000004,0.1,2.9000000000000004,9.0,4.1,34.400000000000006,-2.0,16
49,1228.0,0.1,-0.1,-0.5,0.2,2.2,9.1,-12.7,-10.8,-22.1,16
50,1242.0,0.1,-0.1,-0.5,0.2,1.9000000000000001,9.200000000000001,-12.7,-10.8,-22.1,16
51,1256.0,0.2,-0.5,-0.4,0.2,1.5,9.1,-21.8,-12.9,-26.200000000000003,16
52,1274.0,0.2,-0.8,-0.6000000000000001,0.30000000000000004,1.3,9.0,-42.2,-9.3,-26.5,16
53,1290.0,0.2,-0.8,-0.6000000000000001,0.0,1.3,9.1,-42.2,-9.3,-26.5,16
54,1307.0,-0.5,-0.4,0.4,-0.4,1.4000000000000001,10.100000000000001,-57.49999999999999,-14.5,-18.8,16
55,1329.0,-0.4,-0.1,1.2000000000000002,-0.30000000000000004,1.4000000000000001,11.100000000000001,-51.1,-18.6,-12.200000000000001,16
56,1339.0,-0.4,-0.1,1.2000000000000002,-0.1,1.4000000000000001,11.100000000000001,-51.1,-18.6,-12.200000000000001,16
57,1358.0,-0.30000000000000004,0.0,1.3,-0.1,1.5,10.700000000000001,-36.7,-19.9,-6.500000000000001,16
58,1373.0,-0.30000000000000004,0.1,0.9,-0.1,1.7000000000000002,10.4,-20.5,-20.2,-2.1,16
59,1389.0,-0.30000000000000004,0.30000000000000004,0.5,0.1,1.8,10.0,-8.5,-23.2,1.3,16
60,1407.0,-0.1,0.4,0.1,0.6000000000000001,1.8,9.5,-1.5,-27.9,2.2,16
61,1428.0,0.2,0.4,-0.6000000000000001,0.7000000000000001,1.8,9.1,0.2,-24.7,-4.800000000000001,16
62,1439.0,0.2,0.4,-0.6000000000000001,0.7000000000000001,1.8,9.1,0.2,-24.7,-4.800000000000001,16
63,1456.0,0.1,0.4,-0.5,0.8,1.5,9.8,-5.500000000000001,-18.700000000000003,-9.8,16
64,1472.0,0.0,-0.2,0.4,0.5,1.1,10.200000000000001,-10.600000000000001,-6.0,-19.200000000000003,16
65,1489.0,0.0,-0.2,0.4,0.30000000000000004,1.1,10.0,-10.600000000000001,-6.0,-19.200000000000003,16
66,1506.0,-0.5,-0.30000000000000004,0.0,0.0,1.0,9.600000000000001,-9.600000000000001,-0.9000000000000001,-22.2,16
67,1522.0,-0.8,-0.4,-0.1,-0.30000000000000004,0.9,9.8,-12.5,-0.8,-21.200000000000003,16
68,1539.0,-0.8,-0.30000000000000004,0.4,0.1,0.8,10.600000000000001,-15.899999999999999,-8.600000000000001,-18.200000000000003,16
69,1556.0,-0.4,-0.5,1.0,0.5,0.6000000000000001,11.200000000000001,-14.600000000000001,-16.700000000000003,-16.4,16
70,1572.0,-0.5,-0.7000000000000001,1.1,0.2,0.5,10.9,-4.4,-13.200000000000003,-15.899999999999999,16
71,1591.0,-0.7000000000000001,-0.5,0.7000000000000001,-0.1,0.6000000000000001,10.4,-2.7,-2.2,-10.5,16
72,1606.0,-0.7000000000000001,-0.5,0.7000000000000001,0.0,0.7000000000000001,10.100000000000001,-2.7,-2.2,-10.5,16
73,1622.0,-0.6000000000000001,-0.4,0.2,0.4,1.0,9.5,-3.8,7.8,-2.7,16
74,1639.0,-0.1,-0.1,-0.30000000000000004,0.7000000000000001,1.2000000000000002,9.200000000000001,-5.0,18.900000000000002,3.3000000000000007,16
75,1656.0,0.30000000000000004,0.2,-0.9,0.7000000000000001,1.4000000000000001,8.9,-5.9,22.700000000000003,4.1,16
76,1673.0,0.1,0.30000000000000004,-0.7000000000000001,0.4,1.4000000000000001,9.9,-7.300000000000001,20.8,1.2000000000000002,16
77,1698.0,0.2,0.2,0.2,0.6000000000000001,1.2000000000000002,10.0,5.0,8.2,-3.6000000000000005,16
78,1706.0,0.2,0.2,0.2,0.7000000000000001,1.2000000000000002,9.700000000000001,5.0,8.2,-3.6000000000000005,16
79,1724.0,0.30000000000000004,0.0,-0.2,0.6000000000000001,1.1,9.200000000000001,12.4,6.699999999999999,-7.9,16
80,1739.0,0.30000000000000004,-0.30000000000000004,-0.7000000000000001,0.6000000000000001,0.9,9.1,8.899999999999999,18.8,-14.300000000000002,16
81,1756.0,0.30000000000000004,-0.30000000000000004,-0.7000000000000001,0.5,0.8,9.1,8.899999999999999,18.8,-14.300000000000002,16
82,1773.0,0.1,-0.5,-0.6000000000000001,-0.1,0.6000000000000001,9.3,2.8,16.0,-17.200000000000003,16
83,1794.0,-0.5,-0.8,-0.1,-0.2,0.30000000000000004,9.700000000000001,-3.6000000000000005,-7.200000000000001,-15.700000000000001,16
84,1810.0,-0.5,-1.0,-0.1,-0.2,0.2,9.8,-0.5,-9.700000000000001,-9.8,16
85,1823.0,-0.5,-1.0,-0.1,-0.6000000000000001,-0.1,9.200000000000001,-0.5,-9.700000000000001,-9.8,16
86,1842.0,3.1,0.8,-0.8,3.5,2.0,9.0,-4.0,10.4,5.6,16
87,1856.0,3.1,0.8,-0.8,6.0,3.5,9.1,-4.0,10.4,5.6,16
88,1873.0,4.5,1.8,-0.5,1.0,1.1,9.700000000000001,-15.700000000000001,26.1,-15.8,16
89,1890.0,0.30000000000000004,-0.1,0.0,-1.2000000000000002,0.7000000000000001,10.200000000000001,-21.8,31.400000000000002,-35.699999999999996,16
90,1908.0,-0.4,-0.1,0.6000000000000001,-0.2,0.8,10.4,-12.7,0.6000000000000001,-7.9,16
91,1922.0,-0.4,-0.1,0.6000000000000001,0.1,0.7000000000000001,10.8,-12.7,0.6000000000000001,-7.9,16
92,1939.0,-0.1,-0.2,1.0,-1.1,0.7000000000000001,10.4,-4.9,-7.0,-5.7,16
93,1956.0,-0.6000000000000001,-0.30000000000000004,0.30000000000000004,-0.30000000000000004,0.7000000000000001,10.0,12.4,-20.0,-1.6,16
94,1975.0,-0.2,-0.1,-0.30000000000000004,-0.1,0.9,9.600000000000001,13.200000000000003,-20.599999999999998,-2.6,16
95,1990.0,-0.2,-0.1,-0.30000000000000004,0.1,0.8,9.0,13.200000000000003,-20.599999999999998,-2.6,16
96,2006.0,-0.30000000000000004,-0.30000000000000004,-0.8,0.0,0.7000000000000001,9.0,-6.2,-10.4,-8.3,16
97,2022.0,-0.30000000000000004,-0.30000000000000004,-0.8,0.2,0.7000000000000001,9.700000000000001,-6.2,-10.4,-8.3,16
98,2039.0,-0.1,-0.30000000000000004,0.2,0.0,0.6000000000000001,10.4,-15.299999999999999,-7.0,-9.100000000000001,16
99,2057.0,-0.6000000000000001,-0.4,1.2000000000000002,-0.30000000000000004,0.5,11.100000000000001,-9.4,-8.100000000000001,-4.7,16
100,2073.0,-0.6000000000000001,-0.4,1.2000000000000002,-0.4,0.4,11.3,-9.4,-8.100000000000001,-4.7,16
101,2089.0,-0.7000000000000001,-0.4,1.4000000000000001,-0.5,0.5,10.8,3.7000000000000006,-16.5,1.6,16
102,2106.0,-0.2,0.1,0.7000000000000001,0.5,1.2000000000000002,10.5,35.1,-75.2,17.400000000000002,16
103,2123.0,-0.2,0.1,0.7000000000000001,1.3,1.5,10.3,35.1,-75.2,17.400000000000002,16
104,2140.0,0.7000000000000001,0.4,-0.2,1.8,1.6,8.0,50.7,-88.10000000000001,16.4,16
105,2156.0,0.7000000000000001,0.30000000000000004,-1.9000000000000001,2.3000000000000003,1.8,7.4,45.3,-75.3,11.900000000000002,16
106,2184.0,-0.1,0.0,-1.9000000000000001,0.9,1.4000000000000001,8.200000000000001,-7.200000000000001,-0.9000000000000001,-1.1,16
107,2189.0,-0.1,0.0,-1.9000000000000001,0.9,1.4000000000000001,8.200000000000001,-7.200000000000001,-0.9000000000000001,-1.1,16
108,2208.0,0.2,0.30000000000000004,-1.2000000000000002,2.8000000000000003,1.4000000000000001,9.700000000000001,-26.6,10.8,-0.30000000000000004,16
109,2222.0,1.6,0.2,0.0,2.6,1.1,10.100000000000001,-36.0,13.900000000000002,-6.300000000000001,16
110,2239.0,0.8,-0.2,0.8,1.1,0.6000000000000001,11.200000000000001,-34.800000000000004,18.5,-17.1,16
111,2258.0,-0.1,-0.4,1.8,0.7000000000000001,0.6000000000000001,12.600000000000001,-26.799999999999997,24.200000000000003,-19.6,16
112,2273.0,-0.2,-0.4,1.7000000000000002,0.7000000000000001,0.6000000000000001,11.3,11.6,14.600000000000001,-19.799999999999997,16
113,2291.0,-0.2,-0.4,1.7000000000000002,1.0,1.2000000000000002,8.6,11.6,14.600000000000001,-19.799999999999997,16
114,2306.0,0.1,0.0,-0.6000000000000001,1.1,1.4000000000000001,8.200000000000001,18.3,12.5,-18.5,16
115,2323.0,0.9,-0.30000000000000004,-0.8,1.7000000000000002,0.8,9.0,-7.8,26.200000000000003,-23.400000000000002,16
116,2345.0,-0.30000000000000004,0.1,0.30000000000000004,-0.1,1.3,10.5,-15.399999999999999,15.899999999999999,-29.900000000000006,16
117,2356.0,-0.30000000000000004,0.1,0.30000000000000004,-0.2,1.3,11.200000000000001,-15.399999999999999,15.899999999999999,-29.900000000000006,16
118,2382.0,-0.5,-0.1,1.0,0.30000000000000004,1.0,9.9,9.3,1.4,-24.200000000000003,16
119,2390.0,-0.5,-0.1,1.0,0.30000000000000004,1.0,9.9,9.3,1.4,-24.200000000000003,16
120,2426.0,0.0,0.1,-0.7000000000000001,1.0,0.9,10.200000000000001,2.6,-5.2,-20.5,16
121,2439.0,-0.2,-0.2,0.7000000000000001,0.30000000000000004,1.0,10.5,9.100000000000001,3.6000000000000005,-16.1,16
122,2456.0,-0.2,-0.2,0.7000000000000001,-0.6000000000000001,1.2000000000000002,9.700000000000001,9.100000000000001,3.6000000000000005,-16.1,16
123,2472.0,-0.9,0.0,-0.1,1.2000000000000002,0.6000000000000001,10.0,20.8,29.500000000000004,-13.3,16
124,2490.0,0.4,-0.9,0.2,0.4,0.5,9.9,41.199999999999996,60.5,-24.599999999999998,16
125,2507.0,0.4,-0.9,0.2,0.0,0.9,9.700000000000001,41.199999999999996,60.5,-24.599999999999998,16
126,2522.0,0.0,-0.4,-0.2,0.2,1.4000000000000001,9.200000000000001,38.800000000000004,47.400000000000006,-18.6,16
127,2539.0,0.2,-0.1,-1.5,0.0,1.5,8.1,29.600000000000005,33.1,-13.8,16
128,2556.0,0.2,-0.1,-1.5,-0.30000000000000004,1.5,8.5,15.399999999999999,26.6,-16.6,16
129,2572.0,-0.2,-0.1,-0.9,-0.5,1.7000000000000002,9.4,-0.6000000000000001,26.5,-18.1,16
130,2590.0,-0.30000000000000004,-0.30000000000000004,0.4,-0.4,1.2000000000000002,10.200000000000001,-6.1000000000000005,-32.300000000000004,1.0,16
131,2606.0,-0.30000000000000004,-0.30000000000000004,0.4,-0.2,1.3,9.200000000000001,-6.1000000000000005,-32.300000000000004,1.0,16
132,2622.0,-0.30000000000000004,-0.30000000000000004,-0.5,-0.1,1.5,9.1,-2.1,-50.3,2.6,16
133,2639.0,0.30000000000000004,-0.1,-0.9,0.6000000000000001,1.4000000000000001,8.8,-14.900000000000002,-59.699999999999996,9.100000000000001,16
134,2658.0,0.30000000000000004,-0.1,-1.0,0.7000000000000001,1.3,8.700000000000001,-20.599999999999998,-54.300000000000004,8.3,16
135,2672.0,0.30000000000000004,-0.1,-1.0,0.30000000000000004,1.4000000000000001,8.8,-20.599999999999998,-54.300000000000004,8.3,16
136,2690.0,-0.30000000000000004,0.0,-0.8,0.30000000000000004,1.5,9.600000000000001,-23.3,-40.6,9.5,16
137,2706.0,-0.4,0.1,-0.1,0.5,1.5,9.9,-20.900000000000002,-23.5,14.400000000000002,16
138,2722.0,-0.2,0.2,0.1,0.7000000000000001,1.4000000000000001,9.8,-14.800000000000002,-11.000000000000002,17.1,16
139,2742.0,0.1,0.1,0.1,0.8,1.2000000000000002,9.600000000000001,-11.3,-5.8,17.200000000000003,16
140,2756.0,-0.5,0.0,0.2,0.4,1.3,9.5,-10.9,-12.4,13.000000000000002,16
141,2772.0,-0.5,0.0,0.2,0.0,1.1,10.0,-12.200000000000001,-16.700000000000003,9.700000000000001,16
142,2789.0,-1.1,0.1,0.2,-0.4,1.5,9.9,-10.1,-12.8,7.200000000000001,16
143,2809.0,-0.9,0.30000000000000004,0.0,-0.1,1.5,9.700000000000001,1.3,29.800000000000004,18.6,16
144,2823.0,-0.9,0.30000000000000004,0.0,-0.1,1.3,9.600000000000001,1.3,29.800000000000004,18.6,16
145,2840.0,-0.6000000000000001,0.0,-0.30000000000000004,0.1,0.9,8.700000000000001,3.1,49.6,25.1,16
146,2856.0,0.1,-0.2,-1.7000000000000002,0.5,0.8,8.0,-15.8,43.70000000000001,26.000000000000004,16
147,2879.0,0.6000000000000001,-0.5,0.4,0.9,0.5,10.100000000000001,-28.500000000000004,2.8,20.599999999999998,16
148,2890.0,0.6000000000000001,-0.5,0.4,0.6000000000000001,0.6000000000000001,10.100000000000001,-28.500000000000004,2.8,20.599999999999998,16
149,2906.0,0.1,-0.2,0.4,0.6000000000000001,1.0,10.5,-38.900000000000006,-36.5,12.600000000000001,16
150,2923.0,0.4,0.30000000000000004,0.8,1.3,1.0,10.600000000000001,-40.4,-46.7,12.299999999999999,16
151,2939.0,0.8,0.1,0.7000000000000001,1.9000000000000001,0.5,10.100000000000001,-29.500000000000004,-29.800000000000004,12.5,16
152,2956.0,1.5,-0.30000000000000004,-0.2,2.0,0.30000000000000004,9.600000000000001,-2.6,40.2,7.0,16
153,2973.0,1.5,-0.30000000000000004,-0.2,1.6,0.30000000000000004,9.700000000000001,-2.6,40.2,7.0,16
154,2993.0,0.7000000000000001,-0.30000000000000004,1.4000000000000001,1.2000000000000002,0.2,11.200000000000001,4.7,50.900000000000006,-1.7,16
155,3007.0,0.7000000000000001,-0.30000000000000004,1.4000000000000001,1.3,0.0,11.8,4.7,50.900000000000006,-1.7,16
156,3027.0,0.30000000000000004,-0.4,0.6000000000000001,0.5,0.30000000000000004,10.200000000000001,7.8,-9.600000000000001,-13.399999999999999,16
157,3039.0,0.30000000000000004,-0.4,0.6000000000000001,0.7000000000000001,0.6000000000000001,10.3,7.8,-9.600000000000001,-13.399999999999999,16
158,3056.0,0.4,-0.1,0.30000000000000004,0.8,0.5,9.3,4.5,-19.200000000000003,-11.700000000000001,16
159,3072.0,0.4,-0.2,-0.6000000000000001,0.6000000000000001,0.5,9.0,-3.3000000000000007,-30.9,-11.000000000000002,16
160,3093.0,0.0,0.2,-0.2,0.30000000000000004,0.8,9.9,-18.900000000000002,-17.400000000000002,-9.0,16
161,3106.0,0.0,0.2,-0.2,0.1,0.9,10.4,-18.900000000000002,-17.400000000000002,-9.0,16
162,3122.0,-0.6000000000000001,0.4,0.30000000000000004,-0.2,1.0,10.100000000000001,-10.700000000000001,9.2,-4.5,16
163,3142.0,-0.6000000000000001,0.4,0.30000000000000004,-0.30000000000000004,0.9,10.700000000000001,11.700000000000001,29.600000000000005,2.6,16
164,3156.0,-0.30000000000000004,0.0,0.8,0.5,0.2,8.9,11.700000000000001,29.600000000000005,2.6,16
165,3172.0,0.30000000000000004,-0.4,-0.7000000000000001,0.7000000000000001,0.30000000000000004,9.700000000000001,14.400000000000002,21.1,-0.9000000000000001,16
166,3201.0,-0.2,-0.2,-0.2,-0.1,0.6000000000000001,9.700000000000001,7.400000000000001,7.200000000000001,-9.5,16
167,3206.0,-0.2,-0.2,-0.2,-0.30000000000000004,0.7000000000000001,10.0,7.400000000000001,7.200000000000001,-9.5,16
168,3223.0,-0.8,0.1,0.1,-0.5,0.8,9.9,-0.7,-11.700000000000001,-5.1000000000000005,16
169,3240.0,-0.8,0.1,0.1,-0.4,0.8,9.9,-0.7,-11.700000000000001,-5.1000000000000005,16
170,3256.0,-0.6000000000000001,0.1,0.1,-0.1,0.8,9.9,-4.300000000000001,-17.200000000000003,-0.30000000000000004,16
171,3288.0,-0.1,-0.1,0.5,0.4,0.5,10.5,-2.9,-15.2,2.8,16
172,3304.0,0.0,-0.1,0.5,0.4,0.6000000000000001,10.0,3.2,-11.5,1.6,16
173,3307.0,0.0,-0.1,0.5,0.4,0.6000000000000001,10.0,3.2,-11.5,1.6,16
174,3326.0,0.0,-0.1,0.1,0.30000000000000004,0.6000000000000001,9.9,6.4,-7.400000000000001,0.4,16
175,3339.0,-0.2,0.0,-0.1,0.30000000000000004,0.7000000000000001,9.700000000000001,6.300000000000001,-6.500000000000001,1.7,16
176,3356.0,-0.2,0.0,-0.1,0.4,0.7000000000000001,9.600000000000001,6.300000000000001,-6.500000000000001,1.7,16
177,3372.0,-0.1,0.0,-0.30000000000000004,0.6000000000000001,0.6000000000000001,9.600000000000001,4.4,-7.200000000000001,2.3,16
178,3397.0,-0.1,-0.1,0.1,0.4,0.7000000000000001,9.9,-2.3,-11.1,0.2,16
179,3406.0,-0.1,-0.1,0.1,0.2,0.7000000000000001,9.9,-2.3,-11.1,0.2,16
180,3426.0,-0.5,0.0,0.0,0.0,0.8,9.8,-3.0,-14.5,1.2000000000000002,16
181,3439.0,-1.7000000000000002,0.1,0.8,-1.0,0.8,10.700000000000001,-1.6,-13.5,13.700000000000001,16
182,3458.0,-1.7000000000000002,0.1,0.8,1.2000000000000002,0.7000000000000001,10.200000000000001,-1.6,-13.5,13.700000000000001,16
183,3472.0,0.8,-0.2,0.1,1.3,0.30000000000000004,9.200000000000001,3.9,-19.700000000000003,19.300000000000004,16
184,3489.0,0.5,-0.4,-0.6000000000000001,1.2000000000000002,0.4,9.3,-5.6,-27.3,5.9,16
185,3506.0,0.1,-0.1,-0.4,1.1,0.7000000000000001,9.8,-5.6,-27.3,5.9,16
186,3522.0,0.30000000000000004,0.0,0.30000000000000004,1.4000000000000001,0.5,10.3,-6.500000000000001,-17.300000000000004,6.1000000000000005,16
187,3539.0,0.5,-0.2,0.4,1.9000000000000001,0.30000000000000004,10.0,-1.6,-8.700000000000001,5.1000000000000005,16
188,3556.0,0.9,-0.4,0.2,1.4000000000000001,0.4,9.5,4.4,-5.0,1.6,16
189,3574.0,0.2,-0.2,-0.30000000000000004,0.9,0.7000000000000001,9.5,5.8,-4.1,-2.6,16
190,3590.0,-0.1,0.0,-0.30000000000000004,1.2000000000000002,0.7000000000000001,9.4,4.4,0.1,-1.3,16
191,3606.0,0.2,-0.1,-0.4,1.4000000000000001,0.6000000000000001,9.4,3.0,1.1,1.4,16
192,3623.0,0.4,-0.1,-0.4,1.3,0.6000000000000001,9.4,0.8,3.0,0.6000000000000001,16
193,3639.0,0.2,-0.1,-0.4,1.1,0.7000000000000001,9.5,-0.30000000000000004,6.0,-0.30000000000000004,16
194,3659.0,0.1,0.0,0.0,1.0,0.7000000000000001,9.8,-0.1,13.900000000000002,0.5,16
195,3675.0,0.1,0.0,0.0,1.1,0.6000000000000001,9.8,-0.1,13.900000000000002,0.5,16
196,3693.0,0.2,-0.2,0.0,1.0,0.5,10.0,2.1,15.299999999999999,-0.5,16
197,3716.0,-0.1,0.0,0.1,0.6000000000000001,0.9,9.700000000000001,7.400000000000001,9.4,-6.2,16
198,3723.0,-0.1,0.0,0.1,0.6000000000000001,0.9,9.700000000000001,7.400000000000001,9.4,-6.2,16
199,3739.0,-0.2,0.2,-0.30000000000000004,0.5,1.1,9.3,6.8,5.500000000000001,-6.1000000000000005,16
200,3756.0,-1.0,0.7000000000000001,-0.1,-0.2,1.5,9.600000000000001,-0.9000000000000001,2.4000000000000004,-2.3,16
201,3772.0,-1.0,0.7000000000000001,-0.1,-0.5,1.6,10.100000000000001,-0.9000000000000001,2.4000000000000004,-2.3,16
202,3790.0,-1.1,0.7000000000000001,0.4,0.1,1.2000000000000002,10.200000000000001,0.7,1.8000000000000003,3.9,16
203,3808.0,-0.5,0.30000000000000004,0.4,0.9,0.9,9.5,2.4000000000000004,-7.0,8.0,16
204,3823.0,0.1,0.1,-0.30000000000000004,1.2000000000000002,0.9,10.4,0.8,-1.0,4.4,16
205,3841.0,0.4,0.1,0.4,1.0,1.0,11.100000000000001,0.8,-1.0,4.4,16
206,3856.0,0.2,0.1,1.1,1.1,1.0,10.5,14.0,20.5,3.0,16
207,3876.0,0.7000000000000001,-0.30000000000000004,0.0,1.3,0.7000000000000001,9.600000000000001,35.699999999999996,44.00000000000001,-0.7,16
208,3889.0,0.7000000000000001,-0.30000000000000004,0.0,0.9,0.8,9.200000000000001,35.699999999999996,44.00000000000001,-0.7,16
209,3906.0,0.30000000000000004,-0.30000000000000004,-0.5,0.0,1.1,9.4,32.400000000000006,42.2,-3.6000000000000005,16
210,3922.0,-0.4,-0.1,-0.30000000000000004,-0.2,1.3,9.5,8.8,5.6,1.6,16
211,3939.0,-0.5,0.1,-0.2,0.0,1.2000000000000002,9.700000000000001,8.8,5.6,1.6,16
212,3956.0,-0.2,-0.1,-0.1,0.4,1.0,9.600000000000001,2.4000000000000004,-6.9,4.4,16
213,3972.0,0.30000000000000004,-0.30000000000000004,-0.7000000000000001,0.7000000000000001,1.0,9.1,3.4,-13.700000000000001,4.300000000000001,16
214,3990.0,0.30000000000000004,-0.30000000000000004,-0.7000000000000001,0.6000000000000001,1.0,8.8,3.4,-13.700000000000001,4.300000000000001,16
215,4007.0,0.1,-0.1,-1.0,0.4,1.3,8.700000000000001,-0.2,-12.9,3.6000000000000005,16
216,4022.0,-0.2,0.2,-0.6000000000000001,0.30000000000000004,1.3,9.200000000000001,-15.5,-16.1,6.600000000000001,16
217,4041.0,-0.1,0.2,-0.5,0.5,1.3,9.3,-19.1,-17.9,8.600000000000001,16
218,4056.0,-0.1,0.2,-0.5,0.8,1.2000000000000002,9.4,-19.1,-17.9,8.600000000000001,16
219,4072.0,0.2,0.2,-0.30000000000000004,0.9,1.1,9.8,-20.900000000000002,-15.100000000000001,9.3,16
220,4094.0,0.30000000000000004,-0.2,0.7000000000000001,0.9,0.7000000000000001,10.600000000000001,-16.700000000000003,-6.4,5.7,16
221,4106.0,0.30000000000000004,-0.2,0.7000000000000001,1.1,0.5,11.0,-16.700000000000003,-6.4,5.7,16
222,4123.0,0.30000000000000004,-0.30000000000000004,1.3,0.9,0.7000000000000001,11.100000000000001,-11.8,-10.4,2.1,16
223,4140.0,0.0,0.0,0.8,0.8,0.9,10.5,5.1000000000000005,-12.299999999999999,-2.2,16
224,4156.0,0.0,0.0,0.8,0.8,1.0,10.0,5.1000000000000005,-12.299999999999999,-2.2,16
225,4175.0,0.0,0.0,0.1,0.9,0.9,9.4,10.0,-5.7,-1.7,16
226,4192.0,0.1,0.1,-0.30000000000000004,0.9,1.1,9.5,5.9,5.500000000000001,-3.2,16
227,4206.0,0.1,0.1,-0.30000000000000004,0.6000000000000001,1.2000000000000002,9.600000000000001,5.9,5.500000000000001,-3.2,16
228,4223.0,-0.30000000000000004,0.2,-0.1,0.1,1.2000000000000002,10.0,4.6,8.899999999999999,-5.0,16
229,4240.0,-0.4,0.0,0.7000000000000001,0.4,1.0,10.4,8.4,5.500000000000001,-4.4,16
230,4256.0,-0.4,0.0,0.7000000000000001,0.2,1.1,10.4,8.4,5.500000000000001,-4.4,16
231,4275.0,-0.8,0.2,0.7000000000000001,-0.7000000000000001,1.3,10.3,12.9,0.2,-3.9,16
232,4294.0,0.4,0.1,-0.6000000000000001,1.2000000000000002,1.3,9.1,16.700000000000003,-11.000000000000002,7.400000000000001,16
233,4306.0,0.4,0.1,-0.6000000000000001,1.4000000000000001,1.1,8.9,16.700000000000003,-11.000000000000002,7.400000000000001,16
234,4322.0,0.5,-0.2,-0.7000000000000001,1.0,1.0,9.5,7.500000000000001,-9.4,4.4,16
235,4343.0,0.2,-0.2,-0.1,1.1,1.0,9.9,2.6,-6.300000000000001,3.3000000000000007,16
236,4356.0,0.2,-0.2,0.1,0.9,1.0,9.5,7.0,-1.6,2.9,16
237,4375.0,0.1,-0.2,-0.2,0.9,1.1,9.3,7.0,-1.6,2.9,16
238,4389.0,0.0,-0.1,-0.5,0.7000000000000001,1.3,9.5,6.2,-1.4,3.1,16
239,4406.0,-0.1,-0.2,-0.30000000000000004,0.8,1.0,9.4,4.1,-3.4,3.4,16
240,4423.0,-0.1,-0.2,-0.30000000000000004,1.1,1.1,9.600000000000001,2.5,-9.5,5.500000000000001,16
241,4439.0,0.30000000000000004,-0.2,-0.1,1.3,1.2000000000000002,9.5,0.6000000000000001,-10.700000000000001,6.300000000000001,16
242,4460.0,0.5,0.0,-0.5,1.5,1.2000000000000002,9.200000000000001,-3.1,-10.600000000000001,4.4,16
243,4472.0,0.5,0.0,-0.5,1.3,1.1,9.1,-3.1,-10.600000000000001,4.4,16
244,4492.0,0.2,0.0,-0.5,1.1,1.3,9.5,-10.0,-14.900000000000002,2.9,16
245,4506.0,-0.1,0.1,0.0,1.1,1.3,9.700000000000001,-14.300000000000002,-10.700000000000001,5.500000000000001,16
246,4525.0,0.30000000000000004,0.0,0.4,1.5,1.1,10.200000000000001,-10.600000000000001,-1.2000000000000002,5.500000000000001,16
247,4540.0,0.30000000000000004,0.0,0.4,1.6,1.0,10.200000000000001,-10.600000000000001,-1.2000000000000002,5.500000000000001,16
248,4556.0,0.2,-0.1,0.4,1.3,1.0,10.100000000000001,-2.2,4.5,-1.1,16
249,4575.0,0.0,0.1,0.30000000000000004,1.0,1.2000000000000002,10.0,-2.0,-0.30000000000000004,-3.4,16
250,4589.0,0.0,0.1,0.30000000000000004,0.9,1.2000000000000002,9.9,-2.0,-0.30000000000000004,-3.4,16
251,4609.0,-0.2,0.1,0.1,0.9,1.2000000000000002,9.8,-2.7,-3.7000000000000006,-3.2,16
252,4622.0,-0.2,0.2,0.1,1.0,1.2000000000000002,9.700000000000001,-3.9,-5.2,-1.1,16
253,4639.0,-0.2,0.2,0.0,1.0,1.3,9.8,-3.8,-3.6000000000000005,0.6000000000000001,16
254,4656.0,0.0,0.2,0.1,1.3,1.2000000000000002,10.0,-3.0,2.7,2.4000000000000004,16
255,4676.0,0.1,0.0,0.0,1.1,1.1,9.8,2.6,15.100000000000001,1.3,16
256,4690.0,0.1,0.0,0.0,0.9,1.1,9.8,2.6,15.100000000000001,1.3,16
257,4708.0,-0.1,0.0,0.1,0.9,1.0,10.100000000000001,2.7,12.5,0.9000000000000001,16
258,4722.0,0.1,-0.30000000000000004,-0.1,1.1,0.8,9.600000000000001,1.5,-1.5,1.2000000000000002,16
259,4742.0,0.2,-0.30000000000000004,-0.30000000000000004,1.3,0.7000000000000001,9.5,0.30000000000000004,-1.4,1.1,16
260,4756.0,0.2,-0.30000000000000004,-0.30000000000000004,1.4000000000000001,0.6000000000000001,9.5,0.30000000000000004,-1.4,1.1,16
261,4774.0,0.2,-0.30000000000000004,-0.30000000000000004,1.2000000000000002,0.7000000000000001,9.4,0.8,2.2,-3.8,16
262,4789.0,0.2,-0.30000000000000004,-0.30000000000000004,1.3,0.7000000000000001,9.3,0.8,2.2,-3.8,16
263,4813.0,0.0,-0.2,-0.5,1.4000000000000001,0.7000000000000001,9.700000000000001,-3.2,2.4000000000000004,-4.2,16
264,4823.0,0.4,-0.4,0.0,1.4000000000000001,0.6000000000000001,9.700000000000001,-4.300000000000001,-1.1,-4.4,16
265,4843.0,-0.1,0.1,0.2,0.8,1.1,10.0,-5.9,-3.7000000000000006,-4.6,16
266,4856.0,-0.1,0.1,0.2,0.5,1.2000000000000002,10.3,-5.9,-3.7000000000000006,-4.6,16
267,4872.0,-0.6000000000000001,0.30000000000000004,0.5,0.6000000000000001,1.5,10.0,-5.9,-9.2,-3.3000000000000007,16
268,4889.0,-0.4,0.5,0.2,0.9,1.4000000000000001,10.0,-4.800000000000001,-13.900000000000002,-1.4,16
269,4906.0,-0.1,0.4,0.30000000000000004,1.2000000000000002,1.2000000000000002,10.0,-2.0,-7.8,-0.30000000000000004,16
270,4922.0,0.1,0.2,0.2,1.3,0.9,9.600000000000001,1.7,-4.800000000000001,-2.5,16
271,4939.0,0.2,-0.1,-0.1,1.4000000000000001,0.8,9.600000000000001,4.300000000000001,2.3,-6.2,16
272,4956.0,0.1,-0.1,0.1,0.8,1.0,10.0,4.300000000000001,2.3,-6.2,16
273,4972.0,-0.30000000000000004,0.0,0.2,0.7000000000000001,1.1,9.9,4.2,-2.5,-5.7,16
274,4991.0,-0.30000000000000004,0.0,-0.1,0.9,1.0,9.600000000000001,1.4,-11.3,-2.3,16
275,5006.0,-0.30000000000000004,0.0,-0.1,1.1,1.0,9.5,1.4,-11.3,-2.3,16
276,5022.0,0.0,-0.1,-0.30000000000000004,1.3,0.9,9.200000000000001,2.5,-7.9,-2.3,16
277,5039.0,0.0,-0.2,-1.1,1.1,0.8,8.6,2.8,0.0,-5.4,16
278,5056.0,0.0,-0.2,-1.1,1.4000000000000001,0.9,8.8,2.8,0.0,-5.4,16
279,5073.0,0.30000000000000004,-0.2,-0.5,1.5,0.8,9.8,-0.30000000000000004,6.2,-6.9,16
280,5092.0,0.1,-0.1,0.5,1.2000000000000002,0.9,10.200000000000001,6.4,13.100000000000001,-12.100000000000001,16
281,5107.0,0.1,-0.1,0.5,1.2000000000000002,1.2000000000000002,9.5,6.4,13.100000000000001,-12.100000000000001,16
282,5123.0,0.2,0.0,0.0,1.1,1.3,9.3,10.600000000000001,22.2,-11.2,16
283,5139.0,-0.1,0.30000000000000004,-0.2,0.8,1.4000000000000001,9.5,-0.4,29.600000000000005,-4.1,16
284,5159.0,-0.1,0.2,0.30000000000000004,0.6000000000000001,1.3,10.100000000000001,-6.8,23.0,-1.4,16
285,5172.0,-0.1,0.2,0.30000000000000004,0.6000000000000001,1.3,10.200000000000001,-6.8,23.0,-1.4,16
286,5192.0,-0.2,0.2,0.4,0.4,1.3,10.0,-8.0,17.1,-0.7,16
287,5206.0,-0.30000000000000004,0.2,0.30000000000000004,0.5,1.3,10.0,-5.9,14.5,0.2,16
288,5222.0,0.0,0.1,0.5,0.7000000000000001,1.1,10.600000000000001,-5.0,13.6,1.8000000000000003,16
289,5239.0,0.1,0.0,0.8,0.5,0.9,10.4,-2.3,12.4,1.6,16
290,5256.0,-0.30000000000000004,-0.2,0.4,0.30000000000000004,0.9,10.100000000000001,8.3,4.800000000000001,-1.2000000000000002,16
291,5274.0,-0.30000000000000004,-0.2,0.4,0.30000000000000004,0.9,9.9,8.3,4.800000000000001,-1.2000000000000002,16
292,5298.0,-0.30000000000000004,-0.1,-0.6000000000000001,0.30000000000000004,1.0,9.1,8.899999999999999,-5.0,-2.2,16
293,5306.0,-0.2,-0.2,-0.7000000000000001,0.4,1.0,9.1,6.0,-8.899999999999999,-1.0,16
294,5322.0,-0.2,-0.2,-0.7000000000000001,0.4,1.0,9.0,6.0,-8.899999999999999,-1.0,16
295,5339.0,-0.1,-0.1,-0.8,0.6000000000000001,1.0,8.700000000000001,2.2,-11.000000000000002,-0.4,16
296,5359.0,0.30000000000000004,-0.2,-1.2000000000000002,1.0,0.9,8.6,-6.699999999999999,-6.9,1.8000000000000003,16
297,5372.0,0.30000000000000004,-0.2,-1.2000000000000002,1.0,0.9,8.9,-6.699999999999999,-6.9,1.8000000000000003,16
298,5392.0,0.30000000000000004,-0.2,-0.6000000000000001,1.1,1.0,9.700000000000001,-13.3,-8.2,1.6,16
299,5406.0,0.4,-0.1,0.1,1.1,1.0,9.9,-13.200000000000003,-1.3,-0.30000000000000004,16
300,5424.0,0.2,0.0,0.0,0.9,1.0,9.9,-13.200000000000003,-1.3,-0.30000000000000004,16
301,5439.0,0.2,0.0,0.0,0.8,1.1,9.8,-10.700000000000001,3.3000000000000007,-0.1,16
302,5456.0,0.1,0.1,0.1,0.8,1.1,10.3,-11.2,1.6,0.6000000000000001,16
303,5472.0,0.1,0.2,0.5,0.8,1.1,10.5,-11.8,-1.6,0.6000000000000001,16
304,5489.0,0.1,0.2,0.7000000000000001,0.8,1.0,10.4,-7.9,-0.5,-0.4,16
305,5508.0,0.0,0.1,0.5,0.7000000000000001,1.0,10.200000000000001,-2.2,2.2,-1.6,16
306,5522.0,0.0,0.0,0.4,0.6000000000000001,1.0,10.100000000000001,0.8,-2.1,-3.1,16
307,5539.0,-0.1,0.1,0.30000000000000004,0.6000000000000001,1.0,10.100000000000001,0.8,-2.1,-3.1,16
308,5556.0,-0.2,0.1,0.2,0.5,1.0,9.700000000000001,3.1,1.9,-3.0,16
309,5576.0,-0.30000000000000004,0.0,-0.2,0.4,0.9,9.600000000000001,1.3,4.5,-0.8,16
310,5589.0,-0.30000000000000004,0.0,-0.2,0.5,0.9,9.700000000000001,1.3,4.5,-0.8,16
311,5606.0,-0.1,0.0,-0.1,0.6000000000000001,0.9,9.8,-1.6,0.0,0.2,16
312,5623.0,0.0,0.0,-0.30000000000000004,0.7000000000000001,1.0,9.5,-2.3,-2.6,-0.1,16
313,5640.0,0.0,0.0,-0.30000000000000004,0.7000000000000001,1.0,9.4,-2.4000000000000004,-2.9,-0.6000000000000001,16
314,5656.0,0.0,0.1,-0.4,0.7000000000000001,1.0,9.5,-4.9,-2.9,-0.8,16
315,5673.0,0.0,0.2,0.2,0.7000000000000001,1.1,10.0,-9.700000000000001,-6.600000000000001,-1.4,16
316,5689.0,0.0,0.2,0.2,0.8,1.1,10.100000000000001,-9.700000000000001,-6.600000000000001,-1.4,16
317,5706.0,0.1,0.2,0.30000000000000004,0.7000000000000001,1.0,10.0,-6.2,-4.800000000000001,-2.2,16
318,5723.0,-0.1,0.2,0.2,0.6000000000000001,1.0,10.100000000000001,-2.9,-4.7,-3.4,16
319,5739.0,-0.2,0.1,0.30000000000000004,0.9,0.9,10.3,-2.3,-7.8,-3.1,16
320,5761.0,0.30000000000000004,0.1,0.4,1.2000000000000002,0.9,10.200000000000001,1.9,-1.5,0.7,16
321,5773.0,0.30000000000000004,0.1,0.4,1.1,0.9,10.200000000000001,1.9,-1.5,0.7,16
322,5789.0,0.30000000000000004,0.1,0.30000000000000004,1.0,0.9,10.0,4.4,2.1,0.0,16
323,5806.0,0.2,0.0,0.1,1.0,0.9,9.8,5.2,0.4,-1.6,16
324,5823.0,0.2,0.0,0.0,1.0,0.9,9.700000000000001,5.500000000000001,-0.6000000000000001,-3.1,16
325,5839.0,0.1,-0.1,-0.4,0.9,0.8,9.4,4.7,0.8,-4.6,16
326,5856.0,0.1,-0.1,-0.4,0.9,0.8,9.4,4.7,0.8,-4.6,16
327,5872.0,0.0,-0.1,-0.4,0.8,0.8,9.600000000000001,2.2,1.2000000000000002,-4.2,16
328,5889.0,0.0,-0.2,-0.2,0.8,0.7000000000000001,9.600000000000001,1.4,4.4,-2.8,16
329,5906.0,0.0,-0.2,-0.2,0.8,0.7000000000000001,9.600000000000001,1.4,4.4,-2.8,16
330,5922.0,0.0,-0.2,-0.2,0.6000000000000001,0.8,9.5,2.0,3.7000000000000006,-3.0,16
331,5939.0,-0.2,-0.1,-0.5,0.6000000000000001,0.9,9.3,0.5,0.5,-2.5,16
332,5956.0,-0.2,-0.1,-0.5,0.6000000000000001,0.9,9.200000000000001,0.5,0.5,-2.5,16
333,5976.0,-0.2,-0.1,-0.4,0.7000000000000001,0.9,9.600000000000001,-2.6,-1.8000000000000003,-2.2,16
334,5991.0,0.0,0.0,-0.1,0.9,0.9,9.700000000000001,-6.2,-4.2,-1.6,16
335,6012.0,0.1,-0.1,-0.2,0.8,0.8,9.600000000000001,-5.1000000000000005,1.0,-2.2,16
336,6022.0,0.1,-0.1,-0.2,0.7000000000000001,0.9,9.600000000000001,-5.1000000000000005,1.0,-2.2,16
337,6039.0,-0.1,0.0,-0.1,0.6000000000000001,0.8,9.9,-5.9,0.6000000000000001,-2.2,16
338,6056.0,-0.1,0.0,0.2,0.7000000000000001,0.8,9.9,-7.300000000000001,-2.1,0.4,16
339,6081.0,0.1,0.0,0.2,0.9,0.8,10.0,-6.600000000000001,-0.30000000000000004,1.3,16
340,6089.0,0.1,0.0,0.2,0.8,0.8,10.100000000000001,-6.600000000000001,-0.30000000000000004,1.3,16
341,6109.0,0.0,0.1,0.7000000000000001,0.8,0.8,10.5,-5.500000000000001,-3.6000000000000005,0.30000000000000004,16
342,6123.0,0.0,0.1,0.7000000000000001,0.9,0.9,10.5,-5.500000000000001,-3.6000000000000005,0.30000000000000004,16
343,6139.0,0.1,0.0,0.6000000000000001,0.9,0.8,10.0,-0.7,-2.7,-0.6000000000000001,16
344,6156.0,-0.1,0.1,-0.30000000000000004,0.8,0.9,9.5,3.5,-2.9,-2.4000000000000004,16
345,6177.0,-0.1,0.1,-0.30000000000000004,0.8,0.9,9.600000000000001,-0.4,-2.0,-1.1,16
346,6189.0,-0.1,0.1,-0.30000000000000004,0.9,0.8,9.600000000000001,-0.4,-2.0,-1.1,16
347,6206.0,0.0,0.0,-0.1,0.9,0.7000000000000001,9.700000000000001,-2.7,-1.0,-0.9000000000000001,16
348,6222.0,0.0,0.0,-0.1,0.9,0.8,9.9,-2.7,-1.0,-0.9000000000000001,16
349,6239.0,0.0,0.1,0.2,0.9,0.8,10.200000000000001,-4.5,-3.6000000000000005,-1.7,16
350,6259.0,0.0,0.0,0.4,0.9,0.7000000000000001,10.200000000000001,-3.6000000000000005,-1.2000000000000002,-1.8000000000000003,16
351,6276.0,0.0,0.0,0.2,0.8,0.8,10.0,2.6,0.5,-2.7,16
352,6289.0,0.0,0.0,0.2,0.8,0.8,9.9,2.6,0.5,-2.7,16
353,6314.0,-0.1,0.0,-0.30000000000000004,0.7000000000000001,0.7000000000000001,9.4,3.7000000000000006,0.7,-2.7,16
354,6324.0,-0.1,-0.1,-0.4,0.7000000000000001,0.7000000000000001,9.4,2.1,2.8,-1.0,16
355,6343.0,-0.1,-0.2,-0.1,0.8,0.6000000000000001,9.700000000000001,-0.30000000000000004,-0.30000000000000004,-0.8,16
356,6356.0,-0.1,-0.2,-0.1,0.8,0.6000000000000001,9.8,-0.30000000000000004,-0.30000000000000004,-0.8,16
357,6375.0,-0.1,-0.2,-0.1,0.7000000000000001,0.6000000000000001,9.700000000000001,-0.5,-2.3,-1.1,16
358,6389.0,-0.1,-0.2,-0.1,0.8,0.6000000000000001,9.8,-0.5,-2.3,-1.1,16
359,6411.0,0.0,-0.1,0.1,0.9,0.6000000000000001,10.100000000000001,-0.7,-1.2000000000000002,-0.7,16
360,6423.0,0.1,-0.1,0.0,0.9,0.7000000000000001,9.8,4.5,6.9,-1.3,16
361,6442.0,-0.1,0.0,-0.30000000000000004,0.6000000000000001,0.9,9.4,4.1,7.0,-1.2000000000000002,16
362,6456.0,-0.1,0.0,-0.30000000000000004,0.5,0.9,9.4,4.1,7.0,-1.2000000000000002,16
363,6473.0,-0.2,0.1,-0.4,0.6000000000000001,0.9,9.5,0.2,3.1,-0.2,16
364,6500.0,-0.1,0.1,-0.2,0.6000000000000001,0.8,9.600000000000001,-3.5,-0.9000000000000001,1.7,16
365,6506.0,-0.1,0.1,-0.2,0.6000000000000001,0.8,9.9,-3.5,-0.9000000000000001,1.7,16
366,6522.0,-0.1,0.0,0.1,0.8,0.8,10.100000000000001,-3.9,-2.7,2.3,16
367,6539.0,0.0,0.0,0.30000000000000004,0.9,0.7000000000000001,10.100000000000001,-2.9,-3.9,2.1,16
368,6557.0,0.0,0.0,0.2,0.8,0.8,9.9,-0.1,-2.0,1.1,16
369,6572.0,0.0,0.0,0.1,0.8,0.8,9.8,0.7,-1.0,1.2000000000000002,16
370,6589.0,0.0,0.0,0.0,0.8,0.8,9.700000000000001,0.0,0.4,1.9,16
371,6607.0,0.0,0.0,-0.1,0.8,0.8,9.700000000000001,-0.6000000000000001,0.7,2.1,16
372,6623.0,0.0,0.0,-0.1,0.8,0.7000000000000001,9.9,-1.5,0.30000000000000004,2.5,16
373,6642.0,0.1,-0.1,0.0,0.9,0.7000000000000001,9.8,-1.2000000000000002,-1.3,3.0,16
374,6656.0,0.1,-0.1,0.0,0.9,0.7000000000000001,9.700000000000001,-1.2000000000000002,-1.3,3.0,16
375,6673.0,0.1,0.0,-0.2,0.9,0.8,9.600000000000001,-0.30000000000000004,0.2,2.4000000000000004,16
376,6693.0,0.1,0.0,0.1,0.8,0.7000000000000001,9.8,-1.2000000000000002,0.30000000000000004,2.7,16
377,6706.0,0.1,0.0,0.1,1.0,0.7000000000000001,10.100000000000001,-3.1,-2.5,3.1,16
378,6724.0,0.1,0.0,0.2,0.9,0.7000000000000001,9.9,-1.6,-1.6,2.4000000000000004,16
379,6739.0,0.0,0.0,-0.1,0.8,0.8,9.700000000000001,0.8,0.9000000000000001,2.0,16
380,6756.0,0.0,0.0,-0.1,0.8,0.8,9.700000000000001,0.8,0.9000000000000001,2.0,16
381,6772.0,0.0,0.0,-0.1,0.9,0.7000000000000001,9.700000000000001,-0.30000000000000004,0.0,2.2,16
382,6789.0,0.0,0.0,-0.1,0.8,0.7000000000000001,9.600000000000001,0.0,-0.1,2.1,16
383,6811.0,0.0,-0.1,-0.1,0.8,0.6000000000000001,9.8,-1.3,-1.5,2.0,16
384,6822.0,0.0,-0.1,-0.1,0.9,0.7000000000000001,9.8,-1.3,-1.5,2.0,16
385,6840.0,0.0,-0.1,0.0,0.9,0.6000000000000001,9.700000000000001,-1.4,-1.5,1.4,16
386,6856.0,0.0,-0.1,0.1,0.8,0.6000000000000001,9.9,-0.6000000000000001,0.1,1.0,16
387,6874.0,0.0,-0.1,0.1,0.9,0.6000000000000001,9.9,-0.9000000000000001,-0.5,1.3,16
388,6890.0,0.1,-0.1,0.1,0.9,0.7000000000000001,9.9,-0.6000000000000001,-0.30000000000000004,1.5,16
389,6906.0,0.0,0.0,0.0,0.8,0.7000000000000001,9.700000000000001,0.8,0.1,0.9000000000000001,16
390,6923.0,0.0,0.1,-0.1,0.8,0.8,9.600000000000001,0.2,-1.5,0.7,16
391,6940.0,0.0,0.1,-0.2,0.9,0.7000000000000001,9.700000000000001,-1.8000000000000003,-2.2,1.2000000000000002,16
392,6956.0,0.1,0.0,0.0,0.9,0.7000000000000001,9.700000000000001,-3.0,-3.4,1.6,16
393,6973.0,0.1,0.0,0.0,0.9,0.7000000000000001,9.700000000000001,-2.7,-2.9,1.1,16
394,6994.0,0.0,0.0,-0.1,0.9,0.6000000000000001,9.600000000000001,-2.1,-1.1,0.6000000000000001,16
395,7007.0,0.0,-0.1,0.1,0.9,0.6000000000000001,9.9,-3.9,-1.9,0.6000000000000001,16
396,7026.0,0.1,-0.1,0.4,1.1,0.6000000000000001,10.200000000000001,-3.4,-2.3,-0.1,16
397,7039.0,0.1,-0.1,0.4,1.0,0.6000000000000001,10.200000000000001,-3.4,-2.3,-0.1,16
398,7056.0,0.1,0.0,0.0,1.0,0.6000000000000001,9.8,2.6,2.8,-1.2000000000000002,16
399,7074.0,0.1,0.0,0.0,0.9,0.7000000000000001,9.700000000000001,2.6,2.8,-1.2000000000000002,16
400,7089.0,0.0,0.1,-0.1,0.8,0.7000000000000001,9.700000000000001,0.4,1.0,-1.1,16
401,7111.0,0.0,0.1,-0.1,0.8,0.7000000000000001,9.600000000000001,-1.1,-0.2,-0.9000000000000001,16
402,7122.0,-0.1,0.0,-0.2,0.8,0.7000000000000001,9.600000000000001,-1.6,-0.1,-0.5,16
403,7139.0,0.0,0.0,-0.1,0.9,0.6000000000000001,9.8,-2.7,-0.9000000000000001,-0.30000000000000004,16
404,7157.0,0.0,0.0,0.0,0.9,0.6000000000000001,9.9,-3.5,-1.5,-0.4,16
405,7173.0,0.0,0.0,0.1,0.9,0.6000000000000001,9.9,-2.0,-0.2,-0.8,16
406,7189.0,0.0,-0.1,0.1,1.0,0.6000000000000001,9.9,-0.2,1.0,-1.2000000000000002,16
407,7208.0,0.1,-0.1,0.0,0.9,0.6000000000000001,9.600000000000001,0.5,1.9,-1.5,16
408,7222.0,0.0,0.0,-0.2,0.8,0.6000000000000001,9.5,0.6000000000000001,3.4,-1.3,16
409,7239.0,0.0,0.0,-0.30000000000000004,0.8,0.6000000000000001,9.5,-0.7,3.6000000000000005,-0.6000000000000001,16
410,7256.0,-0.1,0.0,-0.2,0.8,0.6000000000000001,9.5,-3.1,1.2000000000000002,-0.4,16
411,7277.0,0.0,0.0,0.1,0.9,0.6000000000000001,9.9,-6.699999999999999,-1.1,0.2,16
412,7290.0,0.0,0.0,0.1,0.9,0.6000000000000001,10.100000000000001,-6.699999999999999,-1.1,0.2,16
413,7308.0,0.0,0.0,0.4,0.9,0.6000000000000001,10.200000000000001,-5.7,-1.6,-0.7,16
414,7322.0,-0.1,0.1,0.1,0.8,0.6000000000000001,9.9,-0.2,2.3,-1.4,16
415,7340.0,-0.1,0.1,0.1,0.8,0.6000000000000001,9.9,-0.30000000000000004,2.8,-0.4,16
416,7356.0,-0.1,0.1,0.1,0.8,0.6000000000000001,9.9,-0.30000000000000004,2.8,-0.4,16
417,7373.0,0.0,0.0,0.1,0.8,0.6000000000000001,9.8,-0.2,2.5,0.2,16
418,7395.0,-0.1,0.1,0.1,0.8,0.6000000000000001,9.9,-1.9,-3.2,-0.1,16
419,7406.0,-0.1,0.1,0.1,0.8,0.6000000000000001,10.0,-1.9,-3.2,-0.1,16
420,7422.0,0.0,0.0,0.2,0.8,0.6000000000000001,10.0,-1.7,-2.7,-0.1,16
421,7439.0,0.0,0.0,0.2,0.8,0.6000000000000001,9.9,-0.6000000000000001,-2.0,0.0,16
422,7456.0,-0.1,0.0,0.1,0.8,0.6000000000000001,10.0,0.30000000000000004,-0.4,0.4,16
423,7472.0,0.0,0.0,0.2,0.8,0.5,10.0,1.5,1.7,0.5,16
424,7490.0,0.0,0.0,0.1,0.8,0.6000000000000001,9.8,3.3000000000000007,1.5,0.30000000000000004,16
425,7506.0,-0.1,0.0,0.0,0.8,0.6000000000000001,9.8,3.4,-0.1,0.2,16
426,7523.0,-0.1,0.0,-0.1,0.7000000000000001,0.6000000000000001,9.700000000000001,2.5,-0.2,0.30000000000000004,16
427,7539.0,-0.1,0.0,0.0,0.7000000000000001,0.6000000000000001,9.8,1.5,-2.9,0.5,16
428,7556.0,-0.1,0.0,0.0,0.7000000000000001,0.6000000000000001,9.700000000000001,1.5,-2.9,0.5,16
429,7576.0,-0.1,0.0,-0.1,0.8,0.6000000000000001,9.5,1.4,-3.6000000000000005,1.0,16
430,7589.0,0.0,-0.1,-0.30000000000000004,0.8,0.5,9.5,0.5,-0.9000000000000001,1.5,16
431,7606.0,0.0,-0.1,-0.30000000000000004,0.9,0.5,9.700000000000001,0.5,-0.9000000000000001,1.5,16
432,7626.0,0.0,-0.1,0.0,0.9,0.5,9.8,-1.1,-0.9000000000000001,1.5,16
433,7640.0,0.0,-0.1,0.0,0.9,0.5,9.8,-0.7,0.2,1.4,16
434,7663.0,0.0,0.0,0.1,0.9,0.6000000000000001,9.9,-0.30000000000000004,0.2,1.5,16
435,7673.0,0.0,0.0,0.1,0.9,0.6000000000000001,9.9,-0.30000000000000004,0.2,1.5,16
436,7689.0,0.1,0.0,0.1,0.9,0.6000000000000001,9.8,-0.6000000000000001,-0.9000000000000001,0.8,16
437,7706.0,0.0,0.0,-0.1,0.9,0.6000000000000001,9.700000000000001,0.6000000000000001,-1.4,0.1,16
438,7723.0,0.0,0.0,-0.1,0.9,0.6000000000000001,9.8,1.0,-1.0,-0.1,16
439,7740.0,0.0,0.0,0.0,0.8,0.6000000000000001,9.700000000000001,0.5,-0.2,-0.2,16
440,7756.0,0.0,0.0,-0.1,0.8,0.6000000000000001,9.5,1.1,1.1,0.2,16
441,7775.0,0.0,0.0,-0.30000000000000004,0.8,0.6000000000000001,9.700000000000001,0.30000000000000004,1.8000000000000003,1.4,16
442,7789.0,0.0,0.0,0.0,0.9,0.6000000000000001,10.0,-1.7,-0.1,1.7,16
443,7808.0,0.0,0.0,-0.1,0.9,0.6000000000000001,9.700000000000001,1.0,-0.30000000000000004,0.6000000000000001,16
444,7823.0,0.0,0.0,-0.1,0.9,0.6000000000000001,9.5,1.0,-0.30000000000000004,0.6000000000000001,16
445,7840.0,0.0,0.0,-0.30000000000000004,0.8,0.6000000000000001,9.4,0.2,-0.1,0.4,16
446,7856.0,0.0,0.0,0.0,0.9,0.5,9.700000000000001,-5.500000000000001,-2.5,1.8000000000000003,16
447,7873.0,0.0,0.0,0.0,0.9,0.5,10.0,-5.500000000000001,-2.5,1.8000000000000003,16
448,7889.0,0.1,0.0,0.30000000000000004,1.0,0.5,10.100000000000001,-5.1000000000000005,-4.2,1.4,16
449,7906.0,0.1,0.0,0.30000000000000004,1.0,0.6000000000000001,10.100000000000001,-2.2,-3.6000000000000005,0.2,16
450,7924.0,0.0,0.0,0.0,0.9,0.6000000000000001,9.8,2.5,1.9,-0.30000000000000004,16
451,7940.0,0.0,0.0,0.0,0.9,0.6000000000000001,9.700000000000001,2.5,1.9,-0.30000000000000004,16
452,7956.0,-0.1,0.0,-0.1,0.8,0.6000000000000001,9.700000000000001,2.2,3.2,0.30000000000000004,16
453,7984.0,-0.1,0.0,0.0,0.8,0.6000000000000001,9.8,-1.4,-1.4,1.6,16
454,7990.0,-0.1,0.0,0.0,0.8,0.6000000000000001,9.8,-1.4,-1.4,1.6,16
455,8007.0,0.0,0.0,0.1,1.0,0.5,10.200000000000001,-1.3,-2.8,1.3,16
456,8023.0,0.1,0.0,0.1,1.0,0.5,9.9,1.7,-3.6000000000000005,-0.4,16
457,8039.0,0.1,0.0,0.1,0.9,0.6000000000000001,9.700000000000001,1.7,-3.6000000000000005,-0.4,16
458,8056.0,0.0,0.0,-0.2,0.9,0.6000000000000001,9.5,2.8,-1.6,-0.5,16
459,8073.0,0.0,0.0,0.0,1.0,0.5,9.8,-0.7,0.0,0.9000000000000001,16
460,8089.0,0.0,0.0,0.0,1.0,0.5,9.8,-0.7,0.0,0.9000000000000001,16
461,8107.0,0.1,-0.1,0.0,0.9,0.6000000000000001,9.5,-0.1,-0.8,0.5,16
462,8124.0,-0.1,0.0,-0.5,0.8,0.6000000000000001,9.3,-0.2,-0.6000000000000001,0.1,16
463,8139.0,-0.1,0.0,-0.5,0.9,0.6000000000000001,9.3,-0.2,-0.6000000000000001,0.1,16
464,8156.0,0.0,0.1,-0.4,0.9,0.7000000000000001,9.600000000000001,-3.5,-0.30000000000000004,0.7,16
465,8176.0,0.0,0.1,0.0,0.8,0.7000000000000001,9.9,-5.1000000000000005,1.7,0.6000000000000001,16
466,8189.0,-0.1,0.2,0.2,0.9,0.7000000000000001,10.100000000000001,-5.1000000000000005,2.1,0.5,16
467,8210.0,-0.1,0.1,0.4,0.9,0.6000000000000001,10.200000000000001,-4.5,1.1,0.7,16
468,8222.0,0.0,0.1,0.4,0.9,0.6000000000000001,10.200000000000001,-3.1,0.1,0.8,16
469,8241.0,0.0,0.0,0.4,0.9,0.5,10.3,-0.1,-1.1,0.7,16
470,8256.0,0.0,0.0,0.4,0.9,0.4,10.3,-0.1,-1.1,0.7,16
471,8273.0,0.0,-0.1,0.4,1.0,0.5,10.100000000000001,1.7,-1.1,0.8,16
472,8290.0,0.1,-0.1,0.1,1.0,0.5,10.100000000000001,5.4,0.7,1.1,16
473,8306.0,0.1,-0.1,0.1,1.0,0.4,9.8,5.4,0.7,1.1,16
474,8326.0,0.1,-0.1,-0.1,1.0,0.5,9.5,5.7,1.6,1.1,16
475,8339.0,0.1,-0.1,-0.30000000000000004,0.9,0.5,9.5,2.6,-0.4,0.0,16
476,8357.0,0.0,0.0,-0.30000000000000004,1.0,0.5,9.600000000000001,2.6,-0.4,0.0,16
477,8372.0,0.1,0.0,-0.2,1.0,0.5,9.5,1.5,0.30000000000000004,-0.1,16
478,8390.0,0.0,0.0,-0.30000000000000004,0.9,0.6000000000000001,9.4,0.8,1.4,0.30000000000000004,16
479,8406.0,0.0,0.0,-0.4,0.9,0.6000000000000001,9.5,0.8,1.4,0.30000000000000004,16
480,8423.0,-0.1,0.0,-0.2,0.9,0.6000000000000001,9.600000000000001,-1.5,-2.2,0.6000000000000001,16
481,8444.0,0.0,0.1,-0.1,1.0,0.6000000000000001,9.700000000000001,-3.2,-3.4,0.9000000000000001,16
482,8456.0,0.1,0.0,0.0,1.0,0.6000000000000001,9.8,-2.8,-1.4,1.1,16
483,8473.0,0.0,0.0,0.0,1.0,0.6000000000000001,9.9,-2.8,-2.1,0.8,16
484,8495.0,0.1,0.0,0.1,1.0,0.5,9.8,-2.7,-1.6,0.5,16
485,8506.0,0.1,0.0,0.0,1.0,0.5,9.700000000000001,-1.1,0.5,0.0,16
486,8534.0,0.0,0.0,0.1,1.0,0.5,9.9,-2.0,-0.5,0.0,16
487,8539.0,0.0,0.0,0.1,1.0,0.5,9.8,-2.0,-0.5,0.0,16
488,8556.0,0.0,0.0,0.1,1.0,0.5,9.8,-1.6,-0.4,-0.2,16
489,8575.0,0.0,0.0,0.0,1.0,0.5,9.9,-1.8000000000000003,-0.7,-0.1,16
490,8589.0,0.0,0.0,0.2,1.0,0.5,10.0,-2.7,-2.5,0.0,16
491,8606.0,0.1,0.0,0.2,1.0,0.6000000000000001,9.9,-1.2000000000000002,-1.3,-0.30000000000000004,16
492,8623.0,0.0,0.1,0.1,1.0,0.6000000000000001,9.700000000000001,0.5,0.2,-0.30000000000000004,16
493,8640.0,0.0,0.1,-0.1,1.0,0.6000000000000001,9.8,0.2,0.1,-0.2,16
494,8656.0,0.0,0.1,0.0,1.0,0.6000000000000001,9.9,0.0,0.9000000000000001,-0.5,16
495,8673.0,0.0,0.0,0.1,1.0,0.5,9.8,0.0,0.9000000000000001,-0.5,16
496,8689.0,0.0,0.0,0.0,1.0,0.5,9.8,1.0,0.5,-0.7,16
497,8707.0,0.0,0.0,0.0,1.0,0.5,9.700000000000001,0.4,-1.0,-0.9000000000000001,16
498,8722.0,0.0,0.0,-0.1,1.0,0.5,9.600000000000001,0.2,-1.2000000000000002,-0.7,16
499,8742.0,0.0,0.0,-0.2,1.0,0.5,9.700000000000001,-0.1,-0.5,-0.5,16
500,8756.0,0.0,0.0,-0.1,1.0,0.5,9.8,-1.5,-0.4,-0.8,16
501,8775.0,0.0,0.0,0.1,0.9,0.5,9.9,-0.9000000000000001,0.7,-0.8,16
502,8789.0,0.0,0.0,0.1,0.9,0.5,9.8,-0.9000000000000001,0.7,-0.8,16
503,8807.0,-0.1,0.0,0.0,0.9,0.5,9.700000000000001,-0.2,1.3,-0.2,16
504,8823.0,-0.1,0.1,-0.1,0.8,0.6000000000000001,9.600000000000001,0.0,2.2,0.4,16
505,8840.0,-0.1,0.1,-0.1,0.8,0.6000000000000001,9.700000000000001,-1.3,1.3,0.5,16
506,8856.0,-0.1,0.1,-0.1,0.9,0.6000000000000001,9.9,-3.1,-0.4,1.1,16
507,8872.0,0.0,0.0,0.2,1.0,0.5,10.0,-3.1,-0.8,1.5,16
508,8889.0,0.0,0.0,0.2,0.9,0.5,10.0,-3.1,-0.8,1.5,16
509,8911.0,0.0,0.0,0.2,0.9,0.5,9.9,-1.4,-0.2,1.9,16
510,8922.0,-0.1,0.0,0.0,0.9,0.4,9.700000000000001,1.1,1.4,2.8,16
511,8940.0,-0.1,0.0,0.0,0.9,0.4,9.700000000000001,1.1,1.4,2.8,16
512,8956.0,-0.1,0.0,-0.1,0.8,0.5,9.600000000000001,0.9000000000000001,0.8,3.4,16
513,8974.0,-0.1,0.0,-0.1,0.9,0.4,9.8,-0.1,-0.1,4.2,16
514,8989.0,0.0,-0.1,0.0,0.9,0.4,9.8,-1.2000000000000002,-1.3,5.0,16
515,9017.0,0.0,0.0,0.1,1.0,0.5,9.8,-0.7,-1.4,5.6,16
516,9023.0,0.0,0.0,0.1,1.0,0.4,9.700000000000001,-0.7,-1.4,5.6,16
517,9039.0,0.1,0.0,0.0,1.0,0.4,9.8,-0.30000000000000004,0.6000000000000001,6.4,16
518,9061.0,0.0,0.0,-0.1,1.0,0.5,9.600000000000001,-0.6000000000000001,1.1,6.500000000000001,16
519,9072.0,0.0,0.0,-0.1,1.0,0.5,9.600000000000001,-0.6000000000000001,1.1,6.500000000000001,16
520,9096.0,0.0,0.0,-0.1,1.0,0.5,9.600000000000001,-1.9,1.4,6.600000000000001,16
521,9109.0,0.0,0.0,-0.1,1.0,0.5,9.700000000000001,-1.9,1.4,6.600000000000001,16
522,9122.0,0.0,0.0,-0.1,1.0,0.5,9.700000000000001,-3.3000000000000007,0.7,6.699999999999999,16
523,9142.0,0.0,0.0,-0.1,0.9,0.4,9.700000000000001,-4.1,2.4000000000000004,7.6,16
524,9156.0,0.0,0.0,-0.1,0.9,0.4,9.9,-4.1,2.4000000000000004,7.6,16
525,9177.0,0.0,0.0,0.2,1.0,0.4,10.100000000000001,-5.2,2.0,8.2,16
526,9189.0,0.1,0.0,0.30000000000000004,1.0,0.4,10.0,-2.9,2.4000000000000004,7.500000000000001,16
527,9206.0,0.0,0.0,0.2,1.0,0.4,10.0,-2.9,2.4000000000000004,7.500000000000001,16
528,9222.0,0.0,0.0,0.2,0.9,0.30000000000000004,10.0,-2.1,4.5,7.6,16
529,9239.0,-0.1,-0.1,0.2,0.8,0.30000000000000004,10.0,-1.4,5.4,8.2,16
530,9256.0,-0.1,-0.1,0.2,0.8,0.30000000000000004,10.0,-1.4,5.4,8.2,16
531,9274.0,-0.1,-0.1,0.2,0.8,0.2,10.100000000000001,-2.3,1.9,8.4,16
532,9290.0,-0.1,-0.1,0.30000000000000004,0.8,0.1,10.200000000000001,-1.8000000000000003,1.1,8.5,16
533,9306.0,0.0,-0.2,0.30000000000000004,0.8,0.1,10.100000000000001,0.4,1.4,8.4,16
534,9327.0,-0.30000000000000004,-0.1,-0.30000000000000004,0.5,0.2,9.5,4.1,-0.30000000000000004,7.200000000000001,16
535,9340.0,-0.30000000000000004,-0.1,-0.30000000000000004,0.5,0.2,9.5,4.1,-0.30000000000000004,7.200000000000001,16
536,9363.0,-0.30000000000000004,-0.2,-0.2,0.6000000000000001,0.2,9.600000000000001,-1.2000000000000002,-3.3000000000000007,11.000000000000002,16
537,9372.0,-0.30000000000000004,-0.2,-0.2,0.7000000000000001,0.1,9.700000000000001,-1.2000000000000002,-3.3000000000000007,11.000000000000002,16
538,9389.0,-0.2,-0.2,-0.2,0.7000000000000001,0.2,9.4,-0.8,-2.5,12.7,16
539,9406.0,-0.2,-0.1,-0.4,0.6000000000000001,0.2,9.5,-0.5,0.8,15.299999999999999,16
540,9423.0,-0.2,-0.1,-0.4,0.6000000000000001,0.1,9.600000000000001,-0.5,0.8,15.299999999999999,16
541,9439.0,-0.2,-0.1,-0.1,0.7000000000000001,0.30000000000000004,9.8,-1.3,-1.1,16.200000000000003,16
542,9457.0,0.0,0.2,0.0,0.9,0.5,9.700000000000001,-1.0,-4.6,16.900000000000002,16
543,9472.0,0.0,0.2,0.0,0.9,0.6000000000000001,9.8,-1.0,-4.6,16.900000000000002,16
544,9489.0,0.1,0.30000000000000004,0.1,1.0,0.6000000000000001,10.0,1.4,-1.0,18.0,16
545,9507.0,0.2,0.30000000000000004,0.0,1.1,0.6000000000000001,9.8,11.4,4.800000000000001,16.900000000000002,16
546,9522.0,0.2,0.30000000000000004,0.0,1.0,0.6000000000000001,9.600000000000001,11.4,4.800000000000001,16.900000000000002,16
547,9540.0,0.0,0.30000000000000004,-0.1,0.7000000000000001,0.8,10.0,12.9,4.4,14.200000000000001,16
548,9558.0,-0.2,0.30000000000000004,0.2,0.6000000000000001,0.6000000000000001,10.0,12.4,1.6,13.100000000000001,16
549,9572.0,-0.2,0.1,0.2,0.5,0.6000000000000001,9.9,13.000000000000002,-2.9,13.700000000000001,16
550,9589.0,-0.4,0.1,0.30000000000000004,0.6000000000000001,0.4,10.700000000000001,14.200000000000001,0.9000000000000001,16.1,16
551,9609.0,-0.2,-0.2,1.0,0.7000000000000001,0.5,10.8,17.300000000000004,7.400000000000001,19.300000000000004,16
552,9622.0,-0.1,-0.1,0.9,0.6000000000000001,0.6000000000000001,10.4,22.8,10.0,21.200000000000003,16
553,9641.0,-0.4,-0.2,0.4,-1.3,-0.1,10.5,25.1,12.299999999999999,22.6,16
554,9657.0,-1.6,-0.8,0.6000000000000001,1.8,1.2000000000000002,10.4,26.000000000000004,14.300000000000002,29.800000000000004,16
555,9674.0,3.8000000000000003,1.2000000000000002,-0.9,4.5,2.1,8.9,36.0,20.900000000000002,10.8,16
556,9693.0,-1.2000000000000002,0.2,-2.3000000000000003,-1.6,0.9,7.9,25.900000000000002,17.5,-17.400000000000002,16
557,9707.0,-1.2000000000000002,0.2,-2.3000000000000003,-0.8,0.8,9.600000000000001,25.900000000000002,17.5,-17.400000000000002,16
558,9722.0,-0.5,0.2,0.7000000000000001,-0.2,1.3,10.5,24.1,50.60000000000001,-6.4,16
559,9739.0,-0.5,0.2,0.7000000000000001,-0.4,1.6,9.600000000000001,24.1,50.60000000000001,-6.4,16
560,9758.0,-0.30000000000000004,0.4,-0.30000000000000004,0.2,1.5,9.4,20.8,44.9,-1.6,16
561,9772.0,-0.9,-0.6000000000000001,0.7000000000000001,-0.9,0.6000000000000001,10.600000000000001,-5.9,24.1,5.2,16
562,9792.0,-0.9,-0.6000000000000001,0.7000000000000001,-0.9,0.4,11.100000000000001,-5.9,24.1,5.2,16
563,9813.0,-0.4,-0.1,0.7000000000000001,-0.1,1.1,10.5,4.5,26.1,22.700000000000003,16
564,9824.0,-0.4,-0.1,0.7000000000000001,0.7000000000000001,1.2000000000000002,11.200000000000001,4.5,26.1,22.700000000000003,16
565,9839.0,1.0,0.0,1.4000000000000001,1.3,1.3,11.100000000000001,13.900000000000002,38.0,25.6,16
566,9855.0,2.4000000000000004,0.6000000000000001,1.1,2.1,3.0,9.9,31.5,42.60000000000001,17.6,16
567,9874.0,1.5,1.3,-1.7000000000000002,-2.2,1.6,3.6,37.7,13.000000000000002,14.300000000000002,16
568,9893.0,-1.8,0.30000000000000004,-1.2000000000000002,-2.3000000000000003,1.7000000000000002,9.0,-34.7,76.89999999999999,19.200000000000003,16
569,9908.0,-1.8,0.30000000000000004,-1.2000000000000002,-1.2000000000000002,1.7000000000000002,10.5,-34.7,76.89999999999999,19.200000000000003,16
570,9923.0,-0.1,0.30000000000000004,1.4000000000000001,0.30000000000000004,1.8,12.5,-23.700000000000003,36.300000000000004,33.2,16
571,9939.0,1.0,1.0,2.1,0.6000000000000001,2.4000000000000004,11.9,32.0,-82.3,25.0,16
572,9955.0,1.0,1.0,2.1,0.6000000000000001,2.4000000000000004,11.200000000000001,32.0,-82.3,25.0,16
573,9972.0,0.7000000000000001,0.9,1.0,0.4,2.2,9.600000000000001,45.5,-99.10000000000001,8.4,16
574,9997.0,-0.5,0.30000000000000004,-0.8,-0.6000000000000001,1.9000000000000001,9.1,34.60000000000001,-65.89999999999999,-4.0,16
575,10007.0,-0.5,0.30000000000000004,-0.8,-0.6000000000000001,1.9000000000000001,9.1,34.60000000000001,-65.89999999999999,-4.0,16
576,10024.0,-1.0,0.2,-0.4,-0.5,2.5,9.4,21.500000000000004,-52.900000000000006,-0.6000000000000001,16
577,10040.0,0.7000000000000001,0.5,-1.2000000000000002,1.3,2.4000000000000004,8.5,13.100000000000001,-2.1,11.1,16
578,10055.0,0.7000000000000001,0.5,-1.2000000000000002,1.4000000000000001,2.6,8.0,13.100000000000001,-2.1,11.1,16
579,10072.0,1.2000000000000002,0.9,-3.0,1.1,2.9000000000000004,8.3,-3.8,8.700000000000001,5.1000000000000005,16
580,10091.0,0.30000000000000004,1.0,-1.4000000000000001,-0.30000000000000004,1.9000000000000001,8.3,-36.0,30.4,-9.3,16
581,10112.0,-0.9,0.1,-1.3,-0.7000000000000001,1.6,8.6,-52.400000000000006,43.800000000000004,-0.1,16
582,10123.0,-0.9,0.1,-1.3,-0.5,1.5,8.700000000000001,-52.400000000000006,43.800000000000004,-0.1,16
583,10139.0,-0.4,0.1,-0.7000000000000001,-0.30000000000000004,1.5,10.600000000000001,-52.00000000000001,52.400000000000006,5.300000000000001,16
584,10158.0,0.7000000000000001,0.30000000000000004,0.6000000000000001,0.5,1.4000000000000001,10.4,-32.8,56.7,4.7,16
585,10172.0,0.7000000000000001,0.30000000000000004,0.6000000000000001,0.30000000000000004,1.6,10.4,-32.8,56.7,4.7,16
586,10193.0,0.7000000000000001,0.6000000000000001,0.5,-0.1,1.7000000000000002,9.9,-19.6,51.300000000000004,-6.0,16
587,10208.0,0.1,0.6000000000000001,-0.5,-0.6000000000000001,1.6,9.3,-10.600000000000001,26.9,-24.7,16
588,10222.0,0.1,0.6000000000000001,-0.5,-0.7000000000000001,1.6,9.4,-10.600000000000001,26.9,-24.7,16
589,10239.0,0.0,0.6000000000000001,-0.30000000000000004,-0.9,1.5,9.9,-14.0,14.400000000000002,-29.200000000000003,16
590,10256.0,-0.5,0.5,0.7000000000000001,-1.2000000000000002,1.3,10.5,-23.0,-12.9,-35.5,16
591,10273.0,-0.5,0.5,0.7000000000000001,-1.2000000000000002,1.2000000000000002,11.0,-23.0,-12.9,-35.5,16
592,10294.0,-0.5,0.4,1.3,-1.1,1.0,11.600000000000001,-21.900000000000002,-14.700000000000001,-33.9,16
593,10305.0,-0.2,0.5,2.4000000000000004,-0.8,1.2000000000000002,12.3,-4.0,15.6,-24.400000000000002,16
594,10323.0,-0.2,0.5,2.4000000000000004,-0.9,1.5,11.700000000000001,-4.0,15.6,-24.400000000000002,16
595,10339.0,0.0,0.8,1.9000000000000001,-0.6000000000000001,1.5,11.4,8.8,11.3,-21.8,16
596,10356.0,0.1,0.7000000000000001,1.4000000000000001,-1.1,1.7000000000000002,10.700000000000001,19.9,16.1,-22.2,16
597,10373.0,-0.2,0.8,0.9,-1.0,1.6,10.600000000000001,22.700000000000003,13.5,-21.200000000000003,16
598,10392.0,-0.1,0.7000000000000001,0.8,-0.8,1.6,10.8,22.1,14.300000000000002,-18.5,16
599,10409.0,0.30000000000000004,0.6000000000000001,1.1,-0.4,1.6,11.200000000000001,22.6,13.5,-16.4,16
600,10424.0,0.7000000000000001,0.30000000000000004,1.2000000000000002,-0.30000000000000004,1.4000000000000001,11.0,34.300000000000004,6.1000000000000005,-18.200000000000003,16
601,10439.0,0.7000000000000001,0.30000000000000004,1.2000000000000002,-0.30000000000000004,1.4000000000000001,10.700000000000001,34.300000000000004,6.1000000000000005,-18.200000000000003,16
602,10458.0,0.6000000000000001,0.1,0.7000000000000001,-0.4,1.3,10.0,41.4,1.8000000000000003,-19.1,16
603,10472.0,0.5,-0.2,0.0,-0.4,1.3,9.9,46.4,-0.30000000000000004,-15.6,16
604,10493.0,0.6000000000000001,-0.4,-0.2,-0.30000000000000004,1.3,9.600000000000001,47.1,3.3000000000000007,-12.100000000000001,16
605,10506.0,0.6000000000000001,-0.4,-0.2,-0.2,1.4000000000000001,9.600000000000001,47.1,3.3000000000000007,-12.100000000000001,16
606,10522.0,0.8,-0.4,-0.2,-0.1,1.4000000000000001,9.5,49.1,3.8,-9.3,16
607,10539.0,1.0,-0.5,-0.2,0.1,1.4000000000000001,9.3,52.80000000000001,-0.9000000000000001,-9.100000000000001,16
608,10556.0,1.2000000000000002,-0.6000000000000001,-0.5,0.2,1.6,9.0,58.2,-8.100000000000001,-11.3,16
609,10573.0,1.0,-0.9,-1.1,0.1,1.5,8.5,68.60000000000001,-22.1,-16.700000000000003,16
610,10589.0,1.0,-0.9,-1.1,0.0,1.7000000000000002,8.1,68.60000000000001,-22.1,-16.700000000000003,16
611,10606.0,0.9,-0.9,-1.6,0.1,1.9000000000000001,7.7,68.2,-25.300000000000004,-18.900000000000002,16
612,10622.0,0.9,-0.9,-1.8,0.2,1.9000000000000001,8.0,61.50000000000001,-31.7,-21.500000000000004,16
613,10639.0,0.9,-1.0,-1.4000000000000001,0.2,1.9000000000000001,8.1,53.300000000000004,-37.300000000000004,-25.4,16
614,10656.0,0.8,-1.2000000000000002,-1.4000000000000001,0.30000000000000004,1.9000000000000001,8.1,45.9,-39.2,-27.800000000000004,16
615,10674.0,0.8,-1.2000000000000002,-1.2000000000000002,0.5,2.0,8.700000000000001,37.1,-42.1,-28.900000000000002,16
616,10693.0,0.6000000000000001,-1.3,-0.4,0.30000000000000004,1.9000000000000001,8.9,25.5,-40.5,-32.400000000000006,16
617,10706.0,0.6000000000000001,-1.3,-0.4,0.0,1.9000000000000001,8.9,25.5,-40.5,-32.400000000000006,16
618,10724.0,0.2,-1.4000000000000001,-0.5,-0.30000000000000004,1.9000000000000001,8.6,22.3,-38.0,-31.5,16
619,10739.0,-0.2,-1.3,-0.4,-0.30000000000000004,2.1,8.9,14.100000000000001,-28.0,-18.3,16
620,10756.0,-0.2,-1.3,-0.4,-0.1,2.2,9.1,14.100000000000001,-28.0,-18.3,16
621,10772.0,0.0,-1.1,-0.1,0.2,2.5,9.3,13.100000000000001,-31.5,-12.7,16
622,10789.0,0.2,-0.9,0.0,0.5,2.7,9.3,15.5,-33.6,-9.0,16
623,10805.0,0.5,-0.6000000000000001,0.0,0.7000000000000001,3.0,9.200000000000001,17.6,-36.300000000000004,-8.899999999999999,16
624,10822.0,0.5,-0.5,-0.1,0.8,3.1,9.0,17.799999999999997,-34.50000000000001,-10.700000000000001,16
625,10841.0,0.2,-0.4,-0.5,0.5,3.2,8.700000000000001,11.1,-23.5,-12.7,16
626,10856.0,0.2,-0.4,-0.5,0.5,3.2,8.700000000000001,11.1,-23.5,-12.7,16
627,10877.0,0.30000000000000004,-0.4,-0.30000000000000004,0.9,3.4000000000000004,9.200000000000001,4.5,-18.700000000000003,-10.4,16
628,10892.0,0.5,-0.30000000000000004,0.1,1.2000000000000002,3.5,9.4,0.5,-17.7,-8.899999999999999,16
629,10906.0,0.8,-0.2,0.2,1.4000000000000001,3.6,9.4,0.7,-17.400000000000002,-9.5,16
630,10923.0,1.0,0.0,0.2,1.4000000000000001,3.6,9.200000000000001,2.2,-18.3,-12.100000000000001,16
631,10942.0,0.9,0.0,-0.1,1.2000000000000002,3.6,8.9,2.4000000000000004,-18.6,-15.700000000000001,16
632,10955.0,0.6000000000000001,0.0,-0.30000000000000004,1.0,3.6,8.8,-0.7,-18.6,-18.5,16
633,10972.0,0.30000000000000004,-0.1,-0.4,0.7000000000000001,3.6,8.700000000000001,-5.500000000000001,-13.8,-18.0,16
634,10993.0,0.1,0.0,-0.4,0.6000000000000001,3.7,8.9,-10.9,-6.500000000000001,-14.700000000000001,16
635,11006.0,0.1,0.1,-0.2,0.7000000000000001,3.7,9.200000000000001,-18.4,0.8,-7.8,16
636,11022.0,0.2,0.2,-0.1,0.7000000000000001,3.8000000000000003,9.200000000000001,-18.4,0.8,-7.8,16
637,11040.0,0.1,0.30000000000000004,0.0,0.6000000000000001,3.7,9.3,-18.5,-0.8,-6.9,16
638,11057.0,0.0,0.30000000000000004,0.2,0.5,3.7,9.5,-15.100000000000001,-5.9,-5.7,16
639,11073.0,0.0,0.30000000000000004,0.2,0.5,3.7,9.5,-15.100000000000001,-5.9,-5.7,16
640,11092.0,-0.1,0.30000000000000004,0.30000000000000004,0.4,3.6,9.5,-12.200000000000001,-5.9,-4.4,16
641,11111.0,0.0,0.30000000000000004,0.1,0.6000000000000001,3.6,9.4,-6.1000000000000005,1.7,-0.1,16
642,11124.0,0.0,0.30000000000000004,0.1,0.6000000000000001,3.6,9.3,-6.1000000000000005,1.7,-0.1,16
643,11142.0,0.0,0.4,-0.2,0.5,3.7,8.9,-4.6,2.5,-0.8,16
644,11157.0,-0.1,0.4,-0.4,0.4,3.6,9.0,-5.2,2.4000000000000004,-1.6,16
645,11172.0,-0.2,0.30000000000000004,-0.30000000000000004,0.4,3.5,9.1,-7.699999999999999,1.1,-2.5,16
646,11189.0,-0.2,0.30000000000000004,-0.2,0.1,3.5,9.0,-9.3,3.7000000000000006,-3.1,16
647,11206.0,-0.4,0.30000000000000004,-0.4,0.30000000000000004,3.5,8.6,-11.8,13.000000000000002,-2.2,16
648,11222.0,0.1,0.30000000000000004,0.0,0.4,3.4000000000000004,8.8,-16.8,22.1,-0.1,16
649,11241.0,0.1,0.30000000000000004,0.0,0.6000000000000001,3.4000000000000004,10.100000000000001,-24.200000000000003,16.8,-0.1,16
650,11255.0,0.30000000000000004,0.30000000000000004,0.8,0.5,3.2,10.4,-24.1,6.300000000000001,-2.0,16
651,11272.0,0.1,0.1,1.0,0.30000000000000004,3.0,10.4,-18.5,0.4,-4.9,16
652,11293.0,-0.4,-0.1,0.9,-0.1,2.8000000000000003,10.3,-9.8,4.4,-1.1,16
653,11305.0,-0.4,-0.1,0.9,-0.1,2.8000000000000003,10.200000000000001,-9.8,4.4,-1.1,16
654,11323.0,-0.30000000000000004,0.0,0.4,0.0,3.0,9.9,-5.500000000000001,10.600000000000001,3.5,16
655,11339.0,-0.30000000000000004,0.0,0.4,0.1,3.0,9.600000000000001,-1.1,13.6,7.500000000000001,16
656,11358.0,-0.1,0.1,0.1,0.2,3.0,9.200000000000001,2.3,10.700000000000001,8.700000000000001,16
657,11372.0,-0.1,0.1,-0.30000000000000004,0.2,3.0,9.1,4.2,6.600000000000001,7.699999999999999,16
658,11392.0,0.0,0.1,-0.4,0.2,2.9000000000000004,9.1,4.0,-1.1,6.1000000000000005,16
659,11407.0,-0.1,-0.1,-0.2,0.4,2.8000000000000003,9.4,2.5,-8.5,5.0,16
660,11424.0,0.1,-0.30000000000000004,0.30000000000000004,0.4,2.7,9.600000000000001,0.2,-9.0,6.9,16
661,11439.0,0.1,-0.30000000000000004,0.30000000000000004,0.5,2.6,9.9,0.2,-9.0,6.9,16
662,11456.0,0.2,-0.4,0.5,0.6000000000000001,2.6,9.9,0.9000000000000001,-6.8,8.8,16
663,11482.0,0.4,-0.2,0.4,0.9,2.9000000000000004,9.700000000000001,4.800000000000001,1.9,13.6,16
664,11489.0,0.4,-0.2,0.4,0.9,2.9000000000000004,9.700000000000001,4.800000000000001,1.9,13.6,16
665,11506.0,0.5,0.0,0.2,0.9,3.0,9.4,7.400000000000001,2.7,13.900000000000002,16
666,11522.0,0.5,0.1,-0.1,0.9,3.2,9.1,10.299999999999999,2.5,13.000000000000002,16
667,11539.0,0.5,0.1,-0.4,0.8,3.3000000000000003,8.6,12.4,2.2,8.8,16
668,11556.0,0.4,0.2,-0.7000000000000001,0.8,3.4000000000000004,8.4,12.4,2.2,8.8,16
669,11573.0,0.30000000000000004,0.30000000000000004,-1.1,0.7000000000000001,3.4000000000000004,8.3,9.3,5.4,6.600000000000001,16
670,11592.0,0.30000000000000004,0.30000000000000004,-0.9,0.7000000000000001,3.4000000000000004,8.5,-1.8000000000000003,5.300000000000001,0.4,16
671,11605.0,0.30000000000000004,0.30000000000000004,-0.9,0.7000000000000001,3.3000000000000003,8.700000000000001,-1.8000000000000003,5.300000000000001,0.4,16
672,11625.0,0.30000000000000004,0.2,-0.5,0.6000000000000001,3.1,9.4,-5.300000000000001,0.6000000000000001,-2.8,16
673,11639.0,0.1,-0.1,0.5,0.5,2.9000000000000004,9.9,-3.2,-4.5,-5.2,16
674,11658.0,0.0,-0.2,0.5,0.30000000000000004,2.9000000000000004,9.9,0.9000000000000001,-1.9,-3.5,16
675,11672.0,0.0,-0.2,0.5,0.30000000000000004,2.9000000000000004,9.700000000000001,0.9000000000000001,-1.9,-3.5,16
676,11701.0,0.1,-0.1,-0.1,0.6000000000000001,3.0,9.200000000000001,3.8,6.9,2.2,16
677,11707.0,0.1,-0.1,-0.1,0.6000000000000001,3.0,9.200000000000001,3.8,6.9,2.2,16
678,11723.0,0.30000000000000004,0.0,-0.30000000000000004,0.7000000000000001,3.1,9.200000000000001,2.7,8.899999999999999,2.5,16
679,11739.0,0.30000000000000004,0.0,-0.2,0.6000000000000001,3.1,9.200000000000001,1.5,5.9,0.8,16
680,11755.0,0.2,0.0,-0.2,0.4,3.1,9.0,1.7,3.2,-1.5,16
681,11781.0,0.1,0.0,-0.2,0.4,3.0,9.4,-2.1,-1.4,-2.2,16
682,11800.0,0.1,-0.1,0.30000000000000004,0.30000000000000004,3.0,9.700000000000001,-2.4000000000000004,-2.5,-3.0,16
683,11806.0,0.1,-0.1,0.30000000000000004,0.30000000000000004,3.0,9.700000000000001,-2.4000000000000004,-2.5,-3.0,16
684,11824.0,0.0,-0.1,0.2,0.4,3.0,9.5,-0.5,0.1,-1.8000000000000003,16
685,11839.0,0.0,-0.1,0.0,0.4,3.1,9.1,-0.1,1.7,-0.9000000000000001,16
686,11855.0,0.0,0.0,-0.30000000000000004,0.4,3.1,9.1,-1.8000000000000003,6.4,-0.6000000000000001,16
687,11874.0,0.0,0.1,-0.2,0.30000000000000004,3.2,9.3,-4.1,10.0,-0.8,16
688,11900.0,-0.1,0.1,0.1,0.2,3.2,9.4,-3.9,4.1,-1.4,16
689,11906.0,-0.1,0.1,0.1,0.2,3.2,9.4,-3.9,4.1,-1.4,16
690,11922.0,0.0,0.1,0.1,0.2,3.1,9.600000000000001,-1.7,0.4,-1.2000000000000002,16
691,11939.0,0.0,0.1,0.1,0.2,3.1,9.4,0.0,-1.3,-1.3,16
692,11955.0,0.0,0.0,-0.30000000000000004,0.30000000000000004,3.1,9.1,0.4,-0.2,-0.2,16
693,11980.0,0.1,0.0,-0.4,0.30000000000000004,3.0,9.0,-2.8,1.1,-0.9000000000000001,16
694,11991.0,0.1,0.0,-0.4,0.30000000000000004,3.0,9.0,-2.8,1.1,-0.9000000000000001,16
695,12006.0,0.1,0.0,-0.30000000000000004,0.30000000000000004,2.9000000000000004,9.200000000000001,-6.2,5.500000000000001,-1.4,16
696,12024.0,0.0,-0.2,0.0,0.2,2.8000000000000003,9.4,-9.700000000000001,8.5,-2.4000000000000004,16
697,12039.0,0.0,-0.2,0.0,0.2,2.7,9.4,-9.700000000000001,8.5,-2.4000000000000004,16
698,12055.0,0.0,-0.30000000000000004,0.0,0.1,2.6,9.4,-8.8,8.3,-2.7,16
699,12073.0,-0.1,-0.30000000000000004,0.0,0.1,2.6,9.4,-6.500000000000001,7.200000000000001,-1.4,16
700,12093.0,0.0,-0.30000000000000004,-0.2,0.1,2.6,9.1,-5.0,7.300000000000001,-0.6000000000000001,16
701,12105.0,0.0,-0.30000000000000004,-0.2,0.0,2.6,8.9,-5.0,7.300000000000001,-0.6000000000000001,16
702,12124.0,0.0,-0.2,-0.5,0.0,2.7,8.9,-8.3,7.699999999999999,0.30000000000000004,16
703,12139.0,0.0,-0.2,-0.5,0.1,2.7,9.1,-8.3,7.699999999999999,0.30000000000000004,16
704,12156.0,0.1,-0.1,-0.2,0.2,2.7,9.4,-10.200000000000001,6.8,0.8,16
705,12174.0,0.2,0.0,0.0,0.30000000000000004,2.8000000000000003,9.4,-8.0,4.5,-1.3,16
706,12198.0,0.2,0.0,-0.1,0.2,2.7,9.3,-8.600000000000001,2.9,-2.8,16
707,12205.0,0.2,0.0,-0.1,0.1,2.7,9.4,-8.600000000000001,2.9,-2.8,16
708,12223.0,0.0,0.0,0.0,0.0,2.7,9.4,-12.0,3.7000000000000006,-2.4000000000000004,16
709,12239.0,0.0,0.0,0.0,-0.1,2.7,9.5,-12.0,3.7000000000000006,-2.4000000000000004,16
710,12255.0,0.0,0.1,0.2,0.1,2.7,9.8,-13.399999999999999,6.0,-0.6000000000000001,16
711,12274.0,0.1,0.1,0.4,0.1,2.7,10.100000000000001,-13.200000000000003,6.300000000000001,0.7,16
712,12289.0,0.1,0.1,0.6000000000000001,0.1,2.7,10.200000000000001,-11.5,4.5,0.6000000000000001,16
713,12307.0,0.1,0.1,0.7000000000000001,0.1,2.7,10.200000000000001,-7.699999999999999,1.5,0.9000000000000001,16
714,12323.0,0.1,0.2,0.6000000000000001,0.1,2.7,10.0,-3.7000000000000006,-1.7,1.1,16
715,12346.0,0.1,0.2,0.1,0.1,2.7,9.600000000000001,1.3,0.8,0.9000000000000001,16
716,12356.0,0.1,0.2,0.1,0.0,2.7,9.4,1.3,0.8,0.9000000000000001,16
717,12372.0,0.0,0.2,-0.2,0.0,2.7,9.4,-0.2,2.4000000000000004,0.4,16
718,12392.0,0.0,0.1,-0.1,0.0,2.6,9.4,-4.4,6.0,-0.5,16
719,12406.0,0.0,0.1,-0.1,-0.1,2.6,9.5,-4.4,6.0,-0.5,16
720,12422.0,0.0,0.1,0.0,-0.1,2.5,9.700000000000001,-5.0,5.7,-1.4,16
721,12439.0,-0.1,-0.1,-0.1,-0.2,2.5,9.5,-3.1,7.8,-2.0,16
722,12456.0,-0.1,-0.1,-0.1,-0.30000000000000004,2.4000000000000004,9.5,-3.1,7.8,-2.0,16
723,12474.0,-0.1,-0.1,0.0,-0.30000000000000004,2.4000000000000004,9.600000000000001,-3.9,6.9,-2.1,16
724,12495.0,-0.2,-0.1,0.0,-0.4,2.4000000000000004,9.600000000000001,-3.9,7.200000000000001,0.1,16
725,12507.0,-0.2,-0.1,0.0,-0.4,2.4000000000000004,9.600000000000001,-3.9,7.200000000000001,0.1,16
726,12522.0,-0.1,-0.1,0.0,-0.4,2.4000000000000004,9.600000000000001,-3.8,6.2,1.3,16
727,12542.0,-0.1,-0.1,0.0,-0.30000000000000004,2.4000000000000004,9.5,-3.6000000000000005,5.500000000000001,2.3,16
728,12555.0,-0.1,0.0,0.0,-0.30000000000000004,2.4000000000000004,9.700000000000001,-3.6000000000000005,3.2,3.2,16
729,12575.0,0.0,-0.1,0.1,-0.30000000000000004,2.3000000000000003,9.700000000000001,-2.6,1.5,3.8,16
730,12593.0,0.0,-0.1,0.1,-0.2,2.4000000000000004,9.600000000000001,-0.8,0.9000000000000001,4.6,16
731,12605.0,0.0,-0.1,0.1,-0.2,2.4000000000000004,9.5,0.7,-0.6000000000000001,5.2,16
732,12622.0,0.1,0.0,-0.2,-0.1,2.4000000000000004,9.3,1.4,0.0,5.4,16
733,12639.0,0.1,0.0,-0.30000000000000004,0.0,2.5,9.4,0.0,1.3,5.6,16
734,12659.0,0.30000000000000004,0.1,0.1,0.1,2.5,9.700000000000001,-2.6,-0.2,4.800000000000001,16
735,12673.0,0.30000000000000004,0.1,0.1,0.2,2.6,9.8,-2.6,-0.2,4.800000000000001,16
736,12708.0,0.5,0.2,0.30000000000000004,0.30000000000000004,2.6,9.8,1.1,-3.3000000000000007,1.5,16
737,12722.0,0.4,0.2,0.1,0.2,2.7,9.600000000000001,2.4000000000000004,-1.6,0.2,16
738,12740.0,0.30000000000000004,0.2,0.0,0.1,2.7,9.5,2.0,-0.1,-0.4,16
739,12758.0,0.2,0.2,0.0,0.1,2.6,9.5,-1.3,-0.4,-0.6000000000000001,16
740,12773.0,0.2,0.2,0.0,0.1,2.6,9.600000000000001,-1.3,-0.4,-0.6000000000000001,16
741,12793.0,0.30000000000000004,0.2,0.1,0.30000000000000004,2.6,9.700000000000001,-1.2000000000000002,-2.8,-0.5,16
742,12807.0,0.4,0.1,0.1,0.30000000000000004,2.5,9.700000000000001,0.8,-6.699999999999999,-1.5,16
743,12822.0,0.4,0.1,0.1,0.30000000000000004,2.5,9.600000000000001,3.2,-10.8,-3.4,16
744,12839.0,0.2,-0.1,-0.1,0.1,2.2,9.4,4.800000000000001,-13.900000000000002,-5.4,16
745,12857.0,0.0,-0.30000000000000004,-0.2,0.0,2.1,9.200000000000001,5.1000000000000005,-13.399999999999999,-5.9,16
746,12872.0,-0.1,-0.4,-0.30000000000000004,0.0,2.1,9.3,4.1,-10.5,-4.800000000000001,16
747,12896.0,-0.1,-0.4,-0.30000000000000004,0.0,2.0,9.3,2.9,-6.300000000000001,-2.7,16
748,12906.0,-0.1,-0.5,-0.30000000000000004,-0.1,2.0,9.3,2.4000000000000004,-3.3000000000000007,-0.8,16
749,12922.0,-0.2,-0.4,-0.2,-0.2,2.1,9.5,1.8000000000000003,-5.2,0.30000000000000004,16
750,12941.0,-0.4,-0.30000000000000004,0.2,-0.5,2.2,10.0,1.7,-12.600000000000001,1.0,16
751,12955.0,-0.7000000000000001,-0.2,0.5,-0.6000000000000001,2.4000000000000004,10.0,4.300000000000001,-19.5,2.5,16
752,12972.0,-0.8,-0.1,0.5,-0.6000000000000001,2.5,10.100000000000001,7.200000000000001,-23.099999999999998,4.9,16
753,12992.0,-0.8,0.0,0.7000000000000001,-0.30000000000000004,2.6,10.5,9.5,-24.900000000000002,7.300000000000001,16
754,13005.0,-0.5,0.1,0.9,-0.1,2.7,10.5,12.9,-25.1,8.5,16
755,13025.0,-0.4,0.2,0.5,0.0,2.9000000000000004,10.0,22.000000000000004,-15.399999999999999,8.2,16
756,13039.0,-0.4,0.2,0.5,0.0,2.9000000000000004,9.700000000000001,22.000000000000004,-15.399999999999999,8.2,16
757,13057.0,-0.4,0.2,-0.1,0.1,3.0,9.200000000000001,21.200000000000003,-6.8,8.3,16
758,13072.0,-0.2,0.2,-0.4,0.4,3.1,9.0,16.700000000000003,3.7000000000000006,8.600000000000001,16
759,13095.0,0.1,0.2,-0.6000000000000001,0.5,3.1,8.9,3.3000000000000007,17.1,6.8,16
760,13107.0,0.1,0.2,-0.6000000000000001,0.4,3.0,8.9,3.3000000000000007,17.1,6.8,16
761,13123.0,0.1,0.2,-0.6000000000000001,0.30000000000000004,3.0,8.9,-2.6,18.6,5.0,16
762,13140.0,0.0,0.1,-0.5,0.30000000000000004,2.9000000000000004,8.9,-10.700000000000001,14.400000000000002,3.1,16
763,13155.0,0.0,0.1,-0.5,0.1,2.9000000000000004,9.200000000000001,-10.700000000000001,14.400000000000002,3.1,16
764,13176.0,-0.1,0.2,-0.30000000000000004,0.0,2.9000000000000004,9.5,-12.4,11.900000000000002,4.4,16
765,13193.0,0.0,0.30000000000000004,-0.1,0.1,3.0,9.5,-9.3,9.4,8.600000000000001,16
766,13205.0,0.0,0.30000000000000004,-0.1,0.2,3.0,9.5,-9.3,9.4,8.600000000000001,16
767,13223.0,0.1,0.4,-0.1,0.2,3.1,9.4,-6.0,8.100000000000001,9.100000000000001,16
768,13239.0,0.1,0.4,-0.30000000000000004,0.2,3.1,9.200000000000001,0.4,6.8,7.0,16
769,13259.0,0.1,0.4,-0.30000000000000004,0.1,3.1,9.1,0.4,6.8,7.0,16
770,13274.0,0.0,0.4,-0.5,0.0,3.0,8.700000000000001,1.6,8.600000000000001,5.6,16
771,13298.0,0.1,0.2,-0.8,0.1,2.9000000000000004,8.700000000000001,-2.6,15.2,3.8,16
772,13307.0,0.1,0.2,-0.8,0.2,2.8000000000000003,8.9,-2.6,15.2,3.8,16
773,13323.0,0.2,0.1,-0.6000000000000001,0.1,2.7,9.0,-5.4,14.600000000000001,1.1,16
774,13339.0,0.2,0.0,-0.5,0.0,2.5,9.200000000000001,-6.699999999999999,13.8,-1.5,16
775,13356.0,0.1,-0.1,-0.4,-0.1,2.5,9.3,-8.600000000000001,12.200000000000001,-3.2,16
776,13373.0,0.0,-0.2,-0.2,-0.2,2.4000000000000004,9.4,-9.600000000000001,11.3,-4.2,16
777,13391.0,-0.1,-0.2,-0.1,-0.30000000000000004,2.3000000000000003,9.5,-10.1,11.6,-3.6000000000000005,16
778,13405.0,-0.1,-0.2,-0.1,-0.4,2.3000000000000003,9.5,-11.2,11.6,-2.8,16
779,13422.0,-0.2,-0.2,0.0,-0.5,2.3000000000000003,9.700000000000001,-12.200000000000001,11.900000000000002,-1.1,16
780,13439.0,-0.2,-0.2,0.2,-0.5,2.3000000000000003,9.9,-12.5,10.299999999999999,0.8,16
781,13456.0,-0.2,-0.1,0.30000000000000004,-0.5,2.3000000000000003,9.8,-10.5,8.3,2.7,16
782,13472.0,-0.2,-0.1,0.2,-0.6000000000000001,2.3000000000000003,9.8,-8.100000000000001,4.7,4.6,16
783,13498.0,-0.2,-0.1,0.2,-0.5,2.3000000000000003,9.700000000000001,-2.5,-1.6,8.100000000000001,16
784,13508.0,-0.2,-0.1,0.2,-0.5,2.3000000000000003,9.700000000000001,-2.5,-1.6,8.100000000000001,16
785,13523.0,-0.2,0.0,-0.1,-0.4,2.4000000000000004,9.3,-0.7,-2.2,9.2,16
786,13541.0,-0.1,0.0,-0.4,-0.2,2.4000000000000004,9.0,-0.8,-1.4,9.600000000000001,16
787,13556.0,0.1,0.1,-0.5,-0.2,2.4000000000000004,9.0,-5.6,-0.5,7.400000000000001,16
788,13573.0,0.1,0.1,-0.5,-0.2,2.4000000000000004,9.200000000000001,-5.6,-0.5,7.400000000000001,16
789,13598.0,-0.1,0.0,-0.1,-0.4,2.3000000000000003,9.5,-8.100000000000001,1.6,5.0,16
790,13605.0,-0.1,0.0,-0.1,-0.4,2.3000000000000003,9.5,-8.4,2.4000000000000004,5.300000000000001,16
791,13622.0,-0.1,0.0,-0.1,-0.2,2.3000000000000003,9.5,-8.4,2.4000000000000004,5.300000000000001,16
792,13639.0,0.1,0.0,0.0,-0.1,2.2,9.600000000000001,-9.2,3.3000000000000007,5.7,16
793,13656.0,0.2,0.0,0.1,-0.1,2.2,9.9,-10.1,2.9,5.1000000000000005,16
794,13672.0,0.2,0.0,0.4,-0.1,2.1,10.0,-10.0,2.1,3.9,16
795,13692.0,0.1,0.0,0.4,-0.1,2.2,10.100000000000001,-8.5,3.3000000000000007,3.1,16
796,13705.0,0.2,0.0,0.5,0.0,2.2,10.100000000000001,-6.600000000000001,5.1000000000000005,3.4,16
797,13722.0,0.30000000000000004,0.0,0.4,0.1,2.2,10.0,-4.7,7.9,3.2,16
798,13739.0,0.4,0.1,0.30000000000000004,0.1,2.2,9.9,-3.7000000000000006,10.5,2.0,16
799,13755.0,0.5,0.0,0.2,0.0,2.2,9.8,-3.0,12.200000000000001,0.4,16
800,13772.0,0.4,0.0,0.2,-0.1,2.2,9.700000000000001,-1.7,13.700000000000001,-1.4,16
801,13791.0,0.30000000000000004,0.0,-0.1,-0.2,2.1,9.4,-1.0,14.300000000000002,-2.4000000000000004,16
802,13805.0,0.2,0.0,-0.30000000000000004,-0.30000000000000004,2.2,9.200000000000001,-1.5,14.800000000000002,-2.6,16
803,13822.0,0.2,0.0,-0.4,-0.30000000000000004,2.2,9.3,-4.6,12.7,-2.4000000000000004,16
804,13841.0,0.1,0.0,-0.30000000000000004,-0.4,2.2,9.4,-4.6,12.7,-2.4000000000000004,16
805,13855.0,0.1,0.0,-0.2,-0.4,2.1,9.4,-5.1000000000000005,9.600000000000001,-2.1,16
806,13873.0,0.2,0.1,-0.1,-0.4,2.2,9.5,-4.800000000000001,4.6,-1.7,16
807,13889.0,0.2,0.1,-0.1,-0.30000000000000004,2.2,9.600000000000001,-4.800000000000001,4.6,-1.7,16
808,13909.0,0.2,0.1,0.0,-0.4,2.1,9.600000000000001,-4.7,4.300000000000001,-2.5,16
809,13922.0,0.1,0.1,-0.1,-0.6000000000000001,2.1,9.4,-4.1,6.500000000000001,-3.1,16
810,13941.0,0.0,0.0,-0.30000000000000004,-0.6000000000000001,2.1,9.3,-5.8,8.8,-3.1,16
811,13956.0,0.0,0.0,-0.30000000000000004,-0.6000000000000001,2.1,9.3,-5.8,8.8,-3.1,16
812,13982.0,0.0,0.0,-0.1,-0.7000000000000001,1.9000000000000001,9.600000000000001,-8.600000000000001,7.1000000000000005,-4.2,16
813,13997.0,0.0,-0.1,-0.1,-0.7000000000000001,1.9000000000000001,9.5,-8.4,7.200000000000001,-4.300000000000001,16
814,14008.0,0.0,-0.1,-0.1,-0.8,1.9000000000000001,9.5,-8.4,7.200000000000001,-4.300000000000001,16
815,14022.0,-0.1,0.0,-0.1,-0.8,1.8,9.600000000000001,-8.600000000000001,6.500000000000001,-3.9,16
816,14039.0,-0.1,-0.1,0.1,-0.9,1.8,9.700000000000001,-8.700000000000001,4.300000000000001,-2.3,16
817,14055.0,-0.1,-0.1,0.1,-0.9,1.8,9.8,-8.700000000000001,4.300000000000001,-2.3,16
818,14072.0,-0.1,-0.1,0.2,-0.9,1.8,9.8,-7.300000000000001,2.9,-1.4,16
819,14093.0,-0.1,-0.1,0.1,-0.8,1.8,9.8,-2.4000000000000004,-0.1,0.30000000000000004,16
820,14105.0,-0.1,-0.1,0.1,-0.9,1.8,9.700000000000001,-2.4000000000000004,-0.1,0.30000000000000004,16
821,14123.0,-0.1,0.0,0.0,-0.9,1.8,9.5,-0.8,-1.4,0.4,16
822,14139.0,-0.1,0.1,-0.2,-0.9,1.9000000000000001,9.4,-2.3,-2.2,1.1,16
823,14155.0,-0.1,0.1,-0.2,-0.9,1.9000000000000001,9.4,-2.3,-2.2,1.1,16
824,14172.0,-0.2,0.1,-0.1,-1.0,1.9000000000000001,9.600000000000001,-4.1,-1.7,1.0,16
825,14191.0,-0.2,0.1,0.0,-1.0,1.9000000000000001,9.700000000000001,-5.1000000000000005,-1.3,1.7,16
826,14205.0,-0.2,0.1,0.1,-1.0,1.8,9.700000000000001,-5.4,-1.5,2.4000000000000004,16
827,14222.0,-0.2,0.0,0.2,-0.9,1.8,9.9,-4.800000000000001,-1.6,3.3000000000000007,16
828,14239.0,-0.1,0.0,0.2,-0.8,1.8,9.700000000000001,-2.8,-2.0,4.5,16
829,14255.0,-0.1,0.0,0.0,-0.8,1.8,9.600000000000001,-0.9000000000000001,-2.8,5.2,16
830,14273.0,-0.1,0.0,-0.1,-0.8,1.8,9.4,-0.7,-3.7000000000000006,5.300000000000001,16
831,14301.0,0.0,0.0,-0.2,-0.7000000000000001,1.7000000000000002,9.5,-3.4,-3.0,4.7,16
832,14306.0,0.0,0.0,-0.2,-0.7000000000000001,1.7000000000000002,9.5,-4.800000000000001,-1.8000000000000003,4.2,16
833,14326.0,0.0,0.0,0.1,-0.7000000000000001,1.7000000000000002,9.8,-4.9,-1.1,3.6000000000000005,16
834,14339.0,0.0,0.0,0.1,-0.8,1.7000000000000002,9.8,-4.9,-1.1,3.6000000000000005,16
835,14355.0,-0.1,-0.1,0.2,-0.8,1.7000000000000002,9.8,-3.8,-0.7,3.5,16
836,14372.0,-0.1,-0.1,0.1,-0.8,1.7000000000000002,9.700000000000001,-2.3,-0.1,4.4,16
837,14389.0,0.0,0.0,-0.1,-0.7000000000000001,1.7000000000000002,9.4,-1.5,0.1,5.500000000000001,16
838,14414.0,0.1,0.1,-0.30000000000000004,-0.6000000000000001,1.8,9.5,-4.1,-0.4,5.4,16
839,14423.0,0.1,0.1,-0.30000000000000004,-0.6000000000000001,1.8,9.5,-4.1,-0.4,5.4,16
840,14440.0,0.1,0.1,-0.1,-0.6000000000000001,1.7000000000000002,9.600000000000001,-5.8,0.1,4.5,16
841,14455.0,0.0,0.1,0.0,-0.7000000000000001,1.7000000000000002,9.600000000000001,-5.9,1.5,3.7000000000000006,16
842,14473.0,0.0,0.0,-0.1,-0.6000000000000001,1.7000000000000002,9.600000000000001,-6.1000000000000005,1.3,3.6000000000000005,16
843,14489.0,0.1,0.0,0.0,-0.6000000000000001,1.7000000000000002,9.600000000000001,-6.1000000000000005,1.8000000000000003,3.4,16
844,14508.0,0.1,0.0,-0.1,-0.7000000000000001,1.6,9.4,-5.6,1.9,2.4000000000000004,16
845,14523.0,0.0,0.0,-0.2,-0.8,1.6,9.4,-5.7,2.1,1.5,16
846,14539.0,-0.1,0.0,-0.30000000000000004,-0.9,1.5,9.3,-6.4,4.1,1.4,16
847,14558.0,-0.2,-0.1,-0.4,-1.0,1.5,9.200000000000001,-7.9,5.0,1.2000000000000002,16
848,14572.0,-0.2,-0.1,-0.4,-0.9,1.4000000000000001,9.200000000000001,-9.3,6.0,2.0,16
849,14590.0,-0.1,-0.1,-0.4,-0.9,1.4000000000000001,9.1,-10.299999999999999,6.699999999999999,3.0,16
850,14606.0,-0.1,-0.1,-0.5,-1.0,1.4000000000000001,9.200000000000001,-11.3,6.300000000000001,2.8,16
851,14622.0,-0.2,0.0,-0.4,-1.1,1.4000000000000001,9.200000000000001,-14.300000000000002,7.6,2.6,16
852,14639.0,-0.30000000000000004,0.0,-0.4,-1.1,1.4000000000000001,9.200000000000001,-14.300000000000002,7.6,2.6,16
853,14655.0,-0.30000000000000004,0.1,-0.4,-1.3,1.4000000000000001,9.1,-16.3,10.299999999999999,3.0,16
854,14673.0,-0.4,0.1,-0.1,-1.4000000000000001,1.4000000000000001,9.4,-23.0,15.299999999999999,3.9,16
855,14694.0,-0.4,0.2,0.30000000000000004,-1.4000000000000001,1.3,10.0,-23.900000000000006,15.2,4.5,16
856,14706.0,-0.4,0.2,0.30000000000000004,-1.3,1.3,10.3,-23.900000000000006,15.2,4.5,16
857,14722.0,-0.30000000000000004,0.1,0.7000000000000001,-1.2000000000000002,1.2000000000000002,10.600000000000001,-21.300000000000004,12.5,5.300000000000001,16
858,14741.0,-0.1,0.1,0.8,-1.2000000000000002,1.2000000000000002,10.5,-8.5,-0.5,5.0,16
859,14755.0,-0.1,0.1,0.8,-1.2000000000000002,1.1,10.4,-8.5,-0.5,5.0,16
860,14772.0,-0.1,0.0,0.7000000000000001,-1.1,1.1,10.4,-4.4,-6.600000000000001,4.6,16
861,14792.0,0.0,0.0,0.6000000000000001,-1.0,1.0,10.3,-1.3,-10.8,5.0,16
862,14805.0,0.0,0.0,0.6000000000000001,-0.9,1.0,10.4,-1.3,-10.8,5.0,16
863,14822.0,0.0,-0.1,0.6000000000000001,-1.0,0.9,10.5,-1.9,-11.2,4.800000000000001,16
864,14839.0,0.0,-0.2,0.8,-0.9,0.8,10.600000000000001,-2.5,-11.000000000000002,5.4,16
865,14860.0,0.1,-0.1,0.8,-0.8,1.0,10.5,2.8,-7.6,8.8,16
866,14872.0,0.1,-0.1,0.8,-0.8,1.0,10.3,2.8,-7.6,8.8,16
867,14891.0,0.0,0.2,0.1,-0.8,1.3,9.8,9.0,-10.299999999999999,11.4,16
868,14906.0,0.0,0.2,0.1,-0.6000000000000001,1.4000000000000001,9.8,9.0,-10.299999999999999,11.4,16
869,14922.0,0.2,0.30000000000000004,0.0,-0.4,1.5,9.9,9.700000000000001,-14.800000000000002,12.299999999999999,16
870,14939.0,0.4,0.30000000000000004,-0.1,-0.2,1.5,9.700000000000001,15.000000000000002,-26.200000000000003,10.299999999999999,16
871,14955.0,0.4,0.30000000000000004,-0.1,-0.1,1.6,9.600000000000001,15.000000000000002,-26.200000000000003,10.299999999999999,16
872,14973.0,0.5,0.30000000000000004,-0.30000000000000004,0.0,1.6,9.200000000000001,17.200000000000003,-31.099999999999998,8.600000000000001,16
873,14989.0,0.4,0.2,-0.6000000000000001,0.0,1.7000000000000002,9.1,17.1,-35.0,6.2,16
874,15007.0,0.5,0.30000000000000004,-0.9,0.30000000000000004,1.7000000000000002,8.8,13.3,-28.600000000000005,3.7000000000000006,16
875,15023.0,0.5,0.30000000000000004,-0.9,0.4,1.8,8.5,13.3,-28.600000000000005,3.7000000000000006,16
876,15039.0,0.6000000000000001,0.30000000000000004,-1.3,0.5,1.7000000000000002,8.200000000000001,7.9,-24.900000000000002,-0.6000000000000001,16
877,15055.0,0.6000000000000001,0.2,-1.5,0.4,1.6,8.3,-2.0,-22.6,-7.200000000000001,16
878,15072.0,0.30000000000000004,0.1,-1.3,-0.1,1.4000000000000001,8.8,-13.399999999999999,-19.5,-13.200000000000003,16
879,15092.0,-0.2,0.0,-0.8,-0.7000000000000001,1.1,9.600000000000001,-22.6,-15.000000000000002,-16.4,16
880,15105.0,-0.6000000000000001,-0.2,-0.1,-0.7000000000000001,1.0,9.9,-27.400000000000002,-8.8,-14.800000000000002,16
881,15122.0,-0.7000000000000001,-0.1,0.2,-0.7000000000000001,1.1,10.100000000000001,-26.400000000000006,-3.1,-10.4,16
882,15141.0,-0.7000000000000001,0.0,0.30000000000000004,-0.7000000000000001,1.2000000000000002,10.0,-23.3,-2.5,-7.500000000000001,16
883,15155.0,-0.7000000000000001,0.30000000000000004,0.4,-0.6000000000000001,1.3,10.200000000000001,-18.1,-12.600000000000001,-3.4,16
884,15174.0,-0.7000000000000001,0.30000000000000004,0.4,-0.6000000000000001,1.3,10.4,-18.1,-12.600000000000001,-3.4,16
885,15190.0,-0.6000000000000001,0.30000000000000004,0.7000000000000001,-0.4,1.2000000000000002,10.600000000000001,-14.800000000000002,-18.0,-2.0,16
886,15206.0,-0.5,0.30000000000000004,0.8,-0.30000000000000004,1.2000000000000002,10.5,-10.4,-19.9,-1.1,16
887,15222.0,-0.4,0.2,0.6000000000000001,-0.1,1.1,10.200000000000001,-6.8,-18.900000000000002,-0.7,16
888,15239.0,-0.30000000000000004,0.2,0.30000000000000004,0.0,1.1,10.100000000000001,-6.300000000000001,-16.1,-0.9000000000000001,16
889,15256.0,-0.2,0.30000000000000004,0.30000000000000004,0.2,1.1,10.3,-8.4,-13.900000000000002,-1.3,16
890,15278.0,-0.1,0.2,0.9,0.30000000000000004,1.0,10.8,-9.8,-11.5,-0.5,16
891,15291.0,-0.1,0.2,0.9,0.4,1.0,11.0,-9.8,-11.5,-0.5,16
892,15306.0,0.1,0.2,1.2000000000000002,0.6000000000000001,0.9,10.9,-5.1000000000000005,-10.5,1.1,16
893,15323.0,0.2,0.1,1.0,0.6000000000000001,1.0,10.5,3.2,-7.200000000000001,2.9,16
894,15339.0,0.2,0.2,0.30000000000000004,0.5,1.1,9.5,9.700000000000001,-2.4000000000000004,4.0,16
895,15355.0,0.1,0.2,-0.5,0.4,1.1,8.9,11.1,1.8000000000000003,5.500000000000001,16
896,15373.0,0.0,0.2,-0.9,0.4,1.0,8.9,3.0,4.800000000000001,9.600000000000001,16
897,15389.0,0.0,0.0,-0.8,0.30000000000000004,0.8,9.200000000000001,3.0,4.800000000000001,9.600000000000001,16
898,15407.0,0.0,-0.1,-0.5,0.4,0.7000000000000001,9.5,0.4,3.9,12.200000000000001,16
899,15422.0,0.1,-0.2,-0.30000000000000004,0.6000000000000001,0.7000000000000001,9.600000000000001,0.5,-0.1,14.100000000000001,16
900,15439.0,0.4,-0.2,-0.1,0.9,0.7000000000000001,10.0,1.7,-7.300000000000001,13.8,16
901,15459.0,0.4,-0.2,0.2,0.5,0.7000000000000001,9.8,4.0,-13.100000000000001,10.200000000000001,16
902,15472.0,-0.30000000000000004,-0.30000000000000004,-0.2,0.2,0.7000000000000001,9.600000000000001,4.800000000000001,-3.0,8.8,16
903,15491.0,-0.30000000000000004,-0.30000000000000004,-0.2,0.1,0.7000000000000001,9.600000000000001,4.800000000000001,-3.0,8.8,16
904,15506.0,-0.4,-0.2,0.0,0.30000000000000004,0.8,10.100000000000001,3.1,3.7000000000000006,13.200000000000003,16
905,15522.0,-0.1,-0.2,0.4,0.5,0.8,10.3,5.300000000000001,5.4,17.7,16
906,15539.0,0.1,-0.1,0.5,0.6000000000000001,0.9,10.100000000000001,11.3,3.1,19.0,16
907,15555.0,0.2,0.0,0.30000000000000004,0.8,1.0,10.200000000000001,16.3,-0.5,18.8,16
908,15572.0,0.4,-0.1,0.4,1.0,1.0,10.3,19.6,-2.9,18.700000000000003,16
909,15591.0,0.7000000000000001,-0.2,0.4,1.2000000000000002,1.1,10.200000000000001,29.800000000000004,-2.8,17.400000000000002,16
910,15614.0,0.7000000000000001,-0.2,0.2,1.1,1.1,9.8,34.60000000000001,-0.4,15.000000000000002,16
911,15622.0,0.7000000000000001,-0.2,0.2,1.1,1.2000000000000002,9.5,34.60000000000001,-0.4,15.000000000000002,16
912,15644.0,0.6000000000000001,-0.2,-0.7000000000000001,1.1,1.4000000000000001,9.0,37.0,11.6,11.900000000000002,16
913,15655.0,0.6000000000000001,-0.2,-0.7000000000000001,1.2000000000000002,1.5,8.8,37.0,11.6,11.900000000000002,16
914,15673.0,0.8,0.0,-1.0,1.2000000000000002,1.8,8.5,32.5,15.2,9.0,16
915,15691.0,0.5,0.2,-1.3,0.8,1.9000000000000001,8.4,12.0,11.2,-5.1000000000000005,16
916,15707.0,0.5,0.2,-1.3,0.5,1.9000000000000001,8.700000000000001,12.0,11.2,-5.1000000000000005,16
917,15722.0,0.0,0.2,-0.8,0.2,1.8,9.8,-1.9,9.4,-9.0,16
918,15740.0,-0.4,0.1,1.4000000000000001,-0.2,1.7000000000000002,11.200000000000001,-16.700000000000003,8.700000000000001,-7.9,16
919,15756.0,-0.4,0.1,1.4000000000000001,-0.2,1.6,11.8,-16.700000000000003,8.700000000000001,-7.9,16
920,15774.0,-0.5,-0.1,2.4000000000000004,-0.2,1.5,12.5,-10.0,7.400000000000001,-2.9,16
921,15789.0,-0.4,-0.2,1.8,-0.2,1.4000000000000001,12.200000000000001,22.1,8.4,9.4,16
922,15807.0,-0.1,0.0,0.5,0.1,1.8,10.0,32.300000000000004,9.899999999999999,14.100000000000001,16
923,15822.0,-0.1,0.0,0.5,0.30000000000000004,2.0,9.4,32.300000000000004,9.899999999999999,14.100000000000001,16
924,15840.0,0.1,0.1,-0.5,0.5,2.2,8.5,34.900000000000006,10.0,15.8,16
925,15855.0,0.4,0.2,-1.2000000000000002,0.7000000000000001,2.2,8.200000000000001,31.5,8.700000000000001,14.400000000000002,16
926,15875.0,0.6000000000000001,0.2,-1.5,0.9,2.1,7.9,23.6,7.0,10.600000000000001,16
927,15890.0,0.7000000000000001,0.0,-1.9000000000000001,0.6000000000000001,2.0,7.6000000000000005,13.399999999999999,9.3,5.0,16
928,15908.0,0.1,-0.30000000000000004,-0.8,0.2,1.7000000000000002,9.0,-14.100000000000001,14.0,-2.4000000000000004,16
929,15922.0,0.1,-0.30000000000000004,-0.8,0.0,1.5,9.600000000000001,-14.100000000000001,14.0,-2.4000000000000004,16
930,15939.0,-0.1,-0.6000000000000001,0.1,-0.2,1.3,10.100000000000001,-16.900000000000002,13.6,-1.2000000000000002,16
931,15955.0,-0.2,-0.6000000000000001,0.4,-0.2,1.3,10.100000000000001,-12.600000000000001,14.100000000000001,2.5,16
932,15982.0,-0.2,-0.5,0.1,-0.30000000000000004,1.4000000000000001,9.8,-2.4000000000000004,11.000000000000002,7.8,16
933,15989.0,-0.2,-0.5,0.1,-0.4,1.5,9.9,-2.4000000000000004,11.000000000000002,7.8,16
934,16007.0,-0.6000000000000001,-0.4,0.0,-0.7000000000000001,1.6,9.600000000000001,5.2,3.1,13.8,16
935,16022.0,-0.6000000000000001,-0.4,0.0,-0.7000000000000001,1.6,9.4,5.2,3.1,13.8,16
936,16040.0,-0.6000000000000001,-0.30000000000000004,-0.4,-0.7000000000000001,1.7000000000000002,9.1,6.2,2.2,18.900000000000002,16
937,16055.0,-0.30000000000000004,-0.2,0.0,-0.30000000000000004,1.8,9.700000000000001,3.2,-8.0,27.099999999999998,16
938,16076.0,0.0,-0.1,0.5,0.1,1.9000000000000001,10.200000000000001,7.1000000000000005,-17.400000000000002,27.9,16
939,16091.0,0.0,-0.1,0.5,0.2,1.9000000000000001,10.200000000000001,7.1000000000000005,-17.400000000000002,27.9,16
940,16106.0,0.2,-0.1,0.5,0.5,2.0,9.700000000000001,14.5,-25.5,27.0,16
941,16126.0,0.2,-0.1,-0.2,0.6000000000000001,2.1,9.3,20.2,-29.800000000000004,25.300000000000004,16
942,16139.0,0.2,-0.1,-0.2,0.6000000000000001,2.1,9.200000000000001,20.2,-29.800000000000004,25.300000000000004,16
943,16155.0,0.2,0.0,-0.4,0.8,2.3000000000000003,9.4,16.5,-24.0,25.5,16
944,16173.0,0.6000000000000001,0.1,-0.1,1.1,2.4000000000000004,9.5,8.5,-6.8,24.900000000000002,16
945,16190.0,0.6000000000000001,0.1,-0.1,1.1,2.5,9.600000000000001,8.5,-6.8,24.900000000000002,16
946,16205.0,0.6000000000000001,0.2,0.0,1.2000000000000002,2.6,9.9,7.0,0.6000000000000001,22.5,16
947,16222.0,0.7000000000000001,0.4,0.2,1.1,2.7,9.700000000000001,10.299999999999999,12.4,16.700000000000003,16
948,16239.0,0.7000000000000001,0.4,0.2,1.1,2.7,9.5,10.299999999999999,12.4,16.700000000000003,16
949,16256.0,0.6000000000000001,0.4,-0.2,1.1,2.7,9.1,11.1,18.200000000000003,14.200000000000001,16
950,16275.0,0.8,0.30000000000000004,-0.6000000000000001,1.1,2.7,9.0,6.4,20.5,8.100000000000001,16
951,16291.0,0.8,0.30000000000000004,-0.6000000000000001,1.1,2.6,9.0,6.4,20.5,8.100000000000001,16
952,16305.0,0.7000000000000001,0.2,-0.5,0.9,2.4000000000000004,9.1,4.0,19.6,4.4,16
953,16322.0,0.4,-0.1,-0.6000000000000001,0.6000000000000001,2.3000000000000003,9.0,0.1,17.7,-1.0,16
954,16340.0,0.1,-0.30000000000000004,-0.4,0.30000000000000004,2.1,9.1,-2.3,17.7,-0.6000000000000001,16
955,16359.0,0.1,-0.30000000000000004,-0.4,0.1,2.0,9.1,-2.3,17.7,-0.6000000000000001,16
956,16372.0,-0.1,-0.30000000000000004,-0.4,-0.1,2.0,9.200000000000001,-3.5,18.900000000000002,1.8000000000000003,16
957,16392.0,-0.1,-0.30000000000000004,-0.4,-0.1,2.1,9.1,-4.4,21.0,5.500000000000001,16
958,16405.0,-0.1,-0.2,-0.4,0.0,2.2,9.1,-5.300000000000001,22.000000000000004,8.5,16
959,16422.0,0.0,-0.1,-0.5,-0.2,2.3000000000000003,9.0,-6.4,22.2,10.200000000000001,16
960,16439.0,-0.1,0.0,-0.6000000000000001,-0.5,2.3000000000000003,9.0,-8.5,21.500000000000004,11.1,16
961,16455.0,-0.30000000000000004,0.0,-0.5,-0.5,2.3000000000000003,9.1,-11.2,20.5,13.000000000000002,16
962,16472.0,-0.2,0.1,-0.4,-0.30000000000000004,2.4000000000000004,9.5,-14.100000000000001,17.300000000000004,15.6,16
963,16492.0,-0.1,0.1,0.4,-0.30000000000000004,2.2,10.0,-13.5,5.4,16.700000000000003,16
964,16506.0,-0.1,0.1,0.4,-0.30000000000000004,2.2,10.200000000000001,-13.5,5.4,16.700000000000003,16
965,16522.0,0.0,0.1,0.5,-0.1,2.2,9.9,-9.8,2.7,17.7,16
966,16539.0,0.2,0.2,0.1,0.0,2.3000000000000003,9.700000000000001,-7.400000000000001,2.3,16.700000000000003,16
967,16556.0,0.2,0.2,0.1,0.2,2.3000000000000003,9.700000000000001,-7.400000000000001,2.3,16.700000000000003,16
968,16573.0,0.8,0.4,0.30000000000000004,0.0,2.3000000000000003,10.100000000000001,-9.2,6.2,15.2,16
969,16590.0,-0.2,-0.1,-0.2,-0.4,1.9000000000000001,9.5,-12.7,16.4,10.4,16
970,16611.0,0.0,0.2,0.2,-0.2,2.1,9.8,-14.900000000000002,18.200000000000003,15.2,16
971,16622.0,0.0,0.2,0.2,-0.1,2.0,9.700000000000001,-14.900000000000002,18.200000000000003,15.2,16
972,16639.0,0.2,0.1,0.0,-0.2,2.2,9.700000000000001,-14.700000000000001,15.399999999999999,15.100000000000001,16
973,16658.0,0.0,0.2,0.2,-0.5,2.0,9.9,-12.8,8.8,13.5,16
974,16673.0,0.0,0.2,0.2,-0.5,2.0,10.100000000000001,-12.8,8.8,13.5,16
975,16689.0,-0.2,0.2,0.4,-0.7000000000000001,2.0,10.0,-10.600000000000001,15.5,15.6,16
976,16709.0,0.0,0.30000000000000004,-0.1,-0.5,2.1,9.4,-4.4,13.3,18.200000000000003,16
977,16722.0,0.0,0.30000000000000004,-0.1,-0.4,2.1,9.200000000000001,-4.4,13.3,18.200000000000003,16
978,16739.0,0.1,0.30000000000000004,-0.5,-0.2,2.1,9.4,-6.300000000000001,10.4,16.3,16
979,16760.0,0.4,0.4,0.30000000000000004,-0.2,2.1,10.0,-9.899999999999999,1.5,9.2,16
980,16772.0,0.4,0.4,0.30000000000000004,-0.4,1.9000000000000001,10.3,-9.899999999999999,1.5,9.2,16
981,16792.0,0.1,0.1,0.6000000000000001,-0.5,1.8,10.3,-6.300000000000001,-0.6000000000000001,6.4,16
982,16805.0,0.0,0.1,0.30000000000000004,-0.6000000000000001,1.8,10.0,-2.2,3.5,5.7,16
983,16822.0,0.0,0.1,0.30000000000000004,-0.6000000000000001,1.8,9.9,-2.2,3.5,5.7,16
984,16839.0,-0.1,0.1,0.1,-0.7000000000000001,1.8,9.600000000000001,-3.2,1.4,5.0,16
985,16855.0,-0.2,0.1,0.0,-0.7000000000000001,1.8,9.700000000000001,-7.0,-17.300000000000004,5.9,16
986,16874.0,-0.1,0.1,0.2,-0.5,1.7000000000000002,10.0,-6.300000000000001,-18.900000000000002,7.8,16
987,16889.0,-0.1,0.1,0.2,-0.5,1.7000000000000002,10.0,-6.300000000000001,-18.900000000000002,7.8,16
988,16909.0,-0.2,0.1,0.30000000000000004,-0.8,1.7000000000000002,9.9,-5.7,-15.899999999999999,11.6,16
989,16923.0,-0.4,0.0,0.2,-1.0,1.7000000000000002,9.5,-6.500000000000001,-13.700000000000001,17.200000000000003,16
990,16939.0,-0.6000000000000001,0.0,-0.5,-0.4,1.6,9.200000000000001,-11.8,-10.600000000000001,28.400000000000002,16
991,16959.0,0.1,0.0,-0.4,0.4,1.6,9.9,-19.6,1.1,38.2,16
992,16972.0,0.7000000000000001,0.1,0.2,0.5,1.6,10.200000000000001,-20.7,15.5,38.1,16
993,16990.0,0.8,0.2,0.6000000000000001,0.4,1.6,10.5,-14.800000000000002,17.9,32.6,16
994,17009.0,0.7000000000000001,0.2,0.8,0.4,1.6,10.5,-4.0,7.8,26.300000000000004,16
995,17022.0,0.5,0.1,0.30000000000000004,0.4,1.6,10.100000000000001,20.2,-21.6,15.000000000000002,16
996,17039.0,0.5,0.1,0.30000000000000004,0.30000000000000004,1.6,9.8,20.2,-21.6,15.000000000000002,16
997,17057.0,0.2,0.0,-0.2,0.0,1.7000000000000002,9.1,25.7,-32.8,11.8,16
998,17072.0,0.0,0.0,-0.7000000000000001,0.1,1.7000000000000002,8.9,25.5,-37.50000000000001,11.900000000000002,16
999,17089.0,0.0,0.0,-0.8,0.4,1.8,9.0,20.3,-36.300000000000004,14.5,16
1000,17105.0,0.2,0.0,-0.6000000000000001,0.7000000000000001,1.8,9.5,13.5,-31.799999999999997,16.3,16
1001,17122.0,0.5,0.0,0.2,0.9,1.9000000000000001,9.9,8.4,-22.3,14.400000000000002,16
1002,17139.0,0.5,0.0,0.2,0.9,1.8,9.8,8.4,-22.3,14.400000000000002,16
1003,17156.0,0.5,0.0,0.1,1.0,1.9000000000000001,9.8,11.2,-16.5,12.200000000000001,16
1004,17172.0,0.4,0.0,0.0,0.9,2.0,9.3,13.8,-12.200000000000001,10.700000000000001,16
1005,17195.0,0.30000000000000004,0.1,-0.5,0.9,2.1,9.200000000000001,13.200000000000003,-6.1000000000000005,8.3,16
1006,17205.0,0.30000000000000004,0.1,-0.5,0.8,2.1,9.1,13.200000000000003,-6.1000000000000005,8.3,16
1007,17222.0,0.2,0.1,-0.6000000000000001,0.8,2.2,8.8,11.000000000000002,-1.9,7.400000000000001,16
1008,17239.0,0.30000000000000004,0.2,-0.9,0.9,2.3000000000000003,8.700000000000001,8.899999999999999,1.2000000000000002,7.0,16
1009,17255.0,0.4,0.2,-0.8,1.0,2.2,9.1,3.6000000000000005,-1.9,4.1,16
1010,17277.0,0.30000000000000004,0.2,-0.4,0.7000000000000001,2.1,9.4,0.1,-3.9,-1.0,16
1011,17291.0,0.1,0.1,-0.2,0.7000000000000001,2.1,9.600000000000001,-0.6000000000000001,-4.9,-3.8,16
1012,17306.0,0.0,0.0,0.1,0.5,2.0,9.700000000000001,0.30000000000000004,-5.300000000000001,-5.0,16
1013,17323.0,-0.2,0.0,-0.1,0.4,2.1,9.200000000000001,2.9,-0.6000000000000001,-5.1000000000000005,16
1014,17339.0,-0.30000000000000004,0.1,-0.4,0.30000000000000004,2.1,9.200000000000001,-2.4000000000000004,2.4000000000000004,-4.5,16
1015,17356.0,-0.30000000000000004,0.1,-0.4,0.30000000000000004,2.1,9.5,-2.4000000000000004,2.4000000000000004,-4.5,16
1016,17373.0,-0.2,0.0,0.0,0.4,2.0,9.8,-5.500000000000001,2.8,-4.2,16
1017,17389.0,-0.2,-0.1,0.5,0.4,2.0,10.200000000000001,-3.8,1.1,-4.300000000000001,16
1018,17405.0,-0.2,-0.1,0.5,0.2,1.8,10.5,-3.8,1.1,-4.300000000000001,16
1019,17422.0,-0.5,-0.2,0.8,-0.1,1.8,10.100000000000001,1.1,1.7,-4.0,16
1020,17439.0,-0.6000000000000001,-0.2,0.4,0.0,2.0,9.8,6.0,3.3000000000000007,-0.30000000000000004,16
1021,17459.0,-0.4,0.0,-0.1,0.2,2.1,9.5,6.0,6.500000000000001,6.8,16
1022,17472.0,-0.4,0.0,-0.1,0.30000000000000004,2.1,9.5,6.0,6.500000000000001,6.8,16
1023,17490.0,-0.1,0.0,-0.2,0.5,2.2,9.4,5.300000000000001,6.600000000000001,7.9,16
1024,17505.0,0.0,0.1,-0.2,0.5,2.2,9.3,5.0,6.2,7.200000000000001,16
1025,17522.0,0.0,0.1,-0.4,0.6000000000000001,2.2,9.200000000000001,4.7,4.4,5.9,16
1026,17540.0,0.1,0.1,-0.4,0.7000000000000001,2.1,9.5,3.7000000000000006,2.0,4.1,16
1027,17555.0,0.2,0.0,-0.1,0.6000000000000001,2.1,9.600000000000001,3.1,0.0,2.1,16
1028,17576.0,0.0,0.0,-0.6000000000000001,0.5,2.1,9.1,3.8,2.9,0.6000000000000001,16
1029,17593.0,0.0,0.0,-0.6000000000000001,0.5,2.2,8.700000000000001,3.8,2.9,0.6000000000000001,16
1030,17605.0,0.0,0.0,-0.8,0.5,2.2,8.8,0.0,5.7,0.9000000000000001,16
1031,17632.0,0.1,0.2,-0.4,0.6000000000000001,2.3000000000000003,9.3,-8.600000000000001,7.400000000000001,-0.2,16
1032,17639.0,0.1,0.2,-0.4,0.6000000000000001,2.2,9.600000000000001,-8.600000000000001,7.400000000000001,-0.2,16
1033,17655.0,0.2,0.1,0.1,0.5,2.2,9.8,-9.8,4.2,-1.7,16
1034,17674.0,0.0,0.0,0.4,0.30000000000000004,2.1,9.8,-7.6,2.4000000000000004,-3.0,16
1035,17689.0,-0.2,0.0,0.2,0.2,2.2,9.5,-4.800000000000001,4.300000000000001,-1.9,16
1036,17714.0,-0.1,0.2,-0.2,0.30000000000000004,2.3000000000000003,9.4,-4.9,8.100000000000001,0.8,16
1037,17723.0,-0.1,0.2,-0.2,0.4,2.3000000000000003,9.5,-7.8,9.8,2.7,16
1038,17739.0,0.2,0.30000000000000004,0.1,0.5,2.3000000000000003,10.0,-9.899999999999999,8.2,1.9,16
1039,17755.0,0.1,0.2,0.4,0.30000000000000004,2.2,9.9,-8.8,6.1000000000000005,0.1,16
1040,17773.0,0.0,0.2,0.30000000000000004,0.30000000000000004,2.2,9.8,-6.1000000000000005,5.0,-1.2000000000000002,16
1041,17790.0,0.0,0.2,0.30000000000000004,0.4,2.2,10.3,-5.0,3.9,-1.6,16
1042,17805.0,0.1,0.1,0.7000000000000001,0.2,2.0,10.3,-3.0,2.0,-2.3,16
1043,17825.0,-0.1,0.1,0.1,0.2,2.1,9.700000000000001,3.2,4.7,-1.1,16
1044,17839.0,-0.1,0.1,0.1,0.30000000000000004,2.1,9.600000000000001,3.2,4.7,-1.1,16
1045,17857.0,0.0,0.1,-0.1,0.30000000000000004,2.2,9.5,0.9000000000000001,5.7,-0.4,16
1046,17872.0,0.1,0.2,-0.2,0.30000000000000004,2.2,9.4,-1.3,6.699999999999999,0.0,16
1047,17889.0,0.1,0.2,-0.2,0.30000000000000004,2.2,9.5,-2.6,6.0,-0.30000000000000004,16
1048,17907.0,0.1,0.1,-0.1,0.1,2.0,9.5,-3.1,4.0,-1.1,16
1049,17923.0,-0.1,0.0,-0.30000000000000004,0.1,2.0,9.4,-2.3,1.2000000000000002,0.5,16
1050,17942.0,0.0,0.0,0.2,0.2,1.9000000000000001,10.0,-2.8,-3.2,0.9000000000000001,16
1051,17955.0,0.0,0.0,0.2,0.1,1.9000000000000001,10.0,-2.8,-3.2,0.9000000000000001,16
1052,17972.0,-0.1,-0.1,0.2,0.1,1.9000000000000001,9.8,0.1,-3.6000000000000005,1.5,16
1053,17994.0,0.0,0.1,-0.30000000000000004,0.2,2.1,9.3,-1.2000000000000002,-1.2000000000000002,3.6000000000000005,16
1054,18006.0,0.0,0.1,-0.30000000000000004,0.2,2.1,9.4,-1.2000000000000002,-1.2000000000000002,3.6000000000000005,16
1055,18024.0,0.0,0.1,-0.30000000000000004,0.30000000000000004,2.1,9.4,-4.300000000000001,0.6000000000000001,3.3000000000000007,16
1056,18039.0,0.0,0.1,-0.2,0.2,2.0,9.600000000000001,-7.300000000000001,1.2000000000000002,2.1,16
1057,18059.0,-0.1,0.0,0.1,0.0,1.9000000000000001,9.9,-8.700000000000001,1.8000000000000003,1.0,16
1058,18072.0,-0.30000000000000004,-0.1,0.2,-0.2,1.8,10.0,-7.9,1.4,1.4,16
1059,18088.0,-0.4,-0.1,0.30000000000000004,-0.2,1.8,10.0,-6.0,0.6000000000000001,3.1,16
1060,18108.0,-0.4,-0.1,0.2,-0.2,1.9000000000000001,9.700000000000001,-3.7000000000000006,0.4,5.4,16
1061,18123.0,-0.4,0.0,0.0,-0.1,1.9000000000000001,9.9,-3.1,-0.7,7.1000000000000005,16
1062,18140.0,-0.30000000000000004,0.0,0.4,-0.1,1.9000000000000001,10.100000000000001,0.0,-5.9,8.600000000000001,16
1063,18156.0,-0.30000000000000004,0.0,0.4,-0.1,1.9000000000000001,10.100000000000001,0.0,-5.9,8.600000000000001,16
1064,18172.0,-0.30000000000000004,0.0,0.4,0.0,1.9000000000000001,10.100000000000001,3.2,-6.4,9.4,16
1065,18189.0,-0.2,0.0,0.4,0.1,1.9000000000000001,9.8,5.6,-6.9,10.299999999999999,16
1066,18205.0,-0.2,0.0,0.1,0.1,2.0,9.600000000000001,7.200000000000001,-5.300000000000001,10.600000000000001,16
1067,18226.0,-0.2,0.0,-0.2,0.1,2.0,9.200000000000001,6.500000000000001,-0.6000000000000001,11.1,16
1068,18238.0,-0.1,0.0,-0.4,0.1,2.0,9.200000000000001,-0.9000000000000001,9.100000000000001,12.7,16
1069,18256.0,-0.1,0.0,-0.4,0.2,2.0,9.3,-0.9000000000000001,9.100000000000001,12.7,16
1070,18274.0,0.0,0.0,-0.2,0.2,1.9000000000000001,9.8,-3.0,9.899999999999999,12.9,16
1071,18291.0,0.0,0.0,0.2,0.1,1.8,10.0,-2.4000000000000004,6.1000000000000005,13.000000000000002,16
1072,18305.0,-0.1,-0.1,0.30000000000000004,0.1,1.9000000000000001,9.700000000000001,1.9,1.9,13.399999999999999,16
1073,18322.0,-0.1,0.0,-0.2,0.2,1.9000000000000001,9.3,5.6,-0.2,15.2,16
1074,18339.0,0.0,0.0,-0.4,0.30000000000000004,2.0,9.3,5.1000000000000005,-0.9000000000000001,16.4,16
1075,18355.0,0.1,0.0,-0.30000000000000004,0.4,2.0,9.4,2.6,-0.7,17.1,16
1076,18375.0,0.2,0.1,-0.30000000000000004,0.4,2.0,9.5,0.7,-0.9000000000000001,16.8,16
1077,18389.0,0.2,0.0,-0.1,0.4,2.0,9.700000000000001,-0.2,-2.1,16.0,16
1078,18406.0,0.1,0.0,0.1,0.4,2.0,9.8,0.2,-3.3000000000000007,15.700000000000001,16
1079,18423.0,0.1,0.0,0.2,0.4,1.9000000000000001,9.9,1.4,-4.800000000000001,16.5,16
1080,18439.0,0.1,0.0,0.30000000000000004,0.5,2.0,9.9,2.7,-7.0,17.5,16
1081,18455.0,0.30000000000000004,0.0,0.2,0.7000000000000001,2.0,9.9,5.0,-9.899999999999999,19.5,16
1082,18473.0,0.30000000000000004,0.0,0.2,0.8,2.0,9.9,5.0,-9.899999999999999,19.5,16
1083,18492.0,0.30000000000000004,0.0,0.2,0.9,2.1,9.9,5.4,-9.8,19.300000000000004,16
1084,18505.0,0.4,0.1,0.5,0.9,2.1,10.200000000000001,6.300000000000001,-7.1000000000000005,18.0,16
1085,18522.0,0.4,0.1,0.5,0.9,2.2,10.200000000000001,6.300000000000001,-7.1000000000000005,18.0,16
1086,18538.0,0.30000000000000004,0.1,0.5,0.8,2.2,10.0,9.2,-5.6,17.9,16
1087,18555.0,0.2,0.1,0.30000000000000004,1.0,2.4000000000000004,9.600000000000001,11.900000000000002,-3.8,18.900000000000002,16
1088,18572.0,0.4,0.2,0.0,1.1,2.4000000000000004,9.4,13.5,-2.2,20.0,16
1089,18602.0,0.6000000000000001,0.30000000000000004,-0.2,1.3,2.5,9.5,8.8,-1.6,17.799999999999997,16
1090,18607.0,0.6000000000000001,0.30000000000000004,-0.2,1.3,2.4000000000000004,9.8,8.8,-1.6,17.799999999999997,16
1091,18622.0,0.5,0.2,0.2,1.3,2.4000000000000004,10.100000000000001,7.200000000000001,-2.7,16.3,16
1092,18639.0,0.5,0.1,0.6000000000000001,1.3,2.3000000000000003,10.200000000000001,10.4,-6.8,14.800000000000002,16
1093,18655.0,0.4,0.0,0.4,1.3,2.4000000000000004,9.8,15.899999999999999,-10.0,14.5,16
1094,18674.0,0.6000000000000001,0.1,-0.1,1.6,2.5,9.5,20.2,-10.0,15.5,16
1095,18689.0,0.6000000000000001,0.1,-0.1,1.7000000000000002,2.5,9.3,20.2,-10.0,15.5,16
1096,18705.0,0.7000000000000001,0.1,-0.30000000000000004,1.8,2.7,9.200000000000001,19.5,-7.400000000000001,14.900000000000002,16
1097,18727.0,0.8,0.2,-0.4,1.9000000000000001,2.8000000000000003,9.1,14.5,-1.9,11.000000000000002,16
1098,18738.0,0.8,0.2,-0.4,1.9000000000000001,2.8000000000000003,9.200000000000001,14.5,-1.9,11.000000000000002,16
1099,18756.0,1.0,0.2,-0.30000000000000004,2.0,2.9000000000000004,9.200000000000001,12.0,0.5,8.0,16
1100,18772.0,1.0,0.30000000000000004,-0.4,1.9000000000000001,3.0,8.9,7.500000000000001,9.5,0.8,16
1101,18788.0,0.9,0.30000000000000004,-0.7000000000000001,1.8,3.0,8.8,7.500000000000001,9.5,0.8,16
1102,18808.0,0.8,0.4,-0.8,1.7000000000000002,3.0,8.6,3.5,13.100000000000001,-2.6,16
1103,18822.0,0.7000000000000001,0.4,-1.0,1.6,3.1,8.3,-0.7,14.400000000000002,-5.500000000000001,16
1104,18839.0,0.7000000000000001,0.4,-1.3,1.5,3.0,8.1,-5.1000000000000005,15.100000000000001,-8.3,16
1105,18856.0,0.6000000000000001,0.5,-1.5,1.4000000000000001,3.1,7.800000000000001,-10.5,14.400000000000002,-10.700000000000001,16
1106,18877.0,0.6000000000000001,0.5,-1.8,1.3,3.1,7.5,-16.700000000000003,15.6,-12.7,16
1107,18893.0,0.5,0.6000000000000001,-1.3,1.1,3.0,8.4,-32.5,18.900000000000002,-16.6,16
1108,18905.0,0.5,0.6000000000000001,-1.3,0.9,2.9000000000000004,8.9,-32.5,18.900000000000002,-16.6,16
1109,18925.0,0.30000000000000004,0.5,-0.6000000000000001,0.5,2.8000000000000003,9.4,-32.300000000000004,14.600000000000001,-18.3,16
1110,18939.0,-0.4,0.6000000000000001,0.0,0.1,2.8000000000000003,9.700000000000001,-17.7,1.5,-14.200000000000001,16
1111,18955.0,-0.4,0.6000000000000001,0.0,0.1,2.8000000000000003,9.700000000000001,-17.7,1.5,-14.200000000000001,16
1112,18972.0,-0.5,0.6000000000000001,0.0,0.1,2.9000000000000004,9.600000000000001,-6.699999999999999,-2.7,-7.9,16
1113,18989.0,-0.4,0.8,-0.4,0.30000000000000004,3.2,9.1,3.7000000000000006,-2.6,-1.5,16
1114,19006.0,-0.2,1.1,-0.5,0.6000000000000001,3.6,9.3,10.1,-3.7000000000000006,2.5,16
1115,19022.0,0.0,1.4000000000000001,-0.2,0.6000000000000001,3.9000000000000004,9.4,15.299999999999999,-8.600000000000001,2.9,16
1116,19040.0,-0.1,1.9000000000000001,-0.30000000000000004,0.6000000000000001,4.3,9.3,19.1,-20.0,-1.0,16
1117,19056.0,-0.1,1.9000000000000001,-0.30000000000000004,0.7000000000000001,4.4,9.4,19.1,-20.0,-1.0,16
1118,19075.0,0.0,2.0,-0.1,1.1,4.5,9.700000000000001,13.399999999999999,-28.200000000000003,-4.300000000000001,16
1119,19088.0,0.30000000000000004,2.0,0.2,1.2000000000000002,4.4,10.100000000000001,5.500000000000001,-33.9,-10.700000000000001,16
1120,19107.0,-0.2,1.5,1.4000000000000001,0.8,3.9000000000000004,11.100000000000001,-14.400000000000002,-37.300000000000004,-26.400000000000006,16
1121,19122.0,-0.2,1.5,1.4000000000000001,0.6000000000000001,3.5,11.700000000000001,-14.400000000000002,-37.300000000000004,-26.400000000000006,16
1122,19138.0,-0.5,1.0,2.3000000000000003,0.4,3.1,12.600000000000001,-18.8,-33.1,-28.400000000000002,16
1123,19155.0,-0.7000000000000001,0.7000000000000001,3.0,0.30000000000000004,2.9000000000000004,12.700000000000001,-14.300000000000002,-25.5,-26.400000000000006,16
1124,19172.0,-0.9,0.5,2.9000000000000004,0.30000000000000004,2.8000000000000003,11.9,-2.5,-15.2,-22.1,16
1125,19189.0,-0.8,0.4,2.0,0.4,3.0,10.5,10.1,-5.6,-16.200000000000003,16
1126,19210.0,-0.6000000000000001,0.6000000000000001,-0.4,0.5,3.2,9.0,24.3,8.899999999999999,-7.300000000000001,16
1127,19224.0,-0.6000000000000001,0.6000000000000001,-0.4,0.4,3.2,8.4,24.3,8.899999999999999,-7.300000000000001,16
1128,19239.0,-0.7000000000000001,0.6000000000000001,-1.4000000000000001,0.5,3.3000000000000003,7.5,24.900000000000002,13.8,-4.2,16
1129,19256.0,-0.5,0.7000000000000001,-2.5,0.5,3.4000000000000004,7.0,18.1,18.200000000000003,0.7,16
1130,19280.0,-0.4,0.7000000000000001,-2.3000000000000003,0.5,3.5,7.300000000000001,12.8,13.8,1.1,16
1131,19303.0,-0.30000000000000004,0.6000000000000001,-1.8,0.6000000000000001,3.4000000000000004,7.9,10.200000000000001,5.0,-0.7,16
1132,19307.0,-0.4,0.5,-1.5,0.5,3.4000000000000004,8.0,10.700000000000001,-0.7,-4.300000000000001,16
1133,19322.0,-0.4,0.5,-1.5,0.30000000000000004,3.4000000000000004,7.800000000000001,10.700000000000001,-0.7,-4.300000000000001,16
1134,19338.0,-0.7000000000000001,0.5,-1.7000000000000002,0.0,3.4000000000000004,7.6000000000000005,8.2,-0.30000000000000004,-7.500000000000001,16
1135,19359.0,-0.9,0.5,-1.8,-0.1,3.3000000000000003,7.9,0.4,2.7,-9.100000000000001,16
1136,19372.0,-0.9,0.5,-1.5,-0.2,3.3000000000000003,8.5,-10.700000000000001,8.0,-10.8,16
1137,19392.0,-1.1,0.4,-0.6000000000000001,-0.5,3.0,9.700000000000001,-20.3,15.000000000000002,-12.200000000000001,16
1138,19405.0,-1.3,0.2,0.4,-0.8,2.8000000000000003,10.3,-24.3,27.099999999999998,-12.0,16
1139,19422.0,-1.4000000000000001,0.1,0.8,-0.7000000000000001,2.8000000000000003,10.4,-24.7,37.6,-7.6,16
1140,19438.0,-1.1,0.2,0.9,-0.9,3.0,10.4,-22.700000000000003,47.2,-4.0,16
1141,19455.0,-1.2000000000000002,0.4,0.7000000000000001,-0.9,2.8000000000000003,9.700000000000001,-19.300000000000004,57.800000000000004,-2.3,16
1142,19472.0,-1.0,0.30000000000000004,0.0,-1.2000000000000002,2.9000000000000004,9.3,-16.1,74.30000000000001,-0.6000000000000001,16
1143,19492.0,-0.5,0.2,-0.30000000000000004,1.2000000000000002,2.4000000000000004,9.600000000000001,-18.3,85.9,1.4,16
1144,19508.0,1.9000000000000001,0.4,0.30000000000000004,-0.1,3.7,10.200000000000001,-21.200000000000003,84.3,-7.6,16
1145,19522.0,-1.2000000000000002,1.2000000000000002,-0.1,-2.0,3.5,9.5,-6.8,35.2,-32.300000000000004,16
1146,19538.0,-1.2000000000000002,1.2000000000000002,-0.1,-1.7000000000000002,3.3000000000000003,9.4,-6.8,35.2,-32.300000000000004,16
1147,19555.0,-0.7000000000000001,0.8,-0.1,-1.3,3.0,9.700000000000001,-3.3000000000000007,21.500000000000004,-24.400000000000002,16
1148,19574.0,-0.5,0.7000000000000001,0.0,-1.3,3.0,9.600000000000001,4.4,-12.8,-15.899999999999999,16
1149,19589.0,-0.5,0.7000000000000001,0.0,-0.9,3.0,9.8,4.4,-12.8,-15.899999999999999,16
1150,19608.0,0.1,0.7000000000000001,0.30000000000000004,0.0,3.1,10.3,5.9,-25.1,-12.7,16
1151,19634.0,0.8,0.6000000000000001,1.0,0.1,3.0,10.4,8.8,-52.80000000000001,-24.400000000000002,16
1152,19639.0,0.8,0.6000000000000001,1.0,0.1,3.0,10.4,8.8,-52.80000000000001,-24.400000000000002,16
1153,19655.0,0.30000000000000004,0.4,0.7000000000000001,-0.30000000000000004,2.6,10.200000000000001,10.8,-45.5,-31.400000000000002,16
1154,19672.0,0.0,0.1,0.5,-0.30000000000000004,2.4000000000000004,9.9,9.3,-28.1,-32.6,16
1155,19688.0,0.0,-0.1,0.30000000000000004,-0.4,2.3000000000000003,10.0,4.6,-13.900000000000002,-31.5,16
1156,19706.0,-0.2,-0.2,0.5,-0.6000000000000001,2.3000000000000003,10.4,-0.9000000000000001,-7.9,-30.5,16
1157,19722.0,-0.30000000000000004,-0.2,0.7000000000000001,-0.6000000000000001,2.1,10.3,-3.2,-4.5,-29.500000000000004,16
1158,19742.0,-0.1,-0.5,0.7000000000000001,-0.4,1.9000000000000001,10.4,-2.0,-3.4,-25.900000000000002,16
1159,19756.0,-0.1,-0.5,0.7000000000000001,-0.30000000000000004,1.9000000000000001,10.4,-2.0,-3.4,-25.900000000000002,16
1160,19772.0,0.0,-0.6000000000000001,0.7000000000000001,-0.30000000000000004,1.8,10.200000000000001,3.4,-8.8,-26.9,16
1161,19794.0,-0.30000000000000004,-0.8,0.1,-0.6000000000000001,1.7000000000000002,9.700000000000001,24.400000000000002,-24.3,-32.6,16
1162,19805.0,-0.30000000000000004,-0.8,0.1,-0.7000000000000001,1.6,9.600000000000001,24.400000000000002,-24.3,-32.6,16
1163,19823.0,-0.4,-1.1,-0.2,-0.6000000000000001,1.5,9.0,33.800000000000004,-34.50000000000001,-33.2,16
1164,19839.0,-0.2,-1.3,-0.6000000000000001,-0.2,1.5,9.0,37.9,-45.0,-30.1,16
1165,19855.0,-0.2,-1.3,-0.6000000000000001,-0.1,1.6,9.1,37.9,-45.0,-30.1,16
1166,19872.0,-0.1,-1.3,-0.30000000000000004,0.1,1.7000000000000002,9.1,35.599999999999994,-43.6,-26.9,16
1167,19906.0,0.4,-1.4000000000000001,-0.7000000000000001,0.8,1.7000000000000002,8.5,29.400000000000002,-21.7,-20.400000000000002,16
1168,19922.0,0.9,-1.6,-1.1,1.2000000000000002,1.4000000000000001,8.200000000000001,18.0,-15.000000000000002,-23.5,16
1169,19940.0,1.2000000000000002,-1.9000000000000001,-0.7000000000000001,-0.30000000000000004,2.9000000000000004,9.600000000000001,5.2,-5.300000000000001,-36.2,16
1170,19955.0,-0.5,-0.30000000000000004,0.1,-0.9,3.0,9.700000000000001,-1.0,-1.8000000000000003,-45.099999999999994,16
1171,19974.0,-1.1,-0.2,0.30000000000000004,-0.6000000000000001,2.6,9.4,-0.8,-8.600000000000001,-34.900000000000006,16
1172,19989.0,-0.7000000000000001,-0.5,-0.2,-0.2,2.4000000000000004,8.9,1.7,-12.4,-21.6,16
1173,20010.0,-0.4,-0.6000000000000001,-0.7000000000000001,-0.30000000000000004,2.6,8.700000000000001,5.6,-3.1,-5.300000000000001,16
1174,20022.0,-0.4,-0.6000000000000001,-0.7000000000000001,-0.30000000000000004,2.8000000000000003,8.5,5.6,-3.1,-5.300000000000001,16
1175,20040.0,-0.5,-0.30000000000000004,-0.9,-0.2,2.8000000000000003,8.5,5.6,-8.600000000000001,1.1,16
1176,20055.0,-0.4,-0.6000000000000001,-0.5,-0.1,2.5,8.9,3.0,-16.5,12.299999999999999,16
1177,20073.0,-0.4,-0.6000000000000001,-0.5,0.0,2.5,8.9,3.0,-16.5,12.299999999999999,16
1178,20092.0,-0.2,-0.8,-0.5,0.6000000000000001,2.1,8.8,4.9,-10.9,21.200000000000003,16
1179,20105.0,1.4000000000000001,-1.6,-0.30000000000000004,1.8,1.6,9.1,11.900000000000002,32.0,31.400000000000002,16
1180,20122.0,1.4000000000000001,-1.6,-0.30000000000000004,1.9000000000000001,1.8,9.0,11.900000000000002,32.0,31.400000000000002,16
1181,20138.0,1.5,-1.1,-0.6000000000000001,0.30000000000000004,3.4000000000000004,8.5,16.200000000000003,54.699999999999996,31.0,16
1182,20163.0,0.4,0.2,-1.3,1.0,3.2,7.9,7.1000000000000005,82.3,37.1,16
1183,20172.0,0.4,0.2,-1.3,1.0,3.2,7.9,7.1000000000000005,82.3,37.1,16
1184,20191.0,1.6,-0.2,-1.2000000000000002,1.2000000000000002,3.3000000000000003,8.700000000000001,-6.0,74.5,34.7,16
1185,20206.0,1.5,0.1,-0.4,0.30000000000000004,3.9000000000000004,9.5,-13.5,65.8,20.5,16
1186,20222.0,0.9,0.7000000000000001,0.2,0.1,4.2,9.9,-10.299999999999999,68.60000000000001,6.699999999999999,16
1187,20240.0,1.0,0.9,0.8,0.2,4.0,10.100000000000001,-3.8,65.8,-1.4,16
1188,20256.0,1.0,0.8,0.6000000000000001,-0.9,4.3,9.0,5.2,63.30000000000001,-10.4,16
1189,20277.0,-0.5,1.2000000000000002,-0.6000000000000001,-2.1,4.6000000000000005,8.6,9.4,67.8,-21.300000000000004,16
1190,20289.0,-0.5,1.2000000000000002,-0.6000000000000001,-2.7,4.7,9.3,9.4,67.8,-21.300000000000004,16
1191,20305.0,-1.2000000000000002,1.4000000000000001,0.5,-2.5,4.7,10.4,7.699999999999999,70.0,-15.8,16
1192,20324.0,0.5,1.4000000000000001,0.0,-1.3,4.800000000000001,9.0,19.9,47.80000000000001,-6.699999999999999,16
1193,20339.0,0.5,1.4000000000000001,0.0,-1.8,5.2,8.1,19.9,47.80000000000001,-6.699999999999999,16
1194,20355.0,0.0,2.0,-1.2000000000000002,0.30000000000000004,4.3,7.4,16.6,30.000000000000004,-11.700000000000001,16
1195,20372.0,-2.2,1.8,1.3,-4.5,5.4,10.5,3.9,-41.199999999999996,-32.1,16
1196,20388.0,-2.2,1.8,1.3,-4.2,5.1000000000000005,9.4,3.9,-41.199999999999996,-32.1,16
1197,20417.0,0.4,0.7000000000000001,0.0,-1.2000000000000002,4.5,9.1,27.0,-31.6,3.7000000000000006,16
1198,20422.0,0.6000000000000001,1.0,0.1,-1.1,4.7,9.1,33.400000000000006,-51.1,-2.1,16
1199,20438.0,0.6000000000000001,1.0,0.1,-0.9,4.9,8.8,33.400000000000006,-51.1,-2.1,16
1200,20455.0,0.6000000000000001,1.2000000000000002,-0.7000000000000001,-1.1,5.1000000000000005,7.5,37.9,-76.7,-10.1,16
1201,20472.0,0.1,1.2000000000000002,-1.7000000000000002,-1.1,4.800000000000001,6.6000000000000005,33.9,-105.9,-21.900000000000002,16
1202,20497.0,-0.7000000000000001,0.6000000000000001,-1.9000000000000001,-1.4000000000000001,4.4,7.300000000000001,-12.0,-126.8,-42.60000000000001,16
1203,20505.0,-0.7000000000000001,0.6000000000000001,-1.9000000000000001,-1.6,4.3,7.800000000000001,-12.0,-126.8,-42.60000000000001,16
1204,20522.0,-0.4,0.1,-1.3,1.5,2.9000000000000004,9.3,-38.50000000000001,-79.39999999999999,-42.900000000000006,16
1205,20543.0,-0.5,1.4000000000000001,2.8000000000000003,-1.2000000000000002,5.0,12.4,-65.6,-36.6,-92.39999999999999,16
1206,20555.0,-0.5,1.4000000000000001,2.8000000000000003,-1.2000000000000002,3.7,12.9,-65.6,-36.6,-92.39999999999999,16
1207,20577.0,-1.4000000000000001,0.2,3.2,-4.1000000000000005,3.9000000000000004,12.100000000000001,-55.8,-104.3,-79.5,16
1208,20590.0,-1.0,-1.8,1.8,-1.6,2.0,11.4,-11.6,-83.10000000000001,-16.0,16
1209,20605.0,-1.0,-1.8,1.8,-1.2000000000000002,1.9000000000000001,11.4,-11.6,-83.10000000000001,-16.0,16
1210,20624.0,-1.3,-1.1,2.0,0.5,1.8,11.4,5.500000000000001,-51.4,-1.5,16
1211,20639.0,-0.2,-0.8,0.2,0.7000000000000001,2.4000000000000004,9.5,17.200000000000003,-95.4,6.699999999999999,16
1212,20660.0,-0.8,-0.6000000000000001,-0.1,0.2,2.7,9.3,19.1,-98.2,11.2,16
1213,20672.0,-0.8,-0.6000000000000001,-0.1,0.7000000000000001,3.1,9.700000000000001,19.1,-98.2,11.2,16
1214,20688.0,1.3,-0.8,-0.1,2.6,2.7,9.1,53.8,-3.3000000000000007,21.500000000000004,16
1215,20711.0,3.2,-2.8000000000000003,-3.9000000000000004,4.3,0.6000000000000001,4.7,62.0,63.10000000000001,-3.0,16
1216,20722.0,3.2,-2.8000000000000003,-3.9000000000000004,2.1,1.5,6.7,62.0,63.10000000000001,-3.0,16
1217,20739.0,0.6000000000000001,-2.0,-2.1,-0.8,2.6,7.300000000000001,40.5,94.0,-29.300000000000004,16
1218,20755.0,-1.5,-1.2000000000000002,-1.8,-1.4000000000000001,2.9000000000000004,7.0,25.8,64.2,-32.9,16
1219,20773.0,-1.8,-0.7000000000000001,-1.6,-0.9,3.6,8.0,20.7,57.400000000000006,-24.8,16
1220,20791.0,-1.1,-0.30000000000000004,-1.0,-1.1,3.2,8.700000000000001,22.6,72.10000000000001,-19.700000000000003,16
1221,20808.0,-1.3,-0.8,-0.2,-2.5,3.5,9.9,25.900000000000002,57.1,-7.400000000000001,16
1222,20822.0,-4.1000000000000005,0.30000000000000004,2.7,-4.4,4.800000000000001,12.0,25.900000000000002,57.1,-7.400000000000001,16
1223,20838.0,-3.6,0.2,2.0,-1.5,3.4000000000000004,8.4,26.000000000000004,-46.4,15.700000000000001,16
1224,20855.0,-1.6,-0.7000000000000001,-0.7000000000000001,-0.8,3.6,7.2,27.2,-83.10000000000001,28.500000000000004,16
1225,20872.0,-0.8,-0.6000000000000001,-1.4000000000000001,-0.2,3.7,9.1,6.699999999999999,-41.4,32.2,16
1226,20894.0,-0.8,-0.4,0.5,-0.9,3.9000000000000004,9.5,-7.500000000000001,10.600000000000001,35.699999999999996,16
1227,20906.0,-1.3,-0.30000000000000004,0.4,-1.4000000000000001,4.0,8.700000000000001,-15.399999999999999,29.600000000000005,52.7,16
1228,20922.0,-1.7000000000000002,-0.1,-0.2,-1.3,4.0,9.3,-15.399999999999999,29.600000000000005,52.7,16
1229,20941.0,-1.3,-0.2,0.5,-0.2,3.6,10.0,-15.5,11.8,60.8,16
1230,20956.0,0.0,-0.2,1.0,0.6000000000000001,3.8000000000000003,10.100000000000001,16.6,-23.900000000000006,61.300000000000004,16
1231,20976.0,0.0,-0.2,1.0,0.7000000000000001,4.1000000000000005,9.3,16.6,-23.900000000000006,61.300000000000004,16
1232,20989.0,0.1,0.0,-0.4,0.9,4.3,7.1000000000000005,34.2,-29.900000000000006,55.60000000000001,16
1233,21005.0,0.0,0.2,-2.0,1.0,4.5,7.1000000000000005,34.900000000000006,-30.4,50.1,16
1234,21022.0,0.0,0.2,-1.8,1.4000000000000001,4.4,8.200000000000001,19.400000000000002,-31.7,46.1,16
1235,21038.0,0.6000000000000001,0.1,0.1,2.6,4.4,10.200000000000001,7.200000000000001,-35.0,41.0,16
1236,21055.0,1.4000000000000001,0.2,1.5,3.0,4.5,10.200000000000001,8.5,-32.7,31.2,16
1237,21073.0,1.8,0.1,0.4,3.3000000000000003,4.4,9.0,15.5,-28.500000000000004,17.400000000000002,16
1238,21088.0,1.8,0.1,0.4,0.6000000000000001,4.800000000000001,9.3,12.100000000000001,-33.9,5.1000000000000005,16
1239,21105.0,-1.1,0.5,0.6000000000000001,3.0,4.4,9.4,-0.9000000000000001,-35.2,2.4000000000000004,16
1240,21123.0,1.2000000000000002,0.30000000000000004,1.6,2.8000000000000003,4.6000000000000005,10.5,-21.7,-11.700000000000001,4.6,16
1241,21139.0,1.2000000000000002,0.30000000000000004,1.6,2.7,4.6000000000000005,10.600000000000001,-21.7,-11.700000000000001,4.6,16
1242,21156.0,1.0,0.2,1.7000000000000002,2.4000000000000004,3.9000000000000004,10.4,-24.200000000000003,-3.9,-1.9,16
1243,21172.0,0.7000000000000001,-0.30000000000000004,1.5,1.6,3.5,10.200000000000001,-19.300000000000004,6.8,-8.0,16
1244,21191.0,0.0,-0.6000000000000001,1.3,1.3,3.3000000000000003,9.8,-12.100000000000001,11.900000000000002,-4.7,16
1245,21205.0,-0.4,-0.9,0.5,1.1,2.9000000000000004,8.6,-12.100000000000001,11.900000000000002,-4.7,16
1246,21222.0,-0.1,-0.9,-1.3,1.4000000000000001,3.1,7.6000000000000005,-5.500000000000001,15.899999999999999,6.4,16
1247,21238.0,-0.1,-0.9,-1.3,1.7000000000000002,3.0,7.300000000000001,-5.500000000000001,15.899999999999999,6.4,16
1248,21255.0,0.30000000000000004,-0.9,-1.5,2.2,3.0,8.0,-9.0,9.700000000000001,7.8,16
1249,21273.0,0.7000000000000001,-0.9,-0.8,2.2,2.9000000000000004,8.3,-8.8,5.4,6.9,16
1250,21288.0,0.6000000000000001,-1.0,-0.7000000000000001,2.1,2.9000000000000004,8.0,-0.4,6.300000000000001,5.1000000000000005,16
1251,21306.0,0.5,-1.1,-0.9,1.9000000000000001,2.9000000000000004,7.6000000000000005,8.0,10.4,5.0,16
1252,21322.0,0.5,-1.1,-1.7000000000000002,2.2,2.8000000000000003,6.6000000000000005,12.299999999999999,14.0,6.4,16
1253,21341.0,1.1,-0.9,-2.9000000000000004,2.7,3.1,6.0,-5.2,-5.7,1.0,16
1254,21355.0,1.1,-0.9,-2.9000000000000004,2.7,3.1,5.7,-5.2,-5.7,1.0,16
1255,21373.0,1.1,-0.8,-3.2,1.9000000000000001,2.7,5.9,-24.400000000000002,-14.900000000000002,-7.9,16
