,ms,accelX,accelY,accelZ,accelWithGX,accelWithGY,accelWithGZ,rotRateAlpha,rotRateBeta,rotRateGamma,interval
0,232.0,-0.1,-0.1,1.0,-0.7000000000000001,0.9,10.700000000000001,-42.3,9.8,-21.500000000000004,16
1,248.0,-0.1,0.0,1.2000000000000002,-0.7000000000000001,0.8,11.0,-39.8,4.0,-26.400000000000006,16
2,265.0,-0.2,0.0,1.3,-0.9,0.8,11.100000000000001,-33.300000000000004,0.2,-32.0,16
3,281.0,-0.5,0.2,1.2000000000000002,-1.1,0.9,11.0,-23.700000000000003,-0.9000000000000001,-36.5,16
4,299.0,-0.7000000000000001,0.4,1.1,-1.4000000000000001,1.0,10.9,-13.8,1.8000000000000003,-37.50000000000001,16
5,316.0,-0.8,0.5,0.8,-1.6,1.1,10.600000000000001,-6.300000000000001,3.3000000000000007,-34.0,16
6,331.0,-0.8,0.5,0.8,-1.6,1.2000000000000002,10.4,-4.0,2.4000000000000004,-31.3,16
7,348.0,-0.9,0.6000000000000001,0.5,-1.6,1.2000000000000002,10.0,-2.9,-1.4,-25.900000000000002,16
8,365.0,-0.8,0.6000000000000001,0.1,-1.5,1.2000000000000002,9.8,-6.600000000000001,-3.2,-22.9,16
9,382.0,-0.7000000000000001,0.7000000000000001,0.0,-1.4000000000000001,1.2000000000000002,9.8,-12.0,-2.1,-20.2,16
10,398.0,-0.7000000000000001,0.7000000000000001,0.1,-1.3,1.2000000000000002,9.9,-15.000000000000002,-1.8000000000000003,-17.400000000000002,16
11,415.0,-0.6000000000000001,0.8,0.2,-1.3,1.2000000000000002,10.0,-15.2,-1.5,-16.700000000000003,16
12,432.0,-0.5,0.8,0.4,-1.3,1.2000000000000002,10.100000000000001,-13.200000000000003,0.2,-15.8,16
13,448.0,-0.6000000000000001,0.8,0.4,-1.4000000000000001,1.1,10.200000000000001,-8.899999999999999,3.6000000000000005,-14.700000000000001,16
14,465.0,-0.8,0.7000000000000001,0.5,-1.5,1.1,10.3,-5.300000000000001,8.2,-14.0,16
15,481.0,-0.9,0.6000000000000001,0.7000000000000001,-1.7000000000000002,0.9,10.4,-4.0,11.4,-11.900000000000002,16
16,498.0,-0.9,0.6000000000000001,0.7000000000000001,-1.7000000000000002,0.9,10.600000000000001,-4.2,11.6,-10.299999999999999,16
17,515.0,-0.9,0.6000000000000001,0.8,-1.7000000000000002,0.9,10.600000000000001,-4.800000000000001,7.9,-6.699999999999999,16
18,531.0,-0.8,0.6000000000000001,0.9,-1.5,1.0,10.700000000000001,-5.7,1.7,-6.300000000000001,16
19,548.0,-0.5,0.8,0.8,-1.2000000000000002,1.1,10.5,-5.7,-3.9,-9.5,16
20,565.0,-0.4,1.0,0.7000000000000001,-1.2000000000000002,1.3,10.3,-4.300000000000001,-5.9,-14.200000000000001,16
21,581.0,-0.4,1.2000000000000002,0.4,-1.3,1.4000000000000001,10.100000000000001,-0.9000000000000001,-5.6,-16.200000000000003,16
22,598.0,-0.5,1.2000000000000002,0.1,-1.3,1.5,9.9,1.4,-5.7,-15.700000000000001,16
23,615.0,-0.5,1.3,-0.1,-1.3,1.5,9.700000000000001,5.2,-4.5,-12.4,16
24,631.0,-0.4,1.2000000000000002,-0.2,-1.2000000000000002,1.5,9.5,6.699999999999999,0.30000000000000004,-6.699999999999999,16
25,648.0,-0.30000000000000004,1.2000000000000002,-0.30000000000000004,-1.1,1.4000000000000001,9.5,5.500000000000001,6.0,-1.9,16
26,665.0,-0.30000000000000004,1.1,-0.30000000000000004,-1.1,1.3,9.5,2.6,9.3,1.5,16
27,681.0,-0.30000000000000004,1.0,0.0,-1.1,1.2000000000000002,9.700000000000001,-1.3,10.5,5.1000000000000005,16
28,698.0,-0.30000000000000004,1.0,0.0,-1.1,1.2000000000000002,9.9,-3.0,9.100000000000001,6.9,16
29,715.0,-0.30000000000000004,0.8,0.2,-1.1,1.0,10.100000000000001,-4.800000000000001,6.1000000000000005,8.700000000000001,16
30,733.0,-0.2,0.8,0.4,-1.0,0.9,10.200000000000001,-4.7,2.5,8.0,16
31,748.0,-0.1,0.7000000000000001,0.5,-1.0,1.0,10.200000000000001,-2.7,1.5,6.2,16
32,765.0,-0.1,0.8,0.4,-1.0,1.1,10.100000000000001,0.4,0.7,3.6000000000000005,16
33,782.0,-0.1,0.9,0.2,-1.0,1.2000000000000002,9.8,3.1,-3.0,2.0,16
34,798.0,-0.30000000000000004,1.1,-0.2,-1.2000000000000002,1.3,9.600000000000001,3.9,-4.800000000000001,2.0,16
35,815.0,-0.30000000000000004,1.1,-0.5,-1.2000000000000002,1.4000000000000001,9.3,3.5,-3.1,4.800000000000001,16
36,831.0,-0.1,1.2000000000000002,-0.5,-1.0,1.5,9.3,0.1,3.8,8.0,16
37,848.0,0.0,1.1,-0.5,-0.9,1.4000000000000001,9.200000000000001,-4.9,8.2,9.8,16
38,865.0,0.4,1.2000000000000002,-0.30000000000000004,-0.6000000000000001,1.5,9.5,-9.5,8.5,8.100000000000001,16
39,882.0,0.4,1.1,-0.1,-0.5,1.3,9.700000000000001,-11.2,3.7000000000000006,4.2,16
40,898.0,0.4,1.1,-0.1,-0.5,1.3,9.8,-10.8,0.2,2.2,16
41,915.0,0.4,1.2000000000000002,0.1,-0.6000000000000001,1.4000000000000001,9.9,-7.8,-6.600000000000001,-0.4,16
42,932.0,0.4,1.3,0.0,-0.5,1.4000000000000001,9.700000000000001,-4.1,-11.3,-0.9000000000000001,16
43,949.0,0.5,1.3,-0.1,-0.30000000000000004,1.5,9.600000000000001,-1.9,-9.8,-0.5,16
44,965.0,0.6000000000000001,1.3,-0.4,-0.30000000000000004,1.4000000000000001,9.4,-1.8000000000000003,-7.1000000000000005,1.2000000000000002,16
45,982.0,0.6000000000000001,1.3,-0.4,-0.2,1.4000000000000001,9.4,-2.3,-5.1000000000000005,1.7,16
46,998.0,0.6000000000000001,1.1,-0.30000000000000004,-0.2,1.3,9.5,-4.6,-1.3,1.6,16
47,1015.0,0.6000000000000001,1.0,0.0,-0.2,1.1,9.8,-6.2,0.4,0.7,16
48,1032.0,0.4,0.9,0.30000000000000004,-0.4,1.0,10.100000000000001,-5.1000000000000005,-1.0,-0.1,16
49,1048.0,0.2,0.8,0.6000000000000001,-0.6000000000000001,0.9,10.4,-2.5,-2.0,-1.8000000000000003,16
50,1065.0,-0.1,0.7000000000000001,0.8,-0.9,0.8,10.600000000000001,0.9000000000000001,1.3,-2.8,16
51,1081.0,-0.1,0.7000000000000001,0.8,-1.1,0.9,10.600000000000001,2.9,2.9,-2.9,16
52,1098.0,-0.4,0.8,0.8,-1.3,0.9,10.5,6.4,1.1,-2.2,16
53,1118.0,-0.6000000000000001,0.8,0.7000000000000001,-1.5,0.9,10.4,7.500000000000001,-4.6,-1.0,16
54,1131.0,-0.8,0.8,0.5,-1.6,1.0,10.100000000000001,5.500000000000001,-9.4,-1.0,16
55,1148.0,-0.9,0.8,0.30000000000000004,-1.7000000000000002,1.0,10.100000000000001,2.6,-7.699999999999999,-1.1,16
56,1165.0,-1.1,1.0,0.30000000000000004,-1.9000000000000001,1.1,10.100000000000001,2.1,-0.2,2.4000000000000004,16
57,1181.0,-1.3,1.1,0.2,-2.1,1.2000000000000002,10.0,2.9,2.4000000000000004,5.500000000000001,16
58,1198.0,-1.2000000000000002,1.1,0.0,-1.9000000000000001,1.3,9.8,5.300000000000001,1.7,10.600000000000001,16
59,1215.0,-0.8,1.1,-0.2,-1.6,1.3,9.5,6.600000000000001,-2.3,11.000000000000002,16
60,1237.0,-0.5,1.0,-0.4,-1.3,1.3,9.3,5.500000000000001,-5.1000000000000005,7.200000000000001,16
61,1248.0,-0.4,1.1,-0.5,-1.1,1.4000000000000001,9.3,3.1,-2.9,3.0,16
62,1265.0,-0.4,1.1,-0.5,-1.2000000000000002,1.4000000000000001,9.200000000000001,2.5,-1.2000000000000002,2.3,16
63,1281.0,-0.5,1.1,-0.6000000000000001,-1.2000000000000002,1.4000000000000001,9.1,3.0,1.1,3.6000000000000005,16
64,1298.0,-0.5,1.2000000000000002,-0.8,-1.2000000000000002,1.4000000000000001,8.8,5.0,1.6,6.8,16
65,1315.0,-0.30000000000000004,1.1,-1.1,-0.9,1.4000000000000001,8.6,5.6,2.2,9.100000000000001,16
66,1332.0,0.0,1.0,-1.3,-0.5,1.2000000000000002,8.4,3.8,-0.2,9.2,16
67,1348.0,0.30000000000000004,0.8,-1.4000000000000001,-0.4,0.9,8.4,1.7,-7.6,6.600000000000001,16
68,1365.0,0.4,0.6000000000000001,-1.3,-0.30000000000000004,0.9,8.5,1.6,-14.400000000000002,4.6,16
69,1381.0,1.0,0.7000000000000001,-1.4000000000000001,0.30000000000000004,1.0,8.4,2.4000000000000004,-31.7,-2.9,16
70,1398.0,1.7000000000000002,0.6000000000000001,-2.1,1.2000000000000002,0.9,7.7,-0.8,-41.4,-17.799999999999997,16
71,1415.0,1.9000000000000001,0.5,-2.7,1.6,0.8,7.1000000000000005,-8.5,-41.800000000000004,-36.5,16
72,1431.0,1.8,0.5,-3.7,1.5,0.8,6.1000000000000005,-19.1,-30.799999999999997,-51.70000000000001,16
73,1448.0,1.8,0.5,-3.7,1.1,0.30000000000000004,6.6000000000000005,-27.9,4.7,-49.0,16
74,1465.0,1.6,0.6000000000000001,-3.8000000000000003,1.7000000000000002,1.5,5.4,-29.200000000000003,19.1,-50.2,16
75,1481.0,2.0,1.5,-4.7,1.5,1.2000000000000002,4.7,-28.900000000000002,27.9,-68.9,16
76,1498.0,1.5,0.8,-5.300000000000001,0.7000000000000001,0.1,4.3,-26.5,10.5,-91.6,16
77,1515.0,0.7000000000000001,-0.1,-4.7,0.1,0.30000000000000004,5.4,-14.100000000000001,-15.5,-116.80000000000001,16
78,1533.0,0.1,0.7000000000000001,-3.7,-1.1,0.2,6.300000000000001,8.700000000000001,-34.900000000000006,-128.9,16
79,1548.0,-1.4000000000000001,0.1,-3.9000000000000004,-1.6,-0.1,5.9,21.7,-43.50000000000001,-121.9,16
80,1565.0,-1.7000000000000002,-0.2,-3.5,-1.8,-0.2,6.4,46.199999999999996,-53.2,-90.5,16
81,1581.0,-1.5,-0.4,-3.3000000000000003,-1.4000000000000001,-0.2,6.5,63.500000000000014,-67.10000000000001,-47.80000000000001,16
82,1598.0,-0.4,0.1,-3.4000000000000004,0.0,0.5,6.4,55.1,-59.9,-20.0,16
83,1614.0,2.5,0.8,-4.5,3.0,1.3,5.300000000000001,29.800000000000004,-47.900000000000006,-28.600000000000005,16
84,1631.0,3.2,0.1,-3.9000000000000004,3.8000000000000003,0.7000000000000001,5.9,2.6,-47.0,-64.50000000000001,16
85,1648.0,3.2,0.1,-3.9000000000000004,3.4000000000000004,0.7000000000000001,6.7,-5.2,-50.1,-83.89999999999999,16
86,1665.0,2.5,0.4,-2.8000000000000003,3.3000000000000003,1.3,6.7,-10.4,-65.6,-116.5,16
87,1683.0,2.5,0.8,-3.8000000000000003,4.1000000000000005,0.7000000000000001,4.800000000000001,-29.200000000000003,-118.00000000000001,-146.4,16
88,1698.0,1.3,-1.3,-4.5,1.8,-0.9,7.300000000000001,-60.2,-182.4,-142.39999999999998,16
89,1715.0,-0.30000000000000004,-1.0,-0.9,1.5,-0.6000000000000001,9.8,-62.1,-175.70000000000002,-118.40000000000002,16
90,1732.0,-0.2,-0.5,0.5,3.1,0.2,9.5,-36.5,-141.9,-98.39999999999999,16
91,1748.0,0.9,0.30000000000000004,-0.4,3.8000000000000003,0.5,9.0,-23.3,-132.4,-95.0,16
92,1765.0,1.3,-0.30000000000000004,-1.9000000000000001,4.5,0.1,7.4,-14.900000000000002,-134.10000000000002,-100.2,16
93,1781.0,2.9000000000000004,0.2,-2.1,6.7,0.6000000000000001,6.9,-24.400000000000002,-195.4,-124.0,16
94,1798.0,2.9000000000000004,-0.1,-1.8,7.5,0.4,6.9,-35.8,-298.3,-157.9,16
95,1815.0,0.9,-0.9,-0.7000000000000001,6.300000000000001,-0.30000000000000004,7.5,-23.3,-343.7,-151.5,16
96,1832.0,0.9,-0.9,-0.7000000000000001,5.7,0.4,5.2,-19.700000000000003,-348.50000000000006,-136.6,16
97,1848.0,-1.2000000000000002,-0.4,-2.0,4.9,0.4,7.4,-35.1,-304.8,-120.00000000000001,16
98,1865.0,-1.2000000000000002,-0.30000000000000004,-0.2,6.2,1.2000000000000002,5.1000000000000005,-61.199999999999996,-191.39999999999998,-111.30000000000001,16
99,1890.0,-0.30000000000000004,-0.8,-1.9000000000000001,6.9,0.2,4.7,-122.60000000000001,-2.3,-94.9,16
100,1898.0,-0.30000000000000004,-0.8,-1.9000000000000001,9.200000000000001,0.5,3.6,-152.1,19.0,-87.89999999999999,16
101,1915.0,4.6000000000000005,0.0,-1.6,13.4,1.3,6.6000000000000005,-217.20000000000002,-77.1,-108.10000000000001,16
102,1932.0,7.300000000000001,0.5,4.1000000000000005,14.700000000000001,1.2000000000000002,10.600000000000001,-229.50000000000003,-171.70000000000002,-131.2,16
103,1948.0,6.2,1.7000000000000002,8.0,14.0,2.4000000000000004,13.9,-180.8,-261.0,-194.20000000000002,16
104,1965.0,0.2,2.8000000000000003,7.6000000000000005,8.3,3.9000000000000004,13.100000000000001,-134.9,-124.10000000000001,-233.0,16
105,1981.0,-3.2,0.30000000000000004,4.2,4.7,1.7000000000000002,9.700000000000001,-148.0,19.9,-222.70000000000002,16
106,1998.0,-3.0,0.4,6.1000000000000005,4.7,2.0,12.0,-142.79999999999998,135.0,-195.4,16
107,2015.0,-2.9000000000000004,-0.1,5.0,4.3,1.7000000000000002,11.3,-127.40000000000002,161.4,-145.60000000000002,16
108,2031.0,-2.9000000000000004,-0.1,5.0,4.2,0.2,10.8,-131.2,108.8,-109.30000000000001,16
109,2050.0,-2.2,-3.2,3.9000000000000004,6.300000000000001,-2.2,11.200000000000001,-136.6,-118.40000000000002,-37.9,16
110,2065.0,0.30000000000000004,-3.3000000000000003,7.1000000000000005,9.3,-0.1,16.5,-95.0,-262.1,1.9,16
111,2082.0,2.6,0.7000000000000001,13.3,11.100000000000001,3.2,20.3,10.8,-150.2,-16.4,16
112,2098.0,1.7000000000000002,0.9,10.9,8.4,0.7000000000000001,11.4,99.8,-1.7,-37.300000000000004,16
113,2116.0,0.5,-2.4000000000000004,2.5,8.9,-1.9000000000000001,5.800000000000001,72.0,-32.5,-20.0,16
114,2131.0,1.7000000000000002,-3.4000000000000004,0.6000000000000001,9.8,-1.6,5.800000000000001,47.400000000000006,-85.60000000000001,-14.800000000000002,16
115,2149.0,4.7,-1.7000000000000002,2.9000000000000004,13.0,0.4,7.7,44.300000000000004,-110.30000000000001,-31.799999999999997,16
116,2165.0,2.1,-1.7000000000000002,1.6,10.5,0.5,6.2,46.800000000000004,-81.50000000000001,-53.300000000000004,16
117,2181.0,-0.8,-1.9000000000000001,0.6000000000000001,7.6000000000000005,0.5,5.1000000000000005,23.2,-24.200000000000003,-52.60000000000001,16
118,2198.0,-0.4,-1.3,2.4000000000000004,8.0,1.3,6.9,-1.8000000000000003,31.400000000000002,-43.00000000000001,16
119,2215.0,-0.4,-1.3,2.4000000000000004,8.9,0.7000000000000001,6.5,-13.200000000000003,13.6,-40.4,16
120,2231.0,1.0,-1.8,2.7,10.0,1.6,8.8,-21.400000000000002,-71.10000000000001,-46.199999999999996,16
121,2248.0,2.1,-0.30000000000000004,5.6000000000000005,9.600000000000001,3.1,10.100000000000001,11.4,-111.50000000000001,-56.800000000000004,16
122,2265.0,-0.2,0.5,6.300000000000001,7.4,4.0,10.100000000000001,57.3,-55.2,-50.400000000000006,16
123,2283.0,-2.1,0.5,4.800000000000001,5.800000000000001,3.2,6.9,77.20000000000002,25.900000000000002,-32.400000000000006,16
124,2298.0,-2.7,-0.1,1.7000000000000002,15.3,3.7,-6.1000000000000005,34.900000000000006,29.1,-9.600000000000001,16
125,2315.0,14.200000000000001,0.1,-6.6000000000000005,22.5,3.5,-2.7,-34.50000000000001,31.6,-49.800000000000004,16
126,2331.0,3.0,-6.9,1.5,11.100000000000001,-3.4000000000000004,5.7,-101.10000000000001,54.9,-125.7,16
127,2349.0,-3.4000000000000004,-1.0,-1.4000000000000001,4.6000000000000005,2.7,3.0,-72.4,42.800000000000004,-95.60000000000002,16
128,2365.0,-3.2,1.0,3.0,4.7,4.7,7.5,-31.0,13.8,-15.899999999999999,16
129,2382.0,2.7,3.0,5.300000000000001,10.600000000000001,6.7,9.8,16.8,-19.700000000000003,36.400000000000006,16
130,2398.0,2.7,3.0,5.300000000000001,9.1,3.5,9.1,34.900000000000006,-31.0,49.9,16
131,2415.0,-1.5,-2.2,4.4,4.7,0.4,8.0,66.60000000000001,-53.2,74.30000000000001,16
132,2432.0,-1.8,-2.7,0.5,8.1,0.6000000000000001,2.2,60.2,-120.10000000000001,72.10000000000001,16
133,2448.0,-0.7000000000000001,-2.4000000000000004,-0.30000000000000004,8.1,1.0,6.1000000000000005,59.40000000000001,-128.9,47.2,16
134,2465.0,-1.5,-1.3,2.6,6.800000000000001,3.2,1.6,86.00000000000001,-34.1,27.5,16
135,2481.0,-1.4000000000000001,0.9,-4.4,11.9,6.800000000000001,0.5,57.60000000000001,-28.500000000000004,49.4,16
136,2498.0,13.8,3.7,1.1,22.6,7.0,4.1000000000000005,59.00000000000001,-4.9,-3.8,16
137,2515.0,-5.300000000000001,-1.3,-1.5,3.3000000000000003,2.2,1.4000000000000001,66.80000000000001,-12.600000000000001,-35.0,16
138,2532.0,3.3000000000000003,1.0,0.8,12.100000000000001,4.6000000000000005,3.6,44.7,-44.8,-17.9,16
139,2549.0,-1.1,-0.4,-2.2,7.7,3.3000000000000003,0.4,27.0,-45.7,-23.700000000000003,16
140,2565.0,0.5,-0.4,-0.4,9.200000000000001,3.4000000000000004,2.1,-19.9,-55.7,-34.0,16
141,2581.0,-0.7000000000000001,-1.4000000000000001,-0.2,8.0,2.4000000000000004,2.2,-64.0,-58.800000000000004,-35.1,16
142,2599.0,-0.7000000000000001,-1.4000000000000001,-0.2,8.8,2.8000000000000003,3.4000000000000004,-79.7,-51.300000000000004,-36.400000000000006,16
143,2620.0,-1.1,-0.1,1.9000000000000001,7.6000000000000005,3.8000000000000003,4.2,-75.00000000000001,-31.2,-24.0,16
144,2631.0,-1.1,-0.1,1.9000000000000001,8.5,3.7,6.1000000000000005,-58.900000000000006,-14.800000000000002,-21.1,16
145,2651.0,-0.30000000000000004,-1.0,2.9000000000000004,8.3,2.9000000000000004,3.5,-19.400000000000002,-12.200000000000001,-16.200000000000003,16
146,2665.0,0.1,-0.30000000000000004,0.6000000000000001,8.8,3.5,2.2,-17.5,-30.4,-17.5,16
147,2683.0,0.9,-0.5,-1.1,9.5,4.3,1.1,-42.5,-46.7,-22.000000000000004,16
148,2698.0,-0.2,-0.1,0.4,8.4,3.9000000000000004,2.7,-58.0,-49.4,-24.0,16
149,2716.0,-1.5,0.7000000000000001,3.6,7.2,4.800000000000001,5.800000000000001,-51.2,-30.5,-32.9,16
150,2731.0,-1.0,-0.5,4.3,7.6000000000000005,3.6,6.5,-15.6,-8.100000000000001,-33.300000000000004,16
151,2748.0,0.9,-0.7000000000000001,2.1,9.5,3.5,4.2,8.3,-24.599999999999998,-33.800000000000004,16
152,2765.0,-1.3,-1.4000000000000001,-0.1,7.2,2.9000000000000004,1.9000000000000001,35.0,-47.7,-22.5,16
153,2781.0,-1.3,-1.4000000000000001,-0.1,8.3,3.7,0.5,29.400000000000002,-69.3,-13.5,16
154,2798.0,0.9,-0.9,-1.2000000000000002,8.200000000000001,3.9000000000000004,0.1,8.5,-86.8,-18.0,16
155,2817.0,-0.6000000000000001,1.6,0.9,8.200000000000001,7.300000000000001,4.0,7.500000000000001,-53.50000000000001,-31.2,16
156,2832.0,0.1,2.8000000000000003,-0.4,8.3,7.9,2.9000000000000004,-0.8,-20.599999999999998,-44.9,16
157,2848.0,0.5,3.9000000000000004,0.4,8.6,8.5,1.6,-12.0,-3.3000000000000007,-53.300000000000004,16
158,2865.0,-1.2000000000000002,1.2000000000000002,3.6,6.800000000000001,3.2,6.6000000000000005,11.900000000000002,22.1,-42.1,16
159,2881.0,-1.7000000000000002,-1.3,5.300000000000001,6.7,3.6,6.7,41.199999999999996,23.6,-32.7,16
160,2898.0,1.7000000000000002,-3.2,4.9,10.100000000000001,1.8,6.2,93.7,-2.5,-19.0,16
161,2917.0,-0.8,-4.1000000000000005,4.800000000000001,7.6000000000000005,0.9,5.800000000000001,121.5,-49.9,2.6,16
162,2932.0,0.5,-4.2,2.7,8.9,0.8,3.5,115.10000000000002,-41.1,7.699999999999999,16
163,2951.0,0.7000000000000001,-1.7000000000000002,-0.1,9.200000000000001,3.3000000000000003,0.4,85.20000000000002,0.4,11.2,16
164,2965.0,1.2000000000000002,-1.0,-0.6000000000000001,9.600000000000001,4.0,-0.1,24.7,9.100000000000001,6.2,16
165,2981.0,1.2000000000000002,-1.0,-0.6000000000000001,9.0,4.2,-1.0,1.0,4.1,6.300000000000001,16
166,2998.0,1.1,-0.4,-1.4000000000000001,8.6,4.800000000000001,0.5,-21.7,-24.8,-3.6000000000000005,16
167,3014.0,0.1,0.4,0.8,9.1,6.0,2.0,-15.6,-13.399999999999999,-16.700000000000003,16
168,3031.0,0.5,1.6,0.5,9.0,6.7,0.1,-15.899999999999999,-5.7,-29.200000000000003,16
169,3048.0,-0.7000000000000001,1.8,0.9,6.300000000000001,7.2,1.4000000000000001,-21.6,4.4,-29.1,16
170,3065.0,-2.2,2.4000000000000004,2.7,6.1000000000000005,7.6000000000000005,3.3000000000000003,-16.0,8.600000000000001,-20.7,16
171,3081.0,-0.8,2.3000000000000003,4.0,7.5,7.5,4.6000000000000005,24.5,-3.5,5.2,16
172,3098.0,0.0,1.4000000000000001,3.1,8.3,6.6000000000000005,3.5,65.0,-31.400000000000002,8.600000000000001,16
173,3115.0,-1.2000000000000002,0.1,1.9000000000000001,7.1000000000000005,5.300000000000001,2.1,90.9,-23.099999999999998,4.1,16
174,3132.0,-3.9000000000000004,-1.6,-2.0,4.4,3.5,-2.1,92.90000000000002,-26.200000000000003,19.700000000000003,16
175,3148.0,0.5,-0.7000000000000001,-2.8000000000000003,8.9,4.4,-3.0,82.3,-7.699999999999999,49.199999999999996,16
176,3166.0,0.5,-1.5,-0.9,8.9,3.5,-1.3,69.3,0.9000000000000001,-4.5,16
177,3181.0,0.5,-1.5,-0.9,7.300000000000001,6.0,-0.30000000000000004,62.6,-17.5,11.2,16
178,3198.0,4.0,5.6000000000000005,3.9000000000000004,10.9,5.800000000000001,1.8,59.9,-35.0,7.8,16
179,3215.0,-0.5,-4.4,0.2,7.7,-0.2,-2.0,51.6,-87.40000000000002,17.799999999999997,16
180,3232.0,-0.1,-3.8000000000000003,-1.3,7.800000000000001,2.2,-0.6000000000000001,27.2,-55.2,-1.1,16
181,3248.0,-0.2,-1.1,0.4,8.5,4.5,-0.6000000000000001,25.8,8.4,0.0,16
182,3265.0,0.30000000000000004,-0.5,0.9,8.700000000000001,4.4,-0.30000000000000004,25.300000000000004,17.1,1.7,16
183,3281.0,0.2,-0.5,0.4,8.6,4.3,-0.8,22.000000000000004,2.6,5.1000000000000005,16
184,3299.0,-0.30000000000000004,0.8,1.8,8.1,5.6000000000000005,0.6000000000000001,21.6,-8.4,0.4,16
185,3314.0,-0.1,1.6,0.8,8.3,6.4,-0.5,30.699999999999996,-14.200000000000001,1.2000000000000002,16
186,3331.0,0.4,1.6,0.6000000000000001,8.9,6.4,-0.8,30.5,-14.800000000000002,0.0,16
187,3348.0,0.4,1.6,0.6000000000000001,8.6,6.5,-0.8,28.600000000000005,-8.100000000000001,-2.8,16
188,3364.0,-0.4,1.7000000000000002,1.3,8.4,6.4,0.30000000000000004,35.599999999999994,-8.0,-0.8,16
189,3381.0,0.0,0.4,2.6,8.8,4.800000000000001,1.3,68.80000000000001,-8.8,14.0,16
190,3398.0,0.4,-0.4,1.6,8.9,3.6,-0.30000000000000004,81.0,-19.1,13.6,16
191,3415.0,0.0,-1.4000000000000001,0.8,8.3,3.4000000000000004,-1.9000000000000001,59.00000000000001,-17.200000000000003,12.200000000000001,16
192,3432.0,-0.1,-0.6000000000000001,-0.7000000000000001,7.9,4.3,-2.4000000000000004,15.5,-19.5,2.8,16
193,3448.0,-0.4,-0.1,0.6000000000000001,8.0,4.4,-1.4000000000000001,3.0,-10.700000000000001,-2.5,16
194,3465.0,-0.7000000000000001,0.5,1.7000000000000002,7.7,5.0,-0.30000000000000004,11.4,-0.30000000000000004,-7.400000000000001,16
195,3481.0,0.1,0.8,-0.30000000000000004,8.6,5.4,-2.4000000000000004,25.5,-9.600000000000001,-6.1000000000000005,16
196,3498.0,0.7000000000000001,0.6000000000000001,-0.30000000000000004,9.1,5.2,-2.4000000000000004,11.8,1.0,-3.8,16
197,3514.0,0.4,0.9,-0.5,8.8,5.4,-2.6,-5.2,-8.2,-9.2,16
198,3531.0,-1.1,-0.1,-0.2,7.2,4.6000000000000005,-2.4000000000000004,-32.7,-28.600000000000005,-17.400000000000002,16
199,3548.0,-1.1,-0.1,-0.2,7.7,4.7,-2.2,-48.400000000000006,-25.200000000000003,-19.5,16
200,3565.0,-0.5,-0.4,0.5,8.6,4.9,-1.3,-59.1,-6.1000000000000005,-15.2,16
201,3581.0,-0.30000000000000004,0.7000000000000001,1.5,8.8,5.9,-0.1,-35.1,3.3000000000000007,2.2,16
202,3598.0,0.4,0.7000000000000001,2.0,8.700000000000001,4.9,-1.2000000000000002,2.0,-10.700000000000001,16.1,16
203,3615.0,0.4,-0.2,-0.6000000000000001,8.200000000000001,3.8000000000000003,-3.3000000000000003,-9.5,-28.400000000000002,17.9,16
204,3632.0,-0.2,-1.3,-1.3,8.3,3.6,-3.0,-46.800000000000004,-13.5,15.100000000000001,16
205,3648.0,-0.30000000000000004,-0.8,0.8,8.1,3.9000000000000004,-1.3,-55.5,0.5,13.700000000000001,16
206,3665.0,0.1,0.6000000000000001,2.8000000000000003,8.5,5.4,0.8,-37.7,8.0,10.1,16
207,3681.0,0.4,1.2000000000000002,1.6,8.8,5.9,-0.30000000000000004,1.2000000000000002,-0.8,8.4,16
208,3698.0,0.0,0.8,0.6000000000000001,8.4,5.5,-1.3,-3.7000000000000006,12.8,6.4,16
209,3715.0,-0.30000000000000004,0.8,2.7,8.1,5.5,0.9,1.5,21.900000000000002,9.700000000000001,16
210,3735.0,0.30000000000000004,0.4,2.7,8.8,5.0,0.8,21.400000000000002,3.7000000000000006,8.100000000000001,16
211,3748.0,0.30000000000000004,0.4,2.7,8.4,4.1000000000000005,1.2000000000000002,27.0,1.5,8.2,16
212,3764.0,0.30000000000000004,-0.8,1.9000000000000001,8.8,4.0,-0.8,17.1,-3.8,-1.1,16
213,3781.0,-0.1,-1.4000000000000001,1.6,9.0,4.3,-0.5,4.800000000000001,16.4,-4.800000000000001,16
214,3798.0,0.4,0.0,1.7000000000000002,8.5,5.2,1.0,20.2,-0.2,0.4,16
215,3814.0,0.6000000000000001,0.5,1.7000000000000002,9.0,5.0,-0.2,33.9,-12.9,3.8,16
216,3832.0,-0.30000000000000004,-0.1,0.7000000000000001,8.200000000000001,4.4,-1.3,34.800000000000004,-22.3,-1.9,16
217,3848.0,-0.2,0.2,2.1,8.200000000000001,4.800000000000001,0.1,25.200000000000003,-0.9000000000000001,-10.0,16
218,3865.0,0.1,0.7000000000000001,2.1,8.5,5.300000000000001,-0.1,41.7,-9.700000000000001,-8.700000000000001,16
219,3881.0,0.0,0.2,0.0,8.4,4.7,-2.2,34.400000000000006,-3.5,-7.9,16
220,3898.0,0.1,0.1,0.4,8.5,4.7,-1.8,20.599999999999998,10.8,-5.1000000000000005,16
221,3915.0,0.1,0.1,0.4,8.3,4.4,-0.6000000000000001,34.60000000000001,1.6,-1.2000000000000002,16
222,3931.0,-0.1,-0.1,1.6,8.5,4.6000000000000005,-1.0,48.400000000000006,-7.9,1.0,16
223,3948.0,0.0,-1.2000000000000002,-0.1,8.700000000000001,3.8000000000000003,-2.5,52.5,-17.9,6.1000000000000005,16
224,3965.0,-0.4,-0.5,-0.1,8.1,4.800000000000001,-1.7000000000000002,47.60000000000001,-10.600000000000001,13.000000000000002,16
225,3982.0,0.2,1.3,1.0,8.700000000000001,5.4,-1.8,52.00000000000001,1.5,20.599999999999998,16
226,3998.0,0.2,0.5,0.9,8.200000000000001,3.8000000000000003,-2.4000000000000004,42.60000000000001,8.700000000000001,14.100000000000001,16
227,4015.0,-0.1,-0.4,-0.7000000000000001,8.4,3.8000000000000003,-3.3000000000000003,28.800000000000004,8.899999999999999,5.9,16
228,4033.0,-0.7000000000000001,-0.2,0.30000000000000004,7.800000000000001,4.0,-2.2,-7.300000000000001,58.800000000000004,-11.5,16
229,4048.0,-0.7000000000000001,-0.7000000000000001,0.1,7.800000000000001,3.5,-2.3000000000000003,-16.5,72.4,-13.100000000000001,16
230,4065.0,-0.5,-0.2,-0.1,8.1,4.1000000000000005,-2.2,-39.1,74.5,-9.899999999999999,16
231,4081.0,-0.4,0.30000000000000004,0.9,8.200000000000001,4.7,-1.0,-37.6,64.80000000000001,-8.3,16
232,4099.0,1.2000000000000002,0.8,1.5,9.8,5.2,-0.2,-1.2000000000000002,50.0,1.3,16
233,4115.0,1.2000000000000002,0.8,1.5,11.600000000000001,6.1000000000000005,-0.5,17.7,45.6,-3.5,16
234,4133.0,2.7,2.3000000000000003,1.2000000000000002,8.1,5.5,0.4,52.80000000000001,20.900000000000002,-11.700000000000001,16
235,4148.0,0.6000000000000001,0.7000000000000001,-0.30000000000000004,9.700000000000001,4.9,-2.0,45.9,-9.3,-5.300000000000001,16
236,4166.0,-0.4,0.1,-0.8,8.0,4.5,-2.5,19.400000000000002,-10.5,-1.6,16
237,4181.0,-0.1,-0.1,-0.5,8.200000000000001,3.9000000000000004,-1.8,-6.4,-2.1,-1.6,16
238,4199.0,-0.9,-1.0,0.7000000000000001,8.3,3.3000000000000003,-0.2,-16.8,3.4,2.7,16
239,4215.0,-0.30000000000000004,-1.2000000000000002,1.1,8.3,3.2,-0.6000000000000001,-16.1,4.6,3.8,16
240,4231.0,-0.1,-0.8,1.2000000000000002,8.5,3.6,-0.5,-19.6,14.0,3.5,16
241,4248.0,0.0,-1.1,-0.30000000000000004,8.6,3.3000000000000003,-1.9000000000000001,-39.9,27.2,5.1000000000000005,16
242,4264.0,-0.30000000000000004,-0.8,0.5,8.3,3.6,-0.9,-63.599999999999994,40.9,9.899999999999999,16
243,4281.0,0.2,-0.2,2.0,8.9,4.1000000000000005,0.8,-69.7,56.9,19.1,16
244,4298.0,0.2,-0.2,2.0,9.200000000000001,3.9000000000000004,2.1,-57.800000000000004,62.199999999999996,32.9,16
245,4315.0,0.4,-0.4,3.0,9.8,3.9000000000000004,2.6,-49.800000000000004,68.0,41.800000000000004,16
246,4331.0,0.8,-0.6000000000000001,3.2,9.5,3.3000000000000003,2.0,-37.2,86.2,56.800000000000004,16
247,4349.0,0.4,-0.8,2.1,9.5,3.1,1.8,-42.5,111.20000000000002,68.7,16
248,4365.0,0.4,-0.9,1.4000000000000001,9.3,2.6,1.4000000000000001,-59.1,119.7,74.60000000000001,16
249,4381.0,0.1,-1.2000000000000002,0.8,9.3,2.4000000000000004,1.3,-68.4,115.8,77.7,16
250,4398.0,-2.8000000000000003,-1.1,1.1,6.4,2.2,2.0,-85.30000000000001,96.80000000000001,101.0,16
251,4414.0,-2.6,-0.8,2.7,6.7,2.1,4.0,-88.9,91.8,137.3,16
252,4431.0,-1.8,0.0,3.5,7.6000000000000005,2.3000000000000003,5.2,-71.39999999999999,92.10000000000001,172.6,16
253,4448.0,-0.4,-0.8,2.5,9.1,0.9,4.4,-59.1,71.7,197.3,16
254,4464.0,2.5,-1.1,3.1,12.0,0.0,5.2,-50.2,33.6,207.90000000000003,16
255,4481.0,2.5,-1.1,3.1,13.8,0.4,5.5,-21.300000000000004,-13.900000000000002,172.1,16
256,4498.0,4.9,0.2,2.7,14.5,0.7000000000000001,5.0,-6.300000000000001,-32.9,139.5,16
257,4514.0,4.5,0.7000000000000001,2.3000000000000003,12.700000000000001,0.1,-0.7000000000000001,8.0,-55.8,76.7,16
258,4531.0,2.0,0.6000000000000001,-4.6000000000000005,11.4,2.0,1.6,-52.400000000000006,-41.900000000000006,48.10000000000001,16
259,4548.0,1.8,2.9000000000000004,3.9000000000000004,11.200000000000001,1.5,5.5,-27.6,40.300000000000004,1.2000000000000002,16
260,4564.0,1.5,1.5,2.6,10.200000000000001,1.5,2.6,13.3,59.300000000000004,-22.000000000000004,16
261,4581.0,-0.30000000000000004,1.5,-0.30000000000000004,8.9,1.1,1.8,25.900000000000002,24.3,-11.900000000000002,16
262,4598.0,-0.8,1.1,-0.2,8.8,1.0,1.9000000000000001,30.599999999999998,10.9,-1.5,16
263,4614.0,-0.7000000000000001,0.9,-0.2,8.9,0.8,1.9000000000000001,36.7,2.6,15.6,16
264,4631.0,-0.1,0.4,-0.5,9.5,0.2,1.6,33.1,1.7,24.200000000000003,16
265,4648.0,0.2,0.5,-0.5,9.8,0.30000000000000004,1.6,25.5,1.9,29.400000000000002,16
266,4664.0,0.9,0.1,-2.5,10.5,-0.2,-0.4,10.8,-0.6000000000000001,32.300000000000004,16
267,4681.0,0.9,0.1,-2.5,10.3,0.1,-0.1,-5.4,-5.7,34.50000000000001,16
268,4698.0,1.0,0.6000000000000001,-0.9,10.4,0.2,1.4000000000000001,-25.900000000000002,13.100000000000001,30.5,16
269,4715.0,0.7000000000000001,0.8,0.2,10.200000000000001,0.30000000000000004,3.3000000000000003,-30.1,29.700000000000006,20.7,16
270,4731.0,0.7000000000000001,0.4,1.9000000000000001,10.600000000000001,-0.7000000000000001,5.800000000000001,-17.5,47.0,13.900000000000002,16
271,4748.0,1.6,-0.30000000000000004,3.5,11.3,-0.5,4.800000000000001,18.200000000000003,31.7,6.500000000000001,16
272,4764.0,1.3,0.8,2.8000000000000003,10.200000000000001,0.4,5.4,52.00000000000001,8.0,6.2,16
273,4782.0,0.2,0.7000000000000001,2.1,9.4,0.2,4.4,74.5,0.8,20.900000000000002,16
274,4798.0,0.30000000000000004,0.9,1.9000000000000001,9.8,0.30000000000000004,4.5,79.8,2.4000000000000004,27.700000000000003,16
275,4815.0,0.9,0.4,1.6,10.4,-0.30000000000000004,4.2,81.8,5.0,32.5,16
276,4831.0,1.3,0.5,1.6,10.700000000000001,-0.2,4.3,78.5,12.8,34.1,16
277,4848.0,2.2,0.2,1.8,11.600000000000001,-0.5,4.4,73.30000000000001,15.000000000000002,27.099999999999998,16
278,4865.0,2.2,0.1,2.0,11.600000000000001,-0.6000000000000001,4.7,77.00000000000001,-2.3,17.0,16
279,4881.0,2.2,0.1,2.0,11.3,-0.4,5.6000000000000005,80.0,-3.9,12.9,16
280,4898.0,1.7000000000000002,0.5,2.2,10.5,-0.5,4.5,91.90000000000002,-15.700000000000001,9.700000000000001,16
281,4914.0,0.2,0.4,2.2,9.3,-0.2,4.7,97.60000000000001,-11.6,17.9,16
282,4931.0,-0.30000000000000004,0.1,2.1,8.700000000000001,-0.5,4.7,97.7,4.300000000000001,26.700000000000003,16
283,4949.0,-0.7000000000000001,0.0,0.8,8.6,-0.5,6.300000000000001,96.0,16.900000000000002,32.9,16
284,4968.0,-0.1,0.4,3.0,9.700000000000001,-0.5,5.1000000000000005,98.8,53.7,30.3,16
285,4981.0,0.1,-0.1,2.0,9.4,-0.7000000000000001,5.0,97.3,67.8,29.700000000000006,16
286,4998.0,-1.0,0.30000000000000004,2.2,8.200000000000001,-0.30000000000000004,5.6000000000000005,99.2,100.0,30.4,16
287,5014.0,-2.3000000000000003,0.2,2.5,6.800000000000001,-0.4,6.300000000000001,112.0,158.6,43.900000000000006,16
288,5031.0,-2.3000000000000003,-0.5,1.8,6.4,-1.1,6.300000000000001,119.8,283.1,76.1,16
289,5048.0,-1.3,-0.1,1.8,6.7,-0.8,7.4,109.60000000000001,428.59999999999997,108.7,16
290,5064.0,-1.3,-0.1,1.8,7.300000000000001,-1.7000000000000002,6.7,98.50000000000001,476.80000000000007,121.70000000000002,16
291,5081.0,-0.5,-1.9000000000000001,-0.6000000000000001,5.2,-2.0,4.800000000000001,73.9,430.2,140.3,16
292,5098.0,-1.3,-1.2000000000000002,-1.8,4.0,-2.7,6.300000000000001,39.699999999999996,231.10000000000005,135.6,16
293,5115.0,-2.0,-1.7000000000000002,-0.30000000000000004,4.2,-2.2,9.1,20.7,45.9,112.0,16
294,5131.0,1.0,0.0,4.1000000000000005,10.0,-0.8,11.700000000000001,38.400000000000006,-44.7,75.8,16
295,5148.0,7.1000000000000005,0.2,3.0,13.8,-0.2,10.0,77.00000000000001,-140.6,61.50000000000001,16
296,5164.0,6.7,1.1,1.5,12.8,-0.1,9.1,88.8,-171.8,56.6,16
297,5181.0,3.4000000000000004,1.1,2.0,9.9,0.0,9.3,92.3,-135.6,49.800000000000004,16
298,5198.0,3.5,1.0,0.7000000000000001,10.100000000000001,0.0,8.0,81.2,-14.300000000000002,31.799999999999997,16
299,5215.0,3.6,0.8,0.5,9.9,0.0,7.9,72.30000000000001,101.7,10.600000000000001,16
300,5231.0,2.2,0.2,0.2,8.1,-0.4,8.0,78.5,179.30000000000004,1.2000000000000002,16
301,5248.0,2.2,0.2,0.2,6.5,-0.7000000000000001,8.4,87.3,225.70000000000002,13.000000000000002,16
302,5264.0,1.1,-0.30000000000000004,0.2,5.7,-1.0,7.7,88.20000000000002,236.4,24.8,16
303,5281.0,0.4,-1.2000000000000002,-1.6,4.6000000000000005,-1.8,6.300000000000001,75.00000000000001,193.3,48.6,16
304,5299.0,-0.5,-2.3000000000000003,-2.8000000000000003,3.2,-2.4000000000000004,6.9,57.1,45.5,54.50000000000001,16
305,5315.0,-1.6,-0.9,-0.7000000000000001,2.9000000000000004,0.8,8.6,44.7,-58.900000000000006,23.5,16
306,5331.0,-1.4000000000000001,0.7000000000000001,0.0,2.9000000000000004,0.1,8.6,21.1,-54.300000000000004,-20.1,16
307,5348.0,-1.5,0.0,-0.2,3.1,0.1,8.4,17.5,-35.1,-31.3,16
308,5364.0,-0.8,-0.6000000000000001,-0.4,3.8000000000000003,-0.30000000000000004,8.3,20.5,7.0,-25.1,16
309,5381.0,-0.2,-0.1,-0.5,4.3,0.2,8.200000000000001,23.700000000000003,47.900000000000006,15.399999999999999,16
310,5398.0,0.5,-0.1,-0.6000000000000001,4.800000000000001,0.30000000000000004,8.200000000000001,31.7,86.1,42.60000000000001,16
311,5416.0,0.0,0.4,-2.7,4.0,0.7000000000000001,6.300000000000001,20.900000000000002,105.0,52.60000000000001,16
312,5431.0,-1.4000000000000001,-0.9,-1.0,2.4000000000000004,-0.6000000000000001,8.0,7.200000000000001,63.599999999999994,44.8,16
313,5448.0,-1.4000000000000001,-0.9,-1.0,2.2,-1.1,8.9,7.1000000000000005,41.199999999999996,38.0,16
314,5464.0,-1.2000000000000002,-1.1,0.4,2.7,-0.30000000000000004,9.0,5.9,19.1,16.4,16
315,5481.0,-0.9,-0.5,-0.7000000000000001,3.3000000000000003,0.0,8.9,9.600000000000001,4.6,-0.7,16
316,5498.0,0.4,-0.1,-0.30000000000000004,3.9000000000000004,0.0,8.0,13.399999999999999,20.3,-3.0,16
317,5517.0,0.0,-0.30000000000000004,-1.7000000000000002,3.4000000000000004,0.2,7.2,10.200000000000001,45.099999999999994,11.700000000000001,16
318,5531.0,-0.30000000000000004,-0.1,-2.0,2.8000000000000003,0.30000000000000004,6.9,0.0,86.5,24.8,16
319,5548.0,-1.1,-0.1,-2.6,2.0,0.2,6.7,-5.0,99.9,25.4,16
320,5564.0,-0.2,-1.6,-1.7000000000000002,2.7,-1.4000000000000001,7.7,-6.4,93.00000000000001,22.3,16
321,5582.0,0.6000000000000001,-3.5,-2.7,3.2,-3.3000000000000003,6.800000000000001,-2.1,49.6,16.1,16
322,5598.0,3.2,-4.3,-4.4,5.9,-4.1000000000000005,5.1000000000000005,0.5,-49.6,-6.4,16
323,5617.0,4.2,-3.7,-2.8000000000000003,7.300000000000001,-3.4000000000000004,6.5,6.4,-138.8,-32.6,16
324,5633.0,1.5,-7.300000000000001,-2.2,5.0,-6.9,7.0,28.800000000000004,-135.3,-57.1,16
325,5650.0,1.5,-7.300000000000001,-2.2,2.9000000000000004,-12.100000000000001,3.6,48.0,-180.29999999999998,-7.9,16
326,5665.0,-1.1,-12.600000000000001,-5.300000000000001,3.5,-11.200000000000001,1.7000000000000002,52.7,-225.8,25.300000000000004,16
327,5682.0,-0.2,-10.4,-7.9,5.5,-8.5,0.0,13.100000000000001,-271.7,46.199999999999996,16
328,5698.0,1.8,-6.0,-6.9,7.9,-3.1,3.7,-82.60000000000001,-196.6,15.700000000000001,16
329,5716.0,3.5,-0.2,-1.4000000000000001,9.8,3.3000000000000003,8.6,-111.50000000000001,-86.8,-33.7,16
330,5731.0,2.4000000000000004,5.5,2.9000000000000004,8.4,5.5,10.600000000000001,-79.6,-59.699999999999996,-51.4,16
331,5748.0,-2.8000000000000003,6.4,2.5,3.3000000000000003,6.4,10.3,-36.5,3.5,-61.8,16
332,5764.0,-6.2,5.6000000000000005,2.1,-0.2,5.6000000000000005,9.9,-54.4,21.400000000000002,-54.6,16
333,5781.0,-7.300000000000001,4.9,4.0,-1.3,4.800000000000001,11.9,-73.10000000000001,12.100000000000001,-47.60000000000001,16
334,5798.0,-4.7,3.5,5.9,1.2000000000000002,3.3000000000000003,13.8,-88.20000000000002,1.4,-38.800000000000004,16
335,5820.0,-2.7,3.1,8.5,3.2,2.8000000000000003,16.3,-85.0,3.9,-33.2,16
336,5832.0,-2.7,3.1,8.5,3.9000000000000004,3.1,17.3,-67.8,3.8,-27.099999999999998,16
337,5848.0,-1.3,3.1,8.8,5.800000000000001,2.0,15.0,-31.6,-23.900000000000006,-3.0,16
338,5864.0,0.5,1.5,5.800000000000001,6.800000000000001,0.5,12.5,-29.1,-52.60000000000001,31.6,16
339,5881.0,1.5,1.4000000000000001,4.3,8.4,1.7000000000000002,12.600000000000001,-30.599999999999998,-26.400000000000006,45.9,16
340,5898.0,2.6,3.2,5.0,8.8,2.8000000000000003,12.3,-4.9,41.900000000000006,25.6,16
341,5915.0,2.8000000000000003,3.8000000000000003,3.6,8.700000000000001,3.1,11.3,11.3,74.80000000000001,13.3,16
342,5933.0,0.4,4.9,2.4000000000000004,6.0,4.2,10.4,40.0,119.7,2.0,16
343,5948.0,0.9,5.5,0.2,6.2,5.0,8.4,78.4,147.1,1.6,16
344,5964.0,0.6000000000000001,5.6000000000000005,-0.4,5.4,5.4,8.1,97.2,169.70000000000002,-12.600000000000001,16
345,5981.0,-4.4,6.4,3.0,0.0,6.5,11.8,77.5,167.40000000000003,-32.300000000000004,16
346,5998.0,-0.30000000000000004,3.2,1.8,3.6,3.6,10.8,91.50000000000001,166.70000000000002,-9.8,16
347,6014.0,-0.30000000000000004,3.2,1.8,5.800000000000001,6.800000000000001,8.8,100.70000000000002,137.5,-14.900000000000002,16
348,6031.0,0.5,6.300000000000001,0.2,1.7000000000000002,5.300000000000001,10.100000000000001,103.3,117.60000000000001,-40.2,16
349,6048.0,-2.5,3.7,0.2,0.0,3.3000000000000003,8.4,104.10000000000001,127.00000000000003,-42.3,16
350,6064.0,-0.7000000000000001,1.3,-2.2,0.6000000000000001,1.6,6.5,94.10000000000001,122.90000000000002,-40.800000000000004,16
351,6081.0,-2.5,-1.3,-3.6,2.1,1.0,5.800000000000001,65.6,136.0,-22.3,16
352,6098.0,0.30000000000000004,-1.2000000000000002,-3.4000000000000004,2.2,0.5,6.800000000000001,47.0,155.70000000000002,-12.4,16
353,6114.0,1.2000000000000002,-1.2000000000000002,-2.4000000000000004,2.6,0.9,7.1000000000000005,42.60000000000001,161.6,-3.6000000000000005,16
354,6131.0,2.5,-1.6,-1.6,3.4000000000000004,0.5,8.0,40.800000000000004,166.10000000000002,11.5,16
355,6148.0,1.1,-2.0,-3.1,1.6,0.30000000000000004,6.5,49.50000000000001,160.10000000000002,36.400000000000006,16
356,6165.0,2.4000000000000004,-0.7000000000000001,-3.1,2.5,1.6,6.4,33.50000000000001,134.6,36.400000000000006,16
357,6181.0,1.4000000000000001,-1.2000000000000002,-3.8000000000000003,1.2000000000000002,1.2000000000000002,5.7,12.4,107.4,11.4,16
358,6198.0,1.4000000000000001,-1.2000000000000002,-3.8000000000000003,0.4,1.3,5.7,1.6,95.5,9.0,16
359,6214.0,-0.30000000000000004,-0.9,-3.7,-1.5,1.6,5.800000000000001,-17.400000000000002,75.7,27.0,16
360,6231.0,-1.6,-0.6000000000000001,-3.8000000000000003,-2.9000000000000004,1.9000000000000001,6.0,-31.6,58.60000000000001,58.5,16
361,6248.0,-2.5,-0.2,-3.6,-3.4000000000000004,2.6,5.9,-43.70000000000001,41.50000000000001,86.89999999999999,16
362,6264.0,-2.0,1.2000000000000002,-3.3000000000000003,-1.7000000000000002,3.9000000000000004,6.9,-61.0,33.9,100.5,16
363,6281.0,0.5,2.4000000000000004,-2.3000000000000003,0.4,4.9,8.1,-80.10000000000001,37.6,93.89999999999999,16
364,6298.0,1.8,3.6,-0.2,0.9,5.4,9.4,-84.6,38.800000000000004,82.60000000000001,16
365,6320.0,1.8,3.7,3.0,0.2,5.0,13.4,-48.400000000000006,38.900000000000006,47.0,16
366,6331.0,1.3,3.5,3.9000000000000004,0.1,5.0,13.5,-20.3,22.4,37.50000000000001,16
367,6348.0,1.4000000000000001,3.5,3.8000000000000003,0.30000000000000004,5.1000000000000005,13.4,35.699999999999996,3.8,12.9,16
368,6365.0,1.5,3.2,2.4000000000000004,0.4,5.0,12.0,78.10000000000001,3.5,-6.4,16
369,6381.0,1.5,3.2,2.4000000000000004,-0.1,4.5,9.8,105.0,15.8,-14.600000000000001,16
370,6398.0,1.1,2.4000000000000004,0.2,0.30000000000000004,5.0,8.200000000000001,105.60000000000002,17.5,-16.900000000000002,16
371,6417.0,1.7000000000000002,2.4000000000000004,-1.6,0.1,4.3,6.800000000000001,91.50000000000001,34.300000000000004,-25.4,16
372,6431.0,0.9,1.1,-2.8000000000000003,-0.7000000000000001,3.5,6.2,75.60000000000001,34.7,-24.1,16
373,6448.0,0.7000000000000001,0.5,-3.4000000000000004,-0.9,3.3000000000000003,5.5,58.2,31.400000000000002,-21.400000000000002,16
374,6464.0,0.4,0.1,-3.8000000000000003,-1.5,3.2,5.0,39.400000000000006,30.699999999999996,-15.899999999999999,16
375,6481.0,-0.30000000000000004,0.30000000000000004,-4.7,-2.9000000000000004,2.9000000000000004,4.800000000000001,12.600000000000001,47.60000000000001,-11.700000000000001,16
376,6498.0,-0.7000000000000001,-0.30000000000000004,-4.0,-2.6,2.8000000000000003,5.1000000000000005,-6.500000000000001,73.8,-8.100000000000001,16
377,6515.0,0.8,1.6,-2.2,-1.5,4.7,6.800000000000001,-35.0,134.70000000000002,8.899999999999999,16
378,6531.0,1.6,1.9000000000000001,-3.7,-1.2000000000000002,4.800000000000001,5.2,-50.900000000000006,172.8,14.900000000000002,16
379,6548.0,0.0,2.0,-1.2000000000000002,-3.1,4.9,7.6000000000000005,-22.3,78.80000000000001,21.400000000000002,16
380,6564.0,1.3,3.0,1.7000000000000002,-1.8,5.9,10.600000000000001,27.800000000000004,31.0,19.5,16
381,6581.0,1.3,3.0,1.7000000000000002,-1.2000000000000002,6.2,10.9,48.0,21.500000000000004,9.5,16
382,6598.0,1.8,3.1,2.4000000000000004,-1.5,6.5,10.9,69.7,18.0,-15.700000000000001,16
383,6614.0,1.4000000000000001,3.1,1.2000000000000002,-2.6,6.0,8.9,61.199999999999996,9.5,-33.2,16
384,6632.0,0.0,2.3000000000000003,-0.30000000000000004,-3.6,5.7,8.0,39.1,-9.2,-26.200000000000003,16
385,6649.0,-0.8,2.0,-0.9,-4.2,5.2,7.800000000000001,16.0,-17.9,-11.8,16
386,6664.0,-0.8,1.7000000000000002,-0.7000000000000001,-3.7,5.0,8.1,-4.9,-3.6000000000000005,3.0,16
387,6681.0,-0.5,1.4000000000000001,0.1,-3.7,4.9,8.700000000000001,-11.900000000000002,14.100000000000001,8.5,16
388,6698.0,-0.5,2.0,1.7000000000000002,-3.9000000000000004,5.5,10.3,-7.300000000000001,59.20000000000001,14.800000000000002,16
389,6715.0,-1.3,2.1,3.0,-4.9,5.6000000000000005,11.4,9.0,90.6,14.100000000000001,16
390,6731.0,-2.6,2.5,2.8000000000000003,-6.300000000000001,6.1000000000000005,11.100000000000001,21.400000000000002,77.7,12.100000000000001,16
391,6748.0,-2.8000000000000003,2.1,1.8,-6.6000000000000005,5.7,10.0,22.6,27.9,13.000000000000002,16
392,6797.0,-0.7000000000000001,0.1,-0.30000000000000004,-4.1000000000000005,3.6,7.6000000000000005,-10.4,-50.400000000000006,15.299999999999999,16
393,6832.0,-1.2000000000000002,-0.30000000000000004,-1.4000000000000001,-4.7,3.4000000000000004,6.5,-7.300000000000001,-36.0,10.0,16
394,6848.0,-1.4000000000000001,-0.9,-2.3000000000000003,-5.2,2.6,5.4,-17.799999999999997,-28.400000000000002,21.8,16
395,6864.0,-2.1,-0.7000000000000001,-3.1,-5.4,3.0,5.4,-25.8,-13.000000000000002,37.400000000000006,16
396,6881.0,-0.8,0.5,-1.2000000000000002,-4.0,4.1000000000000005,7.300000000000001,-25.0,11.000000000000002,38.60000000000001,16
397,6898.0,-0.2,-0.2,-1.2000000000000002,-3.4000000000000004,3.4000000000000004,7.300000000000001,-25.6,47.7,41.50000000000001,16
398,6914.0,1.1,0.2,-0.7000000000000001,-2.2,3.8000000000000003,7.800000000000001,-28.400000000000002,29.700000000000006,39.599999999999994,16
399,6931.0,0.4,0.5,-1.2000000000000002,-2.9000000000000004,4.0,7.4,-45.099999999999994,-3.7000000000000006,30.699999999999996,16
400,6948.0,0.8,0.9,-0.9,-2.4000000000000004,4.3,7.7,-58.400000000000006,-28.3,22.1,16
401,6964.0,0.8,0.9,-0.9,-1.8,4.4,8.0,-62.6,-25.4,18.5,16
402,6981.0,1.9000000000000001,1.4000000000000001,-0.7000000000000001,-1.0,4.5,7.5,-81.50000000000001,2.0,1.9,16
403,6998.0,1.9000000000000001,1.0,-3.5,-1.9000000000000001,3.2,2.5,-112.4,-33.300000000000004,-3.2,16
404,7015.0,0.9,0.4,-4.1000000000000005,-1.7000000000000002,3.1,6.6000000000000005,-138.7,-61.9,0.7,16
405,7031.0,1.5,0.9,-2.8000000000000003,-2.9000000000000004,5.300000000000001,8.5,-154.29999999999998,-13.700000000000001,3.6000000000000005,16
406,7048.0,1.2000000000000002,2.9000000000000004,-5.4,-2.0,2.4000000000000004,3.5,-141.2,-19.200000000000003,9.899999999999999,16
407,7065.0,0.4,0.6000000000000001,-3.3000000000000003,-2.4000000000000004,2.0,6.0,-147.7,-26.799999999999997,6.2,16
408,7081.0,0.7000000000000001,1.9000000000000001,-1.8,-1.9000000000000001,2.9000000000000004,7.6000000000000005,-154.7,-41.199999999999996,-10.8,16
409,7098.0,1.3,2.4000000000000004,0.2,-1.2000000000000002,3.0,9.700000000000001,-131.5,-60.900000000000006,-40.4,16
410,7114.0,1.8,2.0,1.8,-0.5,2.2,11.3,-84.4,-74.2,-64.7,16
411,7132.0,1.4000000000000001,1.5,3.3000000000000003,-0.6000000000000001,1.6,12.9,-31.5,-60.900000000000006,-77.1,16
412,7148.0,1.4000000000000001,1.5,3.3000000000000003,-1.8,0.8,14.100000000000001,19.799999999999997,-75.60000000000001,-74.80000000000001,16
413,7164.0,0.0,0.8,4.4,-2.2,0.7000000000000001,13.200000000000001,38.800000000000004,-74.30000000000001,-67.5,16
414,7181.0,-0.9,0.4,3.3000000000000003,-3.2,0.30000000000000004,12.9,65.89999999999999,-87.89999999999999,-59.00000000000001,16
415,7198.0,-2.5,0.0,3.3000000000000003,-4.3,0.4,12.700000000000001,67.8,-87.40000000000002,-56.7,16
416,7214.0,-3.3000000000000003,0.0,3.0,-4.1000000000000005,1.1,13.3,43.2,-76.0,-50.3,16
417,7231.0,-3.2,1.0,4.4,-3.9000000000000004,1.3,15.600000000000001,29.600000000000005,-43.70000000000001,-34.60000000000001,16
418,7248.0,-2.3000000000000003,0.30000000000000004,6.7,-3.0,1.0,16.5,35.8,-19.799999999999997,-22.1,16
419,7265.0,-0.6000000000000001,-0.2,5.300000000000001,-1.4000000000000001,0.7000000000000001,15.0,75.60000000000001,-9.3,-13.3,16
420,7281.0,0.6000000000000001,-0.8,5.0,-0.1,0.4,14.700000000000001,127.9,-2.1,-17.200000000000003,16
421,7298.0,1.1,-1.5,3.2,0.4,0.2,12.8,162.9,7.699999999999999,-24.599999999999998,16
422,7315.0,0.9,-1.7000000000000002,1.8,0.1,0.5,11.3,164.4,17.6,-28.500000000000004,16
423,7331.0,1.0,-1.0,-1.4000000000000001,0.1,1.5,8.0,114.70000000000002,57.800000000000004,-30.4,16
424,7348.0,1.0,-1.0,-1.4000000000000001,0.5,2.3000000000000003,5.800000000000001,76.7,55.0,-32.7,16
425,7365.0,1.2000000000000002,-0.1,-3.7,-0.7000000000000001,2.1,5.5,0.30000000000000004,25.6,-34.2,16
426,7382.0,0.1,-1.2000000000000002,-3.6,-0.8,1.5,6.300000000000001,-54.800000000000004,-30.000000000000004,-20.8,16
427,7398.0,0.8,-0.7000000000000001,-2.5,0.1,2.0,7.300000000000001,-84.1,-66.60000000000001,-18.6,16
428,7414.0,1.2000000000000002,-0.1,-2.3000000000000003,0.1,2.2,7.9,-88.4,-61.10000000000001,-29.800000000000004,16
429,7431.0,0.6000000000000001,0.5,-0.30000000000000004,-0.1,2.5,9.3,-59.80000000000001,10.8,-39.699999999999996,16
430,7448.0,0.6000000000000001,1.9000000000000001,-0.8,-0.30000000000000004,3.7,8.8,-33.800000000000004,52.5,-40.4,16
431,7465.0,-0.6000000000000001,3.4000000000000004,-5.4,-1.8,5.2,4.1000000000000005,13.000000000000002,76.4,-26.000000000000004,16
432,7481.0,0.30000000000000004,0.8,-5.800000000000001,-1.0,2.7,3.8000000000000003,23.900000000000006,44.8,-25.7,16
433,7498.0,-0.1,-1.5,-5.1000000000000005,-1.5,0.5,4.4,31.2,3.6000000000000005,-17.5,16
434,7514.0,1.3,-1.6,-3.4000000000000004,0.0,0.5,6.2,16.4,-38.300000000000004,-6.8,16
435,7531.0,1.3,-1.6,-3.4000000000000004,0.2,2.2,7.800000000000001,11.1,-39.699999999999996,-6.2,16
436,7548.0,1.4000000000000001,1.1,-1.3,0.2,2.8000000000000003,8.700000000000001,19.200000000000003,-20.7,-14.300000000000002,16
437,7565.0,1.4000000000000001,0.30000000000000004,0.0,0.4,2.8000000000000003,9.8,34.60000000000001,20.2,-20.400000000000002,16
438,7581.0,1.5,0.8,-0.6000000000000001,-0.9,3.3000000000000003,9.5,30.699999999999996,50.8,-29.500000000000004,16
439,7598.0,0.4,1.4000000000000001,-0.30000000000000004,-1.0,4.0,9.200000000000001,16.700000000000003,56.0,-30.699999999999996,16
440,7614.0,-1.0,1.7000000000000002,0.2,-3.5,3.9000000000000004,8.8,14.5,29.600000000000005,-22.4,16
441,7631.0,-2.1,1.4000000000000001,0.1,-3.8000000000000003,3.7,9.4,9.899999999999999,18.900000000000002,-12.100000000000001,16
442,7648.0,-2.5,2.5,-0.4,-4.2,4.9,9.0,-3.5,6.1000000000000005,12.0,16
443,7664.0,-2.6,2.6,-1.1,-4.4,4.9,8.3,-33.0,-0.2,38.60000000000001,16
444,7681.0,-2.4000000000000004,2.6,0.5,-4.2,4.7,9.9,-85.30000000000001,11.900000000000002,72.4,16
445,7698.0,2.0,1.8,5.800000000000001,0.30000000000000004,3.6,15.3,-112.60000000000001,59.40000000000001,91.8,16
446,7714.0,2.0,1.8,5.800000000000001,3.4000000000000004,2.9000000000000004,16.5,-89.9,106.80000000000001,66.0,16
447,7731.0,5.5,1.3,7.0,3.3000000000000003,2.2,16.5,-63.599999999999994,100.0,50.0,16
448,7748.0,4.800000000000001,-0.2,7.5,1.8,0.9,16.400000000000002,2.8,65.89999999999999,34.300000000000004,16
449,7765.0,3.6,-0.6000000000000001,6.2,0.7000000000000001,1.2000000000000002,14.700000000000001,68.0,20.8,22.8,16
450,7781.0,2.4000000000000004,-0.9,4.1000000000000005,-0.7000000000000001,1.2000000000000002,11.600000000000001,113.60000000000001,-13.5,4.1,16
451,7798.0,1.2000000000000002,-0.2,0.30000000000000004,-1.5,2.8000000000000003,8.200000000000001,101.0,-22.6,-15.8,16
452,7815.0,-0.7000000000000001,0.4,-0.8,-3.1,2.9000000000000004,8.4,72.2,2.3,-30.9,16
453,7832.0,0.2,0.2,-1.9000000000000001,-2.3000000000000003,2.7,7.300000000000001,12.7,37.2,-28.800000000000004,16
454,7848.0,-1.2000000000000002,0.1,-0.4,-3.9000000000000004,2.5,8.700000000000001,-10.200000000000001,51.70000000000001,-10.5,16
455,7864.0,-1.2000000000000002,-0.1,-1.3,-4.0,2.3000000000000003,7.800000000000001,-8.899999999999999,35.2,0.1,16
456,7881.0,-1.6,0.30000000000000004,-0.30000000000000004,-4.5,2.7,8.8,-1.3,9.0,1.4,16
457,7898.0,-1.6,0.6000000000000001,-1.7000000000000002,-4.4,3.1,7.4,9.100000000000001,-13.000000000000002,-1.2000000000000002,16
458,7915.0,-1.6,0.6000000000000001,-1.7000000000000002,-4.1000000000000005,3.1,6.7,13.200000000000003,-24.599999999999998,-2.7,16
459,7931.0,-0.9,0.4,-3.3000000000000003,-3.3000000000000003,2.7,5.2,16.5,-50.5,-3.9,16
460,7948.0,-0.6000000000000001,-0.30000000000000004,-4.3,-2.8000000000000003,2.0,4.3,10.299999999999999,-76.4,-0.1,16
461,7964.0,0.30000000000000004,-0.6000000000000001,-5.300000000000001,-1.3,2.0,3.9000000000000004,-7.1000000000000005,-94.80000000000001,0.8,16
462,7981.0,1.2000000000000002,-0.7000000000000001,-5.0,-0.8,1.7000000000000002,4.6000000000000005,-31.7,-90.30000000000001,-1.4,16
463,7998.0,0.8,-0.8,-4.5,-1.0,1.6,5.2,-49.6,-60.7,4.0,16
464,8014.0,0.9,-0.5,-3.7,-0.8,1.7000000000000002,5.7,-54.800000000000004,-38.60000000000001,9.700000000000001,16
465,8042.0,1.4000000000000001,-0.30000000000000004,-2.9000000000000004,0.0,1.9000000000000001,6.800000000000001,-52.7,21.0,26.200000000000003,16
466,8048.0,1.7000000000000002,0.0,-2.0,0.0,1.9000000000000001,7.4,-47.60000000000001,32.300000000000004,27.700000000000003,16
467,8064.0,2.1,0.0,-1.0,0.30000000000000004,1.8,8.5,-37.50000000000001,50.3,21.400000000000002,16
468,8081.0,1.6,-0.30000000000000004,-1.4000000000000001,-0.30000000000000004,1.5,8.0,-24.3,26.300000000000004,1.0,16
469,8098.0,1.6,-0.30000000000000004,-1.4000000000000001,-1.2000000000000002,1.1,12.200000000000001,-6.2,12.7,-14.0,16
470,8118.0,0.2,0.4,4.0,-1.8,2.2,13.4,21.300000000000004,17.200000000000003,-20.1,16
471,8132.0,0.2,0.4,4.0,-2.6,2.4000000000000004,13.5,39.599999999999994,5.1000000000000005,-22.8,16
472,8148.0,-1.6,0.5,4.7,-4.4,2.7,14.4,74.2,-17.300000000000004,-22.3,16
473,8164.0,-3.0,1.1,4.2,-4.9,3.8000000000000003,13.0,94.3,-39.0,-19.0,16
474,8181.0,-2.0,1.9000000000000001,3.5,-3.1,4.3,12.3,68.80000000000001,-20.599999999999998,-27.400000000000002,16
475,8198.0,-1.1,1.0,1.7000000000000002,-2.9000000000000004,3.6,11.0,40.7,-5.0,-31.9,16
476,8214.0,-1.0,-0.1,2.7,-2.9000000000000004,2.5,11.9,-1.0,8.5,-31.099999999999998,16
477,8231.0,-0.7000000000000001,-0.8,3.5,-2.7,1.7000000000000002,12.8,-13.200000000000003,19.700000000000003,-31.9,16
478,8248.0,-0.2,-1.5,4.1000000000000005,-2.3000000000000003,0.9,13.3,-18.4,42.60000000000001,-33.300000000000004,16
479,8264.0,-0.5,-2.2,3.2,-2.8000000000000003,0.1,12.4,-22.5,49.0,-29.600000000000005,16
480,8281.0,0.0,-2.0,2.0,-2.4000000000000004,0.30000000000000004,11.200000000000001,-17.200000000000003,26.300000000000004,-30.200000000000003,16
481,8298.0,0.0,-2.0,2.0,-1.8,0.6000000000000001,10.3,-11.1,6.4,-35.3,16
482,8315.0,1.1,-1.2000000000000002,0.1,-1.1,1.2000000000000002,8.700000000000001,-4.0,-25.5,-53.599999999999994,16
483,8333.0,1.3,-0.5,-1.3,-1.2000000000000002,2.0,7.2,-7.0,-39.400000000000006,-67.8,16
484,8348.0,0.8,0.2,-2.6,-1.6,2.7,6.6000000000000005,-16.1,-33.50000000000001,-68.60000000000001,16
485,8365.0,0.30000000000000004,0.8,-2.6,-1.9000000000000001,3.1,6.300000000000001,-18.4,-12.600000000000001,-54.1,16
486,8381.0,0.5,1.9000000000000001,-3.2,-1.7000000000000002,3.8000000000000003,6.1000000000000005,-9.5,3.9,-38.900000000000006,16
487,8398.0,0.4,1.5,-3.4000000000000004,-1.9000000000000001,3.3000000000000003,5.9,-3.1,11.000000000000002,-30.1,16
488,8414.0,0.6000000000000001,1.1,-4.1000000000000005,-1.7000000000000002,2.9000000000000004,5.300000000000001,9.700000000000001,8.700000000000001,-14.700000000000001,16
489,8431.0,0.8,0.7000000000000001,-4.0,-1.6,2.6,5.300000000000001,15.5,3.7000000000000006,-6.4,16
490,8448.0,0.5,0.0,-3.0,-1.9000000000000001,2.0,6.300000000000001,12.100000000000001,6.1000000000000005,-0.1,16
491,8464.0,0.1,0.4,-1.7000000000000002,-2.3000000000000003,2.4000000000000004,7.6000000000000005,8.8,14.5,6.8,16
492,8482.0,-0.2,0.30000000000000004,-0.4,-2.7,2.3000000000000003,8.9,12.299999999999999,12.600000000000001,17.200000000000003,16
493,8499.0,-0.2,0.30000000000000004,-0.4,-3.1,1.9000000000000001,9.200000000000001,14.5,9.4,23.2,16
494,8515.0,-0.5,-0.30000000000000004,0.5,-2.7,2.2,10.3,21.200000000000003,6.2,32.6,16
495,8533.0,-0.30000000000000004,0.30000000000000004,1.2000000000000002,-3.0,2.5,10.4,29.800000000000004,5.9,30.9,16
496,8550.0,-0.8,-0.1,0.8,-3.5,1.9000000000000001,9.4,30.9,-2.2,27.2,16
497,8564.0,-1.4000000000000001,-0.5,-0.30000000000000004,-4.1000000000000005,1.9000000000000001,8.6,11.2,-12.0,23.800000000000004,16
498,8581.0,-2.0,-0.7000000000000001,-0.6000000000000001,-4.3,1.7000000000000002,8.6,-4.300000000000001,-13.900000000000002,22.8,16
499,8598.0,-1.5,-1.1,1.0,-3.7,1.3,10.3,-33.1,-20.2,36.0,16
500,8614.0,1.7000000000000002,-0.5,3.4000000000000004,-0.4,1.8,12.700000000000001,-54.50000000000001,-23.2,59.5,16
501,8631.0,4.0,-0.2,5.300000000000001,2.0,1.9000000000000001,14.600000000000001,-60.1,-21.400000000000002,50.7,16
502,8648.0,4.9,-0.4,7.1000000000000005,2.9000000000000004,1.6,16.5,-38.60000000000001,-9.5,7.200000000000001,16
503,8664.0,2.5,-0.9,7.1000000000000005,0.5,1.0,16.5,8.899999999999999,1.5,-41.199999999999996,16
504,8681.0,2.5,-0.9,7.1000000000000005,-1.1,0.8,15.5,39.50000000000001,-0.6000000000000001,-57.699999999999996,16
505,8698.0,-0.30000000000000004,-1.4000000000000001,5.2,-3.0,0.9,13.4,97.50000000000001,7.300000000000001,-69.10000000000001,16
506,8716.0,-1.0,-0.9,2.5,-3.4000000000000004,1.8,10.600000000000001,127.19999999999999,37.0,-73.9,16
507,8731.0,-1.7000000000000002,-0.7000000000000001,0.2,-4.3,2.0,7.800000000000001,134.10000000000002,46.4,-82.39999999999999,16
508,8748.0,-1.8,-0.8,-2.2,-4.4,2.4000000000000004,5.6000000000000005,117.5,25.0,-87.2,16
509,8764.0,-1.6,-0.6000000000000001,-4.6000000000000005,-4.0,2.8000000000000003,3.8000000000000003,74.4,-9.5,-65.89999999999999,16
510,8781.0,-0.9,-0.6000000000000001,-3.7,-3.6,2.7,5.1000000000000005,49.0,-14.200000000000001,-48.6,16
511,8798.0,1.2000000000000002,0.4,-2.6,-1.5,3.8000000000000003,6.2,20.2,6.1000000000000005,-20.0,16
512,8823.0,1.2000000000000002,-0.4,-0.8,-1.0,3.1,6.1000000000000005,15.399999999999999,79.19999999999999,-26.799999999999997,16
513,8831.0,2.5,-0.30000000000000004,-3.6,-0.7000000000000001,3.1,5.0,19.200000000000003,97.3,-39.2,16
514,8848.0,2.7,-0.30000000000000004,-3.9000000000000004,-0.8,3.1,4.5,28.500000000000004,117.5,-60.8,16
515,8864.0,2.7,-0.30000000000000004,-3.9000000000000004,-4.7,3.7,6.1000000000000005,28.400000000000002,144.70000000000002,-60.00000000000001,16
516,8881.0,-0.9,1.2000000000000002,-2.8000000000000003,-4.4,4.2,5.800000000000001,14.5,153.70000000000002,-20.5,16
517,8898.0,0.5,0.0,-2.9000000000000004,-3.8000000000000003,2.1,4.4,32.9,83.4,-13.8,16
518,8914.0,1.0,-2.7,-4.3,-2.8000000000000003,1.5,4.0,70.4,-15.899999999999999,43.00000000000001,16
519,8932.0,2.8000000000000003,0.0,-6.0,-0.9,5.2,3.9000000000000004,66.1,-43.2,54.6,16
520,8948.0,4.1000000000000005,2.0,-4.4,-0.2,6.1000000000000005,3.4000000000000004,38.800000000000004,3.2,25.900000000000002,16
521,8967.0,5.4,3.5,-3.3000000000000003,1.2000000000000002,7.7,4.5,20.400000000000002,34.7,6.600000000000001,16
522,8984.0,4.3,4.4,0.30000000000000004,-0.2,8.6,8.0,-5.4,112.0,-80.8,16
523,8998.0,-0.6000000000000001,4.9,1.5,-5.5,8.9,8.9,-11.3,117.4,-88.3,16
524,9016.0,-3.3000000000000003,3.6,0.2,-8.6,7.5,7.5,-27.5,134.6,-69.60000000000001,16
525,9031.0,-3.0,3.0,-1.1,-8.700000000000001,6.7,6.0,-30.699999999999996,119.1,-50.60000000000001,16
526,9048.0,-1.9000000000000001,0.2,-1.5,-7.800000000000001,3.7,5.5,-78.60000000000001,117.30000000000001,-35.1,16
527,9064.0,-1.9000000000000001,0.2,-1.5,-6.4,3.2,6.4,-104.80000000000001,115.50000000000003,-32.2,16
528,9081.0,1.1,-0.7000000000000001,2.1,-3.6,1.9000000000000001,11.5,-132.4,141.5,-49.50000000000001,16
529,9098.0,2.9000000000000004,-1.9000000000000001,7.1000000000000005,-5.9,0.2,17.8,-88.00000000000001,209.5,-69.20000000000002,16
530,9114.0,0.8,-4.7,11.8,-7.1000000000000005,-3.6,16.8,31.400000000000002,261.9,-70.10000000000001,16
531,9131.0,-1.9000000000000001,-5.7,11.3,-12.700000000000001,-3.2,15.700000000000001,148.9,226.2,-62.7,16
532,9147.0,-6.7,-5.300000000000001,7.4,-14.8,-2.7,12.3,195.89999999999998,179.40000000000003,-51.4,16
533,9164.0,-6.800000000000001,-3.3000000000000003,4.5,-15.0,-0.4,9.0,255.2,81.8,-14.800000000000002,16
534,9181.0,-4.2,-1.5,0.6000000000000001,-12.5,1.8,4.7,267.20000000000005,28.0,21.0,16
535,9198.0,-0.4,0.1,-4.3,-8.6,3.8000000000000003,-0.5,214.90000000000003,-29.600000000000005,20.2,16
536,9214.0,3.3000000000000003,3.9000000000000004,-4.6000000000000005,-4.9,7.7,-0.8,128.3,-62.199999999999996,-27.3,16
537,9231.0,1.6,1.5,-3.3000000000000003,-6.5,5.300000000000001,0.6000000000000001,92.2,-43.50000000000001,-51.2,16
538,9248.0,1.6,1.5,-3.3000000000000003,-6.800000000000001,4.9,0.1,87.2,-34.50000000000001,-44.4,16
539,9264.0,2.3000000000000003,0.7000000000000001,-3.9000000000000004,-4.6000000000000005,4.7,0.0,76.80000000000001,-31.5,-28.3,16
540,9281.0,4.4,0.8,-4.1000000000000005,-3.7,4.1000000000000005,-0.30000000000000004,57.1,-42.7,-29.600000000000005,16
541,9298.0,4.2,-0.2,-3.6,-3.9000000000000004,3.5,0.9,36.9,-48.800000000000004,-22.700000000000003,16
542,9314.0,4.3,-0.4,-2.3000000000000003,-4.1000000000000005,3.2,2.3000000000000003,29.900000000000006,-43.2,-21.300000000000004,16
543,9331.0,3.5,-0.9,-1.4000000000000001,-5.1000000000000005,3.1,3.1,27.0,-31.400000000000002,-15.100000000000001,16
544,9348.0,2.3000000000000003,-0.30000000000000004,-1.0,-5.800000000000001,3.6,3.1,24.1,-29.600000000000005,-11.2,16
545,9365.0,0.9,0.2,-1.7000000000000002,-7.1000000000000005,4.0,2.5,10.9,-45.2,-5.2,16
546,9382.0,1.0,0.5,-1.7000000000000002,-6.9,4.3,2.6,-16.700000000000003,-47.60000000000001,12.200000000000001,16
547,9398.0,0.30000000000000004,1.5,-1.2000000000000002,-7.5,5.300000000000001,3.3000000000000003,-42.0,-50.1,14.100000000000001,16
548,9414.0,-1.0,1.4000000000000001,-1.3,-8.8,5.2,3.3000000000000003,-67.3,-57.699999999999996,12.0,16
549,9431.0,-1.0,1.4000000000000001,-1.3,-9.5,5.1000000000000005,3.8000000000000003,-79.39999999999999,-68.7,13.8,16
550,9448.0,-2.2,1.2000000000000002,-0.6000000000000001,-10.0,4.4,5.5,-105.5,-86.1,19.6,16
551,9464.0,-2.6,0.7000000000000001,1.3,-10.200000000000001,4.0,6.6000000000000005,-117.7,-99.9,32.400000000000006,16
552,9482.0,-2.7,-0.2,0.6000000000000001,-9.200000000000001,2.4000000000000004,6.6000000000000005,-117.0,-127.69999999999999,40.4,16
553,9498.0,-1.3,-1.6,1.8,-7.1000000000000005,1.1,9.0,-142.3,-114.9,57.00000000000001,16
554,9514.0,0.9,-2.4000000000000004,3.8000000000000003,-4.4,0.2,12.5,-164.1,-81.50000000000001,57.60000000000001,16
555,9533.0,3.4000000000000004,-3.4000000000000004,7.1000000000000005,-2.7,-1.0,15.0,-129.60000000000002,-36.5,22.2,16
556,9548.0,3.2,-3.1,8.4,-3.2,-0.4,15.4,-92.39999999999999,-8.4,-1.0,16
557,9564.0,-0.7000000000000001,-2.6,5.2,-7.2,-0.1,12.100000000000001,-3.0,21.400000000000002,-48.6,16
558,9581.0,-3.5,-2.9000000000000004,2.2,-10.100000000000001,-0.4,9.0,51.4,30.000000000000004,-69.4,16
559,9598.0,-4.4,-1.5,0.1,-11.100000000000001,0.9,6.800000000000001,52.400000000000006,27.5,-56.50000000000001,16
560,9615.0,-4.1000000000000005,0.5,-1.0,-10.9,2.9000000000000004,5.6000000000000005,32.300000000000004,6.699999999999999,-44.5,16
561,9631.0,-4.1000000000000005,0.5,-1.0,-10.600000000000001,3.9000000000000004,5.4,19.300000000000004,-6.1000000000000005,-41.199999999999996,16
562,9648.0,-3.4000000000000004,2.0,-1.7000000000000002,-9.9,4.6000000000000005,4.9,-1.7,-31.7,-33.800000000000004,16
563,9664.0,-3.2,2.4000000000000004,-1.4000000000000001,-9.8,4.7,5.7,1.3,-34.50000000000001,-9.600000000000001,16
564,9681.0,-2.4000000000000004,2.3000000000000003,-1.4000000000000001,-8.0,4.3,5.1000000000000005,16.1,-17.0,11.8,16
565,9698.0,0.0,1.5,-1.8,-5.4,3.7,5.0,35.3,1.5,13.900000000000002,16
566,9714.0,2.3000000000000003,0.9,-2.1,-4.4,3.4000000000000004,4.7,47.1,8.2,10.200000000000001,16
567,9731.0,3.3000000000000003,-0.1,-2.9000000000000004,-3.4000000000000004,2.6,3.8000000000000003,70.8,11.5,0.5,16
568,9748.0,3.2,-0.8,-3.8000000000000003,-3.5,2.1,2.7,84.4,6.4,0.6000000000000001,16
569,9764.0,3.3000000000000003,-1.5,-5.2,-3.4000000000000004,1.6,1.3,77.3,-7.9,14.700000000000001,16
570,9781.0,3.5,-2.1,-5.1000000000000005,-3.1,1.1,1.4000000000000001,51.2,-16.200000000000003,32.5,16
571,9798.0,3.5,-2.1,-5.1000000000000005,-3.0,1.2000000000000002,1.8,35.3,-12.5,40.2,16
572,9814.0,3.9000000000000004,-2.1,-4.0,-2.2,1.2000000000000002,3.2,8.3,5.4,50.7,16
573,9832.0,4.7,-2.0,-1.8,-1.6,2.2,6.4,-1.5,38.400000000000006,40.4,16
574,9848.0,5.1000000000000005,-0.5,1.2000000000000002,-2.2,3.8000000000000003,8.0,-3.3000000000000007,68.80000000000001,-0.8,16
575,9864.0,3.0,0.7000000000000001,1.4000000000000001,-5.9,4.3,7.800000000000001,-2.7,36.9,-45.5,16
576,9881.0,-1.6,0.7000000000000001,2.4000000000000004,-10.200000000000001,4.0,9.200000000000001,2.0,-29.400000000000002,-49.199999999999996,16
577,9898.0,-4.4,1.0,3.6,-11.4,5.0,9.9,13.700000000000001,-90.6,-19.300000000000004,16
578,9914.0,-4.3,2.6,3.1,-10.9,5.9,9.600000000000001,23.800000000000004,-115.3,-7.9,16
579,9931.0,-3.4000000000000004,3.5,2.8000000000000003,-9.700000000000001,6.9,9.600000000000001,42.3,-131.4,5.1000000000000005,16
580,9948.0,-1.6,1.6,2.5,-7.7,5.1000000000000005,9.4,33.50000000000001,-83.4,20.400000000000002,16
581,9964.0,0.0,0.8,2.9000000000000004,-6.0,4.4,9.9,-6.699999999999999,-28.500000000000004,18.900000000000002,16
582,9981.0,0.30000000000000004,-0.30000000000000004,5.2,-5.7,3.3000000000000003,12.200000000000001,-13.399999999999999,6.0,-2.5,16
583,9998.0,0.30000000000000004,-0.30000000000000004,5.2,-5.800000000000001,2.1,12.5,1.6,27.5,-30.599999999999998,16
584,10014.0,0.1,-2.4000000000000004,5.6000000000000005,-6.1000000000000005,0.6000000000000001,12.4,12.0,34.300000000000004,-44.9,16
585,10032.0,-0.4,-3.0,5.0,-6.6000000000000005,0.7000000000000001,10.9,31.5,34.1,-71.19999999999999,16
586,10048.0,-0.1,-2.4000000000000004,2.6,-6.0,1.0,7.9,31.9,14.100000000000001,-94.4,16
587,10064.0,0.8,-2.3000000000000003,0.0,-5.1000000000000005,0.9,6.2,22.000000000000004,-14.700000000000001,-114.3,16
588,10081.0,1.7000000000000002,-1.8,-0.6000000000000001,-4.6000000000000005,1.4000000000000001,6.2,23.800000000000004,-26.200000000000003,-134.20000000000002,16
589,10099.0,1.8,-1.1,-0.30000000000000004,-5.5,2.1,6.800000000000001,45.2,-12.9,-143.4,16
590,10114.0,-0.8,1.0,-0.4,-7.4,3.6,6.300000000000001,62.199999999999996,2.2,-130.1,16
591,10131.0,-3.9000000000000004,2.7,-6.0,-10.600000000000001,5.2,0.7000000000000001,65.2,2.9,-64.9,16
592,10148.0,-0.2,-0.5,-5.0,-7.0,2.1,1.6,50.400000000000006,-19.5,-13.6,16
593,10164.0,4.0,1.0,-4.5,-2.7,3.7,2.1,53.0,-13.8,-5.9,16
594,10181.0,4.800000000000001,-0.5,-3.3000000000000003,-2.0,2.3000000000000003,3.2,46.6,23.099999999999998,-21.200000000000003,16
595,10198.0,4.800000000000001,-0.5,-3.3000000000000003,-2.2,2.2,4.0,45.8,45.9,-30.699999999999996,16
596,10214.0,4.3,-0.4,-1.4000000000000001,-3.2,2.5,5.6000000000000005,56.800000000000004,91.2,-44.7,16
597,10232.0,2.9000000000000004,-0.6000000000000001,-0.4,-5.6000000000000005,2.2,5.4,68.1,121.0,-44.2,16
598,10248.0,0.5,-0.5,-1.2000000000000002,-7.9,2.6,3.5,61.9,104.9,-33.1,16
599,10264.0,-0.9,0.0,-2.8000000000000003,-8.9,3.4000000000000004,2.3000000000000003,25.7,51.800000000000004,-19.700000000000003,16
600,10281.0,-1.6,1.0,-2.7,-9.3,3.9000000000000004,2.7,-24.900000000000002,17.799999999999997,-11.3,16
601,10298.0,-3.8000000000000003,2.7,1.8,-11.5,5.5,7.2,-23.5,26.1,-0.4,16
602,10314.0,-4.800000000000001,1.9000000000000001,-0.4,-12.600000000000001,4.7,4.9,-23.700000000000003,31.6,22.6,16
603,10331.0,-5.0,2.8000000000000003,-1.8,-12.8,5.7,3.4000000000000004,-47.5,14.100000000000001,42.1,16
604,10348.0,-4.6000000000000005,1.7000000000000002,-0.9,-12.3,4.6000000000000005,4.5,-106.9,-4.9,63.8,16
605,10365.0,-2.2,0.7000000000000001,3.5,-9.8,3.5,9.0,-152.3,-3.6000000000000005,81.4,16
606,10381.0,-2.2,0.7000000000000001,3.5,-8.9,3.3000000000000003,11.3,-155.9,5.7,89.9,16
607,10398.0,-0.8,0.4,7.800000000000001,-8.0,2.8000000000000003,14.700000000000001,-141.2,7.699999999999999,84.80000000000001,16
608,10415.0,-0.30000000000000004,-0.5,9.600000000000001,-7.800000000000001,1.4000000000000001,15.3,-79.00000000000001,-8.3,56.10000000000001,16
609,10431.0,-0.7000000000000001,-2.2,8.5,-8.5,-0.2,13.100000000000001,11.6,-39.400000000000006,19.6,16
610,10448.0,-1.0,-2.8000000000000003,5.800000000000001,-7.800000000000001,0.30000000000000004,9.600000000000001,67.5,-37.1,-5.0,16
611,10464.0,-0.30000000000000004,-2.3000000000000003,2.0,-7.5,1.0,6.5,67.00000000000001,-15.700000000000001,-16.900000000000002,16
612,10484.0,-0.30000000000000004,-1.5,-0.8,-7.6000000000000005,1.7000000000000002,4.1000000000000005,40.6,-16.3,-25.900000000000002,16
613,10498.0,-0.5,-1.3,-2.3000000000000003,-7.7,1.6,3.7,30.4,-29.0,-28.0,16
614,10514.0,-0.1,-1.1,-1.9000000000000001,-7.300000000000001,1.8,4.1000000000000005,26.700000000000003,-50.0,-22.9,16
615,10532.0,1.0,-0.6000000000000001,-2.4000000000000004,-6.1000000000000005,2.3000000000000003,3.6,34.0,-48.50000000000001,-12.9,16
616,10548.0,2.1,-0.4,-3.4000000000000004,-4.9,2.6,2.7,35.8,-33.400000000000006,-5.7,16
617,10564.0,2.1,-0.4,-3.4000000000000004,-4.5,3.0,2.4000000000000004,32.2,-12.100000000000001,-0.4,16
618,10583.0,2.6,-0.2,-4.1000000000000005,-4.4,3.0,2.0,27.2,8.700000000000001,8.5,16
619,10598.0,2.6,-0.2,-4.1000000000000005,-4.2,2.8000000000000003,1.6,24.3,13.5,12.4,16
620,10614.0,3.1,-0.6000000000000001,-4.6000000000000005,-3.7,2.5,1.4000000000000001,17.7,8.2,14.800000000000002,16
621,10631.0,3.5,-0.9,-4.4,-3.5,2.4000000000000004,1.7000000000000002,11.5,-0.9000000000000001,17.799999999999997,16
622,10649.0,3.7,-1.0,-4.2,-3.4000000000000004,2.5,2.0,3.1,-10.4,17.6,16
623,10665.0,3.3000000000000003,-0.8,-3.6,-4.1000000000000005,2.8000000000000003,3.2,-12.600000000000001,-12.8,18.900000000000002,16
624,10681.0,2.5,-0.4,-1.7000000000000002,-4.5,3.0,4.3,-20.8,-10.0,20.2,16
625,10698.0,1.7000000000000002,0.4,1.0,-5.2,3.9000000000000004,7.1000000000000005,-30.000000000000004,0.2,15.899999999999999,16
626,10715.0,0.4,1.2000000000000002,2.7,-6.5,4.6000000000000005,8.8,-28.700000000000003,-3.0,3.6000000000000005,16
627,10731.0,-1.1,1.4000000000000001,3.4000000000000004,-8.0,4.7,9.600000000000001,-22.5,-41.50000000000001,-9.899999999999999,16
628,10748.0,-2.5,1.3,4.6000000000000005,-9.200000000000001,4.5,11.0,-5.500000000000001,-89.0,-20.5,16
629,10764.0,-2.5,1.3,4.6000000000000005,-9.1,5.0,11.4,8.4,-103.7,-25.5,16
630,10781.0,-3.0,2.5,5.2,-10.5,8.700000000000001,13.8,66.60000000000001,-92.0,-33.300000000000004,16
631,10798.0,-5.2,3.2,3.0,-12.4,2.1,5.9,74.4,-43.300000000000004,-33.400000000000006,16
632,10814.0,-4.7,-0.7000000000000001,-0.8,-9.4,4.5,6.800000000000001,7.699999999999999,-22.000000000000004,-18.200000000000003,16
633,10831.0,-2.9000000000000004,1.3,2.5,-9.8,3.5,11.0,-15.100000000000001,-7.500000000000001,-21.900000000000002,16
634,10848.0,-3.9000000000000004,-1.3,4.6000000000000005,-10.200000000000001,0.7000000000000001,11.600000000000001,-5.0,5.300000000000001,-17.7,16
635,10864.0,-3.2,-3.0,4.9,-9.600000000000001,0.2,11.600000000000001,5.7,11.4,-11.900000000000002,16
636,10881.0,-1.6,-3.0,3.2,-8.0,0.30000000000000004,9.9,19.9,21.500000000000004,-10.200000000000001,16
637,10898.0,-0.1,-3.1,0.8,-6.5,0.1,7.4,8.3,17.1,-14.200000000000001,16
638,10914.0,1.6,-2.8000000000000003,-0.5,-4.9,0.4,6.1000000000000005,-11.2,-4.6,-17.799999999999997,16
639,10931.0,3.3000000000000003,-1.8,-1.1,-3.1,1.3,5.6000000000000005,-21.0,-23.099999999999998,-30.000000000000004,16
640,10948.0,3.3000000000000003,-1.8,-1.1,-2.5,2.1,5.4,-20.900000000000002,-26.300000000000004,-39.8,16
641,10965.0,3.9000000000000004,-0.8,-1.4000000000000001,-2.8000000000000003,2.4000000000000004,5.2,-11.1,-18.700000000000003,-57.800000000000004,16
642,10981.0,3.0,-0.1,-1.9000000000000001,-4.3,3.2,4.2,7.500000000000001,-6.699999999999999,-60.8,16
643,10998.0,1.0,1.4000000000000001,-3.8000000000000003,-6.800000000000001,4.2,2.0,14.900000000000002,-10.200000000000001,-39.1,16
644,11014.0,-0.8,1.3,-4.800000000000001,-6.6000000000000005,3.1,2.1,12.9,-13.900000000000002,-5.8,16
645,11032.0,1.3,0.30000000000000004,-4.1000000000000005,-3.8000000000000003,3.5,3.3000000000000003,15.399999999999999,1.4,13.000000000000002,16
646,11048.0,3.4000000000000004,0.7000000000000001,-3.2,-3.1,3.5,3.6,18.0,14.5,12.5,16
647,11064.0,3.0,-0.1,-3.0,-3.6,2.7,3.7,20.5,31.2,5.0,16
648,11081.0,1.9000000000000001,-0.8,-3.3000000000000003,-4.7,2.1,3.4000000000000004,13.700000000000001,25.900000000000002,3.8,16
649,11098.0,1.2000000000000002,-0.9,-2.6,-5.5,2.1,4.0,-6.9,4.0,3.8,16
650,11118.0,0.30000000000000004,-0.6000000000000001,-0.9,-6.300000000000001,2.3000000000000003,5.7,-32.2,-11.6,1.4,16
651,11131.0,-0.4,-0.6000000000000001,1.1,-7.0,2.2,7.800000000000001,-45.400000000000006,-9.3,3.7000000000000006,16
652,11148.0,-0.4,-0.6000000000000001,1.1,-7.300000000000001,2.4000000000000004,8.6,-46.1,-4.7,3.8,16
653,11164.0,-1.1,0.30000000000000004,2.5,-8.200000000000001,3.5,9.5,-40.0,8.0,-6.699999999999999,16
654,11182.0,-2.3000000000000003,1.1,2.7,-9.8,3.8000000000000003,9.3,-32.0,8.4,-14.300000000000002,16
655,11198.0,-3.8000000000000003,1.3,1.9000000000000001,-10.8,3.8000000000000003,7.9,-40.2,-1.3,-8.899999999999999,16
656,11214.0,-4.2,1.5,0.5,-10.600000000000001,3.9000000000000004,7.300000000000001,-84.6,-6.600000000000001,9.899999999999999,16
657,11231.0,-3.6,1.8,1.2000000000000002,-10.200000000000001,4.0,8.1,-109.2,-12.299999999999999,23.5,16
658,11248.0,-2.0,1.7000000000000002,4.9,-8.5,3.7,11.9,-130.70000000000002,-15.399999999999999,44.5,16
659,11264.0,0.1,1.2000000000000002,7.7,-6.4,3.0,14.700000000000001,-111.50000000000001,9.0,36.9,16
660,11281.0,0.5,0.1,7.800000000000001,-6.1000000000000005,1.8,14.9,-50.1,32.9,15.299999999999999,16
661,11299.0,-0.4,-1.6,5.2,-7.1000000000000005,0.1,12.200000000000001,21.8,39.9,-4.800000000000001,16
662,11315.0,-0.4,-1.8,0.7000000000000001,-7.2,0.0,7.6000000000000005,49.50000000000001,39.9,-14.300000000000002,16
663,11331.0,-0.4,-1.8,0.7000000000000001,-7.300000000000001,0.0,6.0,43.1,34.7,-15.5,16
664,11349.0,-0.7000000000000001,-1.7000000000000002,-1.6,-7.9,0.30000000000000004,5.0,12.5,20.5,-13.700000000000001,16
665,11365.0,-1.2000000000000002,-1.3,-1.5,-8.1,0.6000000000000001,5.7,-10.700000000000001,6.9,-7.200000000000001,16
666,11381.0,-1.0,-1.0,-0.5,-7.5,1.0,6.6000000000000005,-10.1,1.9,0.6000000000000001,16
667,11398.0,0.0,-0.5,-0.2,-6.300000000000001,1.4000000000000001,6.4,4.800000000000001,1.2000000000000002,5.300000000000001,16
668,11414.0,1.1,-0.1,-0.6000000000000001,-5.7,1.7000000000000002,6.1000000000000005,19.799999999999997,2.5,5.7,16
669,11431.0,1.8,0.1,-1.1,-5.1000000000000005,1.9000000000000001,5.6000000000000005,26.6,4.6,5.7,16
670,11448.0,1.9000000000000001,-0.1,-1.9000000000000001,-5.0,1.8,4.800000000000001,40.4,11.1,11.2,16
671,11469.0,2.2,-0.2,-3.2,-4.6000000000000005,1.8,2.6,49.50000000000001,9.8,26.400000000000006,16
672,11486.0,2.5,-0.5,-4.3,-4.4,1.7000000000000002,2.2,47.3,5.300000000000001,31.5,16
673,11498.0,3.4000000000000004,-0.5,-4.5,-3.5,1.9000000000000001,2.0,42.5,0.4,36.6,16
674,11514.0,3.4000000000000004,-0.5,-4.5,-2.9000000000000004,2.1,1.9000000000000001,39.400000000000006,2.5,33.400000000000006,16
675,11533.0,4.4,-0.4,-3.8000000000000003,-2.5,2.3000000000000003,2.6,33.50000000000001,19.1,25.7,16
676,11548.0,4.4,-0.4,-3.8000000000000003,-2.6,2.7,3.1,28.700000000000003,34.0,19.700000000000003,16
677,11564.0,3.8000000000000003,0.1,-2.5,-4.0,3.3000000000000003,4.7,20.400000000000002,68.5,6.0,16
678,11581.0,2.1,1.0,-0.7000000000000001,-6.1000000000000005,4.3,5.300000000000001,13.5,100.9,-3.2,16
679,11597.0,-0.1,1.4000000000000001,-0.8,-8.700000000000001,4.2,5.0,-3.4,96.20000000000002,-2.0,16
680,11614.0,-2.4000000000000004,1.3,-0.5,-9.9,4.2,5.2,-15.299999999999999,79.9,-0.6000000000000001,16
681,11632.0,-3.4000000000000004,0.9,0.7000000000000001,-10.9,3.8000000000000003,6.300000000000001,-36.7,25.8,0.0,16
682,11652.0,-3.4000000000000004,1.0,3.5,-11.0,3.5,10.100000000000001,-10.8,-41.199999999999996,-17.300000000000004,16
683,11665.0,-3.7,0.2,4.800000000000001,-11.200000000000001,2.9000000000000004,10.600000000000001,3.6000000000000005,-36.0,-23.5,16
684,11681.0,-4.2,-0.2,5.9,-11.600000000000001,2.5,11.600000000000001,17.0,16.4,-29.300000000000004,16
685,11698.0,-4.5,-0.30000000000000004,5.4,-12.100000000000001,2.3000000000000003,11.0,26.5,58.5,-32.6,16
686,11714.0,-4.5,-0.30000000000000004,5.4,-12.4,1.6,10.600000000000001,33.0,63.0,-31.5,16
687,11732.0,-4.6000000000000005,-1.8,4.800000000000001,-11.8,0.5,9.9,42.400000000000006,60.00000000000001,-20.7,16
688,11748.0,-2.9000000000000004,-2.2,4.2,-9.700000000000001,0.4,9.0,44.300000000000004,55.5,-18.8,16
689,11764.0,-0.9,-2.2,3.3000000000000003,-8.0,0.4,7.6000000000000005,40.5,43.1,-30.9,16
690,11781.0,1.0,-2.2,1.8,-6.2,0.5,6.2,30.5,18.4,-48.50000000000001,16
691,11798.0,2.9000000000000004,-1.9000000000000001,0.9,-4.3,0.9,5.800000000000001,24.200000000000003,-10.0,-70.10000000000001,16
692,11814.0,4.5,-1.0,1.0,-3.6,1.3,6.0,28.0,-20.5,-81.90000000000002,16
693,11833.0,4.4,-0.1,0.9,-3.7,2.0,6.0,48.0,-27.800000000000004,-103.8,16
694,11848.0,3.0,-0.30000000000000004,0.2,-5.2,1.7000000000000002,5.2,74.0,-12.100000000000001,-105.80000000000001,16
695,11864.0,3.2,0.2,-1.5,-5.1000000000000005,2.1,3.4000000000000004,96.5,3.5,-90.80000000000001,16
696,11881.0,3.8000000000000003,0.2,-2.8000000000000003,-4.5,2.1,2.1,108.2,7.300000000000001,-79.19999999999999,16
697,11898.0,3.8000000000000003,0.2,-2.8000000000000003,-4.2,2.0,1.6,110.10000000000001,7.9,-74.7,16
698,11914.0,4.5,0.0,-3.5,-3.6,1.7000000000000002,1.0,109.50000000000001,12.9,-67.4,16
699,11932.0,4.9,-0.4,-3.8000000000000003,-3.5,1.4000000000000001,0.7000000000000001,102.4,25.900000000000002,-64.80000000000001,16
700,11948.0,5.0,-0.6000000000000001,-4.1000000000000005,-3.7,1.0,0.4,84.69999999999999,43.800000000000004,-72.4,16
701,11965.0,4.5,-0.8,-3.6,-5.0,0.9,1.2000000000000002,61.8,64.7,-84.69999999999999,16
702,11981.0,2.4000000000000004,-0.5,-2.5,-8.1,1.2000000000000002,1.9000000000000001,40.1,85.1,-86.60000000000001,16
703,11998.0,-1.0,0.0,-2.1,-10.0,1.3,1.7000000000000002,25.6,88.50000000000001,-81.0,16
704,12014.0,-4.4,-0.30000000000000004,-2.1,-13.4,0.9,1.5,-11.8,66.2,-55.7,16
705,12032.0,-5.9,-0.4,-0.30000000000000004,-14.9,0.7000000000000001,3.2,-43.300000000000004,18.6,-27.099999999999998,16
706,12047.0,-5.2,0.5,2.0,-14.3,1.4000000000000001,5.5,-44.5,-20.0,-11.2,16
707,12064.0,-4.7,0.8,1.8,-13.8,1.7000000000000002,5.4,-29.500000000000004,-31.3,-8.100000000000001,16
708,12081.0,-4.4,1.0,0.4,-13.5,1.8,4.2,-40.300000000000004,-16.6,-7.500000000000001,16
709,12097.0,-4.4,1.0,0.4,-13.3,1.7000000000000002,4.2,-59.9,-3.5,-2.6,16
710,12114.0,-4.0,1.1,0.5,-12.700000000000001,2.0,4.800000000000001,-110.5,16.3,15.299999999999999,16
711,12133.0,-3.5,1.0,2.8000000000000003,-12.200000000000001,1.3,8.1,-126.70000000000002,19.0,23.099999999999998,16
712,12148.0,-2.9000000000000004,0.2,5.5,-11.8,0.2,9.9,-88.9,16.200000000000003,22.3,16
713,12164.0,-2.7,-1.1,6.300000000000001,-11.700000000000001,-0.5,10.0,-54.699999999999996,12.7,20.400000000000002,16
714,12181.0,-2.5,-2.5,4.5,-11.600000000000001,-1.9000000000000001,8.1,34.400000000000006,9.100000000000001,16.1,16
715,12198.0,-1.4000000000000001,-2.7,1.1,-10.4,-2.0,4.7,41.6,9.3,15.399999999999999,16
716,12215.0,-0.4,-2.1,-0.4,-9.5,-1.3,3.2,35.3,8.700000000000001,14.400000000000002,16
717,12232.0,0.2,-1.8,-1.3,-8.9,-1.0,2.2,22.8,0.30000000000000004,11.000000000000002,16
718,12249.0,1.2000000000000002,-1.5,-1.9000000000000001,-7.9,-0.7000000000000001,1.7000000000000002,16.0,-15.000000000000002,6.500000000000001,16
719,12265.0,2.4000000000000004,-1.0,-2.4000000000000004,-6.6000000000000005,-0.2,1.2000000000000002,11.2,-28.3,4.4,16
720,12281.0,2.4000000000000004,-1.0,-2.4000000000000004,-6.1000000000000005,0.1,1.1,9.899999999999999,-33.2,4.4,16
721,12301.0,4.3,-0.5,-2.9000000000000004,-4.7,0.4,1.0,8.600000000000001,-38.1,4.1,16
722,12315.0,4.3,-0.5,-2.9000000000000004,-4.2,0.4,0.9,8.4,-36.7,3.4,16
723,12334.0,5.1000000000000005,-0.4,-3.0,-3.5,0.6000000000000001,1.0,7.400000000000001,-30.4,-0.2,16
724,12348.0,5.5,-0.2,-2.9000000000000004,-3.7,1.0,1.1,0.1,-17.300000000000004,-7.400000000000001,16
725,12364.0,4.4,0.5,-3.2,-5.7,1.5,0.8,-19.400000000000002,-12.299999999999999,-4.2,16
726,12381.0,1.5,0.6000000000000001,-2.5,-7.300000000000001,1.5,1.6,-31.400000000000002,-14.700000000000001,7.400000000000001,16
727,12397.0,-0.5,0.8,-0.9,-9.3,1.8,3.3000000000000003,-47.80000000000001,-31.9,49.9,16
728,12414.0,-0.8,1.7000000000000002,0.0,-9.600000000000001,2.8000000000000003,4.4,-52.00000000000001,-68.2,86.7,16
729,12434.0,-0.8,2.0,-0.1,-9.3,3.3000000000000003,4.6000000000000005,-65.2,-116.6,105.10000000000001,16
730,12448.0,-1.0,2.4000000000000004,1.3,-9.200000000000001,3.9000000000000004,6.5,-82.39999999999999,-167.50000000000003,109.39999999999999,16
731,12464.0,-1.0,2.4000000000000004,1.3,-9.1,4.1000000000000005,7.9,-83.10000000000001,-178.9,108.8,16
732,12481.0,-0.9,2.8000000000000003,3.8000000000000003,-8.3,5.0,11.5,-71.6,-169.1,104.7,16
733,12497.0,-0.8,4.2,8.0,-9.200000000000001,6.1000000000000005,15.200000000000001,15.2,-116.5,78.10000000000001,16
734,12514.0,-3.6,2.6,6.7,-12.5,2.8000000000000003,8.6,105.7,-84.2,68.9,16
735,12534.0,-6.2,-0.6000000000000001,-1.3,-12.8,2.3000000000000003,3.8000000000000003,65.2,-104.4,110.6,16
736,12547.0,-4.9,0.4,-1.9000000000000001,-10.100000000000001,3.4000000000000004,6.300000000000001,-27.5,-112.60000000000001,139.8,16
737,12564.0,-2.5,0.1,0.7000000000000001,-8.9,3.0,7.5,-67.7,-103.3,139.5,16
738,12581.0,-1.0,-1.1,2.9000000000000004,-7.1000000000000005,1.8,10.0,-122.79999999999998,-78.10000000000001,114.99999999999999,16
739,12598.0,-0.30000000000000004,-2.5,4.9,-6.1000000000000005,0.30000000000000004,12.3,-139.9,-47.900000000000006,69.10000000000001,16
740,12614.0,0.0,-3.2,5.6000000000000005,-5.800000000000001,-0.7000000000000001,13.200000000000001,-115.10000000000002,-28.800000000000004,21.900000000000002,16
741,12633.0,-0.5,-3.5,4.0,-6.1000000000000005,-1.1,11.700000000000001,-63.500000000000014,-33.300000000000004,-3.7000000000000006,16
742,12649.0,-0.7000000000000001,-3.8000000000000003,1.8,-6.2,-1.6,9.5,-13.900000000000002,-57.800000000000004,-8.600000000000001,16
743,12664.0,-0.7000000000000001,-3.8000000000000003,1.8,-5.7,-1.5,8.6,5.0,-68.1,-7.300000000000001,16
744,12681.0,0.6000000000000001,-3.3000000000000003,0.0,-3.7,-0.5,7.0,28.200000000000003,-72.60000000000001,-11.3,16
745,12697.0,2.4000000000000004,-2.4000000000000004,-1.8,-2.2,0.2,5.4,34.900000000000006,-60.00000000000001,-26.700000000000003,16
746,12715.0,3.1,-1.9000000000000001,-3.2,-1.8,0.4,4.6000000000000005,32.8,-46.9,-44.4,16
747,12733.0,3.2,-1.8,-3.7,-2.0,0.6000000000000001,4.3,37.7,-35.599999999999994,-59.20000000000001,16
748,12748.0,2.5,-1.7000000000000002,-4.0,-2.8000000000000003,0.6000000000000001,3.9000000000000004,50.900000000000006,-27.400000000000002,-64.10000000000001,16
749,12764.0,1.6,-1.7000000000000002,-4.5,-3.4000000000000004,0.7000000000000001,3.6,55.2,-22.9,-62.1,16
750,12781.0,0.8,-1.8,-5.2,-4.1000000000000005,0.6000000000000001,2.9000000000000004,54.199999999999996,-15.399999999999999,-50.3,16
751,12798.0,0.8,-1.5,-5.1000000000000005,-4.2,1.0,3.0,45.400000000000006,-4.5,-38.60000000000001,16
752,12816.0,1.1,-1.0,-5.0,-3.9000000000000004,1.5,3.1,30.699999999999996,10.8,-35.4,16
753,12836.0,1.1,-0.4,-4.800000000000001,-4.1000000000000005,2.1,3.2,12.200000000000001,24.7,-38.300000000000004,16
754,12848.0,1.1,-0.4,-4.800000000000001,-4.5,2.2,3.2,0.9000000000000001,29.0,-39.1,16
755,12864.0,0.2,-0.1,-4.1000000000000005,-5.9,2.4000000000000004,4.6000000000000005,-28.200000000000003,43.300000000000004,-35.599999999999994,16
756,12882.0,-1.4000000000000001,0.2,-2.7,-7.5,2.4000000000000004,5.9,-57.800000000000004,50.60000000000001,-18.0,16
757,12898.0,-2.6,0.4,-0.7000000000000001,-8.700000000000001,2.7,8.6,-71.0,44.2,-0.1,16
758,12917.0,-3.7,0.9,1.9000000000000001,-10.200000000000001,2.6,10.3,-65.3,39.8,9.3,16
759,12936.0,-5.2,0.6000000000000001,2.9000000000000004,-11.600000000000001,2.0,11.100000000000001,-75.9,49.0,28.900000000000002,16
760,12948.0,-5.800000000000001,-0.30000000000000004,3.6,-11.700000000000001,1.3,11.3,-95.9,50.8,51.4,16
761,12964.0,-3.7,-1.5,5.5,-9.600000000000001,0.0,13.200000000000001,-143.5,34.900000000000006,102.60000000000001,16
762,12981.0,-0.4,-0.8,8.5,-6.300000000000001,0.5,16.2,-149.20000000000002,12.600000000000001,108.50000000000001,16
763,12997.0,1.3,-0.7000000000000001,9.8,-4.6000000000000005,0.5,17.6,-89.4,-10.1,69.3,16
764,13015.0,0.0,-1.0,8.3,-5.800000000000001,0.2,16.1,6.500000000000001,-18.900000000000002,20.0,16
765,13031.0,0.0,-1.0,8.3,-7.5,-0.5,10.9,59.1,-15.5,-3.2,16
766,13048.0,-1.8,-1.8,3.1,-7.7,-0.2,9.1,63.30000000000001,-17.799999999999997,-5.4,16
767,13064.0,-1.9000000000000001,-1.3,-0.30000000000000004,-7.300000000000001,0.2,6.5,41.0,-30.200000000000003,-1.6,16
768,13081.0,-1.4000000000000001,-1.0,-1.7000000000000002,-6.6000000000000005,1.2000000000000002,6.300000000000001,3.7000000000000006,-38.0,1.5,16
769,13097.0,-0.6000000000000001,0.2,-2.0,-5.7,2.0,6.1000000000000005,-10.299999999999999,-44.2,0.9000000000000001,16
770,13117.0,0.0,0.7000000000000001,-1.5,-5.1000000000000005,2.3000000000000003,6.1000000000000005,-1.7,-41.4,1.6,16
771,13131.0,0.4,0.8,-2.7,-4.9,2.4000000000000004,5.4,4.1,-40.300000000000004,4.6,16
772,13147.0,0.8,0.9,-3.7,-4.4,2.5,4.5,11.000000000000002,-37.300000000000004,13.200000000000003,16
773,13164.0,1.2000000000000002,0.7000000000000001,-4.5,-3.9000000000000004,2.4000000000000004,3.7,12.7,-34.300000000000004,22.9,16
774,13181.0,1.7000000000000002,0.30000000000000004,-4.9,-3.3000000000000003,2.1,3.3000000000000003,10.9,-33.1,35.5,16
775,13197.0,2.3000000000000003,0.1,-5.5,-2.6,2.0,2.8000000000000003,6.600000000000001,-38.2,47.400000000000006,16
776,13216.0,3.2,-0.2,-5.300000000000001,-1.6,1.7000000000000002,3.1,-6.0,-51.70000000000001,51.9,16
777,13233.0,3.3000000000000003,0.0,-4.3,-1.2000000000000002,2.0,4.2,-18.3,-65.4,48.10000000000001,16
778,13247.0,3.3000000000000003,0.0,-4.3,-1.1,2.1,5.1000000000000005,-23.5,-64.50000000000001,45.7,16
779,13264.0,3.2,0.30000000000000004,-2.5,-1.2000000000000002,2.1,7.1000000000000005,-30.4,-44.8,43.00000000000001,16
780,13281.0,3.0,0.1,-0.5,-1.1,1.9000000000000001,9.200000000000001,-25.8,-16.5,43.6,16
781,13297.0,3.2,0.1,1.3,-1.1,2.0,10.4,-14.200000000000001,-1.2000000000000002,34.400000000000006,16
782,13314.0,2.8000000000000003,0.30000000000000004,2.0,-1.3,2.7,11.200000000000001,-1.5,-20.599999999999998,-2.4000000000000004,16
783,13331.0,2.2,0.9,3.3000000000000003,-1.8,2.8000000000000003,12.0,5.0,-40.7,-29.300000000000004,16
784,13348.0,-0.5,0.9,4.800000000000001,-4.4,2.8000000000000003,13.600000000000001,24.3,-66.4,-64.0,16
785,13364.0,-3.7,0.5,4.4,-7.4,2.4000000000000004,13.3,51.9,-73.6,-72.10000000000001,16
786,13381.0,-4.5,-0.5,4.0,-8.0,1.6,12.9,57.800000000000004,-52.5,-45.6,16
787,13397.0,-2.5,-0.6000000000000001,3.1,-6.0,1.5,12.0,29.400000000000002,-8.600000000000001,-9.899999999999999,16
788,13415.0,-1.6,-1.5,4.4,-5.2,0.7000000000000001,13.200000000000001,2.9,21.1,-7.0,16
789,13431.0,-1.6,-1.5,4.4,-5.0,0.1,14.3,0.5,33.400000000000006,-10.9,16
790,13448.0,-1.3,-2.5,6.1000000000000005,-5.300000000000001,-0.5,14.600000000000001,3.9,60.2,-20.5,16
791,13464.0,-1.9000000000000001,-3.1,5.0,-6.1000000000000005,-1.0,12.700000000000001,3.5,59.40000000000001,-28.900000000000002,16
792,13482.0,-2.1,-2.9000000000000004,2.6,-6.1000000000000005,-0.6000000000000001,10.0,-0.8,19.300000000000004,-36.6,16
793,13497.0,-1.6,-2.2,0.5,-4.6000000000000005,0.8,8.5,-0.4,-15.899999999999999,-39.0,16
794,13514.0,0.4,-0.4,-1.2000000000000002,-3.7,1.5,7.5,3.3000000000000007,-18.6,-41.7,16
795,13531.0,1.8,0.6000000000000001,-2.7,-2.3000000000000003,2.5,6.0,9.2,-1.9,-47.900000000000006,16
796,13547.0,2.6,1.1,-4.3,-1.5,3.0,4.3,11.1,29.600000000000005,-48.300000000000004,16
797,13564.0,2.6,1.8,-3.9000000000000004,-1.8,3.7,4.7,13.5,69.3,-53.0,16
798,13581.0,1.5,1.3,-4.9,-3.1,3.1,3.5,22.2,80.30000000000001,-45.9,16
799,13597.0,1.5,1.3,-4.9,-3.4000000000000004,2.6,2.8000000000000003,12.4,54.1,-26.5,16
800,13614.0,1.4000000000000001,0.8,-5.6000000000000005,-3.2,2.4000000000000004,3.1,6.300000000000001,37.300000000000004,-19.5,16
801,13631.0,2.0,0.2,-4.5,-2.6,1.8,5.0,5.9,18.900000000000002,-14.200000000000001,16
802,13648.0,2.7,-0.5,-1.5,-2.1,1.3,7.9,26.000000000000004,59.9,-18.700000000000003,16
803,13664.0,3.1,-0.6000000000000001,0.30000000000000004,-2.3000000000000003,1.2000000000000002,8.3,59.300000000000004,124.8,-33.400000000000006,16
804,13681.0,2.9000000000000004,-0.8,0.2,-3.3000000000000003,1.8,6.800000000000001,81.7,173.7,-51.6,16
805,13698.0,0.6000000000000001,-0.5,-2.2,-8.0,1.5,3.9000000000000004,56.800000000000004,160.50000000000003,-50.5,16
806,13714.0,-2.9000000000000004,0.0,-4.4,-9.3,2.1,2.7,24.599999999999998,114.6,-35.4,16
807,13731.0,-4.5,-1.8,-2.0,-10.9,0.30000000000000004,5.1000000000000005,-46.6,-16.700000000000003,1.7,16
808,13747.0,-1.5,0.0,2.3000000000000003,-7.7,1.9000000000000001,9.600000000000001,-70.10000000000001,-108.8,-3.0,16
809,13764.0,-1.3,0.30000000000000004,5.2,-7.300000000000001,2.0,12.8,-44.2,-111.0,-25.300000000000004,16
810,13781.0,-3.3000000000000003,0.6000000000000001,5.5,-9.1,2.2,13.200000000000001,-8.100000000000001,-49.4,-16.1,16
811,13797.0,-3.3000000000000003,0.6000000000000001,5.5,-9.5,2.3000000000000003,12.3,-4.1,-7.1000000000000005,-1.3,16
812,13814.0,-3.9000000000000004,0.7000000000000001,2.8000000000000003,-9.700000000000001,2.0,9.200000000000001,-36.7,27.400000000000002,43.900000000000006,16
813,13831.0,-2.8000000000000003,0.1,1.4000000000000001,-7.1000000000000005,1.5,10.600000000000001,-73.5,-19.799999999999997,77.60000000000001,16
814,13848.0,0.1,-0.4,4.6000000000000005,-4.1000000000000005,0.9,13.4,-59.20000000000001,-59.80000000000001,69.9,16
815,13864.0,2.5,-0.8,6.0,-3.0,0.5,13.9,-11.1,-55.7,26.5,16
816,13881.0,1.5,-1.4000000000000001,4.9,-5.0,0.1,11.3,31.3,-19.5,-14.200000000000001,16
817,13898.0,-1.3,-1.7000000000000002,1.2000000000000002,-6.6000000000000005,-0.1,9.3,35.0,-1.9,-26.400000000000006,16
818,13914.0,-3.1,-1.5,-0.9,-8.6,0.2,7.1000000000000005,10.8,14.300000000000002,-22.700000000000003,16
819,13931.0,-2.4000000000000004,-1.1,-1.6,-7.800000000000001,0.5,6.4,-28.3,-3.2,1.6,16
820,13948.0,-0.2,-0.30000000000000004,0.0,-5.6000000000000005,1.2000000000000002,8.1,-36.300000000000004,-40.0,6.4,16
821,13964.0,1.2000000000000002,0.4,0.1,-4.0,1.9000000000000001,8.3,-15.000000000000002,-47.3,-4.6,16
822,13981.0,1.5,0.7000000000000001,-1.3,-3.6,2.2,6.9,6.300000000000001,-33.50000000000001,-14.700000000000001,16
823,13999.0,1.5,0.7000000000000001,-1.3,-3.8000000000000003,2.3000000000000003,5.5,20.8,-20.599999999999998,-17.1,16
824,14015.0,1.3,0.8,-2.8000000000000003,-4.0,2.2,4.9,26.1,-16.1,-14.100000000000001,16
825,14031.0,1.0,0.7000000000000001,-3.8000000000000003,-4.1000000000000005,2.1,4.0,35.0,-2.3,0.1,16
826,14048.0,1.1,0.4,-4.7,-3.6,1.8,3.4000000000000004,40.9,20.8,17.400000000000002,16
827,14064.0,2.1,-0.1,-4.7,-2.3000000000000003,1.8,3.7,49.199999999999996,69.00000000000001,27.700000000000003,16
828,14081.0,3.8000000000000003,-0.30000000000000004,-4.1000000000000005,-1.5,1.7000000000000002,3.9000000000000004,64.80000000000001,129.20000000000002,18.3,16
829,14097.0,4.9,-0.30000000000000004,-2.3000000000000003,-0.8,1.9000000000000001,5.300000000000001,72.60000000000001,164.6,7.300000000000001,16
830,14114.0,4.1000000000000005,0.0,-1.2000000000000002,-2.1,2.4000000000000004,6.0,90.4,240.9,-12.9,16
831,14131.0,2.3000000000000003,-0.2,-2.0,-4.5,2.4000000000000004,4.6000000000000005,97.10000000000001,276.1,-18.6,16
832,14148.0,0.30000000000000004,-0.4,-3.0,-7.1000000000000005,2.3000000000000003,2.9000000000000004,78.3,244.60000000000002,-11.3,16
833,14165.0,-0.30000000000000004,-0.1,-0.9,-8.0,2.7,4.5,56.300000000000004,181.40000000000003,-4.300000000000001,16
834,14181.0,-0.30000000000000004,-0.1,-0.9,-8.1,3.3000000000000003,5.9,55.0,160.70000000000002,-10.700000000000001,16
835,14198.0,-0.4,1.0,1.6,-9.1,4.0,6.7,76.3,125.10000000000001,-35.1,16
836,14214.0,-1.9000000000000001,0.8,1.6,-10.9,3.5,6.0,91.50000000000001,98.2,-56.300000000000004,16
837,14231.0,-3.3000000000000003,0.4,1.9000000000000001,-12.3,2.7,6.1000000000000005,66.9,101.7,-69.7,16
838,14247.0,-4.6000000000000005,-0.2,1.9000000000000001,-14.200000000000001,2.3000000000000003,6.300000000000001,20.5,97.3,-78.5,16
839,14264.0,-6.1000000000000005,-0.8,3.7,-15.5,0.9,8.1,-7.500000000000001,90.19999999999999,-87.89999999999999,16
840,14281.0,-6.300000000000001,-1.2000000000000002,4.9,-15.200000000000001,1.0,8.3,-11.8,85.0,-91.50000000000001,16
841,14298.0,-6.9,-3.5,5.7,-16.0,-1.6,8.9,-3.2,69.3,-94.5,16
842,14314.0,-7.9,-3.9000000000000004,5.0,-17.0,-2.3000000000000003,8.1,30.000000000000004,26.6,-79.39999999999999,16
843,14332.0,-4.9,-2.3000000000000003,2.9000000000000004,-14.0,-0.8,6.0,75.3,-39.599999999999994,-53.300000000000004,16
844,14348.0,-1.3,-1.6,0.6000000000000001,-10.4,-0.1,3.9000000000000004,91.10000000000001,-87.2,-45.5,16
845,14364.0,-1.3,-1.6,0.6000000000000001,-7.6000000000000005,1.1,2.9000000000000004,90.70000000000002,-115.50000000000003,-49.699999999999996,16
846,14381.0,1.4000000000000001,-0.4,-0.7000000000000001,-6.9,1.4000000000000001,2.7,87.7,-117.20000000000002,-50.900000000000006,16
847,14400.0,2.3000000000000003,0.30000000000000004,-1.6,-6.300000000000001,2.1,1.8,78.3,-100.5,-44.8,16
848,14414.0,2.9000000000000004,1.0,-2.7,-5.5,2.7,1.0,66.9,-78.2,-33.800000000000004,16
849,14434.0,3.5,1.5,-3.8000000000000003,-5.300000000000001,2.9000000000000004,0.1,53.400000000000006,-64.9,-23.3,16
850,14448.0,3.4000000000000004,1.5,-4.5,-4.9,3.1,-0.1,41.50000000000001,-66.3,-7.9,16
851,14465.0,2.9000000000000004,1.2000000000000002,-4.6000000000000005,-5.7,2.7,0.0,37.7,-72.2,0.6000000000000001,16
852,14481.0,2.1,0.5,-3.3000000000000003,-6.300000000000001,2.1,1.4000000000000001,28.700000000000003,-65.3,21.1,16
853,14497.0,2.6,0.2,-3.1,-5.800000000000001,2.0,1.8,24.200000000000003,-43.800000000000004,39.0,16
854,14514.0,3.0,-0.2,-2.4000000000000004,-5.300000000000001,1.7000000000000002,2.5,22.4,-11.3,40.6,16
855,14533.0,2.9000000000000004,-0.7000000000000001,-1.9000000000000001,-5.4,1.3,2.9000000000000004,20.900000000000002,32.2,26.200000000000003,16
856,14548.0,2.9000000000000004,-0.7000000000000001,-1.9000000000000001,-5.5,1.3,2.6,20.5,48.800000000000004,16.3,16
857,14564.0,2.6,-0.9,-2.4000000000000004,-6.6000000000000005,1.1,2.2,11.4,66.0,-5.1000000000000005,16
858,14581.0,0.4,-0.9,-1.9000000000000001,-9.700000000000001,1.5,2.8000000000000003,-8.100000000000001,71.9,-19.200000000000003,16
859,14598.0,-2.4000000000000004,-0.2,-1.4000000000000001,-12.200000000000001,2.5,0.7000000000000001,-24.200000000000003,44.2,-17.300000000000004,16
860,14615.0,-4.3,0.0,-2.5,-13.8,1.0,3.7,-50.2,10.1,2.5,16
861,14636.0,-5.4,-1.0,-0.4,-13.3,1.0,3.3000000000000003,-76.80000000000001,1.0,25.1,16
862,14648.0,-3.8000000000000003,-1.0,-0.4,-12.4,0.8,3.8000000000000003,-97.40000000000002,-7.8,30.000000000000004,16
863,14664.0,-2.0,-1.2000000000000002,2.3000000000000003,-10.600000000000001,0.5,6.6000000000000005,-156.0,2.0,47.2,16
864,14681.0,0.1,-1.0,6.0,-8.6,0.6000000000000001,10.4,-185.10000000000002,25.5,60.6,16
865,14698.0,1.3,-1.0,7.300000000000001,-7.4,0.5,11.700000000000001,-149.10000000000002,34.7,33.800000000000004,16
866,14714.0,1.0,-2.7,5.9,-7.7,-1.3,10.3,-75.3,22.8,-13.6,16
867,14731.0,0.0,-4.1000000000000005,4.1000000000000005,-8.700000000000001,-2.9000000000000004,8.4,-3.3000000000000007,20.2,-54.6,16
868,14748.0,0.0,-4.1000000000000005,4.1000000000000005,-8.8,-3.2,7.1000000000000005,15.2,27.5,-66.80000000000001,16
869,14764.0,0.1,-3.9000000000000004,2.0,-8.6,-2.4000000000000004,5.6000000000000005,26.1,40.300000000000004,-84.4,16
870,14781.0,0.2,-3.0,1.0,-8.700000000000001,-2.2,4.9,28.200000000000003,29.200000000000003,-101.80000000000001,16
871,14797.0,0.0,-2.8000000000000003,0.8,-9.600000000000001,-2.7,5.300000000000001,42.800000000000004,-2.7,-118.2,16
872,14814.0,-1.3,-3.1,1.5,-10.9,-2.0,5.800000000000001,81.3,-34.0,-118.00000000000001,16
873,14832.0,-2.6,-1.6,1.6,-12.600000000000001,-1.3,6.0,122.0,-32.300000000000004,-108.3,16
874,14851.0,-4.4,-0.9,1.3,-14.4,-0.1,4.4,156.0,2.6,-65.5,16
875,14864.0,-4.800000000000001,-0.8,-0.9,-13.600000000000001,-0.8,3.3000000000000003,159.4,19.200000000000003,-33.2,16
876,14881.0,-3.7,0.1,-2.8000000000000003,-12.600000000000001,0.30000000000000004,1.3,136.2,40.7,20.599999999999998,16
877,14897.0,-0.9,-0.9,-4.800000000000001,-9.8,-0.4,-0.7000000000000001,102.0,-3.6000000000000005,50.7,16
878,14914.0,0.6000000000000001,-0.7000000000000001,-3.9000000000000004,-8.3,0.1,0.30000000000000004,71.19999999999999,-76.3,47.400000000000006,16
879,14933.0,1.4000000000000001,0.0,-3.3000000000000003,-7.300000000000001,1.0,1.1,64.10000000000001,-74.5,44.2,16
880,14951.0,1.8,-1.1,-4.1000000000000005,-6.800000000000001,0.1,0.5,54.4,-47.900000000000006,33.0,16
881,14964.0,1.8,-1.1,-4.1000000000000005,-6.800000000000001,-0.2,1.2000000000000002,46.4,-27.2,33.50000000000001,16
882,14981.0,2.0,-1.0,-3.0,-6.800000000000001,0.7000000000000001,2.6,40.800000000000004,3.8,29.1,16
883,14997.0,1.3,-1.0,-0.7000000000000001,-8.0,0.2,5.300000000000001,19.700000000000003,16.200000000000003,16.1,16
884,15014.0,-0.5,-0.8,2.0,-10.200000000000001,1.1,5.6000000000000005,21.200000000000003,-46.4,-2.8,16
885,15032.0,-2.6,-1.2000000000000002,1.6,-11.100000000000001,0.30000000000000004,6.2,25.1,-106.20000000000002,-20.0,16
886,15048.0,-3.3000000000000003,-0.4,3.9000000000000004,-11.5,1.0,9.1,37.300000000000004,-192.1,-30.699999999999996,16
887,15064.0,-0.7000000000000001,-0.5,4.6000000000000005,-8.700000000000001,1.0,10.200000000000001,45.6,-143.2,42.0,16
888,15081.0,6.2,1.9000000000000001,-0.7000000000000001,-1.5,3.8000000000000003,5.1000000000000005,25.6,-41.50000000000001,96.80000000000001,16
889,15100.0,8.1,4.1000000000000005,-0.7000000000000001,0.30000000000000004,6.0,5.0,-63.30000000000001,48.800000000000004,69.10000000000001,16
890,15120.0,4.5,1.0,16.5,-3.3000000000000003,2.8000000000000003,22.1,-75.5,74.2,-2.1,16
891,15132.0,4.5,1.0,16.5,-6.4,1.0,25.5,-1.6,115.20000000000002,-47.7,16
892,15149.0,-1.6,-0.5,13.8,-11.3,2.9000000000000004,10.4,151.0,69.4,-64.9,16
893,15164.0,-3.3000000000000003,3.7,-1.0,-11.4,5.300000000000001,-1.6,117.4,91.10000000000001,-67.10000000000001,16
894,15181.0,-4.0,1.9000000000000001,-8.5,-12.200000000000001,2.4000000000000004,-4.5,39.8,45.400000000000006,-40.5,16
895,15198.0,-2.0,0.8,-9.5,-8.8,3.5,0.8,-30.799999999999997,-8.100000000000001,-17.0,16
896,15214.0,1.0,1.0,2.0,-6.7,2.1,8.9,-9.700000000000001,10.0,-28.600000000000005,16
897,15233.0,2.5,0.2,2.9000000000000004,-5.5,1.3,6.0,35.3,31.799999999999997,-56.50000000000001,16
898,15250.0,2.4000000000000004,-0.30000000000000004,0.6000000000000001,-6.2,1.2000000000000002,5.1000000000000005,51.0,39.0,-75.60000000000001,16
899,15264.0,3.8000000000000003,-1.6,0.2,-4.9,-0.2,4.6000000000000005,81.7,54.4,-111.4,16
900,15281.0,6.2,-2.1,-3.2,-2.7,-1.0,0.9,84.5,114.9,-117.80000000000001,16
901,15298.0,7.5,-1.3,-4.0,-1.6,-0.4,-0.4,67.3,119.7,-108.90000000000002,16
902,15314.0,7.5,-1.3,-4.0,-2.0,-0.5,0.6000000000000001,54.9,94.10000000000001,-101.0,16
903,15336.0,5.6000000000000005,-1.8,-3.1,-3.7,-1.4000000000000001,0.0,38.0,83.5,-81.8,16
904,15348.0,5.6000000000000005,-1.8,-3.1,-4.0,-0.4,-0.4,23.400000000000002,72.10000000000001,-85.1,16
905,15364.0,5.2,0.0,-2.8000000000000003,-4.2,0.8,-1.5,0.1,45.6,-105.60000000000002,16
906,15381.0,3.8000000000000003,1.3,-2.6,-6.800000000000001,0.6000000000000001,2.2,-22.2,56.800000000000004,-110.80000000000001,16
907,15397.0,-0.6000000000000001,0.9,2.2,-11.600000000000001,-0.5,4.0,-28.700000000000003,80.0,-83.2,16
908,15414.0,-0.9,0.9,1.9000000000000001,-10.4,0.2,4.1000000000000005,-26.5,74.60000000000001,-64.9,16
909,15432.0,-0.1,1.8,3.5,-9.700000000000001,0.8,5.4,-12.5,118.69999999999999,-57.00000000000001,16
910,15447.0,-2.1,2.5,-0.30000000000000004,-11.700000000000001,1.4000000000000001,1.2000000000000002,3.4,128.0,-61.300000000000004,16
911,15465.0,-4.4,0.9,3.8000000000000003,-14.0,-0.4,5.1000000000000005,19.9,70.7,-59.1,16
912,15481.0,-1.6,2.3000000000000003,8.6,-11.3,0.9,9.700000000000001,33.7,87.7,-59.300000000000004,16
913,15497.0,-6.4,0.1,6.300000000000001,-16.0,-1.6,7.2,57.20000000000001,87.2,-85.9,16
914,15514.0,-6.4,0.1,6.300000000000001,-17.2,-3.5,4.800000000000001,70.6,81.8,-83.2,16
915,15535.0,-4.3,-3.5,-2.3000000000000003,-13.9,-5.4,-1.9000000000000001,100.4,88.4,-1.0,16
916,15547.0,-4.3,-3.5,-2.3000000000000003,-10.0,-5.800000000000001,-1.0,96.1,100.0,8.8,16
917,15564.0,2.0,-4.800000000000001,-0.5,-5.800000000000001,-5.300000000000001,0.6000000000000001,75.60000000000001,136.9,4.5,16
918,15581.0,2.7,-2.6,-0.2,-7.6000000000000005,-4.2,-1.8,60.400000000000006,123.8,-43.900000000000006,16
919,15598.0,-2.4000000000000004,-2.8000000000000003,0.4,-15.100000000000001,-5.0,0.2,40.0,83.5,-71.7,16
920,15614.0,-7.4,-2.6,1.4000000000000001,-16.900000000000002,-4.9,0.6000000000000001,40.300000000000004,63.8,-55.1,16
921,15636.0,-4.5,-0.6000000000000001,-0.8,-12.0,-3.6,-2.3000000000000003,21.900000000000002,5.300000000000001,13.3,16
922,15647.0,1.2000000000000002,-0.9,-0.30000000000000004,-8.3,-3.3000000000000003,-1.1,14.5,-12.600000000000001,28.200000000000003,16
923,15664.0,4.7,1.1,-0.30000000000000004,-4.800000000000001,-1.1,-1.1,2.8,-10.9,23.2,16
924,15681.0,6.800000000000001,3.3000000000000003,1.2000000000000002,-2.7,1.1,0.4,23.400000000000002,28.1,13.900000000000002,16
925,15698.0,6.800000000000001,3.3000000000000003,1.2000000000000002,-2.8000000000000003,1.4000000000000001,-0.4,36.5,66.9,3.4,16
926,15714.0,5.7,3.0,-0.8,-4.1000000000000005,1.4000000000000001,-1.3,40.1,100.30000000000001,6.500000000000001,16
927,15737.0,5.1000000000000005,1.0,-0.2,-4.4,-1.1,-1.9000000000000001,22.8,116.6,16.5,16
928,15748.0,5.1000000000000005,1.0,-0.2,-4.3,-2.1,-5.0,12.0,125.00000000000001,17.799999999999997,16
929,15764.0,6.5,-0.7000000000000001,-3.7,-2.3000000000000003,-3.2,-4.5,-28.500000000000004,121.5,4.4,16
930,15781.0,5.0,-5.0,-0.9,-4.3,-7.0,-3.4000000000000004,-43.2,123.9,0.6000000000000001,16
931,15800.0,6.4,-2.9000000000000004,0.2,-1.3,-4.800000000000001,-3.7,-24.5,28.400000000000002,-13.3,16
932,15816.0,6.9,-1.7000000000000002,-0.9,-2.3000000000000003,-3.8000000000000003,-3.7,-17.5,23.900000000000006,-36.400000000000006,16
933,15837.0,0.0,0.4,2.2,-9.700000000000001,0.0,-2.3000000000000003,44.9,62.800000000000004,-51.4,16
934,15848.0,-0.4,2.2,3.0,-9.4,-0.30000000000000004,-0.1,77.80000000000001,111.20000000000002,-58.2,16
935,15864.0,-7.0,2.9000000000000004,-8.1,-15.8,0.2,-11.5,42.800000000000004,96.1,-26.5,16
936,15881.0,-7.0,2.9000000000000004,-8.1,-13.8,-1.4000000000000001,-8.0,12.8,80.7,7.8,16
937,15897.0,-5.0,1.3,-4.4,-13.3,-0.7000000000000001,-6.4,-7.1000000000000005,87.00000000000001,11.3,16
938,15914.0,-3.1,2.7,1.4000000000000001,-15.100000000000001,-4.0,-4.7,-12.9,122.10000000000002,3.9,16
939,15931.0,-7.5,-1.4000000000000001,-1.6,-12.5,-4.800000000000001,0.30000000000000004,-29.0,100.4,38.2,16
940,15947.0,0.0,-3.0,4.800000000000001,-6.6000000000000005,-5.2,-1.4000000000000001,-20.400000000000002,104.60000000000001,17.7,16
941,15964.0,1.0,-3.1,6.5,-9.1,-5.6000000000000005,0.30000000000000004,4.300000000000001,90.19999999999999,-1.3,16
942,15981.0,-2.3000000000000003,-2.3000000000000003,0.8,-10.4,-4.7,-4.2,11.000000000000002,79.1,-0.6000000000000001,16
943,15997.0,-4.800000000000001,-1.4000000000000001,-2.5,-12.8,-3.8000000000000003,-7.7,10.299999999999999,77.4,1.7,16
944,16014.0,-5.9,-0.8,-3.9000000000000004,-13.8,-3.2,-9.200000000000001,-11.700000000000001,48.10000000000001,5.2,16
945,16031.0,-7.9,-1.1,-1.0,-15.700000000000001,-3.5,-6.4,-21.500000000000004,57.3,7.9,16
946,16047.0,-6.2,-2.6,1.5,-13.9,-4.800000000000001,-4.1000000000000005,-22.8,66.0,25.200000000000003,16
947,16064.0,3.1,-3.1,0.30000000000000004,-4.5,-5.300000000000001,-5.5,-8.700000000000001,79.6,35.4,16
948,16081.0,3.1,-3.1,0.30000000000000004,0.30000000000000004,-4.800000000000001,-4.6000000000000005,-15.5,63.500000000000014,31.799999999999997,16
949,16097.0,9.8,-1.6,2.0,0.2,-3.2,-4.800000000000001,-16.200000000000003,-0.6000000000000001,-9.3,16
950,16127.0,3.5,3.0,4.4,-5.1000000000000005,2.0,-3.6,31.400000000000002,32.7,-2.3,16
951,16132.0,3.5,3.0,4.4,-5.1000000000000005,2.0,-3.6,31.400000000000002,32.7,-2.3,16
952,16149.0,1.6,4.2,-0.8,-5.800000000000001,1.7000000000000002,-6.4,3.2,58.5,15.700000000000001,16
953,16164.0,1.4000000000000001,3.2,1.7000000000000002,-6.800000000000001,-0.5,-3.8000000000000003,-17.0,17.300000000000004,1.0,16
954,16181.0,0.8,0.30000000000000004,3.4000000000000004,-6.6000000000000005,-1.8,-2.7,-15.700000000000001,-19.0,-4.6,16
955,16197.0,2.7,-1.4000000000000001,4.6000000000000005,-4.800000000000001,-3.5,-1.3,2.9,-53.8,-15.000000000000002,16
956,16214.0,-0.8,-2.9000000000000004,1.6,-8.200000000000001,-5.1000000000000005,-4.4,23.400000000000002,12.200000000000001,-10.9,16
957,16231.0,2.1,-3.1,-1.5,-5.300000000000001,-5.4,-7.5,27.9,15.2,-14.5,16
958,16247.0,1.9000000000000001,-3.7,-3.4000000000000004,-5.5,-6.2,-9.3,16.8,-26.000000000000004,-48.2,16
959,16264.0,1.9000000000000001,-3.7,-3.4000000000000004,-7.1000000000000005,-6.0,-9.700000000000001,14.300000000000002,-53.400000000000006,-63.0,16
960,16281.0,-0.6000000000000001,-3.4000000000000004,-4.2,-8.3,-5.6000000000000005,-10.200000000000001,17.200000000000003,-146.1,-75.00000000000001,16
961,16298.0,-1.1,-2.1,-5.5,-10.0,-4.4,-10.4,9.600000000000001,-254.2,-81.4,16
962,16314.0,-3.7,-1.0,-5.0,-12.700000000000001,-4.9,-9.1,0.0,-328.70000000000005,-52.7,16
963,16331.0,-4.4,-3.3000000000000003,-5.0,-12.3,-5.4,-7.800000000000001,-6.2,-299.20000000000005,-6.500000000000001,16
964,16349.0,-3.1,0.0,-4.9,-13.100000000000001,-3.5,-7.0,-52.5,-206.5,-20.5,16
965,16364.0,-6.5,-0.1,-2.1,-15.4,-3.2,-4.7,-71.6,-167.20000000000002,-27.2,16
966,16381.0,-7.7,-0.4,-2.6,-16.7,-3.5,-4.800000000000001,-80.60000000000001,-162.20000000000002,-2.2,16
967,16397.0,-4.7,-0.1,1.4000000000000001,-13.9,-3.1,-0.4,-81.2,-157.4,39.699999999999996,16
968,16414.0,-5.0,-2.9000000000000004,2.2,-14.4,-5.6000000000000005,0.8,-39.699999999999996,-166.9,68.7,16
969,16431.0,-1.6,-1.9000000000000001,1.9000000000000001,-11.0,-4.4,1.1,1.4,-180.29999999999998,98.0,16
970,16447.0,-1.6,-1.9000000000000001,1.9000000000000001,-9.700000000000001,-3.3000000000000003,-2.9000000000000004,-5.300000000000001,-165.5,111.6,16
971,16464.0,-0.2,-1.2000000000000002,-2.5,-8.4,-3.6,-4.7,-25.900000000000002,-160.0,116.4,16
972,16481.0,1.7000000000000002,-1.9000000000000001,-4.6000000000000005,-7.800000000000001,-1.7000000000000002,-5.0,-89.0,-105.3,111.6,16
973,16497.0,2.9000000000000004,-3.5,-7.1000000000000005,-7.6000000000000005,-4.5,-3.8000000000000003,-145.60000000000002,-86.00000000000001,106.4,16
974,16514.0,2.0,-1.7000000000000002,-4.9,-6.9,-6.1000000000000005,-5.0,-187.50000000000003,-109.50000000000001,82.8,16
975,16531.0,2.8000000000000003,-5.4,-3.0,-5.5,-5.1000000000000005,0.0,-200.8,-153.10000000000002,86.3,16
976,16548.0,5.6000000000000005,-3.4000000000000004,0.1,-4.1000000000000005,-4.2,1.3,-194.00000000000003,-158.9,83.4,16
977,16564.0,6.6000000000000005,-3.2,1.0,-3.1,-3.9000000000000004,2.6,-169.2,-148.20000000000002,72.0,16
978,16581.0,7.1000000000000005,-2.8000000000000003,1.0,-2.5,-3.5,3.0,-146.8,-96.60000000000001,64.80000000000001,16
979,16597.0,7.800000000000001,-2.4000000000000004,-0.2,-1.7000000000000002,-3.0,1.9000000000000001,-137.1,-28.3,57.20000000000001,16
980,16616.0,8.5,-2.4000000000000004,-1.1,-1.1,-2.9000000000000004,0.9,-145.10000000000002,38.50000000000001,43.50000000000001,16
981,16631.0,8.3,-3.3000000000000003,-1.6,-1.3,-3.9000000000000004,0.2,-162.50000000000003,77.1,21.200000000000003,16
982,16647.0,8.3,-3.3000000000000003,-1.6,-1.1,-4.4,0.2,-172.9,81.10000000000001,7.699999999999999,16
983,16664.0,9.0,-3.6,-0.9,-0.4,-4.0,1.6,-190.60000000000002,71.9,-26.6,16
984,16681.0,9.5,-2.8000000000000003,1.2000000000000002,-0.1,-3.8000000000000003,3.3000000000000003,-193.1,62.800000000000004,-65.8,16
985,16697.0,9.4,-2.6,3.0,-0.5,-4.0,4.4,-176.5,63.500000000000014,-99.39999999999999,16
986,16717.0,8.8,-2.5,3.8000000000000003,-1.3,-4.5,4.4,-150.3,75.3,-123.8,16
987,16732.0,7.800000000000001,-2.6,3.6,-2.1,-5.0,3.7,-125.80000000000001,89.70000000000002,-141.0,16
988,16749.0,7.0,-2.7,3.1,-2.4000000000000004,-5.300000000000001,3.2,-115.9,94.4,-150.2,16
989,16765.0,6.5,-3.2,3.2,-2.8000000000000003,-6.300000000000001,2.9000000000000004,-99.39999999999999,96.80000000000001,-174.90000000000003,16
990,16781.0,5.4,-3.6,4.7,-3.6,-7.4,4.1000000000000005,-87.89999999999999,112.7,-218.10000000000002,16
991,16797.0,1.9000000000000001,-4.800000000000001,6.5,-6.800000000000001,-9.3,5.300000000000001,-82.0,171.10000000000002,-300.8,16
992,16814.0,-5.800000000000001,-5.800000000000001,6.800000000000001,-13.700000000000001,-11.3,4.9,-71.30000000000001,215.6,-398.6000000000001,16
993,16832.0,-18.8,-6.1000000000000005,7.2,-25.700000000000003,-12.600000000000001,4.9,-24.200000000000003,185.6,-424.0,16
994,16847.0,-18.8,-6.1000000000000005,7.2,-32.0,-13.100000000000001,5.6000000000000005,20.2,149.9,-375.5,16
995,16864.0,-30.8,-4.7,6.6000000000000005,-39.6,-10.5,2.5,129.20000000000002,42.1,-163.29999999999998,16
996,16881.0,-31.0,-2.1,3.9000000000000004,-31.6,-7.6000000000000005,-1.1,200.4,-21.400000000000002,42.7,16
997,16898.0,-20.3,1.0,-1.7000000000000002,-21.900000000000002,-5.1000000000000005,-5.0,193.5,-25.5,92.0,16
998,16914.0,-12.200000000000001,4.7,-5.800000000000001,-18.1,-0.9,-7.9,130.70000000000002,-4.1,21.400000000000002,16
999,16931.0,-14.700000000000001,5.800000000000001,-6.300000000000001,-21.1,-1.6,-7.300000000000001,95.5,12.100000000000001,-7.200000000000001,16
1000,16947.0,-19.5,4.9,-2.8000000000000003,-26.0,-2.4000000000000004,-3.6,79.00000000000001,43.2,33.400000000000006,16
1001,16964.0,-16.0,4.5,-2.4000000000000004,-22.700000000000003,-2.6,-3.1,113.89999999999999,60.900000000000006,135.0,16
1002,16981.0,-9.0,3.0,-4.6000000000000005,-16.1,-3.7,-5.2,136.4,63.70000000000001,203.2,16
1003,16998.0,-4.2,1.5,-5.1000000000000005,-11.8,-4.7,-5.5,133.60000000000002,68.60000000000001,240.4,16
1004,17014.0,-0.8,0.4,-4.6000000000000005,-8.9,-5.2,-5.1000000000000005,114.00000000000001,85.0,253.7,16
1005,17032.0,1.1,-1.1,-3.5,-7.4,-6.0,-4.1000000000000005,91.2,109.39999999999999,258.20000000000005,16
1006,17047.0,1.1,-1.1,-3.5,-6.800000000000001,-6.4,-3.7,79.3,121.4,253.50000000000003,16
1007,17064.0,2.4000000000000004,-2.8000000000000003,-2.6,-6.1000000000000005,-7.6000000000000005,-3.0,52.60000000000001,135.5,235.10000000000002,16
1008,17081.0,3.1,-4.3,-1.2000000000000002,-5.9,-8.3,-1.9000000000000001,26.700000000000003,144.20000000000002,210.1,16
1009,17097.0,3.4000000000000004,-5.7,0.2,-5.9,-9.200000000000001,-1.1,1.6,146.1,180.9,16
1010,17115.0,3.3000000000000003,-7.1000000000000005,1.0,-6.0,-10.100000000000001,-0.9,-23.400000000000002,132.70000000000002,155.9,16
1011,17135.0,3.6,-8.200000000000001,1.7000000000000002,-5.1000000000000005,-10.4,-0.6000000000000001,-44.4,99.10000000000001,127.9,16
1012,17148.0,4.6000000000000005,-8.9,2.4000000000000004,-4.6000000000000005,-10.600000000000001,-0.30000000000000004,-52.60000000000001,78.0,110.70000000000002,16
1013,17164.0,5.6000000000000005,-9.8,4.3,-3.7,-11.3,1.4000000000000001,-62.199999999999996,56.800000000000004,76.4,16
1014,17181.0,7.1000000000000005,-9.600000000000001,4.9,-2.1,-10.9,1.9000000000000001,-70.0,58.60000000000001,36.300000000000004,16
1015,17198.0,6.6000000000000005,-10.200000000000001,5.2,-2.5,-11.5,1.9000000000000001,-80.8,70.10000000000001,-8.700000000000001,16
1016,17216.0,5.2,-11.5,5.1000000000000005,-3.8000000000000003,-12.8,1.6,-95.60000000000002,54.300000000000004,-34.400000000000006,16
1017,17232.0,5.2,-11.5,5.1000000000000005,-3.6,-12.3,1.3,-104.10000000000001,34.900000000000006,-40.800000000000004,16
1018,17247.0,6.2,-9.8,4.800000000000001,-2.2,-10.4,1.5,-125.7,-11.700000000000001,-52.80000000000001,16
1019,17264.0,7.1000000000000005,-8.9,5.800000000000001,-2.0,-10.4,3.0,-142.20000000000002,-56.2,-71.8,16
1020,17281.0,6.800000000000001,-9.3,7.1000000000000005,-2.7,-11.100000000000001,4.2,-143.4,-87.50000000000001,-96.30000000000001,16
1021,17297.0,5.800000000000001,-9.600000000000001,7.800000000000001,-3.8000000000000003,-11.4,4.800000000000001,-130.8,-106.4,-117.20000000000002,16
1022,17315.0,5.2,-9.4,7.9,-3.8000000000000003,-11.3,4.7,-112.7,-115.7,-135.9,16
1023,17334.0,5.300000000000001,-8.9,7.300000000000001,-4.0,-10.9,4.5,-95.30000000000001,-115.60000000000001,-163.80000000000004,16
1024,17347.0,4.9,-8.1,6.9,-4.2,-10.9,4.5,-86.89999999999999,-109.7,-180.10000000000002,16
1025,17364.0,4.2,-7.4,6.5,-4.7,-10.700000000000001,4.3,-69.5,-91.7,-218.10000000000002,16
1026,17381.0,2.8000000000000003,-6.5,6.300000000000001,-5.9,-10.600000000000001,4.3,-47.80000000000001,-67.8,-262.7,16
1027,17397.0,0.9,-5.9,5.9,-7.4,-10.700000000000001,4.1000000000000005,-20.8,-53.400000000000006,-299.3,16
1028,17414.0,0.9,-5.9,5.9,-8.200000000000001,-10.4,4.1000000000000005,-4.2,-49.199999999999996,-309.3,16
1029,17432.0,-1.1,-4.7,6.0,-9.600000000000001,-10.3,4.3,38.1,-39.1,-322.70000000000005,16
1030,17447.0,-3.1,-3.7,5.4,-11.100000000000001,-10.100000000000001,3.0,79.6,-19.200000000000003,-317.2,16
1031,17464.0,-5.2,-3.1,3.3000000000000003,-12.100000000000001,-10.4,0.9,102.8,-5.300000000000001,-296.90000000000003,16
1032,17481.0,-6.4,-2.5,0.9,-12.5,-10.0,-1.0,100.0,-9.899999999999999,-277.4,16
1033,17498.0,-7.9,-1.5,-0.6000000000000001,-13.700000000000001,-9.1,-1.2000000000000002,85.1,-25.200000000000003,-259.8,16
1034,17514.0,-9.700000000000001,0.5,-0.7000000000000001,-14.200000000000001,-8.200000000000001,-1.1,79.00000000000001,-31.400000000000002,-243.8,16
1035,17533.0,-11.200000000000001,2.0,-1.1,-15.200000000000001,-7.0,-1.3,76.60000000000001,-43.50000000000001,-202.1,16
1036,17547.0,-12.8,2.1,-2.4000000000000004,-16.3,-7.0,-2.3000000000000003,82.3,-58.5,-155.1,16
1037,17564.0,-12.8,2.7,-4.5,-16.0,-6.6000000000000005,-4.1000000000000005,78.7,-73.2,-110.9,16
1038,17581.0,-12.100000000000001,3.1,-6.300000000000001,-15.0,-6.300000000000001,-5.7,56.0,-85.60000000000001,-90.9,16
1039,17597.0,-12.100000000000001,3.1,-6.300000000000001,-15.100000000000001,-6.0,-6.1000000000000005,38.2,-88.3,-89.8,16
1040,17614.0,-13.4,3.3000000000000003,-6.800000000000001,-17.1,-6.800000000000001,-5.6000000000000005,3.1,-80.0,-82.2,16
1041,17633.0,-15.5,1.9000000000000001,-5.9,-18.400000000000002,-8.200000000000001,-4.4,-20.3,-53.599999999999994,-60.300000000000004,16
1042,17648.0,-16.3,1.0,-3.8000000000000003,-18.900000000000002,-8.5,-1.5,-15.000000000000002,-13.5,-41.199999999999996,16
1043,17664.0,-17.0,1.3,-1.1,-19.700000000000003,-7.9,0.0,21.1,51.50000000000001,-20.400000000000002,16
1044,17681.0,-18.1,1.3,-1.4000000000000001,-20.8,-8.9,-1.7000000000000002,47.400000000000006,114.99999999999999,21.1,16
1045,17697.0,-18.400000000000002,0.0,-3.6,-20.8,-9.5,-2.7,48.2,134.70000000000002,51.300000000000004,16
1046,17714.0,-16.900000000000002,-1.4000000000000001,-4.800000000000001,-19.6,-10.8,-3.9000000000000004,28.200000000000003,152.70000000000002,115.9,16
1047,17735.0,-13.9,-2.5,-4.3,-17.2,-11.700000000000001,-3.7,-9.5,151.20000000000002,171.39999999999998,16
1048,17748.0,-10.5,-2.8000000000000003,-2.7,-14.5,-11.8,-2.3000000000000003,-43.6,134.5,208.9,16
1049,17767.0,-7.4,-2.7,-1.3,-12.0,-11.3,-1.2000000000000002,-64.80000000000001,109.10000000000001,230.5,16
1050,17781.0,-4.4,-2.0,0.30000000000000004,-9.600000000000001,-10.3,0.1,-70.9,77.1,237.3,16
1051,17797.0,-4.4,-2.0,0.30000000000000004,-8.700000000000001,-9.700000000000001,0.8,-67.2,65.3,237.39999999999998,16
1052,17814.0,-2.1,-1.3,1.9000000000000001,-7.4,-8.700000000000001,1.9000000000000001,-50.0,55.400000000000006,233.9,16
1053,17833.0,-0.6000000000000001,-1.0,2.8000000000000003,-6.7,-8.200000000000001,2.1,-27.6,61.50000000000001,229.99999999999997,16
1054,17848.0,0.5,-1.2000000000000002,2.8000000000000003,-6.2,-8.0,1.6,-11.5,75.60000000000001,229.50000000000003,16
1055,17864.0,1.4000000000000001,-1.6,2.6,-5.7,-7.9,1.4000000000000001,-4.5,90.0,230.40000000000003,16
1056,17881.0,2.1,-2.1,2.7,-5.6000000000000005,-7.9,1.4000000000000001,-3.7000000000000006,97.50000000000001,230.7,16
1057,17898.0,2.4000000000000004,-3.0,2.9000000000000004,-5.7,-8.3,1.3,-6.9,113.7,231.20000000000002,16
1058,17914.0,2.3000000000000003,-4.4,3.0,-6.1000000000000005,-9.1,1.1,-16.4,125.9,230.5,16
1059,17934.0,3.0,-5.800000000000001,3.0,-5.6000000000000005,-9.9,0.7000000000000001,-28.900000000000002,114.6,220.9,16
1060,17947.0,3.9000000000000004,-6.6000000000000005,3.9000000000000004,-4.9,-10.100000000000001,1.3,-37.7,91.0,204.8,16
1061,17964.0,4.4,-7.300000000000001,4.3,-4.5,-10.200000000000001,1.5,-43.300000000000004,73.0,184.0,16
1062,17980.0,4.4,-7.300000000000001,4.3,-4.3,-10.3,1.3,-45.7,62.50000000000001,171.10000000000002,16
1063,17997.0,4.9,-7.9,4.2,-4.0,-10.4,1.1,-53.7,40.800000000000004,141.0,16
1064,18014.0,5.0,-8.3,4.2,-4.2,-10.4,0.9,-65.6,22.8,109.50000000000001,16
1065,18034.0,4.6000000000000005,-8.8,4.1000000000000005,-4.7,-10.700000000000001,0.6000000000000001,-80.30000000000001,5.300000000000001,80.60000000000001,16
1066,18047.0,4.3,-9.600000000000001,3.8000000000000003,-4.800000000000001,-11.100000000000001,0.5,-97.3,-14.700000000000001,58.0,16
1067,18064.0,5.1000000000000005,-9.3,3.8000000000000003,-3.2,-9.700000000000001,0.7000000000000001,-116.80000000000001,-38.7,37.6,16
1068,18083.0,6.800000000000001,-8.3,4.4,-2.1,-9.200000000000001,1.9000000000000001,-134.5,-56.2,6.1000000000000005,16
1069,18101.0,7.300000000000001,-8.200000000000001,5.7,-2.3000000000000003,-9.4,3.5,-134.3,-60.900000000000006,-37.400000000000006,16
1070,18117.0,6.5,-8.6,6.9,-2.8000000000000003,-9.600000000000001,4.0,-124.8,-60.00000000000001,-60.2,16
1071,18137.0,5.7,-8.700000000000001,7.2,-3.7,-9.9,4.5,-90.6,-60.5,-103.2,16
1072,18148.0,4.7,-8.5,7.2,-4.6000000000000005,-10.100000000000001,4.6000000000000005,-44.8,-60.6,-140.70000000000002,16
1073,18164.0,4.7,-8.5,7.2,-5.1000000000000005,-10.200000000000001,4.4,1.1,-57.00000000000001,-169.0,16
1074,18180.0,3.8000000000000003,-8.1,6.2,-5.800000000000001,-10.200000000000001,3.2,20.1,-55.2,-181.60000000000002,16
1075,18197.0,3.1,-7.2,4.800000000000001,-6.300000000000001,-9.8,2.1,46.800000000000004,-48.400000000000006,-203.50000000000003,16
1076,18214.0,2.4000000000000004,-6.1000000000000005,3.5,-6.800000000000001,-9.1,1.1,61.39999999999999,-40.1,-222.0,16
1077,18240.0,0.4,-3.5,1.1,-8.1,-8.200000000000001,-0.5,65.6,-36.8,-229.29999999999998,16
1078,18247.0,0.4,-3.5,1.1,-8.3,-7.9,-1.0,63.0,-42.3,-227.0,16
1079,18264.0,-0.30000000000000004,-2.3000000000000003,0.1,-8.4,-7.7,-1.2000000000000002,59.80000000000001,-49.699999999999996,-225.10000000000002,16
1080,18281.0,-0.6000000000000001,-1.4000000000000001,-0.1,-8.3,-7.4,-1.2000000000000002,53.400000000000006,-64.9,-226.3,16
1081,18297.0,-1.7000000000000002,-0.30000000000000004,0.0,-9.0,-6.800000000000001,-0.8,52.900000000000006,-70.2,-228.80000000000004,16
1082,18314.0,-3.6,0.8,-0.5,-10.4,-6.300000000000001,-1.0,61.599999999999994,-63.2,-219.5,16
1083,18336.0,-5.1000000000000005,1.9000000000000001,-2.1,-11.5,-5.5,-2.4000000000000004,70.2,-51.300000000000004,-190.40000000000003,16
1084,18348.0,-4.9,3.0,-4.4,-10.9,-4.7,-4.5,56.400000000000006,-36.8,-151.5,16
1085,18364.0,-4.9,3.0,-4.4,-10.3,-4.5,-5.4,38.800000000000004,-31.7,-136.6,16
1086,18381.0,-4.0,3.7,-6.2,-9.200000000000001,-4.3,-6.4,-7.500000000000001,-37.300000000000004,-124.7,16
1087,18397.0,-3.6,3.8000000000000003,-5.800000000000001,-9.0,-4.3,-4.800000000000001,-40.1,-57.00000000000001,-136.6,16
1088,18414.0,-4.6000000000000005,4.2,-3.7,-10.700000000000001,-4.1000000000000005,-3.0,-40.1,-64.4,-150.70000000000002,16
1089,18435.0,-7.5,4.3,-2.8000000000000003,-13.4,-4.5,-3.0,-25.1,-52.00000000000001,-149.0,16
1090,18447.0,-10.4,4.5,-3.5,-15.700000000000001,-4.3,-3.7,-17.0,-30.1,-128.20000000000002,16
1091,18464.0,-13.0,4.6000000000000005,-3.7,-16.900000000000002,-4.4,-3.7,-16.0,-15.5,-112.30000000000001,16
1092,18481.0,-15.4,3.0,-4.2,-19.1,-6.1000000000000005,-4.3,-24.7,18.0,-72.80000000000001,16
1093,18497.0,-16.0,1.8,-3.2,-19.6,-7.300000000000001,-3.4000000000000004,-29.600000000000005,35.9,-42.400000000000006,16
1094,18514.0,-16.3,2.6,-0.7000000000000001,-19.8,-6.6000000000000005,-1.1,-10.200000000000001,50.2,-30.9,16
1095,18532.0,-18.1,3.0,-0.30000000000000004,-21.6,-6.1000000000000005,-0.7000000000000001,18.700000000000003,85.69999999999999,-5.2,16
1096,18547.0,-18.1,3.0,-0.30000000000000004,-22.400000000000002,-6.7,-1.5,25.0,102.8,21.200000000000003,16
1097,18564.0,-19.0,1.6,-2.0,-22.1,-8.6,-2.9000000000000004,15.000000000000002,116.30000000000001,90.9,16
1098,18581.0,-17.0,-0.4,-2.3000000000000003,-19.5,-10.200000000000001,-2.3000000000000003,-8.3,110.4,151.9,16
1099,18597.0,-13.5,-2.1,-1.0,-16.2,-11.100000000000001,-1.1,-27.700000000000003,99.9,186.99999999999997,16
1100,18618.0,-9.8,-2.5,0.4,-13.3,-10.600000000000001,0.1,-37.9,85.1,200.70000000000002,16
1101,18631.0,-6.7,-2.0,1.9000000000000001,-11.200000000000001,-9.5,1.3,-36.300000000000004,71.9,203.10000000000002,16
1102,18648.0,-4.6000000000000005,-1.3,3.2,-10.5,-9.0,1.8,-30.200000000000003,66.9,203.10000000000002,16
1103,18664.0,-2.9000000000000004,-0.7000000000000001,3.9000000000000004,-9.3,-8.0,2.4000000000000004,-9.899999999999999,61.300000000000004,204.3,16
1104,18681.0,-1.7000000000000002,-0.6000000000000001,4.0,-8.5,-7.4,2.4000000000000004,14.400000000000002,63.500000000000014,209.3,16
1105,18697.0,-0.5,-0.8,3.6,-7.800000000000001,-7.2,1.9000000000000001,32.1,72.80000000000001,216.10000000000002,16
1106,18714.0,0.4,-1.5,3.2,-7.2,-7.4,1.4000000000000001,42.800000000000004,82.8,222.0,16
1107,18730.0,0.4,-1.5,3.2,-6.9,-7.6000000000000005,1.2000000000000002,45.5,86.89999999999999,222.1,16
1108,18747.0,1.5,-2.3000000000000003,2.9000000000000004,-6.1000000000000005,-7.7,0.9,47.900000000000006,92.2,217.00000000000003,16
1109,18764.0,2.5,-2.9000000000000004,2.9000000000000004,-5.5,-7.9,0.7000000000000001,47.3,95.69999999999999,205.20000000000002,16
1110,18781.0,3.3000000000000003,-3.6,2.9000000000000004,-5.0,-8.0,0.5,41.50000000000001,95.80000000000001,188.5,16
1111,18797.0,3.7,-4.4,2.8000000000000003,-5.1000000000000005,-8.700000000000001,0.1,27.800000000000004,95.4,173.3,16
1112,18814.0,3.3000000000000003,-5.800000000000001,2.5,-5.6000000000000005,-9.9,-0.5,6.600000000000001,88.3,159.5,16
1113,18830.0,3.4000000000000004,-7.300000000000001,2.3000000000000003,-5.5,-10.3,-0.6000000000000001,-5.9,81.50000000000001,151.8,16
1114,18847.0,4.0,-8.1,2.2,-4.9,-10.8,-1.0,-36.6,60.2,130.5,16
1115,18864.0,4.3,-8.9,2.7,-4.6000000000000005,-11.3,-0.6000000000000001,-68.5,27.3,105.60000000000002,16
1116,18880.0,4.9,-9.4,3.7,-4.1000000000000005,-11.4,0.4,-93.2,-10.700000000000001,83.60000000000001,16
1117,18897.0,4.800000000000001,-10.600000000000001,4.6000000000000005,-4.3,-12.3,1.3,-105.5,-38.800000000000004,65.10000000000001,16
1118,18914.0,4.800000000000001,-12.4,3.9000000000000004,-4.4,-13.9,0.7000000000000001,-113.2,-61.599999999999994,52.400000000000006,16
1119,18931.0,4.800000000000001,-12.4,3.9000000000000004,-3.3000000000000003,-13.4,0.5,-120.60000000000001,-75.7,47.60000000000001,16
1120,18947.0,7.4,-10.9,3.5,-0.7000000000000001,-11.200000000000001,1.0,-141.6,-100.9,23.700000000000003,16
1121,18964.0,9.4,-9.3,4.6000000000000005,0.2,-10.100000000000001,2.9000000000000004,-152.8,-107.9,-25.7,16
1122,18980.0,9.200000000000001,-9.0,6.6000000000000005,-0.9,-10.3,5.1000000000000005,-133.4,-97.3,-89.9,16
