,ms,accelX,accelY,accelZ,accelWithGX,accelWithGY,accelWithGZ,rotRateAlpha,rotRateBeta,rotRateGamma,interval
0,147.0,0.0,-0.1,0.1,1.4000000000000001,3.9000000000000004,8.9,-3.5,2.0,0.7,16
1,164.0,-0.1,-0.1,0.1,1.3,3.8000000000000003,9.0,-3.5,2.0,0.7,16
2,180.0,0.0,0.0,0.1,1.4000000000000001,3.9000000000000004,8.9,3.6000000000000005,-2.9,1.9,16
3,197.0,0.0,0.0,0.0,1.4000000000000001,3.9000000000000004,8.9,2.8,-2.9,1.2000000000000002,16
4,213.0,0.0,0.0,-0.1,1.4000000000000001,3.9000000000000004,8.8,0.6000000000000001,-1.1,0.5,16
5,230.0,0.0,0.0,-0.1,1.4000000000000001,3.9000000000000004,8.8,-4.2,2.2,0.9000000000000001,16
6,247.0,0.0,0.0,-0.1,1.3,3.9000000000000004,8.8,-3.8,1.9,1.3,16
7,263.0,-0.1,-0.1,0.0,1.3,3.8000000000000003,8.9,-0.7,-0.9000000000000001,2.3,16
8,280.0,0.0,-0.1,0.1,1.4000000000000001,3.8000000000000003,9.0,2.2,-0.7,2.3,16
9,297.0,0.0,0.0,0.0,1.4000000000000001,3.9000000000000004,8.9,2.7,0.1,1.5,16
10,313.0,0.0,0.0,0.0,1.5,3.9000000000000004,8.8,0.7,-0.30000000000000004,-0.4,16
11,330.0,0.1,0.0,-0.1,1.5,3.9000000000000004,8.8,-0.7,0.2,-1.1,16
12,347.0,0.0,0.0,-0.1,1.4000000000000001,3.9000000000000004,8.700000000000001,-2.5,-1.0,-1.6,16
13,363.0,0.0,0.0,-0.1,1.4000000000000001,3.9000000000000004,8.8,-0.9000000000000001,-2.9,-0.6000000000000001,16
14,380.0,0.0,-0.1,-0.1,1.4000000000000001,3.8000000000000003,8.8,1.3,-2.8,0.2,16
15,397.0,0.0,-0.1,-0.1,1.4000000000000001,3.8000000000000003,8.8,1.3,-2.2,0.4,16
16,413.0,0.0,-0.1,0.0,1.4000000000000001,3.8000000000000003,8.8,1.1,-1.7,0.5,16
17,430.0,0.0,0.0,0.0,1.4000000000000001,3.9000000000000004,8.8,-1.7,0.30000000000000004,-0.9000000000000001,16
18,447.0,-0.1,0.0,0.0,1.3,3.9000000000000004,8.9,-1.8000000000000003,0.2,-0.1,16
19,463.0,-0.1,0.0,0.0,1.3,3.9000000000000004,8.9,0.2,-1.5,0.8,16
20,480.0,-0.1,0.0,0.0,1.3,3.9000000000000004,8.8,0.9000000000000001,-3.6000000000000005,0.6000000000000001,16
21,497.0,-0.1,0.0,-0.1,1.4000000000000001,3.9000000000000004,8.8,0.8,-3.1,0.2,16
22,513.0,0.0,0.0,-0.1,1.4000000000000001,3.9000000000000004,8.8,0.5,-0.6000000000000001,-0.6000000000000001,16
23,530.0,-0.1,0.0,-0.1,1.4000000000000001,3.9000000000000004,8.8,-0.2,-0.2,-0.6000000000000001,16
24,547.0,-0.1,0.0,-0.2,1.3,3.9000000000000004,8.700000000000001,-3.0,-2.8,-0.8,16
25,563.0,-0.1,0.0,-0.1,1.3,3.9000000000000004,8.8,-3.4,-3.3000000000000007,0.4,16
26,580.0,-0.1,0.0,0.0,1.4000000000000001,3.9000000000000004,8.9,-2.3,-2.3,0.8,16
27,597.0,-0.1,0.0,0.1,1.4000000000000001,3.9000000000000004,9.0,-0.6000000000000001,-1.5,0.8,16
28,613.0,0.0,0.0,0.1,1.4000000000000001,3.9000000000000004,9.0,1.7,-0.30000000000000004,0.1,16
29,630.0,-0.1,0.0,0.0,1.4000000000000001,3.9000000000000004,8.8,1.3,0.4,0.1,16
30,647.0,-0.1,0.0,-0.1,1.4000000000000001,3.9000000000000004,8.8,-0.30000000000000004,-0.5,0.30000000000000004,16
31,663.0,-0.1,0.0,-0.2,1.3,3.9000000000000004,8.700000000000001,-1.8000000000000003,-1.1,0.1,16
32,680.0,-0.1,0.0,-0.2,1.3,3.9000000000000004,8.700000000000001,-2.6,-2.1,0.7,16
33,697.0,-0.1,0.0,-0.2,1.4000000000000001,3.9000000000000004,8.700000000000001,-2.6,-1.2000000000000002,0.4,16
34,713.0,-0.1,0.0,-0.1,1.4000000000000001,3.8000000000000003,8.8,-1.7,3.0,0.30000000000000004,16
35,730.0,-0.1,-0.1,-0.1,1.3,3.8000000000000003,8.8,-1.0,4.6,0.6000000000000001,16
36,747.0,-0.2,0.0,-0.2,1.3,3.8000000000000003,8.700000000000001,-0.7,3.4,1.9,16
37,763.0,-0.2,0.0,-0.30000000000000004,1.2000000000000002,3.9000000000000004,8.6,-0.6000000000000001,-1.4,2.0,16
38,780.0,-0.2,0.1,-0.4,1.2000000000000002,3.9000000000000004,8.5,-3.2,-1.3,2.8,16
39,797.0,-0.2,0.1,-0.4,1.3,3.9000000000000004,8.5,-4.5,0.5,3.1,16
40,813.0,-0.2,0.1,-0.4,1.3,4.0,8.5,-5.8,3.5,3.4,16
41,830.0,-0.2,0.2,-0.5,1.3,4.0,8.4,-4.4,4.4,3.2,16
42,847.0,-0.2,0.2,-0.6000000000000001,1.2000000000000002,4.0,8.3,-4.6,3.5,3.5,16
43,863.0,-0.2,0.2,-0.7000000000000001,1.2000000000000002,4.1000000000000005,8.200000000000001,-5.6,0.6000000000000001,4.5,16
44,880.0,-0.30000000000000004,0.2,-0.8,1.1,4.1000000000000005,8.1,-6.4,-0.2,5.8,16
45,897.0,-0.30000000000000004,0.2,-0.8,1.1,4.1000000000000005,8.0,-8.4,0.7,6.300000000000001,16
46,913.0,-0.30000000000000004,0.30000000000000004,-0.9,1.1,4.1000000000000005,8.0,-15.8,5.8,6.8,16
47,930.0,-0.4,0.30000000000000004,-0.8,1.0,4.1000000000000005,8.1,-18.1,7.8,7.400000000000001,16
48,947.0,-0.5,0.2,-0.6000000000000001,0.8,4.0,8.3,-14.5,7.6,7.500000000000001,16
49,964.0,-0.8,0.2,-0.6000000000000001,0.6000000000000001,3.9000000000000004,8.4,-9.0,1.2000000000000002,11.700000000000001,16
50,980.0,-0.9,0.2,-0.7000000000000001,0.5,3.9000000000000004,8.3,-11.6,-2.5,14.300000000000002,16
51,997.0,-0.9,0.2,-0.7000000000000001,0.5,3.9000000000000004,8.200000000000001,-16.3,0.4,13.900000000000002,16
52,1013.0,-0.8,0.2,-0.7000000000000001,0.5,3.9000000000000004,8.3,-22.1,4.4,13.399999999999999,16
53,1030.0,-0.8,0.30000000000000004,-0.5,0.6000000000000001,3.7,8.8,-28.1,1.6,9.3,16
54,1047.0,-0.9,0.1,-0.1,0.5,3.6,9.0,-27.700000000000003,3.8,10.0,16
55,1063.0,-1.0,0.0,0.30000000000000004,0.30000000000000004,3.5,9.3,-20.7,11.1,15.2,16
56,1081.0,-1.1,0.1,0.30000000000000004,0.30000000000000004,3.5,9.4,-8.700000000000001,4.2,21.500000000000004,16
57,1098.0,-1.0,0.2,0.2,0.30000000000000004,3.5,9.3,-4.0,-2.9,22.2,16
58,1114.0,-1.0,0.30000000000000004,-0.1,0.4,3.6,9.1,-7.400000000000001,-7.699999999999999,18.700000000000003,16
59,1130.0,-1.0,0.30000000000000004,-0.2,0.4,3.7,8.9,-11.900000000000002,-5.9,16.900000000000002,16
60,1147.0,-1.0,0.4,-0.2,0.4,3.6,8.9,-18.900000000000002,-1.8000000000000003,15.8,16
61,1164.0,-1.0,0.4,-0.2,0.4,3.6,9.0,-19.799999999999997,-2.6,15.399999999999999,16
62,1180.0,-0.9,0.30000000000000004,0.1,0.5,3.5,9.3,-14.200000000000001,-1.8000000000000003,17.1,16
63,1197.0,-0.9,0.30000000000000004,0.2,0.5,3.4000000000000004,9.3,-12.200000000000001,1.9,17.400000000000002,16
64,1214.0,-0.8,0.30000000000000004,0.2,0.6000000000000001,3.4000000000000004,9.3,-10.600000000000001,4.0,16.5,16
65,1235.0,-0.8,0.30000000000000004,0.0,0.6000000000000001,3.3000000000000003,9.1,-7.400000000000001,-0.7,13.399999999999999,16
66,1252.0,-0.8,0.2,-0.2,0.6000000000000001,3.3000000000000003,9.0,-11.700000000000001,-4.6,11.700000000000001,16
67,1267.0,-0.7000000000000001,0.2,-0.1,0.7000000000000001,3.2,9.1,-16.5,0.2,11.2,16
68,1280.0,-0.7000000000000001,0.2,0.1,0.7000000000000001,3.2,9.3,-18.0,7.500000000000001,10.5,16
69,1300.0,-0.7000000000000001,0.1,0.30000000000000004,0.6000000000000001,3.0,9.600000000000001,-11.4,7.500000000000001,12.5,16
70,1320.0,-0.8,0.1,0.4,0.6000000000000001,3.0,9.700000000000001,-1.1,1.6,14.100000000000001,16
71,1331.0,-0.8,0.1,0.4,0.6000000000000001,3.0,9.700000000000001,-1.1,1.6,14.100000000000001,16
72,1347.0,-0.8,0.1,0.2,0.6000000000000001,3.0,9.5,3.1,-2.3,13.900000000000002,16
73,1364.0,-0.7000000000000001,0.1,-0.1,0.7000000000000001,3.0,9.200000000000001,-1.3,-1.9,12.9,16
74,1380.0,-0.5,0.1,-0.1,0.9,3.0,9.200000000000001,-11.1,3.5,8.899999999999999,16
75,1397.0,-0.5,0.1,-0.1,0.9,2.9000000000000004,9.200000000000001,-14.400000000000002,8.8,6.300000000000001,16
76,1414.0,-0.5,0.0,-0.1,0.9,2.9000000000000004,9.200000000000001,-17.300000000000004,14.700000000000001,6.600000000000001,16
77,1431.0,-0.4,0.0,0.0,0.9,2.8000000000000003,9.4,-20.5,5.300000000000001,8.100000000000001,16
78,1447.0,-0.2,0.0,0.2,1.0,2.7,9.5,-19.700000000000003,0.0,7.0,16
79,1464.0,0.0,0.0,0.6000000000000001,1.3,2.7,9.9,-17.0,1.2000000000000002,3.1,16
80,1483.0,0.2,-0.1,0.8,1.4000000000000001,2.5,10.200000000000001,-15.8,16.200000000000003,0.7,16
81,1497.0,0.1,-0.1,0.9,1.4000000000000001,2.5,10.200000000000001,-14.200000000000001,20.5,0.8,16
82,1514.0,0.1,-0.2,0.8,1.2000000000000002,2.4000000000000004,10.200000000000001,-6.500000000000001,16.8,2.6,16
83,1530.0,0.1,-0.2,0.7000000000000001,1.2000000000000002,2.3000000000000003,10.100000000000001,-3.4,8.2,4.5,16
84,1550.0,0.4,-0.2,0.6000000000000001,1.5,2.3000000000000003,10.0,-1.6,-8.3,2.8,16
85,1566.0,0.8,-0.2,0.6000000000000001,1.9000000000000001,2.3000000000000003,10.0,-7.200000000000001,-3.7000000000000006,-2.5,16
86,1583.0,0.9,-0.30000000000000004,0.8,2.0,2.2,10.200000000000001,-9.3,21.1,-9.4,16
87,1597.0,1.0,-0.30000000000000004,0.8,1.9000000000000001,2.1,10.200000000000001,-7.6,30.5,-9.3,16
88,1614.0,0.7000000000000001,-0.4,0.7000000000000001,1.8,2.1,10.100000000000001,-5.6,33.800000000000004,-7.200000000000001,16
89,1630.0,0.4,-0.2,0.2,1.3,2.2,9.700000000000001,3.1,18.700000000000003,1.1,16
90,1648.0,0.2,-0.2,0.0,1.1,2.3000000000000003,9.5,4.4,10.700000000000001,3.5,16
91,1672.0,0.1,0.1,-0.30000000000000004,0.9,2.6,9.1,-2.4000000000000004,2.8,10.700000000000001,16
92,1683.0,0.0,0.2,-0.30000000000000004,0.9,2.6,9.1,-8.600000000000001,7.200000000000001,12.600000000000001,16
93,1697.0,0.0,0.30000000000000004,-0.30000000000000004,0.9,2.7,9.200000000000001,-13.200000000000003,12.100000000000001,13.900000000000002,16
94,1715.0,-0.1,0.5,0.1,0.8,2.9000000000000004,9.600000000000001,-10.1,11.700000000000001,13.399999999999999,16
95,1733.0,-0.1,0.5,0.2,0.7000000000000001,2.9000000000000004,9.700000000000001,-0.2,15.899999999999999,14.0,16
96,1750.0,-0.1,0.6000000000000001,0.2,0.7000000000000001,3.0,9.700000000000001,15.899999999999999,14.600000000000001,20.5,16
97,1764.0,-0.1,0.6000000000000001,0.1,0.7000000000000001,3.1,9.600000000000001,20.1,8.0,20.900000000000002,16
98,1782.0,-0.1,0.7000000000000001,0.0,0.7000000000000001,3.2,9.4,29.500000000000004,4.6,22.000000000000004,16
99,1802.0,0.2,0.6000000000000001,-0.2,1.0,3.2,9.3,39.0,10.200000000000001,15.8,16
100,1814.0,0.2,0.6000000000000001,-0.2,1.0,3.2,9.3,39.0,10.200000000000001,15.8,16
101,1833.0,0.5,0.5,-0.5,1.3,3.3000000000000003,8.700000000000001,29.600000000000005,10.4,6.4,16
102,1847.0,0.6000000000000001,0.5,-0.7000000000000001,1.3,3.3000000000000003,8.6,24.900000000000002,11.2,4.1,16
103,1864.0,0.5,0.30000000000000004,-0.8,1.1,3.2,8.5,21.1,14.900000000000002,5.1000000000000005,16
104,1883.0,0.30000000000000004,0.1,-0.9,1.0,3.1,8.4,16.6,7.1000000000000005,16.4,16
105,1898.0,0.2,0.1,-1.0,0.9,3.1,8.3,17.6,7.200000000000001,19.5,16
106,1915.0,0.2,0.1,-1.0,0.8,3.3000000000000003,8.3,21.200000000000003,0.7,20.7,16
107,1931.0,0.30000000000000004,0.30000000000000004,-0.8,0.9,3.4000000000000004,8.5,26.000000000000004,8.2,16.900000000000002,16
108,1947.0,0.4,0.4,-0.7000000000000001,1.1,3.6,8.6,34.800000000000004,-8.8,12.5,16
109,1964.0,0.4,0.4,-0.7000000000000001,1.1,3.7,8.5,31.9,4.2,13.5,16
110,1986.0,0.30000000000000004,0.4,-0.9,1.0,3.8000000000000003,8.200000000000001,14.400000000000002,16.1,18.5,16
111,1999.0,0.30000000000000004,0.5,-1.1,1.0,4.0,8.1,2.9,23.2,19.300000000000004,16
112,2013.0,0.30000000000000004,0.5,-1.1,1.0,4.0,8.1,2.9,23.2,19.300000000000004,16
113,2031.0,0.4,0.7000000000000001,-0.9,1.1,4.3,8.5,-2.4000000000000004,-9.4,7.9,16
114,2047.0,0.4,0.9,-0.4,1.1,4.3,8.8,0.5,-13.900000000000002,3.3000000000000007,16
115,2065.0,0.2,0.8,0.1,0.9,4.2,9.3,5.1000000000000005,-9.700000000000001,1.6,16
116,2082.0,0.0,0.7000000000000001,0.30000000000000004,0.7000000000000001,4.2,9.4,6.8,5.500000000000001,9.5,16
117,2099.0,-0.1,0.8,-0.2,0.6000000000000001,4.3,9.0,-8.600000000000001,18.200000000000003,11.8,16
118,2114.0,-0.1,1.0,-0.4,0.6000000000000001,4.5,8.8,-22.4,14.400000000000002,8.100000000000001,16
119,2130.0,0.0,1.1,-0.4,0.7000000000000001,4.5,8.700000000000001,-37.7,5.8,2.0,16
120,2147.0,0.1,1.0,0.2,0.8,4.3,9.4,-63.30000000000001,-9.5,-15.000000000000002,16
121,2164.0,0.0,0.5,1.5,0.7000000000000001,3.6,10.8,-67.8,3.0,-18.4,16
122,2180.0,-0.1,0.0,2.7,0.6000000000000001,2.9000000000000004,12.0,-45.0,34.60000000000001,-3.0,16
123,2200.0,-0.1,-0.2,2.9000000000000004,0.4,2.6,12.3,-15.299999999999999,54.699999999999996,14.600000000000001,16
124,2214.0,-0.1,-0.2,2.9000000000000004,0.4,2.6,12.3,-15.299999999999999,54.699999999999996,14.600000000000001,16
125,2230.0,-0.2,-0.2,2.3000000000000003,0.0,2.6,11.3,16.4,29.500000000000004,24.3,16
126,2247.0,-0.30000000000000004,-0.2,1.4000000000000001,-0.1,2.6,10.8,21.300000000000004,15.100000000000001,24.3,16
127,2264.0,-0.30000000000000004,-0.4,0.8,0.0,2.5,10.200000000000001,22.4,-7.500000000000001,23.099999999999998,16
128,2281.0,-0.30000000000000004,-0.6000000000000001,0.5,0.0,2.4000000000000004,9.9,18.1,2.7,18.900000000000002,16
129,2304.0,-0.2,-0.8,0.30000000000000004,0.1,2.2,9.700000000000001,7.6,15.700000000000001,17.400000000000002,16
130,2318.0,-0.30000000000000004,-0.8,0.30000000000000004,0.0,2.2,9.600000000000001,3.9,16.700000000000003,16.8,16
131,2330.0,-0.30000000000000004,-0.8,0.2,-0.1,2.2,9.5,3.3000000000000007,17.200000000000003,17.300000000000004,16
132,2347.0,-0.4,-0.9,-0.1,-0.2,2.2,9.200000000000001,5.1000000000000005,14.600000000000001,20.3,16
133,2365.0,-0.4,-0.9,-0.6000000000000001,-0.2,2.2,8.8,5.8,8.0,23.800000000000004,16
134,2387.0,-0.6000000000000001,-0.8,-0.9,-0.5,2.2,8.4,-0.9000000000000001,4.2,25.0,16
135,2397.0,-0.9,-0.8,-1.0,-0.7000000000000001,2.2,8.3,-0.5,4.2,28.200000000000003,16
136,2414.0,-1.0,-0.8,-1.1,-0.8,2.2,8.3,1.5,4.9,34.1,16
137,2434.0,-1.1,-0.7000000000000001,-1.2000000000000002,-0.8,2.5,8.1,8.4,-3.3000000000000007,45.8,16
138,2448.0,-1.0,-0.4,-1.4000000000000001,-0.8,2.6,7.9,9.8,-2.3,44.7,16
139,2464.0,-1.1,-0.4,-1.8,-0.8,2.7,7.5,5.6,-6.500000000000001,43.1,16
140,2481.0,-1.1,-0.30000000000000004,-1.8,-0.7000000000000001,2.7,7.5,1.5,-19.5,45.2,16
141,2500.0,-1.0,-0.1,-1.5,-0.5,3.0,7.800000000000001,13.000000000000002,-30.9,43.2,16
142,2514.0,-0.9,0.0,-1.5,-0.30000000000000004,3.1,7.800000000000001,14.0,-29.900000000000006,40.800000000000004,16
143,2538.0,-0.9,0.1,-1.6,-0.2,3.2,7.6000000000000005,11.000000000000002,-26.700000000000003,38.50000000000001,16
144,2547.0,-0.8,0.2,-1.9000000000000001,0.0,3.4000000000000004,7.4,-2.8,-27.2,33.6,16
145,2565.0,-0.7000000000000001,0.4,-1.6,0.2,3.5,7.6000000000000005,-9.5,-38.0,23.099999999999998,16
146,2580.0,-1.0,0.4,-1.7000000000000002,0.1,3.4000000000000004,7.6000000000000005,-16.6,-39.400000000000006,18.1,16
147,2597.0,-1.1,0.4,-1.8,0.1,3.4000000000000004,7.5,-25.8,-32.400000000000006,20.7,16
148,2614.0,-1.1,0.4,-1.9000000000000001,0.2,3.3000000000000003,7.4,-39.0,-20.900000000000002,21.300000000000004,16
149,2632.0,-0.6000000000000001,0.5,-2.1,0.8,3.0,7.2,-88.50000000000001,0.8,2.7,16
150,2648.0,-0.1,0.2,-1.4000000000000001,1.2000000000000002,2.8000000000000003,8.0,-98.7,20.1,-4.5,16
151,2665.0,-0.2,-0.1,0.5,1.0,2.1,9.9,-87.40000000000002,67.5,-24.1,16
152,2683.0,0.2,0.1,1.3,1.1,2.1,10.9,-76.1,30.9,-23.099999999999998,16
153,2698.0,0.5,0.0,1.4000000000000001,1.3,1.9000000000000001,11.0,-64.9,10.5,-29.1,16
154,2714.0,0.7000000000000001,0.0,1.5,1.5,1.5,11.100000000000001,-56.7,10.700000000000001,-45.7,16
155,2732.0,0.6000000000000001,-0.30000000000000004,1.6,1.4000000000000001,1.3,11.3,-57.20000000000001,22.5,-48.300000000000004,16
156,2747.0,0.4,-0.7000000000000001,2.1,1.1,0.7000000000000001,11.8,-51.800000000000004,26.200000000000003,-44.4,16
157,2764.0,0.30000000000000004,-1.1,2.7,0.9,0.2,12.4,-53.2,3.7000000000000006,-39.699999999999996,16
158,2790.0,0.8,-1.0,3.1,1.4000000000000001,0.0,12.9,-31.0,-4.300000000000001,-49.800000000000004,16
159,2799.0,0.8,-1.0,3.1,1.4000000000000001,0.0,12.9,-31.0,-4.300000000000001,-49.800000000000004,16
160,2814.0,1.1,-0.9,2.9000000000000004,1.7000000000000002,0.1,12.600000000000001,-9.899999999999999,-5.7,-51.300000000000004,16
161,2830.0,1.7000000000000002,-0.8,1.8,2.3000000000000003,0.2,10.9,-2.1,-34.400000000000006,-35.599999999999994,16
162,2847.0,1.5,-0.7000000000000001,0.6000000000000001,2.2,0.30000000000000004,10.3,-11.5,-39.300000000000004,-25.1,16
163,2866.0,0.9,-0.4,-0.2,1.7000000000000002,0.5,9.5,-34.2,-29.200000000000003,-2.2,16
164,2903.0,0.9,0.1,-0.30000000000000004,1.8,0.8,9.4,-42.3,-8.4,34.300000000000004,16
165,2914.0,1.4000000000000001,-0.30000000000000004,0.0,2.4000000000000004,0.30000000000000004,9.8,-36.9,-11.1,35.699999999999996,16
166,2932.0,1.7000000000000002,-0.6000000000000001,0.1,2.7,-0.1,9.9,-31.9,-25.7,26.300000000000004,16
167,2950.0,1.4000000000000001,-0.7000000000000001,-0.2,2.7,-0.30000000000000004,9.5,-17.300000000000004,-77.00000000000001,-18.200000000000003,16
168,2965.0,0.8,-0.4,-0.5,2.2,-0.1,9.200000000000001,-16.5,-53.300000000000004,-39.400000000000006,16
169,2994.0,-0.1,0.30000000000000004,-1.4000000000000001,1.5,0.6000000000000001,8.3,5.300000000000001,12.8,-41.900000000000006,16
170,3000.0,-0.1,0.30000000000000004,-1.4000000000000001,1.5,0.6000000000000001,8.3,5.300000000000001,12.8,-41.900000000000006,16
171,3014.0,-0.1,0.5,-1.7000000000000002,1.4000000000000001,0.8,7.9,14.100000000000001,38.60000000000001,-49.9,16
172,3031.0,-0.1,0.7000000000000001,-2.9000000000000004,1.1,1.1,6.800000000000001,35.1,85.1,-57.699999999999996,16
173,3050.0,0.1,0.6000000000000001,-3.2,1.1,1.2000000000000002,6.6000000000000005,35.699999999999996,106.20000000000002,-33.800000000000004,16
174,3064.0,0.1,1.0,-3.5,0.8,1.7000000000000002,6.2,13.100000000000001,122.50000000000001,3.1,16
175,3088.0,0.0,0.9,-2.8000000000000003,0.30000000000000004,1.5,6.9,-19.799999999999997,99.7,30.200000000000003,16
176,3097.0,0.0,0.8,-2.5,0.2,1.4000000000000001,7.300000000000001,-13.399999999999999,96.0,37.400000000000006,16
177,3114.0,0.5,0.4,-1.0,0.4,1.0,8.8,27.0,65.8,33.50000000000001,16
178,3130.0,0.8,0.1,-0.7000000000000001,0.5,0.8,9.1,32.400000000000006,59.1,23.2,16
179,3148.0,0.7000000000000001,-0.1,-0.5,0.30000000000000004,0.7000000000000001,9.3,5.0,4.2,-1.3,16
180,3164.0,0.5,0.0,-0.4,0.0,0.8,9.4,-3.1,-3.0,-2.5,16
181,3185.0,-0.30000000000000004,0.1,0.0,-0.7000000000000001,0.8,9.8,-14.800000000000002,-8.100000000000001,5.6,16
182,3197.0,-0.5,0.1,0.30000000000000004,-0.9,0.9,10.100000000000001,-21.7,2.6,13.700000000000001,16
183,3214.0,-0.6000000000000001,0.2,0.7000000000000001,-1.0,0.9,10.5,-21.6,9.600000000000001,21.0,16
184,3230.0,-0.1,0.2,2.2,-0.6000000000000001,0.8,12.0,12.200000000000001,9.600000000000001,24.900000000000002,16
185,3247.0,0.0,0.4,2.4000000000000004,-0.5,1.1,12.100000000000001,25.900000000000002,5.7,21.300000000000004,16
186,3265.0,-0.6000000000000001,0.6000000000000001,2.1,-1.1,1.4000000000000001,11.9,17.0,-1.5,26.6,16
187,3285.0,-1.7000000000000002,0.4,2.4000000000000004,-2.2,1.2000000000000002,12.100000000000001,-19.799999999999997,23.800000000000004,55.1,16
188,3297.0,-2.0,0.1,3.0,-2.5,0.9,12.8,-29.300000000000004,18.200000000000003,69.4,16
189,3314.0,-1.3,-0.7000000000000001,4.800000000000001,-1.9000000000000001,0.0,14.600000000000001,-7.1000000000000005,-31.400000000000002,76.0,16
190,3331.0,-0.8,-1.1,5.300000000000001,-1.3,-0.5,15.100000000000001,20.5,-50.1,64.50000000000001,16
191,3349.0,-0.1,-2.0,4.800000000000001,-0.30000000000000004,-1.3,13.700000000000001,80.50000000000001,-43.900000000000006,14.300000000000002,16
192,3365.0,-0.30000000000000004,-2.3000000000000003,3.1,-0.4,-1.2000000000000002,12.8,80.30000000000001,-32.8,6.699999999999999,16
193,3390.0,-1.2000000000000002,-2.1,1.2000000000000002,-1.2000000000000002,-0.8,11.0,39.0,0.6000000000000001,26.5,16
194,3397.0,-1.3,-2.1,0.7000000000000001,-1.3,-0.6000000000000001,10.4,39.0,0.6000000000000001,26.5,16
195,3418.0,-0.8,-1.7000000000000002,0.30000000000000004,-0.8,-0.2,10.0,4.7,-1.5,37.7,16
196,3430.0,-0.6000000000000001,-1.7000000000000002,0.4,-0.5,-0.1,10.100000000000001,13.000000000000002,-3.7000000000000006,35.3,16
197,3448.0,-0.30000000000000004,-1.6,0.30000000000000004,-0.2,-0.1,9.9,24.200000000000003,-5.1000000000000005,30.699999999999996,16
198,3465.0,0.2,-1.6,-0.4,0.30000000000000004,0.1,9.200000000000001,39.599999999999994,1.8000000000000003,13.6,16
199,3484.0,0.30000000000000004,-1.3,-1.3,0.30000000000000004,0.5,8.4,43.70000000000001,17.400000000000002,0.1,16
200,3498.0,0.1,-1.1,-1.6,0.1,0.8,8.0,43.2,23.400000000000002,2.2,16
201,3514.0,-0.2,-0.8,-1.8,-0.5,1.5,7.7,38.900000000000006,15.5,16.1,16
202,3530.0,-0.5,-0.4,-2.0,-0.6000000000000001,1.7000000000000002,7.6000000000000005,33.2,-8.4,23.6,16
203,3547.0,-0.5,-0.30000000000000004,-2.1,-0.4,1.8,7.5,19.200000000000003,-49.50000000000001,33.50000000000001,16
204,3564.0,-0.4,-0.30000000000000004,-2.2,-0.1,1.9000000000000001,7.4,21.1,-51.2,26.5,16
205,3587.0,-0.5,-0.2,-2.3000000000000003,-0.2,2.1,7.2,30.3,-29.500000000000004,18.3,16
206,3605.0,-0.8,0.0,-2.4000000000000004,-0.30000000000000004,2.3000000000000003,7.1000000000000005,37.50000000000001,-6.699999999999999,19.0,16
207,3614.0,-0.8,0.0,-2.4000000000000004,-0.30000000000000004,2.3000000000000003,7.1000000000000005,37.50000000000001,-6.699999999999999,19.0,16
208,3630.0,-1.0,0.1,-2.3000000000000003,-0.5,2.6,7.2,36.2,11.900000000000002,35.0,16
209,3647.0,-0.7000000000000001,0.1,-1.7000000000000002,-0.2,2.7,7.800000000000001,34.0,10.200000000000001,35.699999999999996,16
210,3673.0,0.0,-0.2,-0.5,0.5,2.6,8.9,45.2,-17.6,16.1,16
211,3686.0,0.0,-0.4,-0.30000000000000004,0.6000000000000001,2.5,9.1,42.900000000000006,-23.700000000000003,6.300000000000001,16
212,3697.0,0.0,-0.5,0.0,0.6000000000000001,2.5,9.3,39.2,-14.5,-1.4,16
213,3715.0,0.0,-0.6000000000000001,0.6000000000000001,0.7000000000000001,2.5,9.9,46.50000000000001,11.4,-15.399999999999999,16
214,3731.0,0.1,-0.6000000000000001,0.8,0.7000000000000001,2.6,10.0,57.20000000000001,25.6,-21.500000000000004,16
215,3751.0,0.5,-0.30000000000000004,0.6000000000000001,0.9,3.1,9.8,43.1,58.800000000000004,-41.4,16
216,3764.0,0.6000000000000001,0.0,0.6000000000000001,0.8,3.5,9.8,26.300000000000004,50.7,-47.900000000000006,16
217,3782.0,0.4,0.8,0.8,0.4,4.4,9.9,-3.2,22.6,-46.50000000000001,16
218,3797.0,0.4,0.9,0.8,0.2,4.6000000000000005,9.9,-22.5,14.0,-37.300000000000004,16
219,3813.0,0.1,1.1,0.9,0.0,4.6000000000000005,10.0,-45.3,15.299999999999999,-25.300000000000004,16
220,3831.0,0.2,1.0,1.9000000000000001,-0.1,3.9000000000000004,12.100000000000001,-56.400000000000006,62.199999999999996,-4.7,16
221,3847.0,0.1,0.30000000000000004,3.6,-0.2,3.4000000000000004,12.9,-37.9,74.80000000000001,-2.5,16
222,3865.0,0.6000000000000001,-1.0,4.2,0.0,2.0,13.5,4.4,67.60000000000001,-0.8,16
223,3890.0,1.3,-2.3000000000000003,3.3000000000000003,0.6000000000000001,0.8,12.600000000000001,11.1,-29.700000000000006,-14.700000000000001,16
224,3898.0,1.6,-2.4000000000000004,2.6,0.9,0.7000000000000001,11.9,4.4,-52.400000000000006,-22.700000000000003,16
225,3915.0,1.6,-2.3000000000000003,1.9000000000000001,1.3,0.9,10.5,-13.3,-59.80000000000001,-22.700000000000003,16
226,3932.0,1.9000000000000001,-2.2,0.7000000000000001,1.4000000000000001,0.9,10.0,-19.9,-49.800000000000004,-13.900000000000002,16
227,3950.0,2.2,-2.2,0.30000000000000004,1.9000000000000001,0.7000000000000001,9.600000000000001,-18.0,-1.0,0.7,16
228,3966.0,2.4000000000000004,-2.2,0.4,2.0,0.7000000000000001,9.700000000000001,-11.1,6.1000000000000005,-2.5,16
229,3989.0,2.5,-2.3000000000000003,0.30000000000000004,2.2,0.6000000000000001,9.700000000000001,24.400000000000002,-6.2,-24.400000000000002,16
230,3997.0,2.5,-2.3000000000000003,0.30000000000000004,2.2,0.6000000000000001,9.700000000000001,24.400000000000002,-6.2,-24.400000000000002,16
231,4014.0,2.5,-2.3000000000000003,0.4,2.2,0.6000000000000001,9.700000000000001,41.4,-11.2,-36.5,16
232,4031.0,1.7000000000000002,-2.2,-0.5,1.4000000000000001,1.0,8.8,70.7,-18.0,-44.4,16
233,4047.0,1.3,-2.1,-0.9,1.0,1.2000000000000002,8.3,73.8,-14.5,-35.1,16
234,4064.0,0.5,-1.8,-1.6,0.2,1.8,7.5,76.0,-5.500000000000001,-21.0,16
235,4081.0,-0.1,-1.1,-1.5,-0.30000000000000004,2.6,7.5,81.2,-26.799999999999997,-13.6,16
236,4101.0,-0.6000000000000001,-0.6000000000000001,-1.4000000000000001,-0.8,3.4000000000000004,7.6000000000000005,85.60000000000001,-30.000000000000004,-23.2,16
237,4121.0,-1.5,-0.5,-1.9000000000000001,-1.7000000000000002,3.8000000000000003,6.9,59.80000000000001,-15.100000000000001,-29.600000000000005,16
238,4131.0,-1.5,-0.5,-1.9000000000000001,-1.7000000000000002,3.8000000000000003,6.9,59.80000000000001,-15.100000000000001,-29.600000000000005,16
239,4147.0,-2.2,0.0,-2.4000000000000004,-2.4000000000000004,4.5,6.4,36.2,-22.5,-17.6,16
240,4163.0,-2.4000000000000004,0.6000000000000001,-2.4000000000000004,-2.5,5.1000000000000005,6.300000000000001,27.800000000000004,-32.7,-9.700000000000001,16
241,4187.0,-2.1,1.0,-1.8,-2.1,5.6000000000000005,6.800000000000001,29.900000000000006,-38.0,-3.7000000000000006,16
242,4197.0,-1.9000000000000001,1.1,-1.4000000000000001,-1.9000000000000001,5.7,7.2,29.800000000000004,-15.6,1.6,16
243,4214.0,-1.7000000000000002,0.9,-1.0,-1.6,5.6000000000000005,7.6000000000000005,31.0,-6.300000000000001,7.400000000000001,16
244,4231.0,-1.0,0.2,-0.9,-0.9,5.1000000000000005,7.7,18.5,17.1,15.299999999999999,16
245,4256.0,-0.8,0.30000000000000004,-1.0,-0.7000000000000001,5.1000000000000005,7.5,14.800000000000002,21.8,16.1,16
246,4264.0,-0.4,0.4,-0.9,-0.30000000000000004,5.300000000000001,7.6000000000000005,16.6,47.400000000000006,12.200000000000001,16
247,4287.0,0.30000000000000004,0.4,-0.30000000000000004,0.2,5.300000000000001,8.1,28.3,46.6,5.500000000000001,16
248,4297.0,0.4,0.30000000000000004,-0.30000000000000004,0.4,5.4,8.5,30.000000000000004,42.0,-0.9000000000000001,16
249,4314.0,0.4,0.30000000000000004,0.4,0.1,5.4,8.700000000000001,28.1,47.7,-1.8000000000000003,16
250,4330.0,0.2,0.30000000000000004,0.30000000000000004,-0.2,5.4,8.700000000000001,21.900000000000002,43.300000000000004,8.3,16
251,4347.0,0.1,0.2,0.4,-0.4,5.4,8.700000000000001,-5.7,14.700000000000001,31.5,16
252,4368.0,0.4,0.5,1.6,0.0,5.6000000000000005,9.9,-15.399999999999999,-16.4,19.6,16
253,4380.0,-0.1,-0.1,2.9000000000000004,-0.4,5.1000000000000005,11.3,-1.7,-8.0,13.5,16
254,4405.0,-0.6000000000000001,-0.8,3.2,-0.9,4.3,11.600000000000001,10.600000000000001,16.4,31.099999999999998,16
255,4418.0,-0.6000000000000001,-0.8,3.2,-0.9,4.3,11.600000000000001,10.600000000000001,16.4,31.099999999999998,16
256,4430.0,-0.5,-0.9,2.5,-0.7000000000000001,4.5,10.5,-2.8,24.200000000000003,24.400000000000002,16
257,4447.0,-0.2,-0.6000000000000001,1.8,-0.6000000000000001,4.5,10.100000000000001,-5.7,23.2,19.0,16
258,4464.0,-0.1,-0.7000000000000001,1.5,-0.4,4.4,9.600000000000001,-10.5,11.900000000000002,8.100000000000001,16
259,4484.0,0.1,-0.9,1.0,-0.30000000000000004,4.3,9.3,-13.700000000000001,-1.7,7.699999999999999,16
260,4497.0,0.1,-0.9,0.8,-0.30000000000000004,4.2,9.200000000000001,-12.200000000000001,-4.1,10.0,16
261,4513.0,0.2,-1.1,0.5,-0.1,4.0,8.8,1.8000000000000003,14.5,11.6,16
262,4530.0,0.30000000000000004,-1.1,0.2,-0.1,3.9000000000000004,8.6,9.100000000000001,23.6,12.5,16
263,4547.0,0.2,-1.2000000000000002,-0.6000000000000001,-0.2,3.9000000000000004,7.800000000000001,23.900000000000006,28.0,29.400000000000002,16
264,4564.0,0.30000000000000004,-1.2000000000000002,-1.5,-0.1,3.9000000000000004,6.9,16.8,25.200000000000003,24.900000000000002,16
265,4582.0,0.2,-1.1,-2.1,-0.30000000000000004,4.1000000000000005,6.2,17.799999999999997,-5.500000000000001,16.700000000000003,16
266,4597.0,0.1,-1.0,-2.3000000000000003,-0.30000000000000004,4.2,5.9,17.1,-9.4,15.000000000000002,16
267,4614.0,0.0,-0.9,-2.5,-0.4,4.4,5.800000000000001,12.600000000000001,-5.1000000000000005,15.2,16
268,4630.0,0.0,-0.5,-2.5,-0.30000000000000004,4.800000000000001,5.800000000000001,-0.9000000000000001,0.8,24.3,16
269,4647.0,0.1,-0.4,-2.5,-0.2,4.9,5.800000000000001,-1.4,-0.2,23.2,16
270,4663.0,0.2,0.0,-2.4000000000000004,-0.1,5.300000000000001,5.800000000000001,5.8,2.6,0.30000000000000004,16
271,4682.0,-0.1,0.30000000000000004,-2.1,-0.4,5.6000000000000005,6.2,12.600000000000001,-16.1,-13.900000000000002,16
272,4697.0,-0.4,0.30000000000000004,-1.8,-0.7000000000000001,5.6000000000000005,6.4,13.8,-26.000000000000004,-11.8,16
273,4713.0,-0.7000000000000001,0.2,-1.4000000000000001,-1.0,5.6000000000000005,6.800000000000001,13.000000000000002,-17.9,-4.0,16
274,4730.0,-0.8,0.1,-1.2000000000000002,-1.1,5.5,7.0,12.7,-2.4000000000000004,-2.7,16
275,4747.0,-1.0,0.30000000000000004,-0.8,-1.2000000000000002,5.7,7.4,10.600000000000001,17.0,-1.1,16
276,4764.0,-0.9,0.4,-0.30000000000000004,-1.2000000000000002,5.9,7.9,2.7,5.1000000000000005,3.6000000000000005,16
277,4780.0,-0.8,0.6000000000000001,0.30000000000000004,-1.0,6.0,8.5,-7.1000000000000005,-14.200000000000001,5.7,16
278,4798.0,-0.7000000000000001,0.6000000000000001,0.7000000000000001,-0.9,6.1000000000000005,8.8,-11.3,-23.2,5.500000000000001,16
279,4814.0,-0.5,0.7000000000000001,1.1,-0.8,6.1000000000000005,9.200000000000001,-14.300000000000002,-26.799999999999997,4.9,16
280,4832.0,0.2,0.6000000000000001,1.7000000000000002,0.0,5.9,9.9,-13.100000000000001,7.699999999999999,9.0,16
281,4847.0,0.4,0.6000000000000001,1.9000000000000001,0.2,5.9,10.100000000000001,-18.700000000000003,4.4,7.6,16
282,4865.0,0.9,0.5,2.3000000000000003,0.8,5.800000000000001,10.600000000000001,-38.2,-8.700000000000001,-6.1000000000000005,16
283,4880.0,1.1,0.1,3.0,1.0,5.300000000000001,11.3,-43.70000000000001,-21.300000000000004,-19.9,16
284,4901.0,1.2000000000000002,-0.1,3.3000000000000003,1.0,5.0,11.600000000000001,-36.9,-17.9,-18.900000000000002,16
285,4914.0,1.1,-0.4,3.4000000000000004,1.0,4.7,11.8,-25.6,-11.6,-16.1,16
286,4932.0,1.1,-0.6000000000000001,3.4000000000000004,1.0,4.4,11.8,5.2,-2.6,-9.899999999999999,16
287,4947.0,1.2000000000000002,-0.8,2.6,1.0,4.3,11.0,30.5,-3.9,-2.7,16
288,4964.0,1.2000000000000002,-0.8,1.3,1.1,4.3,9.700000000000001,37.9,-4.300000000000001,-5.0,16
289,4980.0,1.0,-0.8,0.0,0.9,4.5,8.3,21.0,-9.0,-12.299999999999999,16
290,4999.0,0.6000000000000001,-0.7000000000000001,-0.9,0.5,4.6000000000000005,7.4,-6.2,-15.5,-15.6,16
291,5020.0,0.30000000000000004,-0.6000000000000001,-1.2000000000000002,0.2,4.7,7.0,-21.500000000000004,-11.4,-12.200000000000001,16
292,5030.0,0.30000000000000004,-0.5,-1.3,0.1,4.800000000000001,7.0,-22.2,-8.2,-12.100000000000001,16
293,5047.0,0.1,-0.4,-1.2000000000000002,0.1,4.800000000000001,7.1000000000000005,-18.8,-3.2,-14.5,16
294,5064.0,0.1,-0.30000000000000004,-1.3,0.0,4.800000000000001,7.1000000000000005,-3.5,13.100000000000001,-25.200000000000003,16
295,5080.0,0.0,-0.6000000000000001,-1.5,-0.2,4.5,6.800000000000001,12.200000000000001,20.900000000000002,-35.0,16
296,5097.0,0.0,-0.8,-1.7000000000000002,-0.30000000000000004,4.4,6.7,17.6,19.6,-37.0,16
297,5114.0,-0.1,-1.2000000000000002,-1.9000000000000001,-0.4,4.0,6.4,23.400000000000002,8.3,-35.2,16
298,5134.0,-0.1,-1.4000000000000001,-1.9000000000000001,-0.5,3.8000000000000003,6.300000000000001,22.700000000000003,6.1000000000000005,-28.700000000000003,16
299,5158.0,-0.4,-1.9000000000000001,-1.9000000000000001,-0.9,3.4000000000000004,6.4,18.6,21.400000000000002,-9.0,16
300,5164.0,-0.4,-1.9000000000000001,-1.8,-1.0,3.4000000000000004,6.4,20.0,30.699999999999996,-2.1,16
301,5180.0,-0.4,-1.9000000000000001,-1.9000000000000001,-1.1,3.5,6.300000000000001,22.4,43.2,4.1,16
302,5197.0,-0.4,-1.8,-2.0,-1.1,3.7,6.2,21.500000000000004,41.1,4.7,16
303,5213.0,-0.4,-1.6,-2.1,-1.1,3.9000000000000004,6.0,18.200000000000003,37.50000000000001,4.0,16
304,5230.0,-0.5,-1.2000000000000002,-2.2,-1.5,4.5,5.800000000000001,-2.4000000000000004,23.700000000000003,4.6,16
305,5247.0,-0.8,-0.8,-2.2,-1.7000000000000002,4.7,5.800000000000001,-10.299999999999999,18.3,6.8,16
306,5263.0,-1.1,-0.5,-1.9000000000000001,-2.0,5.0,6.2,-27.2,6.8,16.1,16
307,5281.0,-1.0,-0.2,-1.0,-1.9000000000000001,5.2,7.1000000000000005,-46.9,-10.299999999999999,30.699999999999996,16
308,5303.0,-0.6000000000000001,0.2,0.30000000000000004,-1.4000000000000001,5.4,8.5,-52.400000000000006,-11.000000000000002,27.800000000000004,16
309,5314.0,-0.4,0.30000000000000004,1.0,-1.2000000000000002,5.5,9.3,-51.1,-1.2000000000000002,21.300000000000004,16
310,5330.0,-0.30000000000000004,0.5,1.5,-1.0,5.6000000000000005,9.9,-45.7,16.6,14.700000000000001,16
311,5348.0,-0.1,0.5,1.9000000000000001,-1.0,5.5,10.3,-31.5,50.3,8.4,16
312,5363.0,-0.30000000000000004,1.0,1.6,-1.3,5.9,10.100000000000001,-39.9,33.400000000000006,11.2,16
313,5383.0,0.1,0.8,3.2,-0.9,5.5,11.700000000000001,-60.5,-12.4,7.300000000000001,16
314,5400.0,-0.30000000000000004,0.0,4.7,-1.2000000000000002,4.6000000000000005,13.3,-64.4,-28.600000000000005,2.2,16
315,5413.0,-0.30000000000000004,0.0,4.7,-1.2000000000000002,4.6000000000000005,13.3,-63.0,-33.7,-1.3,16
316,5430.0,-0.8,-0.4,5.0,-1.6,4.0,13.700000000000001,-36.0,-16.3,3.4,16
317,5448.0,-0.9,-0.30000000000000004,4.4,-1.6,4.0,13.200000000000001,-26.1,-11.6,5.2,16
318,5467.0,-0.5,0.0,3.0,-1.2000000000000002,4.2,11.8,-11.4,-6.0,5.0,16
319,5484.0,-0.30000000000000004,0.1,2.1,-1.0,4.3,10.9,-10.700000000000001,-1.2000000000000002,0.1,16
320,5497.0,-0.4,0.1,1.9000000000000001,-1.1,4.3,10.700000000000001,-12.299999999999999,2.2,-2.8,16
321,5519.0,-0.7000000000000001,-0.30000000000000004,1.5,-1.4000000000000001,3.9000000000000004,10.4,-6.0,9.899999999999999,-4.6,16
322,5530.0,-0.8,-0.5,1.1,-1.5,3.6,9.9,2.9,13.8,-2.7,16
323,5547.0,-0.9,-0.8,-0.30000000000000004,-1.7000000000000002,3.4000000000000004,8.6,25.1,20.599999999999998,5.2,16
324,5563.0,-0.6000000000000001,-0.8,-1.6,-1.5,3.4000000000000004,7.2,42.800000000000004,23.0,15.700000000000001,16
325,5580.0,-0.5,-0.8,-2.6,-1.3,3.6,6.1000000000000005,55.2,17.200000000000003,22.8,16
326,5599.0,-0.7000000000000001,-0.9,-3.3000000000000003,-1.6,3.6,5.300000000000001,57.60000000000001,13.000000000000002,24.200000000000003,16
327,5614.0,-0.7000000000000001,-0.9,-3.3000000000000003,-1.6,3.6,5.300000000000001,58.800000000000004,7.9,25.6,16
328,5640.0,-0.2,-0.9,-3.5,-1.1,4.0,5.0,55.900000000000006,-4.800000000000001,33.2,16
329,5647.0,0.1,-0.7000000000000001,-3.4000000000000004,-0.7000000000000001,4.2,5.0,53.9,-7.0,34.900000000000006,16
330,5665.0,1.1,-0.4,-3.3000000000000003,0.30000000000000004,4.7,5.0,46.9,-6.500000000000001,29.1,16
331,5683.0,1.2000000000000002,-0.4,-2.9000000000000004,0.5,4.800000000000001,5.300000000000001,33.300000000000004,-7.200000000000001,9.8,16
332,5697.0,0.6000000000000001,-0.6000000000000001,-2.4000000000000004,-0.1,4.7,5.800000000000001,23.400000000000002,-12.7,-1.6,16
333,5714.0,-0.6000000000000001,-1.0,-1.2000000000000002,-1.2000000000000002,4.4,7.0,3.9,-24.900000000000002,-16.1,16
334,5732.0,-1.2000000000000002,-0.9,-0.7000000000000001,-1.8,4.4,7.5,-1.6,-24.599999999999998,-15.899999999999999,16
335,5750.0,-1.7000000000000002,0.1,0.0,-2.0,5.7,8.4,-6.300000000000001,-16.5,-3.7000000000000006,16
336,5765.0,-1.1,0.4,0.2,-1.6,5.7,8.4,-8.2,-11.1,-4.4,16
337,5784.0,-0.9,0.1,0.2,-1.4000000000000001,5.4,8.4,-12.9,-4.1,-11.4,16
338,5802.0,-1.2000000000000002,-0.4,0.30000000000000004,-1.8,4.800000000000001,8.6,-23.800000000000004,0.6000000000000001,-19.9,16
339,5818.0,-2.1,-1.1,1.1,-2.7,4.0,9.5,-38.800000000000004,4.9,-17.200000000000003,16
340,5830.0,-2.1,-1.1,1.1,-2.7,3.6,9.700000000000001,-42.3,13.8,-7.9,16
341,5848.0,-2.0,-1.6,1.4000000000000001,-2.7,3.5,9.8,-43.4,24.599999999999998,3.8,16
342,5864.0,-1.7000000000000002,-0.5,1.4000000000000001,-2.4000000000000004,4.4,9.9,-44.7,27.2,23.400000000000002,16
343,5889.0,-0.7000000000000001,-0.1,2.0,-1.4000000000000001,4.7,10.5,-46.6,10.700000000000001,28.1,16
344,5897.0,-0.4,-0.1,2.5,-1.2000000000000002,4.6000000000000005,11.100000000000001,-52.400000000000006,-8.2,18.1,16
345,5922.0,0.1,-1.0,4.0,-0.5,3.4000000000000004,12.700000000000001,-58.900000000000006,-23.900000000000006,2.4000000000000004,16
346,5930.0,0.1,-1.0,4.0,-0.5,3.4000000000000004,12.700000000000001,-58.900000000000006,-23.900000000000006,2.4000000000000004,16
347,5948.0,0.30000000000000004,-1.1,4.2,0.2,3.0,13.3,-49.199999999999996,-32.1,8.5,16
348,5963.0,2.1,-1.3,3.8000000000000003,1.6,2.9000000000000004,12.700000000000001,-26.300000000000004,-19.799999999999997,18.200000000000003,16
349,5981.0,2.6,-0.9,3.0,2.2,3.2,12.0,-15.399999999999999,-4.0,18.6,16
350,5999.0,3.3000000000000003,-0.30000000000000004,1.1,2.9000000000000004,3.7,10.0,-4.300000000000001,20.3,9.700000000000001,16
351,6014.0,3.4000000000000004,-0.2,0.0,3.0,3.8000000000000003,9.0,-2.4000000000000004,27.6,0.7,16
352,6031.0,1.8,-0.2,-1.4000000000000001,1.3,3.8000000000000003,7.5,-6.0,12.299999999999999,-22.4,16
353,6047.0,1.4000000000000001,-0.30000000000000004,-1.3,0.8,3.8000000000000003,7.6000000000000005,-5.2,-4.9,-22.5,16
354,6064.0,0.9,-0.2,-1.2000000000000002,0.30000000000000004,3.8000000000000003,7.7,11.3,-13.6,-13.100000000000001,16
355,6080.0,1.0,0.0,-2.0,0.5,4.0,6.9,33.0,-9.5,-5.300000000000001,16
356,6099.0,1.4000000000000001,-0.1,-2.8000000000000003,0.8,4.1000000000000005,6.1000000000000005,43.6,4.4,-7.0,16
357,6114.0,1.3,-0.2,-3.1,0.7000000000000001,4.1000000000000005,5.7,44.10000000000001,12.100000000000001,-11.6,16
358,6130.0,1.1,-0.30000000000000004,-3.3000000000000003,0.5,4.0,5.5,42.60000000000001,16.900000000000002,-17.7,16
359,6147.0,0.2,-0.7000000000000001,-3.5,-0.5,3.8000000000000003,5.2,35.9,15.399999999999999,-28.600000000000005,16
360,6163.0,-0.30000000000000004,-1.0,-3.4000000000000004,-1.1,3.5,5.300000000000001,26.400000000000006,9.8,-30.5,16
361,6181.0,-0.30000000000000004,-1.2000000000000002,-3.0,-1.2000000000000002,3.4000000000000004,5.6000000000000005,14.400000000000002,11.2,-25.1,16
362,6197.0,-0.30000000000000004,-1.2000000000000002,-3.0,-1.2000000000000002,3.4000000000000004,5.6000000000000005,14.400000000000002,11.2,-25.1,16
363,6213.0,0.30000000000000004,-1.0,-2.4000000000000004,-0.6000000000000001,3.6,6.2,-3.7000000000000006,10.8,-19.799999999999997,16
364,6231.0,0.30000000000000004,-0.9,-0.30000000000000004,-0.6000000000000001,3.6,8.3,-19.1,-8.700000000000001,-34.2,16
365,6249.0,-0.1,-0.9,0.1,-1.1,3.6,8.8,-18.900000000000002,-6.8,-36.8,16
366,6265.0,-1.0,-0.8,0.4,-2.0,3.7,9.0,-14.5,7.8,-32.1,16
367,6285.0,-1.1,-0.30000000000000004,0.1,-2.2,4.1000000000000005,8.8,-15.100000000000001,20.0,-18.4,16
368,6297.0,-1.0,0.0,0.2,-2.2,4.3,8.9,-18.5,20.0,-11.5,16
369,6313.0,-0.4,0.30000000000000004,0.9,-1.6,4.6000000000000005,9.600000000000001,-26.9,2.0,-2.0,16
370,6330.0,-0.1,0.2,1.6,-1.4000000000000001,4.4,10.3,-31.799999999999997,-12.5,-0.9000000000000001,16
371,6347.0,-0.2,-0.1,2.5,-1.4000000000000001,4.0,11.3,-37.1,-18.6,0.30000000000000004,16
372,6364.0,-0.1,0.0,1.7000000000000002,-1.3,4.1000000000000005,10.600000000000001,-29.700000000000006,15.5,10.1,16
373,6380.0,-0.1,0.7000000000000001,1.5,-1.3,4.6000000000000005,10.4,-43.300000000000004,8.5,11.2,16
374,6401.0,-0.1,0.30000000000000004,2.9000000000000004,-1.3,4.1000000000000005,11.8,-55.900000000000006,-17.0,1.4,16
375,6418.0,-0.2,0.4,2.8000000000000003,-1.3,4.1000000000000005,11.8,-55.8,-27.5,-2.1,16
376,6430.0,-0.5,-0.1,3.9000000000000004,-1.8,3.3000000000000003,13.200000000000001,-48.2,-37.50000000000001,-3.7000000000000006,16
377,6447.0,-0.9,-0.4,4.1000000000000005,-1.9000000000000001,3.1,13.200000000000001,-41.300000000000004,-37.300000000000004,-3.0,16
378,6464.0,-1.0,-0.6000000000000001,3.6,-1.9000000000000001,2.8000000000000003,12.8,-28.3,-34.1,-0.30000000000000004,16
379,6481.0,-0.8,-0.5,2.9000000000000004,-1.6,2.7,12.100000000000001,-21.200000000000003,-32.6,1.4,16
380,6499.0,-0.6000000000000001,-0.7000000000000001,2.4000000000000004,-1.2000000000000002,2.5,11.600000000000001,-19.0,-21.900000000000002,-1.0,16
381,6516.0,-0.6000000000000001,-0.8,2.1,-1.3,2.3000000000000003,11.4,-16.700000000000003,-13.900000000000002,-1.4,16
382,6536.0,-0.7000000000000001,-1.0,1.6,-1.4000000000000001,2.2,10.9,-12.9,-4.4,-0.6000000000000001,16
383,6551.0,-1.0,-0.8,-0.30000000000000004,-1.7000000000000002,2.3000000000000003,9.0,2.0,24.0,8.2,16
384,6564.0,-1.0,-0.7000000000000001,-0.9,-1.7000000000000002,2.5,8.3,6.4,29.500000000000004,12.7,16
385,6583.0,-1.1,-0.2,-1.9000000000000001,-1.9000000000000001,2.9000000000000004,7.4,15.700000000000001,28.500000000000004,21.6,16
386,6597.0,-1.1,0.0,-2.2,-1.9000000000000001,3.1,7.0,22.1,24.8,26.5,16
387,6614.0,-0.9,0.1,-2.6,-1.8,3.3000000000000003,6.6000000000000005,29.200000000000003,21.0,31.2,16
388,6631.0,-0.4,0.4,-3.4000000000000004,-1.0,4.0,5.6000000000000005,44.300000000000004,13.200000000000003,37.50000000000001,16
389,6647.0,0.1,0.7000000000000001,-3.6,-0.8,4.1000000000000005,5.6000000000000005,44.4,12.0,35.699999999999996,16
390,6664.0,0.5,0.6000000000000001,-3.1,-0.4,4.2,5.9,40.800000000000004,15.6,23.700000000000003,16
391,6681.0,0.30000000000000004,0.0,-2.5,-0.6000000000000001,3.8000000000000003,6.5,41.6,19.5,13.399999999999999,16
392,6698.0,0.1,-0.30000000000000004,-2.4000000000000004,-0.8,3.5,6.6000000000000005,44.4,23.900000000000006,10.4,16
393,6714.0,0.0,-0.5,-2.7,-1.0,3.4000000000000004,6.2,44.8,26.9,10.299999999999999,16
394,6730.0,0.0,-0.5,-2.8000000000000003,-1.0,3.5,6.1000000000000005,38.800000000000004,22.6,10.299999999999999,16
395,6747.0,0.5,-0.5,-2.0,-0.6000000000000001,3.6,6.800000000000001,21.0,9.8,1.5,16
396,6765.0,0.30000000000000004,-1.0,-0.8,-0.8,3.2,8.0,5.8,-11.700000000000001,-11.3,16
397,6783.0,-0.30000000000000004,-1.6,-0.1,-1.3,2.6,8.700000000000001,-3.6000000000000005,-22.6,-16.200000000000003,16
398,6801.0,-0.30000000000000004,-1.7000000000000002,0.2,-1.3,2.5,9.0,-19.1,-18.8,-8.700000000000001,16
399,6823.0,0.0,-1.5,0.6000000000000001,-0.5,2.7,10.100000000000001,-38.300000000000004,-11.6,5.500000000000001,16
400,6830.0,0.0,-1.5,0.6000000000000001,-0.5,2.7,10.100000000000001,-38.300000000000004,-11.6,5.500000000000001,16
401,6847.0,1.2000000000000002,-0.8,1.9000000000000001,0.2,3.1,10.8,-35.1,-16.8,11.1,16
402,6865.0,1.8,0.0,0.6000000000000001,0.9,3.9000000000000004,9.600000000000001,-33.300000000000004,-17.300000000000004,10.1,16
403,6883.0,1.8,0.6000000000000001,0.4,1.0,4.3,9.4,-55.7,-28.800000000000004,-3.3000000000000007,16
404,6897.0,1.6,0.2,1.0,0.9,3.9000000000000004,10.100000000000001,-70.7,-35.1,-14.400000000000002,16
405,6913.0,1.0,-0.2,2.0,-0.1,2.5,12.600000000000001,-98.2,-49.199999999999996,-34.7,16
406,6939.0,-0.2,-1.2000000000000002,4.800000000000001,-0.8,2.0,14.0,-102.89999999999999,-49.50000000000001,-39.300000000000004,16
407,6947.0,-1.3,-1.8,5.9,-1.7000000000000002,1.0,15.3,-91.0,-48.2,-28.400000000000002,16
408,6963.0,-1.4000000000000001,-1.1,5.9,-1.7000000000000002,1.5,15.3,-56.7,-41.7,-1.3,16
409,6981.0,0.1,-0.7000000000000001,4.5,0.0,1.8,13.9,-2.0,-39.1,27.800000000000004,16
410,6999.0,1.0,-0.6000000000000001,3.4000000000000004,1.0,1.9000000000000001,12.9,15.000000000000002,-35.2,32.2,16
411,7014.0,1.0,-0.6000000000000001,3.4000000000000004,1.6,2.3000000000000003,11.600000000000001,26.1,-30.200000000000003,31.799999999999997,16
412,7030.0,1.9000000000000001,0.2,-0.1,2.0,2.9000000000000004,8.700000000000001,25.8,-16.5,10.299999999999999,16
413,7052.0,1.7000000000000002,0.1,-0.7000000000000001,1.9000000000000001,2.8000000000000003,8.8,15.399999999999999,-9.700000000000001,-3.3000000000000007,16
414,7063.0,1.6,0.0,-0.6000000000000001,1.9000000000000001,2.7,8.700000000000001,16.6,-4.7,-8.700000000000001,16
415,7080.0,1.3,-0.30000000000000004,-1.6,1.5,2.5,7.800000000000001,27.5,6.4,-21.900000000000002,16
416,7097.0,1.0,-0.5,-2.2,1.2000000000000002,2.3000000000000003,7.1000000000000005,33.400000000000006,12.200000000000001,-28.800000000000004,16
417,7114.0,0.0,-0.9,-3.5,0.1,2.1,5.9,39.699999999999996,24.200000000000003,-38.0,16
418,7131.0,-0.4,-1.0,-4.0,-0.30000000000000004,2.1,5.4,39.400000000000006,30.000000000000004,-40.5,16
419,7149.0,-1.0,-1.2000000000000002,-4.7,-1.2000000000000002,2.0,4.5,28.400000000000002,25.8,-35.4,16
420,7165.0,-1.1,-1.2000000000000002,-4.800000000000001,-1.3,2.0,4.5,22.9,20.2,-30.699999999999996,16
421,7186.0,-1.1,-1.1,-4.6000000000000005,-1.4000000000000001,2.2,4.6000000000000005,10.600000000000001,5.300000000000001,-19.200000000000003,16
422,7197.0,-1.0,-1.0,-4.5,-1.3,2.3000000000000003,4.7,4.5,-0.5,-14.5,16
423,7215.0,-1.0,-1.0,-4.2,-1.3,2.4000000000000004,5.0,-2.3,-4.5,-10.1,16
424,7230.0,-0.8,-0.4,-2.3000000000000003,-1.0,2.9000000000000004,6.9,-27.0,-18.200000000000003,-0.1,16
425,7247.0,-0.5,-0.4,-1.3,-0.8,2.8000000000000003,7.9,-33.300000000000004,-23.6,1.3,16
426,7263.0,-0.5,-0.1,0.4,-0.6000000000000001,3.0,9.700000000000001,-39.0,-28.0,5.0,16
427,7281.0,-0.8,0.6000000000000001,1.7000000000000002,-0.8,3.6,11.100000000000001,-30.5,-11.2,6.500000000000001,16
428,7298.0,-0.9,0.7000000000000001,1.9000000000000001,-0.9,3.7,11.200000000000001,-24.3,1.2000000000000002,7.9,16
429,7313.0,-1.1,0.9,1.4000000000000001,-1.2000000000000002,3.8000000000000003,10.8,-16.900000000000002,22.8,15.899999999999999,16
430,7330.0,-1.0,1.2000000000000002,1.3,-1.2000000000000002,4.1000000000000005,10.600000000000001,-17.0,27.800000000000004,22.3,16
431,7347.0,-0.2,1.5,1.5,-0.4,4.3,10.9,-21.7,18.900000000000002,35.0,16
432,7363.0,0.6000000000000001,1.7000000000000002,3.1,0.4,4.5,12.5,-22.6,0.6000000000000001,40.6,16
433,7385.0,1.1,2.4000000000000004,3.0,0.9,5.0,12.4,-5.1000000000000005,1.9,43.900000000000006,16
434,7405.0,1.6,2.5,1.5,1.5,5.2,11.0,-3.1,-1.7,34.1,16
435,7413.0,1.6,2.5,1.5,1.5,5.2,11.0,-3.1,-1.7,34.1,16
436,7431.0,1.7000000000000002,1.5,2.8000000000000003,1.6,4.1000000000000005,12.200000000000001,-29.0,-18.4,16.6,16
437,7447.0,0.7000000000000001,0.30000000000000004,5.1000000000000005,0.7000000000000001,2.8000000000000003,14.5,-35.4,-31.2,-2.3,16
438,7466.0,-0.8,-0.5,5.2,-0.7000000000000001,2.0,14.700000000000001,-5.1000000000000005,-25.8,-0.8,16
439,7481.0,-1.3,-0.4,3.2,-1.1,2.0,12.700000000000001,23.900000000000006,-21.8,14.400000000000002,16
440,7505.0,-0.4,-0.5,1.2000000000000002,-0.1,2.0,10.600000000000001,36.6,-29.1,28.500000000000004,16
441,7515.0,0.1,-0.4,0.4,0.5,2.2,9.8,35.8,-33.800000000000004,29.800000000000004,16
442,7531.0,0.5,-0.4,0.1,0.9,2.3000000000000003,9.5,28.600000000000005,-36.9,27.2,16
443,7547.0,1.1,-0.9,0.4,1.6,1.8,9.8,5.8,-20.2,12.5,16
444,7565.0,0.0,-1.4000000000000001,0.8,0.6000000000000001,1.3,10.200000000000001,-6.8,15.299999999999999,-6.300000000000001,16
445,7587.0,-1.3,-1.8,0.4,-0.8,0.9,9.8,4.800000000000001,49.4,-11.3,16
446,7598.0,-1.7000000000000002,-1.9000000000000001,-0.2,-1.3,0.8,9.200000000000001,14.400000000000002,56.6,-6.300000000000001,16
447,7613.0,-2.0,-1.9000000000000001,-0.9,-1.7000000000000002,0.8,8.5,23.6,58.800000000000004,1.6,16
448,7630.0,-1.9000000000000001,-1.9000000000000001,-1.5,-1.2000000000000002,1.4000000000000001,6.9,41.4,47.1,26.000000000000004,16
449,7647.0,-0.9,-1.2000000000000002,-2.8000000000000003,-0.9,1.7000000000000002,6.6000000000000005,43.00000000000001,40.5,29.700000000000006,16
450,7663.0,-0.2,-0.8,-3.0,-0.30000000000000004,2.3000000000000003,6.300000000000001,42.1,33.400000000000006,30.4,16
451,7690.0,0.4,-0.4,-2.4000000000000004,0.2,2.8000000000000003,6.800000000000001,40.7,24.200000000000003,24.599999999999998,16
452,7699.0,0.30000000000000004,-0.5,-2.5,0.1,2.9000000000000004,6.7,48.10000000000001,18.6,11.000000000000002,16
453,7714.0,0.0,-0.5,-2.8000000000000003,-0.2,3.0,6.300000000000001,51.50000000000001,16.8,4.300000000000001,16
454,7730.0,-0.1,-0.5,-3.2,-0.4,3.0,5.9,52.300000000000004,13.8,-1.5,16
455,7747.0,-0.5,-0.7000000000000001,-3.8000000000000003,-0.8,3.0,5.2,38.300000000000004,-1.9,-15.000000000000002,16
456,7764.0,-0.8,-0.6000000000000001,-2.9000000000000004,-1.1,3.1,6.2,13.399999999999999,-16.6,-19.9,16
457,7785.0,-0.2,-0.9,-1.1,-0.5,2.9000000000000004,8.0,-3.2,-19.1,-25.200000000000003,16
458,7799.0,0.1,-1.1,0.1,-0.2,2.7,9.1,-4.7,-8.600000000000001,-33.9,16
459,7813.0,0.1,-1.1,0.1,-0.2,2.7,9.1,-4.7,-8.600000000000001,-33.9,16
460,7830.0,-0.4,-0.6000000000000001,-0.8,-0.7000000000000001,3.2,8.200000000000001,-8.0,16.5,-48.9,16
461,7847.0,-0.5,-0.6000000000000001,-0.8,-0.8,3.2,8.3,-19.1,18.8,-54.6,16
462,7863.0,-0.9,-0.7000000000000001,1.5,-1.4000000000000001,3.0,10.5,-44.2,14.100000000000001,-61.50000000000001,16
463,7894.0,-0.5,-0.5,2.1,-1.2000000000000002,3.0,11.3,-43.70000000000001,31.099999999999998,-54.4,16
464,7900.0,-0.2,0.1,1.7000000000000002,-1.0,3.4000000000000004,10.8,-50.5,34.0,-55.900000000000006,16
465,7914.0,0.2,0.30000000000000004,1.7000000000000002,-0.7000000000000001,3.6,10.9,-64.0,34.2,-61.7,16
466,7930.0,0.30000000000000004,0.1,2.5,-0.7000000000000001,3.3000000000000003,11.700000000000001,-80.4,35.3,-71.9,16
467,7947.0,-0.7000000000000001,-1.3,5.5,-1.8,1.5,14.8,-96.5,33.400000000000006,-88.10000000000001,16
468,7967.0,-2.2,-2.3000000000000003,6.1000000000000005,-3.6,0.2,15.5,-71.10000000000001,27.2,-75.5,16
469,7980.0,-2.7,-2.3000000000000003,5.4,-4.1000000000000005,0.1,14.8,-51.0,16.8,-57.60000000000001,16
470,8007.0,-1.8,-1.8,3.0,-3.4000000000000004,0.4,12.5,4.4,-5.6,12.0,16
471,8014.0,-1.8,-1.8,3.0,-3.4000000000000004,0.4,12.5,4.4,-5.6,12.0,16
472,8030.0,0.8,-1.6,1.8,0.7000000000000001,1.0,10.5,27.9,-14.0,63.10000000000001,16
473,8047.0,3.3000000000000003,-0.8,0.2,1.9000000000000001,1.5,9.700000000000001,29.600000000000005,-8.100000000000001,64.4,16
474,8063.0,3.9000000000000004,-0.4,-0.9,2.6,2.1,8.5,18.200000000000003,7.0,36.1,16
475,8091.0,2.3000000000000003,-0.4,-1.4000000000000001,1.0,2.2,7.9,7.6,13.8,6.0,16
476,8100.0,1.1,-0.6000000000000001,-1.5,-0.30000000000000004,2.0,7.9,8.100000000000001,8.100000000000001,-7.500000000000001,16
477,8115.0,0.8,-0.4,-1.6,-0.5,2.2,7.7,12.299999999999999,2.6,-8.4,16
478,8130.0,0.9,-0.5,-2.1,-0.5,2.1,7.300000000000001,17.1,-1.1,-5.4,16
479,8147.0,1.4000000000000001,-0.6000000000000001,-2.6,0.0,2.0,6.800000000000001,27.2,10.9,-0.9000000000000001,16
480,8173.0,1.2000000000000002,-0.5,-3.1,-0.2,2.2,6.2,33.50000000000001,17.300000000000004,-8.8,16
481,8181.0,0.30000000000000004,-0.30000000000000004,-3.6,-1.2000000000000002,2.5,5.6000000000000005,37.300000000000004,17.9,-21.200000000000003,16
482,8208.0,-0.4,-0.5,-4.0,-2.0,2.5,5.2,33.2,7.0,-22.4,16
483,8214.0,-0.4,-0.5,-4.0,-2.0,2.5,5.2,33.2,7.0,-22.4,16
484,8231.0,0.1,-0.4,-3.0,-1.5,2.7,6.2,20.900000000000002,5.6,-18.8,16
485,8247.0,0.0,-0.4,-2.6,-1.6,2.7,6.5,17.1,13.700000000000001,-20.1,16
486,8263.0,-0.2,-0.6000000000000001,-2.8000000000000003,-2.0,2.5,6.300000000000001,12.100000000000001,51.0,-14.400000000000002,16
487,8283.0,-0.2,0.2,-2.9000000000000004,-2.2,3.4000000000000004,6.2,-0.1,63.0,-12.299999999999999,16
488,8297.0,-0.30000000000000004,0.30000000000000004,-2.9000000000000004,-2.3000000000000003,3.4000000000000004,6.1000000000000005,-6.0,63.0,-15.6,16
489,8313.0,-0.4,0.8,-2.9000000000000004,-2.7,3.9000000000000004,6.2,-16.4,52.900000000000006,-24.7,16
490,8330.0,-0.6000000000000001,0.8,-2.5,-2.9000000000000004,3.9000000000000004,6.5,-25.200000000000003,43.4,-30.9,16
491,8347.0,-1.1,0.5,-1.6,-3.6,3.4000000000000004,7.4,-42.60000000000001,31.9,-38.60000000000001,16
492,8364.0,-1.7000000000000002,-0.1,-0.4,-4.3,2.6,8.6,-61.599999999999994,24.200000000000003,-29.400000000000002,16
493,8382.0,-1.7000000000000002,-0.1,0.9,-4.4,2.4000000000000004,10.0,-73.2,12.600000000000001,-13.3,16
494,8397.0,-1.7000000000000002,0.2,1.9000000000000001,-4.4,2.6,11.0,-78.3,4.6,-7.1000000000000005,16
495,8417.0,-1.6,0.4,2.6,-4.3,2.6,11.8,-82.0,-2.7,2.2,16
496,8431.0,-1.4000000000000001,1.1,3.0,-4.2,3.0,12.200000000000001,-83.80000000000001,0.9000000000000001,6.4,16
497,8447.0,-1.4000000000000001,0.9,3.7,-4.2,2.7,13.0,-91.8,-17.6,6.600000000000001,16
498,8463.0,-1.0,0.0,6.4,-3.7,1.5,15.700000000000001,-97.3,-66.0,8.4,16
499,8485.0,-0.8,-0.7000000000000001,7.6000000000000005,-3.2,0.5,17.1,-71.30000000000001,-98.2,24.3,16
500,8497.0,-0.7000000000000001,-0.8,7.4,-3.0,0.30000000000000004,16.900000000000002,-47.900000000000006,-88.9,34.1,16
501,8513.0,-0.4,0.2,5.0,-2.4000000000000004,1.2000000000000002,14.5,20.3,-23.900000000000006,45.3,16
502,8530.0,0.0,0.6000000000000001,3.1,-2.0,1.6,12.700000000000001,30.000000000000004,-13.700000000000001,47.0,16
503,8547.0,1.2000000000000002,1.0,1.2000000000000002,-0.7000000000000001,2.2,10.700000000000001,25.300000000000004,-7.699999999999999,34.900000000000006,16
504,8564.0,1.0,0.7000000000000001,1.0,-0.9,1.9000000000000001,10.600000000000001,8.899999999999999,-14.600000000000001,7.8,16
505,8581.0,-0.2,-0.30000000000000004,1.8,-2.0,1.0,11.3,5.4,-11.700000000000001,-10.9,16
506,8597.0,-0.7000000000000001,-0.6000000000000001,1.7000000000000002,-2.5,0.7000000000000001,11.3,11.4,-6.300000000000001,-12.7,16
507,8613.0,-1.0,-0.9,1.4000000000000001,-2.8000000000000003,0.4,11.0,21.300000000000004,-0.9000000000000001,-9.700000000000001,16
508,8630.0,-1.1,-1.2000000000000002,0.2,-2.7,0.4,8.9,60.900000000000006,4.7,11.5,16
509,8647.0,-0.7000000000000001,-1.1,-1.5,-2.4000000000000004,0.5,8.0,72.10000000000001,5.500000000000001,18.3,16
510,8666.0,0.0,-0.9,-3.1,-1.8,1.0,6.4,83.2,8.100000000000001,28.200000000000003,16
511,8688.0,0.1,-0.8,-4.0,-1.7000000000000002,1.3,5.4,76.2,9.0,27.400000000000002,16
512,8699.0,-0.1,-0.8,-4.0,-1.9000000000000001,1.5,5.4,69.10000000000001,5.2,25.6,16
513,8714.0,-0.30000000000000004,-1.2000000000000002,-3.3000000000000003,-2.1,1.3,6.0,60.6,-0.5,26.300000000000004,16
514,8730.0,-0.30000000000000004,-1.3,-3.1,-2.1,1.3,6.2,60.400000000000006,-1.5,28.1,16
515,8747.0,-0.1,-1.2000000000000002,-3.2,-1.8,1.7000000000000002,6.1000000000000005,60.900000000000006,-2.1,31.6,16
516,8763.0,0.2,-1.1,-3.0,-1.6,1.9000000000000001,6.2,51.4,-7.1000000000000005,29.700000000000006,16
517,8781.0,0.6000000000000001,-1.1,-1.7000000000000002,-1.1,2.0,7.5,37.2,-13.6,22.9,16
518,8797.0,0.8,-1.2000000000000002,-1.1,-0.8,2.1,8.0,33.9,-16.0,16.900000000000002,16
519,8813.0,0.7000000000000001,-1.2000000000000002,-0.7000000000000001,-0.9,2.2,8.3,33.50000000000001,-17.7,9.0,16
520,8832.0,0.30000000000000004,-1.2000000000000002,-1.3,-1.2000000000000002,2.2,7.800000000000001,25.4,-14.200000000000001,-11.4,16
521,8851.0,0.2,-1.2000000000000002,-1.5,-1.3,2.4000000000000004,7.6000000000000005,14.700000000000001,-7.0,-15.2,16
522,8863.0,-0.30000000000000004,-0.6000000000000001,-0.9,-1.8,2.9000000000000004,8.200000000000001,-12.600000000000001,0.30000000000000004,-24.3,16
523,8894.0,-1.1,-0.1,1.0,-2.7,3.6,11.4,-27.3,-26.799999999999997,-24.3,16
524,8897.0,-1.1,-0.1,1.0,-2.7,3.6,11.4,-27.3,-26.799999999999997,-24.3,16
525,8913.0,-0.7000000000000001,1.1,3.3000000000000003,-2.1,4.5,12.4,-6.2,-30.5,-7.0,16
526,8930.0,-0.2,2.0,2.4000000000000004,-1.6,5.300000000000001,11.5,3.5,-19.400000000000002,-0.1,16
527,8948.0,1.1,3.1,1.0,-0.2,6.4,10.200000000000001,-11.2,-1.1,-6.600000000000001,16
528,8965.0,1.3,1.8,3.6,-0.1,5.1000000000000005,12.8,-67.3,-21.8,-35.699999999999996,16
529,8992.0,1.2000000000000002,2.0,3.6,-0.1,5.1000000000000005,12.8,-67.3,-21.8,-35.699999999999996,16
530,8999.0,-0.5,-1.2000000000000002,8.5,-1.7000000000000002,1.6,17.8,-62.900000000000006,-42.60000000000001,-51.1,16
531,9013.0,-0.9,-1.6,7.7,-2.1,1.1,17.0,-33.800000000000004,-37.0,-38.2,16
532,9030.0,0.5,-0.9,3.6,-0.6000000000000001,1.8,13.0,57.1,-32.2,4.1,16
533,9047.0,1.6,-0.8,1.8,0.5,2.0,11.100000000000001,72.30000000000001,-31.0,9.899999999999999,16
534,9063.0,2.9000000000000004,-0.7000000000000001,-0.8,1.9000000000000001,2.3000000000000003,8.5,72.9,-20.5,7.0,16
535,9091.0,3.5,-0.8,-1.7000000000000002,2.6,2.4000000000000004,7.5,40.0,-8.899999999999999,-10.600000000000001,16
536,9097.0,3.5,-1.2000000000000002,-1.5,2.6,2.1,7.7,19.0,-3.8,-21.500000000000004,16
537,9114.0,2.6,-1.7000000000000002,-0.7000000000000001,1.8,1.6,8.5,-6.300000000000001,10.9,-42.60000000000001,16
538,9130.0,1.9000000000000001,-1.8,-0.6000000000000001,1.0,1.4000000000000001,8.6,-7.6,20.0,-48.70000000000001,16
539,9147.0,1.2000000000000002,-2.4000000000000004,-1.2000000000000002,0.1,0.9,8.0,11.2,39.400000000000006,-49.6,16
540,9163.0,0.5,-2.3000000000000003,-2.6,-0.8,1.0,6.6000000000000005,38.400000000000006,46.7,-44.5,16
541,9183.0,0.30000000000000004,-2.3000000000000003,-4.2,-1.1,1.1,4.9,60.00000000000001,31.400000000000002,-34.2,16
542,9197.0,0.30000000000000004,-2.2,-4.800000000000001,-1.2000000000000002,1.3,4.3,65.6,20.900000000000002,-30.000000000000004,16
543,9213.0,0.1,-2.1,-5.4,-1.5,1.5,3.6,65.6,9.8,-26.5,16
544,9231.0,-0.5,-1.6,-5.4,-2.1,2.3000000000000003,3.4000000000000004,44.10000000000001,-4.5,-18.1,16
545,9247.0,-0.6000000000000001,-1.6,-5.0,-2.2,2.3000000000000003,3.8000000000000003,35.8,-2.7,-13.000000000000002,16
546,9263.0,-0.4,-1.4000000000000001,-4.2,-2.1,2.6,4.6000000000000005,26.400000000000006,3.4,-3.2,16
547,9291.0,0.0,-1.2000000000000002,-3.9000000000000004,-1.6,2.9000000000000004,4.800000000000001,25.1,1.6,0.0,16
548,9297.0,0.0,-1.2000000000000002,-3.9000000000000004,-1.5,3.2,4.800000000000001,23.099999999999998,-1.4,-1.1,16
549,9315.0,0.1,-0.2,-3.8000000000000003,-1.6,4.0,4.9,11.700000000000001,-3.9,-4.6,16
550,9330.0,0.0,0.0,-3.6,-1.7000000000000002,4.2,5.1000000000000005,1.8000000000000003,-2.0,-7.1000000000000005,16
551,9348.0,-0.5,0.2,-2.4000000000000004,-2.2,4.4,6.300000000000001,-21.6,13.200000000000003,-11.8,16
552,9363.0,-0.7000000000000001,0.4,-1.3,-2.4000000000000004,4.5,7.4,-37.800000000000004,36.300000000000004,-14.200000000000001,16
553,9389.0,-0.7000000000000001,0.8,-0.8,-2.6,4.800000000000001,7.9,-48.2,42.60000000000001,-22.000000000000004,16
554,9398.0,-0.7000000000000001,0.8,-0.5,-2.6,4.7,8.3,-55.400000000000006,33.400000000000006,-29.200000000000003,16
555,9413.0,-0.8,0.6000000000000001,0.4,-2.8000000000000003,4.4,9.200000000000001,-65.0,18.3,-37.300000000000004,16
556,9430.0,-1.9000000000000001,0.5,3.6,-4.6000000000000005,3.9000000000000004,13.9,-64.10000000000001,1.2000000000000002,-31.6,16
557,9447.0,-2.5,0.7000000000000001,4.7,-4.6000000000000005,4.0,13.700000000000001,-43.6,9.600000000000001,-20.5,16
558,9464.0,-2.0,1.6,2.7,-4.2,4.800000000000001,11.700000000000001,-30.1,-6.8,-5.300000000000001,16
559,9483.0,-1.1,1.2000000000000002,4.1000000000000005,-3.2,4.3,13.200000000000001,-51.70000000000001,-26.000000000000004,-6.9,16
560,9503.0,-1.3,0.4,5.800000000000001,-3.4000000000000004,3.3000000000000003,14.9,-44.9,-35.2,-13.900000000000002,16
561,9513.0,-1.6,0.0,5.6000000000000005,-3.6,2.8000000000000003,14.8,-32.1,-35.699999999999996,-14.200000000000001,16
562,9530.0,-1.8,-0.30000000000000004,4.9,-3.8000000000000003,2.4000000000000004,14.100000000000001,-19.1,-34.60000000000001,-11.6,16
563,9547.0,-1.7000000000000002,-0.4,2.8000000000000003,-3.6,2.3000000000000003,12.100000000000001,-4.6,-34.50000000000001,0.8,16
564,9566.0,-0.5,-0.6000000000000001,1.3,-2.3000000000000003,2.1,10.600000000000001,-6.8,-32.300000000000004,10.600000000000001,16
565,9587.0,0.8,-0.9,1.0,-0.8,1.8,10.3,-21.1,-28.1,8.2,16
566,9597.0,1.1,-1.1,1.3,-0.5,1.6,10.600000000000001,-32.0,-19.6,-0.4,16
567,9613.0,1.0,-1.3,1.6,-0.6000000000000001,1.2000000000000002,10.9,-36.1,-10.9,-5.8,16
568,9630.0,-0.8,-1.7000000000000002,1.9000000000000001,-2.3000000000000003,0.8,11.3,-19.0,6.600000000000001,-2.3,16
569,9648.0,-1.1,-1.8,1.6,-2.7,0.6000000000000001,11.0,-3.6000000000000005,6.600000000000001,7.400000000000001,16
570,9664.0,-0.8,-1.7000000000000002,0.1,-2.4000000000000004,0.7000000000000001,9.5,32.6,2.1,35.5,16
571,9680.0,0.1,-1.2000000000000002,-1.5,-1.4000000000000001,1.4000000000000001,7.800000000000001,61.10000000000001,-8.4,56.50000000000001,16
572,9702.0,0.8,-1.1,-3.1,-0.7000000000000001,1.7000000000000002,6.2,75.4,-13.100000000000001,63.500000000000014,16
573,9713.0,0.9,-1.1,-3.6,-0.5,1.8,5.7,76.5,-12.9,64.0,16
574,9730.0,1.0,-1.1,-3.9000000000000004,-0.4,2.0,5.300000000000001,75.2,-12.0,63.4,16
575,9746.0,0.7000000000000001,-1.1,-4.2,-0.5,2.2,5.0,64.2,-14.0,56.0,16
576,9763.0,0.5,-1.2000000000000002,-4.1000000000000005,-0.6000000000000001,2.3000000000000003,5.0,52.80000000000001,-16.700000000000003,48.10000000000001,16
577,9780.0,0.4,-1.1,-3.7,-0.7000000000000001,2.7,5.300000000000001,38.2,-20.0,39.1,16
578,9802.0,0.4,-1.0,-2.6,-0.5,2.9000000000000004,6.4,22.000000000000004,-30.4,26.9,16
579,9816.0,0.4,-1.0,-2.6,-0.5,2.9000000000000004,6.4,22.000000000000004,-30.4,26.9,16
580,9830.0,0.5,-1.0,-0.8,-0.2,2.9000000000000004,8.1,5.8,-29.1,5.4,16
581,9847.0,0.5,-1.1,-0.5,-0.2,2.9000000000000004,8.4,1.8000000000000003,-20.400000000000002,-1.8000000000000003,16
582,9863.0,-0.1,-1.1,0.0,-0.7000000000000001,2.8000000000000003,8.9,-11.1,7.200000000000001,-14.800000000000002,16
583,9881.0,-0.5,-1.2000000000000002,0.4,-1.2000000000000002,2.7,9.4,-21.8,29.400000000000002,-24.0,16
584,9907.0,-0.9,-0.9,0.8,-1.7000000000000002,2.9000000000000004,9.8,-28.200000000000003,28.3,-28.3,16
585,9913.0,-0.8,-0.8,0.8,-1.7000000000000002,2.9000000000000004,9.8,-28.200000000000003,28.3,-28.3,16
586,9936.0,-1.0,-0.2,1.9000000000000001,-1.9000000000000001,3.6,10.9,-25.6,17.400000000000002,-22.000000000000004,16
587,9948.0,-0.4,0.7000000000000001,1.1,-1.4000000000000001,4.3,10.100000000000001,-13.5,24.900000000000002,-14.800000000000002,16
588,9963.0,-0.1,1.7000000000000002,0.1,-1.2000000000000002,5.300000000000001,9.200000000000001,-25.1,21.500000000000004,-19.400000000000002,16
589,9980.0,0.4,1.4000000000000001,1.2000000000000002,-0.8,4.9,10.3,-58.2,12.4,-37.0,16
590,9999.0,0.2,0.6000000000000001,2.5,-1.0,4.0,11.600000000000001,-72.60000000000001,3.9,-48.70000000000001,16
591,10013.0,-0.1,-0.2,3.4000000000000004,-1.4000000000000001,3.0,12.5,-79.7,-1.8000000000000003,-56.6,16
592,10030.0,-1.4000000000000001,-1.3,5.1000000000000005,-3.4000000000000004,0.8,15.100000000000001,-76.1,-23.0,-51.0,16
593,10047.0,-2.4000000000000004,-2.2,6.0,-3.7,0.4,15.3,-64.60000000000001,-27.800000000000004,-36.300000000000004,16
594,10063.0,-0.4,-2.2,5.300000000000001,-1.7000000000000002,0.2,14.700000000000001,-20.1,-34.2,24.8,16
595,10080.0,3.3000000000000003,-0.8,3.6,2.2,1.6,13.0,14.5,-29.700000000000006,53.400000000000006,16
596,10101.0,5.2,0.2,1.9000000000000001,4.3,2.7,11.4,26.000000000000004,-23.900000000000006,34.7,16
597,10113.0,5.300000000000001,0.30000000000000004,1.3,4.4,2.9000000000000004,10.700000000000001,26.200000000000003,-15.8,15.299999999999999,16
598,10130.0,4.5,0.2,0.5,3.6,2.9000000000000004,9.9,24.7,-2.7,-3.9,16
599,10147.0,2.4000000000000004,-0.2,-0.4,1.5,2.5,9.0,21.900000000000002,26.000000000000004,-28.0,16
600,10163.0,0.8,-0.5,-1.5,-0.2,2.3000000000000003,7.9,31.9,42.400000000000006,-31.2,16
601,10186.0,0.7000000000000001,-0.4,-2.6,-0.5,2.5,6.7,46.0,38.2,-20.0,16
602,10197.0,1.0,-0.30000000000000004,-3.1,-0.30000000000000004,2.7,6.2,51.50000000000001,30.599999999999998,-14.900000000000002,16
603,10220.0,1.3,-0.1,-3.7,-0.1,3.1,5.4,56.2,7.1000000000000005,-21.900000000000002,16
604,10230.0,1.1,-0.1,-3.8000000000000003,-0.30000000000000004,3.2,5.300000000000001,54.50000000000001,7.500000000000001,-28.1,16
605,10247.0,0.7000000000000001,-0.2,-3.9000000000000004,-0.8,3.2,5.2,50.900000000000006,10.8,-34.0,16
606,10263.0,-0.2,-0.30000000000000004,-3.7,-1.8,3.2,5.4,39.9,19.400000000000002,-39.50000000000001,16
607,10280.0,-0.6000000000000001,-0.1,-2.8000000000000003,-2.3000000000000003,3.5,6.1000000000000005,32.1,17.799999999999997,-36.300000000000004,16
608,10299.0,-0.6000000000000001,0.0,-2.4000000000000004,-2.3000000000000003,3.6,6.6000000000000005,30.9,11.1,-34.900000000000006,16
609,10314.0,-0.5,-0.1,-1.4000000000000001,-2.3000000000000003,3.6,7.5,32.2,-1.0,-33.300000000000004,16
610,10330.0,-0.5,0.0,-1.2000000000000002,-2.3000000000000003,3.8000000000000003,7.7,33.6,0.8,-33.1,16
611,10347.0,-0.9,0.2,-1.2000000000000002,-2.8000000000000003,4.1000000000000005,7.6000000000000005,33.0,17.0,-32.9,16
612,10363.0,-1.6,0.4,-1.1,-3.5,4.3,7.6000000000000005,22.9,30.5,-28.1,16
613,10380.0,-1.8,0.7000000000000001,-1.0,-3.9000000000000004,4.7,7.7,15.100000000000001,25.4,-20.0,16
614,10397.0,-1.5,0.8,-0.7000000000000001,-3.6,4.800000000000001,8.0,9.899999999999999,15.399999999999999,-16.8,16
615,10414.0,-1.3,0.8,-0.4,-3.5,4.800000000000001,8.3,3.8,4.6,-16.3,16
616,10430.0,-1.2000000000000002,0.4,1.0,-3.8000000000000003,4.3,10.9,-11.900000000000002,-10.0,-12.7,16
617,10447.0,-2.0,0.4,2.9000000000000004,-4.2,4.4,11.600000000000001,-7.400000000000001,3.2,-4.9,16
618,10463.0,-2.0,1.2000000000000002,1.2000000000000002,-4.3,5.2,9.9,17.200000000000003,28.600000000000005,17.1,16
619,10480.0,-1.2000000000000002,1.9000000000000001,-0.5,-3.5,6.0,8.200000000000001,12.200000000000001,27.800000000000004,27.2,16
620,10501.0,-0.8,1.6,-0.1,-3.1,5.7,8.5,-13.6,13.3,21.1,16
621,10515.0,-0.8,1.2000000000000002,0.7000000000000001,-3.2,5.300000000000001,9.4,-31.2,-10.299999999999999,11.6,16
622,10530.0,-0.9,0.7000000000000001,1.6,-3.2,4.7,10.3,-39.400000000000006,-26.200000000000003,5.6,16
623,10551.0,-1.8,-1.0,3.8000000000000003,-3.9000000000000004,2.8000000000000003,12.5,-35.0,-46.6,6.300000000000001,16
624,10564.0,-1.6,-1.3,3.6,-3.7,2.5,12.4,-22.3,-41.900000000000006,14.200000000000001,16
625,10580.0,-0.5,-1.1,1.0,-2.4000000000000004,2.7,9.9,2.3,-20.8,32.300000000000004,16
626,10599.0,0.5,-0.7000000000000001,-0.30000000000000004,-1.4000000000000001,3.0,8.6,2.3,-9.2,35.599999999999994,16
627,10619.0,1.4000000000000001,-0.5,-1.1,0.1,3.3000000000000003,7.4,-22.8,9.8,23.6,16
628,10630.0,1.5,-1.1,-0.30000000000000004,-0.30000000000000004,2.6,8.6,-56.50000000000001,11.000000000000002,-2.5,16
629,10647.0,0.7000000000000001,-1.6,0.5,-1.1,2.0,9.4,-64.4,8.8,-11.6,16
630,10663.0,-1.2000000000000002,-2.3000000000000003,2.3000000000000003,-3.1,1.0,11.3,-56.50000000000001,2.2,-10.5,16
631,10680.0,-1.9000000000000001,-2.6,2.5,-3.8000000000000003,0.6000000000000001,11.5,-2.9,4.6,23.400000000000002,16
632,10701.0,-0.7000000000000001,-2.1,-0.2,-2.6,1.2000000000000002,8.8,51.9,12.7,54.9,16
633,10714.0,0.1,-1.6,-1.9000000000000001,-1.8,1.8,7.1000000000000005,68.0,9.4,63.599999999999994,16
634,10730.0,0.8,-1.2000000000000002,-3.2,-1.1,2.3000000000000003,5.800000000000001,74.30000000000001,1.8000000000000003,65.0,16
635,10747.0,1.4000000000000001,-0.6000000000000001,-4.6000000000000005,-0.30000000000000004,3.1,4.3,63.8,-20.400000000000002,53.400000000000006,16
636,10763.0,1.2000000000000002,-0.6000000000000001,-4.1000000000000005,-0.4,3.4000000000000004,4.7,39.2,-30.9,35.5,16
637,10780.0,0.30000000000000004,-0.8,-2.8000000000000003,-1.1,3.3000000000000003,6.0,24.400000000000002,-20.2,20.900000000000002,16
638,10797.0,0.1,-1.0,-2.7,-1.3,3.2,6.1000000000000005,22.5,-12.4,16.6,16
639,10816.0,0.4,-0.8,-2.7,-1.0,3.4000000000000004,6.0,17.7,-10.0,12.0,16
640,10830.0,1.0,-0.4,-1.7000000000000002,-0.30000000000000004,3.8000000000000003,7.0,0.2,-20.599999999999998,-1.5,16
641,10847.0,0.9,-0.5,-0.8,-0.30000000000000004,3.8000000000000003,7.9,-4.300000000000001,-28.3,-10.600000000000001,16
642,10863.0,0.1,-1.0,0.6000000000000001,-1.1,3.3000000000000003,9.4,-4.800000000000001,-40.9,-26.799999999999997,16
643,10880.0,-0.7000000000000001,-1.3,0.9,-1.8,2.9000000000000004,9.600000000000001,-5.300000000000001,-27.2,-25.8,16
644,10898.0,-0.6000000000000001,-1.2000000000000002,0.9,-1.7000000000000002,3.0,9.700000000000001,-11.5,-14.200000000000001,-20.8,16
645,10913.0,-0.4,-0.5,2.0,-1.5,3.7,10.8,-32.400000000000006,6.699999999999999,-18.8,16
646,10930.0,-0.4,-0.30000000000000004,3.0,-1.5,3.8000000000000003,11.9,-39.300000000000004,12.200000000000001,-18.3,16
647,10947.0,0.2,-0.1,4.3,-1.0,3.9000000000000004,13.200000000000001,-27.099999999999998,26.799999999999997,-12.9,16
648,10965.0,0.9,0.30000000000000004,1.8,-0.4,4.1000000000000005,10.700000000000001,-6.1000000000000005,21.6,-16.900000000000002,16
649,10982.0,0.8,0.30000000000000004,0.8,-0.6000000000000001,4.1000000000000005,9.700000000000001,-45.3,16.1,-36.0,16
650,11009.0,-0.1,-1.1,2.8000000000000003,-1.6,2.6,11.8,-83.00000000000001,30.1,-48.50000000000001,16
651,11021.0,-1.2000000000000002,-2.1,4.6000000000000005,-2.9000000000000004,1.3,13.700000000000001,-80.60000000000001,34.0,-41.50000000000001,16
652,11031.0,-1.5,-2.1,4.6000000000000005,-3.3000000000000003,1.1,13.700000000000001,-66.1,29.300000000000004,-30.200000000000003,16
653,11046.0,-1.4000000000000001,-2.0,4.1000000000000005,-3.3000000000000003,1.1,13.3,-47.0,19.0,-15.6,16
654,11063.0,-0.30000000000000004,-1.2000000000000002,1.8,-2.1,1.7000000000000002,10.9,-8.2,-9.100000000000001,13.399999999999999,16
655,11080.0,1.9000000000000001,-0.7000000000000001,-0.5,0.1,2.3000000000000003,8.700000000000001,2.6,-28.0,30.5,16
656,11096.0,2.6,-0.4,-1.3,0.8,2.6,7.9,-3.0,-30.3,31.3,16
657,11113.0,2.9000000000000004,-0.2,-1.7000000000000002,1.6,3.0,7.5,-23.900000000000006,-26.1,19.6,16
658,11134.0,2.9000000000000004,0.1,-1.6,1.3,3.1,7.6000000000000005,-33.400000000000006,-23.099999999999998,9.600000000000001,16
659,11148.0,1.9000000000000001,0.0,-1.5,0.5,2.8000000000000003,7.800000000000001,-40.300000000000004,-23.700000000000003,-8.2,16
660,11165.0,1.2000000000000002,0.1,-1.2000000000000002,-0.2,2.8000000000000003,8.200000000000001,-33.0,-24.599999999999998,-10.8,16
661,11180.0,0.8,0.2,-1.1,-0.5,2.8000000000000003,8.200000000000001,-15.700000000000001,-26.300000000000004,-8.0,16
662,11203.0,0.5,0.4,-1.1,-0.8,2.9000000000000004,8.3,-5.500000000000001,-28.200000000000003,-6.9,16
663,11213.0,0.5,0.4,-1.1,-0.8,2.9000000000000004,8.3,-5.500000000000001,-28.200000000000003,-6.9,16
664,11231.0,0.5,0.30000000000000004,-1.4000000000000001,-0.6000000000000001,2.9000000000000004,8.0,35.8,-12.5,-2.0,16
665,11247.0,0.5,0.4,-2.1,-0.5,3.1,7.300000000000001,41.7,0.9000000000000001,-3.7000000000000006,16
666,11263.0,0.1,0.6000000000000001,-3.0,-1.0,3.5,6.300000000000001,38.300000000000004,17.7,-11.5,16
667,11280.0,-0.4,0.5,-1.8,-1.6,3.4000000000000004,7.4,22.5,2.7,-18.4,16
668,11296.0,-0.5,0.30000000000000004,-0.9,-1.7000000000000002,3.3000000000000003,8.4,23.900000000000006,-9.0,-19.300000000000004,16
669,11313.0,-0.5,0.1,0.1,-1.6,3.1,9.4,36.5,-27.5,-21.400000000000002,16
670,11330.0,-0.4,0.0,-0.1,-1.5,3.1,9.200000000000001,41.6,-25.300000000000004,-21.8,16
671,11347.0,-0.4,0.1,-0.8,-1.5,3.3000000000000003,8.4,36.2,-0.1,-20.900000000000002,16
672,11363.0,-0.7000000000000001,0.2,-0.8,-1.8,3.6,8.3,19.799999999999997,23.6,-19.9,16
673,11389.0,-0.8,0.4,-0.5,-2.1,4.0,8.700000000000001,11.8,22.8,-17.200000000000003,16
674,11403.0,-0.7000000000000001,0.6000000000000001,-0.30000000000000004,-2.1,4.0,8.8,8.600000000000001,0.8,-17.400000000000002,16
675,11414.0,-0.7000000000000001,0.6000000000000001,-0.30000000000000004,-2.1,4.0,8.8,8.600000000000001,0.8,-17.400000000000002,16
676,11431.0,-0.8,-0.2,1.5,-2.1,3.2,10.600000000000001,-6.9,-37.7,-18.4,16
677,11447.0,-0.8,-0.4,2.6,-2.1,3.0,11.700000000000001,-13.5,-50.7,-11.900000000000002,16
678,11464.0,-0.9,-0.5,4.5,-2.1,2.9000000000000004,13.600000000000001,-2.9,-30.699999999999996,8.0,16
679,11480.0,-0.4,0.2,2.0,-1.4000000000000001,3.6,11.100000000000001,24.1,22.5,30.699999999999996,16
680,11497.0,-0.4,0.2,2.0,-1.2000000000000002,4.5,9.600000000000001,22.4,31.7,35.2,16
681,11513.0,0.30000000000000004,1.6,-0.30000000000000004,-0.4,5.2,9.1,-13.200000000000003,12.0,22.700000000000003,16
682,11530.0,0.7000000000000001,1.1,1.1,-0.4,4.6000000000000005,10.200000000000001,-32.7,-5.1000000000000005,6.9,16
683,11547.0,-0.1,-0.5,3.0,-1.2000000000000002,2.9000000000000004,12.200000000000001,-47.60000000000001,-23.700000000000003,-13.900000000000002,16
684,11563.0,-1.0,-1.3,3.6,-2.1,1.9000000000000001,12.8,-40.800000000000004,-21.8,-13.900000000000002,16
685,11580.0,-1.2000000000000002,-1.5,3.0,-2.2,1.6,12.200000000000001,-28.900000000000002,-7.300000000000001,-2.2,16
686,11596.0,-0.8,-1.1,2.4000000000000004,-1.8,1.9000000000000001,11.600000000000001,-24.5,1.9,5.300000000000001,16
687,11616.0,-0.5,-0.8,2.0,-1.5,2.2,11.200000000000001,-23.3,5.4,4.800000000000001,16
688,11631.0,-0.8,-1.1,1.0,-1.8,1.8,10.3,-21.300000000000004,10.700000000000001,-2.5,16
689,11647.0,-1.0,-1.3,0.7000000000000001,-2.1,1.5,10.0,-15.8,13.200000000000003,0.2,16
690,11663.0,-1.3,-1.5,-0.30000000000000004,-2.4000000000000004,1.3,9.0,0.30000000000000004,13.000000000000002,13.100000000000001,16
691,11681.0,-0.9,-1.4000000000000001,-1.3,-2.0,1.4000000000000001,8.0,17.1,1.4,30.4,16
692,11699.0,-0.1,-1.2000000000000002,-1.8,-1.1,1.7000000000000002,7.5,29.700000000000006,-18.5,42.60000000000001,16
693,11714.0,0.2,-1.1,-1.8,-0.8,1.8,7.5,34.800000000000004,-22.4,45.099999999999994,16
694,11730.0,0.30000000000000004,-1.1,-1.9000000000000001,-0.6000000000000001,1.9000000000000001,7.4,39.1,-19.6,45.7,16
695,11747.0,0.2,-1.3,-2.4000000000000004,-0.6000000000000001,1.9000000000000001,6.9,45.7,-2.2,47.60000000000001,16
696,11763.0,0.1,-1.0,-2.8000000000000003,-0.7000000000000001,2.3000000000000003,6.4,45.099999999999994,16.900000000000002,52.60000000000001,16
697,11780.0,0.4,-0.8,-2.7,-0.4,2.7,6.4,42.900000000000006,22.5,52.300000000000004,16
698,11797.0,0.5,-0.6000000000000001,-2.7,-0.30000000000000004,2.9000000000000004,6.4,43.4,19.6,50.2,16
699,11813.0,0.6000000000000001,-0.4,-2.7,-0.30000000000000004,3.2,6.4,44.6,13.6,46.9,16
700,11830.0,0.7000000000000001,-0.2,-2.7,-0.2,3.7,6.4,41.50000000000001,-9.899999999999999,26.300000000000004,16
701,11847.0,0.5,-0.30000000000000004,-2.1,-0.2,3.6,6.9,35.699999999999996,-12.8,19.200000000000003,16
702,11863.0,0.5,-0.6000000000000001,-1.2000000000000002,-0.1,3.4000000000000004,7.800000000000001,26.700000000000003,-5.9,11.1,16
703,11881.0,0.5,-0.5,-1.2000000000000002,-0.2,3.7,7.7,20.2,1.9,4.6,16
704,11897.0,0.30000000000000004,-0.5,-1.1,-0.30000000000000004,3.7,7.800000000000001,14.0,0.5,0.0,16
705,11917.0,0.5,-0.4,-0.9,-0.1,3.7,8.0,-10.0,-9.600000000000001,-9.5,16
706,11931.0,0.6000000000000001,-0.30000000000000004,-0.4,0.0,3.8000000000000003,8.5,-23.5,-17.1,-15.000000000000002,16
707,11947.0,0.30000000000000004,-0.4,1.5,-0.30000000000000004,3.6,10.4,-45.0,-23.400000000000002,-24.7,16
708,11963.0,0.4,-0.8,1.8,-0.2,3.1,10.8,-45.7,-23.400000000000002,-25.900000000000002,16
709,11980.0,0.9,-0.6000000000000001,1.3,0.4,3.1,10.4,-61.0,-36.7,-30.3,16
710,11996.0,0.9,-0.6000000000000001,1.3,0.4,3.1,10.4,-61.0,-36.7,-30.3,16
711,12013.0,0.6000000000000001,-1.7000000000000002,3.4000000000000004,0.2,1.8,12.5,-96.1,-39.1,-45.6,16
712,12033.0,-1.0,-3.2,5.7,-1.4000000000000001,-0.2,15.100000000000001,-98.60000000000001,-13.700000000000001,-38.800000000000004,16
713,12047.0,-1.4000000000000001,-2.9000000000000004,5.4,-1.8,-0.1,14.8,-84.0,-8.8,-24.1,16
714,12063.0,-0.5,-1.6,4.5,-0.8,1.0,14.0,-38.2,-27.2,22.5,16
715,12093.0,3.3000000000000003,-0.4,2.2,3.2,2.1,11.700000000000001,-0.6000000000000001,-37.2,45.7,16
716,12096.0,3.3000000000000003,-0.4,2.2,3.2,2.1,11.700000000000001,-0.6000000000000001,-37.2,45.7,16
717,12114.0,4.3,-0.1,0.9,4.3,2.4000000000000004,10.4,-4.1,-17.300000000000004,28.1,16
718,12131.0,4.1000000000000005,-0.1,0.4,4.2,2.4000000000000004,9.8,-11.8,-3.0,14.900000000000002,16
719,12146.0,2.4000000000000004,0.1,-0.1,2.5,2.5,9.4,-25.300000000000004,23.5,-10.0,16
720,12163.0,0.6000000000000001,0.0,0.0,0.6000000000000001,2.3000000000000003,9.5,-20.5,29.400000000000002,-23.800000000000004,16
721,12187.0,-0.5,-0.1,-0.4,-0.6000000000000001,2.2,9.200000000000001,1.4,23.3,-21.6,16
722,12199.0,-0.30000000000000004,-0.2,-1.3,-0.5,2.1,8.200000000000001,30.200000000000003,9.3,-10.8,16
723,12214.0,-0.30000000000000004,-0.2,-1.3,-0.5,2.1,8.200000000000001,30.200000000000003,9.3,-10.8,16
724,12230.0,-0.1,-0.1,-3.3000000000000003,-0.30000000000000004,2.5,6.2,56.800000000000004,-0.8,-3.1,16
725,12247.0,0.0,0.0,-3.7,-0.30000000000000004,2.6,5.7,54.6,0.7,-3.5,16
726,12264.0,0.0,0.2,-3.6,-0.2,3.0,5.800000000000001,43.50000000000001,8.100000000000001,-5.1000000000000005,16
727,12280.0,0.0,0.30000000000000004,-3.2,-0.30000000000000004,3.2,6.2,36.2,17.400000000000002,-8.2,16
728,12307.0,-0.30000000000000004,0.4,-3.1,-0.6000000000000001,3.5,6.2,33.0,20.8,-12.600000000000001,16
729,12313.0,-0.6000000000000001,0.6000000000000001,-2.9000000000000004,-1.0,3.7,6.4,29.400000000000002,16.900000000000002,-15.5,16
730,12330.0,-0.9,0.6000000000000001,-2.4000000000000004,-1.3,3.7,6.9,24.7,9.8,-18.3,16
731,12350.0,-0.8,0.6000000000000001,0.0,-1.3,3.9000000000000004,9.200000000000001,13.700000000000001,-11.3,-21.400000000000002,16
732,12365.0,-0.7000000000000001,0.7000000000000001,0.9,-1.1,4.0,10.100000000000001,11.8,-14.0,-24.1,16
733,12389.0,-0.8,0.7000000000000001,1.6,-1.2000000000000002,4.0,10.8,13.6,-1.9,-31.099999999999998,16
734,12397.0,-1.0,0.7000000000000001,1.6,-1.5,4.0,10.8,14.0,6.8,-34.60000000000001,16
735,12414.0,-1.4000000000000001,0.5,1.4000000000000001,-1.9000000000000001,3.9000000000000004,10.600000000000001,13.399999999999999,13.100000000000001,-36.400000000000006,16
736,12430.0,-1.6,-0.1,1.1,-2.2,3.3000000000000003,10.3,2.2,10.1,-29.600000000000005,16
737,12446.0,-1.4000000000000001,-0.1,1.5,-2.0,3.3000000000000003,10.700000000000001,-5.1000000000000005,5.1000000000000005,-24.8,16
738,12465.0,-1.3,0.0,2.3000000000000003,-2.1,3.5,12.700000000000001,-14.400000000000002,5.1000000000000005,-12.200000000000001,16
739,12485.0,-1.6,0.6000000000000001,2.5,-2.4000000000000004,3.9000000000000004,11.700000000000001,14.700000000000001,40.300000000000004,8.100000000000001,16
740,12497.0,-1.8,1.2000000000000002,0.9,-2.6,4.6000000000000005,10.100000000000001,28.400000000000002,46.9,17.9,16
741,12513.0,-1.0,1.7000000000000002,-0.5,-1.9000000000000001,5.1000000000000005,8.700000000000001,18.3,28.200000000000003,28.1,16
742,12530.0,-0.30000000000000004,1.1,0.2,-1.3,4.6000000000000005,9.3,-4.6,4.6,23.2,16
743,12546.0,-0.1,-0.1,2.1,-1.0,3.4000000000000004,11.200000000000001,-16.8,-14.0,12.5,16
744,12564.0,-0.5,-0.6000000000000001,2.9000000000000004,-1.4000000000000001,2.8000000000000003,12.0,-10.4,-21.300000000000004,7.8,16
745,12585.0,-0.9,-1.0,2.6,-1.7000000000000002,2.4000000000000004,11.8,-1.8000000000000003,-19.5,8.899999999999999,16
746,12598.0,-0.8,-1.3,2.2,-1.6,2.1,11.3,2.2,-14.5,11.8,16
747,12614.0,-0.7000000000000001,-1.3,1.5,-1.5,2.1,10.600000000000001,6.8,-7.1000000000000005,15.2,16
748,12630.0,0.1,-1.2000000000000002,-0.5,-0.6000000000000001,2.2,8.6,19.5,6.500000000000001,20.7,16
749,12646.0,0.1,-1.4000000000000001,-1.2000000000000002,-0.6000000000000001,2.1,7.9,24.5,9.0,19.6,16
750,12664.0,0.1,-1.8,-2.8000000000000003,-0.6000000000000001,1.8,6.300000000000001,31.0,15.6,20.2,16
751,12682.0,0.4,-1.8,-3.9000000000000004,-0.4,1.9000000000000001,5.2,16.6,23.700000000000003,25.0,16
752,12697.0,0.4,-1.8,-3.9000000000000004,-0.30000000000000004,1.9000000000000001,5.300000000000001,4.300000000000001,19.6,24.599999999999998,16
753,12713.0,0.2,-1.7000000000000002,-2.8000000000000003,-0.9,2.0,7.300000000000001,-12.299999999999999,2.8,20.400000000000002,16
754,12730.0,-0.2,-1.8,-0.8,-1.0,1.8,8.3,-9.700000000000001,-3.2,20.400000000000002,16
755,12747.0,-0.1,-1.8,-0.2,-0.9,1.9000000000000001,8.9,16.3,-10.5,24.3,16
756,12764.0,0.2,-1.4000000000000001,-1.6,-0.4,2.4000000000000004,7.4,42.7,-13.100000000000001,26.5,16
757,12790.0,0.6000000000000001,-1.1,-2.6,0.2,3.0,6.2,43.6,-14.0,22.000000000000004,16
758,12798.0,0.8,-1.0,-2.8000000000000003,0.2,3.0,6.2,36.300000000000004,-11.5,18.5,16
759,12819.0,0.1,-0.7000000000000001,-1.2000000000000002,-0.30000000000000004,3.4000000000000004,7.7,7.8,-9.3,1.8000000000000003,16
760,12832.0,-0.2,-0.8,-0.7000000000000001,-0.6000000000000001,3.3000000000000003,8.200000000000001,2.0,-12.299999999999999,-5.6,16
761,12848.0,-0.4,-0.8,-0.2,-0.8,3.3000000000000003,8.700000000000001,0.0,-16.0,-8.0,16
762,12863.0,-0.4,-0.6000000000000001,0.6000000000000001,-0.8,3.5,9.5,0.4,-18.1,-9.8,16
763,12886.0,-0.1,-0.4,0.7000000000000001,-0.4,3.7,9.600000000000001,-0.7,-8.899999999999999,-12.7,16
764,12897.0,0.1,-0.30000000000000004,0.6000000000000001,-0.30000000000000004,3.8000000000000003,9.5,-4.2,-1.5,-15.299999999999999,16
765,12915.0,-0.30000000000000004,-0.4,1.2000000000000002,-0.7000000000000001,3.7,10.100000000000001,-16.900000000000002,9.100000000000001,-22.8,16
766,12934.0,-0.7000000000000001,-0.6000000000000001,1.6,-1.1,3.4000000000000004,10.5,-23.0,9.600000000000001,-25.5,16
767,12947.0,-1.0,-1.0,3.4000000000000004,-1.5,3.0,12.4,-30.699999999999996,-4.7,-19.9,16
768,12963.0,0.0,-0.9,4.7,-0.5,3.0,13.700000000000001,-12.8,-3.6000000000000005,0.8,16
769,12986.0,0.5,-0.1,2.0,0.1,3.8000000000000003,11.0,15.100000000000001,9.5,9.5,16
770,13002.0,0.9,-0.2,1.1,0.4,3.7,10.100000000000001,-16.8,13.700000000000001,0.1,16
771,13014.0,0.9,-0.2,1.1,0.4,3.7,10.100000000000001,-16.8,13.700000000000001,0.1,16
772,13030.0,0.4,-2.0,4.800000000000001,-0.1,1.8,13.9,-56.2,15.100000000000001,-8.4,16
773,13046.0,0.1,-2.1,5.5,-0.5,1.5,14.600000000000001,-50.400000000000006,12.600000000000001,-4.6,16
774,13063.0,0.2,-1.7000000000000002,5.0,-0.4,1.8,14.200000000000001,-19.5,2.9,12.600000000000001,16
775,13088.0,1.5,-0.8,2.6,0.9,2.6,11.700000000000001,15.299999999999999,-17.9,26.6,16
776,13098.0,2.2,-0.5,1.2000000000000002,1.6,3.0,10.3,24.900000000000002,-28.200000000000003,26.6,16
777,13115.0,2.5,-0.5,-0.6000000000000001,2.0,3.1,8.5,23.0,-28.600000000000005,13.900000000000002,16
778,13130.0,2.4000000000000004,-0.5,-0.6000000000000001,2.0,2.9000000000000004,8.1,13.700000000000001,-21.500000000000004,5.2,16
779,13149.0,1.5,-1.0,-1.3,0.6000000000000001,2.5,7.5,-4.1,1.7,-14.0,16
780,13163.0,0.5,-1.1,-2.0,0.2,2.5,7.1000000000000005,-1.9,-1.7,-21.6,16
781,13184.0,0.5,-1.3,-2.6,0.1,2.3000000000000003,6.5,11.2,-14.600000000000001,-16.4,16
782,13197.0,0.8,-1.1,-2.8000000000000003,0.4,2.5,6.300000000000001,18.900000000000002,-20.8,-13.8,16
783,13213.0,1.1,-0.9,-3.0,0.7000000000000001,2.8000000000000003,6.1000000000000005,25.7,-25.6,-13.200000000000003,16
784,13230.0,0.5,-0.6000000000000001,-3.4000000000000004,0.2,3.2,5.7,33.0,-21.300000000000004,-29.400000000000002,16
785,13246.0,-0.2,-0.7000000000000001,-3.3000000000000003,-0.5,3.1,5.800000000000001,31.400000000000002,-14.900000000000002,-35.1,16
786,13263.0,-1.1,-0.7000000000000001,-3.1,-1.3,3.2,5.9,29.1,-3.1,-34.50000000000001,16
787,13290.0,-0.8,0.0,-3.0,-1.0,4.0,5.9,25.5,-1.2000000000000002,-23.800000000000004,16
788,13298.0,-0.4,0.30000000000000004,-2.9000000000000004,-0.30000000000000004,4.6000000000000005,6.5,14.5,-22.2,-19.0,16
789,13314.0,0.0,0.7000000000000001,-1.5,-0.30000000000000004,4.800000000000001,7.4,9.8,-32.300000000000004,-22.8,16
790,13332.0,-0.2,0.5,-0.2,-0.4,4.6000000000000005,8.700000000000001,8.100000000000001,-43.1,-27.800000000000004,16
791,13347.0,-0.8,0.30000000000000004,1.6,-0.9,4.5,10.5,21.300000000000004,-46.199999999999996,-35.2,16
792,13363.0,-0.7000000000000001,0.2,1.4000000000000001,-0.7000000000000001,4.4,10.200000000000001,50.400000000000006,-14.5,-31.099999999999998,16
793,13386.0,-0.6000000000000001,0.2,-0.2,-0.7000000000000001,4.6000000000000005,8.6,66.9,-1.4,-20.7,16
794,13402.0,-1.1,1.1,-1.2000000000000002,-1.2000000000000002,5.7,7.5,46.800000000000004,4.800000000000001,-13.100000000000001,16
795,13414.0,-1.1,1.1,-1.2000000000000002,-1.2000000000000002,5.7,7.5,46.800000000000004,4.800000000000001,-13.100000000000001,16
796,13431.0,-1.1,1.1,-0.2,-1.3,5.9,8.4,10.299999999999999,-24.8,5.300000000000001,16
797,13446.0,-0.30000000000000004,0.4,1.5,-0.4,5.2,10.100000000000001,5.4,-39.9,7.9,16
798,13463.0,0.5,0.4,2.7,0.5,5.1000000000000005,11.3,7.699999999999999,-30.9,14.300000000000002,16
799,13487.0,0.4,1.1,2.0,0.5,6.0,10.5,19.1,14.800000000000002,24.900000000000002,16
800,13498.0,0.30000000000000004,1.5,0.9,0.4,6.300000000000001,9.4,24.3,39.8,30.699999999999996,16
801,13513.0,0.4,2.2,-0.2,0.5,7.1000000000000005,8.3,14.0,40.300000000000004,31.7,16
802,13530.0,0.7000000000000001,2.1,0.1,0.7000000000000001,7.0,8.6,0.1,13.700000000000001,27.400000000000002,16
803,13546.0,1.1,0.5,2.1,1.2000000000000002,5.4,10.600000000000001,-24.5,-40.9,8.3,16
804,13563.0,0.5,-0.7000000000000001,3.2,0.7000000000000001,4.2,11.700000000000001,-20.7,-40.4,-3.6000000000000005,16
805,13581.0,-0.4,-0.9,2.4000000000000004,-0.1,3.9000000000000004,10.9,-6.300000000000001,-10.200000000000001,-2.0,16
806,13597.0,-0.6000000000000001,-0.8,1.7000000000000002,-0.30000000000000004,4.0,10.200000000000001,-2.4000000000000004,-0.9000000000000001,2.1,16
807,13615.0,-0.4,-0.8,1.1,-0.1,3.9000000000000004,9.600000000000001,-1.6,4.1,7.699999999999999,16
808,13630.0,0.30000000000000004,-1.0,0.0,0.9,3.6,8.0,-11.000000000000002,8.2,6.2,16
809,13647.0,0.8,-1.3,-0.8,1.1,3.4000000000000004,7.800000000000001,-18.1,8.4,3.0,16
810,13663.0,0.6000000000000001,-1.7000000000000002,-0.6000000000000001,0.9,2.9000000000000004,8.1,-30.4,7.300000000000001,-2.1,16
811,13696.0,-0.2,-1.9000000000000001,-0.4,0.0,2.6,8.4,-14.5,4.800000000000001,-3.0,16
812,13715.0,-0.4,-2.1,-1.6,-0.2,2.4000000000000004,7.1000000000000005,8.700000000000001,9.700000000000001,1.7,16
813,13730.0,-0.6000000000000001,-1.8,-2.2,-0.4,2.7,6.5,16.6,11.6,4.0,16
814,13748.0,-0.7000000000000001,-1.8,-3.4000000000000004,-0.5,2.8000000000000003,5.300000000000001,21.7,12.299999999999999,9.5,16
815,13765.0,-0.7000000000000001,-1.7000000000000002,-3.7,-0.6000000000000001,2.9000000000000004,4.9,13.8,5.8,15.2,16
816,13797.0,-0.5,-1.5,-3.7,-0.30000000000000004,3.2,4.9,6.699999999999999,-9.4,15.700000000000001,16
817,13814.0,-0.5,-1.4000000000000001,-3.5,-0.30000000000000004,3.3000000000000003,5.1000000000000005,4.6,-11.4,16.1,16
818,13830.0,-0.4,-0.5,-3.3000000000000003,0.0,4.1000000000000005,5.300000000000001,-0.7,-12.8,15.000000000000002,16
819,13846.0,-0.5,-0.2,-3.3000000000000003,-0.1,4.5,5.300000000000001,-5.0,-15.2,12.0,16
820,13865.0,0.0,-0.2,-2.3000000000000003,0.4,4.4,6.300000000000001,-26.400000000000006,-30.699999999999996,4.9,16
821,13883.0,0.0,0.30000000000000004,-0.1,0.6000000000000001,4.800000000000001,8.6,-51.50000000000001,-48.9,-0.8,16
822,13897.0,0.4,0.0,0.9,1.0,4.4,9.700000000000001,-54.699999999999996,-42.7,-2.5,16
823,13913.0,0.1,-0.6000000000000001,1.4000000000000001,0.8,3.7,10.200000000000001,-41.1,-12.0,-9.700000000000001,16
824,13930.0,-0.30000000000000004,-0.6000000000000001,1.2000000000000002,0.5,3.7,10.0,-34.50000000000001,5.2,-9.899999999999999,16
825,13950.0,-0.30000000000000004,0.1,0.5,0.9,4.1000000000000005,9.3,-40.1,6.4,-8.600000000000001,16
826,13964.0,0.7000000000000001,-0.1,0.7000000000000001,1.3,3.9000000000000004,9.600000000000001,-48.800000000000004,0.5,-11.900000000000002,16
827,13997.0,0.9,-0.7000000000000001,3.1,1.6,3.1,12.200000000000001,-68.9,-16.6,-13.100000000000001,16
828,14013.0,1.1,-0.5,3.4000000000000004,1.7000000000000002,3.1,12.5,-66.4,-7.400000000000001,-8.600000000000001,16
829,14031.0,1.3,0.2,1.6,1.9000000000000001,3.5,10.8,-48.400000000000006,33.0,-4.7,16
830,14049.0,1.3,0.4,1.0,1.8,3.7,10.200000000000001,-54.199999999999996,35.9,-8.100000000000001,16
831,14064.0,0.4,-0.9,2.2,0.9,2.3000000000000003,11.5,-97.00000000000001,8.600000000000001,-24.1,16
832,14084.0,-0.4,-1.8,4.0,0.0,1.0,13.4,-102.10000000000001,-9.0,-19.300000000000004,16
833,14100.0,-0.2,-2.2,4.7,0.30000000000000004,0.30000000000000004,14.200000000000001,-76.60000000000001,-6.300000000000001,4.2,16
834,14113.0,0.4,-1.8,4.4,0.9,0.5,13.9,-58.800000000000004,-0.7,15.299999999999999,16
835,14130.0,1.2000000000000002,-1.5,3.7,1.7000000000000002,0.7000000000000001,13.200000000000001,-43.1,0.4,22.8,16
836,14148.0,2.7,-1.0,2.4000000000000004,3.2,1.1,12.0,-21.200000000000003,-14.300000000000002,24.3,16
837,14163.0,3.0,-0.7000000000000001,1.8,3.6,1.3,11.3,-6.2,-31.2,11.4,16
838,14180.0,2.0,-0.7000000000000001,1.2000000000000002,2.7,1.3,10.8,-1.3,-35.0,-3.2,16
839,14202.0,0.8,-0.7000000000000001,0.5,1.5,1.3,10.100000000000001,-0.4,-1.8000000000000003,-9.600000000000001,16
840,14213.0,0.8,-0.7000000000000001,0.5,1.5,1.3,10.100000000000001,-0.4,-1.8000000000000003,-9.600000000000001,16
841,14230.0,-0.2,-0.30000000000000004,-1.2000000000000002,0.5,1.7000000000000002,8.4,5.300000000000001,33.2,-12.200000000000001,16
842,14251.0,-0.4,0.0,-2.4000000000000004,0.2,2.0,7.1000000000000005,15.2,21.6,-10.600000000000001,16
843,14263.0,-0.5,-0.1,-3.0,0.0,2.0,6.5,22.2,20.900000000000002,-12.299999999999999,16
844,14280.0,-1.0,-0.1,-4.2,-0.6000000000000001,2.1,5.4,25.200000000000003,5.300000000000001,-8.100000000000001,16
845,14297.0,-1.1,0.30000000000000004,-3.9000000000000004,-0.6000000000000001,2.5,5.6000000000000005,14.800000000000002,4.800000000000001,-12.0,16
846,14315.0,-1.3,0.8,-3.4000000000000004,-1.0,3.0,6.2,7.0,16.1,-16.1,16
847,14331.0,-1.3,0.9,-3.3000000000000003,-0.9,3.2,6.2,4.2,23.2,-14.100000000000001,16
848,14346.0,-1.2000000000000002,1.1,-3.0,-0.9,3.4000000000000004,6.5,-3.1,16.8,-1.5,16
849,14364.0,-1.2000000000000002,1.0,-2.6,-0.8,3.0,7.1000000000000005,-6.8,-5.7,17.0,16
850,14380.0,-0.1,-0.2,-1.0,0.1,2.0,8.5,-15.700000000000001,19.799999999999997,31.6,16
851,14400.0,0.1,0.5,0.0,0.30000000000000004,2.7,9.5,-6.4,30.000000000000004,23.400000000000002,16
852,14418.0,0.1,0.6000000000000001,0.0,0.2,2.8000000000000003,9.600000000000001,0.7,35.3,16.6,16
853,14431.0,-0.30000000000000004,0.8,-0.1,-0.30000000000000004,3.0,9.4,14.600000000000001,44.10000000000001,3.9,16
854,14447.0,-0.5,0.7000000000000001,-0.30000000000000004,-0.6000000000000001,3.0,9.200000000000001,17.300000000000004,39.400000000000006,1.1,16
855,14463.0,-0.7000000000000001,0.9,-0.2,-0.8,3.2,9.3,16.0,31.7,1.5,16
856,14480.0,-0.8,1.0,0.5,-1.1,3.3000000000000003,10.0,8.700000000000001,24.8,-0.2,16
857,14501.0,-0.9,0.9,1.2000000000000002,-1.3,3.2,10.700000000000001,1.5,23.6,0.6000000000000001,16
858,14514.0,-0.9,0.9,1.8,-1.3,3.3000000000000003,11.3,-1.5,20.900000000000002,2.9,16
859,14530.0,-1.0,1.0,2.5,-1.4000000000000001,3.4000000000000004,12.0,-1.3,19.300000000000004,7.300000000000001,16
860,14546.0,-1.4000000000000001,1.7000000000000002,1.8,-1.9000000000000001,4.1000000000000005,11.3,15.2,37.2,16.6,16
861,14563.0,-1.1,2.5,0.2,-1.7000000000000002,4.9,9.700000000000001,17.799999999999997,41.4,22.9,16
862,14580.0,0.2,2.3000000000000003,0.4,-0.5,4.800000000000001,9.8,-15.299999999999999,1.8000000000000003,11.6,16
863,14597.0,0.4,1.3,2.4000000000000004,-0.30000000000000004,3.8000000000000003,11.8,-41.1,-31.099999999999998,-3.7000000000000006,16
864,14613.0,-0.1,0.5,4.4,-0.8,2.9000000000000004,13.9,-55.3,-52.60000000000001,-19.1,16
865,14631.0,-1.3,-1.3,6.5,-1.8,-0.2,15.8,-36.6,-63.500000000000014,-11.700000000000001,16
866,14649.0,-1.2000000000000002,-2.8000000000000003,5.6000000000000005,-1.5,-0.7000000000000001,15.200000000000001,-20.599999999999998,-43.800000000000004,3.0,16
867,14663.0,-0.4,-1.5,4.0,-0.6000000000000001,0.5,13.600000000000001,4.9,-0.6000000000000001,28.900000000000002,16
868,14680.0,0.9,-1.0,2.9000000000000004,0.8,1.1,12.5,3.5,18.1,25.8,16
869,14700.0,0.9,-0.9,2.8000000000000003,0.30000000000000004,0.9,12.4,0.1,17.5,15.2,16
870,14714.0,-0.1,-1.5,2.6,-0.4,0.6000000000000001,12.200000000000001,4.4,20.0,0.1,16
871,14730.0,-0.5,-1.6,2.3000000000000003,-0.8,0.4,11.8,11.700000000000001,22.1,1.3,16
872,14750.0,-0.4,-1.4000000000000001,0.2,-0.7000000000000001,0.7000000000000001,9.700000000000001,43.1,33.6,23.0,16
873,14763.0,-0.1,-1.2000000000000002,-0.7000000000000001,-0.5,1.1,8.9,53.300000000000004,39.400000000000006,29.400000000000002,16
874,14780.0,0.4,-0.9,-2.3000000000000003,-0.1,1.5,7.1000000000000005,66.5,40.5,35.5,16
875,14797.0,0.5,-0.8,-3.0,-0.1,1.7000000000000002,6.5,70.8,37.50000000000001,35.4,16
876,14813.0,0.5,-0.8,-3.5,-0.2,1.8,5.9,73.2,30.799999999999997,34.2,16
877,14832.0,0.30000000000000004,-1.0,-4.0,-0.2,2.1,5.1000000000000005,67.3,-1.2000000000000002,32.9,16
878,14848.0,0.6000000000000001,-0.9,-4.3,0.0,2.2,5.0,61.7,-3.0,32.0,16
879,14864.0,1.0,-1.0,-4.0,0.30000000000000004,2.3000000000000003,5.2,45.099999999999994,8.600000000000001,27.0,16
880,14885.0,0.9,-1.2000000000000002,-2.9000000000000004,0.2,2.3000000000000003,6.2,32.5,19.1,18.4,16
881,14901.0,0.30000000000000004,-1.7000000000000002,-2.0,-0.4,1.9000000000000001,7.1000000000000005,37.6,15.299999999999999,10.200000000000001,16
882,14913.0,0.1,-1.8,-2.3000000000000003,-0.6000000000000001,1.9000000000000001,6.800000000000001,44.10000000000001,8.4,9.8,16
883,14930.0,0.1,-1.7000000000000002,-2.8000000000000003,-0.6000000000000001,2.1,6.2,47.80000000000001,2.0,10.4,16
884,14946.0,0.5,-1.2000000000000002,-3.6,-0.2,2.6,5.4,38.900000000000006,-6.2,9.5,16
885,14963.0,1.0,-0.9,-3.0,0.4,3.1,5.9,12.100000000000001,-11.6,0.8,16
886,14987.0,1.0,-0.9,-1.5,0.4,3.1,7.4,-16.200000000000003,-12.600000000000001,-17.7,16
887,14996.0,1.0,-0.9,-1.6,0.1,3.0,8.200000000000001,-34.2,-8.899999999999999,-30.9,16
888,15013.0,0.30000000000000004,-1.0,0.0,-0.4,2.9000000000000004,9.0,-43.900000000000006,-3.9,-36.6,16
889,15030.0,-0.6000000000000001,-0.6000000000000001,1.9000000000000001,-1.3,3.1,11.0,-53.10000000000001,10.5,-37.2,16
890,15047.0,-0.4,-0.1,1.7000000000000002,-1.1,3.4000000000000004,10.8,-52.2,9.0,-35.8,16
891,15063.0,0.1,0.30000000000000004,1.9000000000000001,-0.7000000000000001,3.7,11.100000000000001,-70.7,1.0,-43.300000000000004,16
892,15082.0,-0.4,-0.7000000000000001,3.6,-1.3,2.4000000000000004,12.9,-99.00000000000001,1.0,-61.39999999999999,16
893,15096.0,-1.1,-1.4000000000000001,4.6000000000000005,-2.0,1.5,13.9,-106.0,4.300000000000001,-66.0,16
894,15113.0,-1.9000000000000001,-2.4000000000000004,5.1000000000000005,-2.9000000000000004,0.1,14.5,-98.3,1.5,-53.7,16
895,15130.0,-2.1,-2.3000000000000003,4.9,-3.1,0.1,14.3,-85.30000000000001,-4.7,-41.199999999999996,16
896,15148.0,-1.2000000000000002,-1.9000000000000001,3.5,-2.2,0.2,13.0,-39.8,-38.2,-2.6,16
897,15163.0,-0.2,-1.7000000000000002,2.5,0.30000000000000004,0.5,11.4,-18.8,-59.9,21.8,16
898,15180.0,3.0,-1.0,1.4000000000000001,2.4000000000000004,1.0,10.9,-13.399999999999999,-55.3,21.500000000000004,16
899,15203.0,3.0,-0.9,0.5,2.5,1.0,10.100000000000001,-10.200000000000001,-23.2,6.1000000000000005,16
900,15213.0,3.0,-0.9,0.5,2.5,1.0,10.100000000000001,-10.200000000000001,-23.2,6.1000000000000005,16
901,15230.0,1.6,-0.7000000000000001,-0.30000000000000004,0.6000000000000001,1.2000000000000002,8.9,-3.7000000000000006,23.5,-3.3000000000000007,16
902,15246.0,0.5,-0.6000000000000001,-1.1,0.1,1.3,8.5,3.3000000000000007,30.1,-1.1,16
903,15266.0,0.30000000000000004,-0.2,-1.9000000000000001,-0.30000000000000004,1.7000000000000002,7.7,21.300000000000004,29.1,7.400000000000001,16
904,15280.0,0.5,0.0,-2.8000000000000003,-0.1,2.0,6.800000000000001,38.60000000000001,21.7,11.3,16
905,15301.0,-0.1,-0.2,-3.0,-0.8,1.9000000000000001,6.6000000000000005,49.9,16.6,8.100000000000001,16
906,15313.0,-0.4,-0.30000000000000004,-3.1,-1.1,2.0,6.4,54.0,16.5,9.899999999999999,16
907,15330.0,-0.4,-0.2,-3.4000000000000004,-1.2000000000000002,2.1,6.1000000000000005,56.10000000000001,16.5,13.3,16
908,15350.0,0.0,0.5,-3.5,-0.8,3.1,5.9,48.800000000000004,13.5,17.6,16
909,15365.0,0.30000000000000004,0.7000000000000001,-3.4000000000000004,-0.5,3.4000000000000004,6.0,44.10000000000001,13.200000000000003,14.100000000000001,16
910,15382.0,0.2,0.8,-2.5,-0.6000000000000001,3.6,6.9,29.800000000000004,8.4,-0.8,16
911,15397.0,-0.1,0.6000000000000001,-1.6,-0.9,3.4000000000000004,7.7,23.800000000000004,5.7,-7.300000000000001,16
912,15413.0,-0.4,0.5,-0.8,-1.3,3.4000000000000004,8.6,20.7,2.7,-10.600000000000001,16
913,15430.0,-1.0,0.7000000000000001,0.0,-2.2,3.9000000000000004,9.200000000000001,23.0,7.400000000000001,-10.4,16
914,15446.0,-1.5,1.0,-0.2,-2.4000000000000004,4.0,9.1,21.300000000000004,12.7,-8.5,16
915,15467.0,-1.4000000000000001,1.2000000000000002,0.30000000000000004,-2.3000000000000003,4.3,9.600000000000001,6.8,19.300000000000004,-3.7000000000000006,16
916,15480.0,-0.9,1.1,1.1,-2.0,4.2,10.3,-4.4,17.1,-7.0,16
917,15497.0,-0.9,0.8,1.4000000000000001,-2.0,3.9000000000000004,10.700000000000001,-10.0,12.600000000000001,-9.899999999999999,16
918,15513.0,-1.4000000000000001,0.2,3.0,-2.5,3.3000000000000003,12.200000000000001,-19.6,3.4,-10.9,16
919,15533.0,-1.7000000000000002,0.1,4.0,-2.9000000000000004,3.1,13.3,-16.3,6.4,-5.300000000000001,16
920,15548.0,-1.4000000000000001,0.1,3.2,-2.6,3.1,12.4,9.5,20.3,15.6,16
921,15567.0,-0.30000000000000004,0.7000000000000001,1.9000000000000001,-1.5,3.7,11.200000000000001,9.600000000000001,4.2,25.0,16
922,15581.0,0.4,-0.30000000000000004,3.2,-0.8,2.8000000000000003,12.4,-12.8,-23.5,14.0,16
923,15597.0,0.30000000000000004,-0.2,3.2,-0.8,2.1,13.5,-19.200000000000003,-29.500000000000004,9.100000000000001,16
924,15613.0,0.30000000000000004,-1.3,4.800000000000001,-0.8,1.7000000000000002,14.100000000000001,-16.5,-28.200000000000003,6.2,16
925,15630.0,0.0,-2.0,3.2,-1.0,1.0,12.5,13.900000000000002,-0.5,7.8,16
926,15646.0,-0.1,-2.0,2.1,-1.0,1.0,11.4,18.700000000000003,5.2,10.0,16
927,15663.0,0.30000000000000004,-2.0,0.5,-0.7000000000000001,1.1,9.700000000000001,19.700000000000003,6.699999999999999,12.600000000000001,16
928,15680.0,0.8,-2.0,-0.5,-0.2,1.1,8.8,8.8,1.9,9.3,16
929,15697.0,0.8,-2.1,-0.4,-0.2,1.0,8.8,1.5,1.1,6.300000000000001,16
930,15713.0,0.4,-2.4000000000000004,-0.4,-0.6000000000000001,0.7000000000000001,8.8,-5.6,14.400000000000002,3.4,16
931,15730.0,0.1,-2.5,-0.7000000000000001,-0.9,0.7000000000000001,8.6,-4.6,23.400000000000002,4.6,16
932,15749.0,-0.4,-2.4000000000000004,-1.5,-1.5,0.7000000000000001,7.7,3.4,36.1,11.6,16
933,15763.0,-0.5,-2.0,-2.3000000000000003,-1.7000000000000002,1.2000000000000002,7.0,17.300000000000004,27.0,25.900000000000002,16
934,15780.0,-0.1,-1.6,-2.8000000000000003,-1.3,1.6,6.4,27.5,14.400000000000002,35.3,16
935,15797.0,0.1,-1.5,-3.1,-1.1,1.8,6.1000000000000005,30.599999999999998,9.100000000000001,37.7,16
936,15813.0,0.1,-1.4000000000000001,-3.2,-1.1,1.9000000000000001,5.9,31.7,2.9,38.50000000000001,16
937,15830.0,0.1,-1.5,-2.8000000000000003,-1.0,2.0,6.2,31.099999999999998,-12.4,37.6,16
938,15847.0,0.1,-1.6,-2.8000000000000003,-1.0,2.1,6.4,31.6,-13.700000000000001,38.400000000000006,16
939,15863.0,0.2,-1.2000000000000002,-2.7,-0.8,2.5,6.4,32.6,-7.9,38.900000000000006,16
940,15881.0,0.7000000000000001,-0.8,-2.8000000000000003,-0.30000000000000004,3.0,6.2,29.600000000000005,-3.6000000000000005,37.7,16
941,15897.0,0.8,-0.5,-2.8000000000000003,-0.1,3.3000000000000003,6.2,25.300000000000004,-4.4,34.2,16
942,15913.0,1.0,-0.5,-2.7,0.2,3.6,6.6000000000000005,3.5,-14.600000000000001,15.299999999999999,16
943,15930.0,0.8,-0.30000000000000004,-1.7000000000000002,0.0,3.6,7.2,-6.8,-17.5,5.6,16
944,15947.0,0.1,-0.6000000000000001,-0.4,-0.6000000000000001,3.3000000000000003,8.5,-21.7,-15.299999999999999,-7.300000000000001,16
945,15963.0,-0.1,-0.5,0.5,-0.9,3.3000000000000003,9.5,-31.799999999999997,-10.600000000000001,-11.3,16
946,15980.0,0.2,-0.4,1.3,-0.5,3.2,10.4,-43.70000000000001,-4.6,-14.900000000000002,16
947,16002.0,0.7000000000000001,-0.4,2.3000000000000003,0.0,3.2,11.4,-60.7,3.0,-22.4,16
948,16016.0,0.7000000000000001,-0.4,2.3000000000000003,0.0,3.2,11.4,-60.7,3.0,-22.4,16
949,16030.0,0.4,-0.30000000000000004,4.7,-0.6000000000000001,2.9000000000000004,14.4,-59.9,15.700000000000001,-30.9,16
950,16047.0,0.2,0.0,4.4,-0.7000000000000001,3.1,13.700000000000001,-45.0,20.5,-29.300000000000004,16
951,16063.0,0.30000000000000004,0.7000000000000001,2.3000000000000003,-0.6000000000000001,3.7,11.600000000000001,-39.0,14.900000000000002,-33.400000000000006,16
952,16080.0,0.2,-0.2,2.3000000000000003,-0.8,2.6,11.600000000000001,-69.7,20.599999999999998,-47.2,16
953,16105.0,-1.1,-1.3,4.2,-2.3000000000000003,1.3,13.600000000000001,-81.4,36.6,-50.0,16
954,16113.0,-1.0,-1.1,4.2,-3.0,0.8,13.9,-71.30000000000001,37.400000000000006,-43.50000000000001,16
955,16130.0,-2.4000000000000004,-1.7000000000000002,4.6000000000000005,-3.7,0.5,14.100000000000001,-53.7,31.400000000000002,-32.2,16
956,16146.0,-2.7,-1.4000000000000001,3.8000000000000003,-4.1000000000000005,0.7000000000000001,13.200000000000001,-1.1,4.1,3.1,16
957,16163.0,-0.5,-1.1,1.1,-1.9000000000000001,1.1,10.600000000000001,43.2,-34.300000000000004,42.1,16
958,16181.0,2.2,-0.4,-0.6000000000000001,1.0,2.0,8.9,57.1,-59.699999999999996,57.20000000000001,16
959,16200.0,3.5,0.0,-1.5,2.5,2.5,7.9,48.10000000000001,-61.8,42.900000000000006,16
960,16220.0,3.4000000000000004,-0.1,-1.5,2.7,2.4000000000000004,7.800000000000001,37.800000000000004,-54.699999999999996,28.800000000000004,16
961,16230.0,2.9000000000000004,-0.30000000000000004,-1.5,2.2,2.4000000000000004,7.9,25.200000000000003,-32.9,5.6,16
962,16246.0,2.9000000000000004,-0.30000000000000004,-1.5,2.2,2.4000000000000004,7.9,25.200000000000003,-32.9,5.6,16
963,16263.0,0.0,-0.8,-2.6,-0.6000000000000001,2.1,6.800000000000001,29.600000000000005,12.100000000000001,-6.0,16
964,16290.0,0.2,-0.6000000000000001,-2.8000000000000003,-0.5,2.3000000000000003,6.5,34.800000000000004,13.700000000000001,2.1,16
965,16297.0,0.4,-0.5,-3.0,-0.30000000000000004,2.5,6.300000000000001,37.9,12.9,3.9,16
966,16314.0,0.9,-0.30000000000000004,-3.3000000000000003,0.1,2.8000000000000003,5.9,41.1,7.300000000000001,0.8,16
967,16331.0,0.9,-0.2,-3.4000000000000004,0.1,3.0,5.800000000000001,40.9,5.0,-4.1,16
968,16346.0,0.5,0.1,-3.5,-0.30000000000000004,3.4000000000000004,5.7,35.0,3.7000000000000006,-15.700000000000001,16
969,16363.0,0.1,0.2,-3.1,-0.7000000000000001,3.6,6.1000000000000005,21.900000000000002,5.9,-25.200000000000003,16
970,16391.0,-0.1,0.2,-1.5,-1.0,3.6,7.6000000000000005,4.7,23.0,-25.8,16
971,16399.0,-0.1,0.2,-1.5,-0.9,3.7,8.0,4.5,30.200000000000003,-26.000000000000004,16
972,16414.0,0.1,0.30000000000000004,-1.1,-0.9,3.7,8.0,4.5,30.200000000000003,-26.000000000000004,16
973,16431.0,0.0,0.4,-1.2000000000000002,-1.6,3.9000000000000004,7.9,2.4000000000000004,38.50000000000001,-30.4,16
974,16447.0,-0.8,0.5,-0.9,-2.1,4.0,8.200000000000001,0.2,36.7,-29.800000000000004,16
975,16463.0,-1.2000000000000002,0.8,-0.4,-2.6,4.3,8.700000000000001,0.8,26.6,-21.500000000000004,16
976,16486.0,-1.1,1.1,-0.1,-2.6,4.6000000000000005,8.9,1.0,21.300000000000004,-10.700000000000001,16
977,16497.0,-0.9,1.2000000000000002,0.30000000000000004,-2.4000000000000004,4.7,9.4,-1.5,20.3,-5.6,16
978,16514.0,-0.5,1.2000000000000002,0.9,-2.1,4.7,10.0,-7.8,20.400000000000002,1.0,16
979,16533.0,-0.2,1.2000000000000002,1.4000000000000001,-1.9000000000000001,4.7,10.4,-16.6,17.5,1.5,16
980,16546.0,-0.6000000000000001,1.1,3.2,-2.3000000000000003,4.5,12.200000000000001,-24.7,13.200000000000003,-1.2000000000000002,16
981,16563.0,-1.0,1.7000000000000002,3.0,-2.7,5.0,12.100000000000001,-8.8,18.8,9.0,16
982,16590.0,0.6000000000000001,2.3000000000000003,2.1,-1.2000000000000002,5.6000000000000005,11.200000000000001,-30.799999999999997,-19.0,4.1,16
983,16597.0,0.6000000000000001,2.3000000000000003,2.1,-1.2000000000000002,5.6000000000000005,11.200000000000001,-30.799999999999997,-19.0,4.1,16
984,16614.0,0.7000000000000001,1.2000000000000002,3.8000000000000003,-1.1,4.5,12.9,-44.9,-30.200000000000003,-8.8,16
985,16630.0,-0.4,-0.6000000000000001,6.800000000000001,-2.8000000000000003,2.0,16.2,-22.700000000000003,-28.0,-19.200000000000003,16
986,16647.0,-1.8,-1.1,6.2,-3.4000000000000004,1.9000000000000001,15.5,2.7,-17.5,-10.0,16
987,16663.0,-1.6,-0.30000000000000004,2.9000000000000004,-3.2,2.7,12.100000000000001,43.50000000000001,-9.100000000000001,15.100000000000001,16
988,16690.0,-0.1,0.2,0.30000000000000004,-1.6,3.4000000000000004,9.5,47.80000000000001,-8.4,23.800000000000004,16
989,16696.0,0.4,0.2,-0.30000000000000004,-1.0,3.4000000000000004,8.8,41.4,-8.0,17.6,16
990,16713.0,0.6000000000000001,-0.6000000000000001,-1.0,-0.8,2.8000000000000003,8.1,23.3,-1.8000000000000003,-0.8,16
991,16730.0,0.2,-1.0,-0.9,-1.2000000000000002,2.4000000000000004,8.200000000000001,14.300000000000002,3.7000000000000006,-8.600000000000001,16
992,16747.0,-0.2,-1.9000000000000001,-0.2,-1.6,1.6,8.8,8.700000000000001,13.200000000000003,-14.400000000000002,16
993,16763.0,-0.7000000000000001,-2.5,-0.7000000000000001,-2.2,0.9,8.4,22.5,24.8,-7.6,16
994,16780.0,-0.6000000000000001,-2.6,-0.7000000000000001,-2.3000000000000003,0.9,7.1000000000000005,38.800000000000004,27.2,9.600000000000001,16
995,16797.0,-0.6000000000000001,-2.4000000000000004,-2.5,-2.2,1.1,6.5,43.800000000000004,23.800000000000004,18.1,16
996,16813.0,-0.5,-2.3000000000000003,-2.8000000000000003,-2.2,1.4000000000000001,6.1000000000000005,47.0,18.200000000000003,25.5,16
997,16830.0,0.1,-2.4000000000000004,-3.4000000000000004,-1.5,1.5,5.4,49.4,-2.9,44.4,16
998,16846.0,0.4,-2.4000000000000004,-3.3000000000000003,-1.3,1.7000000000000002,5.5,49.1,-8.100000000000001,47.5,16
999,16864.0,0.8,-2.2,-3.0,-0.7000000000000001,2.0,5.7,52.2,-16.700000000000003,50.5,16
1000,16891.0,1.1,-1.7000000000000002,-3.4000000000000004,-0.30000000000000004,2.6,5.300000000000001,51.6,-19.300000000000004,49.6,16
1001,16898.0,1.4000000000000001,-1.3,-3.5,0.1,3.2,5.1000000000000005,40.2,-18.1,44.8,16
1002,16915.0,1.3,-1.4000000000000001,-3.5,0.2,3.6,5.300000000000001,31.799999999999997,-16.900000000000002,39.300000000000004,16
1003,16931.0,1.4000000000000001,-0.9,-2.9000000000000004,0.30000000000000004,3.8000000000000003,5.6000000000000005,22.700000000000003,-18.6,33.1,16
1004,16952.0,1.2000000000000002,-0.8,-1.5,0.2,4.0,7.1000000000000005,3.5,-20.5,13.000000000000002,16
1005,16964.0,0.9,-0.7000000000000001,-1.1,-0.1,4.1000000000000005,7.4,-0.30000000000000004,-18.3,6.0,16
1006,16997.0,0.30000000000000004,-0.30000000000000004,-1.0,-0.6000000000000001,4.5,7.5,-20.7,-3.0,-11.900000000000002,16
1007,17013.0,0.30000000000000004,-0.2,-1.1,-0.7000000000000001,4.6000000000000005,7.9,-30.3,2.4000000000000004,-16.5,16
1008,17029.0,0.2,0.0,-0.30000000000000004,-0.9,4.6000000000000005,9.0,-57.9,7.699999999999999,-30.799999999999997,16
1009,17046.0,-0.4,-0.2,2.4000000000000004,-1.4000000000000001,4.3,11.100000000000001,-63.10000000000001,7.699999999999999,-34.0,16
1010,17063.0,-0.8,-0.1,3.2,-1.9000000000000001,4.1000000000000005,12.0,-55.1,14.200000000000001,-29.700000000000006,16
1011,17090.0,-0.4,0.8,2.5,-1.6,4.800000000000001,11.4,-54.6,5.500000000000001,-26.300000000000004,16
1012,17098.0,0.0,0.8,3.0,-1.2000000000000002,4.7,11.8,-65.89999999999999,-1.2000000000000002,-32.1,16
1013,17120.0,-1.1,-1.6,6.1000000000000005,-2.4000000000000004,2.0,15.100000000000001,-86.3,-1.0,-53.599999999999994,16
1014,17130.0,-1.1,-1.6,6.1000000000000005,-2.4000000000000004,2.0,15.100000000000001,-86.3,-1.0,-53.599999999999994,16
1015,17146.0,-2.3000000000000003,-2.5,6.1000000000000005,-3.6,0.8,15.200000000000001,-54.199999999999996,1.4,-33.9,16
1016,17166.0,-2.0,-2.4000000000000004,4.4,-3.4000000000000004,0.8,13.600000000000001,-23.3,-6.8,1.0,16
1017,17186.0,0.2,-1.8,2.6,-1.2000000000000002,1.3,11.9,-3.7000000000000006,-23.2,30.9,16
1018,17197.0,1.6,-1.5,2.0,0.30000000000000004,1.5,11.200000000000001,2.8,-28.400000000000002,39.2,16
1019,17213.0,2.7,-1.3,1.4000000000000001,1.5,1.8,10.700000000000001,6.2,-32.6,40.2,16
1020,17230.0,3.4000000000000004,-0.8,0.4,2.4000000000000004,2.4000000000000004,9.700000000000001,6.4,-26.5,16.900000000000002,16
1021,17246.0,3.1,-0.7000000000000001,0.30000000000000004,2.2,2.5,9.600000000000001,8.4,-20.0,11.4,16
1022,17263.0,2.5,-0.5,-0.7000000000000001,1.7000000000000002,2.7,8.6,23.400000000000002,-3.8,8.8,16
1023,17289.0,2.2,-0.1,-2.5,1.4000000000000001,3.2,6.7,43.50000000000001,6.2,7.699999999999999,16
1024,17296.0,2.0,0.2,-3.6,1.1,3.6,5.6000000000000005,52.300000000000004,5.6,3.9,16
1025,17313.0,1.4000000000000001,0.6000000000000001,-4.800000000000001,0.6000000000000001,4.1000000000000005,4.3,49.9,-5.0,-3.2,16
1026,17330.0,1.2000000000000002,0.6000000000000001,-5.1000000000000005,0.4,4.2,4.0,44.5,-11.6,-7.400000000000001,16
1027,17351.0,0.5,0.9,-4.4,-0.30000000000000004,4.6000000000000005,4.6000000000000005,24.0,-23.6,-18.5,16
1028,17363.0,0.5,0.8,-3.9000000000000004,-0.30000000000000004,4.6000000000000005,5.1000000000000005,18.5,-20.5,-21.1,16
1029,17385.0,0.2,0.8,-2.8000000000000003,-0.6000000000000001,4.7,6.2,11.5,-9.5,-28.0,16
1030,17398.0,-0.2,0.7000000000000001,-2.3000000000000003,-0.9,4.6000000000000005,6.7,11.000000000000002,-4.9,-32.1,16
1031,17418.0,-0.9,0.8,-1.6,-1.7000000000000002,4.7,7.4,13.000000000000002,-1.5,-34.7,16
1032,17430.0,-0.9,0.8,-1.6,-1.7000000000000002,4.7,7.4,12.100000000000001,-5.4,-33.7,16
1033,17447.0,-0.8,1.0,-1.1,-1.7000000000000002,4.9,7.800000000000001,9.100000000000001,-6.500000000000001,-33.2,16
1034,17463.0,-1.1,1.1,-0.30000000000000004,-2.0,5.0,8.6,0.30000000000000004,4.7,-34.900000000000006,16
1035,17488.0,-1.8,1.0,0.1,-2.8000000000000003,4.9,9.0,-2.9,14.700000000000001,-34.2,16
1036,17497.0,-2.1,1.0,0.2,-3.1,4.9,9.200000000000001,-4.2,15.2,-32.0,16
1037,17514.0,-2.2,0.8,0.6000000000000001,-3.3000000000000003,4.800000000000001,9.5,-9.0,6.4,-23.6,16
1038,17530.0,-1.9000000000000001,0.7000000000000001,1.1,-3.1,4.6000000000000005,10.0,-15.100000000000001,-3.0,-19.5,16
1039,17546.0,-1.4000000000000001,0.30000000000000004,2.9000000000000004,-2.6,4.2,11.8,-29.800000000000004,-19.5,-14.400000000000002,16
1040,17563.0,-1.3,0.2,4.800000000000001,-2.4000000000000004,3.9000000000000004,13.700000000000001,-26.400000000000006,-8.899999999999999,-6.4,16
1041,17587.0,-1.1,0.9,3.1,-2.2,4.6000000000000005,12.100000000000001,-0.8,15.5,7.400000000000001,16
1042,17603.0,-0.6000000000000001,1.0,2.2,-1.7000000000000002,4.6000000000000005,11.200000000000001,-11.3,-6.4,6.2,16
1043,17613.0,-0.6000000000000001,1.0,2.2,-1.7000000000000002,4.6000000000000005,11.200000000000001,-11.3,-6.4,6.2,16
1044,17632.0,-0.30000000000000004,-0.8,4.4,-1.4000000000000001,2.9000000000000004,13.5,-13.900000000000002,-29.500000000000004,0.0,16
1045,17646.0,-0.4,-1.1,4.5,-1.4000000000000001,2.5,13.600000000000001,-2.9,-29.900000000000006,1.5,16
1046,17663.0,-0.4,-1.3,3.0,-1.4000000000000001,2.3000000000000003,12.100000000000001,19.200000000000003,-15.5,9.5,16
1047,17681.0,-0.1,-1.0,0.8,-1.0,2.6,9.9,26.400000000000006,5.8,14.0,16
1048,17700.0,-0.1,-1.0,-0.30000000000000004,-0.9,2.7,8.8,24.3,13.200000000000003,13.399999999999999,16
1049,17713.0,0.0,-1.2000000000000002,-1.7000000000000002,-0.9,2.6,7.300000000000001,8.0,11.700000000000001,8.100000000000001,16
1050,17730.0,-0.30000000000000004,-1.5,-1.8,-1.2000000000000002,2.3000000000000003,7.1000000000000005,-4.1,8.100000000000001,4.0,16
1051,17757.0,-1.2000000000000002,-2.5,-1.0,-2.2,1.2000000000000002,8.0,-28.3,9.899999999999999,0.6000000000000001,16
1052,17763.0,-1.5,-2.6,-1.0,-2.5,1.0,8.1,-26.400000000000006,13.8,7.500000000000001,16
1053,17784.0,-1.6,-2.6,-1.3,-2.6,1.0,7.7,-13.6,15.299999999999999,25.6,16
1054,17797.0,-1.2000000000000002,-2.4000000000000004,-1.8,-2.2,1.2000000000000002,7.300000000000001,-6.2,13.000000000000002,35.599999999999994,16
1055,17814.0,-0.6000000000000001,-2.1,-2.2,-1.6,1.5,6.800000000000001,0.30000000000000004,8.3,43.00000000000001,16
1056,17839.0,0.0,-1.5,-2.9000000000000004,-0.7000000000000001,2.2,6.0,13.100000000000001,-15.6,49.1,16
1057,17847.0,0.2,-1.3,-3.0,-0.6000000000000001,2.3000000000000003,6.1000000000000005,14.700000000000001,-21.0,50.1,16
1058,17866.0,0.30000000000000004,-1.2000000000000002,-2.8000000000000003,-0.4,2.5,6.300000000000001,18.4,-19.700000000000003,53.300000000000004,16
1059,17882.0,0.2,-1.2000000000000002,-2.8000000000000003,-0.1,2.7,6.300000000000001,20.0,-16.700000000000003,55.1,16
1060,17896.0,0.2,-1.2000000000000002,-2.8000000000000003,-0.1,2.7,6.300000000000001,20.0,-16.700000000000003,55.1,16
1061,17913.0,1.1,-0.2,-2.6,0.6000000000000001,3.7,6.4,16.3,-8.700000000000001,49.6,16
1062,17929.0,1.6,0.2,-2.2,1.2000000000000002,4.2,6.800000000000001,2.3,-11.5,32.0,16
1063,17946.0,1.3,0.4,-0.8,1.0,4.3,8.200000000000001,-14.300000000000002,-6.500000000000001,8.2,16
1064,17964.0,0.2,-0.1,0.30000000000000004,-0.1,3.8000000000000003,9.4,-22.000000000000004,7.1000000000000005,-8.700000000000001,16
1065,17992.0,-0.4,0.0,1.3,-0.8,3.8000000000000003,10.3,-22.5,4.2,-9.4,16
1066,17996.0,-0.4,0.0,1.3,-0.8,3.8000000000000003,10.3,-22.5,4.2,-9.4,16
1067,18013.0,0.1,0.2,1.6,-0.30000000000000004,3.9000000000000004,10.600000000000001,-22.3,-4.1,-9.2,16
1068,18031.0,0.8,0.4,2.2,0.5,3.8000000000000003,11.8,-32.8,-15.399999999999999,-19.700000000000003,16
1069,18051.0,0.5,0.1,3.4000000000000004,-0.4,3.4000000000000004,13.4,-40.5,-3.6000000000000005,-25.5,16
1070,18063.0,-0.2,0.0,4.9,-0.6000000000000001,3.4000000000000004,14.100000000000001,-36.1,6.699999999999999,-21.6,16
1071,18080.0,0.4,0.8,3.0,0.0,4.1000000000000005,12.200000000000001,-7.1000000000000005,18.4,-9.8,16
1072,18097.0,0.7000000000000001,1.2000000000000002,1.8,0.2,4.5,11.0,-7.8,8.2,-12.8,16
1073,18114.0,1.0,1.4000000000000001,1.2000000000000002,0.7000000000000001,4.1000000000000005,11.0,-37.7,-8.100000000000001,-28.400000000000002,16
1074,18132.0,0.8,0.0,3.1,0.30000000000000004,3.2,12.4,-54.1,-6.1000000000000005,-38.0,16
1075,18147.0,-0.6000000000000001,-1.5,5.4,-1.2000000000000002,1.5,14.700000000000001,-55.900000000000006,10.5,-41.800000000000004,16
1076,18163.0,-2.0,-1.8,5.1000000000000005,-2.6,1.0,14.5,-22.3,19.799999999999997,-24.7,16
1077,18180.0,-1.7000000000000002,-1.7000000000000002,2.7,-2.4000000000000004,1.1,12.100000000000001,18.1,4.4,2.9,16
1078,18205.0,0.1,-1.4000000000000001,0.4,-0.6000000000000001,1.4000000000000001,9.8,39.300000000000004,-28.0,26.300000000000004,16
1079,18218.0,1.4000000000000001,-1.1,-0.30000000000000004,0.8,1.9000000000000001,9.1,39.9,-42.1,33.400000000000006,16
1080,18230.0,2.2,-1.0,-0.5,2.3000000000000003,2.1,8.8,27.800000000000004,-51.0,24.400000000000002,16
1081,18246.0,2.8000000000000003,-1.0,-0.5,2.5,2.1,8.8,23.6,-42.7,15.2,16
1082,18263.0,1.9000000000000001,-1.2000000000000002,-1.1,1.7000000000000002,2.0,8.200000000000001,21.500000000000004,-9.100000000000001,1.5,16
1083,18281.0,1.1,-1.3,-2.1,0.9,2.0,7.1000000000000005,24.7,17.300000000000004,-5.1000000000000005,16
1084,18296.0,0.6000000000000001,-1.2000000000000002,-2.6,0.4,2.1,6.6000000000000005,27.2,22.5,-6.699999999999999,16
1085,18314.0,-0.1,-1.2000000000000002,-3.3000000000000003,-0.4,2.1,5.9,33.400000000000006,22.2,-6.8,16
1086,18329.0,-0.2,-1.3,-3.6,-0.5,2.2,5.6000000000000005,36.7,18.3,-4.9,16
1087,18349.0,-0.2,-0.8,-4.6000000000000005,-0.6000000000000001,2.8000000000000003,4.5,39.300000000000004,4.5,0.2,16
1088,18366.0,-0.1,-0.7000000000000001,-4.7,-0.5,3.0,4.3,36.1,5.1000000000000005,-0.7,16
1089,18381.0,-0.1,-0.5,-4.9,-0.5,3.2,4.2,27.2,9.5,-3.0,16
1090,18396.0,-0.30000000000000004,-0.2,-4.2,-0.7000000000000001,3.6,4.9,8.8,12.200000000000001,-7.6,16
1091,18413.0,-0.4,-0.2,-3.3000000000000003,-0.8,3.6,5.800000000000001,2.1,11.3,-8.5,16
1092,18430.0,-0.1,0.1,-1.7000000000000002,-0.6000000000000001,4.0,7.300000000000001,2.8,0.30000000000000004,-10.4,16
1093,18446.0,-0.1,0.4,-1.6,-0.6000000000000001,4.2,7.4,2.4000000000000004,-2.6,-12.8,16
1094,18463.0,-0.5,0.4,-1.0,-1.1,4.2,8.1,-5.300000000000001,1.4,-18.5,16
1095,18487.0,-1.1,0.4,-0.1,-1.7000000000000002,4.2,8.9,-13.3,16.900000000000002,-18.900000000000002,16
1096,18497.0,-1.5,0.5,0.1,-2.1,4.3,9.1,-15.000000000000002,23.900000000000006,-17.5,16
1097,18513.0,-1.7000000000000002,0.6000000000000001,0.30000000000000004,-2.4000000000000004,4.3,9.4,-18.200000000000003,27.2,-11.2,16
1098,18530.0,-1.7000000000000002,0.7000000000000001,0.7000000000000001,-2.4000000000000004,4.4,9.700000000000001,-20.2,24.3,-7.6,16
1099,18546.0,-1.0,0.5,1.4000000000000001,-1.8,4.2,10.4,-25.8,4.800000000000001,0.9000000000000001,16
1100,18564.0,0.0,0.4,3.0,-0.9,4.0,12.100000000000001,-30.000000000000004,-9.5,5.300000000000001,16
1101,18581.0,0.0,0.5,3.0,-0.5,4.2,12.600000000000001,-20.900000000000002,9.0,7.200000000000001,16
1102,18597.0,0.30000000000000004,1.2000000000000002,2.6,-0.5,4.6000000000000005,11.700000000000001,-17.400000000000002,15.2,6.300000000000001,16
1103,18615.0,0.30000000000000004,1.4000000000000001,1.8,-0.6000000000000001,4.800000000000001,10.9,-22.6,14.5,2.5,16
1104,18630.0,0.1,-0.5,4.0,-0.9,2.7,13.200000000000001,-59.00000000000001,-9.100000000000001,-18.5,16
1105,18646.0,-0.30000000000000004,-1.4000000000000001,5.2,-1.2000000000000002,1.7000000000000002,14.5,-59.9,-14.700000000000001,-20.5,16
1106,18663.0,-1.1,-2.0,5.5,-1.9000000000000001,1.0,14.8,-31.799999999999997,-5.500000000000001,-9.3,16
1107,18681.0,-0.7000000000000001,-1.2000000000000002,2.6,-1.6,1.7000000000000002,12.0,14.200000000000001,7.300000000000001,18.6,16
1108,18702.0,0.30000000000000004,-0.4,-0.1,-0.6000000000000001,2.5,9.200000000000001,22.1,3.4,27.2,16
1109,18719.0,1.1,-0.1,-1.6,0.2,2.9000000000000004,7.7,7.1000000000000005,-8.2,20.2,16
1110,18730.0,1.1,-0.1,-1.6,0.2,2.9000000000000004,7.7,7.1000000000000005,-8.2,20.2,16
1111,18747.0,1.2000000000000002,-0.30000000000000004,-1.3,0.4,2.7,8.0,-16.4,-14.300000000000002,7.1000000000000005,16
1112,18763.0,1.2000000000000002,-0.30000000000000004,-1.3,0.0,2.5,8.700000000000001,-16.4,-14.300000000000002,7.1000000000000005,16
1113,18780.0,-0.4,-0.7000000000000001,-0.30000000000000004,-1.2000000000000002,2.2,9.0,-17.5,2.9,2.1,16
1114,18796.0,-0.7000000000000001,-0.6000000000000001,-0.5,-1.5,2.2,8.8,-9.600000000000001,4.300000000000001,6.0,16
1115,18813.0,-0.8,-0.5,-0.9,-1.5,2.3000000000000003,8.5,0.1,2.6,10.9,16
1116,18829.0,-0.4,0.1,-2.8000000000000003,-1.2000000000000002,3.0,6.6000000000000005,23.099999999999998,-3.0,24.5,16
1117,18846.0,-0.30000000000000004,0.2,-3.2,-1.0,3.1,6.2,24.599999999999998,-13.100000000000001,25.5,16
1118,18863.0,-0.4,0.1,-2.9000000000000004,-1.0,3.1,6.5,21.0,-25.5,25.200000000000003,16
1119,18883.0,-0.4,-0.2,-2.0,-0.9,2.8000000000000003,7.300000000000001,22.4,-27.9,26.400000000000006,16
1120,18899.0,-0.30000000000000004,-0.30000000000000004,-1.6,-0.7000000000000001,2.9000000000000004,7.7,27.3,-21.7,28.1,16
1121,18913.0,-0.2,-0.2,-1.3,-0.6000000000000001,3.0,7.9,30.1,-18.200000000000003,28.1,16
1122,18930.0,-0.1,-0.1,-1.2000000000000002,-0.4,3.1,8.0,33.300000000000004,-16.3,26.300000000000004,16
1123,18947.0,-0.2,-0.1,-1.5,-0.4,3.2,7.800000000000001,38.2,-14.100000000000001,18.0,16
1124,18963.0,-0.30000000000000004,-0.30000000000000004,-1.3,-0.5,3.2,7.9,33.400000000000006,-15.8,10.1,16
1125,18986.0,-0.4,-0.4,-0.9,-0.5,3.1,8.700000000000001,24.900000000000002,-15.6,4.300000000000001,16
1126,18997.0,-0.4,-0.5,-0.4,-0.4,3.1,9.1,19.9,-13.8,1.3,16
1127,19013.0,-0.30000000000000004,-0.5,0.1,-0.30000000000000004,3.1,9.200000000000001,16.700000000000003,-11.900000000000002,-1.1,16
1128,19029.0,0.30000000000000004,-0.6000000000000001,0.6000000000000001,0.2,3.1,9.700000000000001,6.600000000000001,-10.0,-7.0,16
1129,19046.0,0.7000000000000001,-0.8,0.9,0.7000000000000001,2.9000000000000004,10.0,-5.2,-3.3000000000000007,-17.9,16
1130,19063.0,0.6000000000000001,-1.0,1.4000000000000001,0.6000000000000001,2.7,10.5,-20.0,4.4,-29.0,16
1131,19079.0,-0.1,-0.9,2.4000000000000004,-0.2,2.7,11.600000000000001,-28.700000000000003,19.0,-31.799999999999997,16
1132,19098.0,-0.1,-0.8,2.1,-0.30000000000000004,2.7,11.3,-24.7,28.900000000000002,-28.600000000000005,16
1133,19113.0,0.0,-0.4,1.3,-0.4,3.4000000000000004,10.0,-23.0,21.0,-25.1,16
1134,19130.0,0.0,0.30000000000000004,0.6000000000000001,-0.30000000000000004,3.7,9.700000000000001,-30.1,9.8,-25.7,16
1135,19146.0,0.7000000000000001,-0.2,1.8,0.4,3.1,11.100000000000001,-63.8,-9.600000000000001,-36.9,16
1136,19163.0,-0.30000000000000004,-1.2000000000000002,4.2,-0.6000000000000001,1.8,13.5,-77.20000000000002,1.7,-43.900000000000006,16
1137,19180.0,-1.8,-1.9000000000000001,5.300000000000001,-2.3000000000000003,0.9,14.700000000000001,-56.6,19.300000000000004,-31.7,16
1138,19201.0,-2.4000000000000004,-1.8,4.1000000000000005,-2.9000000000000004,0.9,13.5,-17.5,14.400000000000002,-3.4,16
1139,19214.0,-2.4000000000000004,-1.8,4.1000000000000005,-2.9000000000000004,0.9,13.5,-17.5,14.400000000000002,-3.4,16
1140,19230.0,-1.0,-1.5,2.0,-0.30000000000000004,1.3,10.8,17.5,-27.2,36.8,16
1141,19247.0,1.4000000000000001,-1.2000000000000002,1.1,0.9,1.5,10.5,20.599999999999998,-36.5,43.00000000000001,16
1142,19265.0,2.8000000000000003,-0.9,0.5,2.5,1.9000000000000001,9.9,22.3,-33.6,36.7,16
1143,19283.0,2.1,-0.9,-0.4,2.0,2.0,8.9,17.799999999999997,-2.2,19.300000000000004,16
1144,19300.0,1.1,-0.9,-1.2000000000000002,1.0,2.0,8.200000000000001,9.4,35.9,8.5,16
