,ms,accelX,accelY,accelZ,accelWithGX,accelWithGY,accelWithGZ,rotRateAlpha,rotRateBeta,rotRateGamma,interval
0,101.0,0.0,0.0,0.0,-0.2,2.4000000000000004,10.9,0.30000000000000004,-19.700000000000003,6.300000000000001,16
1,117.0,0.0,0.0,0.0,-0.2,2.4000000000000004,10.9,0.30000000000000004,-19.700000000000003,6.300000000000001,16
2,134.0,0.0,-0.1,-0.5,0.0,2.4000000000000004,10.100000000000001,0.30000000000000004,-19.700000000000003,6.300000000000001,16
3,150.0,-0.2,-0.1,-0.4,0.0,2.4000000000000004,10.100000000000001,0.30000000000000004,-19.700000000000003,6.300000000000001,16
4,165.0,-0.5,-0.4,-0.6000000000000001,-0.6000000000000001,1.9000000000000001,9.600000000000001,-11.1,-2.0,3.0,16
5,182.0,-0.5,-0.30000000000000004,-0.7000000000000001,-0.6000000000000001,1.9000000000000001,9.600000000000001,-11.000000000000002,5.500000000000001,6.9,16
6,205.0,0.0,0.0,-0.9,-0.2,2.2,9.1,-12.8,14.5,11.2,16
7,242.0,1.1,0.30000000000000004,-1.2000000000000002,0.7000000000000001,2.5,8.5,-21.0,16.6,0.30000000000000004,16
8,249.0,1.1,0.30000000000000004,-1.2000000000000002,0.7000000000000001,2.5,8.5,-21.0,16.6,0.30000000000000004,16
9,265.0,2.4000000000000004,-0.6000000000000001,-0.9,2.8000000000000003,1.3,8.5,-33.800000000000004,29.200000000000003,-23.2,16
10,283.0,0.8,0.30000000000000004,-0.4,0.2,2.2,9.5,-51.4,48.400000000000006,-47.400000000000006,16
11,303.0,-0.1,0.8,-0.1,-0.9,2.3000000000000003,9.600000000000001,-66.7,68.9,-58.7,16
12,315.0,-0.6000000000000001,0.8,0.1,-0.9,2.3000000000000003,9.600000000000001,-76.0,82.7,-62.0,16
13,338.0,-1.1,0.4,0.7000000000000001,-2.3000000000000003,1.2000000000000002,10.600000000000001,-76.5,87.60000000000001,-60.6,16
14,351.0,-0.9,-0.2,0.9,-2.4000000000000004,0.5,10.5,-67.2,86.89999999999999,-55.1,16
15,366.0,-0.9,-0.5,0.7000000000000001,-2.4000000000000004,0.5,10.5,-52.300000000000004,78.10000000000001,-49.6,16
16,385.0,-1.5,0.1,0.30000000000000004,-2.9000000000000004,0.6000000000000001,10.200000000000001,-35.2,63.0,-41.800000000000004,16
17,399.0,-2.0,1.1,0.30000000000000004,-4.0,2.0,9.9,-19.400000000000002,47.80000000000001,-28.600000000000005,16
18,417.0,-1.7000000000000002,1.1,-0.30000000000000004,-3.8000000000000003,1.7000000000000002,9.1,-5.0,36.8,-13.100000000000001,16
19,433.0,-1.3,0.7000000000000001,-0.9,-3.8000000000000003,1.7000000000000002,9.1,4.4,26.6,2.0,16
20,450.0,-0.30000000000000004,0.1,-1.2000000000000002,-3.1,1.1,8.5,5.1000000000000005,8.600000000000001,6.600000000000001,16
21,465.0,-0.6000000000000001,0.1,-0.9,-2.8000000000000003,1.0,8.9,4.1,-7.699999999999999,7.500000000000001,16
22,485.0,-0.2,0.0,0.2,-2.4000000000000004,1.0,9.700000000000001,1.1,-13.000000000000002,15.100000000000001,16
23,500.0,0.0,0.2,0.0,-2.4000000000000004,1.0,9.700000000000001,1.1,-13.000000000000002,15.100000000000001,16
24,518.0,0.2,0.5,-0.30000000000000004,-2.1,1.5,9.1,1.6,-6.699999999999999,16.700000000000003,16
25,534.0,0.6000000000000001,0.4,-1.0,-1.4000000000000001,1.3,8.200000000000001,1.8000000000000003,-2.0,16.5,16
26,549.0,1.0,0.2,-1.5,-1.4000000000000001,1.3,8.200000000000001,-0.1,-3.7000000000000006,13.399999999999999,16
27,565.0,-1.1,0.4,-0.4,-2.7,1.5,8.700000000000001,1.7,-20.599999999999998,9.600000000000001,16
28,582.0,-0.30000000000000004,0.2,-0.6000000000000001,-2.1,1.4000000000000001,9.200000000000001,6.9,-28.500000000000004,16.8,16
29,599.0,0.0,0.2,-0.1,-2.1,1.4000000000000001,9.200000000000001,9.600000000000001,-38.7,20.1,16
30,615.0,-0.1,0.1,0.30000000000000004,-1.9000000000000001,1.3,9.700000000000001,11.1,-38.50000000000001,19.0,16
31,632.0,-0.2,0.1,0.9,-1.9000000000000001,1.3,11.0,8.0,-33.1,19.5,16
32,650.0,-0.1,0.0,2.1,-1.7000000000000002,1.2000000000000002,11.8,7.300000000000001,-32.6,20.0,16
33,665.0,-0.1,-0.2,2.2,-1.7000000000000002,1.2000000000000002,11.8,12.600000000000001,-32.400000000000006,18.8,16
34,682.0,0.0,-0.4,1.9000000000000001,-1.3,1.1,11.5,14.900000000000002,-25.8,19.200000000000003,16
35,700.0,0.4,-0.1,1.4000000000000001,-0.9,1.4000000000000001,11.0,13.5,-17.799999999999997,20.3,16
36,717.0,0.6000000000000001,0.0,1.0,-0.9,1.4000000000000001,11.0,15.000000000000002,-17.9,19.6,16
37,733.0,0.5,-0.30000000000000004,-0.1,-0.7000000000000001,1.3,10.100000000000001,20.8,-28.800000000000004,14.900000000000002,16
38,750.0,0.0,-1.1,-0.5,-1.0,0.30000000000000004,9.4,25.7,-45.7,11.8,16
39,766.0,-0.1,-1.4000000000000001,-0.4,-1.0,0.30000000000000004,9.4,28.0,-58.2,14.300000000000002,16
40,783.0,0.2,-1.8,0.4,-0.7000000000000001,-0.1,10.0,26.400000000000006,-58.800000000000004,20.400000000000002,16
41,798.0,0.9,-1.6,1.0,0.5,0.4,10.700000000000001,19.799999999999997,-39.50000000000001,24.200000000000003,16
42,815.0,1.0,-0.9,0.4,0.4,0.9,10.0,11.6,-15.6,20.7,16
43,832.0,1.0,-0.6000000000000001,-0.1,0.4,0.9,10.0,6.2,-6.2,16.0,16
44,848.0,0.9,-0.5,-0.30000000000000004,0.5,1.2000000000000002,9.5,6.500000000000001,-18.6,10.9,16
45,865.0,0.6000000000000001,-0.7000000000000001,0.2,0.5,0.9,10.3,11.5,-38.900000000000006,6.2,16
46,882.0,0.6000000000000001,-0.9,0.5,0.5,0.9,10.3,17.799999999999997,-53.7,4.5,16
47,898.0,0.8,-1.0,1.0,0.8,0.8,10.8,22.000000000000004,-57.49999999999999,4.1,16
48,915.0,0.9,-0.7000000000000001,0.9,1.5,1.2000000000000002,10.8,23.900000000000006,-50.3,1.5,16
49,932.0,1.2000000000000002,-0.6000000000000001,0.9,1.5,1.2000000000000002,10.8,23.700000000000003,-37.7,-2.5,16
50,948.0,1.5,-0.6000000000000001,0.30000000000000004,1.9000000000000001,1.3,10.3,23.900000000000006,-28.500000000000004,-10.0,16
51,965.0,1.0,-1.0,0.0,1.7000000000000002,1.1,9.9,25.5,-26.700000000000003,-17.799999999999997,16
52,982.0,0.6000000000000001,-1.1,-0.1,1.2000000000000002,1.1,9.600000000000001,28.200000000000003,-26.300000000000004,-21.500000000000004,16
53,998.0,0.5,-1.0,-0.30000000000000004,1.2000000000000002,1.1,9.600000000000001,32.8,-29.700000000000006,-25.0,16
54,1015.0,0.2,-1.0,-0.7000000000000001,1.1,1.3,9.200000000000001,38.60000000000001,-38.50000000000001,-29.800000000000004,16
55,1032.0,-0.1,-1.0,-0.9,0.9,1.5,8.700000000000001,41.0,-46.0,-33.1,16
56,1051.0,-0.1,-0.8,-1.0,1.0,1.8,8.5,40.800000000000004,-48.300000000000004,-34.400000000000006,16
57,1069.0,-0.5,-1.0,-1.5,0.7000000000000001,1.7000000000000002,7.9,30.3,-43.800000000000004,-34.1,16
58,1084.0,-0.4,-0.9,-1.8,0.7000000000000001,1.7000000000000002,7.9,30.3,-43.800000000000004,-34.1,16
59,1101.0,-0.5,-0.8,-2.1,0.9,2.1,7.4,16.5,-41.6,-29.700000000000006,16
60,1116.0,-0.5,-0.5,-2.0,0.9,2.1,7.4,1.5,-39.9,-25.200000000000003,16
61,1132.0,-0.7000000000000001,-0.2,-1.6,0.8,2.3000000000000003,7.7,-10.600000000000001,-35.8,-19.6,16
62,1149.0,-1.1,0.4,-0.9,0.2,3.1,8.700000000000001,-16.1,-29.300000000000004,-12.100000000000001,16
63,1165.0,-1.4000000000000001,0.6000000000000001,-0.5,0.0,3.1,9.0,-15.100000000000001,-21.7,-6.4,16
64,1182.0,-1.5,0.5,-0.30000000000000004,0.0,3.1,9.0,-9.100000000000001,-14.300000000000002,-0.9000000000000001,16
65,1199.0,-1.4000000000000001,0.2,-0.2,0.1,2.9000000000000004,9.200000000000001,-0.7,-4.6,5.4,16
66,1215.0,-1.4000000000000001,0.2,-0.4,0.6000000000000001,2.8000000000000003,8.9,6.300000000000001,9.2,11.4,16
67,1233.0,-0.7000000000000001,0.2,-0.5,0.6000000000000001,2.8000000000000003,8.9,10.5,18.3,17.9,16
68,1250.0,-0.30000000000000004,0.4,-0.30000000000000004,1.0,2.9000000000000004,9.0,12.9,22.6,20.1,16
69,1266.0,0.2,0.7000000000000001,0.0,1.3,3.4000000000000004,9.200000000000001,14.5,30.699999999999996,19.5,16
70,1282.0,0.1,0.7000000000000001,-0.1,1.3,3.4000000000000004,9.200000000000001,18.1,38.2,14.400000000000002,16
71,1298.0,-0.30000000000000004,0.6000000000000001,-0.5,0.9,3.4000000000000004,8.9,22.000000000000004,40.6,10.5,16
72,1315.0,-0.5,0.5,-1.0,0.5,3.4000000000000004,8.5,22.000000000000004,39.400000000000006,9.700000000000001,16
73,1332.0,-0.7000000000000001,0.2,-0.7000000000000001,0.30000000000000004,3.1,8.8,18.5,35.4,11.2,16
74,1348.0,-0.5,0.1,-0.4,0.30000000000000004,3.1,8.8,13.3,32.0,15.2,16
75,1365.0,0.0,0.1,0.30000000000000004,0.6000000000000001,3.0,9.4,9.100000000000001,30.3,19.400000000000002,16
76,1382.0,-0.1,-0.1,1.8,0.7000000000000001,2.7,11.3,9.8,13.399999999999999,21.6,16
77,1399.0,-0.1,-0.4,2.1,1.8,3.8000000000000003,10.600000000000001,14.100000000000001,9.3,24.200000000000003,16
78,1415.0,1.2000000000000002,0.9,1.8,1.8,3.8000000000000003,10.600000000000001,13.3,8.899999999999999,21.200000000000003,16
79,1432.0,0.5,-0.1,0.9,1.5,3.2,10.8,8.100000000000001,15.000000000000002,15.5,16
80,1448.0,0.4,0.30000000000000004,2.3000000000000003,1.1,3.3000000000000003,11.8,-0.8,14.400000000000002,13.6,16
81,1465.0,0.4,0.2,2.5,1.1,3.3000000000000003,11.8,-8.100000000000001,19.5,11.5,16
82,1482.0,0.2,-0.1,3.1,0.9,3.0,12.3,-13.5,24.0,10.1,16
83,1498.0,-0.1,-0.5,3.8000000000000003,0.4,2.2,13.5,-13.700000000000001,24.1,9.899999999999999,16
84,1516.0,-0.2,-0.8,4.0,0.4,2.2,13.5,-5.7,22.9,12.7,16
85,1532.0,-0.30000000000000004,-1.3,3.7,0.2,1.7000000000000002,13.4,9.3,24.1,18.3,16
86,1549.0,-0.2,-1.7000000000000002,2.1,0.2,1.4000000000000001,12.3,25.300000000000004,27.700000000000003,25.6,16
87,1565.0,0.0,-1.5,0.30000000000000004,0.5,1.8,9.200000000000001,36.0,28.400000000000002,31.6,16
88,1583.0,0.2,-1.4000000000000001,-0.5,0.5,1.8,9.200000000000001,37.800000000000004,26.400000000000006,34.1,16
89,1599.0,0.6000000000000001,-1.1,-1.5,0.7000000000000001,2.0,8.1,29.900000000000006,21.900000000000002,32.8,16
90,1616.0,0.7000000000000001,-1.0,-1.0,1.0,2.2,8.6,17.1,16.5,28.400000000000002,16
91,1632.0,0.7000000000000001,-1.1,-0.8,1.0,2.2,8.6,7.0,12.4,22.8,16
92,1649.0,0.5,-1.3,-0.7000000000000001,0.9,2.0,8.8,1.5,7.200000000000001,18.4,16
93,1674.0,0.4,-1.4000000000000001,-0.4,0.8,1.9000000000000001,9.0,1.5,-10.5,12.600000000000001,16
94,1682.0,0.4,-1.5,-0.4,0.9,1.7000000000000002,9.1,1.5,-10.5,12.600000000000001,16
95,1698.0,0.5,-1.6,-0.30000000000000004,0.9,1.7000000000000002,9.1,7.400000000000001,-16.700000000000003,12.0,16
96,1716.0,0.30000000000000004,-1.8,-0.7000000000000001,0.9,1.5,8.9,14.400000000000002,-17.5,11.5,16
97,1737.0,-0.1,-2.1,-1.6,0.2,1.3,7.300000000000001,15.700000000000001,-10.600000000000001,11.000000000000002,16
98,1749.0,-0.1,-1.8,-1.8,0.4,1.5,7.800000000000001,1.5,8.3,11.000000000000002,16
99,1766.0,0.0,-1.8,-1.3,0.4,1.5,7.800000000000001,-9.2,13.200000000000003,16.8,16
100,1783.0,0.1,-1.1,-0.9,0.9,2.3000000000000003,8.1,-0.7,8.700000000000001,23.400000000000002,16
101,1799.0,0.6000000000000001,-0.9,-1.7000000000000002,1.0,2.3000000000000003,7.300000000000001,9.8,5.500000000000001,24.5,16
102,1815.0,0.5,-1.0,-2.1,1.0,2.3000000000000003,7.300000000000001,15.100000000000001,2.3,21.200000000000003,16
103,1832.0,0.5,-0.9,-2.4000000000000004,1.0,2.3000000000000003,6.9,15.100000000000001,-3.7000000000000006,20.8,16
104,1848.0,0.7000000000000001,-0.6000000000000001,-2.4000000000000004,1.4000000000000001,2.8000000000000003,6.9,12.100000000000001,-8.2,19.1,16
105,1865.0,0.8,-0.5,-2.3000000000000003,1.4000000000000001,2.8000000000000003,6.9,6.699999999999999,-11.1,14.600000000000001,16
106,1882.0,0.6000000000000001,-0.5,-1.9000000000000001,1.4000000000000001,2.8000000000000003,7.1000000000000005,0.6000000000000001,-12.200000000000001,9.2,16
107,1898.0,0.5,-0.5,-1.7000000000000002,1.2000000000000002,2.8000000000000003,7.6000000000000005,-3.2,-11.5,5.1000000000000005,16
108,1915.0,0.30000000000000004,-0.5,-1.6,0.9,2.7,7.5,-3.9,-11.1,1.9,16
109,1932.0,0.1,-0.5,-1.7000000000000002,0.9,2.7,7.5,-3.1,-10.0,-0.6000000000000001,16
110,1949.0,-0.2,-0.5,-2.4000000000000004,0.7000000000000001,2.7,7.0,-5.500000000000001,-6.9,-2.0,16
111,1966.0,-0.6000000000000001,-0.5,-2.6,0.4,2.6,6.4,-9.899999999999999,-12.5,-2.0,16
112,1983.0,-0.5,-0.5,-2.7,0.4,2.6,6.4,-13.3,-27.6,1.0,16
113,2000.0,0.30000000000000004,-0.4,-1.9000000000000001,1.1,2.7,6.9,-17.799999999999997,-45.7,3.1,16
114,2019.0,0.8,-0.30000000000000004,-1.2000000000000002,2.4000000000000004,2.6,8.0,-22.3,-60.900000000000006,1.6,16
115,2034.0,1.2000000000000002,-0.5,-0.9,2.9000000000000004,2.2,8.200000000000001,-29.200000000000003,-74.7,0.5,16
116,2048.0,1.2000000000000002,-0.7000000000000001,-0.8,2.9000000000000004,2.2,8.200000000000001,-40.2,-89.8,1.2000000000000002,16
117,2065.0,1.2000000000000002,-0.8,0.1,3.1,1.9000000000000001,8.700000000000001,-54.6,-106.80000000000001,5.4,16
118,2082.0,1.8,-0.1,1.8,4.5,2.3000000000000003,11.600000000000001,-65.3,-122.79999999999998,7.400000000000001,16
119,2099.0,1.8,0.0,2.8000000000000003,4.5,2.3000000000000003,11.600000000000001,-75.5,-132.4,0.9000000000000001,16
120,2115.0,2.0,-0.2,5.5,5.0,2.0,13.9,-81.4,-129.5,-7.6,16
121,2132.0,1.2000000000000002,-0.9,7.1000000000000005,4.0,0.5,16.8,-83.30000000000001,-113.4,-13.900000000000002,16
122,2148.0,0.5,-1.2000000000000002,7.9,3.3000000000000003,-0.2,17.8,-80.30000000000001,-86.89999999999999,-10.299999999999999,16
123,2165.0,-0.5,-1.8,8.9,3.3000000000000003,-0.2,17.8,-65.4,-49.199999999999996,3.8,16
124,2182.0,-0.9,-1.9000000000000001,6.9,2.8000000000000003,-0.5,16.8,-32.8,-12.7,20.8,16
125,2199.0,-0.2,-1.0,3.4000000000000004,4.1000000000000005,0.8,11.100000000000001,6.9,-0.6000000000000001,34.400000000000006,16
126,2215.0,0.6000000000000001,-0.6000000000000001,1.7000000000000002,4.1000000000000005,0.8,11.100000000000001,40.7,-11.3,38.300000000000004,16
127,2232.0,1.6,0.0,-0.8,5.2,1.5,8.8,59.699999999999996,-31.9,32.7,16
128,2249.0,2.2,0.5,-1.9000000000000001,6.5,2.4000000000000004,6.800000000000001,60.900000000000006,-49.1,23.099999999999998,16
129,2268.0,2.7,0.4,-2.1,6.9,2.3000000000000003,7.0,50.7,-56.9,9.700000000000001,16
130,2286.0,1.5,0.5,-1.3,5.6000000000000005,2.4000000000000004,7.4,16.900000000000002,-38.0,-19.6,16
131,2299.0,0.7000000000000001,0.2,-1.3,5.6000000000000005,2.4000000000000004,7.4,16.900000000000002,-38.0,-19.6,16
132,2316.0,0.2,0.0,-0.9,4.4,1.9000000000000001,7.7,2.6,-17.400000000000002,-24.1,16
133,2334.0,-0.4,-0.4,-1.2000000000000002,4.0,1.4000000000000001,7.300000000000001,-3.3000000000000007,9.4,-30.1,16
134,2349.0,-0.4,-0.9,-1.6,4.0,1.4000000000000001,7.300000000000001,-3.3000000000000007,9.4,-30.1,16
135,2365.0,-1.6,-1.4000000000000001,-1.4000000000000001,2.2,1.0,7.300000000000001,-0.9000000000000001,14.0,-26.700000000000003,16
136,2387.0,-2.1,-1.0,-1.6,2.3000000000000003,1.2000000000000002,7.2,6.0,21.500000000000004,-15.899999999999999,16
137,2398.0,-1.9000000000000001,-0.9,-1.4000000000000001,2.3000000000000003,1.2000000000000002,7.2,18.700000000000003,14.800000000000002,-5.7,16
138,2415.0,-1.4000000000000001,-0.4,-0.9,2.7,1.8,7.6000000000000005,35.8,-0.7,0.7,16
139,2432.0,-1.2000000000000002,-0.5,-0.2,2.8000000000000003,2.1,7.800000000000001,55.400000000000006,-12.4,3.3000000000000007,16
140,2449.0,-1.5,-0.4,-0.8,2.8000000000000003,2.1,7.800000000000001,73.10000000000001,-13.200000000000003,6.0,16
141,2465.0,-1.2000000000000002,0.0,-3.1,3.0,2.6,5.800000000000001,78.7,-18.3,9.5,16
142,2482.0,-0.6000000000000001,0.5,-3.4000000000000004,4.3,3.8000000000000003,5.300000000000001,70.7,-29.500000000000004,9.700000000000001,16
143,2499.0,0.30000000000000004,0.9,-2.0,4.800000000000001,4.1000000000000005,6.300000000000001,60.400000000000006,-37.300000000000004,7.0,16
144,2515.0,0.30000000000000004,0.9,-1.6,4.800000000000001,4.1000000000000005,6.300000000000001,54.699999999999996,-37.2,0.5,16
145,2532.0,-0.4,0.8,-1.9000000000000001,4.5,4.2,6.2,49.4,-32.6,-5.1000000000000005,16
146,2548.0,-0.9,0.7000000000000001,-2.1,3.8000000000000003,4.3,6.0,39.699999999999996,-30.5,-5.0,16
147,2565.0,-0.9,0.9,-1.7000000000000002,3.8000000000000003,4.3,6.0,29.0,-31.9,-1.3,16
148,2582.0,-0.6000000000000001,1.0,-0.30000000000000004,4.1000000000000005,4.5,7.0,25.1,-39.8,3.2,16
149,2599.0,-0.2,1.2000000000000002,0.6000000000000001,5.2,4.9,8.6,28.500000000000004,-49.9,7.300000000000001,16
150,2617.0,0.6000000000000001,1.4000000000000001,1.8,6.1000000000000005,5.300000000000001,9.3,34.50000000000001,-61.599999999999994,11.900000000000002,16
151,2636.0,1.5,1.8,2.3000000000000003,7.0,5.7,9.5,45.400000000000006,-66.4,14.100000000000001,16
152,2649.0,1.8,2.0,2.3000000000000003,7.0,5.7,9.5,45.400000000000006,-66.4,14.100000000000001,16
153,2665.0,1.8,2.3000000000000003,1.9000000000000001,7.4,6.300000000000001,8.700000000000001,43.00000000000001,-57.1,10.600000000000001,16
154,2682.0,1.7000000000000002,2.3000000000000003,1.7000000000000002,7.4,6.300000000000001,8.700000000000001,35.9,-48.400000000000006,7.1000000000000005,16
155,2699.0,1.6,2.2,2.0,7.5,6.300000000000001,8.700000000000001,27.800000000000004,-45.6,6.1000000000000005,16
156,2716.0,1.8,1.8,3.7,8.0,5.800000000000001,11.3,25.200000000000003,-48.800000000000004,8.899999999999999,16
157,2734.0,2.1,1.4000000000000001,5.6000000000000005,8.4,5.5,12.200000000000001,34.60000000000001,-52.80000000000001,14.0,16
158,2748.0,2.3000000000000003,1.2000000000000002,5.7,8.4,5.5,12.200000000000001,55.900000000000006,-50.7,17.200000000000003,16
159,2766.0,1.7000000000000002,0.5,4.0,8.4,5.1000000000000005,11.200000000000001,77.00000000000001,-37.6,16.200000000000003,16
160,2782.0,0.0,-1.2000000000000002,2.1,6.9,5.300000000000001,7.800000000000001,84.9,-25.0,18.5,16
161,2799.0,0.6000000000000001,0.8,1.4000000000000001,6.9,5.300000000000001,7.800000000000001,83.89999999999999,-8.0,18.200000000000003,16
162,2817.0,-0.9,-0.8,-0.7000000000000001,6.1000000000000005,4.3,5.7,81.2,-5.6,12.5,16
163,2833.0,-1.7000000000000002,-1.1,0.30000000000000004,5.1000000000000005,3.6,6.5,77.60000000000001,-19.400000000000002,16.6,16
164,2850.0,-1.2000000000000002,-1.5,1.0,5.6000000000000005,3.5,6.6000000000000005,81.8,-31.0,26.6,16
165,2865.0,-1.0,-1.5,1.2000000000000002,5.6000000000000005,3.5,6.6000000000000005,91.90000000000002,-37.800000000000004,32.8,16
166,2883.0,-0.7000000000000001,-1.8,1.1,6.0,3.3000000000000003,6.9,102.60000000000001,-33.2,32.9,16
167,2900.0,-1.4000000000000001,-2.4000000000000004,-1.5,5.1000000000000005,2.6,2.6,106.5,-21.200000000000003,28.600000000000005,16
168,2916.0,-1.9000000000000001,-2.8000000000000003,-2.7,5.1000000000000005,2.6,2.6,97.40000000000002,-17.5,24.3,16
169,2937.0,-3.4000000000000004,-3.2,-3.1,4.0,2.2,1.6,79.19999999999999,-21.7,23.099999999999998,16
170,2949.0,-3.8000000000000003,-4.0,-2.6,3.0,1.0,1.8,66.0,-24.7,27.0,16
171,2967.0,-4.5,-4.5,-3.0,2.5,0.7000000000000001,1.0,59.5,-25.0,31.9,16
172,2982.0,-4.7,-4.5,-3.4000000000000004,2.5,0.7000000000000001,1.0,56.800000000000004,-28.700000000000003,36.6,16
173,2998.0,-4.4,-4.7,-3.6,3.1,0.5,0.9,53.9,-41.0,40.4,16
174,3015.0,-3.9000000000000004,-4.7,-1.9000000000000001,3.5,0.1,2.3000000000000003,52.900000000000006,-54.699999999999996,40.4,16
175,3032.0,-3.9000000000000004,-5.1000000000000005,-1.1,3.5,0.1,2.3000000000000003,59.00000000000001,-60.2,37.0,16
176,3049.0,-4.3,-6.0,-1.7000000000000002,3.2,-0.8,2.0,66.60000000000001,-51.0,38.300000000000004,16
177,3065.0,-5.1000000000000005,-6.1000000000000005,-3.5,2.0,-1.5,-1.2000000000000002,64.2,-46.800000000000004,43.2,16
178,3083.0,-5.7,-6.4,-4.3,2.0,-1.5,-1.2000000000000002,53.10000000000001,-48.50000000000001,54.1,16
179,3098.0,-4.5,-6.5,-4.7,2.7,-2.1,-2.1,39.8,-65.6,75.4,16
180,3115.0,-3.5,-6.6000000000000005,-2.3000000000000003,5.2,-2.4000000000000004,1.0,21.900000000000002,-67.60000000000001,85.5,16
181,3132.0,-2.6,-7.1000000000000005,-1.0,4.6000000000000005,-5.2,1.5,20.0,-64.60000000000001,95.60000000000002,16
182,3148.0,-4.0,-9.9,-0.5,4.6000000000000005,-5.2,1.5,24.3,-57.00000000000001,108.8,16
183,3165.0,-0.1,-6.6000000000000005,-2.0,7.300000000000001,-3.2,0.30000000000000004,22.8,-50.5,126.49999999999999,16
184,3182.0,-0.7000000000000001,-8.8,-3.2,9.200000000000001,-5.7,-1.0,13.000000000000002,-63.900000000000006,129.5,16
185,3199.0,0.9,-8.3,-2.5,9.200000000000001,-5.7,-1.0,-14.100000000000001,-68.7,147.4,16
186,3215.0,2.0,-8.6,-1.6,10.3,-6.5,-0.30000000000000004,-45.099999999999994,-62.4,163.29999999999998,16
187,3232.0,4.5,-8.1,-0.8,13.8,-7.300000000000001,1.1,-80.0,-49.1,170.2,16
188,3249.0,5.4,-8.6,0.6000000000000001,15.0,-8.200000000000001,2.7,-120.00000000000001,-32.0,168.0,16
189,3265.0,6.1000000000000005,-8.8,1.6,15.0,-8.200000000000001,2.7,-162.6,-9.3,165.6,16
190,3282.0,6.800000000000001,-9.600000000000001,3.2,15.8,-9.3,4.4,-204.70000000000002,24.1,162.10000000000002,16
191,3298.0,6.300000000000001,-10.4,3.9000000000000004,15.200000000000001,-12.0,6.300000000000001,-239.7,48.10000000000001,163.5,16
192,3315.0,6.0,-10.700000000000001,4.6000000000000005,15.200000000000001,-12.0,6.300000000000001,-268.5,59.80000000000001,174.10000000000002,16
193,3332.0,6.800000000000001,-9.600000000000001,6.9,15.600000000000001,-12.0,8.200000000000001,-282.6,63.10000000000001,192.1,16
194,3348.0,7.800000000000001,-7.6000000000000005,9.4,17.5,-9.8,12.4,-268.3,50.7,208.4,16
195,3365.0,8.700000000000001,-6.2,10.600000000000001,17.5,-9.8,12.4,-226.10000000000002,31.7,217.80000000000004,16
196,3385.0,11.200000000000001,-1.7000000000000002,11.5,19.6,-5.9,12.9,-67.5,-34.800000000000004,203.60000000000002,16
197,3400.0,11.0,-0.5,10.9,19.6,-5.9,12.9,-67.5,-34.800000000000004,203.60000000000002,16
198,3418.0,10.100000000000001,0.9,8.8,17.5,-3.9000000000000004,8.8,11.1,-60.00000000000001,181.3,16
199,3432.0,9.3,1.7000000000000002,6.800000000000001,17.5,-3.9000000000000004,8.8,65.10000000000001,-63.2,155.9,16
200,3449.0,7.0,3.1,3.9000000000000004,15.5,-3.0,6.300000000000001,85.5,-51.4,132.1,16
201,3465.0,5.0,4.1000000000000005,2.0,12.0,-1.6,3.1,75.4,-21.0,111.80000000000001,16
202,3482.0,3.5,4.800000000000001,0.5,10.8,-1.1,2.2,50.400000000000006,19.300000000000004,94.3,16
203,3499.0,3.0,5.300000000000001,0.0,10.8,-1.1,2.2,20.0,57.699999999999996,80.30000000000001,16
204,3515.0,2.5,6.0,-0.8,10.100000000000001,-0.5,1.7000000000000002,-11.3,91.90000000000002,65.6,16
205,3533.0,1.8,6.300000000000001,-1.1,8.6,-0.1,1.3,-37.300000000000004,116.4,48.9,16
206,3550.0,1.2000000000000002,6.4,-1.4000000000000001,8.0,-0.2,1.2000000000000002,-55.900000000000006,129.3,33.300000000000004,16
207,3565.0,0.9,6.2,-1.6,8.0,-0.2,1.2000000000000002,-68.0,132.70000000000002,17.9,16
208,3582.0,0.2,5.800000000000001,-1.8,6.800000000000001,-0.9,0.9,-74.5,125.2,6.600000000000001,16
209,3599.0,-0.1,5.6000000000000005,-1.9000000000000001,6.800000000000001,-0.9,0.9,-79.8,113.4,-1.0,16
210,3615.0,-0.30000000000000004,5.2,-2.0,6.5,-1.3,0.9,-85.60000000000001,99.30000000000001,-5.7,16
211,3635.0,-0.2,4.9,-1.6,6.5,-1.7000000000000002,1.1,-91.4,82.7,-8.5,16
212,3648.0,0.2,4.5,-0.8,7.1000000000000005,-2.3000000000000003,2.3000000000000003,-95.30000000000001,64.2,-10.4,16
213,3665.0,0.5,4.3,-0.2,7.1000000000000005,-2.3000000000000003,2.3000000000000003,-96.4,46.7,-11.8,16
214,3682.0,1.0,3.9000000000000004,1.0,7.5,-2.7,3.3000000000000003,-95.20000000000002,35.9,-12.200000000000001,16
215,3698.0,1.6,3.6,1.9000000000000001,8.700000000000001,-3.3000000000000003,4.6000000000000005,-92.7,33.1,-10.5,16
216,3715.0,2.5,3.1,2.7,9.4,-3.7,5.1000000000000005,-87.89999999999999,32.9,-8.3,16
217,3732.0,2.9000000000000004,3.0,2.9000000000000004,9.4,-3.7,5.1000000000000005,-81.50000000000001,35.599999999999994,-5.9,16
218,3749.0,4.1000000000000005,2.6,3.1,10.4,-4.0,5.2,-73.8,35.699999999999996,-4.2,16
219,3767.0,4.9,1.8,3.9000000000000004,11.8,-5.1000000000000005,6.2,-63.0,31.400000000000002,-3.6000000000000005,16
220,3785.0,5.6000000000000005,1.6,4.2,12.5,-5.300000000000001,6.5,-22.6,10.200000000000001,5.4,16
221,3801.0,6.1000000000000005,1.5,4.4,12.5,-5.300000000000001,6.5,-22.6,10.200000000000001,5.4,16
222,3817.0,7.2,1.2000000000000002,4.9,14.4,-5.6000000000000005,7.2,8.2,-12.100000000000001,8.899999999999999,16
223,3832.0,8.0,1.4000000000000001,4.6000000000000005,15.0,-5.300000000000001,6.7,41.800000000000004,-29.0,10.600000000000001,16
224,3849.0,8.3,1.5,4.1000000000000005,15.0,-5.300000000000001,6.7,75.00000000000001,-42.60000000000001,7.8,16
225,3867.0,8.3,1.5,2.6,15.4,-5.1000000000000005,5.6000000000000005,102.3,-54.800000000000004,-0.7,16
226,3884.0,7.800000000000001,1.6,0.8,14.8,-4.7,2.9000000000000004,118.3,-64.10000000000001,-10.8,16
227,3901.0,7.2,1.9000000000000001,-0.7000000000000001,14.600000000000001,-4.2,1.7000000000000002,117.9,-79.5,-32.9,16
228,3916.0,7.1000000000000005,2.0,-1.4000000000000001,14.600000000000001,-4.2,1.7000000000000002,117.9,-79.5,-32.9,16
229,3932.0,7.0,1.7000000000000002,-1.8,14.8,-4.5,1.0,103.8,-89.2,-51.4,16
230,3949.0,6.800000000000001,1.2000000000000002,-1.6,14.8,-4.5,1.0,85.4,-97.40000000000002,-73.9,16
231,3965.0,5.7,-0.4,-0.7000000000000001,14.100000000000001,-5.5,1.6,66.5,-98.7,-93.4,16
232,3984.0,4.3,-1.7000000000000002,0.5,13.200000000000001,-6.4,2.4000000000000004,51.300000000000004,-94.10000000000001,-105.60000000000002,16
233,4000.0,3.1,-2.6,1.7000000000000002,11.600000000000001,-7.4,4.1000000000000005,43.900000000000006,-89.0,-111.50000000000001,16
234,4017.0,2.6,-2.9000000000000004,2.2,11.600000000000001,-7.4,4.1000000000000005,44.4,-83.2,-112.60000000000001,16
235,4032.0,1.4000000000000001,-3.0,2.7,10.9,-7.300000000000001,4.5,51.4,-76.4,-110.80000000000001,16
236,4049.0,0.6000000000000001,-2.7,2.9000000000000004,9.8,-6.2,4.6000000000000005,62.4,-70.5,-107.7,16
237,4065.0,0.0,-2.4000000000000004,2.7,9.5,-5.7,4.2,75.5,-67.5,-105.9,16
238,4083.0,-0.2,-2.3000000000000003,2.5,9.5,-5.7,4.2,88.50000000000001,-67.00000000000001,-106.5,16
239,4099.0,-0.6000000000000001,-2.5,1.9000000000000001,9.3,-5.4,3.7,98.2,-68.3,-109.7,16
240,4116.0,-1.0,-3.0,1.5,8.700000000000001,-5.5,2.8000000000000003,102.89999999999999,-70.0,-114.10000000000001,16
241,4132.0,-1.3,-3.3000000000000003,1.4000000000000001,8.700000000000001,-5.5,2.8000000000000003,103.00000000000001,-69.9,-118.2,16
242,4150.0,-1.8,-4.0,1.4000000000000001,8.4,-5.7,2.6,99.60000000000001,-68.1,-120.50000000000001,16
243,4165.0,-2.3000000000000003,-4.7,1.1,7.7,-6.2,2.1,93.10000000000001,-64.4,-120.60000000000001,16
244,4183.0,-2.6,-5.2,1.1,7.5,-6.300000000000001,1.9000000000000001,83.2,-59.1,-118.80000000000003,16
245,4199.0,-2.8000000000000003,-5.4,1.0,7.5,-6.300000000000001,1.9000000000000001,70.4,-51.9,-115.8,16
246,4215.0,-3.2,-5.6000000000000005,1.0,7.2,-6.2,1.7000000000000002,55.3,-42.60000000000001,-112.1,16
247,4232.0,-3.6,-5.6000000000000005,0.9,6.4,-5.6000000000000005,1.5,38.7,-32.5,-108.10000000000001,16
248,4249.0,-3.8000000000000003,-5.6000000000000005,0.9,6.4,-5.6000000000000005,1.5,21.200000000000003,-22.2,-104.2,16
249,4265.0,-4.1000000000000005,-5.6000000000000005,1.1,6.1000000000000005,-5.300000000000001,1.6,4.300000000000001,-12.100000000000001,-101.10000000000001,16
250,4282.0,-4.1000000000000005,-5.9,1.4000000000000001,6.0,-5.5,2.1,-10.299999999999999,-2.5,-99.30000000000001,16
251,4298.0,-4.1000000000000005,-6.2,1.5,6.0,-5.5,2.1,-21.7,6.300000000000001,-98.7,16
252,4315.0,-4.4,-7.0,1.6,5.7,-5.9,2.3000000000000003,-29.400000000000002,14.300000000000002,-97.89999999999999,16
253,4332.0,-4.9,-8.0,1.4000000000000001,4.7,-7.1000000000000005,2.2,-34.1,20.400000000000002,-93.8,16
254,4349.0,-5.4,-8.8,1.2000000000000002,4.3,-7.5,2.0,-38.7,25.6,-84.0,16
255,4365.0,-5.6000000000000005,-9.0,1.0,4.3,-7.5,2.0,-44.9,31.3,-69.3,16
256,4382.0,-5.9,-9.3,0.5,3.9000000000000004,-7.800000000000001,1.7000000000000002,-53.400000000000006,35.599999999999994,-51.2,16
257,4398.0,-5.7,-9.5,0.30000000000000004,4.2,-8.1,1.7000000000000002,-65.10000000000001,38.300000000000004,-30.699999999999996,16
258,4415.0,-5.4,-9.5,0.30000000000000004,4.2,-8.1,1.7000000000000002,-78.3,40.2,-9.4,16
259,4432.0,-4.2,-9.3,0.8,5.1000000000000005,-8.1,2.2,-88.8,40.800000000000004,9.100000000000001,16
260,4448.0,-3.2,-9.4,1.1,6.300000000000001,-8.4,3.0,-94.2,41.4,24.3,16
261,4466.0,-3.4000000000000004,-8.9,1.1,5.9,-8.0,3.0,-96.5,44.300000000000004,41.0,16
262,4483.0,-3.6,-8.3,0.9,5.9,-8.0,3.0,-95.20000000000002,44.5,64.30000000000001,16
263,4498.0,-2.5,-7.300000000000001,0.9,6.5,-7.4,3.0,-88.00000000000001,30.599999999999998,93.2,16
264,4515.0,0.2,-6.300000000000001,1.4000000000000001,10.8,-6.6000000000000005,3.5,-74.0,11.900000000000002,120.00000000000001,16
265,4533.0,2.8000000000000003,-5.300000000000001,1.2000000000000002,12.600000000000001,-6.2,3.1,-54.50000000000001,-4.1,135.9,16
266,4549.0,3.6,-4.9,0.8,12.600000000000001,-6.2,3.1,-34.7,-16.8,138.8,16
267,4565.0,3.8000000000000003,-4.3,-0.30000000000000004,12.8,-5.9,1.1,-24.599999999999998,-22.9,134.3,16
268,4582.0,2.9000000000000004,-3.6,-1.2000000000000002,11.9,-5.7,0.6000000000000001,-28.200000000000003,-22.4,130.0,16
269,4598.0,2.4000000000000004,-3.2,-1.3,11.9,-5.7,0.6000000000000001,-44.5,-15.700000000000001,129.60000000000002,16
270,4615.0,1.8,-2.1,-0.8,11.100000000000001,-5.2,0.8,-68.80000000000001,-2.6,132.3,16
271,4632.0,1.3,-1.1,0.2,10.100000000000001,-4.4,2.5,-92.7,13.5,133.20000000000002,16
272,4648.0,1.1,-0.7000000000000001,0.9,10.100000000000001,-4.4,2.5,-109.8,29.900000000000006,132.70000000000002,16
273,4665.0,0.5,0.0,2.2,9.4,-4.2,3.6,-114.70000000000002,43.900000000000006,133.3,16
274,4682.0,0.4,0.8,3.0,9.1,-3.6,4.9,-102.89999999999999,48.800000000000004,135.6,16
275,4698.0,0.7000000000000001,1.2000000000000002,3.1,9.1,-3.6,4.9,-76.1,44.2,137.20000000000002,16
276,4716.0,1.1,1.9000000000000001,2.2,9.3,-3.3000000000000003,4.2,-42.0,31.799999999999997,136.0,16
277,4733.0,1.4000000000000001,2.4000000000000004,0.6000000000000001,9.3,-3.1,2.9000000000000004,-13.399999999999999,14.200000000000001,133.20000000000002,16
278,4748.0,1.7000000000000002,2.7,-0.7000000000000001,9.4,-3.2,0.9,0.9000000000000001,-2.6,129.60000000000002,16
279,4765.0,1.8,2.7,-0.9,9.4,-3.2,0.9,0.8,-13.8,126.0,16
280,4782.0,2.3000000000000003,2.8000000000000003,-0.8,9.600000000000001,-3.4000000000000004,0.8,-10.5,-16.3,123.7,16
281,4798.0,2.9000000000000004,3.1,0.1,10.3,-3.5,2.5,-27.3,-9.600000000000001,122.30000000000001,16
282,4816.0,3.3000000000000003,3.2,0.9,10.3,-3.5,2.5,-39.300000000000004,2.8,120.9,16
283,4833.0,4.2,3.7,1.6,10.9,-3.3000000000000003,3.1,-42.7,17.0,117.5,16
284,4849.0,5.300000000000001,4.2,1.3,11.5,-3.1,3.0,-42.2,27.800000000000004,109.8,16
285,4865.0,6.1000000000000005,4.1000000000000005,1.0,12.5,-3.6,2.5,-43.70000000000001,34.2,97.89999999999999,16
286,4883.0,6.300000000000001,3.8000000000000003,1.0,12.5,-3.6,2.5,-48.10000000000001,37.2,86.1,16
287,4901.0,6.7,3.3000000000000003,1.3,12.700000000000001,-4.2,2.7,-52.300000000000004,36.9,78.9,16
288,4916.0,7.300000000000001,2.8000000000000003,2.0,13.4,-5.0,3.8000000000000003,-51.9,28.800000000000004,75.8,16
289,4933.0,7.800000000000001,3.1,2.9000000000000004,13.8,-4.7,4.3,-45.5,16.5,74.89999999999999,16
290,4949.0,8.3,3.4000000000000004,3.1,13.8,-4.7,4.3,-32.5,0.8,74.30000000000001,16
291,4965.0,9.700000000000001,3.4000000000000004,3.8000000000000003,14.9,-4.6000000000000005,4.800000000000001,-15.000000000000002,-20.3,69.00000000000001,16
292,4982.0,10.8,4.0,4.5,16.7,-3.9000000000000004,5.800000000000001,4.2,-34.2,57.20000000000001,16
293,4998.0,11.100000000000001,4.3,4.5,16.7,-3.9000000000000004,5.800000000000001,23.099999999999998,-37.50000000000001,38.50000000000001,16
294,5015.0,11.4,4.5,4.4,17.1,-3.6,5.7,36.9,-31.0,12.9,16
295,5037.0,10.8,4.7,3.7,16.3,-3.3000000000000003,4.800000000000001,45.400000000000006,-14.600000000000001,-17.200000000000003,16
296,5049.0,10.3,4.6000000000000005,3.2,15.3,-3.6,3.9000000000000004,49.50000000000001,3.9,-48.9,16
297,5065.0,8.8,3.9000000000000004,1.9000000000000001,15.3,-3.6,3.9000000000000004,48.800000000000004,20.8,-79.3,16
298,5082.0,7.4,2.3000000000000003,0.8,14.4,-4.5,3.0,43.6,30.1,-105.3,16
299,5098.0,6.1000000000000005,0.30000000000000004,0.5,12.600000000000001,-7.300000000000001,2.9000000000000004,37.0,29.700000000000006,-125.10000000000001,16
300,5115.0,5.300000000000001,-0.6000000000000001,0.7000000000000001,12.600000000000001,-7.300000000000001,2.9000000000000004,33.50000000000001,22.8,-136.8,16
301,5132.0,3.5,-1.9000000000000001,1.2000000000000002,11.4,-8.200000000000001,3.4000000000000004,36.0,12.8,-138.50000000000003,16
302,5149.0,2.0,-2.3000000000000003,1.5,9.5,-8.3,4.1000000000000005,44.7,-3.0,-131.6,16
303,5165.0,1.2000000000000002,-2.3000000000000003,2.0,9.200000000000001,-7.9,4.6000000000000005,57.699999999999996,-25.200000000000003,-121.9,16
304,5182.0,1.0,-2.3000000000000003,2.3000000000000003,9.200000000000001,-7.9,4.6000000000000005,73.5,-47.80000000000001,-112.80000000000001,16
305,5199.0,0.6000000000000001,-2.0,2.7,9.1,-7.5,5.0,90.80000000000001,-64.7,-106.30000000000001,16
306,5215.0,0.4,-1.5,2.2,9.200000000000001,-6.0,4.4,106.30000000000001,-74.60000000000001,-103.89999999999999,16
307,5232.0,0.30000000000000004,-1.3,1.9000000000000001,9.200000000000001,-6.0,4.4,116.5,-81.10000000000001,-106.4,16
308,5249.0,0.1,-1.5,1.3,9.200000000000001,-5.7,3.8000000000000003,119.1,-83.80000000000001,-112.20000000000002,16
309,5265.0,-0.2,-2.0,1.1,9.0,-5.9,3.2,115.7,-81.0,-119.60000000000002,16
310,5282.0,-0.4,-2.4000000000000004,1.0,9.0,-5.9,3.2,110.0,-75.3,-127.1,16
311,5298.0,-0.9,-3.1,0.9,8.8,-6.0,3.0,102.8,-68.7,-133.70000000000002,16
312,5315.0,-1.3,-3.8000000000000003,0.8,8.6,-6.300000000000001,2.9000000000000004,94.7,-61.9,-139.20000000000002,16
313,5332.0,-1.7000000000000002,-4.7,0.7000000000000001,8.1,-6.800000000000001,2.6,86.1,-54.9,-143.4,16
314,5348.0,-2.0,-5.1000000000000005,0.7000000000000001,8.1,-6.800000000000001,2.6,76.1,-47.0,-145.9,16
315,5365.0,-2.7,-5.6000000000000005,0.6000000000000001,7.5,-6.9,2.4000000000000004,65.0,-37.300000000000004,-145.5,16
316,5382.0,-3.2,-6.0,0.4,6.7,-6.800000000000001,2.1,53.2,-27.400000000000002,-142.39999999999998,16
317,5399.0,-3.4000000000000004,-6.2,0.4,6.7,-6.800000000000001,2.1,41.6,-18.4,-138.10000000000002,16
318,5415.0,-3.6,-6.5,0.30000000000000004,6.5,-6.7,2.0,30.3,-9.700000000000001,-133.3,16
319,5432.0,-3.8000000000000003,-6.9,0.30000000000000004,6.300000000000001,-6.6000000000000005,2.0,20.1,-1.6,-128.70000000000002,16
320,5448.0,-3.9000000000000004,-7.2,0.30000000000000004,5.800000000000001,-7.2,1.9000000000000001,10.8,6.4,-123.9,16
321,5465.0,-4.2,-7.9,0.1,5.800000000000001,-7.2,1.9000000000000001,1.8000000000000003,15.2,-117.80000000000001,16
322,5482.0,-4.7,-8.8,-0.30000000000000004,5.300000000000001,-7.6000000000000005,1.6,-7.200000000000001,22.5,-109.10000000000001,16
323,5498.0,-5.2,-9.700000000000001,-0.5,4.3,-8.700000000000001,1.3,-17.1,28.400000000000002,-95.5,16
324,5515.0,-5.5,-9.9,-0.7000000000000001,4.3,-8.700000000000001,1.3,-27.700000000000003,33.2,-77.00000000000001,16
325,5532.0,-5.6000000000000005,-10.200000000000001,-1.2000000000000002,4.0,-8.9,1.0,-39.2,35.2,-54.6,16
326,5548.0,-5.300000000000001,-10.4,-1.5,4.1000000000000005,-9.1,0.9,-51.6,35.699999999999996,-30.5,16
327,5565.0,-5.0,-10.5,-1.7000000000000002,4.5,-9.3,0.7000000000000001,-65.3,35.4,-8.0,16
328,5582.0,-4.5,-10.600000000000001,-2.0,4.9,-9.600000000000001,0.5,-80.60000000000001,34.7,12.7,16
329,5598.0,-5.0,-10.4,-2.1,4.7,-9.8,0.4,-98.10000000000001,31.400000000000002,35.2,16
330,5615.0,-5.300000000000001,-9.1,-1.0,4.5,-8.6,2.4000000000000004,-112.1,21.300000000000004,65.3,16
331,5632.0,-4.7,-8.4,-0.1,4.5,-8.6,2.4000000000000004,-112.60000000000001,3.1,100.1,16
332,5649.0,-2.0,-7.2,1.7000000000000002,6.6000000000000005,-8.0,3.9000000000000004,-95.69999999999999,-19.9,131.5,16
333,5665.0,1.3,-6.2,2.9000000000000004,11.8,-7.2,5.1000000000000005,-63.2,-40.4,151.5,16
334,5685.0,3.2,-5.2,2.2,12.8,-6.9,3.7,-24.5,-52.900000000000006,159.5,16
335,5698.0,3.6,-4.800000000000001,1.3,12.8,-6.9,3.7,6.500000000000001,-59.699999999999996,159.70000000000002,16
336,5715.0,3.3000000000000003,-3.9000000000000004,-0.5,12.8,-6.6000000000000005,2.0,20.0,-62.800000000000004,156.5,16
337,5733.0,2.4000000000000004,-3.0,-1.3,11.200000000000001,-5.800000000000001,0.5,13.5,-61.0,155.60000000000002,16
338,5748.0,2.1,-2.4000000000000004,-1.2000000000000002,11.200000000000001,-5.800000000000001,0.5,-6.8,-51.70000000000001,158.29999999999998,16
339,5765.0,1.9000000000000001,-1.0,-0.1,10.9,-5.1000000000000005,1.2000000000000002,-32.400000000000006,-32.1,161.4,16
340,5782.0,1.8,0.30000000000000004,0.8,10.3,-3.6,2.7,-56.50000000000001,-4.1,161.4,16
341,5798.0,1.7000000000000002,1.0,1.2000000000000002,10.3,-3.6,2.7,-74.4,23.800000000000004,158.50000000000003,16
342,5815.0,1.8,2.2,1.5,10.100000000000001,-3.0,3.0,-84.0,44.9,152.2,16
343,5832.0,2.1,3.2,1.6,10.200000000000001,-2.4000000000000004,3.1,-86.4,57.3,141.1,16
344,5849.0,2.2,3.7,1.5,9.8,-2.1,2.9000000000000004,-83.30000000000001,61.599999999999994,126.0,16
345,5865.0,2.1,3.8000000000000003,1.4000000000000001,9.8,-2.1,2.9000000000000004,-76.2,59.20000000000001,110.0,16
346,5882.0,1.9000000000000001,3.7,1.1,9.5,-2.4000000000000004,2.7,-66.80000000000001,51.50000000000001,95.60000000000002,16
347,5900.0,1.7000000000000002,3.2,0.9,8.9,-3.5,2.4000000000000004,-58.60000000000001,41.900000000000006,84.80000000000001,16
348,5917.0,1.6,2.9000000000000004,0.9,8.700000000000001,-3.8000000000000003,2.5,-53.599999999999994,35.1,78.80000000000001,16
349,5935.0,1.6,2.9000000000000004,1.1,8.6,-3.9000000000000004,2.6,-51.300000000000004,31.400000000000002,77.20000000000002,16
350,5948.0,1.7000000000000002,3.0,1.2000000000000002,8.6,-3.9000000000000004,2.6,-51.300000000000004,31.400000000000002,77.20000000000002,16
351,5966.0,2.3000000000000003,3.2,1.3,9.3,-4.0,2.8000000000000003,-51.9,34.2,77.4,16
352,5987.0,3.2,2.9000000000000004,1.4000000000000001,9.9,-4.6000000000000005,2.9000000000000004,-53.8,38.60000000000001,75.4,16
353,5998.0,3.6,2.6,1.5,9.9,-4.6000000000000005,2.9000000000000004,-56.9,45.0,72.30000000000001,16
354,6015.0,4.3,1.8,1.6,10.8,-6.1000000000000005,3.0,-59.60000000000001,51.1,69.9,16
355,6034.0,5.0,1.0,1.8,11.3,-6.9,3.3000000000000003,-59.80000000000001,51.4,71.0,16
356,6048.0,5.300000000000001,0.7000000000000001,2.0,11.3,-6.9,3.3000000000000003,-55.900000000000006,45.7,76.7,16
357,6065.0,6.5,0.6000000000000001,2.4000000000000004,11.9,-7.300000000000001,3.6,-46.199999999999996,32.8,87.00000000000001,16
358,6082.0,8.4,0.9,3.0,14.700000000000001,-7.1000000000000005,4.5,-30.3,9.0,97.3,16
359,6099.0,9.4,1.1,3.3000000000000003,14.700000000000001,-7.1000000000000005,4.5,-9.2,-20.900000000000002,103.7,16
360,6115.0,11.5,1.9000000000000001,4.0,16.400000000000002,-6.7,5.0,14.900000000000002,-50.8,103.60000000000001,16
361,6132.0,13.200000000000001,3.4000000000000004,4.800000000000001,19.1,-4.2,6.300000000000001,40.9,-71.39999999999999,92.7,16
362,6149.0,14.3,5.2,4.9,19.6,-2.8000000000000003,6.0,67.4,-76.0,67.60000000000001,16
363,6165.0,14.3,5.9,4.4,19.6,-2.8000000000000003,6.0,89.8,-66.0,24.900000000000002,16
364,6182.0,13.200000000000001,6.0,2.7,19.200000000000003,-2.2,5.0,101.10000000000001,-46.4,-32.8,16
365,6198.0,10.700000000000001,3.7,0.8,16.0,-5.2,2.5,97.2,-27.0,-90.9,16
366,6215.0,9.4,2.3000000000000003,0.30000000000000004,16.0,-5.2,2.5,81.4,-9.899999999999999,-135.7,16
367,6232.0,6.800000000000001,-0.30000000000000004,-0.2,14.200000000000001,-7.1000000000000005,2.1,61.199999999999996,5.7,-163.20000000000002,16
368,6249.0,4.2,-2.0,-0.2,10.5,-9.0,2.3000000000000003,43.800000000000004,17.799999999999997,-171.10000000000002,16
369,6265.0,2.1,-2.6,-0.1,9.200000000000001,-8.9,2.5,34.0,20.7,-164.6,16
370,6286.0,0.7000000000000001,-2.2,0.2,8.5,-8.1,2.9000000000000004,39.1,-9.4,-132.8,16
371,6298.0,0.5,-1.9000000000000001,0.6000000000000001,8.5,-8.1,2.9000000000000004,39.1,-9.4,-132.8,16
372,6315.0,0.4,-1.6,0.9,8.6,-7.300000000000001,3.5,53.8,-36.9,-121.9,16
373,6332.0,0.5,-1.3,1.6,8.9,-6.7,4.1000000000000005,72.9,-63.0,-119.1,16
374,6348.0,0.30000000000000004,-1.3,1.8,9.1,-6.300000000000001,4.3,91.7,-81.8,-122.20000000000002,16
375,6367.0,-0.2,-1.6,1.4000000000000001,8.8,-6.0,3.5,103.89999999999999,-90.80000000000001,-127.19999999999999,16
376,6383.0,-0.5,-2.1,0.9,8.8,-6.0,3.0,107.5,-93.4,-132.6,16
377,6400.0,-0.6000000000000001,-2.4000000000000004,0.7000000000000001,8.8,-6.0,3.0,104.4,-91.8,-138.8,16
378,6415.0,-0.7000000000000001,-3.2,0.4,8.9,-6.2,2.6,95.4,-87.2,-146.5,16
379,6432.0,-1.0,-4.1000000000000005,0.30000000000000004,8.8,-7.0,2.1,81.4,-79.3,-154.6,16
380,6448.0,-1.1,-4.6000000000000005,0.4,8.8,-7.0,2.1,64.60000000000001,-68.60000000000001,-161.70000000000002,16
381,6466.0,-1.7000000000000002,-5.5,0.30000000000000004,8.5,-7.300000000000001,2.0,46.50000000000001,-55.400000000000006,-166.10000000000002,16
382,6483.0,-2.3000000000000003,-6.2,0.30000000000000004,7.6000000000000005,-7.4,1.8,27.400000000000002,-40.4,-167.0,16
383,6500.0,-2.9000000000000004,-6.5,0.30000000000000004,7.2,-7.2,1.8,8.4,-25.0,-165.00000000000003,16
384,6516.0,-3.1,-6.6000000000000005,0.30000000000000004,7.2,-7.2,1.8,-9.0,-11.3,-162.10000000000002,16
385,6532.0,-3.6,-7.0,0.5,6.7,-7.1000000000000005,1.9000000000000001,-23.400000000000002,-0.30000000000000004,-158.9,16
386,6550.0,-4.1000000000000005,-7.7,0.7000000000000001,5.9,-7.5,2.3000000000000003,-34.50000000000001,9.4,-154.5,16
387,6565.0,-4.2,-8.200000000000001,0.8,5.9,-7.5,2.3000000000000003,-41.7,18.3,-148.3,16
388,6582.0,-4.7,-9.1,0.7000000000000001,5.5,-8.0,2.4000000000000004,-45.400000000000006,26.400000000000006,-139.60000000000002,16
389,6598.0,-5.5,-9.8,0.30000000000000004,3.9000000000000004,-8.6,2.0,-47.5,32.6,-126.10000000000001,16
390,6615.0,-6.300000000000001,-10.0,-0.1,3.4000000000000004,-8.4,1.7000000000000002,-49.199999999999996,34.400000000000006,-106.80000000000001,16
391,6632.0,-6.4,-9.9,-0.4,3.4000000000000004,-8.4,1.7000000000000002,-50.900000000000006,31.3,-82.50000000000001,16
392,6649.0,-5.9,-10.0,-0.6000000000000001,3.5,-8.4,1.5,-53.2,23.6,-57.49999999999999,16
393,6666.0,-5.300000000000001,-10.100000000000001,-0.8,4.6000000000000005,-8.8,1.3,-56.7,18.4,-34.50000000000001,16
394,6682.0,-4.9,-10.200000000000001,-1.0,4.6000000000000005,-8.8,1.3,-61.8,15.8,-14.200000000000001,16
395,6699.0,-4.5,-10.700000000000001,-1.3,4.9,-9.3,1.1,-69.20000000000002,15.399999999999999,4.0,16
396,6715.0,-5.0,-10.4,-1.4000000000000001,4.5,-9.200000000000001,1.1,-79.7,17.200000000000003,25.6,16
397,6732.0,-5.0,-10.0,-1.3,4.5,-9.200000000000001,1.1,-89.10000000000001,14.400000000000002,54.1,16
398,6749.0,-4.0,-8.9,-0.2,5.2,-8.700000000000001,2.0,-90.1,1.7,87.00000000000001,16
399,6766.0,-1.6,-8.1,1.0,6.9,-8.4,3.0,-78.0,-16.3,118.40000000000002,16
400,6783.0,1.2000000000000002,-6.9,1.8,11.4,-7.4,4.0,-56.2,-31.799999999999997,142.7,16
401,6800.0,3.0,-5.6000000000000005,1.5,12.600000000000001,-6.800000000000001,3.3000000000000003,-8.0,-46.50000000000001,159.4,16
402,6817.0,3.4000000000000004,-4.9,0.9,12.600000000000001,-6.800000000000001,3.3000000000000003,-8.0,-46.50000000000001,159.4,16
403,6833.0,3.0,-3.9000000000000004,-0.30000000000000004,11.9,-5.800000000000001,1.2000000000000002,1.2000000000000002,-47.60000000000001,155.8,16
404,6849.0,2.5,-3.4000000000000004,-0.6000000000000001,11.0,-5.5,1.1,-4.800000000000001,-44.00000000000001,152.9,16
405,6867.0,1.6,-2.5,-0.5,11.0,-5.5,1.1,-22.2,-34.800000000000004,154.7,16
406,6882.0,1.3,-1.3,0.6000000000000001,10.5,-5.1000000000000005,1.8,-42.3,-18.8,159.1,16
407,6898.0,1.2000000000000002,0.0,1.5,10.0,-3.8000000000000003,3.2,-55.8,0.7,161.6,16
408,6915.0,1.2000000000000002,0.6000000000000001,1.7000000000000002,10.0,-3.8000000000000003,3.2,-61.10000000000001,17.6,161.10000000000002,16
409,6934.0,1.4000000000000001,1.5,1.7000000000000002,9.9,-3.3000000000000003,3.3000000000000003,-59.80000000000001,26.6,157.1,16
410,6950.0,1.5,2.1,1.6,9.600000000000001,-3.1,3.1,-53.8,28.700000000000003,149.60000000000002,16
411,6965.0,1.4000000000000001,2.3000000000000003,1.5,9.600000000000001,-3.1,3.1,-46.0,26.400000000000006,141.5,16
412,6982.0,1.4000000000000001,2.5,1.3,9.3,-3.2,2.9000000000000004,-38.1,20.599999999999998,135.0,16
413,6998.0,1.5,2.6,1.1,9.3,-3.6,2.5,-31.5,14.200000000000001,130.3,16
414,7018.0,2.1,2.5,1.0,9.700000000000001,-4.0,2.5,-27.400000000000002,7.400000000000001,126.49999999999999,16
415,7035.0,2.5,2.5,1.1,9.9,-4.2,2.7,-26.799999999999997,3.8,120.50000000000001,16
416,7050.0,3.0,2.6,1.2000000000000002,9.9,-4.2,2.7,-26.799999999999997,3.8,120.50000000000001,16
417,7069.0,3.5,2.9000000000000004,1.3,10.4,-4.1000000000000005,2.7,-28.200000000000003,7.300000000000001,118.00000000000001,16
418,7083.0,3.8000000000000003,3.2,1.3,10.4,-4.1000000000000005,2.7,-31.7,14.600000000000001,115.8,16
419,7101.0,4.7,3.6,1.0,10.9,-3.8000000000000003,2.4000000000000004,-38.50000000000001,23.2,111.10000000000002,16
420,7115.0,6.0,3.2,1.3,12.600000000000001,-4.800000000000001,3.1,-48.0,28.700000000000003,101.4,16
421,7132.0,6.800000000000001,2.5,2.2,12.8,-5.5,3.6,-55.400000000000006,36.9,89.9,16
422,7148.0,6.9,2.2,2.4000000000000004,12.8,-5.5,3.6,-56.50000000000001,46.800000000000004,81.3,16
423,7165.0,7.1000000000000005,2.0,2.6,12.8,-5.9,3.8000000000000003,-50.7,51.50000000000001,78.4,16
424,7182.0,7.1000000000000005,2.6,2.6,12.9,-5.2,3.7,-40.5,49.1,79.6,16
425,7199.0,7.5,3.2,2.4000000000000004,12.9,-5.2,3.7,-28.400000000000002,40.5,80.9,16
426,7215.0,9.4,3.6,2.2,14.200000000000001,-4.800000000000001,3.5,-16.200000000000003,22.3,74.4,16
427,7232.0,10.600000000000001,3.2,3.1,15.8,-5.2,4.800000000000001,-3.4,5.300000000000001,56.0,16
428,7249.0,10.200000000000001,3.4000000000000004,3.4000000000000004,15.3,-5.0,4.7,12.9,2.0,35.0,16
429,7265.0,9.9,3.4000000000000004,3.1,15.3,-5.0,4.7,31.099999999999998,5.4,16.200000000000003,16
430,7281.0,9.1,3.7,2.2,14.700000000000001,-4.800000000000001,4.1000000000000005,45.2,9.2,0.0,16
431,7298.0,8.200000000000001,4.3,1.5,13.5,-3.8000000000000003,3.2,53.7,11.6,-15.2,16
432,7316.0,7.6000000000000005,4.3,0.8,13.3,-3.8000000000000003,2.6,61.39999999999999,11.4,-31.400000000000002,16
433,7332.0,7.4,4.0,0.30000000000000004,13.3,-3.8000000000000003,2.6,70.2,2.9,-50.5,16
434,7349.0,7.1000000000000005,3.3000000000000003,-0.1,13.100000000000001,-4.7,2.2,77.60000000000001,-16.0,-71.0,16
435,7365.0,6.7,1.5,-0.2,13.0,-6.0,2.1,84.2,-39.8,-87.80000000000001,16
436,7381.0,5.7,-0.30000000000000004,0.0,12.5,-7.300000000000001,2.5,92.3,-63.8,-98.10000000000001,16
437,7400.0,4.4,-1.3,-0.1,11.700000000000001,-8.1,2.5,100.0,-86.2,-98.3,16
438,7418.0,3.8000000000000003,-1.3,-0.1,11.200000000000001,-7.6000000000000005,2.5,103.40000000000002,-109.00000000000001,-92.39999999999999,16
439,7442.0,3.8000000000000003,-0.7000000000000001,0.5,11.5,-6.9,3.0,102.4,-129.3,-88.20000000000002,16
440,7449.0,3.8000000000000003,-0.4,1.0,11.5,-6.9,3.0,99.5,-142.39999999999998,-89.6,16
441,7465.0,3.7,-0.1,1.7000000000000002,12.0,-5.800000000000001,3.8000000000000003,96.4,-145.00000000000003,-98.39999999999999,16
442,7483.0,3.4000000000000004,-0.2,1.9000000000000001,11.9,-5.6000000000000005,3.7,91.8,-138.20000000000002,-112.5,16
443,7498.0,3.2,-0.30000000000000004,1.8,11.9,-5.6000000000000005,3.7,83.00000000000001,-124.10000000000001,-130.1,16
444,7515.0,2.5,-1.1,1.7000000000000002,11.700000000000001,-5.7,3.4000000000000004,68.60000000000001,-103.89999999999999,-149.60000000000002,16
445,7532.0,1.6,-2.3000000000000003,1.7000000000000002,10.8,-6.800000000000001,3.1,50.7,-79.7,-167.40000000000003,16
446,7548.0,1.2000000000000002,-2.9000000000000004,1.7000000000000002,10.8,-6.800000000000001,3.1,33.400000000000006,-54.800000000000004,-181.60000000000002,16
447,7565.0,0.30000000000000004,-4.2,1.6,10.3,-7.300000000000001,3.0,19.300000000000004,-32.9,-192.40000000000003,16
448,7582.0,-0.6000000000000001,-5.300000000000001,1.5,9.1,-8.1,2.8000000000000003,9.5,-17.799999999999997,-198.9,16
449,7598.0,-1.0,-5.800000000000001,1.5,8.700000000000001,-8.4,2.8000000000000003,4.1,-10.1,-201.40000000000003,16
450,7616.0,-1.5,-6.800000000000001,1.5,8.700000000000001,-8.4,2.8000000000000003,2.6,-7.8,-199.9,16
451,7632.0,-2.1,-7.4,1.5,8.4,-8.5,2.8000000000000003,4.4,-7.0,-195.7,16
452,7648.0,-2.3000000000000003,-7.7,1.2000000000000002,8.0,-8.200000000000001,2.4000000000000004,7.6,-8.2,-190.2,16
453,7665.0,-2.4000000000000004,-8.0,1.1,8.0,-8.200000000000001,2.4000000000000004,9.700000000000001,-11.3,-185.7,16
454,7683.0,-2.5,-8.5,1.0,7.800000000000001,-8.1,2.2,9.8,-13.900000000000002,-183.00000000000003,16
455,7698.0,-2.7,-9.5,0.8,7.300000000000001,-8.9,2.0,7.500000000000001,-15.100000000000001,-181.8,16
456,7715.0,-3.3000000000000003,-10.700000000000001,0.7000000000000001,6.5,-9.4,1.9000000000000001,2.9,-12.299999999999999,-179.5,16
457,7732.0,-3.8000000000000003,-11.200000000000001,0.7000000000000001,6.5,-9.4,1.9000000000000001,-4.4,-4.2,-172.9,16
458,7748.0,-5.300000000000001,-11.9,0.4,5.2,-9.700000000000001,1.7000000000000002,-13.5,8.2,-158.39999999999998,16
459,7765.0,-6.9,-11.9,-0.30000000000000004,2.4000000000000004,-9.4,0.9,-24.900000000000002,21.7,-134.5,16
460,7782.0,-7.4,-11.9,-0.6000000000000001,2.4000000000000004,-9.4,0.9,-38.800000000000004,31.5,-103.3,16
461,7800.0,-8.0,-11.5,-1.1,1.7000000000000002,-9.1,0.6000000000000001,-54.699999999999996,37.2,-68.3,16
462,7816.0,-8.0,-11.0,-1.4000000000000001,1.8,-8.4,0.5,-71.7,38.400000000000006,-32.5,16
463,7833.0,-7.0,-10.700000000000001,-1.1,2.7,-8.5,1.2000000000000002,-87.80000000000001,33.1,1.2000000000000002,16
464,7849.0,-6.5,-10.600000000000001,-0.6000000000000001,2.7,-8.5,1.2000000000000002,-99.7,24.7,31.7,16
465,7866.0,-5.7,-9.700000000000001,0.30000000000000004,3.4000000000000004,-8.200000000000001,2.1,-103.89999999999999,17.0,60.300000000000004,16
466,7881.0,-4.9,-8.6,1.2000000000000002,5.1000000000000005,-7.300000000000001,3.7,-99.5,6.0,88.7,16
467,7898.0,-4.1000000000000005,-8.200000000000001,1.6,5.1000000000000005,-7.300000000000001,3.7,-87.00000000000001,-11.5,117.1,16
468,7915.0,-1.5,-7.7,2.8000000000000003,7.1000000000000005,-7.300000000000001,4.5,-67.3,-33.2,143.8,16
469,7932.0,1.2000000000000002,-7.2,3.5,11.4,-7.6000000000000005,5.300000000000001,-40.6,-48.6,162.8,16
470,7949.0,2.4000000000000004,-6.9,3.0,12.0,-7.800000000000001,4.5,-13.200000000000003,-54.50000000000001,173.6,16
471,7965.0,2.5,-6.6000000000000005,2.6,12.0,-7.800000000000001,4.5,7.6,-53.2,182.3,16
472,7981.0,2.5,-5.5,1.6,12.0,-7.6000000000000005,3.6,19.400000000000002,-49.1,192.0,16
473,7998.0,2.6,-4.0,1.0,11.9,-6.2,2.3000000000000003,23.800000000000004,-45.2,201.1,16
474,8015.0,2.7,-3.1,0.8,11.9,-6.2,2.3000000000000003,22.1,-39.2,207.6,16
475,8033.0,3.1,-1.6,0.9,12.100000000000001,-5.4,2.3000000000000003,16.8,-27.9,209.20000000000002,16
476,8050.0,3.3000000000000003,0.1,0.9,12.100000000000001,-3.7,2.2,11.4,-9.4,204.6,16
477,8066.0,3.4000000000000004,1.4000000000000001,0.5,11.9,-3.2,1.8,7.200000000000001,10.8,195.20000000000002,16
478,8082.0,3.4000000000000004,1.8,0.1,11.9,-3.2,1.8,3.3000000000000007,28.0,182.4,16
479,8098.0,3.5,2.6,-0.8,11.700000000000001,-2.9000000000000004,1.2000000000000002,-2.8,40.5,167.60000000000002,16
480,8116.0,3.5,3.1,-1.7000000000000002,11.200000000000001,-2.6,0.0,-13.6,50.1,150.8,16
481,8133.0,3.4000000000000004,3.3000000000000003,-1.7000000000000002,11.200000000000001,-2.6,0.0,-28.3,52.400000000000006,132.70000000000002,16
482,8148.0,3.2,3.5,-1.9000000000000001,10.8,-2.6,-0.1,-43.1,54.50000000000001,115.3,16
483,8165.0,3.0,3.4000000000000004,-2.0,10.0,-3.2,-0.1,-60.7,56.300000000000004,99.8,16
484,8182.0,2.8000000000000003,3.3000000000000003,-1.8,10.0,-3.2,-0.1,-80.9,60.900000000000006,87.40000000000002,16
485,8198.0,2.4000000000000004,3.2,-1.2000000000000002,9.5,-3.5,0.30000000000000004,-101.10000000000001,68.2,78.7,16
486,8215.0,2.4000000000000004,2.9000000000000004,-0.5,9.3,-3.9000000000000004,0.8,-118.69999999999999,76.3,72.9,16
487,8231.0,2.4000000000000004,2.7,-0.1,8.9,-4.7,2.1,-133.10000000000002,84.4,69.3,16
488,8248.0,2.3000000000000003,2.6,0.8,8.9,-4.7,2.1,-142.39999999999998,92.50000000000001,68.9,16
489,8265.0,2.6,2.4000000000000004,1.4000000000000001,8.8,-4.9,2.5,-145.60000000000002,96.4,71.7,16
490,8281.0,3.5,2.0,1.9000000000000001,9.9,-6.1000000000000005,3.1,-144.20000000000002,93.00000000000001,75.5,16
491,8298.0,3.9000000000000004,1.7000000000000002,2.2,9.9,-6.1000000000000005,3.1,-139.1,84.2,79.3,16
492,8315.0,5.1000000000000005,1.0,3.0,10.700000000000001,-6.800000000000001,3.6,-128.4,69.3,84.2,16
493,8332.0,6.0,0.6000000000000001,3.9000000000000004,11.4,-7.4,4.3,-108.8,47.1,91.7,16
494,8349.0,6.300000000000001,0.7000000000000001,4.4,11.8,-7.6000000000000005,5.0,-79.8,21.1,104.00000000000001,16
495,8365.0,7.9,1.5,4.6000000000000005,12.8,-7.1000000000000005,5.1000000000000005,-44.4,-10.0,118.10000000000001,16
496,8382.0,10.5,2.5,5.1000000000000005,14.700000000000001,-6.5,5.300000000000001,-8.0,-46.1,123.4,16
497,8398.0,12.3,4.2,5.6000000000000005,17.6,-4.0,6.1000000000000005,26.200000000000003,-67.00000000000001,113.5,16
498,8422.0,13.600000000000001,5.6000000000000005,5.4,18.3,-3.1,5.9,55.5,-69.00000000000001,88.50000000000001,16
499,8432.0,13.600000000000001,5.9,5.1000000000000005,18.3,-3.1,5.9,76.60000000000001,-57.3,48.2,16
500,8450.0,12.5,5.7,4.1000000000000005,16.400000000000002,-3.4000000000000004,4.6000000000000005,89.8,-34.50000000000001,0.9000000000000001,16
501,8465.0,11.4,5.300000000000001,3.4000000000000004,16.400000000000002,-3.4000000000000004,4.6000000000000005,98.60000000000001,-12.200000000000001,-40.6,16
502,8482.0,10.100000000000001,3.7,1.6,15.5,-4.5,3.4000000000000004,105.10000000000001,-0.8,-73.10000000000001,16
503,8498.0,9.3,1.5,0.0,15.100000000000001,-6.1000000000000005,2.1,106.9,-4.9,-99.30000000000001,16
504,8515.0,8.1,-0.5,-0.8,13.700000000000001,-8.8,1.1,102.8,-20.7,-118.10000000000001,16
505,8540.0,6.6000000000000005,-1.7000000000000002,-1.1,12.8,-9.3,1.0,96.7,-41.900000000000006,-127.1,16
506,8548.0,5.9,-2.0,-1.1,12.8,-9.3,1.0,89.4,-67.8,-127.40000000000002,16
507,8565.0,4.7,-1.8,-0.5,11.700000000000001,-8.3,2.0,79.1,-94.7,-123.4,16
508,8581.0,3.9000000000000004,-0.9,0.7000000000000001,11.4,-7.2,3.0,68.3,-114.00000000000001,-120.2,16
509,8598.0,3.6,-0.5,1.4000000000000001,11.4,-7.2,3.0,59.5,-123.5,-122.10000000000002,16
510,8618.0,3.3000000000000003,-0.1,2.4000000000000004,11.4,-6.4,3.7,54.1,-124.10000000000001,-131.29999999999998,16
511,8632.0,2.8000000000000003,-0.6000000000000001,3.2,11.100000000000001,-6.300000000000001,4.800000000000001,49.1,-114.3,-147.4,16
512,8650.0,1.6,-1.4000000000000001,3.8000000000000003,10.3,-6.7,5.0,45.2,-94.80000000000001,-165.10000000000002,16
513,8670.0,0.2,-2.4000000000000004,3.6,9.3,-7.0,4.800000000000001,45.9,-45.8,-189.3,16
514,8683.0,-0.4,-2.9000000000000004,3.3000000000000003,8.700000000000001,-7.4,4.1000000000000005,45.9,-45.8,-189.3,16
515,8698.0,-1.2000000000000002,-4.0,2.5,8.3,-7.800000000000001,3.5,48.400000000000006,-29.1,-193.20000000000002,16
516,8715.0,-1.5,-4.5,2.1,8.3,-7.800000000000001,3.5,49.50000000000001,-19.9,-193.4,16
517,8736.0,-2.1,-5.5,1.6,8.0,-8.1,3.0,49.199999999999996,-16.1,-191.39999999999998,16
518,8748.0,-2.7,-6.4,1.2000000000000002,7.0,-8.5,2.3000000000000003,47.7,-14.600000000000001,-186.3,16
519,8765.0,-3.2,-6.6000000000000005,1.0,7.0,-8.5,2.3000000000000003,45.2,-14.700000000000001,-177.70000000000002,16
520,8781.0,-3.8000000000000003,-7.0,0.8,6.5,-8.4,2.0,41.50000000000001,-18.3,-165.7,16
521,8799.0,-4.0,-6.9,0.8,6.2,-7.4,1.9000000000000001,36.9,-22.1,-151.6,16
522,8817.0,-3.8000000000000003,-6.7,0.8,6.6000000000000005,-7.0,1.9000000000000001,32.400000000000006,-25.200000000000003,-139.5,16
523,8834.0,-3.5,-6.7,0.8,6.6000000000000005,-7.0,1.9000000000000001,27.099999999999998,-27.3,-131.4,16
524,8848.0,-2.9000000000000004,-7.2,0.8,7.2,-7.0,1.8,19.5,-27.5,-129.5,16
525,8865.0,-3.0,-8.3,0.9,7.0,-8.0,1.9000000000000001,8.8,-23.6,-130.1,16
526,8881.0,-3.2,-8.8,1.0,7.0,-8.0,1.9000000000000001,-3.9,-14.400000000000002,-128.0,16
527,8898.0,-3.7,-9.5,1.0,6.5,-8.4,1.9000000000000001,-16.700000000000003,-3.1,-122.60000000000001,16
528,8915.0,-4.5,-10.100000000000001,0.8,5.1000000000000005,-8.8,1.8,-29.800000000000004,9.100000000000001,-113.5,16
529,8934.0,-5.300000000000001,-10.3,0.6000000000000001,4.4,-8.9,1.6,-43.70000000000001,20.2,-101.20000000000002,16
530,8948.0,-5.5,-10.5,0.5,4.4,-8.9,1.6,-56.50000000000001,26.6,-86.1,16
531,8965.0,-5.2,-10.9,0.4,4.4,-9.1,1.6,-66.1,24.200000000000003,-70.9,16
532,8982.0,-5.0,-11.8,0.5,4.2,-10.700000000000001,2.0,-70.7,16.4,-57.49999999999999,16
533,9001.0,-6.7,-13.0,0.8,2.4000000000000004,-11.3,2.4000000000000004,-73.2,12.7,-35.4,16
534,9015.0,-7.800000000000001,-12.600000000000001,1.0,2.4000000000000004,-11.3,2.4000000000000004,-76.0,17.799999999999997,6.9,16
535,9034.0,-7.5,-10.8,1.6,3.6,-9.4,3.5,-70.8,14.200000000000001,66.5,16
536,9049.0,-3.8000000000000003,-9.600000000000001,2.2,7.0,-9.0,3.9000000000000004,-53.10000000000001,-2.9,122.60000000000001,16
537,9065.0,-1.8,-9.1,2.4000000000000004,7.0,-9.0,3.9000000000000004,-28.0,-17.300000000000004,161.00000000000003,16
538,9081.0,1.4000000000000001,-7.7,2.1,10.100000000000001,-8.5,3.8000000000000003,-1.4,-20.3,178.70000000000002,16
539,9099.0,2.6,-6.4,0.7000000000000001,11.9,-7.300000000000001,1.4000000000000001,21.0,-17.9,178.50000000000003,16
540,9115.0,2.2,-5.800000000000001,-0.30000000000000004,11.9,-7.300000000000001,1.4000000000000001,31.799999999999997,-15.399999999999999,170.0,16
541,9135.0,0.4,-4.800000000000001,-1.7000000000000002,10.4,-6.9,0.0,25.5,-13.8,165.6,16
542,9153.0,-0.7000000000000001,-3.7,-2.0,8.6,-6.1000000000000005,-0.30000000000000004,5.1000000000000005,-12.7,171.8,16
543,9168.0,-0.4,-2.6,-0.9,8.9,-5.7,0.7000000000000001,-20.3,-10.0,182.9,16
544,9182.0,-0.1,-2.0,-0.30000000000000004,8.9,-5.7,0.7000000000000001,-43.70000000000001,-0.9000000000000001,192.50000000000003,16
545,9198.0,0.6000000000000001,-1.0,0.9,9.3,-5.300000000000001,1.8,-60.400000000000006,14.600000000000001,197.3,16
546,9215.0,1.5,-0.2,1.6,10.100000000000001,-4.9,3.0,-68.9,29.900000000000006,197.8,16
547,9233.0,1.9000000000000001,0.2,1.7000000000000002,10.100000000000001,-4.9,3.0,-69.3,41.0,195.20000000000002,16
548,9248.0,2.6,0.8,1.6,10.5,-4.800000000000001,2.9000000000000004,-63.599999999999994,46.300000000000004,190.30000000000004,16
549,9265.0,3.2,1.5,1.3,11.0,-4.5,2.4000000000000004,-55.2,42.400000000000006,184.20000000000002,16
550,9282.0,3.6,1.9000000000000001,1.1,11.0,-4.5,2.4000000000000004,-45.400000000000006,31.6,176.6,16
551,9298.0,4.5,2.4000000000000004,0.9,11.5,-4.3,2.2,-37.2,18.700000000000003,167.1,16
552,9315.0,5.2,2.8000000000000003,0.9,11.8,-4.3,2.1,-33.7,8.3,156.8,16
553,9331.0,6.0,3.1,1.3,12.700000000000001,-4.2,2.6,-35.1,4.7,146.1,16
554,9348.0,6.4,3.3000000000000003,1.5,12.700000000000001,-4.2,2.6,-40.6,10.1,133.50000000000003,16
555,9365.0,7.0,3.6,2.1,13.0,-4.2,3.0,-48.50000000000001,25.300000000000004,118.90000000000002,16
556,9381.0,7.5,3.6,2.4000000000000004,13.5,-4.5,3.5,-56.300000000000004,47.2,102.60000000000001,16
557,9399.0,7.7,3.5,2.5,13.5,-4.5,3.5,-61.39999999999999,68.2,85.20000000000002,16
558,9415.0,7.7,2.9000000000000004,2.6,13.4,-5.1000000000000005,3.6,-61.9,85.69999999999999,69.20000000000002,16
559,9432.0,7.5,2.2,2.1,13.100000000000001,-5.7,3.4000000000000004,-57.49999999999999,97.2,59.80000000000001,16
560,9449.0,7.6000000000000005,1.7000000000000002,1.8,12.8,-6.6000000000000005,2.9000000000000004,-49.6,98.10000000000001,57.49999999999999,16
561,9465.0,7.5,1.8,1.7000000000000002,12.8,-6.6000000000000005,2.9000000000000004,-37.2,89.6,60.400000000000006,16
562,9481.0,7.800000000000001,2.5,1.3,12.8,-6.2,2.7,-19.700000000000003,72.0,66.60000000000001,16
563,9498.0,9.200000000000001,2.8000000000000003,1.1,14.600000000000001,-5.7,2.8000000000000003,-0.2,42.2,68.60000000000001,16
564,9515.0,9.700000000000001,3.0,1.4000000000000001,14.600000000000001,-5.7,2.8000000000000003,19.200000000000003,13.6,64.30000000000001,16
565,9532.0,10.3,3.7,1.5,15.100000000000001,-5.1000000000000005,3.0,38.300000000000004,-5.4,55.400000000000006,16
566,9548.0,10.700000000000001,4.2,1.2000000000000002,15.5,-4.6000000000000005,2.9000000000000004,52.60000000000001,-17.300000000000004,41.6,16
567,9566.0,10.700000000000001,5.0,0.8,15.600000000000001,-3.4000000000000004,2.6,61.39999999999999,-21.300000000000004,22.8,16
568,9581.0,10.600000000000001,5.300000000000001,0.6000000000000001,15.600000000000001,-3.4000000000000004,2.6,66.1,-19.6,-0.7,16
569,9602.0,10.5,5.2,-0.2,15.700000000000001,-3.1,2.1,67.4,-17.400000000000002,-30.200000000000003,16
570,9615.0,9.9,3.8000000000000003,-1.0,15.200000000000001,-5.2,1.2000000000000002,63.30000000000001,-20.599999999999998,-65.2,16
571,9634.0,8.8,1.7000000000000002,-1.0,14.4,-6.6000000000000005,1.4000000000000001,53.9,-26.799999999999997,-97.40000000000002,16
572,9652.0,7.0,0.0,-0.6000000000000001,13.3,-7.6000000000000005,1.7000000000000002,36.0,-39.699999999999996,-134.9,16
573,9666.0,6.2,-0.5,-0.4,13.3,-7.6000000000000005,1.7000000000000002,36.0,-39.699999999999996,-134.9,16
574,9681.0,4.7,-1.0,0.2,11.5,-8.0,2.7,29.700000000000006,-49.4,-140.8,16
575,9700.0,4.1000000000000005,-1.1,0.6000000000000001,11.5,-8.0,2.7,25.200000000000003,-59.9,-143.4,16
576,9715.0,3.0,-1.1,1.9000000000000001,10.9,-7.800000000000001,3.6,25.7,-69.3,-145.00000000000003,16
577,9733.0,2.5,-1.2000000000000002,2.4000000000000004,10.4,-7.4,4.5,33.0,-73.9,-148.4,16
578,9751.0,1.1,-1.5,3.0,9.4,-7.1000000000000005,4.800000000000001,44.10000000000001,-75.4,-152.70000000000002,16
579,9771.0,0.30000000000000004,-1.8,2.8000000000000003,9.0,-6.9,4.5,65.7,-72.50000000000001,-160.50000000000003,16
580,9781.0,-0.1,-2.1,2.6,8.8,-6.9,4.1000000000000005,65.7,-72.50000000000001,-160.50000000000003,16
581,9798.0,-0.30000000000000004,-2.3000000000000003,2.3000000000000003,8.8,-6.9,4.1000000000000005,72.30000000000001,-70.10000000000001,-163.7,16
582,9820.0,-1.0,-3.1,1.4000000000000001,8.4,-6.9,2.9000000000000004,69.9,-63.0,-171.39999999999998,16
583,9832.0,-1.3,-3.4000000000000004,1.2000000000000002,8.4,-6.9,2.9000000000000004,69.9,-63.0,-171.39999999999998,16
584,9851.0,-1.9000000000000001,-4.1000000000000005,0.8,7.7,-7.0,2.1,61.9,-56.6,-174.90000000000003,16
585,9870.0,-2.6,-4.7,0.5,7.300000000000001,-7.1000000000000005,1.8,51.2,-49.199999999999996,-177.10000000000002,16
586,9881.0,-2.9000000000000004,-5.1000000000000005,0.5,7.300000000000001,-7.1000000000000005,1.8,39.1,-42.2,-177.00000000000003,16
587,9898.0,-3.7,-5.800000000000001,0.5,6.0,-7.4,1.7000000000000002,26.200000000000003,-34.7,-173.0,16
588,9915.0,-4.1000000000000005,-6.1000000000000005,0.5,6.0,-7.4,1.7000000000000002,13.6,-25.7,-164.4,16
589,9933.0,-5.1000000000000005,-6.4,0.6000000000000001,5.300000000000001,-7.2,1.7000000000000002,2.4000000000000004,-17.200000000000003,-151.5,16
590,9949.0,-5.6000000000000005,-6.4,0.6000000000000001,4.7,-6.9,1.7000000000000002,-6.0,-12.9,-135.4,16
591,9965.0,-5.1000000000000005,-6.6000000000000005,0.8,5.4,-6.800000000000001,1.9000000000000001,-12.100000000000001,-14.300000000000002,-119.30000000000003,16
592,9982.0,-4.7,-6.9,0.9,5.4,-6.800000000000001,1.9000000000000001,-16.6,-17.6,-106.30000000000001,16
593,9998.0,-4.1000000000000005,-7.5,1.2000000000000002,5.9,-7.1000000000000005,2.1,-20.1,-18.4,-97.00000000000001,16
594,10015.0,-4.0,-8.200000000000001,1.3,5.9,-7.9,2.3000000000000003,-24.0,-17.6,-88.4,16
595,10033.0,-4.3,-8.700000000000001,1.4000000000000001,5.6000000000000005,-8.0,2.3000000000000003,-29.700000000000006,-14.200000000000001,-77.60000000000001,16
596,10048.0,-4.4,-8.9,1.5,5.6000000000000005,-8.0,2.3000000000000003,-36.8,-9.100000000000001,-64.2,16
597,10065.0,-4.5,-9.3,1.7000000000000002,5.5,-8.3,2.5,-44.8,-3.0,-49.1,16
598,10081.0,-3.9000000000000004,-9.8,1.7000000000000002,6.5,-9.3,2.7,-52.400000000000006,5.6,-32.1,16
599,10098.0,-3.2,-10.100000000000001,1.7000000000000002,6.5,-9.3,2.7,-59.300000000000004,15.100000000000001,-16.1,16
600,10115.0,-2.4000000000000004,-10.5,1.4000000000000001,7.300000000000001,-9.700000000000001,2.6,-65.8,25.7,-3.8,16
601,10131.0,-3.2,-9.9,1.3,5.9,-9.1,2.5,-71.9,36.7,10.200000000000001,16
602,10149.0,-4.3,-8.9,1.1,5.4,-8.6,2.7,-74.89999999999999,43.50000000000001,33.800000000000004,16
603,10165.0,-4.3,-8.5,1.3,5.4,-8.6,2.7,-72.0,39.300000000000004,66.7,16
604,10182.0,-2.6,-7.800000000000001,2.1,6.4,-8.4,3.5,-57.699999999999996,26.700000000000003,104.2,16
605,10198.0,0.2,-6.5,2.6,10.9,-7.2,4.0,-29.400000000000002,12.8,135.7,16
606,10215.0,1.6,-5.800000000000001,2.3000000000000003,10.9,-7.2,4.0,7.8,0.2,153.60000000000002,16
607,10232.0,3.2,-4.5,0.9,12.5,-6.5,3.0,44.00000000000001,-10.700000000000001,156.20000000000002,16
608,10248.0,2.7,-3.2,-1.1,11.4,-5.1000000000000005,-0.30000000000000004,65.3,-19.0,148.1,16
609,10265.0,1.9000000000000001,-2.6,-1.9000000000000001,11.4,-5.1000000000000005,-0.30000000000000004,65.5,-22.9,140.20000000000002,16
610,10282.0,0.5,-1.4000000000000001,-2.8000000000000003,10.100000000000001,-4.5,-1.1,47.0,-21.1,138.29999999999998,16
611,10300.0,0.2,-0.4,-2.5,9.4,-3.9000000000000004,-1.2000000000000002,17.0,-12.5,140.10000000000002,16
612,10317.0,0.4,0.5,-1.4000000000000001,9.4,-3.2,0.6000000000000001,-14.800000000000002,3.3000000000000007,140.70000000000002,16
613,10331.0,0.5,0.9,-0.8,9.4,-3.2,0.6000000000000001,-40.1,23.099999999999998,138.6,16
614,10348.0,0.4,1.7000000000000002,0.2,9.200000000000001,-2.8000000000000003,1.6,-53.7,41.7,134.8,16
615,10365.0,0.7000000000000001,2.4000000000000004,0.5,9.3,-2.3000000000000003,2.1,-52.60000000000001,50.5,130.20000000000002,16
616,10384.0,1.1,3.0,0.1,9.3,-2.1,1.5,-42.800000000000004,49.50000000000001,123.7,16
617,10398.0,1.2000000000000002,3.2,-0.4,9.3,-2.1,1.5,-30.799999999999997,41.300000000000004,114.50000000000001,16
618,10417.0,1.3,3.3000000000000003,-1.1,9.3,-2.2,0.9,-23.5,28.500000000000004,104.50000000000001,16
619,10431.0,1.3,3.2,-1.2000000000000002,9.0,-2.8000000000000003,0.7000000000000001,-23.099999999999998,17.1,95.9,16
620,10448.0,1.3,3.1,-1.0,9.0,-2.8000000000000003,0.7000000000000001,-26.9,9.8,90.4,16
621,10465.0,1.6,2.8000000000000003,-0.4,9.1,-3.2,1.1,-31.799999999999997,6.9,88.4,16
622,10482.0,2.0,2.6,0.2,9.600000000000001,-3.9000000000000004,2.1,-35.2,9.3,89.10000000000001,16
623,10499.0,2.8000000000000003,2.7,0.6000000000000001,10.3,-4.0,2.2,-35.8,14.600000000000001,90.6,16
624,10515.0,3.4000000000000004,2.6,0.6000000000000001,10.3,-4.0,2.2,-33.6,16.900000000000002,90.4,16
625,10532.0,4.6000000000000005,2.2,0.7000000000000001,11.200000000000001,-4.4,2.2,-30.9,14.700000000000001,87.40000000000002,16
626,10548.0,5.5,1.8,1.1,12.5,-5.5,2.7,-27.6,13.6,84.2,16
627,10565.0,5.9,1.7000000000000002,1.2000000000000002,12.5,-5.5,2.7,-22.1,12.7,82.9,16
628,10581.0,6.7,1.5,1.3,13.100000000000001,-5.800000000000001,2.8000000000000003,-14.400000000000002,9.0,83.2,16
629,10598.0,7.7,1.7000000000000002,1.1,14.700000000000001,-5.9,2.7,-6.1000000000000005,2.1,85.30000000000001,16
630,10615.0,8.4,1.7000000000000002,1.2000000000000002,14.700000000000001,-5.9,2.7,1.6,-9.4,85.69999999999999,16
631,10633.0,9.8,1.9000000000000001,1.5,15.8,-5.800000000000001,2.9000000000000004,9.100000000000001,-20.900000000000002,81.60000000000001,16
632,10648.0,11.0,2.1,1.6,16.8,-5.800000000000001,3.1,17.6,-30.799999999999997,72.50000000000001,16
633,10665.0,11.5,2.5,2.2,17.400000000000002,-5.0,3.9000000000000004,25.900000000000002,-36.5,58.900000000000006,16
634,10681.0,11.200000000000001,3.1,2.4000000000000004,17.400000000000002,-5.0,3.9000000000000004,35.4,-30.799999999999997,42.900000000000006,16
635,10698.0,10.3,4.9,1.9000000000000001,16.7,-3.5,3.8000000000000003,46.6,-17.0,23.3,16
636,10715.0,9.700000000000001,5.9,0.5,15.9,-2.1,1.8,55.0,-9.3,-6.2,16
637,10732.0,9.0,4.7,-0.5,15.200000000000001,-3.5,1.4000000000000001,56.9,-11.4,-44.4,16
638,10748.0,8.200000000000001,3.5,-0.6000000000000001,15.200000000000001,-3.5,1.4000000000000001,53.0,-17.6,-83.70000000000002,16
639,10765.0,6.2,1.4000000000000001,-0.30000000000000004,13.9,-5.1000000000000005,1.6,48.10000000000001,-22.9,-110.9,16
640,10781.0,4.3,-0.1,-0.2,11.200000000000001,-7.0,1.8,46.800000000000004,-29.900000000000006,-124.0,16
641,10798.0,3.4000000000000004,-0.6000000000000001,-0.2,11.200000000000001,-7.0,1.8,46.9,-39.599999999999994,-126.10000000000001,16
642,10815.0,2.1,-0.8,0.1,10.200000000000001,-7.1000000000000005,2.0,46.9,-50.900000000000006,-120.7,16
643,10831.0,1.4000000000000001,-0.5,0.7000000000000001,9.600000000000001,-6.1000000000000005,2.8000000000000003,48.800000000000004,-62.199999999999996,-113.8,16
644,10848.0,1.2000000000000002,-0.30000000000000004,1.0,9.600000000000001,-6.1000000000000005,2.8000000000000003,52.7,-71.39999999999999,-110.2,16
645,10865.0,0.9,-0.1,1.3,9.600000000000001,-5.5,3.1,57.3,-75.7,-112.20000000000002,16
646,10884.0,0.30000000000000004,0.0,1.2000000000000002,9.3,-5.1000000000000005,3.0,59.9,-74.60000000000001,-117.7,16
647,10899.0,-0.30000000000000004,-0.30000000000000004,1.0,8.700000000000001,-4.800000000000001,2.4000000000000004,59.40000000000001,-70.9,-124.50000000000001,16
648,10919.0,-0.8,-0.9,0.7000000000000001,8.5,-5.1000000000000005,2.1,49.6,-61.39999999999999,-138.00000000000003,16
649,10932.0,-1.0,-1.4000000000000001,0.7000000000000001,8.5,-5.1000000000000005,2.1,49.6,-61.39999999999999,-138.00000000000003,16
650,10948.0,-1.3,-2.3000000000000003,0.7000000000000001,8.3,-5.9,1.9000000000000001,42.1,-56.800000000000004,-142.79999999999998,16
651,10965.0,-1.5,-2.7,0.7000000000000001,8.3,-5.9,1.9000000000000001,34.300000000000004,-52.7,-146.60000000000002,16
652,10981.0,-2.0,-3.7,0.9,8.0,-6.300000000000001,2.0,26.400000000000006,-47.7,-148.20000000000002,16
653,10998.0,-2.8000000000000003,-4.2,1.0,7.4,-6.5,2.0,18.6,-41.1,-146.3,16
654,11018.0,-3.5,-4.5,1.0,6.4,-6.2,1.9000000000000001,10.9,-35.0,-141.5,16
655,11031.0,-3.7,-4.6000000000000005,1.0,6.4,-6.2,1.9000000000000001,3.3000000000000007,-29.500000000000004,-134.8,16
656,11048.0,-3.9000000000000004,-4.9,1.1,6.2,-6.1000000000000005,1.8,-4.7,-24.5,-127.80000000000001,16
657,11065.0,-3.8000000000000003,-5.300000000000001,1.1,6.5,-6.300000000000001,1.7000000000000002,-13.100000000000001,-19.300000000000004,-122.10000000000002,16
658,11082.0,-3.7,-5.6000000000000005,1.0,6.5,-6.300000000000001,1.7000000000000002,-22.4,-14.300000000000002,-118.40000000000002,16
659,11098.0,-3.4000000000000004,-6.6000000000000005,0.8,6.7,-6.800000000000001,1.5,-33.300000000000004,-9.3,-115.8,16
660,11115.0,-3.7,-7.800000000000001,1.0,6.2,-8.200000000000001,1.8,-45.6,-2.9,-111.4,16
661,11131.0,-4.1000000000000005,-8.8,1.3,5.6000000000000005,-8.6,2.2,-57.20000000000001,4.300000000000001,-100.9,16
662,11148.0,-4.6000000000000005,-8.9,1.5,5.6000000000000005,-8.6,2.2,-66.5,13.6,-84.0,16
663,11165.0,-5.1000000000000005,-8.700000000000001,1.5,5.0,-8.4,2.4000000000000004,-72.2,23.099999999999998,-61.9,16
664,11182.0,-4.6000000000000005,-8.9,1.6,5.5,-8.5,2.7,-75.8,26.5,-37.800000000000004,16
665,11198.0,-4.4,-8.8,1.7000000000000002,5.5,-8.5,2.7,-77.9,31.799999999999997,-15.5,16
666,11215.0,-3.9000000000000004,-8.6,1.6,5.9,-8.4,2.8000000000000003,-77.20000000000002,37.2,3.8,16
667,11231.0,-3.4000000000000004,-8.5,1.2000000000000002,6.4,-8.4,2.6,-74.4,39.9,20.1,16
668,11248.0,-3.6,-7.9,1.2000000000000002,6.1000000000000005,-7.9,2.7,-70.9,40.5,36.6,16
669,11269.0,-3.4000000000000004,-7.1000000000000005,1.2000000000000002,6.5,-7.7,2.8000000000000003,-49.199999999999996,28.400000000000002,78.9,16
670,11287.0,-2.3000000000000003,-6.7,1.2000000000000002,7.4,-7.7,2.9000000000000004,-29.500000000000004,13.8,102.0,16
671,11301.0,-1.5,-6.7,1.2000000000000002,8.8,-8.0,2.9000000000000004,-29.500000000000004,13.8,102.0,16
672,11315.0,-0.7000000000000001,-6.5,1.2000000000000002,8.8,-8.0,2.9000000000000004,-6.8,-0.8,123.4,16
673,11331.0,1.0,-5.800000000000001,0.9,10.200000000000001,-7.800000000000001,2.7,16.700000000000003,-11.000000000000002,140.9,16
674,11348.0,2.2,-4.5,0.0,11.8,-6.5,0.9,37.1,-18.5,150.5,16
675,11365.0,2.4000000000000004,-3.8000000000000003,-0.7000000000000001,11.8,-6.5,0.9,47.400000000000006,-25.0,152.0,16
676,11382.0,1.9000000000000001,-2.1,-1.8,11.3,-5.5,-0.1,42.0,-27.5,149.10000000000002,16
677,11400.0,1.1,-0.4,-1.8,10.5,-4.4,-0.4,21.900000000000002,-23.2,146.3,16
678,11415.0,1.0,0.8,-1.0,10.0,-3.1,0.8,-3.9,-11.1,142.79999999999998,16
679,11432.0,1.1,1.2000000000000002,-0.5,10.0,-3.1,0.8,-28.400000000000002,7.300000000000001,135.5,16
680,11449.0,1.1,1.9000000000000001,0.4,9.9,-2.8000000000000003,1.6,-47.400000000000006,28.200000000000003,125.30000000000001,16
681,11465.0,0.8,2.4000000000000004,1.2000000000000002,9.1,-2.5,2.8000000000000003,-54.6,45.400000000000006,113.89999999999999,16
682,11481.0,0.5,2.8000000000000003,1.2000000000000002,8.700000000000001,-2.4000000000000004,2.6,-49.6,54.300000000000004,103.3,16
683,11498.0,0.4,3.0,0.9,8.700000000000001,-2.4000000000000004,2.6,-37.1,55.5,93.89999999999999,16
684,11515.0,0.4,3.2,-0.2,8.5,-2.4000000000000004,1.8,-25.6,50.0,85.30000000000001,16
685,11535.0,0.5,3.2,-1.0,8.3,-2.8000000000000003,0.5,-21.6,41.300000000000004,77.1,16
686,11548.0,0.5,3.0,-1.3,8.3,-2.8000000000000003,0.5,-25.1,32.6,68.9,16
687,11566.0,0.5,2.6,-1.3,8.200000000000001,-3.3000000000000003,0.5,-33.9,26.300000000000004,61.9,16
688,11581.0,0.2,2.1,-0.8,7.6000000000000005,-4.4,1.4000000000000001,-44.300000000000004,24.5,59.00000000000001,16
689,11598.0,0.1,1.8,-0.30000000000000004,7.6000000000000005,-4.4,1.4000000000000001,-52.2,24.8,61.10000000000001,16
690,11615.0,0.2,1.6,0.30000000000000004,7.5,-4.7,1.9000000000000001,-55.7,26.300000000000004,66.3,16
691,11632.0,1.0,1.5,0.6000000000000001,7.800000000000001,-5.0,2.1,-56.0,25.1,72.9,16
692,11648.0,2.5,0.9,1.3,9.9,-6.2,3.0,-54.1,20.0,78.10000000000001,16
693,11665.0,3.2,0.7000000000000001,1.6,9.9,-6.2,3.0,-49.50000000000001,16.200000000000003,82.3,16
694,11682.0,4.2,0.30000000000000004,1.9000000000000001,10.700000000000001,-6.7,3.3000000000000003,-41.199999999999996,10.5,88.20000000000002,16
695,11698.0,5.300000000000001,0.2,2.5,12.4,-6.9,4.1000000000000005,-27.3,-3.1,99.9,16
696,11718.0,7.300000000000001,1.1,2.6,14.5,-6.5,3.7,-7.0,-21.8,114.80000000000001,16
697,11731.0,8.9,1.3,2.3000000000000003,14.5,-6.5,3.7,16.1,-50.5,125.00000000000001,16
698,11748.0,11.8,1.6,2.8000000000000003,16.900000000000002,-6.5,3.8000000000000003,35.2,-81.90000000000002,124.2,16
699,11766.0,13.5,2.8000000000000003,3.5,19.400000000000002,-4.7,4.9,52.7,-95.69999999999999,114.40000000000002,16
700,11782.0,13.700000000000001,3.7,3.6,19.400000000000002,-4.7,4.9,67.9,-90.6,94.0,16
701,11799.0,13.4,5.800000000000001,3.3000000000000003,19.3,-2.9000000000000004,4.9,77.1,-68.9,60.900000000000006,16
702,11815.0,12.700000000000001,6.6000000000000005,2.2,18.0,-1.9000000000000001,3.3000000000000003,78.0,-39.8,14.400000000000002,16
703,11835.0,11.0,5.0,0.9,16.6,-3.6,2.4000000000000004,72.30000000000001,-12.299999999999999,-39.2,16
704,11854.0,8.8,2.3000000000000003,-0.1,15.0,-5.6000000000000005,1.8,50.900000000000006,23.099999999999998,-120.4,16
705,11865.0,7.6000000000000005,1.1,-0.5,15.0,-5.6000000000000005,1.8,50.900000000000006,23.099999999999998,-120.4,16
706,11885.0,4.800000000000001,-0.6000000000000001,-0.7000000000000001,10.8,-7.9,1.3,42.5,27.099999999999998,-136.0,16
707,11899.0,3.3000000000000003,-1.1,-1.1,10.8,-7.9,1.3,40.0,22.2,-133.60000000000002,16
708,11915.0,1.4000000000000001,-1.1,-1.7000000000000002,9.200000000000001,-7.800000000000001,0.8,39.9,3.1,-118.80000000000003,16
709,11933.0,0.8,-0.8,-1.1,8.5,-6.800000000000001,1.7000000000000002,42.0,-29.700000000000006,-102.5,16
710,11948.0,0.6000000000000001,-0.6000000000000001,-0.6000000000000001,8.5,-6.800000000000001,1.7000000000000002,49.9,-63.8,-90.70000000000002,16
711,11965.0,0.1,0.0,0.30000000000000004,8.3,-6.1000000000000005,2.3000000000000003,63.2,-93.3,-83.60000000000001,16
712,11982.0,-0.30000000000000004,0.6000000000000001,1.1,8.200000000000001,-5.300000000000001,2.9000000000000004,79.8,-117.0,-82.0,16
713,11998.0,-0.6000000000000001,0.8,1.4000000000000001,8.1,-4.4,3.2,95.9,-133.0,-85.30000000000001,16
714,12015.0,-0.7000000000000001,0.7000000000000001,1.5,8.1,-4.4,3.2,106.20000000000002,-140.6,-91.4,16
715,12031.0,-0.6000000000000001,0.2,1.5,8.3,-4.5,3.1,107.9,-137.70000000000002,-99.60000000000001,16
716,12048.0,-1.0,-0.7000000000000001,1.2000000000000002,8.1,-5.300000000000001,2.2,102.2,-126.0,-108.90000000000002,16
717,12065.0,-1.3,-1.1,1.0,8.1,-5.300000000000001,2.2,90.1,-110.80000000000001,-116.2,16
718,12081.0,-1.7000000000000002,-2.1,0.7000000000000001,7.9,-5.7,1.8,73.0,-93.3,-120.80000000000001,16
719,12098.0,-2.1,-2.7,0.8,7.7,-6.0,1.6,52.7,-74.10000000000001,-123.1,16
720,12115.0,-2.3000000000000003,-3.0,0.8,7.5,-6.1000000000000005,1.6,32.7,-55.400000000000006,-123.30000000000003,16
721,12131.0,-2.5,-3.2,0.9,7.2,-6.2,1.5,14.200000000000001,-37.7,-122.20000000000002,16
722,12151.0,-3.2,-3.6,0.7000000000000001,6.9,-6.1000000000000005,1.4000000000000001,-3.5,-21.8,-120.10000000000001,16
723,12166.0,-3.4000000000000004,-3.9000000000000004,0.8,6.7,-6.1000000000000005,1.4000000000000001,-20.3,-9.899999999999999,-116.80000000000001,16
724,12185.0,-3.2,-4.6000000000000005,0.9,6.9,-6.5,1.5,-34.300000000000004,-2.5,-113.8,16
725,12199.0,-3.1,-5.1000000000000005,1.0,6.9,-6.5,1.5,-45.2,1.3,-111.80000000000001,16
726,12216.0,-3.0,-6.1000000000000005,1.4000000000000001,7.1000000000000005,-7.1000000000000005,1.8,-53.7,3.0,-110.30000000000001,16
727,12233.0,-3.0,-7.2,1.6,7.1000000000000005,-8.4,2.3000000000000003,-60.00000000000001,3.9,-107.6,16
728,12249.0,-3.0,-7.7,1.7000000000000002,7.1000000000000005,-8.4,2.3000000000000003,-65.0,3.8,-102.4,16
729,12267.0,-3.2,-8.6,1.9000000000000001,7.0,-9.0,2.4000000000000004,-69.7,3.4,-94.10000000000001,16
730,12283.0,-3.3000000000000003,-9.4,2.2,6.7,-9.9,2.9000000000000004,-74.80000000000001,3.1,-82.0,16
731,12300.0,-3.5,-9.700000000000001,2.5,6.6000000000000005,-10.200000000000001,3.3000000000000003,-79.9,4.9,-66.9,16
732,12315.0,-3.4000000000000004,-9.9,2.7,6.6000000000000005,-10.200000000000001,3.3000000000000003,-83.5,9.4,-49.50000000000001,16
733,12331.0,-3.3000000000000003,-10.4,2.7,6.7,-10.5,3.4000000000000004,-84.6,15.700000000000001,-31.099999999999998,16
734,12350.0,-4.2,-10.4,2.5,5.2,-10.700000000000001,3.3000000000000003,-83.89999999999999,24.400000000000002,-9.2,16
735,12367.0,-5.7,-9.1,2.2,4.2,-9.5,3.1,-73.5,37.7,60.6,16
736,12381.0,-5.800000000000001,-8.1,2.1,4.2,-9.5,3.1,-73.5,37.7,60.6,16
737,12398.0,-4.0,-6.800000000000001,2.3000000000000003,7.0,-8.0,3.6,-58.60000000000001,28.1,99.30000000000001,16
738,12418.0,-1.2000000000000002,-5.9,2.7,9.200000000000001,-7.6000000000000005,3.8000000000000003,-35.1,12.4,127.69999999999999,16
739,12431.0,0.2,-5.300000000000001,2.7,9.200000000000001,-7.6000000000000005,3.8000000000000003,-4.5,1.8000000000000003,142.60000000000002,16
740,12452.0,2.0,-4.3,1.8,11.700000000000001,-6.7,2.1,30.000000000000004,-2.5,143.70000000000002,16
741,12466.0,1.9000000000000001,-3.4000000000000004,-0.1,10.8,-6.2,0.30000000000000004,58.3,-4.800000000000001,135.4,16
742,12482.0,1.2000000000000002,-2.9000000000000004,-1.2000000000000002,10.8,-6.2,0.30000000000000004,72.4,-7.1000000000000005,125.4,16
743,12500.0,-0.30000000000000004,-2.1,-2.4000000000000004,9.4,-5.9,-0.9,68.7,-11.900000000000002,121.10000000000001,16
744,12516.0,-1.1,-1.1,-2.1,7.9,-4.9,-0.30000000000000004,53.2,-16.0,124.50000000000001,16
745,12531.0,-1.1,-0.6000000000000001,-1.4000000000000001,7.9,-4.9,-0.30000000000000004,36.0,-15.000000000000002,130.5,16
746,12548.0,-0.6000000000000001,0.5,0.0,8.1,-4.3,1.0,24.8,-6.2,134.10000000000002,16
747,12567.0,0.0,1.3,0.7000000000000001,8.700000000000001,-3.4000000000000004,1.9000000000000001,23.099999999999998,8.100000000000001,133.3,16
748,12581.0,0.5,2.0,0.1,8.700000000000001,-3.2,1.3,27.5,20.900000000000002,128.4,16
749,12598.0,0.5,2.3000000000000003,-0.4,8.700000000000001,-3.2,1.3,33.0,27.6,120.7,16
750,12617.0,0.5,2.6,-1.6,8.6,-3.1,0.4,34.50000000000001,27.700000000000003,112.0,16
751,12635.0,0.5,2.9000000000000004,-1.9000000000000001,8.4,-3.2,-0.2,30.9,21.200000000000003,103.89999999999999,16
752,12650.0,1.0,2.8000000000000003,-2.0,8.700000000000001,-3.3000000000000003,-0.2,24.5,16.0,97.40000000000002,16
753,12665.0,1.3,2.9000000000000004,-2.0,8.700000000000001,-3.3000000000000003,-0.2,15.000000000000002,14.300000000000002,91.30000000000001,16
754,12681.0,1.9000000000000001,2.9000000000000004,-1.8,9.4,-3.7,0.2,2.4000000000000004,18.4,83.89999999999999,16
755,12698.0,2.4000000000000004,2.8000000000000003,-1.5,9.600000000000001,-3.9000000000000004,0.5,-12.299999999999999,26.700000000000003,76.3,16
756,12715.0,2.6,2.7,-1.3,9.600000000000001,-3.9000000000000004,0.5,-28.0,39.699999999999996,68.3,16
757,12731.0,2.8000000000000003,2.5,-1.1,9.700000000000001,-4.2,0.7000000000000001,-44.2,56.2,61.0,16
758,12748.0,3.2,2.2,-1.0,10.200000000000001,-5.2,1.0,-59.300000000000004,70.6,54.800000000000004,16
759,12765.0,3.5,1.8,-1.0,10.200000000000001,-5.2,1.0,-71.9,78.10000000000001,49.199999999999996,16
760,12781.0,4.2,0.9,-0.4,10.600000000000001,-6.1000000000000005,1.3,-81.0,80.9,45.0,16
761,12798.0,4.7,0.0,0.0,11.5,-7.800000000000001,2.1,-83.70000000000002,82.0,44.9,16
762,12815.0,5.1000000000000005,-0.4,0.2,11.5,-7.800000000000001,2.1,-80.30000000000001,77.3,49.199999999999996,16
763,12831.0,5.9,-0.8,0.6000000000000001,12.100000000000001,-8.3,2.4000000000000004,-71.7,66.0,56.7,16
764,12848.0,7.1000000000000005,-1.0,1.1,12.9,-8.700000000000001,2.7,-58.7,47.1,65.2,16
765,12873.0,8.0,-0.2,1.7000000000000002,14.3,-7.800000000000001,3.6,-40.5,26.000000000000004,72.30000000000001,16
766,12882.0,8.5,0.30000000000000004,1.9000000000000001,14.3,-7.800000000000001,3.6,-16.1,2.7,76.89999999999999,16
767,12898.0,9.1,1.6,2.2,14.8,-6.9,3.9000000000000004,11.8,-21.1,75.7,16
768,12915.0,9.200000000000001,3.2,2.3000000000000003,14.9,-4.3,3.9000000000000004,40.9,-37.0,69.00000000000001,16
769,12932.0,9.4,4.7,1.6,15.100000000000001,-3.1,3.2,68.7,-45.8,56.10000000000001,16
770,12948.0,9.4,5.300000000000001,1.0,15.100000000000001,-3.1,3.2,90.5,-48.400000000000006,33.800000000000004,16
771,12965.0,9.3,5.5,-0.7000000000000001,15.200000000000001,-2.6,2.1,100.5,-45.8,0.6000000000000001,16
772,12981.0,8.4,4.1000000000000005,-2.0,14.100000000000001,-4.2,0.1,96.0,-43.6,-37.9,16
773,12998.0,7.7,3.3000000000000003,-2.4000000000000004,14.100000000000001,-4.2,0.1,82.0,-39.599999999999994,-71.8,16
774,13016.0,5.7,1.6,-3.0,12.700000000000001,-5.5,-0.30000000000000004,63.30000000000001,-34.400000000000006,-94.0,16
775,13033.0,4.5,0.30000000000000004,-3.1,11.0,-7.2,-0.30000000000000004,43.00000000000001,-35.9,-102.3,16
776,13050.0,3.2,-0.4,-2.1,10.200000000000001,-7.1000000000000005,0.7000000000000001,24.900000000000002,-43.4,-103.3,16
777,13065.0,2.6,-0.30000000000000004,-1.4000000000000001,10.200000000000001,-7.1000000000000005,0.7000000000000001,13.5,-52.1,-99.2,16
778,13082.0,1.8,0.4,-0.4,9.600000000000001,-6.4,1.5,10.700000000000001,-63.599999999999994,-92.8,16
779,13098.0,1.6,1.1,0.7000000000000001,9.5,-4.9,2.9000000000000004,13.8,-77.3,-91.50000000000001,16
780,13115.0,1.4000000000000001,1.2000000000000002,1.1,9.5,-4.9,2.9000000000000004,19.5,-86.60000000000001,-96.60000000000001,16
781,13131.0,1.0,1.1,1.5,9.4,-4.7,3.2,23.6,-89.6,-105.80000000000001,16
782,13152.0,0.5,0.5,1.8,9.0,-5.0,3.3000000000000003,24.900000000000002,-85.0,-116.1,16
783,13165.0,-0.2,-0.2,1.8,8.6,-5.300000000000001,3.1,23.6,-74.10000000000001,-126.49999999999999,16
784,13189.0,-0.9,-1.0,1.6,8.200000000000001,-5.6000000000000005,2.8000000000000003,15.2,-46.300000000000004,-138.29999999999998,16
785,13198.0,-1.2000000000000002,-1.4000000000000001,1.5,8.200000000000001,-5.6000000000000005,2.8000000000000003,15.2,-46.300000000000004,-138.29999999999998,16
786,13215.0,-1.7000000000000002,-2.1,1.1,7.6000000000000005,-6.1000000000000005,2.2,9.8,-35.9,-141.0,16
787,13231.0,-1.9000000000000001,-2.5,1.0,7.6000000000000005,-6.1000000000000005,2.2,4.0,-29.400000000000002,-142.3,16
788,13248.0,-2.5,-3.2,1.1,7.300000000000001,-6.4,2.1,-1.1,-25.8,-142.0,16
789,13265.0,-3.2,-3.8000000000000003,1.2000000000000002,6.5,-6.7,2.2,-4.7,-24.5,-138.8,16
790,13281.0,-3.7,-4.3,1.4000000000000001,6.2,-6.6000000000000005,2.3000000000000003,-7.300000000000001,-24.0,-132.5,16
791,13299.0,-3.9000000000000004,-4.3,1.4000000000000001,6.2,-6.6000000000000005,2.3000000000000003,-9.600000000000001,-22.4,-123.7,16
792,13315.0,-3.8000000000000003,-4.4,1.4000000000000001,6.1000000000000005,-6.4,2.2,-11.900000000000002,-20.1,-114.6,16
793,13331.0,-3.3000000000000003,-5.0,1.2000000000000002,6.800000000000001,-6.9,1.9000000000000001,-15.6,-18.700000000000003,-108.8,16
794,13348.0,-3.2,-5.5,1.1,6.800000000000001,-6.9,1.9000000000000001,-22.4,-15.700000000000001,-106.0,16
795,13365.0,-3.1,-6.5,1.2000000000000002,7.0,-7.4,1.9000000000000001,-31.5,-10.600000000000001,-103.40000000000002,16
796,13382.0,-3.3000000000000003,-7.6000000000000005,1.4000000000000001,6.5,-8.8,2.2,-40.9,-4.800000000000001,-99.00000000000001,16
797,13399.0,-4.0,-8.3,1.6,5.9,-9.1,2.4000000000000004,-50.400000000000006,2.2,-90.5,16
798,13415.0,-4.3,-8.5,1.7000000000000002,5.9,-9.1,2.4000000000000004,-59.5,10.5,-76.7,16
799,13431.0,-4.7,-9.1,1.9000000000000001,5.4,-9.5,2.5,-67.9,14.800000000000002,-58.400000000000006,16
800,13448.0,-5.0,-9.1,2.6,4.9,-9.700000000000001,3.6,-73.4,18.1,-36.6,16
801,13465.0,-5.1000000000000005,-9.0,2.8000000000000003,4.9,-9.700000000000001,3.6,-74.4,21.500000000000004,-13.5,16
802,13482.0,-4.9,-9.1,3.1,4.9,-9.8,4.0,-70.9,24.8,9.0,16
803,13498.0,-5.0,-8.8,3.1,4.6000000000000005,-9.700000000000001,4.2,-63.8,27.800000000000004,32.1,16
804,13515.0,-5.2,-8.6,3.1,4.6000000000000005,-9.700000000000001,4.2,-54.199999999999996,29.1,59.699999999999996,16
805,13531.0,-4.800000000000001,-7.6000000000000005,3.5,4.7,-9.3,4.6000000000000005,-39.1,27.6,93.10000000000001,16
806,13548.0,-2.7,-6.5,3.5,6.1000000000000005,-8.8,4.800000000000001,-14.5,22.8,126.0,16
807,13565.0,-1.3,-6.2,3.2,8.200000000000001,-8.5,4.6000000000000005,16.900000000000002,15.100000000000001,148.70000000000002,16
808,13582.0,1.2000000000000002,-5.6000000000000005,2.1,10.3,-8.5,3.7,48.50000000000001,7.8,159.70000000000002,16
809,13598.0,2.7,-4.7,0.4,11.600000000000001,-8.200000000000001,2.5,75.00000000000001,1.8000000000000003,161.4,16
810,13615.0,2.7,-3.5,-1.4000000000000001,11.3,-7.0,-0.4,90.19999999999999,-4.1,156.9,16
811,13632.0,1.6,-2.1,-2.7,11.3,-7.0,-0.4,90.80000000000001,-10.5,151.4,16
812,13648.0,1.0,-1.3,-2.9000000000000004,10.100000000000001,-6.0,-1.1,77.5,-14.5,149.0,16
813,13665.0,0.5,0.30000000000000004,-2.4000000000000004,9.200000000000001,-5.0,-1.0,55.5,-13.399999999999999,150.5,16
814,13681.0,0.8,1.8,-1.3,9.200000000000001,-3.3000000000000003,0.9,33.7,-6.500000000000001,150.6,16
815,13698.0,1.1,2.3000000000000003,-0.8,9.200000000000001,-3.3000000000000003,0.9,17.300000000000004,6.9,145.9,16
816,13715.0,1.8,3.2,-0.1,9.600000000000001,-2.7,1.6,7.8,22.9,135.9,16
817,13731.0,2.0,3.9000000000000004,-0.1,9.5,-2.0,1.8,5.9,36.6,121.10000000000001,16
818,13748.0,2.0,4.2,-0.30000000000000004,9.5,-2.0,1.8,8.600000000000001,43.800000000000004,104.00000000000001,16
819,13765.0,1.7000000000000002,4.3,-0.9,9.1,-2.0,1.4000000000000001,11.5,44.4,87.60000000000001,16
820,13781.0,1.5,4.0,-1.4000000000000001,8.6,-2.6,0.8,11.2,42.3,73.8,16
821,13798.0,1.4000000000000001,3.9000000000000004,-1.7000000000000002,8.6,-2.6,0.8,7.500000000000001,41.300000000000004,63.500000000000014,16
822,13817.0,1.5,3.7,-1.8,8.5,-3.1,0.7000000000000001,-6.500000000000001,42.0,49.50000000000001,16
823,13835.0,1.7000000000000002,3.5,-1.7000000000000002,8.5,-3.1,0.7000000000000001,-6.500000000000001,42.0,49.50000000000001,16
824,13849.0,2.0,3.2,-1.2000000000000002,8.700000000000001,-3.7,1.5,-14.700000000000001,45.9,43.70000000000001,16
825,13865.0,2.0,3.2,-1.1,8.700000000000001,-3.7,1.5,-20.5,52.60000000000001,38.300000000000004,16
826,13881.0,2.1,3.1,-1.2000000000000002,8.6,-3.8000000000000003,1.5,-24.7,59.699999999999996,34.300000000000004,16
827,13898.0,2.8000000000000003,2.5,-1.5,9.700000000000001,-5.1000000000000005,1.2000000000000002,-29.400000000000002,62.199999999999996,30.1,16
828,13915.0,3.3000000000000003,1.9000000000000001,-1.5,9.700000000000001,-5.1000000000000005,1.2000000000000002,-35.3,59.9,25.5,16
829,13932.0,4.2,0.2,-1.2000000000000002,10.4,-6.7,1.5,-40.7,56.2,23.099999999999998,16
830,13948.0,4.6000000000000005,-1.0,-0.7000000000000001,10.8,-7.9,1.9000000000000001,-42.2,53.8,27.0,16
831,13965.0,5.0,-1.1,-0.30000000000000004,11.3,-8.0,2.6,-36.8,48.10000000000001,38.300000000000004,16
832,13982.0,5.6000000000000005,0.5,-0.2,11.3,-8.0,2.6,-25.6,38.400000000000006,51.50000000000001,16
833,13998.0,6.4,1.2000000000000002,-0.5,12.0,-6.6000000000000005,2.4000000000000004,-11.2,22.4,58.900000000000006,16
834,14015.0,8.200000000000001,1.3,-0.5,14.4,-6.5,2.7,-0.7,-0.7,53.10000000000001,16
835,14034.0,8.4,1.2000000000000002,0.4,14.200000000000001,-6.5,3.1,6.600000000000001,-10.600000000000001,39.400000000000006,16
836,14052.0,8.200000000000001,0.9,0.0,14.100000000000001,-6.800000000000001,2.6,31.400000000000002,-10.299999999999999,19.6,16
837,14066.0,8.200000000000001,0.8,-0.6000000000000001,14.100000000000001,-6.800000000000001,2.6,31.400000000000002,-10.299999999999999,19.6,16
838,14083.0,7.800000000000001,1.0,-1.7000000000000002,13.600000000000001,-6.300000000000001,0.9,43.300000000000004,-16.8,14.800000000000002,16
839,14099.0,7.5,1.4000000000000001,-2.1,13.600000000000001,-6.300000000000001,0.9,53.50000000000001,-29.300000000000004,12.600000000000001,16
840,14120.0,8.200000000000001,2.8000000000000003,-3.4000000000000004,14.5,-4.6000000000000005,-0.5,66.7,-72.30000000000001,-9.600000000000001,16
841,14135.0,8.4,2.8000000000000003,-3.7,14.9,-4.800000000000001,-0.9,66.7,-72.30000000000001,-9.600000000000001,16
842,14148.0,8.4,2.5,-3.8000000000000003,14.9,-4.800000000000001,-0.9,60.5,-94.5,-36.300000000000004,16
843,14165.0,7.300000000000001,1.5,-3.2,14.3,-5.5,-0.6000000000000001,46.0,-105.4,-62.199999999999996,16
844,14183.0,5.9,0.7000000000000001,-2.5,13.4,-6.0,-0.1,27.400000000000002,-105.5,-80.60000000000001,16
845,14199.0,4.800000000000001,0.2,-1.6,11.9,-6.5,1.0,5.9,-100.9,-93.8,16
846,14215.0,4.2,0.1,-1.0,11.9,-6.5,1.0,-16.1,-91.10000000000001,-104.3,16
847,14233.0,3.0,0.0,0.6000000000000001,11.200000000000001,-6.300000000000001,2.1,-33.50000000000001,-76.60000000000001,-113.00000000000001,16
848,14249.0,1.7000000000000002,-0.1,1.8,9.600000000000001,-5.800000000000001,3.7,-40.9,-61.300000000000004,-120.3,16
849,14265.0,1.2000000000000002,-0.1,2.2,9.600000000000001,-5.800000000000001,3.7,-39.599999999999994,-47.900000000000006,-126.30000000000001,16
850,14281.0,0.30000000000000004,-0.30000000000000004,2.5,9.1,-5.7,3.9000000000000004,-32.2,-38.2,-130.8,16
851,14298.0,-0.30000000000000004,-0.6000000000000001,2.5,8.8,-5.6000000000000005,3.8000000000000003,-21.6,-31.9,-134.20000000000002,16
852,14316.0,-0.7000000000000001,-1.1,2.2,8.4,-5.7,3.2,-10.0,-27.800000000000004,-137.70000000000002,16
853,14334.0,-1.2000000000000002,-1.7000000000000002,1.7000000000000002,8.1,-5.800000000000001,2.7,0.30000000000000004,-26.5,-141.4,16
854,14350.0,-1.5,-2.0,1.5,8.1,-5.800000000000001,2.7,7.6,-28.400000000000002,-144.60000000000002,16
855,14366.0,-1.9000000000000001,-2.9000000000000004,1.2000000000000002,7.6000000000000005,-6.5,2.1,11.000000000000002,-32.400000000000006,-146.9,16
856,14381.0,-2.2,-3.3000000000000003,1.1,7.6000000000000005,-6.5,2.1,10.700000000000001,-34.900000000000006,-147.5,16
857,14398.0,-2.9000000000000004,-4.0,1.0,7.1000000000000005,-6.7,1.9000000000000001,7.500000000000001,-34.60000000000001,-145.3,16
858,14415.0,-3.8000000000000003,-4.4,1.1,6.5,-6.7,1.9000000000000001,2.1,-32.300000000000004,-139.5,16
859,14431.0,-4.3,-4.6000000000000005,1.1,5.7,-6.5,1.9000000000000001,-4.800000000000001,-28.800000000000004,-131.9,16
860,14448.0,-4.5,-4.800000000000001,1.2000000000000002,5.7,-6.5,1.9000000000000001,-12.7,-24.5,-123.9,16
861,14465.0,-4.5,-5.2,1.4000000000000001,5.6000000000000005,-6.5,2.0,-20.400000000000002,-19.1,-115.39999999999999,16
862,14481.0,-4.2,-6.1000000000000005,1.4000000000000001,6.0,-7.5,2.0,-28.3,-14.0,-108.3,16
863,14500.0,-4.1000000000000005,-7.2,1.6,6.0,-8.200000000000001,2.2,-37.2,-9.4,-101.4,16
864,14515.0,-4.2,-7.7,1.8,6.0,-8.200000000000001,2.2,-46.199999999999996,-4.2,-92.7,16
865,14531.0,-4.6000000000000005,-8.200000000000001,2.1,5.6000000000000005,-8.700000000000001,2.6,-53.8,2.4000000000000004,-79.39999999999999,16
866,14548.0,-4.800000000000001,-8.3,2.4000000000000004,5.4,-8.8,3.1,-59.300000000000004,7.699999999999999,-62.6,16
867,14569.0,-4.3,-8.6,2.7,5.800000000000001,-9.0,3.4000000000000004,-65.4,12.9,-29.800000000000004,16
868,14584.0,-4.2,-8.700000000000001,2.9000000000000004,5.800000000000001,-9.0,3.4000000000000004,-65.4,12.9,-29.800000000000004,16
869,14599.0,-4.1000000000000005,-9.0,3.2,5.9,-9.600000000000001,4.1000000000000005,-66.60000000000001,18.900000000000002,-14.900000000000002,16
870,14614.0,-4.1000000000000005,-9.1,3.2,5.9,-9.600000000000001,4.1000000000000005,-65.10000000000001,25.900000000000002,0.5,16
871,14631.0,-4.5,-9.0,3.0,5.5,-9.700000000000001,4.0,-61.199999999999996,34.0,17.7,16
872,14648.0,-5.300000000000001,-8.3,2.5,4.800000000000001,-9.5,3.7,-55.900000000000006,39.50000000000001,39.699999999999996,16
873,14665.0,-5.300000000000001,-7.1000000000000005,2.2,4.9,-8.3,3.5,-48.6,38.7,68.0,16
874,14682.0,-4.6000000000000005,-6.7,2.2,4.9,-8.3,3.5,-36.8,32.300000000000004,97.7,16
875,14698.0,-2.2,-6.300000000000001,1.9000000000000001,6.800000000000001,-8.200000000000001,3.4000000000000004,-19.0,23.700000000000003,122.20000000000002,16
876,14715.0,0.1,-6.0,1.2000000000000002,10.200000000000001,-8.4,2.1,2.0,15.299999999999999,137.8,16
877,14731.0,1.4000000000000001,-5.2,0.0,10.8,-8.0,1.0,21.8,6.4,146.8,16
878,14748.0,1.7000000000000002,-4.6000000000000005,-0.7000000000000001,10.8,-8.0,1.0,36.300000000000004,-3.1,150.8,16
879,14765.0,1.7000000000000002,-3.2,-1.9000000000000001,10.9,-7.300000000000001,-0.1,40.6,-15.000000000000002,151.4,16
880,14781.0,1.3,-1.9000000000000001,-2.0,10.100000000000001,-5.800000000000001,-0.30000000000000004,33.400000000000006,-25.4,150.4,16
881,14798.0,1.2000000000000002,-1.3,-1.5,10.100000000000001,-5.800000000000001,-0.30000000000000004,19.1,-28.600000000000005,150.4,16
882,14817.0,1.4000000000000001,-0.1,0.0,10.0,-5.1000000000000005,0.8,5.300000000000001,-22.6,150.5,16
883,14831.0,1.7000000000000002,1.2000000000000002,1.1,10.0,-3.8000000000000003,2.7,-2.5,-6.300000000000001,148.20000000000002,16
884,14849.0,1.9000000000000001,2.4000000000000004,1.5,9.9,-3.1,2.9000000000000004,-4.0,13.5,143.0,16
885,14865.0,1.9000000000000001,2.9000000000000004,1.5,9.9,-3.1,2.9000000000000004,0.4,30.200000000000003,135.7,16
886,14881.0,2.2,3.8000000000000003,1.1,9.9,-2.5,2.7,9.700000000000001,37.50000000000001,125.9,16
887,14898.0,2.5,4.2,0.4,10.0,-2.2,2.0,20.900000000000002,37.2,113.4,16
888,14915.0,2.6,4.2,0.2,10.0,-2.2,2.0,31.2,34.300000000000004,98.9,16
889,14931.0,2.6,4.0,-0.6000000000000001,9.9,-2.5,1.5,39.2,31.5,84.4,16
890,14948.0,2.4000000000000004,3.7,-1.4000000000000001,9.4,-3.2,0.5,41.800000000000004,28.900000000000002,71.6,16
891,14965.0,2.3000000000000003,3.5,-1.6,9.4,-3.2,0.5,38.300000000000004,28.3,61.599999999999994,16
892,14981.0,2.2,3.1,-1.9000000000000001,9.200000000000001,-3.6,0.4,29.900000000000006,32.1,54.50000000000001,16
893,14998.0,2.1,2.8000000000000003,-2.1,9.0,-4.0,0.30000000000000004,18.3,39.8,50.3,16
894,15019.0,2.4000000000000004,2.6,-2.2,9.3,-4.5,0.30000000000000004,5.300000000000001,49.199999999999996,48.50000000000001,16
895,15034.0,2.8000000000000003,2.5,-2.3000000000000003,9.3,-4.5,0.30000000000000004,-7.500000000000001,57.400000000000006,46.800000000000004,16
896,15049.0,3.7,1.8,-2.5,9.9,-5.1000000000000005,0.2,-20.0,62.800000000000004,43.900000000000006,16
897,15065.0,4.4,0.9,-2.3000000000000003,11.0,-6.6000000000000005,0.5,-32.0,65.5,41.7,16
898,15081.0,5.2,0.30000000000000004,-2.1,11.5,-7.2,0.6000000000000001,-40.7,65.10000000000001,42.60000000000001,16
899,15098.0,5.6000000000000005,0.1,-1.9000000000000001,11.5,-7.2,0.6000000000000001,-45.7,59.60000000000001,46.800000000000004,16
900,15115.0,6.2,0.30000000000000004,-1.4000000000000001,12.600000000000001,-7.1000000000000005,1.1,-46.0,50.900000000000006,52.2,16
901,15132.0,7.4,0.7000000000000001,-1.2000000000000002,13.600000000000001,-7.1000000000000005,1.6,-41.7,35.9,57.20000000000001,16
902,15149.0,7.9,0.7000000000000001,-0.7000000000000001,13.600000000000001,-7.1000000000000005,1.6,-35.599999999999994,15.100000000000001,57.20000000000001,16
903,15171.0,8.700000000000001,1.7000000000000002,0.6000000000000001,14.5,-6.2,3.1,-7.400000000000001,-13.6,48.70000000000001,16
904,15182.0,9.1,2.0,0.8,15.100000000000001,-5.7,3.4000000000000004,-7.400000000000001,-13.6,48.70000000000001,16
905,15199.0,9.5,2.7,1.0,15.3,-5.0,3.3000000000000003,13.8,-26.1,39.0,16
906,15215.0,9.5,3.2,0.8,15.3,-5.0,3.3000000000000003,34.900000000000006,-31.7,24.400000000000002,16
907,15231.0,9.0,4.1000000000000005,-0.30000000000000004,14.8,-3.6,1.5,51.2,-32.6,4.0,16
908,15248.0,8.5,4.0,-1.8,14.4,-4.1000000000000005,0.5,57.400000000000006,-33.7,-21.7,16
909,15265.0,8.1,3.4000000000000004,-2.3000000000000003,14.4,-4.1000000000000005,0.5,51.70000000000001,-38.2,-50.8,16
910,15281.0,6.800000000000001,1.6,-2.4000000000000004,13.700000000000001,-5.300000000000001,0.1,36.8,-42.60000000000001,-76.1,16
911,15298.0,5.300000000000001,0.0,-1.5,11.600000000000001,-7.4,1.4000000000000001,22.8,-47.0,-91.0,16
912,15315.0,4.5,-0.4,-1.0,11.600000000000001,-7.4,1.4000000000000001,15.6,-52.400000000000006,-95.60000000000002,16
913,15331.0,3.2,-0.6000000000000001,-0.5,10.700000000000001,-7.4,1.8,13.700000000000001,-61.10000000000001,-93.8,16
914,15348.0,2.5,-0.2,0.4,10.100000000000001,-6.4,3.0,13.900000000000002,-72.80000000000001,-90.5,16
915,15365.0,2.1,0.30000000000000004,1.4000000000000001,9.9,-5.800000000000001,3.5,16.4,-81.0,-89.8,16
916,15381.0,1.9000000000000001,0.5,1.7000000000000002,9.9,-5.800000000000001,3.5,20.900000000000002,-83.2,-93.10000000000001,16
917,15398.0,1.4000000000000001,0.7000000000000001,1.9000000000000001,9.700000000000001,-5.300000000000001,3.7,24.599999999999998,-79.19999999999999,-99.30000000000001,16
918,15414.0,0.7000000000000001,0.6000000000000001,1.8,9.1,-4.800000000000001,3.3000000000000003,25.1,-69.7,-108.60000000000001,16
919,15434.0,0.1,0.2,1.6,8.8,-4.9,3.1,22.5,-58.7,-118.50000000000001,16
920,15449.0,-0.2,-0.1,1.6,8.8,-4.9,3.1,17.7,-47.80000000000001,-128.20000000000002,16
921,15465.0,-0.8,-0.8,1.4000000000000001,8.3,-5.5,2.7,13.3,-39.1,-136.6,16
922,15481.0,-1.1,-1.7000000000000002,1.2000000000000002,8.200000000000001,-5.9,2.5,9.4,-34.1,-143.9,16
923,15498.0,-1.3,-2.2,1.2000000000000002,8.200000000000001,-5.9,2.5,5.300000000000001,-31.2,-150.5,16
924,15515.0,-1.8,-3.4000000000000004,1.2000000000000002,8.0,-6.5,2.4000000000000004,0.8,-29.200000000000003,-155.5,16
925,15531.0,-2.5,-4.3,1.3,7.0,-7.2,2.4000000000000004,-4.2,-26.6,-157.4,16
926,15549.0,-2.9000000000000004,-4.7,1.3,7.0,-7.2,2.4000000000000004,-9.600000000000001,-23.099999999999998,-155.60000000000002,16
927,15565.0,-3.7,-5.2,1.4000000000000001,6.4,-7.300000000000001,2.4000000000000004,-15.899999999999999,-18.700000000000003,-150.1,16
928,15582.0,-4.3,-5.4,1.5,5.800000000000001,-7.0,2.5,-22.9,-12.200000000000001,-141.9,16
929,15600.0,-4.2,-5.7,1.5,6.0,-7.1000000000000005,2.5,-29.300000000000004,-4.7,-132.8,16
930,15616.0,-4.0,-6.0,1.5,6.0,-7.1000000000000005,2.5,-35.3,1.6,-125.2,16
931,15633.0,-3.8000000000000003,-7.0,1.5,6.300000000000001,-7.6000000000000005,2.6,-41.300000000000004,8.100000000000001,-119.8,16
932,15651.0,-4.0,-8.0,1.4000000000000001,5.800000000000001,-8.8,2.5,-47.0,16.1,-114.10000000000001,16
933,15669.0,-4.7,-8.9,1.3,5.1000000000000005,-9.3,2.5,-52.7,22.3,-105.10000000000001,16
934,15682.0,-5.1000000000000005,-9.200000000000001,1.3,5.1000000000000005,-9.3,2.5,-58.5,28.1,-90.70000000000002,16
935,15699.0,-5.7,-9.700000000000001,1.4000000000000001,3.9000000000000004,-9.9,2.9000000000000004,-62.800000000000004,31.400000000000002,-70.7,16
936,15714.0,-6.1000000000000005,-9.8,1.4000000000000001,3.9000000000000004,-9.9,2.9000000000000004,-65.7,33.9,-46.7,16
937,15732.0,-6.5,-9.600000000000001,1.5,3.4000000000000004,-9.8,3.0,-67.00000000000001,34.2,-19.0,16
938,15751.0,-5.7,-9.200000000000001,1.9000000000000001,3.8000000000000003,-9.600000000000001,3.4000000000000004,-66.0,30.599999999999998,8.0,16
939,15765.0,-5.2,-8.8,2.4000000000000004,4.4,-9.4,4.2,-60.400000000000006,27.400000000000002,30.000000000000004,16
940,15781.0,-5.4,-8.700000000000001,2.5,4.4,-9.4,4.2,-51.300000000000004,23.5,52.00000000000001,16
941,15798.0,-5.5,-8.1,2.8000000000000003,4.1000000000000005,-9.3,4.6000000000000005,-39.300000000000004,18.8,80.0,16
942,15815.0,-4.2,-7.7,3.2,6.4,-9.4,5.1000000000000005,-20.900000000000002,9.899999999999999,114.70000000000002,16
943,15833.0,-1.7000000000000002,-7.2,3.0,8.5,-9.5,4.7,5.0,-2.0,148.5,16
944,15851.0,0.9,-6.800000000000001,1.8,10.5,-9.700000000000001,3.3000000000000003,70.3,-30.1,192.70000000000002,16
945,15865.0,1.9000000000000001,-6.6000000000000005,0.7000000000000001,10.5,-9.700000000000001,3.3000000000000003,70.3,-30.1,192.70000000000002,16
946,15881.0,3.1,-5.5,-2.4000000000000004,12.100000000000001,-8.9,-1.8,96.5,-47.2,203.60000000000002,16
947,15898.0,3.2,-4.800000000000001,-4.0,12.100000000000001,-8.9,-1.8,104.3,-66.1,209.5,16
948,15915.0,3.2,-2.5,-6.2,11.9,-7.6000000000000005,-4.2,85.0,-80.7,210.40000000000003,16
949,15931.0,3.5,-0.4,-5.5,12.0,-5.0,-2.9000000000000004,38.7,-79.7,205.90000000000003,16
950,15948.0,4.1000000000000005,1.6,-2.2,12.0,-5.0,-2.9000000000000004,-18.3,-55.3,194.80000000000004,16
951,15965.0,4.2,2.4000000000000004,-0.4,12.100000000000001,-3.8000000000000003,0.0,-70.2,-8.8,175.70000000000002,16
952,15981.0,3.5,3.5,2.6,11.600000000000001,-3.0,2.7,-104.10000000000001,48.50000000000001,150.3,16
953,15998.0,2.3000000000000003,3.9000000000000004,3.8000000000000003,9.0,-2.9000000000000004,4.9,-115.7,100.4,127.00000000000003,16
954,16015.0,1.7000000000000002,3.9000000000000004,3.7,9.0,-2.9000000000000004,4.9,-108.60000000000001,134.4,111.4,16
955,16031.0,1.1,3.7,2.6,8.200000000000001,-3.3000000000000003,4.3,-90.5,147.5,104.7,16
956,16049.0,1.6,3.7,1.6,8.4,-3.6,2.9000000000000004,-68.60000000000001,142.7,103.8,16
957,16068.0,2.5,4.0,0.8,9.1,-3.4000000000000004,2.4000000000000004,-45.2,127.19999999999999,102.0,16
958,16081.0,3.1,4.3,0.4,9.1,-3.4000000000000004,2.4000000000000004,-21.7,104.7,95.5,16
959,16098.0,3.8000000000000003,4.4,-0.4,9.600000000000001,-3.3000000000000003,1.8,-0.5,78.3,81.60000000000001,16
960,16115.0,3.8000000000000003,4.0,-1.4000000000000001,9.600000000000001,-4.0,0.5,14.200000000000001,52.400000000000006,64.7,16
961,16131.0,3.8000000000000003,3.7,-1.7000000000000002,9.600000000000001,-4.0,0.5,19.799999999999997,32.400000000000006,50.1,16
962,16148.0,3.9000000000000004,3.3000000000000003,-2.1,9.600000000000001,-4.4,0.2,17.0,21.0,37.800000000000004,16
963,16164.0,4.3,2.7,-2.2,10.100000000000001,-5.7,0.2,6.600000000000001,14.400000000000002,27.099999999999998,16
964,16181.0,4.5,2.1,-1.9000000000000001,10.100000000000001,-5.7,0.2,-7.1000000000000005,10.600000000000001,18.200000000000003,16
965,16198.0,4.800000000000001,1.0,-0.9,10.4,-6.7,1.0,-20.1,12.200000000000001,12.8,16
966,16214.0,5.1000000000000005,0.0,-0.1,10.600000000000001,-7.6000000000000005,1.7000000000000002,-29.700000000000006,19.799999999999997,13.8,16
967,16231.0,5.5,-0.7000000000000001,0.7000000000000001,11.100000000000001,-8.700000000000001,2.9000000000000004,-35.2,28.0,19.400000000000002,16
968,16248.0,5.6000000000000005,-0.7000000000000001,0.9,11.100000000000001,-8.700000000000001,2.9000000000000004,-34.2,33.7,28.800000000000004,16
969,16265.0,6.6000000000000005,-0.30000000000000004,0.8,11.8,-8.5,2.9000000000000004,-25.8,29.700000000000006,39.9,16
970,16281.0,8.0,0.4,0.9,13.9,-7.4,3.2,-13.3,14.0,47.3,16
971,16298.0,8.6,1.0,1.1,13.9,-7.4,3.2,1.9,-3.4,49.0,16
972,16314.0,9.8,2.0,1.2000000000000002,14.9,-6.5,3.3000000000000003,19.300000000000004,-20.3,44.2,16
973,16332.0,10.4,3.0,1.3,15.600000000000001,-5.7,3.4000000000000004,37.1,-33.1,31.2,16
974,16348.0,10.100000000000001,4.1000000000000005,0.8,15.4,-3.8000000000000003,2.8000000000000003,53.8,-39.400000000000006,11.6,16
975,16367.0,9.8,4.5,0.30000000000000004,15.4,-3.8000000000000003,2.8000000000000003,71.5,-49.300000000000004,-44.300000000000004,16
976,16382.0,8.9,4.2,-1.0,15.0,-3.6,1.8,71.5,-49.300000000000004,-44.300000000000004,16
977,16398.0,7.7,2.5,-1.4000000000000001,13.4,-5.800000000000001,1.3,64.4,-54.800000000000004,-74.80000000000001,16
978,16415.0,7.0,1.7000000000000002,-1.2000000000000002,13.4,-5.800000000000001,1.3,52.80000000000001,-54.6,-97.89999999999999,16
979,16431.0,5.300000000000001,0.5,-0.7000000000000001,12.3,-6.7,1.6,42.60000000000001,-51.6,-112.7,16
980,16448.0,4.1000000000000005,-0.5,-0.4,10.9,-7.9,2.2,36.400000000000006,-53.2,-120.00000000000001,16
981,16464.0,3.6,-1.1,-0.1,10.9,-7.9,2.2,32.7,-60.1,-122.79999999999998,16
982,16481.0,2.5,-1.7000000000000002,0.7000000000000001,10.3,-8.200000000000001,2.9000000000000004,31.9,-65.7,-121.5,16
983,16498.0,1.2000000000000002,-1.4000000000000001,1.3,9.5,-7.800000000000001,3.3000000000000003,35.1,-68.0,-116.80000000000001,16
984,16514.0,0.6000000000000001,-0.7000000000000001,1.2000000000000002,9.0,-6.1000000000000005,3.2,39.599999999999994,-70.3,-111.6,16
985,16531.0,0.6000000000000001,-0.4,1.2000000000000002,9.0,-6.1000000000000005,3.2,41.199999999999996,-72.60000000000001,-110.9,16
986,16548.0,0.4,-0.1,1.2000000000000002,9.1,-5.6000000000000005,3.1,39.0,-71.39999999999999,-116.1,16
987,16565.0,0.1,-0.4,1.4000000000000001,9.0,-5.4,3.1,33.50000000000001,-64.9,-125.60000000000001,16
988,16581.0,-0.4,-1.2000000000000002,1.4000000000000001,8.6,-5.800000000000001,3.0,27.2,-56.10000000000001,-136.7,16
989,16598.0,-0.8,-1.7000000000000002,1.4000000000000001,8.6,-5.800000000000001,3.0,20.7,-46.9,-147.29999999999998,16
990,16615.0,-1.4000000000000001,-2.8000000000000003,1.2000000000000002,8.3,-6.300000000000001,2.8000000000000003,13.700000000000001,-37.9,-154.9,16
991,16631.0,-2.1,-3.9000000000000004,1.2000000000000002,7.4,-7.300000000000001,2.6,6.9,-30.699999999999996,-159.6,16
992,16648.0,-2.9000000000000004,-4.800000000000001,1.2000000000000002,6.800000000000001,-7.5,2.6,0.7,-25.4,-160.8,16
993,16665.0,-3.3000000000000003,-5.1000000000000005,1.3,6.800000000000001,-7.5,2.6,-4.9,-21.400000000000002,-158.00000000000003,16
994,16681.0,-4.0,-5.4,1.3,5.9,-7.4,2.6,-9.700000000000001,-18.5,-151.20000000000002,16
995,16699.0,-4.4,-5.7,1.5,5.6000000000000005,-7.2,2.7,-14.0,-15.899999999999999,-142.3,16
996,16714.0,-4.6000000000000005,-5.7,1.5,5.6000000000000005,-7.2,2.7,-17.6,-12.100000000000001,-132.4,16
997,16732.0,-4.6000000000000005,-5.800000000000001,1.5,5.5,-6.9,2.7,-21.200000000000003,-7.300000000000001,-123.4,16
998,16748.0,-4.2,-6.5,1.5,6.0,-7.5,2.6,-25.1,-2.3,-116.4,16
999,16764.0,-4.1000000000000005,-6.9,1.4000000000000001,6.0,-7.5,2.6,-29.700000000000006,4.2,-111.10000000000002,16
1000,16781.0,-4.2,-7.9,1.2000000000000002,6.0,-8.0,2.5,-35.2,11.900000000000002,-105.5,16
1001,16798.0,-4.800000000000001,-8.700000000000001,0.9,5.0,-9.1,2.2,-41.900000000000006,19.1,-97.00000000000001,16
1002,16814.0,-5.1000000000000005,-9.1,0.8,4.4,-9.4,2.2,-49.800000000000004,25.300000000000004,-83.4,16
1003,16831.0,-5.7,-9.5,0.7000000000000001,4.4,-9.4,2.2,-58.1,29.500000000000004,-66.0,16
1004,16848.0,-6.0,-9.600000000000001,0.7000000000000001,4.0,-9.5,2.3000000000000003,-65.0,31.099999999999998,-45.5,16
1005,16865.0,-5.9,-9.700000000000001,0.7000000000000001,3.9000000000000004,-9.700000000000001,2.5,-70.3,28.600000000000005,-24.0,16
1006,16881.0,-5.9,-9.600000000000001,0.7000000000000001,3.9000000000000004,-9.700000000000001,2.5,-74.30000000000001,24.400000000000002,-3.8,16
1007,16898.0,-6.6000000000000005,-9.3,0.9,3.4000000000000004,-9.600000000000001,2.6,-76.3,17.7,16.8,16
1008,16914.0,-7.2,-9.0,1.5,2.7,-9.9,3.9000000000000004,-75.2,5.4,44.4,16
1009,16931.0,-6.9,-9.200000000000001,2.2,2.7,-9.9,3.9000000000000004,-66.9,-8.899999999999999,81.8,16
1010,16948.0,-5.1000000000000005,-9.600000000000001,3.6,4.1000000000000005,-10.8,5.1000000000000005,-48.400000000000006,-17.6,125.50000000000001,16
1011,16965.0,-2.1,-9.200000000000001,4.1000000000000005,6.4,-11.100000000000001,5.7,-18.900000000000002,-20.599999999999998,167.7,16
1012,16982.0,-0.30000000000000004,-8.8,3.9000000000000004,9.200000000000001,-11.100000000000001,5.5,20.0,-24.3,200.0,16
1013,16998.0,2.8000000000000003,-7.5,2.4000000000000004,11.8,-10.700000000000001,4.3,60.6,-29.200000000000003,219.10000000000002,16
1014,17014.0,4.7,-5.7,0.0,13.4,-9.8,2.3000000000000003,94.6,-37.2,225.0,16
1015,17032.0,5.0,-3.2,-2.6,13.3,-6.7,-1.8,111.10000000000002,-48.9,220.0,16
1016,17050.0,4.4,-0.8,-3.8000000000000003,12.700000000000001,-5.2,-2.1,104.9,-59.1,209.00000000000003,16
1017,17068.0,4.2,1.2000000000000002,-2.8000000000000003,12.5,-4.0,-1.0,50.1,-47.7,184.6,16
1018,17081.0,4.4,2.0,-2.1,12.5,-4.0,-1.0,50.1,-47.7,184.6,16
1019,17098.0,4.5,3.5,-0.9,12.200000000000001,-2.2,1.0,21.200000000000003,-19.400000000000002,168.1,16
1020,17115.0,4.5,4.1000000000000005,-0.5,12.200000000000001,-2.2,1.0,-3.4,13.5,147.8,16
1021,17131.0,4.1000000000000005,4.800000000000001,0.1,11.700000000000001,-1.8,1.6,-21.6,42.2,125.9,16
1022,17148.0,3.9000000000000004,4.9,0.5,10.700000000000001,-1.9000000000000001,2.6,-30.799999999999997,61.9,104.9,16
1023,17165.0,3.5,4.9,0.9,10.700000000000001,-1.9000000000000001,2.6,-30.5,75.7,85.69999999999999,16
1024,17181.0,3.3000000000000003,4.800000000000001,0.4,10.3,-2.1,2.4000000000000004,-24.599999999999998,84.5,68.60000000000001,16
1025,17198.0,2.8000000000000003,4.5,-0.7000000000000001,9.8,-2.4000000000000004,1.7000000000000002,-18.4,88.4,53.10000000000001,16
1026,17215.0,2.3000000000000003,4.0,-1.6,8.8,-3.3000000000000003,0.5,-15.2,86.89999999999999,41.300000000000004,16
1027,17233.0,2.0,3.5,-2.0,8.5,-3.8000000000000003,0.30000000000000004,-16.200000000000003,73.9,30.699999999999996,16
1028,17248.0,1.9000000000000001,3.2,-2.1,8.5,-3.8000000000000003,0.30000000000000004,-16.200000000000003,73.9,30.699999999999996,16
1029,17266.0,1.9000000000000001,2.8000000000000003,-2.3000000000000003,8.3,-4.6000000000000005,0.2,-18.5,67.10000000000001,31.6,16
1030,17282.0,2.0,2.6,-2.3000000000000003,8.3,-4.6000000000000005,0.2,-21.400000000000002,60.400000000000006,35.599999999999994,16
1031,17298.0,2.8000000000000003,2.2,-2.2,8.8,-5.0,0.30000000000000004,-25.1,54.50000000000001,40.5,16
1032,17318.0,3.7,1.9000000000000001,-2.0,9.5,-5.4,0.4,-28.400000000000002,49.0,44.6,16
1033,17331.0,4.9,1.5,-1.8,11.4,-6.4,0.8,-30.5,42.60000000000001,48.300000000000004,16
1034,17348.0,5.6000000000000005,1.2000000000000002,-1.7000000000000002,11.4,-6.4,0.8,-31.0,33.800000000000004,51.0,16
1035,17364.0,6.5,1.1,-1.2000000000000002,12.100000000000001,-6.7,1.1,-29.0,23.700000000000003,52.400000000000006,16
1036,17381.0,7.300000000000001,1.4000000000000001,-1.3,13.600000000000001,-6.5,1.1,-24.5,11.4,54.0,16
1037,17398.0,8.6,1.4000000000000001,-0.9,13.600000000000001,-6.5,1.1,-20.5,-7.1000000000000005,53.9,16
1038,17415.0,9.1,1.5,-0.4,14.600000000000001,-6.6000000000000005,1.7000000000000002,-16.8,-25.1,50.8,16
1039,17431.0,9.9,1.8,0.8,15.3,-6.4,2.6,-9.600000000000001,-38.0,45.9,16
1040,17448.0,10.200000000000001,2.1,1.3,16.3,-5.2,4.1000000000000005,5.300000000000001,-48.70000000000001,39.1,16
1041,17464.0,10.700000000000001,3.1,2.1,16.3,-5.2,4.1000000000000005,27.6,-57.00000000000001,28.1,16
1042,17482.0,10.700000000000001,4.6000000000000005,1.5,16.5,-3.9000000000000004,3.9000000000000004,52.60000000000001,-61.39999999999999,8.5,16
1043,17498.0,10.700000000000001,4.800000000000001,0.0,16.6,-3.7,1.7000000000000002,70.2,-68.1,-24.900000000000002,16
1044,17517.0,9.5,2.7,-0.8,15.600000000000001,-5.5,1.4000000000000001,74.80000000000001,-77.9,-66.4,16
1045,17533.0,8.6,1.5,-0.7000000000000001,15.600000000000001,-5.5,1.4000000000000001,68.2,-82.50000000000001,-102.2,16
1046,17548.0,6.300000000000001,-0.5,-0.6000000000000001,14.100000000000001,-7.1000000000000005,1.5,56.800000000000004,-80.10000000000001,-122.90000000000002,16
1047,17565.0,4.3,-1.4000000000000001,-0.5,11.3,-8.1,1.6,43.00000000000001,-75.9,-129.60000000000002,16
1048,17581.0,3.4000000000000004,-1.5,-0.30000000000000004,11.3,-8.1,1.6,27.800000000000004,-73.4,-128.0,16
1049,17601.0,2.2,-1.3,0.8,10.4,-7.7,2.3000000000000003,15.000000000000002,-72.2,-122.79999999999998,16
1050,17615.0,1.4000000000000001,-0.6000000000000001,1.7000000000000002,9.600000000000001,-6.1000000000000005,3.6,9.3,-69.3,-118.90000000000002,16
1051,17631.0,1.1,-0.30000000000000004,2.0,9.600000000000001,-6.1000000000000005,3.6,9.8,-65.8,-118.80000000000003,16
1052,17648.0,0.6000000000000001,0.1,2.2,9.4,-5.5,3.7,13.900000000000002,-62.300000000000004,-123.4,16
1053,17668.0,0.2,-0.2,2.0,9.3,-5.2,3.4000000000000004,17.7,-60.400000000000006,-131.5,16
1054,17681.0,-0.30000000000000004,-1.2000000000000002,1.9000000000000001,8.9,-5.9,3.0,19.700000000000003,-59.9,-140.3,16
1055,17698.0,-0.5,-1.6,1.9000000000000001,8.9,-5.9,3.0,19.5,-59.300000000000004,-147.5,16
1056,17717.0,-0.9,-2.6,1.9000000000000001,8.8,-6.300000000000001,2.9000000000000004,18.0,-58.800000000000004,-152.9,16
1057,17732.0,-1.5,-3.5,1.9000000000000001,8.200000000000001,-6.9,2.5,14.800000000000002,-57.49999999999999,-156.20000000000002,16
1058,17748.0,-2.1,-4.2,1.7000000000000002,7.800000000000001,-7.0,2.3000000000000003,8.3,-53.50000000000001,-157.1,16
1059,17765.0,-2.3000000000000003,-4.5,1.6,7.800000000000001,-7.0,2.3000000000000003,-2.1,-46.7,-156.10000000000002,16
1060,17781.0,-2.8000000000000003,-4.9,1.8,7.2,-7.0,2.4000000000000004,-14.200000000000001,-38.50000000000001,-153.4,16
1061,17798.0,-3.2,-5.300000000000001,2.1,7.0,-6.9,2.6,-26.200000000000003,-28.0,-149.79999999999998,16
1062,17814.0,-3.3000000000000003,-5.4,2.3000000000000003,7.0,-6.9,2.6,-36.9,-16.3,-146.8,16
1063,17831.0,-3.6,-5.800000000000001,2.5,6.7,-6.800000000000001,2.8000000000000003,-45.400000000000006,-4.6,-144.3,16
1064,17848.0,-3.8000000000000003,-6.6000000000000005,2.7,6.5,-7.300000000000001,3.2,-51.300000000000004,5.1000000000000005,-141.4,16
1065,17867.0,-3.9000000000000004,-7.4,2.7,6.300000000000001,-7.7,3.1,-54.300000000000004,14.200000000000001,-137.5,16
1066,17881.0,-4.0,-7.9,2.5,6.300000000000001,-7.7,3.1,-55.2,21.900000000000002,-132.2,16
1067,17898.0,-4.2,-8.9,2.3000000000000003,5.7,-8.9,3.1,-55.0,26.1,-123.9,16
1068,17914.0,-4.800000000000001,-9.700000000000001,2.3000000000000003,5.0,-9.1,3.1,-54.300000000000004,29.1,-112.0,16
1069,17931.0,-5.2,-9.8,2.2,5.0,-9.1,3.1,-52.900000000000006,32.1,-95.30000000000001,16
1070,17948.0,-5.7,-10.0,2.0,4.4,-9.1,3.1,-50.900000000000006,34.2,-74.0,16
1071,17964.0,-6.1000000000000005,-10.0,1.8,3.8000000000000003,-9.0,2.9000000000000004,-48.300000000000004,36.300000000000004,-51.1,16
1072,17981.0,-6.1000000000000005,-9.9,1.7000000000000002,3.8000000000000003,-9.0,2.9000000000000004,-44.9,38.60000000000001,-27.099999999999998,16
1073,17998.0,-6.1000000000000005,-9.9,1.0,3.7,-9.1,2.5,-41.6,41.199999999999996,-2.8,16
1074,18015.0,-6.5,-9.8,0.1,2.8000000000000003,-9.200000000000001,1.2000000000000002,-40.5,42.900000000000006,21.7,16
1075,18035.0,-7.2,-9.3,-0.8,2.6,-9.0,0.9,-43.00000000000001,42.3,50.7,16
1076,18048.0,-7.0,-8.9,-0.9,2.6,-9.0,0.9,-47.400000000000006,35.1,87.10000000000001,16
1077,18065.0,-4.6000000000000005,-8.200000000000001,-0.2,4.1000000000000005,-8.8,1.3,-47.400000000000006,20.5,126.10000000000001,16
1078,18081.0,-1.1,-7.5,0.6000000000000001,9.8,-8.6,2.6,-36.8,3.1,156.9,16
1079,18098.0,0.6000000000000001,-7.1000000000000005,0.9,9.8,-8.6,2.6,-17.9,-14.0,176.5,16
1080,18115.0,3.2,-5.9,1.1,12.100000000000001,-8.200000000000001,2.8000000000000003,5.0,-26.799999999999997,184.3,16
1081,18131.0,3.9000000000000004,-4.6000000000000005,0.4,13.0,-7.0,1.6,23.900000000000006,-33.9,182.3,16
1082,18148.0,3.2,-3.4000000000000004,-0.1,12.0,-6.5,1.4000000000000001,32.1,-37.800000000000004,177.4,16
1083,18165.0,2.8000000000000003,-2.8000000000000003,-0.1,12.0,-6.5,1.4000000000000001,29.800000000000004,-38.0,175.70000000000002,16
1084,18181.0,2.4000000000000004,-1.6,0.9,11.4,-6.0,1.9000000000000001,22.8,-32.9,178.8,16
1085,18198.0,2.4000000000000004,0.0,1.8,11.0,-4.3,3.4000000000000004,19.6,-20.400000000000002,181.40000000000003,16
1086,18215.0,2.5,0.8,2.0,11.0,-4.3,3.4000000000000004,21.6,-4.0,180.9,16
1087,18234.0,2.8000000000000003,2.2,2.0,11.0,-3.5,3.5,28.200000000000003,10.8,176.20000000000002,16
1088,18248.0,3.1,3.3000000000000003,1.4000000000000001,11.0,-2.2,2.7,37.0,20.5,166.8,16
1089,18264.0,3.3000000000000003,3.8000000000000003,0.9,11.0,-2.2,2.7,45.0,25.200000000000003,152.6,16
1090,18283.0,3.5,4.4,0.0,11.0,-1.9000000000000001,2.1,50.2,25.5,133.9,16
1091,18298.0,3.2,4.4,-0.8,10.700000000000001,-1.9000000000000001,1.5,51.6,24.599999999999998,113.3,16
1092,18314.0,2.7,4.1000000000000005,-1.3,9.600000000000001,-2.7,0.8,49.4,24.3,95.30000000000001,16
1093,18332.0,2.5,3.9000000000000004,-1.5,9.600000000000001,-2.7,0.8,43.6,25.6,82.2,16
1094,18348.0,2.4000000000000004,3.4000000000000004,-1.9000000000000001,9.3,-3.2,0.6000000000000001,33.800000000000004,29.400000000000002,74.0,16
1095,18364.0,2.7,3.2,-1.8,9.5,-3.8000000000000003,0.8,22.000000000000004,35.4,69.3,16
1096,18381.0,3.1,3.1,-1.9000000000000001,9.8,-3.9000000000000004,0.8,10.9,43.800000000000004,65.8,16
1097,18398.0,3.4000000000000004,3.1,-2.0,9.8,-3.9000000000000004,0.8,0.4,53.2,62.6,16
1098,18421.0,4.7,2.7,-2.4000000000000004,11.0,-4.5,0.5,-22.2,64.50000000000001,52.300000000000004,16
1099,18431.0,5.2,2.3000000000000003,-2.5,11.600000000000001,-5.300000000000001,0.4,-22.2,64.50000000000001,52.300000000000004,16
1100,18448.0,5.6000000000000005,2.0,-2.4000000000000004,11.600000000000001,-5.300000000000001,0.4,-33.9,66.3,45.8,16
1101,18465.0,6.2,1.1,-2.3000000000000003,12.0,-6.1000000000000005,0.5,-43.800000000000004,66.0,41.300000000000004,16
1102,18482.0,6.800000000000001,0.4,-1.9000000000000001,13.0,-7.2,1.2000000000000002,-50.2,59.5,41.800000000000004,16
1103,18499.0,7.7,0.5,-1.5,13.700000000000001,-7.2,1.4000000000000001,-52.60000000000001,50.1,44.6,16
1104,18515.0,8.200000000000001,0.6000000000000001,-1.2000000000000002,13.700000000000001,-7.2,1.4000000000000001,-51.300000000000004,35.599999999999994,46.800000000000004,16
1105,18531.0,8.700000000000001,1.0,-0.30000000000000004,14.3,-7.0,2.1,-45.9,19.300000000000004,45.8,16
1106,18548.0,9.0,2.0,0.5,14.9,-5.7,3.3000000000000003,-35.1,5.0,43.50000000000001,16
1107,18564.0,9.3,2.3000000000000003,0.9,14.9,-5.7,3.3000000000000003,-17.6,-11.000000000000002,38.2,16
1108,18581.0,9.9,3.0,1.4000000000000001,15.4,-5.2,3.8000000000000003,5.9,-24.8,27.700000000000003,16
1109,18599.0,9.9,3.8000000000000003,1.0,15.600000000000001,-3.9000000000000004,2.9000000000000004,32.300000000000004,-32.400000000000006,10.8,16
1110,18616.0,9.5,4.1000000000000005,-0.7000000000000001,15.3,-3.8000000000000003,1.4000000000000001,53.7,-37.7,-12.7,16
1111,18631.0,9.1,3.8000000000000003,-1.6,15.3,-3.8000000000000003,1.4000000000000001,62.6,-46.0,-41.900000000000006,16
1112,18648.0,8.1,2.2,-2.6,14.8,-4.800000000000001,0.30000000000000004,54.6,-55.7,-71.30000000000001,16
1113,18666.0,6.800000000000001,0.30000000000000004,-2.2,13.200000000000001,-7.300000000000001,0.7000000000000001,36.7,-61.39999999999999,-94.2,16
