,ms,accelX,accelY,accelZ,accelWithGX,accelWithGY,accelWithGZ,rotRateAlpha,rotRateBeta,rotRateGamma,interval
0,44.0,0.0,-0.1,-0.1,0.4,-5.5,8.200000000000001,-3.7000000000000006,-3.3000000000000007,0.8,16
1,51.0,0.0,0.0,0.0,0.6000000000000001,-5.5,8.0,-3.7000000000000006,-3.3000000000000007,0.8,16
2,80.0,0.0,0.0,0.0,0.6000000000000001,-5.5,8.1,-3.7000000000000006,-3.3000000000000007,0.8,16
3,86.0,0.0,0.0,0.0,0.6000000000000001,-5.5,8.1,-3.7000000000000006,-3.3000000000000007,0.8,16
4,101.0,-0.1,0.0,0.0,0.5,-5.5,8.1,-3.7000000000000006,-3.3000000000000007,0.8,16
5,119.0,0.0,0.0,0.1,0.6000000000000001,-5.6000000000000005,8.200000000000001,-3.7000000000000006,-3.3000000000000007,0.8,16
6,144.0,0.0,0.0,0.1,0.6000000000000001,-5.6000000000000005,8.200000000000001,-3.7000000000000006,-3.3000000000000007,0.8,16
7,156.0,-0.1,0.0,0.2,0.4,-5.5,8.3,-3.5,-1.0,-2.6,16
8,168.0,-0.1,0.0,0.2,0.4,-5.5,8.3,-2.5,-1.2000000000000002,-1.8000000000000003,16
9,193.0,-0.1,0.0,0.2,0.4,-5.5,8.3,0.2,0.5,-0.6000000000000001,16
10,213.0,0.0,-0.1,0.0,0.4,-5.6000000000000005,8.1,0.2,0.1,0.1,16
11,218.0,0.0,-0.1,0.1,0.5,-5.6000000000000005,8.200000000000001,0.2,0.1,0.1,16
12,235.0,0.0,-0.1,0.1,0.5,-5.6000000000000005,8.200000000000001,0.1,-0.30000000000000004,0.2,16
13,263.0,0.0,-0.1,0.1,0.4,-5.6000000000000005,8.1,-0.1,0.30000000000000004,1.1,16
14,268.0,0.0,-0.1,0.1,0.4,-5.6000000000000005,8.200000000000001,-0.1,0.30000000000000004,1.1,16
15,286.0,0.1,-0.1,0.1,0.6000000000000001,-5.6000000000000005,8.200000000000001,0.30000000000000004,0.7,1.3,16
16,304.0,0.1,0.0,0.1,0.6000000000000001,-5.6000000000000005,8.200000000000001,0.7,0.9000000000000001,0.30000000000000004,16
17,318.0,0.0,-0.1,0.1,0.6000000000000001,-5.7,8.200000000000001,0.7,1.1,0.1,16
18,341.0,0.0,-0.1,0.1,0.5,-5.6000000000000005,8.200000000000001,2.0,1.4,-0.5,16
19,355.0,-0.1,0.0,0.2,0.4,-5.6000000000000005,8.3,2.9,1.8000000000000003,-0.6000000000000001,16
20,368.0,-0.2,0.0,0.4,0.30000000000000004,-5.5,8.4,5.500000000000001,3.5,0.6000000000000001,16
21,385.0,0.0,0.0,0.2,0.5,-5.5,8.3,7.1000000000000005,4.0,0.30000000000000004,16
22,401.0,0.0,0.0,0.0,0.5,-5.5,8.1,6.300000000000001,3.3000000000000007,-0.7,16
23,418.0,0.0,-0.1,-0.1,0.5,-5.5,8.1,5.2,2.6,-1.1,16
24,434.0,-0.1,0.1,-0.1,0.4,-5.4,8.1,3.9,2.1,-0.9000000000000001,16
25,451.0,-0.2,0.0,0.0,0.30000000000000004,-5.4,8.1,2.8,1.2000000000000002,0.0,16
26,468.0,-0.1,-0.1,0.0,0.30000000000000004,-5.5,8.200000000000001,2.0,1.0,1.3,16
27,485.0,0.0,-0.1,-0.1,0.4,-5.5,8.0,-0.8,-0.30000000000000004,1.8000000000000003,16
28,501.0,0.1,-0.1,-0.2,0.6000000000000001,-5.6000000000000005,8.0,-2.6,-1.9,0.9000000000000001,16
29,518.0,0.0,0.0,-0.1,0.5,-5.4,8.0,-4.0,-2.4000000000000004,1.2000000000000002,16
30,534.0,-0.2,0.1,0.0,0.2,-5.4,8.1,-4.7,-2.5,2.4000000000000004,16
31,551.0,-0.1,-0.1,0.1,0.30000000000000004,-5.5,8.200000000000001,-5.0,-2.7,3.0,16
32,568.0,0.2,-0.1,0.0,0.6000000000000001,-5.6000000000000005,8.1,-5.6,-3.0,2.4000000000000004,16
33,585.0,0.1,-0.1,0.2,0.6000000000000001,-5.6000000000000005,8.200000000000001,-6.300000000000001,-3.8,1.1,16
34,601.0,0.0,-0.1,0.30000000000000004,0.5,-5.6000000000000005,8.4,-5.500000000000001,-3.2,1.3,16
35,618.0,0.2,0.0,0.1,0.7000000000000001,-5.6000000000000005,8.200000000000001,-4.5,-2.1,1.3,16
36,634.0,0.30000000000000004,-0.1,0.1,0.8,-5.6000000000000005,8.1,-4.300000000000001,-1.8000000000000003,-0.4,16
37,651.0,0.2,-0.1,0.1,0.7000000000000001,-5.7,8.1,-4.300000000000001,-0.7,-2.8,16
38,668.0,0.30000000000000004,-0.1,0.2,0.8,-5.7,8.3,-3.4,1.3,-4.9,16
39,684.0,0.1,0.0,0.4,0.6000000000000001,-5.6000000000000005,8.5,-0.7,2.7,-6.2,16
40,701.0,0.2,-0.30000000000000004,0.6000000000000001,0.8,-5.800000000000001,8.700000000000001,2.7,4.300000000000001,-7.300000000000001,16
41,718.0,0.5,-0.2,0.7000000000000001,1.1,-5.800000000000001,8.700000000000001,6.9,5.0,-10.299999999999999,16
42,735.0,0.4,-0.4,0.30000000000000004,0.9,-5.9,8.4,9.3,7.300000000000001,-12.299999999999999,16
43,751.0,0.9,-0.9,0.8,1.4000000000000001,-6.4,8.8,13.700000000000001,9.5,-16.8,16
44,768.0,0.5,-0.9,0.4,1.1,-6.300000000000001,8.5,17.6,9.5,-20.900000000000002,16
45,785.0,-0.1,-0.6000000000000001,-0.2,0.5,-6.0,8.0,16.900000000000002,10.0,-21.400000000000002,16
46,801.0,-0.6000000000000001,-0.1,0.0,0.0,-5.6000000000000005,8.1,15.6,7.8,-17.5,16
47,818.0,-1.0,0.30000000000000004,0.30000000000000004,-0.5,-5.2,8.4,17.5,9.600000000000001,-10.600000000000001,16
48,835.0,-1.1,0.30000000000000004,0.4,-0.8,-5.2,8.5,19.300000000000004,13.8,-3.6000000000000005,16
49,851.0,0.1,0.1,0.2,0.4,-5.300000000000001,8.4,19.6,12.7,-9.2,16
50,868.0,1.7000000000000002,0.2,0.1,2.0,-5.2,8.3,18.4,6.1000000000000005,-23.400000000000002,16
51,885.0,-0.2,0.6000000000000001,-1.3,0.1,-4.7,6.9,11.2,1.8000000000000003,-27.099999999999998,16
52,901.0,-0.1,-0.1,-0.5,0.30000000000000004,-5.4,7.7,-2.2,0.5,-18.700000000000003,16
53,918.0,0.6000000000000001,-0.8,-0.1,1.0,-6.2,8.1,-8.0,-5.7,-17.5,16
54,935.0,-2.0,-2.9000000000000004,0.1,-1.6,-8.3,8.3,-10.8,-13.200000000000003,-22.8,16
55,951.0,0.4,-1.1,1.4000000000000001,0.9,-6.5,9.600000000000001,-14.800000000000002,-20.0,-18.4,16
56,968.0,-1.0,0.0,0.7000000000000001,-0.5,-5.300000000000001,8.9,0.1,-6.699999999999999,-19.9,16
57,984.0,-1.1,1.0,0.4,-0.5,-4.4,8.6,3.5,-2.8,-9.600000000000001,16
58,1001.0,-0.2,1.3,0.5,0.4,-4.1000000000000005,8.700000000000001,7.200000000000001,-1.6,-7.9,16
59,1018.0,0.2,2.3000000000000003,0.30000000000000004,0.8,-3.0,8.5,11.4,8.600000000000001,-6.600000000000001,16
60,1035.0,0.5,2.0,0.5,1.1,-3.3000000000000003,8.700000000000001,9.5,-0.1,-10.600000000000001,16
61,1052.0,0.6000000000000001,-0.2,0.0,1.2000000000000002,-4.9,8.6,10.5,3.2,-12.7,16
62,1068.0,0.8,-0.4,-0.2,1.5,-5.2,8.3,8.4,5.7,-14.600000000000001,16
63,1084.0,0.30000000000000004,-0.2,-0.1,0.9,-4.9,8.5,8.2,12.299999999999999,-14.600000000000001,16
64,1101.0,0.0,-0.7000000000000001,-0.1,0.6000000000000001,-5.300000000000001,8.5,8.5,17.400000000000002,-12.4,16
65,1118.0,0.6000000000000001,-0.6000000000000001,-0.7000000000000001,1.2000000000000002,-5.2,7.9,4.1,17.799999999999997,-13.200000000000003,16
66,1135.0,0.30000000000000004,-0.30000000000000004,-0.1,0.9,-5.0,8.5,1.1,2.9,-14.900000000000002,16
67,1151.0,0.1,-0.1,-0.2,0.9,-5.0,8.3,-0.1,0.1,-16.0,16
68,1168.0,0.2,0.1,-0.2,1.0,-4.800000000000001,8.200000000000001,-1.0,0.30000000000000004,-17.9,16
69,1185.0,0.2,0.1,-0.30000000000000004,1.1,-4.800000000000001,8.1,-3.9,0.0,-21.0,16
70,1201.0,0.2,-0.1,-0.8,1.1,-5.0,7.7,-9.4,-1.0,-19.799999999999997,16
71,1218.0,-0.2,0.1,0.0,0.7000000000000001,-4.9,8.4,-12.600000000000001,-6.1000000000000005,-15.399999999999999,16
72,1234.0,0.5,0.1,0.8,1.4000000000000001,-4.9,9.1,-12.4,0.1,-15.000000000000002,16
73,1251.0,2.1,0.7000000000000001,0.9,3.0,-4.3,9.3,-5.8,2.7,-21.500000000000004,16
74,1268.0,1.4000000000000001,0.1,-0.2,2.3000000000000003,-5.0,8.200000000000001,-3.5,10.8,-35.5,16
75,1284.0,0.2,-0.6000000000000001,0.0,1.2000000000000002,-5.7,8.4,-6.8,13.000000000000002,-42.5,16
76,1301.0,0.7000000000000001,-0.5,0.9,1.7000000000000002,-5.6000000000000005,9.200000000000001,-0.2,11.700000000000001,-46.50000000000001,16
77,1318.0,2.4000000000000004,0.2,1.0,3.5,-4.800000000000001,9.4,6.1000000000000005,22.2,-56.50000000000001,16
78,1334.0,1.9000000000000001,0.2,0.2,3.0,-4.800000000000001,8.6,9.5,45.0,-71.0,16
79,1351.0,1.6,0.1,2.9000000000000004,2.7,-4.800000000000001,11.3,21.200000000000003,35.3,-83.4,16
80,1368.0,1.4000000000000001,-0.5,-0.1,2.5,-5.300000000000001,8.3,34.50000000000001,10.8,-95.20000000000002,16
81,1385.0,-0.1,-0.2,-1.8,1.2000000000000002,-4.9,6.7,29.200000000000003,-4.7,-98.60000000000001,16
82,1401.0,-1.0,-1.6,-1.0,0.4,-6.300000000000001,7.6000000000000005,23.5,7.699999999999999,-90.5,16
83,1418.0,-4.1000000000000005,-1.7000000000000002,-0.4,-2.7,-6.300000000000001,8.200000000000001,16.0,17.1,-62.1,16
84,1434.0,-3.1,0.4,0.30000000000000004,-1.6,-4.1000000000000005,8.8,4.300000000000001,15.299999999999999,-37.9,16
85,1451.0,0.0,0.30000000000000004,0.1,1.5,-4.2,8.700000000000001,11.700000000000001,-7.200000000000001,-39.8,16
86,1468.0,0.0,-0.1,1.5,1.6,-4.6000000000000005,10.100000000000001,24.200000000000003,-32.400000000000006,-44.7,16
87,1484.0,0.9,0.0,0.6000000000000001,2.6,-4.4,9.200000000000001,25.1,-31.099999999999998,-57.20000000000001,16
88,1501.0,1.8,-0.4,-0.4,3.6,-4.7,8.200000000000001,23.3,-15.100000000000001,-67.10000000000001,16
89,1518.0,2.0,-0.1,0.7000000000000001,3.9000000000000004,-4.4,9.3,23.5,3.0,-80.7,16
90,1534.0,1.7000000000000002,-0.5,0.0,3.8000000000000003,-4.5,8.700000000000001,25.200000000000003,-5.8,-88.00000000000001,16
91,1551.0,-0.8,-0.6000000000000001,1.9000000000000001,1.4000000000000001,-4.5,10.700000000000001,23.700000000000003,-5.300000000000001,-97.10000000000001,16
92,1568.0,2.5,-1.2000000000000002,2.8000000000000003,4.800000000000001,-4.9,11.5,39.1,7.6,-100.6,16
93,1585.0,2.6,-1.7000000000000002,3.2,5.0,-5.2,12.0,60.1,28.600000000000005,-121.80000000000001,16
94,1601.0,1.9000000000000001,-0.2,0.9,4.3,-3.5,9.9,77.80000000000001,80.10000000000001,-146.1,16
95,1618.0,4.4,-2.6,-2.3000000000000003,6.7,-5.6000000000000005,6.7,77.20000000000002,106.20000000000002,-207.50000000000003,16
96,1635.0,0.1,-2.9000000000000004,-1.4000000000000001,2.3000000000000003,-5.5,7.800000000000001,75.5,79.1,-214.29999999999998,16
97,1651.0,-0.30000000000000004,-1.0,-1.8,1.8,-3.4000000000000004,7.5,49.6,13.100000000000001,-191.9,16
98,1668.0,3.5,0.1,1.4000000000000001,5.800000000000001,-2.0,10.700000000000001,47.80000000000001,-23.6,-212.29999999999998,16
99,1684.0,3.4000000000000004,0.2,1.4000000000000001,5.9,-1.6,10.700000000000001,53.2,-46.800000000000004,-228.3,16
100,1701.0,2.1,0.9,2.0,4.800000000000001,-0.6000000000000001,11.3,54.300000000000004,-67.00000000000001,-260.6,16
101,1718.0,-6.5,0.9,1.3,-3.6,-0.30000000000000004,10.5,79.9,-25.8,-244.60000000000002,16
102,1735.0,-6.5,-1.6,-0.2,-3.5,-2.3000000000000003,9.1,108.10000000000001,46.199999999999996,-212.1,16
103,1751.0,-4.0,-3.9000000000000004,-3.6,-1.1,-4.2,5.7,82.8,60.8,-189.9,16
104,1768.0,-4.0,-2.2,-1.9000000000000001,-1.3,-2.1,7.5,37.6,38.60000000000001,-145.5,16
105,1785.0,-2.1,-1.0,-0.4,0.6000000000000001,-0.7000000000000001,9.0,30.599999999999998,13.100000000000001,-123.6,16
106,1801.0,-3.5,0.1,-2.3000000000000003,-1.0,0.6000000000000001,7.1000000000000005,8.8,-5.2,-83.5,16
107,1818.0,-3.0,0.30000000000000004,-1.9000000000000001,-0.4,0.8,7.6000000000000005,-1.8000000000000003,-31.6,-55.8,16
108,1834.0,-0.8,-0.2,-1.9000000000000001,1.8,0.4,7.5,-20.7,-82.39999999999999,-41.199999999999996,16
109,1851.0,0.0,0.30000000000000004,-2.2,3.1,0.8,7.1000000000000005,-42.0,-127.5,-34.50000000000001,16
110,1868.0,5.800000000000001,-1.6,3.6,9.3,-1.2000000000000002,12.700000000000001,-60.8,-192.60000000000002,-28.3,16
111,1884.0,3.3000000000000003,-0.5,-0.30000000000000004,7.0,-0.2,8.8,-25.1,-29.900000000000006,-44.8,16
112,1901.0,2.0,-0.7000000000000001,2.9000000000000004,5.6000000000000005,-0.4,12.0,-33.1,64.2,-59.00000000000001,16
113,1918.0,-2.4000000000000004,0.8,0.0,1.0,1.1,9.200000000000001,-2.6,40.4,-61.8,16
114,1934.0,-3.8000000000000003,0.0,-0.4,-0.4,0.4,8.8,-9.5,13.3,-31.0,16
115,1951.0,-3.0,0.4,0.2,0.30000000000000004,0.8,9.4,-10.5,-0.8,-18.900000000000002,16
116,1968.0,-1.5,0.9,0.30000000000000004,1.9000000000000001,1.2000000000000002,9.5,-13.3,-9.700000000000001,-21.900000000000002,16
117,1984.0,-0.4,0.7000000000000001,-0.1,3.0,1.1,9.1,-18.3,-19.9,-30.000000000000004,16
118,2001.0,-0.30000000000000004,0.5,0.5,3.1,0.8,9.700000000000001,-20.8,-32.300000000000004,-32.400000000000006,16
119,2018.0,0.6000000000000001,0.2,0.1,4.1000000000000005,0.5,9.200000000000001,-24.0,-39.300000000000004,-33.1,16
120,2034.0,-1.9000000000000001,1.0,-0.1,1.7000000000000002,1.3,9.0,-22.4,-53.400000000000006,-18.5,16
121,2051.0,-1.2000000000000002,-0.5,0.7000000000000001,2.6,-0.30000000000000004,9.700000000000001,-25.300000000000004,-58.3,-12.4,16
122,2070.0,-3.9000000000000004,1.6,3.1,0.0,1.8,12.100000000000001,-53.50000000000001,133.50000000000003,22.5,16
123,2085.0,5.5,-2.0,-2.6,9.200000000000001,-1.9000000000000001,6.4,-131.6,33.7,-2.9,16
124,2101.0,-3.1,3.1,12.3,0.6000000000000001,2.9000000000000004,21.400000000000002,-4.300000000000001,-28.900000000000002,-13.200000000000003,16
125,2119.0,-1.5,0.30000000000000004,1.2000000000000002,2.2,0.2,10.200000000000001,-4.800000000000001,11.6,-18.700000000000003,16
126,2135.0,-1.7000000000000002,1.1,2.5,2.0,1.0,11.600000000000001,2.8,16.8,-42.800000000000004,16
127,2154.0,-1.2000000000000002,3.9000000000000004,0.0,2.5,3.9000000000000004,9.1,-8.8,-16.900000000000002,-75.00000000000001,16
128,2169.0,-1.2000000000000002,3.9000000000000004,0.0,2.5,3.9000000000000004,9.1,-15.700000000000001,-45.5,-84.9,16
129,2185.0,-3.6,4.0,-1.1,0.30000000000000004,4.0,7.9,-16.1,-43.50000000000001,-70.7,16
130,2202.0,-3.0,2.3000000000000003,-0.5,0.9,2.4000000000000004,8.5,-15.000000000000002,-21.7,-56.9,16
131,2218.0,-1.8,0.9,0.4,2.2,1.0,9.4,-15.399999999999999,-6.1000000000000005,-55.900000000000006,16
132,2235.0,-1.2000000000000002,0.5,1.4000000000000001,2.7,0.6000000000000001,10.4,-14.100000000000001,5.500000000000001,-64.7,16
133,2252.0,-1.3,0.9,2.3000000000000003,2.7,1.1,11.3,-5.4,13.700000000000001,-75.8,16
134,2268.0,-1.6,1.8,2.6,2.3000000000000003,2.1,11.600000000000001,-2.3,9.4,-74.5,16
135,2285.0,-1.0,2.5,1.4000000000000001,2.8000000000000003,2.8000000000000003,10.4,7.699999999999999,4.7,-56.300000000000004,16
136,2301.0,-0.5,2.6,1.0,3.3000000000000003,3.0,10.0,14.800000000000002,11.5,-39.699999999999996,16
137,2318.0,-0.2,3.7,1.5,3.6,4.2,10.5,34.1,10.4,-24.900000000000002,16
138,2335.0,-1.0,4.1000000000000005,0.30000000000000004,2.8000000000000003,4.7,9.3,61.7,22.6,3.5,16
139,2354.0,-0.2,3.9000000000000004,-0.30000000000000004,3.5,4.6000000000000005,8.700000000000001,79.5,35.2,30.4,16
140,2368.0,2.0,3.5,0.6000000000000001,5.7,4.4,9.600000000000001,100.1,32.1,48.70000000000001,16
141,2387.0,3.6,3.7,2.2,7.2,4.9,11.3,149.70000000000002,-9.2,65.89999999999999,16
142,2409.0,3.7,4.0,3.5,7.300000000000001,5.5,12.5,181.3,-47.80000000000001,87.10000000000001,16
143,2418.0,3.6,4.2,3.4000000000000004,7.300000000000001,6.0,12.3,210.3,-93.7,123.00000000000001,16
144,2435.0,2.5,3.3000000000000003,3.3000000000000003,6.5,5.4,12.0,229.8,-116.0,155.3,16
145,2462.0,2.7,-0.1,4.5,7.5,2.8000000000000003,12.600000000000001,263.4,-147.8,181.50000000000003,16
146,2469.0,2.7,-0.1,4.5,7.5,2.8000000000000003,12.600000000000001,263.4,-147.8,181.50000000000003,16
147,2485.0,2.7,-2.3000000000000003,4.5,8.0,0.9,12.100000000000001,276.80000000000007,-197.20000000000002,183.2,16
148,2502.0,2.9000000000000004,-5.0,2.6,8.8,-1.5,9.600000000000001,247.9,-223.00000000000003,169.0,16
149,2518.0,2.3000000000000003,-6.800000000000001,-2.1,9.3,-3.1,3.7,198.00000000000003,-242.3,174.20000000000002,16
150,2535.0,2.3000000000000003,-6.800000000000001,-2.1,9.3,-3.1,3.7,109.7,-275.1,121.80000000000001,16
151,2559.0,-0.7000000000000001,-7.1000000000000005,0.2,7.300000000000001,-3.5,4.7,53.300000000000004,-253.40000000000003,77.00000000000001,16
152,2568.0,-0.30000000000000004,-6.6000000000000005,0.6000000000000001,8.0,-3.1,4.5,25.300000000000004,-228.3,51.50000000000001,16
153,2585.0,-0.7000000000000001,-7.6000000000000005,-0.4,7.800000000000001,-4.2,3.1,-7.1000000000000005,-179.6,-16.6,16
154,2601.0,-0.9,-8.700000000000001,-1.2000000000000002,7.7,-5.2,1.9000000000000001,-43.900000000000006,-106.30000000000001,-98.60000000000001,16
155,2618.0,-3.9000000000000004,-6.7,-1.0,4.7,-3.0,1.9000000000000001,-91.7,-35.5,-165.10000000000002,16
156,2635.0,-8.8,-1.6,-0.1,-0.4,2.4000000000000004,2.8000000000000003,-124.39999999999999,-6.9,-123.00000000000001,16
157,2651.0,-6.2,2.4000000000000004,2.2,2.1,6.6000000000000005,5.300000000000001,-136.9,-13.100000000000001,-86.3,16
158,2673.0,-6.9,6.9,2.8000000000000003,1.4000000000000001,11.200000000000001,6.0,-112.60000000000001,-45.0,-57.49999999999999,16
159,2685.0,-7.0,5.7,3.3000000000000003,1.2000000000000002,9.9,6.6000000000000005,-95.1,-50.2,-43.300000000000004,16
160,2702.0,-2.6,-0.6000000000000001,1.7000000000000002,5.6000000000000005,3.6,4.9,-66.4,-77.7,-22.000000000000004,16
161,2718.0,-2.5,-1.0,0.9,5.800000000000001,3.2,4.0,-49.4,-105.5,-7.9,16
162,2735.0,-1.1,0.30000000000000004,2.4000000000000004,7.2,4.5,5.300000000000001,-39.400000000000006,-122.20000000000002,1.2000000000000002,16
163,2754.0,0.1,-0.1,2.9000000000000004,8.6,4.1000000000000005,5.5,-16.200000000000003,-146.1,2.3,16
164,2769.0,0.6000000000000001,-1.2000000000000002,2.3000000000000003,9.1,3.0,4.7,-10.0,-137.20000000000002,2.4000000000000004,16
165,2788.0,-1.8,-0.5,-1.0,6.9,3.6,0.7000000000000001,-17.7,-111.50000000000001,8.899999999999999,16
166,2802.0,-1.8,-0.5,-1.0,6.9,3.6,0.7000000000000001,-31.3,-90.80000000000001,19.0,16
167,2818.0,-0.5,0.0,1.2000000000000002,8.3,4.1000000000000005,2.7,-29.200000000000003,-106.0,15.100000000000001,16
168,2835.0,0.6000000000000001,1.4000000000000001,3.1,9.4,5.5,4.4,-18.3,-159.8,-3.5,16
169,2864.0,-0.9,-0.9,-1.1,8.0,3.2,-0.5,-64.30000000000001,-164.20000000000002,-26.700000000000003,16
170,2868.0,0.4,-2.2,1.0,9.3,1.9000000000000001,1.3,-64.30000000000001,-164.20000000000002,-26.700000000000003,16
171,2885.0,0.4,-2.2,1.0,9.3,1.9000000000000001,1.3,-92.3,-193.5,-73.5,16
172,2902.0,-3.4000000000000004,0.30000000000000004,0.4,5.300000000000001,4.800000000000001,0.0,-114.00000000000001,-181.3,-90.9,16
173,2918.0,-3.7,1.3,-0.7000000000000001,4.800000000000001,6.0,-1.4000000000000001,-123.30000000000003,-136.0,-80.4,16
174,2937.0,-3.7,0.2,-2.0,4.800000000000001,5.1000000000000005,-2.8000000000000003,-117.1,-66.9,-74.5,16
175,2951.0,-1.9000000000000001,-2.0,-1.3,6.4,3.1,-2.0,-108.3,-8.600000000000001,-85.9,16
176,2973.0,-0.8,-3.9000000000000004,-1.0,7.4,1.5,-1.6,-79.3,18.1,-101.10000000000001,16
177,2985.0,1.4000000000000001,-5.800000000000001,-5.300000000000001,9.5,-0.2,-5.7,-78.0,62.50000000000001,-110.9,16
178,3002.0,5.800000000000001,-4.1000000000000005,-2.2,13.700000000000001,1.7000000000000002,-2.3000000000000003,-69.3,75.00000000000001,-125.30000000000001,16
179,3018.0,5.1000000000000005,2.7,2.2,12.700000000000001,8.8,2.2,-5.500000000000001,41.1,-91.0,16
180,3039.0,4.0,3.3000000000000003,-3.5,11.600000000000001,9.5,-3.3000000000000003,52.400000000000006,91.30000000000001,23.900000000000006,16
181,3066.0,3.6,-2.4000000000000004,-0.9,11.200000000000001,3.8000000000000003,-0.6000000000000001,23.5,88.00000000000001,25.8,16
182,3069.0,3.6,-2.4000000000000004,-0.9,11.200000000000001,3.8000000000000003,-0.6000000000000001,23.5,88.00000000000001,25.8,16
183,3085.0,1.5,-1.6,3.3000000000000003,9.200000000000001,4.5,3.8000000000000003,-13.8,36.400000000000006,-18.5,16
184,3101.0,-4.0,-1.0,1.3,3.6,5.2,2.0,-46.1,18.5,-13.399999999999999,16
185,3120.0,-5.4,1.2000000000000002,7.6000000000000005,2.1,7.4,8.4,-38.50000000000001,-50.5,-11.000000000000002,16
186,3137.0,-8.5,1.1,5.9,-0.9,7.2,6.7,-40.5,-78.2,21.8,16
187,3161.0,1.1,-0.1,3.2,8.700000000000001,6.0,3.8000000000000003,-31.799999999999997,-94.4,-12.600000000000001,16
188,3168.0,1.1,-0.1,3.2,8.700000000000001,6.0,3.8000000000000003,-20.599999999999998,-76.4,-13.8,16
189,3185.0,-5.0,3.0,-0.6000000000000001,2.5,9.200000000000001,-0.30000000000000004,-19.400000000000002,-33.9,-24.0,16
190,3202.0,-5.0,3.0,-0.6000000000000001,2.5,9.200000000000001,-0.30000000000000004,-19.5,-2.9,18.3,16
191,3218.0,-1.3,4.7,2.2,6.300000000000001,10.9,2.6,5.0,5.0,23.3,16
192,3235.0,-1.9000000000000001,3.2,-2.9000000000000004,5.800000000000001,9.3,-2.5,15.5,9.899999999999999,40.4,16
193,3256.0,-0.8,2.1,-3.1,7.0,8.1,-2.7,7.0,8.5,29.800000000000004,16
194,3269.0,-1.4000000000000001,2.7,-3.0,6.4,8.700000000000001,-2.7,-5.4,5.500000000000001,17.200000000000003,16
195,3285.0,-1.9000000000000001,3.8000000000000003,-1.1,5.9,9.700000000000001,-0.7000000000000001,-10.4,1.3,12.8,16
196,3302.0,-1.2000000000000002,1.4000000000000001,-0.8,6.6000000000000005,7.300000000000001,-0.30000000000000004,-25.0,-16.1,13.700000000000001,16
197,3321.0,-0.1,0.1,-1.1,7.800000000000001,6.0,-0.7000000000000001,-46.4,-25.1,3.0,16
198,3335.0,0.5,0.4,-1.1,8.4,6.2,-0.6000000000000001,-70.3,-34.400000000000006,-8.3,16
199,3352.0,-0.1,1.4000000000000001,1.4000000000000001,7.7,7.2,1.9000000000000001,-67.5,-56.400000000000006,-17.1,16
200,3372.0,-1.5,1.0,-0.2,6.300000000000001,6.9,0.2,-67.10000000000001,-54.699999999999996,-15.299999999999999,16
201,3385.0,-1.1,0.30000000000000004,-0.5,6.7,6.2,0.0,-72.9,-52.2,-21.7,16
202,3401.0,-0.30000000000000004,0.2,-0.1,7.5,6.1000000000000005,0.4,-71.0,-41.7,-23.099999999999998,16
203,3418.0,0.6000000000000001,1.1,1.1,8.4,7.1000000000000005,1.5,-62.0,-44.9,-26.400000000000006,16
204,3442.0,1.2000000000000002,0.5,0.30000000000000004,8.9,6.6000000000000005,0.8,-52.300000000000004,-23.5,-32.1,16
205,3451.0,1.2000000000000002,0.5,0.30000000000000004,8.9,6.6000000000000005,0.8,-52.400000000000006,-20.2,-38.800000000000004,16
206,3468.0,0.0,0.9,0.30000000000000004,7.6000000000000005,7.2,1.0,-42.7,-6.2,-48.50000000000001,16
207,3484.0,0.0,0.5,0.1,7.4,6.800000000000001,0.8,-37.800000000000004,7.1000000000000005,-48.0,16
208,3502.0,-0.1,0.6000000000000001,0.6000000000000001,7.300000000000001,7.0,1.3,-44.7,13.100000000000001,-63.500000000000014,16
209,3518.0,-0.1,0.8,1.3,7.1000000000000005,7.4,2.2,-47.1,11.900000000000002,-81.50000000000001,16
210,3714.0,3.6,-1.3,-4.0,7.6000000000000005,7.6000000000000005,-2.9000000000000004,-33.1,-1.5,-52.80000000000001,16
211,3771.0,-1.1,1.2000000000000002,3.7,2.9000000000000004,10.100000000000001,5.0,40.4,25.1,82.60000000000001,16
212,3799.0,-4.2,-0.2,4.800000000000001,-0.1,8.6,6.0,61.10000000000001,35.4,32.5,16
213,3801.0,-4.2,-0.2,4.800000000000001,-0.1,8.6,6.0,61.10000000000001,35.4,32.5,16
214,3818.0,-2.1,0.30000000000000004,2.5,2.2,9.1,3.5,19.5,46.50000000000001,14.700000000000001,16
215,3835.0,-2.1,1.5,0.2,2.1,10.200000000000001,1.2000000000000002,2.3,53.7,21.0,16
216,3851.0,-1.2000000000000002,1.1,-1.0,3.1,9.8,0.1,2.9,70.5,25.900000000000002,16
217,3868.0,0.1,0.6000000000000001,-0.7000000000000001,4.4,9.3,0.5,0.2,59.60000000000001,23.700000000000003,16
218,3885.0,1.2000000000000002,0.30000000000000004,-0.2,5.6000000000000005,9.0,1.1,-1.5,43.6,14.600000000000001,16
219,3901.0,1.2000000000000002,0.5,0.1,5.6000000000000005,9.200000000000001,1.4000000000000001,-1.5,27.400000000000002,6.4,16
220,3918.0,0.8,0.7000000000000001,-0.2,5.2,9.4,1.1,-0.5,23.0,-1.6,16
221,3942.0,0.0,0.7000000000000001,-0.9,4.4,9.3,0.5,-20.3,29.0,-4.6,16
222,3951.0,-0.2,0.1,0.30000000000000004,4.2,8.700000000000001,1.8,-22.4,28.500000000000004,-7.0,16
223,3976.0,0.2,0.30000000000000004,0.0,4.5,9.0,1.6,-27.099999999999998,24.900000000000002,-12.5,16
224,3984.0,0.2,0.30000000000000004,0.0,4.5,9.0,1.6,-25.5,25.4,-12.299999999999999,16
225,4184.0,-2.5,-0.30000000000000004,0.7000000000000001,2.0,8.3,2.1,37.2,-189.60000000000002,30.000000000000004,16
226,4245.0,-0.9,-2.6,2.3000000000000003,3.8000000000000003,5.9,3.1,-17.7,-13.000000000000002,11.3,16
227,4254.0,-0.9,-2.6,2.3000000000000003,3.8000000000000003,5.9,3.1,-9.600000000000001,-13.3,17.5,16
228,4268.0,-0.30000000000000004,-2.7,1.1,4.5,5.800000000000001,1.8,1.2000000000000002,-3.5,21.8,16
229,4285.0,-0.30000000000000004,-1.9000000000000001,-0.4,4.5,6.6000000000000005,0.30000000000000004,-1.0,10.5,21.900000000000002,16
230,4305.0,0.0,-0.7000000000000001,-1.1,4.9,7.7,-0.30000000000000004,-11.700000000000001,-1.6,15.100000000000001,16
231,4318.0,0.0,0.4,0.0,4.9,8.8,0.8,-8.3,-9.0,9.600000000000001,16
232,4335.0,-4.0,0.2,-1.8,0.9,8.6,-1.0,-6.0,-12.299999999999999,17.5,16
233,4351.0,-1.1,-2.8000000000000003,-0.7000000000000001,3.9000000000000004,5.6000000000000005,0.1,-4.9,-7.8,6.699999999999999,16
234,4368.0,-1.5,-4.1000000000000005,2.7,3.5,4.3,3.5,16.6,12.600000000000001,-4.2,16
235,4384.0,-1.9000000000000001,-3.3000000000000003,0.8,3.2,5.1000000000000005,1.6,6.4,38.300000000000004,-1.1,16
236,4401.0,-1.7000000000000002,-2.1,-7.7,3.3000000000000003,6.300000000000001,-6.9,-30.200000000000003,51.1,-9.2,16
237,4421.0,4.0,3.7,2.7,9.0,12.100000000000001,3.6,31.9,-20.900000000000002,-27.400000000000002,16
238,4442.0,1.5,4.4,0.1,6.4,12.8,0.8,52.400000000000006,-56.0,-25.7,16
239,4451.0,1.5,4.4,0.1,6.4,12.8,0.8,56.50000000000001,-51.300000000000004,-30.200000000000003,16
240,4469.0,-1.4000000000000001,1.2000000000000002,3.4000000000000004,3.4000000000000004,9.8,3.6,71.10000000000001,-62.50000000000001,-37.1,16
241,4484.0,-1.2000000000000002,0.8,2.7,3.4000000000000004,9.4,2.7,85.69999999999999,-85.4,-39.699999999999996,16
242,4501.0,-0.7000000000000001,0.9,2.0,3.8000000000000003,9.5,1.7000000000000002,96.0,-111.80000000000001,-42.0,16
243,4518.0,-1.0,-0.1,4.0,3.4000000000000004,8.6,3.2,123.5,-145.20000000000002,-49.9,16
244,4534.0,-1.7000000000000002,-2.0,3.7,2.6,6.800000000000001,2.3000000000000003,145.10000000000002,-190.50000000000003,-51.70000000000001,16
245,4551.0,-3.2,-0.6000000000000001,2.7,0.9,8.1,0.7000000000000001,170.30000000000004,-198.10000000000002,-45.400000000000006,16
246,4569.0,-1.3,0.1,-5.6000000000000005,2.6,8.700000000000001,-8.1,157.9,-129.4,-35.699999999999996,16
247,4584.0,0.1,-0.6000000000000001,-5.7,3.7,8.0,-8.700000000000001,135.6,-116.4,-34.60000000000001,16
248,4601.0,-0.6000000000000001,-3.7,-9.9,2.9000000000000004,4.800000000000001,-13.3,82.10000000000001,-61.10000000000001,-31.0,16
249,4618.0,0.7000000000000001,-3.4000000000000004,-14.9,4.1000000000000005,5.1000000000000005,-18.5,6.4,45.6,-35.2,16
250,4634.0,1.4000000000000001,-1.9000000000000001,-16.2,4.800000000000001,6.6000000000000005,-19.700000000000003,-74.2,156.6,-46.1,16
251,4651.0,0.5,1.7000000000000002,-17.1,3.9000000000000004,10.3,-20.1,-174.80000000000004,270.7,-64.9,16
252,4668.0,-4.2,3.7,-27.1,-0.7000000000000001,12.600000000000001,-29.400000000000002,-331.1,276.20000000000005,-12.0,16
253,4684.0,-9.8,5.7,18.5,-6.300000000000001,14.700000000000001,17.2,-207.50000000000003,165.00000000000003,18.700000000000003,16
254,4701.0,3.6,-3.5,21.0,7.2,5.6000000000000005,20.5,-70.2,44.10000000000001,-22.1,16
255,4718.0,-9.0,-1.6,21.700000000000003,-5.4,7.5,21.5,1.4,13.3,-4.800000000000001,16
256,4734.0,-3.4000000000000004,-0.7000000000000001,3.3000000000000003,0.1,8.4,3.2,11.2,8.0,-9.3,16
257,4751.0,-2.0,-1.4000000000000001,-1.6,1.5,7.7,-1.7000000000000002,0.9000000000000001,-4.7,2.3,16
258,4768.0,-0.30000000000000004,-0.5,-1.4000000000000001,3.3000000000000003,8.6,-1.6,-13.900000000000002,-25.200000000000003,21.900000000000002,16
259,4784.0,1.7000000000000002,0.0,-0.4,5.300000000000001,9.1,-0.5,-17.5,-28.500000000000004,23.0,16
260,4801.0,2.3000000000000003,-0.2,0.9,6.0,8.9,0.8,-11.6,-23.6,12.4,16
261,4818.0,0.0,-0.5,0.30000000000000004,3.7,8.6,0.2,-5.8,-20.400000000000002,2.2,16
262,4834.0,-0.1,0.0,1.1,3.6,9.0,1.0,-3.3000000000000007,-13.3,2.4000000000000004,16
263,4851.0,1.0,-0.5,0.30000000000000004,4.7,8.5,0.2,-2.2,-3.0,-2.8,16
264,4868.0,3.0,-2.8000000000000003,0.6000000000000001,6.6000000000000005,6.300000000000001,0.5,-3.3000000000000007,9.3,-19.799999999999997,16
265,4884.0,0.2,-4.6000000000000005,3.2,3.8000000000000003,4.5,3.1,6.4,-1.9,-43.1,16
266,4901.0,-0.30000000000000004,-2.2,2.0,3.2,6.9,1.9000000000000001,31.5,-8.8,-41.6,16
267,4918.0,0.4,0.30000000000000004,1.4000000000000001,3.8000000000000003,9.5,1.2000000000000002,45.0,3.0,-46.300000000000004,16
268,4934.0,-1.0,0.6000000000000001,-1.4000000000000001,2.3000000000000003,9.8,-1.7000000000000002,52.300000000000004,17.0,-43.70000000000001,16
269,4951.0,-0.9,0.30000000000000004,0.9,2.3000000000000003,9.5,0.5,74.7,32.8,-42.800000000000004,16
270,4968.0,-0.9,1.1,1.7000000000000002,2.2,10.4,1.2000000000000002,97.2,50.60000000000001,-42.400000000000006,16
271,4984.0,-0.2,0.8,4.9,2.7,10.100000000000001,3.9000000000000004,109.10000000000001,47.80000000000001,-40.6,16
272,5001.0,-1.0,-0.2,2.9000000000000004,1.8,9.1,1.7000000000000002,134.10000000000002,37.2,-37.6,16
273,5018.0,-2.2,-0.2,-3.1,0.6000000000000001,9.0,-4.7,143.4,51.300000000000004,-30.799999999999997,16
274,5034.0,0.2,-1.4000000000000001,-3.5,2.9000000000000004,7.9,-5.4,113.2,70.4,-23.6,16
275,5051.0,-0.8,-1.5,-5.2,1.9000000000000001,7.6000000000000005,-7.300000000000001,72.7,26.799999999999997,-26.300000000000004,16
276,5068.0,0.2,0.7000000000000001,-4.9,2.8000000000000003,9.8,-7.2,42.1,16.6,-28.500000000000004,16
277,5084.0,0.1,1.9000000000000001,-4.800000000000001,2.6,11.100000000000001,-7.1000000000000005,4.800000000000001,-6.500000000000001,-25.1,16
278,5101.0,-1.8,0.4,-4.4,0.7000000000000001,9.600000000000001,-6.7,-28.900000000000002,-22.6,-17.300000000000004,16
279,5118.0,-1.7000000000000002,1.5,-4.0,0.7000000000000001,10.700000000000001,-6.300000000000001,-57.800000000000004,-31.0,-9.2,16
280,5134.0,-0.7000000000000001,2.8000000000000003,-5.800000000000001,1.7000000000000002,12.100000000000001,-7.9,-93.60000000000001,-36.6,-7.699999999999999,16
281,5151.0,-0.7000000000000001,2.6,-4.3,1.6,12.0,-6.2,-138.00000000000003,-47.900000000000006,-6.4,16
282,5168.0,-1.3,1.3,-3.0,1.0,10.700000000000001,-4.5,-160.20000000000002,-10.5,2.7,16
283,5185.0,-4.9,2.2,1.1,-2.5,11.600000000000001,0.0,-141.9,-32.300000000000004,17.400000000000002,16
284,5201.0,2.0,1.1,10.200000000000001,4.4,10.600000000000001,9.5,-65.8,-14.5,11.000000000000002,16
285,5218.0,2.6,-1.3,4.0,5.0,8.200000000000001,3.6,-44.8,-8.100000000000001,-8.700000000000001,16
286,5234.0,0.7000000000000001,0.5,1.3,3.0,10.0,1.0,-48.0,9.0,-29.400000000000002,16
287,5251.0,-3.1,0.2,1.2000000000000002,-0.8,9.8,1.0,-39.9,4.6,-25.4,16
288,5268.0,0.8,-1.3,-1.7000000000000002,3.0,8.200000000000001,-1.8,-28.200000000000003,7.500000000000001,-8.899999999999999,16
289,5284.0,-1.3,-1.1,0.9,0.9,8.4,0.9,-26.9,6.699999999999999,-12.4,16
290,5301.0,-0.7000000000000001,-1.1,0.7000000000000001,1.5,8.5,0.8,-9.700000000000001,-2.1,-3.1,16
291,5318.0,0.4,-0.2,0.5,2.6,9.4,0.5,-3.9,1.9,-3.4,16
292,5334.0,0.0,-0.5,1.5,2.2,9.0,1.6,2.9,9.100000000000001,-1.4,16
293,5351.0,-0.2,-1.2000000000000002,0.30000000000000004,2.0,8.3,0.4,2.9,12.8,0.30000000000000004,16
294,5368.0,-1.1,-0.7000000000000001,1.0,1.1,8.8,1.1,9.0,11.3,8.3,16
295,5385.0,-0.1,-0.6000000000000001,1.9000000000000001,2.2,9.0,1.9000000000000001,26.300000000000004,18.700000000000003,5.9,16
296,5401.0,10.200000000000001,-7.7,2.1,12.4,1.9000000000000001,2.1,36.2,23.900000000000006,-48.2,16
297,5418.0,6.800000000000001,-2.2,0.6000000000000001,8.8,7.4,0.5,36.8,-1.9,-125.60000000000001,16
298,5434.0,-7.300000000000001,2.2,-1.0,-5.6000000000000005,11.8,-1.2000000000000002,37.7,4.300000000000001,-100.0,16
299,5451.0,-8.4,0.5,-2.3000000000000003,-7.0,10.200000000000001,-2.6,29.1,19.700000000000003,-59.9,16
300,5468.0,1.0,-2.5,-3.3000000000000003,2.2,7.2,-3.7,-5.8,-21.1,-80.4,16
301,5484.0,-1.9000000000000001,0.1,-0.2,-0.8,9.9,-0.6000000000000001,-2.6,-36.0,-77.3,16
302,5501.0,-2.8000000000000003,1.5,1.4000000000000001,-1.9000000000000001,11.200000000000001,1.0,12.600000000000001,-17.7,-66.5,16
303,5518.0,-1.4000000000000001,-0.30000000000000004,0.2,-0.7000000000000001,9.4,-0.2,16.4,2.7,-60.300000000000004,16
304,5534.0,-1.0,1.8,1.0,-0.7000000000000001,11.600000000000001,0.5,22.2,10.700000000000001,-58.7,16
305,5551.0,1.3,0.5,1.0,1.5,10.3,0.5,32.2,8.700000000000001,-57.400000000000006,16
306,5568.0,0.7000000000000001,0.5,1.3,0.7000000000000001,10.3,0.5,56.400000000000006,11.6,-52.5,16
307,5584.0,0.9,0.8,-1.1,0.8,10.600000000000001,-2.0,64.10000000000001,15.100000000000001,-56.50000000000001,16
308,5601.0,0.5,1.4000000000000001,-1.5,0.30000000000000004,11.100000000000001,-2.6,56.0,28.1,-51.2,16
309,5617.0,0.6000000000000001,0.2,-1.0,0.30000000000000004,9.9,-2.2,31.099999999999998,56.6,-45.7,16
310,5635.0,-2.9000000000000004,1.1,-3.1,-3.4000000000000004,10.8,-4.3,5.7,40.300000000000004,-30.000000000000004,16
311,5651.0,-2.3000000000000003,1.1,-1.3,-2.8000000000000003,10.8,-2.6,-8.0,26.400000000000006,-16.200000000000003,16
312,5668.0,-1.9000000000000001,0.8,-0.1,-2.4000000000000004,10.5,-1.4000000000000001,-6.300000000000001,22.9,-7.699999999999999,16
313,5684.0,-2.0,1.2000000000000002,-0.4,-2.6,10.9,-1.6,-8.2,22.2,-2.7,16
314,5701.0,-1.0,1.5,0.8,-1.5,11.200000000000001,-0.4,-3.6000000000000005,20.5,5.1000000000000005,16
315,5718.0,-1.0,0.5,0.6000000000000001,-1.5,10.200000000000001,-0.6000000000000001,2.3,22.9,9.600000000000001,16
316,5734.0,-1.4000000000000001,0.9,0.0,-1.9000000000000001,10.600000000000001,-1.2000000000000002,0.8,12.600000000000001,15.700000000000001,16
317,5752.0,-1.6,0.5,-0.4,-2.0,10.200000000000001,-1.6,-6.699999999999999,-10.200000000000001,39.699999999999996,16
318,5768.0,0.8,0.2,-1.8,0.5,9.9,-3.0,-20.7,-15.5,14.100000000000001,16
319,5784.0,2.7,-0.5,-2.3000000000000003,2.5,9.200000000000001,-3.4000000000000004,-22.6,12.100000000000001,6.4,16
320,5801.0,-2.2,0.9,-2.0,-2.4000000000000004,10.700000000000001,-3.0,-30.699999999999996,23.2,16.8,16
321,5818.0,-1.4000000000000001,0.0,-1.5,-1.6,9.8,-2.5,-31.2,6.699999999999999,9.899999999999999,16
322,5834.0,0.2,-1.2000000000000002,-0.2,0.0,8.5,-1.1,-24.1,-2.9,-22.3,16
323,5851.0,-2.3000000000000003,5.6000000000000005,1.9000000000000001,-2.5,15.4,1.1,-8.100000000000001,41.900000000000006,-24.3,16
324,5868.0,-2.7,-0.30000000000000004,1.4000000000000001,-2.9000000000000004,9.4,0.6000000000000001,0.8,38.300000000000004,-29.300000000000004,16
325,5884.0,-3.9000000000000004,-4.6000000000000005,1.6,-4.2,5.2,0.8,4.6,21.300000000000004,-5.9,16
326,5901.0,-3.9000000000000004,-4.6000000000000005,1.6,-4.2,5.2,0.8,19.1,9.700000000000001,11.900000000000002,16
327,5921.0,-0.8,-1.8,-2.2,-1.0,7.9,-3.1,5.4,-52.5,25.4,16
328,5938.0,1.3,1.5,0.2,1.1,11.3,-0.8,11.5,3.9,24.200000000000003,16
329,5973.0,0.4,0.2,-3.5,0.4,9.9,-4.5,-18.700000000000003,-47.900000000000006,18.700000000000003,16
330,5997.0,1.5,0.2,1.7000000000000002,1.5,10.0,0.8,-15.299999999999999,-9.899999999999999,10.700000000000001,16
331,6001.0,1.5,0.2,1.7000000000000002,1.5,10.0,0.8,-8.4,-5.8,5.4,16
332,6018.0,0.0,0.2,1.2000000000000002,0.0,9.9,0.30000000000000004,-2.8,3.7000000000000006,1.6,16
333,6038.0,-0.7000000000000001,0.2,0.30000000000000004,-0.7000000000000001,9.9,-0.5,-3.1,6.8,1.5,16
334,6063.0,-0.4,0.1,0.0,-0.4,9.9,-0.8,-3.5,5.8,2.3,16
335,6069.0,-0.4,0.1,0.0,-0.4,9.9,-0.8,-3.5,5.8,2.3,16
336,6085.0,-0.30000000000000004,0.0,-0.2,-0.30000000000000004,9.8,-1.0,-2.8,4.0,2.9,16
337,6105.0,-0.1,0.0,-0.30000000000000004,-0.2,9.8,-1.1,-2.8,3.9,3.5,16
338,6119.0,-0.2,0.0,-0.1,-0.30000000000000004,9.8,-1.0,-2.0,3.8,4.2,16
339,6136.0,-0.1,0.0,-0.2,-0.2,9.8,-1.0,-1.4,4.800000000000001,4.300000000000001,16
340,6159.0,-0.1,0.0,0.0,-0.30000000000000004,9.8,-0.9,-0.6000000000000001,7.0,3.9,16
341,6168.0,-0.1,0.0,0.0,-0.30000000000000004,9.8,-0.9,-0.4,7.500000000000001,3.5,16
342,6185.0,-0.2,0.0,0.0,-0.4,9.8,-0.9,-0.6000000000000001,6.300000000000001,2.6,16
343,6201.0,-0.5,0.1,0.2,-0.7000000000000001,9.8,-0.7000000000000001,0.30000000000000004,5.8,2.6,16
344,6218.0,-0.2,0.0,0.0,-0.4,9.8,-0.9,0.7,4.7,3.5,16
345,6235.0,-0.1,0.2,0.0,-0.30000000000000004,9.9,-0.9,0.1,3.9,3.9,16
346,6257.0,0.1,0.30000000000000004,0.0,-0.1,10.0,-0.9,-0.6000000000000001,2.4000000000000004,2.8,16
347,6268.0,0.2,0.1,0.1,0.0,9.9,-0.8,-1.1,1.7,1.0,16
348,6285.0,0.4,0.1,0.0,0.2,9.8,-0.9,0.0,6.1000000000000005,-0.7,16
349,6301.0,0.30000000000000004,0.1,-0.1,0.1,9.8,-1.0,-1.2000000000000002,7.500000000000001,-2.3,16
350,6318.0,0.1,0.1,0.0,-0.1,9.9,-0.9,-1.2000000000000002,9.600000000000001,-1.4,16
351,6334.0,0.2,0.1,0.1,0.0,9.9,-0.8,-2.4000000000000004,9.0,-0.7,16
352,6358.0,0.0,-0.2,0.1,-0.1,9.5,-0.8,-2.4000000000000004,7.500000000000001,-1.0,16
353,6368.0,-0.4,0.2,0.2,-0.6000000000000001,10.0,-0.7000000000000001,-3.2,5.300000000000001,0.0,16
354,6385.0,-0.2,0.2,-0.1,-0.4,10.0,-1.0,-5.4,0.0,0.8,16
355,6401.0,0.1,0.5,0.2,-0.1,10.3,-0.7000000000000001,-6.699999999999999,-1.6,1.5,16
356,6419.0,0.30000000000000004,0.2,-0.5,0.1,10.0,-1.3,-10.200000000000001,0.30000000000000004,1.6,16
357,6434.0,-0.6000000000000001,0.0,-1.2000000000000002,-0.8,9.8,-2.0,-18.3,1.0,4.6,16
358,6457.0,-0.30000000000000004,0.30000000000000004,-0.1,-0.5,10.100000000000001,-0.9,-27.700000000000003,-0.5,9.3,16
359,6469.0,-0.30000000000000004,0.30000000000000004,-0.1,-0.5,10.100000000000001,-0.9,-23.700000000000003,-6.2,7.200000000000001,16
360,6485.0,0.7000000000000001,-0.5,1.7000000000000002,0.6000000000000001,9.3,1.0,-9.100000000000001,-3.1,1.3,16
361,6502.0,0.5,-0.1,-0.30000000000000004,0.30000000000000004,9.700000000000001,-0.9,1.5,7.500000000000001,1.3,16
362,6519.0,0.2,0.1,-0.1,0.1,9.9,-0.8,0.5,8.899999999999999,0.7,16
363,6535.0,-0.1,0.1,0.1,-0.30000000000000004,9.9,-0.6000000000000001,-1.8000000000000003,6.4,-0.5,16
364,6563.0,-0.2,0.0,0.4,-0.30000000000000004,9.8,-0.30000000000000004,0.30000000000000004,2.2,-0.4,16
365,6572.0,-0.4,0.0,-0.1,-0.5,9.8,-0.7000000000000001,-0.30000000000000004,0.1,0.0,16
366,6585.0,-0.30000000000000004,0.1,-0.1,-0.4,9.9,-0.6000000000000001,-1.4,-1.6,0.1,16
367,6603.0,-0.1,0.1,0.2,-0.30000000000000004,9.8,-0.4,-1.0,-5.7,0.6000000000000001,16
368,6620.0,0.2,0.1,0.0,0.0,9.9,-0.5,-0.5,-6.1000000000000005,0.4,16
369,6635.0,0.4,0.5,-0.2,0.30000000000000004,10.3,-0.8,-3.6000000000000005,-4.1,-0.4,16
370,6660.0,0.1,0.0,0.4,-0.1,9.8,-0.2,-3.0,-4.300000000000001,0.1,16
371,6669.0,-0.2,0.0,0.0,-0.30000000000000004,9.8,-0.5,-3.3000000000000007,-4.2,0.30000000000000004,16
372,6686.0,0.1,0.1,-0.1,0.0,9.9,-0.6000000000000001,-2.4000000000000004,-5.1000000000000005,0.2,16
373,6705.0,0.0,0.1,-0.30000000000000004,-0.1,9.9,-0.8,-4.6,-6.2,0.7,16
374,6719.0,0.30000000000000004,-0.4,1.1,0.2,9.4,0.6000000000000001,8.0,2.3,1.2000000000000002,16
375,6735.0,-0.1,0.1,0.0,-0.2,9.9,-0.5,5.7,-1.1,1.5,16
376,6766.0,-0.1,0.2,-0.4,-0.2,10.0,-1.0,5.500000000000001,-2.6,1.6,16
377,6768.0,-0.1,0.2,-0.4,-0.2,10.0,-1.0,2.6,-4.300000000000001,1.9,16
378,6785.0,0.0,0.30000000000000004,-0.7000000000000001,-0.2,10.100000000000001,-1.2000000000000002,1.0,-0.1,1.4,16
379,6801.0,-0.1,0.1,-0.1,-0.2,9.9,-0.6000000000000001,1.6,0.4,0.9000000000000001,16
380,6818.0,-0.30000000000000004,0.0,0.0,-0.4,9.8,-0.5,2.8,0.1,0.30000000000000004,16
381,6835.0,-0.5,-0.1,0.1,-0.6000000000000001,9.700000000000001,-0.5,4.2,-0.9000000000000001,0.4,16
382,6862.0,-0.4,0.2,0.0,-0.6000000000000001,10.0,-0.6000000000000001,3.2,-5.7,0.7,16
383,6876.0,-0.1,0.4,-0.7000000000000001,-0.2,10.200000000000001,-1.3,1.7,-5.9,1.0,16
384,6885.0,0.2,0.2,-0.5,0.0,10.0,-1.2000000000000002,-0.2,-6.2,0.8,16
385,6902.0,0.1,0.1,0.2,0.0,9.9,-0.4,-0.7,-6.500000000000001,-0.7,16
386,6923.0,0.2,0.0,0.1,0.0,9.8,-0.5,1.7,-5.500000000000001,-0.7,16
387,6935.0,0.30000000000000004,-0.2,-0.2,0.1,9.600000000000001,-0.8,2.0,-4.800000000000001,-1.2000000000000002,16
388,6965.0,0.4,0.0,-0.30000000000000004,0.30000000000000004,9.700000000000001,-1.0,-2.8,-10.1,-4.1,16
389,6968.0,0.4,0.0,-0.30000000000000004,0.30000000000000004,9.700000000000001,-1.0,-2.8,-10.1,-4.1,16
390,6985.0,0.2,-0.30000000000000004,-0.1,0.0,9.5,-0.7000000000000001,-3.2,-9.5,-2.6,16
391,7005.0,-0.5,0.1,0.5,-0.7000000000000001,9.9,-0.2,2.7,-5.2,0.1,16
392,7018.0,-0.2,-0.1,0.30000000000000004,-0.4,9.700000000000001,-0.30000000000000004,4.2,-4.6,0.30000000000000004,16
393,7038.0,-0.30000000000000004,0.2,0.1,-0.5,10.0,-0.6000000000000001,5.9,-2.6,1.6,16
394,7064.0,0.0,0.2,0.0,-0.2,10.0,-0.7000000000000001,7.300000000000001,-0.2,2.3,16
395,7076.0,0.1,0.2,-0.30000000000000004,-0.1,10.0,-1.0,5.1000000000000005,2.0,1.8000000000000003,16
396,7086.0,0.1,0.2,-0.30000000000000004,-0.1,10.0,-1.0,4.1,5.1000000000000005,1.5,16
397,7102.0,0.2,0.1,-0.30000000000000004,0.0,9.9,-1.0,2.8,7.699999999999999,0.9000000000000001,16
398,7118.0,0.30000000000000004,0.0,-0.2,0.1,9.8,-0.9,1.4,8.600000000000001,0.0,16
399,7135.0,0.2,0.1,-0.1,0.1,9.9,-0.8,1.0,9.3,-0.7,16
400,7151.0,0.2,0.2,-0.30000000000000004,0.1,10.0,-1.1,-0.9000000000000001,7.8,-1.9,16
401,7169.0,0.1,0.2,-0.1,-0.1,10.0,-0.8,-4.7,4.9,-2.3,16
402,7188.0,0.0,0.2,0.30000000000000004,-0.2,9.9,-0.4,-5.300000000000001,4.0,-1.5,16
403,7201.0,-0.1,0.1,0.2,-0.2,9.9,-0.5,-4.9,3.4,-1.1,16
404,7218.0,-0.2,0.1,0.1,-0.4,9.8,-0.6000000000000001,-4.5,3.4,-0.7,16
405,7235.0,-0.30000000000000004,0.1,0.0,-0.4,9.9,-0.6000000000000001,-4.2,3.4,0.2,16
406,7263.0,-0.1,0.0,-0.2,-0.30000000000000004,9.8,-0.8,-5.500000000000001,1.0,0.5,16
407,7271.0,-0.1,0.0,0.1,-0.30000000000000004,9.8,-0.6000000000000001,-5.300000000000001,-0.1,0.7,16
408,7285.0,-0.1,0.0,-0.2,-0.30000000000000004,9.8,-0.8,-6.4,-2.6,1.4,16
409,7312.0,0.1,0.2,0.0,-0.1,10.0,-0.6000000000000001,-9.2,-2.6,0.7,16
410,7318.0,0.1,0.2,0.0,-0.1,10.0,-0.6000000000000001,-8.600000000000001,-1.0,0.30000000000000004,16
411,7335.0,0.1,0.1,0.1,0.0,9.9,-0.4,-6.9,1.0,0.5,16
412,7359.0,-0.1,0.0,-0.1,-0.2,9.8,-0.6000000000000001,-7.6,0.30000000000000004,0.1,16
413,7368.0,-0.1,0.0,-0.1,-0.2,9.8,-0.6000000000000001,-7.9,-2.6,0.0,16
414,7386.0,-0.2,0.0,0.30000000000000004,-0.30000000000000004,9.8,-0.30000000000000004,-6.4,-5.0,-0.1,16
415,7404.0,0.0,0.1,0.7000000000000001,-0.1,9.9,0.2,-2.4000000000000004,-3.2,0.0,16
416,7418.0,0.0,0.0,0.6000000000000001,-0.1,9.8,0.1,-0.2,-3.1,-0.2,16
417,7435.0,-0.1,0.1,0.0,-0.2,9.9,-0.4,-0.6000000000000001,-2.7,0.0,16
418,7451.0,0.0,0.0,0.0,-0.1,9.8,-0.5,-0.6000000000000001,-0.7,-0.1,16
419,7472.0,0.0,0.0,0.0,-0.1,9.8,-0.5,-0.6000000000000001,-0.2,-0.1,16
420,7489.0,0.0,-0.1,0.4,-0.2,9.600000000000001,-0.1,4.2,5.9,-1.0,16
421,7502.0,-0.5,0.1,-0.1,-0.6000000000000001,9.9,-0.5,4.9,4.0,-0.9000000000000001,16
422,7518.0,-0.30000000000000004,0.1,-0.2,-0.4,9.9,-0.7000000000000001,1.8000000000000003,-2.4000000000000004,0.4,16
423,7534.0,-0.1,0.2,0.2,-0.2,10.0,-0.30000000000000004,1.9,-3.1,0.4,16
424,7552.0,0.0,0.1,0.30000000000000004,-0.2,9.9,-0.2,4.1,-1.4,0.30000000000000004,16
425,7569.0,-0.1,0.0,0.5,-0.30000000000000004,9.8,0.0,6.600000000000001,-0.2,0.0,16
426,7586.0,0.2,0.1,-0.2,0.0,9.9,-0.7000000000000001,7.0,3.4,-0.7,16
427,7602.0,0.1,0.2,-0.30000000000000004,-0.1,10.0,-0.8,5.8,4.1,-0.8,16
428,7622.0,0.0,0.1,-0.2,-0.2,9.9,-0.7000000000000001,3.7000000000000006,2.6,-0.7,16
429,7635.0,0.0,0.0,-0.1,-0.2,9.8,-0.7000000000000001,3.0,1.1,-0.7,16
430,7651.0,0.0,0.1,-0.30000000000000004,-0.2,9.8,-0.8,2.2,-0.6000000000000001,-0.6000000000000001,16
431,7678.0,0.1,0.0,-0.30000000000000004,-0.1,9.8,-0.8,1.2000000000000002,-0.30000000000000004,-0.9000000000000001,16
432,7685.0,0.2,0.0,-0.2,0.1,9.8,-0.8,-0.4,-0.6000000000000001,-1.8000000000000003,16
433,7706.0,0.1,0.0,-0.5,-0.1,9.8,-1.1,-4.2,-2.2,-1.9,16
434,7721.0,-0.2,-0.1,0.0,-0.30000000000000004,9.700000000000001,-0.6000000000000001,-3.7000000000000006,-0.8,-1.5,16
435,7740.0,-0.30000000000000004,0.0,0.7000000000000001,-0.5,9.8,0.1,3.9,2.8,-0.2,16
436,7751.0,-0.1,0.1,0.2,-0.30000000000000004,9.9,-0.4,3.5,2.1,-0.1,16
437,7770.0,-0.2,0.2,0.1,-0.4,10.0,-0.5,3.4,1.6,0.9000000000000001,16
438,7791.0,0.30000000000000004,0.4,-0.1,0.1,10.200000000000001,-0.7000000000000001,1.1,2.9,0.1,16
439,7801.0,0.30000000000000004,0.4,-0.1,0.1,10.200000000000001,-0.7000000000000001,0.4,3.2,-0.30000000000000004,16
440,7821.0,0.0,0.1,-0.4,-0.2,9.9,-1.0,-4.300000000000001,1.5,-0.2,16
441,7838.0,-0.1,0.0,-0.7000000000000001,-0.30000000000000004,9.8,-1.3,-5.500000000000001,0.2,0.30000000000000004,16
442,7863.0,0.30000000000000004,0.1,-0.6000000000000001,0.1,9.9,-1.2000000000000002,-9.899999999999999,-2.6,0.9000000000000001,16
443,7874.0,0.1,-0.1,0.0,-0.1,9.700000000000001,-0.6000000000000001,-9.4,-2.1,1.0,16
444,7885.0,0.2,-0.1,0.9,0.0,9.700000000000001,0.30000000000000004,-4.0,-0.1,0.30000000000000004,16
445,7905.0,0.1,-0.1,0.9,0.0,9.700000000000001,0.30000000000000004,0.2,-1.4,0.9000000000000001,16
446,7918.0,0.1,0.0,0.6000000000000001,-0.1,9.700000000000001,0.0,2.4000000000000004,-0.30000000000000004,1.3,16
447,7940.0,0.1,0.1,0.1,0.0,9.9,-0.5,2.6,3.0,0.9000000000000001,16
448,7951.0,0.1,0.2,0.0,-0.1,10.0,-0.5,2.6,5.6,0.8,16
449,7968.0,0.1,0.2,-0.30000000000000004,0.0,10.0,-0.8,1.1,8.5,0.0,16
450,7990.0,0.0,0.2,0.1,-0.2,10.0,-0.4,0.6000000000000001,9.100000000000001,-0.9000000000000001,16
451,8003.0,-0.1,0.1,0.1,-0.2,9.9,-0.5,-0.7,9.4,-1.0,16
452,8021.0,0.2,0.1,-0.30000000000000004,0.0,9.9,-0.8,-2.7,12.600000000000001,-1.8000000000000003,16
453,8045.0,-0.1,0.2,-0.2,-0.2,10.0,-0.7000000000000001,-7.0,7.400000000000001,-2.5,16
454,8055.0,-0.1,0.2,-0.2,-0.2,10.0,-0.7000000000000001,-8.4,4.800000000000001,-2.4000000000000004,16
455,8068.0,-0.4,0.0,0.30000000000000004,-0.6000000000000001,9.8,-0.2,-7.300000000000001,0.5,-1.3,16
456,8086.0,0.0,0.4,-0.5,-0.1,10.200000000000001,-1.0,-7.1000000000000005,-7.300000000000001,-0.2,16
457,8104.0,-0.2,-0.5,-0.8,-0.4,9.3,-1.3,-9.2,-8.100000000000001,0.5,16
458,8124.0,-0.1,0.4,0.1,-0.2,10.200000000000001,-0.30000000000000004,-8.0,-1.2000000000000002,0.7,16
459,8135.0,0.0,0.2,0.2,-0.2,9.9,-0.30000000000000004,-7.0,-2.1,0.8,16
460,8161.0,0.2,0.2,0.5,0.0,10.0,0.0,-4.7,-0.8,1.0,16
461,8168.0,0.2,0.2,0.5,0.0,10.0,0.1,-4.7,-0.8,1.0,16
462,8185.0,0.0,-0.1,0.1,-0.2,9.700000000000001,-0.2,-2.7,-1.0,1.7,16
463,8201.0,0.0,-0.2,0.2,-0.2,9.600000000000001,-0.1,-0.1,0.5,2.1,16
464,8218.0,0.0,-0.1,0.1,-0.1,9.700000000000001,-0.2,2.4000000000000004,0.6000000000000001,1.8000000000000003,16
465,8235.0,0.0,0.0,0.0,-0.2,9.8,-0.30000000000000004,3.4,0.4,1.1,16
466,8251.0,-0.6000000000000001,-0.30000000000000004,-1.7000000000000002,-0.7000000000000001,9.5,-2.0,5.0,9.0,3.7000000000000006,16
467,8278.0,1.1,0.5,0.30000000000000004,0.9,10.3,0.0,-1.6,-3.7000000000000006,2.4000000000000004,16
468,8284.0,-0.1,-0.4,0.7000000000000001,-0.30000000000000004,9.4,0.4,4.2,1.3,0.4,16
469,8301.0,0.2,0.1,0.30000000000000004,0.1,9.9,-0.1,2.6,1.5,0.1,16
470,8318.0,0.1,0.30000000000000004,0.1,-0.1,10.100000000000001,-0.30000000000000004,-1.6,-2.4000000000000004,0.30000000000000004,16
471,8337.0,0.1,0.30000000000000004,0.0,0.0,10.100000000000001,-0.4,-3.9,-3.5,0.30000000000000004,16
472,8351.0,0.0,0.2,-0.30000000000000004,-0.2,10.0,-0.6000000000000001,-7.500000000000001,-7.500000000000001,0.0,16
473,8372.0,0.1,0.2,0.0,0.0,10.0,-0.30000000000000004,-10.0,-10.700000000000001,0.0,16
474,8385.0,0.1,0.2,0.0,0.0,10.0,-0.30000000000000004,-11.700000000000001,-14.5,-0.4,16
475,8405.0,0.0,0.1,0.0,-0.1,9.9,-0.30000000000000004,-10.5,-15.100000000000001,0.30000000000000004,16
476,8418.0,0.0,0.1,0.0,-0.1,9.9,-0.30000000000000004,-9.3,-14.100000000000001,0.0,16
477,8466.0,-0.2,0.1,-0.1,-0.30000000000000004,9.9,-0.2,-8.5,-12.4,-0.8,16
478,8470.0,-0.2,0.1,-0.1,-0.30000000000000004,9.9,-0.2,-8.600000000000001,-13.000000000000002,-0.6000000000000001,16
479,8489.0,-0.1,0.1,-0.1,-0.30000000000000004,9.9,-0.2,-9.8,-15.100000000000001,-0.4,16
480,8501.0,-0.1,0.0,0.2,-0.30000000000000004,9.8,0.1,-9.0,-15.2,-0.2,16
481,8518.0,0.0,0.1,0.2,-0.1,9.9,0.1,-7.699999999999999,-12.8,-0.30000000000000004,16
482,8534.0,0.2,0.1,0.2,0.0,9.9,0.2,-6.9,-9.3,-0.5,16
483,8553.0,0.1,0.1,0.4,0.0,9.9,0.4,-5.7,-6.500000000000001,-0.5,16
484,8568.0,0.30000000000000004,0.0,0.2,0.1,9.8,0.2,-4.4,-3.5,-0.1,16
485,8584.0,0.0,0.0,0.1,-0.1,9.8,0.1,-3.4,-2.5,-0.2,16
486,8601.0,-0.2,-0.1,0.1,-0.30000000000000004,9.700000000000001,0.1,-2.4000000000000004,-3.7000000000000006,-0.30000000000000004,16
487,8617.0,-0.1,0.1,0.0,-0.2,9.9,0.0,-1.0,-3.0,-0.30000000000000004,16
488,8643.0,-0.1,0.1,0.1,-0.2,9.9,0.1,0.0,-2.8,0.6000000000000001,16
489,8651.0,-0.1,0.1,0.1,-0.2,9.9,0.1,0.5,-3.2,0.7,16
490,8667.0,-0.1,0.2,0.0,-0.2,10.0,0.0,-0.9000000000000001,-4.9,0.6000000000000001,16
491,8684.0,-0.1,0.1,0.0,-0.30000000000000004,9.9,0.0,-0.9000000000000001,-5.8,0.2,16
492,8703.0,0.0,0.1,0.1,-0.1,9.9,0.1,-1.2000000000000002,-7.400000000000001,0.2,16
493,8718.0,0.0,0.1,0.1,-0.1,9.9,0.1,-1.5,-5.7,0.30000000000000004,16
494,8735.0,0.0,0.1,0.1,-0.1,9.9,0.1,-0.1,-3.6000000000000005,0.4,16
495,8751.0,0.0,0.1,-0.30000000000000004,-0.1,9.9,-0.30000000000000004,-1.8000000000000003,-3.4,0.4,16
496,8787.0,0.0,0.0,0.1,-0.2,9.9,0.1,-1.0,-0.30000000000000004,0.30000000000000004,16
497,8801.0,-0.1,0.0,0.2,-0.2,9.8,0.30000000000000004,-1.1,-0.7,0.2,16
498,8819.0,-0.2,-0.1,0.5,-0.30000000000000004,9.700000000000001,0.6000000000000001,1.3,-0.8,0.30000000000000004,16
499,8834.0,-0.1,-0.1,0.1,-0.30000000000000004,9.700000000000001,0.1,3.6000000000000005,-0.30000000000000004,0.7,16
500,8851.0,0.0,0.0,-0.1,-0.2,9.8,0.0,3.6000000000000005,0.0,0.8,16
501,8868.0,0.2,0.2,-0.1,0.0,10.0,-0.1,4.4,1.8000000000000003,0.7,16
502,8885.0,0.0,0.1,-0.2,-0.1,9.9,-0.2,4.4,4.1,0.9000000000000001,16
503,8901.0,-0.1,0.1,-0.2,-0.30000000000000004,9.9,-0.2,3.2,3.0,1.0,16
504,8918.0,-0.1,0.2,-0.1,-0.2,10.0,-0.1,2.4000000000000004,2.1,1.5,16
505,8934.0,0.0,0.30000000000000004,-0.9,-0.2,10.100000000000001,-0.9,1.4,6.0,1.9,16
506,8951.0,0.5,0.0,-0.30000000000000004,0.4,9.8,-0.30000000000000004,-0.30000000000000004,5.9,0.7,16
507,8973.0,0.0,-0.1,0.2,-0.1,9.700000000000001,0.2,3.2,4.300000000000001,0.6000000000000001,16
508,8985.0,0.0,-0.1,0.2,-0.1,9.700000000000001,0.2,3.0,5.0,0.4,16
509,9005.0,-0.2,0.1,0.0,-0.30000000000000004,9.9,0.0,1.5,3.6000000000000005,0.7,16
510,9018.0,-0.1,0.2,-0.1,-0.2,10.0,-0.1,1.5,1.8000000000000003,0.8,16
511,9045.0,-0.1,0.1,-0.2,-0.2,9.9,-0.30000000000000004,1.7,3.7000000000000006,0.2,16
512,9051.0,0.0,0.1,-0.1,-0.1,9.9,-0.2,2.3,4.7,0.2,16
513,9068.0,-0.1,-0.1,0.0,-0.30000000000000004,9.700000000000001,-0.1,3.2,6.699999999999999,0.1,16
514,9088.0,-0.2,0.0,0.4,-0.30000000000000004,9.8,0.30000000000000004,3.7000000000000006,4.6,-0.30000000000000004,16
515,9102.0,0.0,0.2,0.0,-0.1,10.0,-0.1,3.5,2.7,-0.30000000000000004,16
516,9119.0,0.1,0.30000000000000004,-0.30000000000000004,-0.1,10.100000000000001,-0.4,-0.6000000000000001,-2.4000000000000004,0.6000000000000001,16
517,9135.0,0.1,0.1,0.1,0.0,9.9,0.0,-2.0,-4.7,0.6000000000000001,16
518,9154.0,0.0,0.0,-0.1,-0.1,9.8,-0.2,-2.1,-4.800000000000001,0.9000000000000001,16
519,9169.0,0.1,0.1,0.0,0.0,9.9,-0.1,-2.5,-4.5,1.0,16
520,9185.0,0.0,0.1,-0.2,-0.1,9.9,-0.30000000000000004,-3.8,-3.9,1.1,16
521,9201.0,0.2,0.2,0.0,0.1,10.0,-0.1,-4.7,-2.1,1.1,16
522,9219.0,0.0,0.0,0.4,-0.1,9.8,0.4,-4.6,-2.6,0.7,16
523,9235.0,0.0,0.1,0.2,-0.2,9.9,0.1,-3.6000000000000005,-1.2000000000000002,0.5,16
524,9254.0,0.1,0.2,0.0,0.0,10.0,0.0,-2.3,1.1,0.1,16
525,9268.0,0.2,0.2,0.0,0.1,10.0,0.0,-2.9,-0.4,0.4,16
526,9285.0,0.1,0.0,-0.1,0.0,9.9,-0.1,-2.4000000000000004,-0.5,0.30000000000000004,16
527,9304.0,0.1,0.1,0.0,0.0,9.9,0.0,-1.7,-2.5,0.9000000000000001,16
528,9319.0,0.1,0.1,0.0,-0.1,9.8,0.1,-1.5,-4.6,1.1,16
529,9337.0,0.1,0.0,0.2,0.0,9.8,0.2,-1.1,-5.0,1.0,16
530,9351.0,0.1,0.0,0.2,0.0,9.8,0.2,0.4,-2.4000000000000004,0.9000000000000001,16
531,9369.0,0.1,0.0,0.0,0.0,9.8,0.0,0.7,0.1,0.7,16
532,9385.0,-0.1,0.0,0.1,-0.1,9.9,0.1,0.0,1.5,0.30000000000000004,16
533,9401.0,-0.1,0.0,0.1,-0.2,9.8,0.1,-0.2,1.4,-0.1,16
534,9418.0,0.0,0.1,0.1,-0.1,9.9,0.1,0.6000000000000001,2.2,-0.30000000000000004,16
535,9435.0,0.0,0.2,0.0,-0.1,10.0,0.0,0.7,2.8,-0.6000000000000001,16
536,9451.0,0.0,0.1,0.1,-0.1,9.9,0.1,0.5,1.9,-0.6000000000000001,16
537,9468.0,0.0,0.0,-0.1,-0.1,9.8,-0.1,-0.1,0.5,-0.4,16
538,9484.0,-0.1,0.1,-0.1,-0.2,9.9,-0.1,-0.6000000000000001,-1.2000000000000002,0.30000000000000004,16
539,9501.0,-0.2,0.0,0.0,-0.2,9.9,0.0,-0.8,-3.0,0.2,16
540,9518.0,-0.1,0.1,-0.1,-0.2,9.9,-0.1,-1.2000000000000002,-5.1000000000000005,0.1,16
541,9535.0,0.0,0.1,-0.1,-0.1,9.9,-0.1,-1.3,-4.6,0.2,16
542,9552.0,0.2,0.1,0.1,0.1,9.9,0.1,-0.8,-3.2,-0.2,16
543,9568.0,0.1,0.2,0.1,0.0,10.0,0.1,-1.2000000000000002,-3.0,-0.5,16
544,9585.0,0.1,0.1,-0.30000000000000004,0.0,9.9,-0.2,-2.5,-3.4,-0.1,16
545,9606.0,-0.1,0.1,-0.1,-0.2,9.9,-0.1,-3.0,-4.4,0.0,16
546,9618.0,-0.1,0.1,-0.1,-0.2,9.9,-0.1,-2.0,-6.2,0.0,16
547,9637.0,0.0,0.0,0.2,-0.1,9.8,0.2,-1.1,-7.8,0.0,16
548,9651.0,0.0,0.1,0.1,-0.1,9.9,0.1,-1.5,-9.100000000000001,0.0,16
549,9671.0,0.0,0.0,0.0,-0.1,9.8,0.1,-3.5,-11.000000000000002,-0.1,16
550,9685.0,0.1,0.0,0.0,0.0,9.8,0.1,-4.4,-11.2,0.1,16
551,9701.0,0.1,0.0,-0.1,0.1,9.8,0.0,-4.5,-11.8,0.1,16
552,9718.0,0.0,0.0,0.1,-0.1,9.8,0.2,-4.300000000000001,-13.100000000000001,-0.1,16
553,9736.0,0.1,0.1,-0.1,0.0,9.9,0.0,-4.1,-14.700000000000001,-0.2,16
554,9765.0,-0.1,-0.1,0.4,-0.1,9.700000000000001,0.5,-1.3,-16.6,0.0,16
555,9768.0,-0.1,-0.1,0.4,-0.1,9.700000000000001,0.5,-1.3,-16.6,0.0,16
556,9784.0,0.1,0.0,0.0,0.1,9.8,0.1,-0.9000000000000001,-15.2,-0.2,16
557,9802.0,0.1,0.1,-0.1,0.0,9.9,0.1,-0.1,-10.9,-0.2,16
558,9819.0,0.0,0.1,0.0,0.0,10.0,0.1,0.30000000000000004,-6.500000000000001,-0.2,16
559,9835.0,0.0,0.1,-0.1,-0.1,9.9,0.1,1.3,-1.5,0.0,16
560,9860.0,0.1,0.0,0.1,0.0,9.8,0.2,2.1,-0.5,-0.7,16
561,9868.0,0.1,0.0,0.1,0.0,9.8,0.2,2.0,-1.4,-1.0,16
562,9885.0,0.0,0.2,-0.2,-0.1,10.0,-0.1,0.0,-1.3,-0.6000000000000001,16
563,9901.0,0.0,0.30000000000000004,-0.30000000000000004,0.0,10.200000000000001,-0.2,-1.5,-1.3,0.1,16
564,9918.0,-0.2,0.30000000000000004,0.0,-0.2,10.100000000000001,0.1,-1.8000000000000003,-3.5,0.0,16
565,9935.0,-0.1,0.0,0.30000000000000004,-0.30000000000000004,9.8,0.30000000000000004,-0.9000000000000001,-5.8,-0.2,16
566,9951.0,-0.2,0.0,0.2,-0.30000000000000004,9.8,0.30000000000000004,-0.30000000000000004,-7.400000000000001,-0.30000000000000004,16
567,9972.0,0.0,0.0,-0.1,-0.1,9.8,0.1,-1.0,-7.300000000000001,0.0,16
568,9985.0,0.1,0.2,-0.1,0.0,10.0,0.0,-1.4,-7.0,0.0,16
569,10003.0,0.1,0.1,0.2,0.0,9.9,0.30000000000000004,-2.1,-5.8,0.30000000000000004,16
570,10018.0,0.2,0.1,0.2,0.1,9.9,0.30000000000000004,-0.9000000000000001,-2.1,0.0,16
571,10041.0,0.1,0.0,0.1,0.1,9.8,0.2,-0.8,-1.3,-0.1,16
572,10062.0,-0.1,0.1,0.0,-0.2,9.9,0.1,-0.2,-2.4000000000000004,-0.2,16
573,10070.0,-0.1,0.1,0.0,-0.2,9.9,0.1,0.30000000000000004,-2.6,0.0,16
574,10085.0,-0.1,0.0,-0.1,-0.2,9.9,0.1,1.5,-1.8000000000000003,-0.2,16
575,10101.0,0.1,0.1,-0.2,0.0,9.9,-0.1,2.3,2.2,-0.2,16
576,10118.0,0.2,0.1,-0.30000000000000004,0.1,9.9,-0.1,2.1,7.1000000000000005,-0.30000000000000004,16
577,10135.0,0.1,0.1,-0.2,0.0,9.9,-0.1,2.1,10.600000000000001,-0.30000000000000004,16
578,10151.0,-0.1,-0.1,0.2,-0.2,9.700000000000001,0.4,2.7,10.700000000000001,-0.7,16
579,10168.0,-0.30000000000000004,-0.1,0.30000000000000004,-0.4,9.8,0.4,5.2,10.200000000000001,-0.6000000000000001,16
580,10185.0,-0.1,-0.1,0.2,-0.2,9.700000000000001,0.30000000000000004,7.400000000000001,14.800000000000002,-0.6000000000000001,16
581,10202.0,0.2,0.0,0.0,0.1,9.8,0.1,6.8,16.4,-1.0,16
582,10218.0,0.2,0.1,-0.2,0.1,9.9,-0.2,5.8,19.799999999999997,-1.3,16
583,10238.0,0.2,0.30000000000000004,-0.4,0.1,10.200000000000001,-0.4,5.0,22.1,-1.6,16
584,10252.0,-0.1,0.1,0.1,-0.2,9.9,0.1,5.4,27.2,-1.6,16
585,10271.0,-0.30000000000000004,0.0,0.4,-0.4,9.8,0.4,8.100000000000001,28.600000000000005,-0.8,16
586,10285.0,-0.5,0.1,1.3,-0.6000000000000001,9.9,1.3,10.200000000000001,25.0,0.2,16
587,10301.0,-0.30000000000000004,0.30000000000000004,0.1,-0.5,10.100000000000001,0.1,10.700000000000001,17.300000000000004,0.1,16
588,10318.0,-0.1,0.2,0.2,-0.2,10.0,0.2,9.100000000000001,16.4,-0.1,16
589,10335.0,0.0,-0.1,0.0,-0.1,9.700000000000001,0.0,11.700000000000001,18.700000000000003,0.1,16
590,10354.0,-0.1,0.0,-0.4,-0.30000000000000004,9.8,-0.4,12.5,19.5,-0.1,16
591,10368.0,-0.4,0.5,-0.9,-0.5,10.3,-1.0,7.6,16.6,0.6000000000000001,16
592,10385.0,0.1,0.2,-0.1,0.0,10.0,-0.2,5.7,13.900000000000002,0.5,16
593,10401.0,0.1,0.1,0.0,0.0,9.9,-0.1,5.6,13.5,0.30000000000000004,16
594,10420.0,0.1,0.0,0.2,0.0,9.8,0.0,4.7,10.700000000000001,0.1,16
595,10436.0,0.0,0.1,-0.4,-0.1,9.9,-0.6000000000000001,3.6000000000000005,9.600000000000001,0.30000000000000004,16
596,10451.0,-0.1,0.1,-0.30000000000000004,-0.30000000000000004,9.9,-0.5,2.4000000000000004,7.8,0.4,16
597,10469.0,0.0,0.1,0.2,-0.2,9.9,0.0,2.8,2.1,0.5,16
598,10486.0,0.0,0.1,0.2,-0.1,9.9,0.0,3.6000000000000005,2.3,0.5,16
599,10501.0,0.2,-0.1,0.0,0.1,9.700000000000001,-0.2,4.7,2.2,-0.30000000000000004,16
600,10518.0,-0.1,0.0,0.0,-0.30000000000000004,9.8,-0.2,4.2,2.0,-0.30000000000000004,16
601,10541.0,0.1,0.1,-0.5,-0.1,9.9,-0.7000000000000001,2.2,2.2,-0.2,16
602,10551.0,0.1,0.1,-0.5,-0.1,9.9,-0.7000000000000001,1.4,2.5,0.0,16
603,10568.0,0.0,0.0,-0.2,-0.2,9.8,-0.5,-0.5,1.2000000000000002,0.2,16
604,10585.0,0.1,0.1,0.0,0.0,9.9,-0.2,-2.2,-2.1,0.2,16
605,10602.0,0.0,0.2,0.1,-0.2,10.0,-0.2,-3.6000000000000005,-4.9,0.0,16
606,10618.0,0.0,0.1,0.1,-0.1,9.9,-0.2,-6.4,-8.5,0.1,16
607,10636.0,0.1,0.0,-0.2,0.0,9.8,-0.5,-7.300000000000001,-5.300000000000001,-0.1,16
608,10651.0,0.1,-0.1,0.1,0.0,9.700000000000001,-0.1,-5.1000000000000005,-0.7,-0.8,16
609,10668.0,0.2,-0.1,0.5,0.0,9.700000000000001,0.30000000000000004,-1.8000000000000003,2.6,-0.9000000000000001,16
610,10685.0,-0.1,0.0,0.1,-0.2,9.8,-0.1,-1.6,1.6,-1.2000000000000002,16
611,10701.0,-0.1,0.2,-0.1,-0.30000000000000004,10.0,-0.30000000000000004,-3.6000000000000005,1.1,-0.4,16
612,10726.0,0.0,0.30000000000000004,0.1,-0.1,10.100000000000001,0.0,-4.1,0.7,-0.1,16
613,10735.0,-0.1,0.2,0.2,-0.30000000000000004,10.0,0.0,-3.8,1.2000000000000002,0.0,16
614,10756.0,0.0,0.2,0.0,-0.1,10.0,-0.1,-2.7,1.5,0.2,16
615,10772.0,0.30000000000000004,0.0,0.5,0.2,9.8,0.4,-0.8,1.6,-0.6000000000000001,16
616,10785.0,0.1,0.0,0.1,0.0,9.8,0.0,-0.6000000000000001,1.8000000000000003,-0.30000000000000004,16
617,10801.0,-0.1,0.30000000000000004,-0.5,-0.30000000000000004,10.100000000000001,-0.6000000000000001,-3.9,1.7,0.0,16
618,10818.0,0.1,0.1,-0.2,-0.1,9.9,-0.30000000000000004,-3.9,1.7,0.6000000000000001,16
619,10835.0,0.0,0.1,0.2,-0.2,9.9,0.1,-4.9,-2.3,0.1,16
620,10875.0,-0.2,0.2,0.30000000000000004,-0.30000000000000004,10.0,0.30000000000000004,-6.9,-9.700000000000001,0.0,16
621,10885.0,-0.2,0.0,0.30000000000000004,-0.30000000000000004,9.8,0.30000000000000004,-7.1000000000000005,-12.0,0.0,16
622,10903.0,0.0,0.0,-0.1,-0.1,9.8,-0.1,-6.9,-14.300000000000002,0.2,16
623,10918.0,0.0,0.1,-0.30000000000000004,-0.1,10.0,-0.30000000000000004,-6.600000000000001,-13.200000000000003,0.30000000000000004,16
624,10940.0,0.0,0.2,-0.2,-0.1,10.0,-0.2,-7.200000000000001,-11.700000000000001,0.30000000000000004,16
625,10952.0,0.0,0.30000000000000004,0.0,-0.2,10.100000000000001,0.0,-7.9,-12.5,0.7,16
626,10968.0,-0.1,0.30000000000000004,-0.2,-0.2,10.100000000000001,-0.1,-9.4,-13.8,1.4,16
627,10985.0,0.0,0.2,0.30000000000000004,-0.1,10.0,0.4,-8.899999999999999,-13.700000000000001,1.5,16
628,11001.0,-0.2,0.2,0.5,-0.30000000000000004,10.0,0.6000000000000001,-7.200000000000001,-14.200000000000001,2.6,16
629,11018.0,-0.4,0.30000000000000004,0.0,-0.5,10.100000000000001,0.1,-7.400000000000001,-17.0,4.1,16
630,11040.0,0.1,-0.1,0.0,-0.1,9.700000000000001,0.2,-5.0,-14.100000000000001,3.3000000000000007,16
631,11059.0,0.1,-0.1,0.30000000000000004,0.0,9.700000000000001,0.5,1.3,-10.700000000000001,2.6,16
632,11068.0,0.1,-0.1,0.30000000000000004,0.0,9.700000000000001,0.5,3.2,-10.0,2.3,16
633,11085.0,-0.1,0.0,0.30000000000000004,-0.2,9.8,0.4,5.7,-10.299999999999999,1.9,16
634,11101.0,0.0,-0.1,0.0,-0.1,9.700000000000001,0.2,7.8,-9.3,1.6,16
635,11118.0,0.1,-0.1,-0.1,0.0,9.700000000000001,0.1,9.100000000000001,-7.200000000000001,1.3,16
636,11135.0,0.1,0.0,0.0,0.0,9.8,0.2,10.700000000000001,-5.2,1.0,16
637,11152.0,0.0,-0.1,0.30000000000000004,-0.1,9.700000000000001,0.4,12.9,-5.8,1.2000000000000002,16
638,11170.0,-0.1,0.0,0.1,-0.2,9.8,0.30000000000000004,14.900000000000002,-6.1000000000000005,1.6,16
639,11185.0,-0.1,0.0,-0.1,-0.2,9.9,0.1,16.200000000000003,-5.7,2.2,16
640,11208.0,0.0,-0.1,-0.30000000000000004,-0.1,9.700000000000001,-0.1,17.799999999999997,-5.6,2.0,16
641,11218.0,0.0,-0.1,-0.30000000000000004,-0.1,9.700000000000001,-0.1,18.0,-5.7,1.8000000000000003,16
642,11235.0,-0.1,0.1,-0.2,-0.2,9.9,-0.2,19.6,-6.2,2.0,16
643,11265.0,-0.1,0.1,-0.7000000000000001,-0.2,9.9,-0.7000000000000001,18.8,-6.9,1.6,16
644,11268.0,-0.1,0.1,-0.7000000000000001,-0.2,9.9,-0.7000000000000001,18.8,-6.9,1.6,16
645,11285.0,-0.2,0.2,-0.9,-0.2,10.0,-1.0,13.8,-8.0,2.9,16
646,11301.0,0.1,0.1,-0.8,0.0,9.9,-1.0,10.0,-7.0,3.4,16
647,11319.0,0.30000000000000004,0.1,-0.7000000000000001,0.2,9.9,-0.9,8.100000000000001,-6.0,2.8,16
648,11335.0,0.2,0.2,-0.4,0.2,10.0,-0.7000000000000001,6.4,-6.1000000000000005,2.2,16
649,11362.0,0.0,0.1,-0.2,0.0,9.9,-0.5,3.8,-6.1000000000000005,2.8,16
650,11368.0,0.0,0.1,-0.2,0.0,9.9,-0.5,3.8,-6.1000000000000005,2.8,16
651,11385.0,0.1,0.1,-0.2,0.1,9.9,-0.5,3.2,-6.1000000000000005,2.7,16
652,11403.0,0.1,0.1,-0.1,0.1,9.9,-0.5,3.2,-4.7,2.8,16
653,11418.0,0.0,0.1,-0.1,0.0,9.9,-0.5,2.8,-5.300000000000001,2.6,16
654,11436.0,0.1,-0.2,-0.1,0.1,9.600000000000001,-0.5,3.0,-4.9,1.0,16
655,11452.0,0.0,-0.1,-0.4,0.0,9.700000000000001,-0.8,0.7,-5.9,0.6000000000000001,16
656,11468.0,-0.30000000000000004,0.30000000000000004,-0.4,-0.30000000000000004,10.100000000000001,-0.9,-1.2000000000000002,-5.0,1.3,16
657,11489.0,0.0,0.1,-0.30000000000000004,0.0,9.9,-0.7000000000000001,-1.9,-1.6,1.2000000000000002,16
658,11501.0,-0.1,0.1,-0.30000000000000004,-0.1,9.9,-0.8,-1.2000000000000002,1.4,1.4,16
659,11518.0,-0.30000000000000004,0.2,0.1,-0.30000000000000004,10.0,-0.4,-1.2000000000000002,-0.30000000000000004,1.0,16
660,11535.0,0.1,0.6000000000000001,0.0,0.1,10.4,-0.5,-2.1,-2.7,3.0,16
661,11558.0,0.4,0.5,-0.2,0.4,10.3,-0.6000000000000001,-5.500000000000001,-0.2,3.2,16
662,11569.0,0.4,-0.1,-0.2,0.4,9.700000000000001,-0.6000000000000001,-8.5,-2.0,2.3,16
663,11585.0,0.5,-0.2,-0.30000000000000004,0.5,9.600000000000001,-0.7000000000000001,-10.700000000000001,-2.3,1.6,16
664,11604.0,0.4,0.1,-0.5,0.4,9.9,-0.9,-14.5,-0.7,-0.6000000000000001,16
665,11618.0,-0.30000000000000004,0.30000000000000004,-0.8,-0.2,10.100000000000001,-1.2000000000000002,-19.5,0.8,0.30000000000000004,16
666,11635.0,0.30000000000000004,0.1,-0.5,0.4,9.9,-0.9,-17.6,8.600000000000001,1.4,16
667,11652.0,-0.2,0.0,0.1,-0.1,9.8,-0.2,-20.1,-0.30000000000000004,1.2000000000000002,16
668,11672.0,0.0,-0.1,0.8,0.1,9.700000000000001,0.5,-16.200000000000003,-4.9,0.9000000000000001,16
669,11685.0,-0.1,0.1,1.0,0.0,9.9,0.7000000000000001,-14.0,-5.2,1.0,16
670,11701.0,-0.2,-0.1,0.7000000000000001,-0.1,9.700000000000001,0.5,-7.9,-0.9000000000000001,1.7,16
671,11718.0,0.0,0.0,0.4,0.1,9.8,0.2,-6.300000000000001,-1.6,1.5,16
672,11737.0,-0.1,0.2,0.0,0.0,10.0,-0.1,-8.2,-8.600000000000001,2.5,16
673,11771.0,0.1,-0.2,0.0,0.2,9.600000000000001,-0.1,-8.100000000000001,-5.4,3.9,16
674,11785.0,0.1,-0.2,0.0,0.30000000000000004,9.200000000000001,0.4,-4.7,-0.9000000000000001,2.7,16
675,11801.0,0.2,-0.7000000000000001,0.6000000000000001,0.4,9.1,0.6000000000000001,3.8,3.5,1.5,16
676,11820.0,0.2,0.0,-0.30000000000000004,0.30000000000000004,9.8,-0.30000000000000004,6.300000000000001,1.3,0.8,16
677,11834.0,0.0,0.2,-0.30000000000000004,0.2,10.0,-0.30000000000000004,-0.5,-0.30000000000000004,0.7,16
678,11861.0,0.0,0.0,0.1,0.2,9.8,0.1,-1.5,-0.2,0.9000000000000001,16
679,11868.0,0.0,0.0,0.2,0.2,9.8,0.2,-0.8,0.0,0.8,16
680,11884.0,-0.1,0.1,0.1,0.1,9.9,0.1,0.30000000000000004,0.2,0.7,16
681,11903.0,0.0,0.0,0.2,0.1,9.8,0.2,2.6,-0.1,0.6000000000000001,16
682,11918.0,0.0,0.0,0.1,0.1,9.8,0.1,4.800000000000001,0.0,0.4,16
683,11935.0,0.0,0.0,0.1,0.1,9.8,0.1,6.300000000000001,-0.30000000000000004,0.6000000000000001,16
684,11961.0,0.0,-0.1,0.2,0.2,9.700000000000001,0.2,10.4,0.30000000000000004,0.30000000000000004,16
685,11970.0,-0.1,0.0,0.2,0.1,9.8,0.2,11.4,0.6000000000000001,0.30000000000000004,16
686,11985.0,-0.1,0.0,0.1,0.1,9.8,0.0,12.299999999999999,0.30000000000000004,0.6000000000000001,16
687,12001.0,0.0,0.2,-0.1,0.2,10.0,-0.2,11.5,-0.30000000000000004,0.8,16
688,12018.0,0.1,0.2,-0.30000000000000004,0.30000000000000004,10.0,-0.4,6.699999999999999,-0.1,0.8,16
689,12042.0,0.30000000000000004,0.5,-1.2000000000000002,0.4,10.3,-1.3,-3.8,3.7000000000000006,1.0,16
690,12058.0,0.2,0.5,-1.2000000000000002,0.4,10.3,-1.4000000000000001,-12.100000000000001,6.9,1.1,16
691,12069.0,0.2,0.5,-1.2000000000000002,0.4,10.3,-1.4000000000000001,-16.6,9.100000000000001,1.2000000000000002,16
692,12085.0,0.0,0.5,-0.8,0.2,10.3,-0.8,-19.700000000000003,10.600000000000001,1.6,16
693,12101.0,-0.30000000000000004,0.0,0.2,-0.1,9.8,0.1,-15.899999999999999,8.899999999999999,1.5,16
694,12118.0,0.2,-3.3000000000000003,3.6,0.4,6.5,3.6,-4.2,4.2,3.4,16
695,12135.0,-0.8,0.0,2.2,-0.7000000000000001,9.8,2.2,31.3,4.7,-3.1,16
696,12152.0,-0.1,1.2000000000000002,-0.2,0.1,11.0,-0.30000000000000004,29.1,-9.600000000000001,-0.4,16
697,12174.0,-0.6000000000000001,1.2000000000000002,-1.0,-0.4,11.0,-1.2000000000000002,17.300000000000004,-13.8,2.5,16
698,12184.0,0.1,0.5,-2.1,0.30000000000000004,10.4,-2.4000000000000004,2.7,-11.700000000000001,2.4000000000000004,16
699,12205.0,-0.1,0.30000000000000004,-1.0,0.1,10.100000000000001,-1.3,-3.6000000000000005,-7.699999999999999,4.0,16
700,12218.0,0.0,-0.30000000000000004,-0.4,0.2,9.5,-0.6000000000000001,-5.7,-7.6,0.6000000000000001,16
701,12238.0,-0.30000000000000004,-0.1,0.30000000000000004,-0.1,9.700000000000001,0.1,-2.0,-7.699999999999999,0.5,16
702,12252.0,-0.30000000000000004,0.0,0.5,-0.1,9.8,0.30000000000000004,3.2,-10.0,0.8,16
703,12274.0,-0.4,0.1,0.1,-0.2,9.9,-0.1,5.4,-12.200000000000001,2.3,16
704,12285.0,0.1,0.2,-0.30000000000000004,0.2,10.0,-0.5,4.4,-12.600000000000001,2.3,16
705,12301.0,0.2,0.1,-0.2,0.4,9.9,-0.5,3.1,-12.5,2.2,16
706,12321.0,0.30000000000000004,0.1,0.0,0.4,9.9,-0.30000000000000004,1.9,-11.3,1.8000000000000003,16
707,12335.0,0.30000000000000004,0.0,0.0,0.5,9.8,-0.30000000000000004,1.2000000000000002,-9.899999999999999,1.4,16
708,12372.0,0.2,0.0,-0.2,0.4,9.8,-0.5,-0.5,-7.0,1.8000000000000003,16
709,12386.0,0.2,-0.1,-0.1,0.4,9.700000000000001,-0.4,-0.30000000000000004,-5.9,2.2,16
710,12402.0,0.2,-0.1,-0.1,0.4,9.700000000000001,-0.4,0.5,-4.7,2.4000000000000004,16
711,12418.0,0.2,0.0,0.0,0.5,9.8,-0.30000000000000004,1.3,-3.7000000000000006,2.8,16
712,12434.0,0.2,0.0,-0.1,0.5,9.8,-0.4,1.6,-2.0,2.7,16
713,12453.0,0.1,0.0,0.1,0.4,9.8,-0.30000000000000004,2.0,-0.5,2.5,16
714,12470.0,0.0,-0.1,0.0,0.30000000000000004,9.700000000000001,-0.30000000000000004,2.4000000000000004,0.30000000000000004,1.9,16
715,12484.0,0.0,-0.1,-0.1,0.30000000000000004,9.700000000000001,-0.4,3.0,2.2,1.7,16
716,12501.0,0.0,0.2,0.0,0.30000000000000004,10.0,-0.4,3.7000000000000006,2.2,1.8000000000000003,16
717,12518.0,-0.1,0.2,-0.1,0.2,10.0,-0.5,2.9,1.3,1.7,16
718,12534.0,-0.30000000000000004,0.2,-0.2,0.1,10.0,-0.6000000000000001,2.6,1.9,1.9,16
719,12556.0,-0.2,0.2,-0.1,0.1,10.0,-0.5,1.4,1.1,1.9,16
720,12568.0,-0.2,0.1,0.0,0.2,9.9,-0.4,1.3,1.3,2.0,16
721,12586.0,-0.1,0.1,0.0,0.2,9.9,-0.4,1.2000000000000002,2.1,1.6,16
722,12601.0,-0.1,0.1,0.1,0.2,9.9,-0.30000000000000004,0.5,0.9000000000000001,1.6,16
723,12618.0,-0.2,0.2,0.1,0.2,9.9,-0.30000000000000004,0.8,0.30000000000000004,1.8000000000000003,16
724,12637.0,-0.2,0.1,0.0,0.1,9.9,-0.4,0.4,-1.1,1.6,16
725,12652.0,-0.2,0.1,0.1,0.1,9.9,-0.30000000000000004,0.1,-2.7,1.6,16
726,12668.0,-0.2,0.1,0.30000000000000004,0.2,9.9,-0.1,1.4,-3.5,2.0,16
727,12685.0,-0.1,0.0,0.30000000000000004,0.30000000000000004,9.8,-0.1,2.7,-3.3000000000000007,2.2,16
728,12702.0,0.0,-0.1,0.2,0.4,9.700000000000001,-0.2,3.3000000000000007,-2.4000000000000004,2.3,16
729,12718.0,0.1,-0.2,0.0,0.4,9.600000000000001,-0.5,3.6000000000000005,0.6000000000000001,2.6,16
730,12734.0,0.1,0.2,-0.30000000000000004,0.5,10.0,-0.7000000000000001,2.8,3.5,3.1,16
731,12757.0,0.2,0.1,-0.2,0.5,9.9,-0.7000000000000001,0.1,4.7,2.3,16
732,12790.0,-0.1,0.1,0.30000000000000004,0.30000000000000004,9.8,-0.1,-1.1,3.9,3.0,16
733,12801.0,-0.1,0.1,0.4,0.30000000000000004,9.9,0.0,-0.5,3.0,3.7000000000000006,16
734,12822.0,0.0,0.1,0.2,0.4,9.9,-0.2,-0.9000000000000001,1.6,4.0,16
735,12834.0,0.0,0.2,0.1,0.4,9.9,-0.4,-1.9,1.5,3.9,16
736,12853.0,-0.1,0.2,0.1,0.30000000000000004,10.0,-0.30000000000000004,-2.4000000000000004,0.6000000000000001,3.9,16
737,12868.0,-0.30000000000000004,0.1,0.1,0.2,9.9,-0.30000000000000004,-3.0,-0.6000000000000001,4.300000000000001,16
738,12884.0,-0.30000000000000004,0.1,0.1,0.1,9.9,-0.30000000000000004,-3.4,-1.2000000000000002,4.7,16
739,12904.0,-0.2,0.1,0.1,0.2,9.9,-0.30000000000000004,-3.3000000000000007,-0.8,5.4,16
740,12918.0,-0.2,0.1,0.0,0.2,9.9,-0.4,-3.4,-0.8,5.300000000000001,16
741,12936.0,-0.2,0.2,0.1,0.2,10.0,-0.30000000000000004,-3.9,-1.1,5.2,16
742,12967.0,-0.2,0.1,0.2,0.2,9.9,-0.1,-3.6000000000000005,-2.1,5.4,16
743,12984.0,-0.2,0.0,0.2,0.30000000000000004,9.8,-0.1,-2.9,-3.5,5.4,16
744,13001.0,-0.2,0.0,0.0,0.2,9.8,-0.30000000000000004,-3.0,-3.7000000000000006,5.0,16
745,13018.0,-0.30000000000000004,0.1,-0.1,0.2,9.9,-0.4,-3.1,-3.7000000000000006,4.9,16
746,13044.0,-0.2,0.1,0.1,0.30000000000000004,9.8,-0.2,-2.6,-3.6000000000000005,4.9,16
747,13058.0,-0.1,0.1,0.1,0.30000000000000004,9.8,-0.1,-2.0,-3.6000000000000005,4.9,16
748,13068.0,-0.1,0.1,0.1,0.4,9.9,-0.1,-1.7,-3.5,5.0,16
749,13085.0,-0.1,0.2,0.1,0.30000000000000004,10.0,-0.1,-0.7,-3.1,4.9,16
750,13103.0,-0.1,0.1,0.0,0.4,9.9,-0.30000000000000004,-0.2,-2.8,4.9,16
751,13118.0,0.0,0.0,-0.1,0.4,9.8,-0.30000000000000004,-0.2,-2.4000000000000004,5.300000000000001,16
752,13137.0,0.0,0.0,-0.1,0.5,9.8,-0.30000000000000004,-0.1,-2.2,5.9,16
753,13154.0,0.2,-0.1,0.0,0.6000000000000001,9.700000000000001,-0.2,0.6000000000000001,-2.1,6.699999999999999,16
754,13168.0,0.2,-0.1,0.0,0.7000000000000001,9.700000000000001,-0.30000000000000004,1.0,-1.0,6.9,16
755,13185.0,0.2,0.0,0.0,0.7000000000000001,9.8,-0.30000000000000004,1.3,0.6000000000000001,6.9,16
756,13209.0,0.1,0.2,-0.1,0.7000000000000001,9.9,-0.4,0.1,1.4,6.4,16
757,13218.0,0.0,0.1,-0.1,0.6000000000000001,9.9,-0.4,-0.6000000000000001,1.6,6.2,16
758,13238.0,-0.1,0.1,0.0,0.4,9.9,-0.30000000000000004,-0.5,1.2000000000000002,5.500000000000001,16
759,13254.0,-0.1,0.1,0.0,0.5,9.9,-0.2,0.5,1.3,5.300000000000001,16
760,13271.0,-0.1,0.1,0.1,0.5,9.9,-0.1,2.6,0.0,4.9,16
761,13284.0,0.0,0.1,0.1,0.6000000000000001,9.9,-0.2,3.5,-0.7,4.800000000000001,16
762,13302.0,0.1,0.1,-0.2,0.7000000000000001,9.8,-0.4,5.500000000000001,-1.3,4.4,16
763,13318.0,0.2,0.1,-0.30000000000000004,0.8,9.9,-0.5,6.1000000000000005,-1.3,4.4,16
764,13334.0,0.2,0.1,-0.30000000000000004,0.9,9.9,-0.6000000000000001,6.2,-1.2000000000000002,4.6,16
765,13357.0,0.2,0.1,-0.2,0.9,9.8,-0.5,5.1000000000000005,-1.9,4.300000000000001,16
766,13368.0,0.1,0.0,0.0,0.8,9.8,-0.4,4.7,-2.7,4.2,16
767,13384.0,0.2,-0.1,0.0,0.9,9.700000000000001,-0.30000000000000004,4.2,-4.2,4.1,16
768,13402.0,0.30000000000000004,-0.1,0.1,1.0,9.600000000000001,-0.30000000000000004,4.0,-4.800000000000001,4.2,16
769,13420.0,0.4,-0.1,0.0,1.1,9.600000000000001,-0.4,3.7000000000000006,-4.7,4.6,16
770,13434.0,0.4,-0.1,0.0,1.2000000000000002,9.700000000000001,-0.4,3.0,-4.300000000000001,4.6,16
771,13462.0,0.5,0.0,0.0,1.3,9.700000000000001,-0.4,2.1,-2.8,5.1000000000000005,16
772,13468.0,0.5,0.0,0.0,1.3,9.700000000000001,-0.4,2.1,-2.8,5.1000000000000005,16
773,13485.0,0.4,0.0,0.0,1.3,9.700000000000001,-0.4,1.9,-1.2000000000000002,6.300000000000001,16
774,13505.0,0.4,0.1,-0.1,1.3,9.8,-0.6000000000000001,0.9000000000000001,-0.7,7.0,16
775,13518.0,0.4,0.0,-0.2,1.3,9.8,-0.6000000000000001,0.5,0.30000000000000004,7.200000000000001,16
776,13537.0,0.30000000000000004,0.1,-0.1,1.3,9.8,-0.5,0.30000000000000004,2.4000000000000004,7.400000000000001,16
777,13556.0,0.2,0.1,-0.1,1.2000000000000002,9.9,-0.5,0.5,2.6,7.300000000000001,16
778,13568.0,0.2,0.1,-0.1,1.2000000000000002,9.9,-0.5,0.6000000000000001,2.4000000000000004,7.300000000000001,16
779,13584.0,0.1,0.2,0.0,1.2000000000000002,9.9,-0.5,1.3,1.9,7.6,16
780,13601.0,0.1,0.1,-0.1,1.2000000000000002,9.9,-0.5,1.6,1.2000000000000002,7.200000000000001,16
781,13618.0,0.1,0.0,-0.1,1.2000000000000002,9.8,-0.6000000000000001,1.2000000000000002,0.1,6.9,16
782,13634.0,0.0,0.1,-0.1,1.1,9.8,-0.5,1.5,-0.6000000000000001,6.9,16
783,13657.0,0.1,0.1,-0.2,1.3,9.8,-0.7000000000000001,1.7,0.1,6.8,16
784,13669.0,0.2,0.1,-0.2,1.3,9.8,-0.6000000000000001,1.8000000000000003,0.30000000000000004,6.699999999999999,16
785,13688.0,0.2,0.1,-0.1,1.4000000000000001,9.8,-0.6000000000000001,1.9,0.9000000000000001,6.600000000000001,16
786,13701.0,0.2,0.1,-0.1,1.5,9.9,-0.5,2.3,1.9,7.0,16
787,13720.0,0.30000000000000004,0.1,-0.1,1.5,9.8,-0.6000000000000001,2.2,2.0,7.200000000000001,16
788,13734.0,0.30000000000000004,0.1,0.0,1.5,9.8,-0.5,2.2,2.1,7.200000000000001,16
789,13762.0,0.30000000000000004,0.0,-0.1,1.6,9.700000000000001,-0.6000000000000001,2.8,3.2,6.500000000000001,16
790,13768.0,0.30000000000000004,0.0,-0.1,1.6,9.700000000000001,-0.6000000000000001,2.8,3.2,6.500000000000001,16
791,13787.0,0.30000000000000004,-0.1,-0.1,1.6,9.600000000000001,-0.6000000000000001,3.2,3.9,5.8,16
792,13801.0,0.30000000000000004,0.0,0.0,1.6,9.700000000000001,-0.6000000000000001,3.6000000000000005,3.2,5.500000000000001,16
793,13820.0,0.30000000000000004,0.0,0.0,1.7000000000000002,9.700000000000001,-0.6000000000000001,4.4,4.4,5.8,16
794,13835.0,0.5,-0.1,-0.1,1.9000000000000001,9.600000000000001,-0.6000000000000001,5.0,5.300000000000001,5.6,16
795,13861.0,0.30000000000000004,0.0,-0.1,1.8,9.700000000000001,-0.7000000000000001,5.4,6.8,5.4,16
796,13868.0,0.30000000000000004,0.0,-0.1,1.8,9.700000000000001,-0.7000000000000001,5.4,6.8,5.4,16
797,13886.0,0.30000000000000004,0.1,0.1,1.8,9.700000000000001,-0.5,4.0,5.8,4.5,16
798,13901.0,0.30000000000000004,-0.1,0.2,1.8,9.600000000000001,-0.4,2.7,4.7,2.6,16
799,13921.0,0.30000000000000004,-0.1,0.4,1.9000000000000001,9.600000000000001,-0.2,1.7,2.9,1.9,16
800,13934.0,0.30000000000000004,-0.1,0.4,1.9000000000000001,9.600000000000001,-0.2,2.3,2.3,0.5,16
801,13968.0,0.30000000000000004,-0.2,-0.1,1.9000000000000001,9.5,-0.7000000000000001,1.1,0.0,-1.1,16
802,13985.0,0.2,-0.1,-0.1,1.8,9.600000000000001,-0.7000000000000001,1.3,-0.9000000000000001,-1.7,16
803,14001.0,0.2,-0.1,-0.2,1.8,9.600000000000001,-0.8,1.9,-1.8000000000000003,-2.3,16
804,14018.0,0.1,0.0,-0.30000000000000004,1.8,9.700000000000001,-0.9,-0.4,-1.4,-2.5,16
805,14041.0,0.1,0.0,-0.2,1.8,9.700000000000001,-0.8,-1.3,-0.4,-2.7,16
806,14059.0,0.30000000000000004,0.2,-0.2,1.9000000000000001,9.8,-0.8,-1.6,2.1,-2.5,16
807,14069.0,0.4,0.0,0.0,2.1,9.700000000000001,-0.6000000000000001,-1.1,3.2,-2.1,16
808,14085.0,0.5,-0.1,0.0,2.2,9.600000000000001,-0.6000000000000001,-0.7,5.1000000000000005,-1.9,16
809,14101.0,0.5,0.0,0.1,2.2,9.600000000000001,-0.5,-1.7,5.1000000000000005,-1.9,16
810,14121.0,0.5,0.1,0.30000000000000004,2.2,9.700000000000001,-0.30000000000000004,-4.6,1.4,-1.7,16
811,14134.0,0.30000000000000004,0.2,0.30000000000000004,2.0,9.8,-0.2,-6.0,-0.8,-1.9,16
812,14163.0,-0.1,0.2,0.2,1.6,9.9,-0.4,-12.0,-8.3,-1.5,16
813,14170.0,-0.1,0.2,0.2,1.6,9.9,-0.4,-12.5,-8.8,-1.3,16
814,14185.0,-0.2,0.2,0.30000000000000004,1.6,9.9,-0.2,-11.8,-8.3,-1.2000000000000002,16
815,14201.0,-0.1,0.2,0.2,1.6,9.9,-0.2,-10.200000000000001,-7.1000000000000005,-1.0,16
816,14219.0,0.0,0.2,0.1,1.7000000000000002,9.9,-0.4,-9.3,-7.200000000000001,-0.5,16
817,14236.0,0.1,0.1,0.0,1.9000000000000001,9.700000000000001,-0.4,-9.3,-7.1000000000000005,-0.30000000000000004,16
818,14259.0,0.4,-0.2,-0.1,2.1,9.4,-0.5,-8.2,-7.1000000000000005,-0.9000000000000001,16
819,14268.0,0.1,-0.1,-0.5,1.8,9.5,-0.9,-8.5,-7.9,-1.1,16
820,14285.0,0.1,-0.1,-0.5,1.8,9.5,-0.9,-9.600000000000001,-10.200000000000001,-1.6,16
821,14309.0,-0.6000000000000001,0.30000000000000004,-0.5,1.1,10.0,-0.9,-10.200000000000001,-12.0,-3.5,16
822,14318.0,-0.9,0.5,-0.4,0.8,10.100000000000001,-0.7000000000000001,-9.0,-9.8,-6.2,16
823,14335.0,-1.1,0.5,-0.2,0.5,10.200000000000001,-0.5,-7.400000000000001,-5.6,-8.5,16
824,14364.0,-1.2000000000000002,0.6000000000000001,0.1,0.30000000000000004,10.3,-0.2,-6.2,-1.4,-12.4,16
825,14367.0,-1.2000000000000002,0.6000000000000001,0.1,0.30000000000000004,10.3,-0.2,-6.699999999999999,-1.0,-13.900000000000002,16
826,14386.0,-1.1,0.8,0.30000000000000004,0.4,10.5,0.0,-8.8,-1.4,-16.8,16
827,14410.0,-0.7000000000000001,0.7000000000000001,0.30000000000000004,0.5,10.4,0.0,-12.0,-1.5,-18.5,16
828,14418.0,-0.7000000000000001,0.7000000000000001,0.30000000000000004,0.5,10.4,0.0,-13.8,-0.7,-19.0,16
829,14437.0,-0.6000000000000001,0.5,0.2,0.6000000000000001,10.200000000000001,-0.1,-18.4,1.0,-20.900000000000002,16
830,14473.0,-0.7000000000000001,0.0,0.2,0.30000000000000004,9.8,0.0,-22.5,7.500000000000001,-22.3,16
831,14484.0,-0.6000000000000001,-0.30000000000000004,0.1,0.30000000000000004,9.5,0.0,-26.300000000000004,13.200000000000003,-21.0,16
832,14501.0,-0.30000000000000004,-0.4,0.1,0.6000000000000001,9.3,0.1,-29.400000000000002,16.5,-20.2,16
833,14522.0,0.4,-0.4,1.0,1.2000000000000002,9.4,1.2000000000000002,-42.900000000000006,27.5,-17.7,16
834,14534.0,0.4,-0.4,1.0,1.2000000000000002,9.4,1.2000000000000002,-44.300000000000004,24.200000000000003,-16.1,16
835,14553.0,0.5,-0.5,1.4000000000000001,1.1,9.3,1.8,-40.7,19.400000000000002,-12.7,16
836,14568.0,0.0,-0.7000000000000001,1.1,0.7000000000000001,9.1,1.7000000000000002,-29.300000000000004,5.4,-10.4,16
837,14584.0,-0.8,-0.9,0.1,-0.2,8.9,0.7000000000000001,-14.300000000000002,-6.600000000000001,-9.600000000000001,16
838,14601.0,-1.4000000000000001,-0.7000000000000001,-0.4,-0.8,9.0,0.2,0.4,-7.6,-6.699999999999999,16
839,14617.0,-1.4000000000000001,-0.30000000000000004,-0.30000000000000004,-0.9,9.5,0.30000000000000004,10.5,-6.300000000000001,-4.2,16
840,14634.0,-1.4000000000000001,0.2,-0.1,-0.8,10.0,0.4,20.900000000000002,-10.8,-1.3,16
841,14653.0,-1.4000000000000001,0.2,0.0,-0.8,9.9,0.5,25.1,-15.399999999999999,0.4,16
842,14667.0,-1.1,0.0,0.1,-0.6000000000000001,9.8,0.5,27.099999999999998,-18.4,1.2000000000000002,16
843,14684.0,-0.9,-0.1,0.30000000000000004,-0.4,9.700000000000001,0.6000000000000001,29.500000000000004,-21.400000000000002,1.8000000000000003,16
844,14701.0,-0.8,-0.2,0.30000000000000004,-0.30000000000000004,9.600000000000001,0.6000000000000001,30.200000000000003,-24.400000000000002,1.6,16
845,14720.0,-0.30000000000000004,-0.1,0.0,-0.30000000000000004,9.700000000000001,0.5,29.1,-25.8,1.1,16
846,14740.0,-0.1,0.0,0.0,-0.30000000000000004,9.8,0.5,25.0,-25.900000000000002,0.5,16
847,14758.0,0.0,0.2,0.1,-0.30000000000000004,10.0,0.6000000000000001,21.200000000000003,-25.200000000000003,-0.2,16
848,14767.0,0.0,0.30000000000000004,0.2,-0.30000000000000004,10.100000000000001,0.7000000000000001,19.5,-23.900000000000006,-0.8,16
849,14786.0,-0.1,0.4,0.30000000000000004,-0.4,10.200000000000001,0.8,11.700000000000001,-17.7,-1.1,16
850,14803.0,0.1,0.4,0.7000000000000001,-0.2,10.200000000000001,1.2000000000000002,8.3,-14.0,-0.9000000000000001,16
851,14824.0,0.6000000000000001,-0.1,1.1,0.30000000000000004,9.700000000000001,1.6,8.600000000000001,-9.8,0.2,16
852,14834.0,0.6000000000000001,-0.1,1.1,0.30000000000000004,9.700000000000001,1.6,11.700000000000001,-10.0,1.6,16
853,14861.0,0.7000000000000001,0.6000000000000001,-0.7000000000000001,0.7000000000000001,10.3,-0.1,12.5,-10.1,3.0,16
854,14868.0,0.6000000000000001,0.7000000000000001,-1.2000000000000002,0.7000000000000001,10.5,-0.6000000000000001,10.600000000000001,-9.2,3.3000000000000007,16
855,14884.0,0.1,0.5,-1.3,0.2,10.3,-0.8,6.699999999999999,-10.299999999999999,3.6000000000000005,16
856,14901.0,-0.2,0.1,-0.7000000000000001,0.0,9.9,-0.4,2.3,-14.0,4.800000000000001,16
857,14918.0,-0.1,-0.1,-0.30000000000000004,0.1,9.700000000000001,-0.1,1.5,-13.8,5.9,16
858,14937.0,0.30000000000000004,-0.2,0.2,0.5,9.600000000000001,0.30000000000000004,4.4,-8.8,7.300000000000001,16
859,14951.0,0.5,-0.1,0.1,0.7000000000000001,9.700000000000001,0.30000000000000004,5.7,-8.899999999999999,7.300000000000001,16
860,14972.0,0.5,0.2,0.0,0.7000000000000001,10.0,0.1,3.9,-8.5,7.699999999999999,16
861,14986.0,0.30000000000000004,0.30000000000000004,0.1,0.6000000000000001,10.100000000000001,0.2,1.9,-8.100000000000001,8.4,16
862,15002.0,0.1,0.0,0.0,0.4,9.8,0.1,2.4000000000000004,-7.200000000000001,9.100000000000001,16
863,15018.0,0.2,0.0,0.1,0.5,9.8,0.2,6.500000000000001,-3.9,10.600000000000001,16
864,15044.0,0.8,0.2,-0.6000000000000001,1.2000000000000002,10.0,-0.6000000000000001,11.6,-0.4,13.399999999999999,16
865,15051.0,0.8,0.2,-0.6000000000000001,1.2000000000000002,10.0,-0.6000000000000001,11.2,-0.6000000000000001,13.700000000000001,16
866,15068.0,0.9,0.2,-1.1,1.4000000000000001,10.0,-1.1,8.100000000000001,-2.5,13.700000000000001,16
867,15086.0,0.9,0.30000000000000004,-1.2000000000000002,1.5,10.100000000000001,-1.2000000000000002,3.5,-4.0,13.900000000000002,16
868,15101.0,0.8,0.2,-1.0,1.4000000000000001,10.0,-1.1,3.8,-2.6,14.100000000000001,16
869,15125.0,0.5,-0.2,-0.5,1.3,9.600000000000001,-0.7000000000000001,7.200000000000001,3.4,14.200000000000001,16
870,15134.0,0.5,-0.2,-0.5,1.3,9.600000000000001,-0.7000000000000001,8.8,5.2,14.600000000000001,16
871,15161.0,0.4,-0.4,-0.6000000000000001,1.3,9.4,-0.9,10.9,6.2,14.200000000000001,16
872,15168.0,0.4,-0.4,-0.6000000000000001,1.3,9.4,-0.9,10.700000000000001,5.6,14.0,16
873,15184.0,0.4,-0.5,-1.2000000000000002,1.4000000000000001,9.200000000000001,-1.6,9.3,3.8,13.200000000000003,16
874,15204.0,0.4,-0.5,-1.2000000000000002,1.5,9.200000000000001,-1.8,7.6,2.1,11.3,16
875,15218.0,0.4,-0.1,-1.0,1.5,9.600000000000001,-1.6,7.500000000000001,1.8000000000000003,9.600000000000001,16
876,15238.0,0.30000000000000004,0.30000000000000004,-1.1,1.5,10.0,-1.8,4.0,-8.100000000000001,8.4,16
877,15251.0,0.2,0.1,-0.5,1.4000000000000001,9.8,-1.2000000000000002,-0.5,-11.700000000000001,5.300000000000001,16
878,15270.0,0.0,0.2,0.1,1.2000000000000002,9.9,-0.6000000000000001,3.8,-10.600000000000001,4.4,16
879,15284.0,0.1,0.1,-0.1,1.3,9.8,-0.9,9.700000000000001,-8.899999999999999,3.5,16
880,15301.0,0.2,-0.1,0.0,1.6,9.5,-1.0,12.100000000000001,-7.1000000000000005,3.9,16
881,15320.0,0.8,-0.4,0.0,2.3000000000000003,9.3,-1.0,14.5,-7.0,3.2,16
882,15334.0,0.9,-0.4,-0.2,2.7,9.200000000000001,-1.3,15.299999999999999,-6.9,2.3,16
883,15351.0,1.0,-0.5,-0.4,3.0,9.1,-1.6,11.700000000000001,-8.5,0.8,16
884,15371.0,0.9,-0.4,-0.2,3.2,9.1,-1.5,6.500000000000001,-9.899999999999999,-1.4,16
885,15385.0,0.4,0.0,0.4,2.7,9.5,-0.8,2.1,-11.2,-2.9,16
886,15402.0,0.0,0.30000000000000004,0.8,2.3000000000000003,9.8,-0.4,-1.2000000000000002,-9.899999999999999,-4.300000000000001,16
887,15418.0,-0.5,0.30000000000000004,1.0,1.8,9.8,-0.30000000000000004,-3.5,-9.5,-5.1000000000000005,16
888,15434.0,-0.6000000000000001,0.4,1.2000000000000002,1.7000000000000002,9.9,0.0,-7.6,-9.4,-5.500000000000001,16
889,15451.0,-0.2,0.4,0.9,1.9000000000000001,10.0,0.2,-11.000000000000002,-12.0,-5.2,16
890,15468.0,0.0,0.4,0.4,2.1,10.0,-0.1,-14.300000000000002,-19.700000000000003,-5.4,16
891,15485.0,0.0,0.30000000000000004,-0.30000000000000004,1.9000000000000001,10.3,-1.1,-18.4,-25.0,-5.4,16
892,15501.0,-0.30000000000000004,1.0,-0.9,1.7000000000000002,10.600000000000001,-1.3,-22.3,-29.700000000000006,-5.0,16
893,15518.0,-0.6000000000000001,0.7000000000000001,-0.7000000000000001,1.4000000000000001,10.3,-1.1,-25.6,-32.6,-3.9,16
894,15534.0,-0.5,0.5,-0.6000000000000001,1.5,10.100000000000001,-0.9,-27.3,-34.2,-3.9,16
895,15551.0,-0.9,0.7000000000000001,-0.6000000000000001,1.1,10.3,-0.8,-29.1,-36.5,-5.4,16
896,15574.0,-0.8,0.6000000000000001,-0.30000000000000004,0.9,10.200000000000001,-0.8,-26.6,-34.800000000000004,-3.6000000000000005,16
897,15584.0,-0.1,-0.2,-0.1,1.5,9.5,-0.7000000000000001,-20.7,-28.0,-2.6,16
898,15601.0,0.9,-0.4,0.2,2.5,9.3,-0.4,-10.8,-23.0,-3.0,16
899,15618.0,1.0,-0.2,-0.6000000000000001,2.6,9.5,-1.2000000000000002,-1.2000000000000002,-17.1,-4.6,16
900,15634.0,0.5,0.1,-1.3,2.0,9.8,-1.9000000000000001,-0.8,-15.2,-7.200000000000001,16
901,15657.0,-0.5,0.30000000000000004,-1.2000000000000002,1.0,10.0,-1.8,-1.6,-12.100000000000001,-9.4,16
902,15679.0,-1.3,0.4,-0.7000000000000001,0.2,10.0,-1.3,-0.30000000000000004,-5.1000000000000005,-12.7,16
903,15684.0,-1.9000000000000001,0.4,-0.1,-0.4,10.100000000000001,-0.8,-0.30000000000000004,-5.1000000000000005,-12.7,16
904,15701.0,-2.3000000000000003,0.4,0.30000000000000004,-0.8,10.100000000000001,-0.30000000000000004,-1.2000000000000002,0.30000000000000004,-14.600000000000001,16
905,15718.0,-2.1,0.30000000000000004,0.8,-0.7000000000000001,10.0,0.2,-3.8,5.0,-15.299999999999999,16
906,15736.0,-1.7000000000000002,0.1,1.2000000000000002,-0.4,9.8,0.6000000000000001,-4.6,7.1000000000000005,-15.299999999999999,16
907,15751.0,-1.4000000000000001,-0.1,1.1,-0.1,9.600000000000001,0.5,-5.1000000000000005,9.100000000000001,-15.000000000000002,16
908,15774.0,-0.2,-0.4,0.2,0.30000000000000004,9.4,0.0,-11.1,11.000000000000002,-13.5,16
909,15785.0,-0.2,-0.4,0.2,0.30000000000000004,9.4,0.0,-13.200000000000003,10.600000000000001,-12.9,16
910,15801.0,0.0,-0.7000000000000001,0.2,0.2,9.200000000000001,0.2,-14.600000000000001,5.6,-10.5,16
911,15822.0,0.1,-0.7000000000000001,0.1,0.30000000000000004,9.1,0.1,-11.900000000000002,2.1,-6.0,16
912,15834.0,0.30000000000000004,-0.7000000000000001,0.0,0.5,9.1,0.0,-7.500000000000001,-2.0,-1.7,16
913,15853.0,0.30000000000000004,-0.8,-0.7000000000000001,0.6000000000000001,9.0,-0.6000000000000001,2.3,-8.100000000000001,0.6000000000000001,16
914,15868.0,-0.2,-0.6000000000000001,-1.1,0.0,9.200000000000001,-1.1,6.4,-4.0,1.2000000000000002,16
915,15884.0,-0.7000000000000001,-0.1,-0.9,-0.5,9.700000000000001,-0.9,10.9,0.5,2.7,16
916,15901.0,-1.0,0.0,-0.5,-0.7000000000000001,9.8,-0.6000000000000001,14.5,-2.8,4.7,16
917,15918.0,-1.0,0.1,-0.6000000000000001,-0.7000000000000001,9.9,-0.7000000000000001,16.6,-8.899999999999999,7.699999999999999,16
918,15934.0,-0.9,0.0,-0.5,-0.7000000000000001,9.8,-0.7000000000000001,15.8,-12.200000000000001,9.3,16
919,15951.0,-0.5,0.1,-0.1,-0.7000000000000001,9.9,-0.6000000000000001,14.200000000000001,-14.0,10.1,16
920,15973.0,-0.2,0.7000000000000001,-0.1,-0.5,10.5,-0.6000000000000001,6.600000000000001,-3.6000000000000005,3.4,16
921,15984.0,-0.30000000000000004,1.7000000000000002,0.5,-0.6000000000000001,11.5,0.0,4.5,1.7,0.8,16
922,16002.0,-0.7000000000000001,1.5,1.4000000000000001,-1.0,11.3,0.9,2.0,14.400000000000002,-2.8,16
923,16018.0,-0.6000000000000001,0.6000000000000001,1.4000000000000001,-0.9,10.4,0.9,-0.5,11.5,-0.7,16
924,16040.0,0.1,-0.2,0.7000000000000001,-0.30000000000000004,9.600000000000001,0.1,6.300000000000001,-11.2,-0.6000000000000001,16
925,16051.0,0.1,-0.2,0.7000000000000001,-0.30000000000000004,9.600000000000001,0.1,14.300000000000002,-14.400000000000002,-0.5,16
926,16072.0,1.4000000000000001,0.6000000000000001,-1.0,1.1,10.4,-1.6,7.6,-0.9000000000000001,2.2,16
927,16084.0,1.4000000000000001,0.6000000000000001,-1.0,1.1,10.4,-1.6,-1.3,-3.4,3.9,16
928,16101.0,2.1,-0.30000000000000004,0.5,1.8,9.5,-0.1,-2.6,-7.0,3.5,16
929,16118.0,1.5,0.0,-0.2,1.2000000000000002,9.8,-0.8,4.4,-9.3,2.7,16
930,16134.0,0.9,0.30000000000000004,-0.8,0.6000000000000001,10.100000000000001,-1.4000000000000001,10.1,-2.2,2.5,16
931,16151.0,0.7000000000000001,0.2,-0.6000000000000001,1.1,9.9,-1.4000000000000001,9.100000000000001,4.1,4.2,16
932,16174.0,0.6000000000000001,0.1,0.6000000000000001,1.4000000000000001,9.8,-0.1,4.800000000000001,3.3000000000000007,5.7,16
933,16184.0,0.6000000000000001,0.2,0.8,1.6,9.9,0.30000000000000004,5.8,-0.4,4.9,16
934,16202.0,0.30000000000000004,0.30000000000000004,0.1,1.3,10.100000000000001,-0.4,5.500000000000001,-2.1,4.5,16
935,16218.0,0.0,0.30000000000000004,-0.2,1.1,10.100000000000001,-0.8,2.4000000000000004,-1.5,4.2,16
936,16234.0,-0.1,0.2,-0.1,0.9,9.9,-0.7000000000000001,0.7,-1.0,4.2,16
937,16254.0,-0.2,0.0,-0.30000000000000004,0.9,9.700000000000001,-0.8,-0.4,-0.7,4.1,16
938,16268.0,-0.1,-0.2,-0.6000000000000001,1.0,9.600000000000001,-1.1,-0.8,0.0,3.9,16
939,16284.0,-0.1,-0.2,-0.7000000000000001,1.0,9.5,-1.3,-1.2000000000000002,3.0,3.9,16
940,16302.0,0.0,-0.1,-0.8,1.1,9.600000000000001,-1.4000000000000001,-3.2,3.3000000000000007,3.4,16
941,16318.0,-0.1,-0.2,0.0,1.1,9.5,-0.6000000000000001,-3.0,3.0,4.300000000000001,16
942,16334.0,0.0,-0.2,0.30000000000000004,1.1,9.5,-0.30000000000000004,4.0,5.6,4.300000000000001,16
943,16351.0,-0.1,0.0,0.1,1.0,9.700000000000001,-0.5,5.1000000000000005,5.4,4.1,16
944,16368.0,-0.1,0.0,0.2,1.1,9.700000000000001,-0.4,4.300000000000001,1.3,3.4,16
945,16385.0,-0.1,0.1,0.4,1.1,9.8,-0.2,5.6,-0.6000000000000001,3.2,16
946,16401.0,0.1,0.0,0.30000000000000004,1.5,9.600000000000001,-0.6000000000000001,7.200000000000001,-0.30000000000000004,2.6,16
947,16418.0,0.6000000000000001,-0.2,-0.2,1.8,9.5,-0.8,6.4,-1.2000000000000002,0.7,16
948,16434.0,0.4,0.1,-0.7000000000000001,1.6,9.8,-1.4000000000000001,5.8,0.1,-1.3,16
949,16451.0,0.4,0.1,-0.7000000000000001,1.3,10.0,-1.3,1.1,0.1,-2.2,16
950,16468.0,-0.6000000000000001,0.4,0.0,0.6000000000000001,10.100000000000001,-0.7000000000000001,-2.9,-1.7,-1.0,16
951,16489.0,-0.6000000000000001,0.30000000000000004,0.2,0.5,10.0,-0.5,-0.6000000000000001,0.2,-0.30000000000000004,16
952,16501.0,-0.5,0.2,0.0,0.6000000000000001,9.9,-0.7000000000000001,-0.5,0.5,-1.0,16
953,16519.0,-0.5,0.4,0.0,0.7000000000000001,10.100000000000001,-0.7000000000000001,-2.6,-1.3,-1.2000000000000002,16
954,16534.0,-0.4,0.30000000000000004,0.2,0.8,10.0,-0.5,-3.8,-4.4,-0.7,16
955,16551.0,-0.2,0.1,0.2,0.9,9.8,-0.5,-3.7000000000000006,-7.699999999999999,-0.6000000000000001,16
956,16569.0,-0.2,0.0,0.0,0.9,9.8,-0.7000000000000001,-3.0,-9.8,-0.4,16
957,16584.0,-0.2,0.1,-0.1,0.9,9.8,-0.8,-3.2,-10.9,-0.1,16
958,16605.0,-0.2,0.1,0.0,0.9,9.9,-0.7000000000000001,-2.7,-12.5,0.30000000000000004,16
959,16618.0,-0.2,0.30000000000000004,-0.1,0.9,10.0,-0.8,-2.7,-12.600000000000001,0.6000000000000001,16
960,16634.0,-0.1,0.2,-0.2,1.0,9.9,-0.8,-2.7,-11.6,0.5,16
961,16666.0,0.0,0.0,0.0,1.0,9.700000000000001,-0.7000000000000001,-2.0,-10.4,0.5,16
962,16668.0,0.0,0.0,0.0,1.0,9.700000000000001,-0.7000000000000001,-2.6,-10.0,0.30000000000000004,16
963,16684.0,-0.1,-0.1,-0.2,1.0,9.700000000000001,-0.9,-5.2,-11.000000000000002,-0.30000000000000004,16
964,16701.0,0.0,0.0,-0.4,1.0,9.700000000000001,-1.1,-8.8,-11.3,-0.8,16
965,16718.0,0.0,-0.1,-0.1,1.1,9.600000000000001,-0.7000000000000001,-10.8,-10.4,-1.0,16
966,16734.0,0.0,-0.1,-0.1,1.1,9.600000000000001,-0.7000000000000001,-9.700000000000001,-4.800000000000001,-1.3,16
967,16751.0,-0.2,-0.1,0.4,0.8,9.600000000000001,-0.2,-6.1000000000000005,0.0,-1.0,16
968,16767.0,-0.2,-0.1,0.30000000000000004,0.8,9.600000000000001,-0.30000000000000004,-2.9,2.9,-0.1,16
969,16785.0,-0.2,-0.1,0.30000000000000004,0.8,9.600000000000001,-0.30000000000000004,-3.3000000000000007,5.0,0.1,16
970,16802.0,-0.1,0.2,-0.30000000000000004,0.9,9.9,-0.9,-7.6,7.300000000000001,0.2,16
971,16818.0,-0.2,0.2,0.0,0.8,10.0,-0.6000000000000001,-8.4,10.0,0.8,16
972,16846.0,-0.5,-0.1,0.6000000000000001,0.30000000000000004,9.700000000000001,0.1,-6.300000000000001,8.0,0.5,16
973,16851.0,-0.5,-0.1,0.6000000000000001,0.30000000000000004,9.700000000000001,0.1,-6.1000000000000005,4.7,0.6000000000000001,16
974,16867.0,-0.4,0.2,0.8,0.30000000000000004,10.0,0.6000000000000001,-3.3000000000000007,-1.0,2.0,16
975,16884.0,-0.2,0.1,0.1,0.4,9.9,-0.1,1.6,-1.8000000000000003,3.0,16
976,16904.0,0.0,0.2,-0.4,0.6000000000000001,10.0,-0.6000000000000001,2.6,0.5,3.2,16
977,16918.0,0.2,0.30000000000000004,-0.30000000000000004,0.8,10.100000000000001,-0.5,2.3,0.7,3.0,16
978,16936.0,0.2,0.2,-0.2,0.9,10.0,-0.4,0.7,-0.7,1.9,16
979,16951.0,0.0,0.1,-0.1,0.7000000000000001,9.9,-0.30000000000000004,0.8,-2.1,1.5,16
980,16981.0,-0.1,0.1,0.0,0.6000000000000001,9.8,-0.2,0.8,-5.500000000000001,0.9000000000000001,16
981,16988.0,-0.1,0.1,0.0,0.6000000000000001,9.8,-0.2,0.6000000000000001,-6.300000000000001,0.7,16
982,17002.0,0.0,0.0,-0.2,0.7000000000000001,9.8,-0.4,-0.2,-7.9,0.9000000000000001,16
983,17018.0,0.30000000000000004,0.0,-0.4,0.9,9.8,-0.6000000000000001,-0.8,-8.600000000000001,1.5,16
984,17039.0,0.4,0.0,-0.5,1.1,9.8,-0.8,-2.3,-6.300000000000001,1.7,16
985,17057.0,0.4,0.1,-0.4,1.2000000000000002,9.9,-0.6000000000000001,-4.300000000000001,-4.4,1.8000000000000003,16
986,17068.0,0.4,0.0,0.0,1.1,9.8,-0.30000000000000004,-4.9,-3.8,2.0,16
987,17084.0,0.4,0.0,0.0,1.1,9.8,-0.30000000000000004,-4.9,-3.8,2.0,16
988,17102.0,0.30000000000000004,0.0,0.1,1.1,9.8,-0.1,-3.0,-1.6,2.5,16
989,17118.0,0.4,-0.1,0.0,1.2000000000000002,9.700000000000001,-0.30000000000000004,-3.8,-3.1,2.4000000000000004,16
990,17136.0,0.4,0.0,-0.30000000000000004,1.2000000000000002,9.8,-0.6000000000000001,-5.0,-2.9,2.7,16
991,17151.0,0.30000000000000004,-0.1,-0.4,1.2000000000000002,9.700000000000001,-0.7000000000000001,-6.600000000000001,-2.1,2.0,16
992,17176.0,0.0,0.1,-0.2,0.9,9.8,-0.5,-5.300000000000001,0.9000000000000001,1.6,16
993,17187.0,0.0,0.1,-0.2,0.9,9.8,-0.5,-4.300000000000001,2.6,1.8000000000000003,16
994,17201.0,-0.1,0.1,-0.2,0.8,9.8,-0.4,-3.3000000000000007,4.7,2.0,16
995,17218.0,0.0,0.1,-0.2,0.9,9.9,-0.4,-3.2,5.6,1.6,16
996,17234.0,0.1,0.1,0.0,1.0,9.9,-0.2,-2.4000000000000004,6.2,1.6,16
997,17251.0,0.0,0.1,0.1,0.9,9.9,-0.1,-1.3,7.0,1.6,16
998,17272.0,-0.1,0.2,0.0,0.9,10.0,-0.2,-2.0,5.8,2.1,16
999,17284.0,-0.1,0.2,0.0,0.9,10.0,-0.2,-3.9,3.2,2.3,16
1000,17301.0,-0.1,0.2,0.2,0.8,10.0,0.0,-4.0,1.0,2.8,16
1001,17320.0,-0.2,0.0,0.5,0.7000000000000001,9.8,0.30000000000000004,-2.8,0.4,3.6000000000000005,16
1002,17334.0,-0.2,0.0,0.4,0.8,9.8,0.30000000000000004,-0.6000000000000001,-0.9000000000000001,4.9,16
1003,17351.0,-0.2,0.0,0.4,0.8,9.8,0.30000000000000004,0.7,-3.0,6.500000000000001,16
1004,17367.0,0.30000000000000004,0.0,-0.1,1.2000000000000002,9.700000000000001,-0.30000000000000004,1.2000000000000002,-2.2,7.400000000000001,16
1005,17384.0,0.4,-0.2,-0.1,1.4000000000000001,9.600000000000001,-0.30000000000000004,0.9000000000000001,0.6000000000000001,7.0,16
1006,17402.0,0.2,-0.1,0.0,1.2000000000000002,9.700000000000001,-0.1,2.1,1.7,6.500000000000001,16
1007,17417.0,0.2,0.1,0.0,1.2000000000000002,9.9,-0.2,4.0,2.2,7.0,16
1008,17434.0,0.2,0.2,-0.30000000000000004,1.3,10.0,-0.5,4.4,2.4000000000000004,6.9,16
1009,17451.0,0.2,0.2,-0.6000000000000001,1.3,9.9,-0.8,3.3000000000000007,1.9,6.300000000000001,16
1010,17469.0,0.1,0.2,-0.6000000000000001,1.2000000000000002,9.9,-0.9,0.6000000000000001,-0.2,4.300000000000001,16
1011,17484.0,-0.1,0.30000000000000004,-0.5,1.0,10.0,-0.8,0.1,-1.6,4.1,16
1012,17505.0,-0.2,0.4,-0.5,0.9,10.100000000000001,-0.7000000000000001,-1.6,-5.6,3.2,16
1013,17518.0,-0.30000000000000004,0.4,-0.30000000000000004,0.8,10.200000000000001,-0.5,-1.9,-7.400000000000001,3.0,16
1014,17534.0,-0.30000000000000004,0.4,-0.1,0.8,10.100000000000001,-0.4,-1.8000000000000003,-9.8,3.5,16
1015,17564.0,0.2,0.0,0.0,1.4000000000000001,9.8,-0.30000000000000004,1.6,-11.2,3.7000000000000006,16
1016,17568.0,0.2,0.0,0.0,1.4000000000000001,9.8,-0.30000000000000004,2.3,-11.2,3.9,16
1017,17584.0,0.5,-0.2,-0.1,1.6,9.5,-0.4,3.9,-10.4,4.6,16
1018,17607.0,1.0,-0.30000000000000004,-0.2,2.2,9.4,-0.6000000000000001,4.1,-8.8,6.0,16
1019,17618.0,1.0,-0.30000000000000004,-0.2,2.2,9.4,-0.6000000000000001,3.2,-8.700000000000001,6.500000000000001,16
1020,17635.0,1.0,0.1,0.2,2.3000000000000003,9.8,-0.2,0.30000000000000004,-8.600000000000001,8.5,16
1021,17656.0,1.1,0.1,0.5,2.5,9.8,0.1,-2.6,-7.200000000000001,9.700000000000001,16
1022,17667.0,1.1,-0.2,0.6000000000000001,2.6,9.5,0.30000000000000004,-3.0,-5.8,8.899999999999999,16
1023,17684.0,0.9,-0.2,0.6000000000000001,2.4000000000000004,9.5,0.30000000000000004,-4.1,-4.800000000000001,6.300000000000001,16
1024,17701.0,0.6000000000000001,-0.1,0.5,2.2,9.5,0.2,-6.8,-7.500000000000001,3.6000000000000005,16
1025,17718.0,0.4,-0.1,0.4,2.0,9.600000000000001,0.2,-7.8,-8.5,2.1,16
1026,17742.0,0.30000000000000004,-0.1,0.2,1.9000000000000001,9.600000000000001,0.0,-6.2,-7.0,1.0,16
1027,17751.0,0.2,0.0,-0.7000000000000001,2.0,9.600000000000001,-0.9,-7.9,-7.500000000000001,0.7,16
1028,17783.0,0.2,0.2,-0.6000000000000001,2.0,9.8,-0.8,-16.5,-6.8,-2.7,16
1029,17801.0,0.0,0.1,0.1,1.7000000000000002,9.700000000000001,0.0,-17.300000000000004,-9.5,-3.5,16
1030,17817.0,0.0,0.0,1.1,1.7000000000000002,9.600000000000001,1.0,-13.700000000000001,-7.300000000000001,-4.7,16
1031,17835.0,-0.1,0.0,1.4000000000000001,1.6,9.600000000000001,1.3,-6.9,-9.2,-5.9,16
1032,17854.0,0.1,-0.2,1.0,1.8,9.4,0.9,-3.4,-10.600000000000001,-6.1000000000000005,16
1033,17869.0,0.30000000000000004,-0.1,0.4,1.9000000000000001,9.600000000000001,0.30000000000000004,-1.4,-11.000000000000002,-5.300000000000001,16
1034,17884.0,0.6000000000000001,-0.1,0.5,2.3000000000000003,9.600000000000001,0.5,4.300000000000001,-8.5,-4.300000000000001,16
1035,17901.0,0.7000000000000001,-0.2,0.7000000000000001,2.4000000000000004,9.5,0.7000000000000001,10.299999999999999,-6.2,-1.6,16
1036,17918.0,0.8,-0.2,0.1,2.5,9.5,0.1,11.8,-6.500000000000001,1.0,16
1037,17938.0,1.1,0.0,0.0,2.8000000000000003,9.600000000000001,-0.1,8.5,-7.9,0.7,16
1038,17953.0,0.2,0.4,0.30000000000000004,2.4000000000000004,9.9,0.5,0.9000000000000001,-7.1000000000000005,-1.0,16
1039,17967.0,-0.30000000000000004,0.6000000000000001,0.9,1.8,10.200000000000001,1.0,-6.600000000000001,-9.5,-2.4000000000000004,16
1040,17985.0,-0.6000000000000001,0.7000000000000001,0.9,1.6,10.3,1.1,-11.6,-13.900000000000002,-2.6,16
1041,18001.0,-0.5,0.5,0.1,1.6,10.100000000000001,0.30000000000000004,-11.2,-11.900000000000002,-0.8,16
1042,18021.0,-0.30000000000000004,0.0,-0.30000000000000004,1.9000000000000001,9.600000000000001,-0.1,-5.4,-5.0,1.2000000000000002,16
1043,18038.0,-0.1,-0.4,-0.7000000000000001,2.0,9.200000000000001,-0.4,-2.4000000000000004,0.4,1.1,16
1044,18066.0,0.1,0.4,-0.5,2.2,9.9,-0.30000000000000004,-3.2,2.7,-1.6,16
1045,18084.0,-0.5,1.1,-0.5,1.5,10.700000000000001,-0.30000000000000004,-6.500000000000001,-1.4,-1.8000000000000003,16
1046,18102.0,-1.2000000000000002,1.4000000000000001,-0.6000000000000001,0.9,11.0,-0.4,-9.899999999999999,-4.800000000000001,-2.0,16
1047,18118.0,-1.3,1.1,-0.6000000000000001,0.6000000000000001,10.700000000000001,-0.5,-12.200000000000001,-4.9,-4.2,16
1048,18134.0,-1.6,0.7000000000000001,-0.4,0.2,10.3,-0.30000000000000004,-11.700000000000001,-4.2,-8.100000000000001,16
1049,18154.0,-1.4000000000000001,0.30000000000000004,-0.1,0.0,10.0,-0.1,-5.7,2.1,-14.900000000000002,16
1050,18175.0,-0.8,0.0,-0.30000000000000004,0.1,9.700000000000001,-0.4,-3.5,12.8,-18.0,16
1051,18184.0,-0.8,0.0,-0.30000000000000004,0.1,9.700000000000001,-0.4,-6.2,23.099999999999998,-19.799999999999997,16
1052,18205.0,-0.1,-0.6000000000000001,0.1,0.8,9.200000000000001,0.0,-13.399999999999999,31.400000000000002,-21.7,16
1053,18217.0,-0.1,-0.6000000000000001,0.1,0.8,9.200000000000001,0.0,-24.8,44.7,-24.3,16
1054,18242.0,0.30000000000000004,0.30000000000000004,1.2000000000000002,1.1,10.100000000000001,1.3,-37.400000000000006,58.1,-25.300000000000004,16
1055,18251.0,0.30000000000000004,0.30000000000000004,1.2000000000000002,1.1,10.100000000000001,1.3,-46.800000000000004,65.6,-23.400000000000002,16
1056,18274.0,0.7000000000000001,0.30000000000000004,2.3000000000000003,1.2000000000000002,10.100000000000001,2.7,-38.800000000000004,54.4,-16.8,16
1057,18285.0,0.6000000000000001,0.0,1.5,1.2000000000000002,9.8,2.0,-32.0,46.1,-14.300000000000002,16
1058,18301.0,0.2,-0.4,0.1,0.7000000000000001,9.3,0.6000000000000001,-20.1,32.7,-12.5,16
1059,18318.0,-0.4,-0.7000000000000001,-1.3,0.1,9.1,-0.7000000000000001,-12.600000000000001,22.3,-10.1,16
1060,18334.0,-1.2000000000000002,-0.8,-1.4000000000000001,-0.7000000000000001,9.0,-0.8,-13.000000000000002,16.3,-5.2,16
1061,18356.0,-1.7000000000000002,-0.4,-1.1,-1.3,9.3,-0.4,-12.0,9.0,-1.1,16
1062,18370.0,-1.6,-0.30000000000000004,-0.30000000000000004,-1.2000000000000002,9.5,0.4,-6.9,3.9,2.0,16
1063,18384.0,-1.5,-0.1,0.1,-1.1,9.700000000000001,0.8,-2.2,3.2,2.1,16
1064,18401.0,-1.5,0.1,0.30000000000000004,-1.1,9.9,1.0,0.7,3.3000000000000007,1.7,16
1065,18421.0,-1.4000000000000001,0.1,0.8,-1.0,9.8,1.5,5.4,-4.300000000000001,2.4000000000000004,16
1066,18436.0,-1.3,-0.1,1.1,-0.9,9.700000000000001,1.8,8.5,-8.3,2.4000000000000004,16
1067,18457.0,-1.2000000000000002,-0.2,1.0,-0.8,9.5,1.6,15.000000000000002,-14.400000000000002,1.3,16
1068,18467.0,-1.2000000000000002,-0.4,0.4,-0.9,9.3,1.0,15.899999999999999,-15.000000000000002,0.30000000000000004,16
1069,18484.0,-1.3,-0.4,0.2,-0.9,9.4,0.8,18.700000000000003,-16.0,-0.9000000000000001,16
1070,18501.0,-1.4000000000000001,-0.2,0.5,-1.1,9.600000000000001,1.1,20.1,-15.100000000000001,0.5,16
1071,18518.0,-0.4,0.0,0.6000000000000001,-0.9,9.700000000000001,1.6,20.2,-14.400000000000002,3.7000000000000006,16
1072,18534.0,0.2,0.0,0.7000000000000001,-0.6000000000000001,9.700000000000001,1.9000000000000001,18.6,-14.700000000000001,7.8,16
1073,18551.0,0.4,-0.30000000000000004,0.8,-0.30000000000000004,9.3,2.3000000000000003,16.5,-18.700000000000003,14.100000000000001,16
1074,18576.0,1.3,-0.8,0.8,0.8,8.9,2.5,14.800000000000002,-28.500000000000004,22.8,16
1075,18584.0,1.9000000000000001,-0.6000000000000001,0.6000000000000001,1.5,9.0,2.2,14.400000000000002,-32.1,25.4,16
1076,18603.0,2.5,-0.2,0.1,2.2,9.5,1.7000000000000002,13.3,-33.0,25.4,16
1077,18618.0,3.2,1.0,-0.6000000000000001,2.9000000000000004,10.700000000000001,0.9,11.8,-28.400000000000002,23.800000000000004,16
1078,18638.0,2.7,3.2,-1.0,2.5,12.8,0.5,4.7,-1.1,5.7,16
1079,18651.0,-0.7000000000000001,3.0,-1.7000000000000002,-0.9,12.600000000000001,-0.2,1.2000000000000002,10.600000000000001,1.2000000000000002,16
1080,18669.0,-2.8000000000000003,0.30000000000000004,-1.9000000000000001,-3.0,10.0,-0.4,-0.1,13.3,8.0,16
1081,18684.0,-1.1,-0.9,-1.5,-1.3,8.8,0.0,-0.4,16.200000000000003,12.200000000000001,16
1082,18701.0,0.7000000000000001,-0.30000000000000004,-0.30000000000000004,0.5,9.4,1.2000000000000002,4.7,16.4,13.200000000000003,16
1083,18718.0,2.0,0.30000000000000004,-0.1,1.9000000000000001,10.0,1.4000000000000001,9.600000000000001,11.2,12.5,16
1084,18739.0,2.2,0.5,-1.0,2.1,10.200000000000001,0.4,14.700000000000001,-7.200000000000001,10.4,16
1085,18751.0,1.8,0.4,-2.8000000000000003,1.7000000000000002,10.100000000000001,-1.4000000000000001,12.8,-19.6,9.4,16
1086,18767.0,1.3,0.30000000000000004,-3.7,1.2000000000000002,10.0,-2.3000000000000003,6.8,-21.200000000000003,8.899999999999999,16
1087,18786.0,1.0,-0.2,-3.0,1.0,9.600000000000001,-1.7000000000000002,3.7000000000000006,-17.1,6.699999999999999,16
1088,18801.0,1.0,-0.5,-1.9000000000000001,1.0,9.200000000000001,-0.5,7.699999999999999,-8.4,7.9,16
1089,18817.0,1.5,-0.6000000000000001,-1.1,1.5,9.1,0.2,12.4,-8.100000000000001,8.700000000000001,16
1090,18835.0,2.0,-0.9,-0.9,2.1,8.9,0.4,16.200000000000003,-9.0,9.899999999999999,16
1091,18867.0,1.4000000000000001,0.1,-0.6000000000000001,2.6,9.8,-0.2,19.5,-13.5,12.7,16
1092,18884.0,0.7000000000000001,0.6000000000000001,-0.8,2.5,10.3,-1.0,14.400000000000002,-12.7,13.700000000000001,16
1093,18903.0,0.4,0.5,-0.6000000000000001,2.4000000000000004,10.100000000000001,-1.0,9.600000000000001,-12.4,13.3,16
1094,18918.0,0.2,0.2,-0.2,2.3000000000000003,9.8,-0.7000000000000001,5.7,-12.299999999999999,12.4,16
1095,18937.0,0.1,0.1,0.1,2.2,9.600000000000001,-0.4,5.4,-9.8,10.9,16
1096,18951.0,0.1,0.0,0.30000000000000004,2.2,9.600000000000001,-0.2,6.699999999999999,-7.699999999999999,11.2,16
1097,18969.0,0.2,0.0,0.30000000000000004,2.4000000000000004,9.5,-0.2,7.699999999999999,-5.0,11.4,16
1098,18986.0,0.2,-0.1,0.2,2.5,9.4,-0.30000000000000004,8.0,-3.9,11.1,16
1099,19001.0,0.2,-0.1,0.1,2.5,9.5,-0.4,7.300000000000001,-3.0,11.000000000000002,16
1100,19017.0,0.1,0.0,0.1,2.4000000000000004,9.600000000000001,-0.4,6.699999999999999,-3.2,10.4,16
1101,19038.0,0.0,0.1,0.1,2.3000000000000003,9.600000000000001,-0.4,4.7,-6.1000000000000005,8.8,16
1102,19062.0,-0.6000000000000001,0.1,0.2,1.8,9.600000000000001,-0.30000000000000004,2.2,-8.4,6.699999999999999,16
1103,19068.0,-0.6000000000000001,0.1,0.2,1.8,9.600000000000001,-0.30000000000000004,1.1,-8.899999999999999,5.7,16
1104,19084.0,-0.7000000000000001,0.1,0.30000000000000004,1.7000000000000002,9.600000000000001,-0.1,-0.5,-8.700000000000001,3.6000000000000005,16
1105,19105.0,-0.7000000000000001,0.1,0.5,1.6,9.600000000000001,0.0,-2.0,-7.200000000000001,0.6000000000000001,16
1106,19117.0,-0.6000000000000001,0.0,0.7000000000000001,1.7000000000000002,9.600000000000001,0.2,-2.4000000000000004,-8.0,-0.7,16
1107,19137.0,-0.5,0.0,0.4,1.8,9.5,0.0,-4.0,-8.899999999999999,-1.3,16
1108,19155.0,-0.2,-0.2,0.1,2.1,9.3,-0.2,-6.300000000000001,-10.0,-1.6,16
1109,19172.0,0.1,0.0,0.1,2.3000000000000003,9.5,-0.30000000000000004,-8.3,-13.200000000000003,-1.3,16
1110,19184.0,0.30000000000000004,0.0,0.0,2.5,9.600000000000001,-0.30000000000000004,-8.899999999999999,-14.400000000000002,-1.1,16
1111,19202.0,0.4,0.1,0.0,2.6,9.600000000000001,-0.30000000000000004,-10.5,-16.8,-1.0,16
1112,19217.0,0.4,0.1,0.1,2.6,9.700000000000001,-0.1,-13.000000000000002,-19.1,-1.2000000000000002,16
1113,19243.0,0.30000000000000004,0.2,0.30000000000000004,2.5,9.700000000000001,0.0,-15.100000000000001,-21.900000000000002,-2.4000000000000004,16
1114,19258.0,0.1,0.2,0.30000000000000004,2.3000000000000003,9.700000000000001,0.1,-15.899999999999999,-22.2,-3.0,16
1115,19281.0,-0.1,0.2,0.8,2.1,9.8,0.7000000000000001,-17.6,-21.7,-4.9,16
1116,19284.0,-0.1,0.2,0.8,2.1,9.8,0.7000000000000001,-17.300000000000004,-20.8,-5.7,16
1117,19301.0,-0.30000000000000004,0.2,0.8,1.9000000000000001,9.8,0.8,-16.5,-18.3,-7.300000000000001,16
1118,19317.0,-0.2,0.0,0.8,2.0,9.600000000000001,0.8,-16.8,-16.700000000000003,-8.4,16
1119,19336.0,0.0,0.1,0.6000000000000001,2.1,9.700000000000001,0.6000000000000001,-19.0,-16.6,-10.8,16
1120,19356.0,-0.2,0.7000000000000001,-0.2,1.9000000000000001,10.3,-0.1,-26.799999999999997,-26.700000000000003,-13.000000000000002,16
1121,19367.0,-0.4,1.4000000000000001,-1.0,1.7000000000000002,11.0,-0.8,-28.800000000000004,-30.000000000000004,-12.4,16
1122,19385.0,-0.4,0.8,-1.5,1.6,10.4,-1.3,-29.0,-26.400000000000006,-12.100000000000001,16
1123,19401.0,0.2,-0.1,-0.9,2.2,9.5,-0.6000000000000001,-14.400000000000002,-9.5,-14.600000000000001,16
1124,19417.0,0.4,-0.6000000000000001,-0.7000000000000001,2.3000000000000003,9.0,-0.5,-5.500000000000001,-5.8,-16.900000000000002,16
1125,19434.0,-0.4,-0.2,-1.3,1.5,9.4,-1.0,-4.7,-7.8,-18.1,16
1126,19456.0,-0.7000000000000001,1.1,-1.6,1.1,10.700000000000001,-1.3,-24.0,15.700000000000001,-28.0,16
1127,19469.0,-0.6000000000000001,1.6,-1.3,1.1,11.3,-0.9,-42.7,33.400000000000006,-32.6,16
1128,19493.0,-1.1,0.7000000000000001,3.7,0.5,10.4,4.3,-76.4,68.1,-32.0,16
1129,19501.0,-0.8,0.1,3.7,0.8,9.700000000000001,4.5,-66.5,51.0,-31.5,16
1130,19521.0,-1.0,-0.1,2.6,0.4,9.600000000000001,3.6,-21.7,36.300000000000004,-31.7,16
1131,19536.0,-1.5,-0.1,1.1,-0.2,9.600000000000001,2.1,9.8,32.400000000000006,-25.5,16
1132,19566.0,-1.7000000000000002,0.30000000000000004,-3.6,-0.5,10.0,-2.6,18.5,19.6,-15.000000000000002,16
1133,19572.0,-1.7000000000000002,0.30000000000000004,-3.6,-0.5,10.0,-2.6,10.700000000000001,13.000000000000002,-12.8,16
1134,19584.0,-1.6,-0.30000000000000004,-3.6,-0.5,9.4,-2.7,-4.300000000000001,1.9,-11.3,16
1135,19601.0,-1.7000000000000002,-0.5,-1.6,-0.6000000000000001,9.200000000000001,-0.7000000000000001,-10.9,-2.1,-8.3,16
1136,19617.0,-1.6,-1.0,0.2,-0.5,8.700000000000001,1.2000000000000002,-4.7,-3.7000000000000006,-5.1000000000000005,16
1137,19636.0,-1.6,-1.3,0.9,-0.4,8.4,1.9000000000000001,8.100000000000001,-8.4,-2.7,16
1138,19652.0,-1.6,-1.4000000000000001,0.8,-0.5,8.3,1.8,18.200000000000003,-14.700000000000001,-1.3,16
1139,19677.0,-1.5,-0.8,0.0,-0.4,8.9,0.8,28.700000000000003,-27.0,1.6,16
1140,19684.0,-1.5,-0.8,0.0,-0.4,8.9,0.8,30.5,-29.500000000000004,2.8,16
1141,19701.0,-1.3,-0.4,-0.30000000000000004,-0.2,9.3,0.5,29.1,-31.3,5.1000000000000005,16
1142,19717.0,-1.1,0.0,-0.1,0.0,9.700000000000001,0.5,24.8,-27.700000000000003,4.0,16
1143,19734.0,-1.0,0.5,0.2,0.1,10.3,0.7000000000000001,20.599999999999998,-21.0,2.9,16
1144,19754.0,0.0,0.8,0.6000000000000001,0.2,10.600000000000001,1.4000000000000001,16.1,-6.0,0.9000000000000001,16
1145,19768.0,-0.1,1.0,1.2000000000000002,0.1,10.8,1.9000000000000001,10.5,10.700000000000001,-0.2,16
1146,19786.0,-0.7000000000000001,1.0,1.9000000000000001,-0.5,10.8,2.6,2.2,24.599999999999998,4.0,16
1147,19804.0,0.6000000000000001,-0.4,3.3000000000000003,0.9,9.3,4.0,-6.500000000000001,21.6,14.0,16
1148,19817.0,1.1,-1.1,3.1,1.4000000000000001,8.700000000000001,3.9000000000000004,-3.8,13.8,16.8,16
1149,19837.0,1.4000000000000001,-0.8,1.7000000000000002,1.7000000000000002,9.0,2.5,14.5,-10.8,19.6,16
1150,19852.0,1.7000000000000002,0.6000000000000001,-0.4,2.1,10.4,0.2,20.400000000000002,-23.0,17.6,16
1151,19874.0,1.1,2.4000000000000004,-2.6,1.6,12.200000000000001,-2.0,16.700000000000003,-27.3,12.0,16
1152,19884.0,-0.4,2.5,-3.8000000000000003,0.2,12.3,-3.2,5.500000000000001,-18.3,9.0,16
1153,19903.0,-1.7000000000000002,1.1,-2.5,-1.1,10.8,-2.0,-5.9,0.7,9.600000000000001,16
1154,19917.0,-1.7000000000000002,-0.6000000000000001,0.0,-1.2000000000000002,9.200000000000001,0.6000000000000001,-3.4,10.1,9.0,16
1155,19937.0,-1.1,-0.9,1.4000000000000001,-0.6000000000000001,8.9,1.9000000000000001,8.0,7.0,8.4,16
1156,19953.0,0.0,-0.2,0.9,0.6000000000000001,9.600000000000001,1.5,13.700000000000001,7.400000000000001,8.100000000000001,16
1157,19967.0,1.0,0.2,0.0,1.7000000000000002,10.0,0.5,12.200000000000001,2.3,8.2,16
1158,19984.0,1.5,0.0,-0.9,2.1,9.8,-0.4,8.600000000000001,-4.7,9.600000000000001,16
1159,20001.0,1.5,-0.30000000000000004,-1.6,2.2,9.5,-1.1,5.4,-5.2,11.2,16
1160,20017.0,1.4000000000000001,-0.6000000000000001,-1.4000000000000001,2.1,9.200000000000001,-1.0,5.9,-1.3,13.6,16
1161,20037.0,0.7000000000000001,-0.6000000000000001,-0.5,2.0,9.200000000000001,-0.6000000000000001,8.5,1.0,14.800000000000002,16
1162,20058.0,0.30000000000000004,0.2,0.1,1.9000000000000001,9.8,-0.1,8.100000000000001,-4.7,15.299999999999999,16
1163,20068.0,0.30000000000000004,0.2,0.1,1.9000000000000001,9.8,-0.1,5.7,-8.600000000000001,14.900000000000002,16
1164,20085.0,0.2,0.6000000000000001,0.1,1.9000000000000001,10.200000000000001,-0.2,-1.5,-15.299999999999999,12.0,16
1165,20101.0,-0.1,0.4,0.7000000000000001,1.6,10.0,0.4,-2.2,-15.000000000000002,10.0,16
1166,20118.0,-0.1,0.4,0.7000000000000001,1.7000000000000002,9.8,0.30000000000000004,3.4,-10.200000000000001,8.600000000000001,16
1167,20136.0,0.4,-0.30000000000000004,-0.1,2.1,9.3,-0.2,13.100000000000001,-1.4,6.4,16
1168,20161.0,0.6000000000000001,-0.6000000000000001,-0.8,2.5,9.0,-1.0,12.600000000000001,1.9,3.1,16
1169,20169.0,0.9,-0.6000000000000001,-0.6000000000000001,2.7,9.0,-0.8,10.4,0.1,2.8,16
1170,20187.0,0.9,-0.4,-0.2,2.8000000000000003,9.200000000000001,-0.4,8.2,-3.6000000000000005,2.9,16
1171,20201.0,0.4,-0.30000000000000004,0.1,2.7,9.3,-0.30000000000000004,6.500000000000001,-7.300000000000001,3.9,16
1172,20217.0,0.2,-0.30000000000000004,0.1,2.5,9.200000000000001,-0.30000000000000004,5.0,-8.700000000000001,4.4,16
1173,20236.0,0.0,-0.4,0.1,2.3000000000000003,9.1,-0.2,3.1,-11.8,4.5,16
1174,20258.0,-0.1,-0.4,0.2,2.3000000000000003,9.200000000000001,-0.2,0.6000000000000001,-13.3,2.2,16
1175,20267.0,-0.30000000000000004,-0.2,0.30000000000000004,2.1,9.3,0.0,0.6000000000000001,-12.9,1.8000000000000003,16
1176,20287.0,-0.30000000000000004,-0.1,0.4,2.1,9.5,0.1,3.3000000000000007,-8.2,-0.30000000000000004,16
1177,20301.0,-0.2,0.1,0.5,2.1,9.600000000000001,0.2,3.9,-7.0,-0.8,16
1178,20319.0,-0.2,0.2,0.5,2.1,9.700000000000001,0.2,3.4,-3.7000000000000006,-1.5,16
1179,20334.0,-0.1,0.1,0.5,2.2,9.700000000000001,0.2,1.5,-2.8,-2.0,16
1180,20363.0,0.2,0.1,0.9,2.5,9.600000000000001,0.7000000000000001,-2.1,-5.2,-2.4000000000000004,16
1181,20369.0,0.2,0.1,0.9,2.5,9.600000000000001,0.7000000000000001,-3.0,-6.500000000000001,-2.1,16
1182,20384.0,0.2,0.2,0.7000000000000001,2.5,9.700000000000001,0.6000000000000001,-8.899999999999999,-11.5,-1.7,16
1183,20405.0,-0.4,0.2,0.6000000000000001,1.9000000000000001,9.700000000000001,0.5,-20.3,-16.4,-4.0,16
1184,20417.0,-0.6000000000000001,0.30000000000000004,0.8,1.7000000000000002,9.8,0.8,-22.4,-17.200000000000003,-5.0,16
1185,20437.0,-0.8,0.30000000000000004,0.7000000000000001,1.4000000000000001,9.8,0.7000000000000001,-29.200000000000003,-16.6,-9.4,16
1186,20454.0,-1.0,0.6000000000000001,0.2,1.2000000000000002,10.100000000000001,0.30000000000000004,-32.300000000000004,-17.9,-11.8,16
1187,20470.0,-1.2000000000000002,1.5,-0.6000000000000001,1.0,11.0,-0.4,-33.0,-21.6,-14.200000000000001,16
1188,20484.0,-1.7000000000000002,1.9000000000000001,-1.4000000000000001,0.4,11.4,-1.2000000000000002,-33.1,-24.400000000000002,-14.800000000000002,16
1189,20503.0,-1.3,1.0,-1.4000000000000001,0.8,10.5,-1.1,-28.0,-16.700000000000003,-14.700000000000001,16
1190,20517.0,-0.30000000000000004,-0.2,-1.0,1.4000000000000001,9.5,-0.9,-15.100000000000001,-2.6,-15.100000000000001,16
1191,20536.0,-0.1,-0.1,-1.7000000000000002,1.5,9.5,-1.6,-4.7,10.5,-16.5,16
1192,20554.0,-0.2,0.5,-1.9000000000000001,1.4000000000000001,10.100000000000001,-1.8,-13.100000000000001,27.800000000000004,-18.6,16
1193,20577.0,0.30000000000000004,1.6,2.8000000000000003,1.8,11.3,3.2,-75.9,78.7,-27.5,16
1194,20584.0,0.30000000000000004,1.6,2.8000000000000003,1.8,11.3,3.2,-77.20000000000002,77.9,-28.800000000000004,16
1195,20601.0,-0.8,1.3,4.2,0.6000000000000001,10.9,4.800000000000001,-56.10000000000001,55.7,-28.700000000000003,16
1196,20617.0,-1.5,0.30000000000000004,3.1,-0.2,10.0,3.9000000000000004,-32.300000000000004,36.400000000000006,-26.700000000000003,16
1197,20634.0,-2.3000000000000003,0.0,1.1,-1.0,9.700000000000001,1.9000000000000001,-7.1000000000000005,18.0,-19.200000000000003,16
1198,20655.0,-2.2,0.4,-1.1,-1.0,10.100000000000001,-0.2,-7.9,9.2,-14.0,16
1199,20667.0,-1.8,0.2,-1.9000000000000001,-0.7000000000000001,9.9,-1.0,-12.9,1.2000000000000002,-11.1,16
1200,20685.0,-1.3,-0.5,-1.7000000000000002,-0.2,9.200000000000001,-0.7000000000000001,-16.6,-1.6,-9.0,16
1201,20701.0,-1.3,-1.2000000000000002,-0.4,-0.2,7.9,1.6,-12.4,-4.800000000000001,-6.1000000000000005,16
1202,20717.0,-1.2000000000000002,-2.0,1.2000000000000002,-0.2,7.7,2.2,-2.2,-13.3,-2.8,16
1203,20738.0,-1.1,-1.9000000000000001,1.1,-0.1,7.800000000000001,2.1,15.2,-23.900000000000006,2.1,16
1204,20760.0,-1.2000000000000002,-1.5,0.8,-0.1,8.200000000000001,1.7000000000000002,27.3,-30.1,7.500000000000001,16
1205,20794.0,-0.7000000000000001,-0.7000000000000001,0.4,0.4,9.0,1.2000000000000002,29.800000000000004,-34.900000000000006,11.3,16
1206,20801.0,-0.7000000000000001,-0.2,0.7000000000000001,0.5,9.5,1.4000000000000001,28.400000000000002,-33.800000000000004,12.200000000000001,16
1207,20817.0,-0.4,0.5,1.6,0.8,10.200000000000001,2.2,28.900000000000002,-29.300000000000004,12.0,16
1208,20834.0,-0.1,0.7000000000000001,1.0,0.6000000000000001,10.4,2.2,25.300000000000004,-18.700000000000003,12.7,16
1209,20862.0,-0.30000000000000004,0.1,2.0,0.4,9.8,3.2,8.5,3.7000000000000006,12.0,16
1210,20869.0,-0.30000000000000004,0.1,2.0,0.4,9.8,3.2,3.4,7.400000000000001,12.0,16
1211,20884.0,-0.5,-0.2,2.5,0.30000000000000004,9.5,3.7,-5.500000000000001,10.9,13.000000000000002,16
1212,20907.0,-0.4,-0.7000000000000001,2.0,0.5,9.0,3.3000000000000003,-9.899999999999999,5.500000000000001,18.1,16
1213,20918.0,-0.4,-0.7000000000000001,2.0,0.5,9.0,3.3000000000000003,-8.8,2.3,20.7,16
1214,20937.0,0.7000000000000001,-0.6000000000000001,0.6000000000000001,1.6,9.1,2.0,-7.9,-6.600000000000001,21.8,16
1215,20955.0,1.2000000000000002,3.4000000000000004,-1.6,2.3000000000000003,13.100000000000001,-0.2,-6.4,-14.400000000000002,10.9,16
1216,20971.0,-1.7000000000000002,3.4000000000000004,-4.0,-0.7000000000000001,13.100000000000001,-2.6,-1.3,-35.5,1.3,16
1217,20984.0,-1.7000000000000002,3.4000000000000004,-4.0,-0.7000000000000001,13.100000000000001,-2.6,-1.1,-30.799999999999997,1.3,16
1218,21001.0,-4.6000000000000005,1.9000000000000001,-5.4,-3.5,11.5,-4.0,-3.3000000000000007,4.2,7.6,16
1219,21017.0,-2.4000000000000004,-1.0,-2.5,-1.4000000000000001,8.700000000000001,-1.1,8.4,32.7,6.699999999999999,16
1220,21043.0,1.3,0.0,0.8,2.4000000000000004,9.600000000000001,2.2,21.8,37.1,7.9,16
1221,21061.0,2.3000000000000003,0.5,0.30000000000000004,3.3000000000000003,10.200000000000001,1.6,22.700000000000003,-16.1,8.3,16
1222,21067.0,1.9000000000000001,0.7000000000000001,-2.2,3.0,10.3,-0.9,22.700000000000003,-16.1,8.3,16
1223,21086.0,1.0,0.6000000000000001,-3.2,2.2,10.200000000000001,-2.0,8.5,-27.9,9.0,16
1224,21105.0,0.6000000000000001,0.7000000000000001,-2.5,1.7000000000000002,10.3,-1.3,4.9,-18.8,8.2,16
1225,21117.0,0.4,0.5,-1.4000000000000001,1.6,10.200000000000001,-0.30000000000000004,8.0,-10.700000000000001,6.2,16
1226,21136.0,0.9,0.30000000000000004,-0.8,2.1,10.0,0.4,15.5,-2.7,3.9,16
1227,21160.0,1.4000000000000001,0.2,-0.6000000000000001,2.6,9.9,0.4,23.400000000000002,-0.6000000000000001,2.9,16
1228,21168.0,1.7000000000000002,0.0,-1.0,2.9000000000000004,9.700000000000001,0.1,23.400000000000002,-1.8000000000000003,2.7,16
1229,21184.0,1.5,-0.4,-1.3,2.8000000000000003,9.200000000000001,-0.30000000000000004,18.8,-6.4,3.8,16
1230,21201.0,1.5,-0.7000000000000001,-1.3,2.8000000000000003,9.0,-0.4,10.700000000000001,-5.1000000000000005,3.9,16
1231,21217.0,0.30000000000000004,-0.7000000000000001,0.0,2.5,8.9,0.1,8.3,-3.0,4.9,16
1232,21237.0,0.1,-0.7000000000000001,0.2,2.3000000000000003,8.9,0.30000000000000004,8.700000000000001,-1.3,5.1000000000000005,16
1233,21262.0,-0.1,-0.5,0.1,2.2,9.1,0.2,7.0,1.6,2.8,16
1234,21269.0,-0.1,-0.5,0.1,2.2,9.1,0.2,5.9,2.2,1.9,16
1235,21290.0,-0.4,-0.30000000000000004,0.4,1.9000000000000001,9.200000000000001,0.5,3.5,2.0,0.1,16
1236,21301.0,-0.4,-0.30000000000000004,0.4,1.9000000000000001,9.200000000000001,0.5,3.6000000000000005,2.1,-0.4,16
1237,21320.0,-0.30000000000000004,-0.2,0.1,1.9000000000000001,9.4,0.30000000000000004,3.6000000000000005,3.4,-1.4,16
1238,21334.0,-0.2,-0.1,0.0,2.0,9.4,0.2,3.2,3.9,-2.0,16
1239,21371.0,0.30000000000000004,-0.2,0.2,2.5,9.3,0.4,3.3000000000000007,4.4,0.30000000000000004,16
1240,21384.0,0.6000000000000001,0.0,0.30000000000000004,2.8000000000000003,9.5,0.5,3.0,4.2,1.3,16
1241,21401.0,0.8,0.30000000000000004,0.4,3.0,9.9,0.6000000000000001,0.7,-1.8000000000000003,5.300000000000001,16
1242,21419.0,0.6000000000000001,0.4,0.2,2.9000000000000004,10.0,0.4,-4.800000000000001,-7.9,7.1000000000000005,16
1243,21434.0,0.30000000000000004,0.0,0.30000000000000004,2.6,9.5,0.5,-14.5,-16.200000000000003,5.7,16
1244,21464.0,-0.7000000000000001,0.5,0.4,1.6,10.100000000000001,0.8,-29.1,-23.6,1.2000000000000002,16
1245,21472.0,-0.7000000000000001,0.5,0.4,1.6,10.100000000000001,0.8,-36.8,-26.700000000000003,-3.4,16
1246,21485.0,-1.4000000000000001,1.6,0.0,0.9,11.100000000000001,0.4,-38.400000000000006,-28.0,-4.800000000000001,16
1247,21503.0,-2.1,2.1,-0.6000000000000001,0.30000000000000004,11.600000000000001,-0.1,-34.400000000000006,-23.5,-5.0,16
1248,21518.0,-1.8,1.3,-1.1,0.6000000000000001,10.9,-0.5,-30.200000000000003,-16.200000000000003,-5.4,16
1249,21535.0,-1.5,0.30000000000000004,-1.5,0.8,9.8,-0.8,-14.700000000000001,1.0,-9.899999999999999,16
1250,21563.0,-2.3000000000000003,0.5,-2.7,-0.1,10.0,-2.0,-13.5,3.9,-13.200000000000003,16
1251,21573.0,-2.4000000000000004,0.8,-1.8,-0.2,10.4,-1.0,-16.8,10.4,-13.8,16
1252,21584.0,-2.4000000000000004,0.8,-1.8,-0.2,10.4,-1.0,-20.1,16.0,-14.700000000000001,16
1253,21601.0,-1.8,1.2000000000000002,-1.4000000000000001,0.30000000000000004,10.700000000000001,-0.6000000000000001,-50.2,57.800000000000004,-20.0,16
1254,21618.0,-0.7000000000000001,1.3,1.3,1.3,10.8,2.3000000000000003,-52.1,64.30000000000001,-20.900000000000002,16
1255,21637.0,-1.6,0.5,2.6,0.30000000000000004,10.0,3.8000000000000003,-33.800000000000004,32.0,-19.799999999999997,16
