,ms,accelX,accelY,accelZ,accelWithGX,accelWithGY,accelWithGZ,rotRateAlpha,rotRateBeta,rotRateGamma,interval
0,287.0,-0.011501133441925049,0.037204742431640625,-0.021719932556152344,-0.6528167724609375,2.71881103515625,8.946426391601562,-2.0020650495141377,-0.9608163709240337,0.3182321738092341,16
1,304.0,0.0006425976753234863,0.016273975372314453,0.11540508270263672,-0.603759765625,2.672149658203125,9.143829345703125,-1.1855022738607732,-0.936336972938708,0.03846762540551182,16
2,322.0,0.0006425976753234863,0.016273975372314453,0.11540508270263672,-0.710235595703125,2.7212066650390625,9.10076904296875,-1.1855022738607732,-0.936336972938708,0.03846762540551182,16
3,343.0,0.029168784618377686,-0.0024127960205078125,0.15701007843017578,-0.64923095703125,2.729583740234375,9.0313720703125,0.04371321068808161,-0.6626922740313171,-0.14512785948443094,16
4,363.0,-0.013899624347686768,0.04753851890563965,0.037181854248046875,-0.5762481689453125,2.6685638427734375,8.972747802734375,0.16698446482847173,-0.2561594146321582,0.5962481937854331,16
5,380.0,0.05460840463638306,-0.013108015060424805,-0.020458221435546875,-0.5762481689453125,2.6685638427734375,8.972747802734375,0.0,-0.8690186284790623,0.0708154013146922,16
6,397.0,0.048585474491119385,-0.012155294418334961,-0.019883155822753906,-0.6887054443359375,2.731964111328125,9.014617919921875,-0.23779986614316395,-2.143695852143522,-0.7308848827047244,16
7,416.0,-0.06671488285064697,0.05019402503967285,0.02029132843017578,-0.581024169921875,2.7343597412109375,9.060089111328125,-0.6478297823973694,-2.5257493135573554,0.029724983267895494,16
8,438.0,0.03377634286880493,0.0530543327331543,0.06185340881347656,-0.668365478515625,2.743927001953125,9.075637817382812,-1.5124770898076236,-1.5719270563434147,0.791209113454277,16
9,455.0,0.03632479906082153,0.07313013076782227,0.08716773986816406,-0.7186126708984375,2.7559051513671875,9.032562255859375,-0.6941657857267359,0.5306783777533107,0.6014937790680029,16
10,472.0,-0.09639227390289307,0.0702664852142334,0.025963783264160156,-0.7186126708984375,2.7559051513671875,9.032562255859375,0.058575702322029355,0.5429180767459736,0.5455408693872584,16
11,489.0,-0.09639227390289307,0.0702664852142334,0.025963783264160156,-0.7245941162109375,2.80853271484375,8.941635131835938,0.058575702322029355,0.5429180767459736,0.5455408693872584,16
12,506.0,-0.09376132488250732,0.06826305389404297,0.024829864501953125,-0.5774383544921875,2.7917938232421875,8.957199096679688,-0.5341754346083573,-0.8454134947074983,0.5796371737239621,16
13,522.0,-0.0997418761253357,0.11843752861022949,-0.06456851959228516,-0.5236053466796875,2.7331695556640625,9.034957885742188,-0.9232230097322836,-1.3778404008883323,1.015020752177255,16
14,539.0,0.042201340198516846,0.10106015205383301,-0.04844474792480469,-0.5606842041015625,2.7271881103515625,9.115127563476562,-1.3489896818341984,-0.9774273909855047,0.6347158191909449,16
15,557.0,0.046220481395721436,0.041251182556152344,0.10243988037109375,-0.587005615234375,2.7750396728515625,9.076828002929688,-1.250197825679134,-2.359639112942645,-0.1494991805532391,16
16,574.0,0.046220481395721436,0.041251182556152344,0.10243988037109375,-0.587005615234375,2.7750396728515625,9.076828002929688,-1.250197825679134,-2.359639112942645,-0.1494991805532391,16
17,591.0,0.014665365219116211,0.08853983879089355,0.061249732971191406,-0.5535125732421875,2.7917938232421875,9.074447631835938,-0.4231438794606299,-1.2397066551139944,0.2089491470890301,16
18,608.0,0.013131499290466309,0.0863945484161377,0.059238433837890625,-0.62530517578125,2.8001708984375,9.093582153320312,0.04458747490184324,0.47122841121751974,0.09879185615506443,16
19,624.0,0.04676175117492676,0.1008753776550293,0.0551300048828125,-0.590606689453125,2.801361083984375,9.328079223632812,-0.5953739295716715,0.7885863208129922,0.2858843979000537,16
20,641.0,0.009345054626464844,0.10557270050048828,0.2977876663208008,-0.6779327392578125,2.801361083984375,9.291000366210938,0.9206002170909986,-0.7763466218203293,-0.7116510700019686,16
21,658.0,0.009345054626464844,0.10557270050048828,0.2977876663208008,-0.683929443359375,2.7642669677734375,9.373550415039062,0.9206002170909986,-0.7763466218203293,-0.7116510700019686,16
22,675.0,-0.07626700401306152,0.09918546676635742,0.2544679641723633,-0.683929443359375,2.7642669677734375,9.373550415039062,1.8446974910370437,0.06994113710093057,-0.47647399650008954,16
23,692.0,-0.07371276617050171,0.044100284576416016,0.3231992721557617,-0.683929443359375,2.6984710693359375,9.349624633789062,4.077568292984252,0.9337141802974231,0.01923381270275591,16
24,710.0,-0.07371276617050171,0.044100284576416016,0.3231992721557617,-0.69110107421875,2.7116241455078125,9.257492065429688,4.077568292984252,0.9337141802974231,0.01923381270275591,16
25,727.0,-0.07491493225097656,-0.03326821327209473,0.20113563537597656,-0.6061553955078125,2.6577911376953125,9.086410522460938,5.785880566674481,0.45811444801109524,0.9686847488478884,16
26,745.0,0.009981870651245117,-0.09993720054626465,0.03387260437011719,-0.555908203125,2.6518096923828125,8.783721923828125,5.906529028173587,0.34183730758079817,1.0814648324231388,16
27,764.0,0.009981870651245117,-0.09993720054626465,0.03387260437011719,-0.555908203125,2.6518096923828125,8.783721923828125,5.906529028173587,0.34183730758079817,1.0814648324231388,16
28,782.0,0.05752772092819214,-0.1275501251220703,-0.24880599975585938,-0.5774383544921875,2.648223876953125,8.735855102539062,4.734140717519238,0.33571745808446674,0.12064846149910523,16
29,798.0,0.03700286149978638,-0.13948416709899902,-0.2866487503051758,-0.6540069580078125,2.7559051513671875,8.482223510742188,3.8511338616199895,1.3586065881855762,0.8943722906781497,16
30,823.0,-0.03535759449005127,-0.03843331336975098,-0.5262947082519531,-0.6420440673828125,2.759490966796875,8.367355346679688,1.6051490964663566,2.124462039440766,1.9522319893297246,16
31,843.0,-0.019814789295196533,-0.0348966121673584,-0.627349853515625,-0.6336669921875,2.8205108642578125,8.568359375,-1.2755514878782213,1.4932432771048676,1.9933224073765212,16
32,860.0,-0.009532511234283447,0.04561877250671387,-0.4115486145019531,-0.6360626220703125,2.8205108642578125,8.824386596679688,-6.323553058137885,0.15736755847709377,1.102447173553418,16
33,879.0,-0.009532511234283447,0.04561877250671387,-0.4115486145019531,-0.6360626220703125,2.867156982421875,8.824386596679688,-6.323553058137885,0.15736755847709377,1.102447173553418,16
34,895.0,-0.015053153038024902,0.12408161163330078,-0.1603679656982422,-0.6408538818359375,2.8874969482421875,9.061279296875,-6.665390365718683,-0.8261796820047423,0.8025745482331783,16
35,913.0,-0.022472858428955078,0.15860605239868164,0.06972885131835938,-0.581024169921875,2.9078369140625,9.17852783203125,-6.521136770448014,-1.0805905682093773,0.5656489463037759,16
36,933.0,-0.022472858428955078,0.15860605239868164,0.06972885131835938,-0.6695709228515625,2.924591064453125,9.402252197265625,-6.521136770448014,-1.0805905682093773,0.5656489463037759,16
37,950.0,-0.05810225009918213,0.2157299518585205,0.39124011993408203,-0.6169281005859375,2.913818359375,9.543441772460938,-3.6325678081795814,-1.3183904343525412,0.00786837792385469,16
38,967.0,-0.008427977561950684,0.20808982849121094,0.5206747055053711,-0.6169281005859375,2.913818359375,9.543441772460938,-1.6025263038250717,-1.0657280765754296,-0.07256392974221547,16
39,988.0,-0.010804176330566406,0.20722079277038574,0.5105352401733398,-0.5547027587890625,2.861175537109375,9.450119018554688,-0.5140673576918396,-0.9931641468332141,-0.311238060099141,16
40,1005.0,0.04842406511306763,0.15084314346313477,0.4101982116699219,-0.6420440673828125,2.882720947265625,9.180923461914062,1.3778404008883323,-0.8139399830120795,-0.30249541796152474,16
41,1022.0,-0.03954017162322998,0.16512441635131836,0.13983154296875,-0.7186126708984375,2.8755340576171875,9.054107666015625,2.0099334274379923,-0.4021615383303508,-0.4668570901487116,16
42,1039.0,-0.11496108770370483,0.15098071098327637,0.014048576354980469,-0.555908203125,2.78460693359375,8.893783569335938,1.3358757186277739,-0.3129865885266643,0.09966612036882606,16
43,1055.0,0.044840455055236816,0.05664324760437012,-0.14328765869140625,-0.6013641357421875,2.794189453125,8.714324951171875,0.5184386787606479,-1.2781742805195062,0.022730869557802437,16
44,1075.0,-0.004879951477050781,0.06637406349182129,-0.3181924819946289,-0.6420440673828125,2.7642669677734375,8.85430908203125,-1.452152859058071,-2.0064363705829455,-0.03147351169541876,16
45,1092.0,-0.01113802194595337,0.07080960273742676,-0.3152132034301758,-0.575042724609375,2.69488525390625,8.996673583984375,-2.7574293302041877,-2.885071905413386,-0.05682717389450609,16
46,1109.0,-0.05961376428604126,0.0483708381652832,-0.17549419403076172,-0.4757537841796875,2.685302734375,9.078033447265625,-3.50842228982543,-3.593225918560308,0.48609090285146744,16
47,1129.0,-0.002611517906188965,-0.011818170547485352,-0.03591632843017578,-0.449432373046875,2.714019775390625,9.2239990234375,-3.36941427983733,-3.678903811508948,0.5656489463037759,16
48,1151.0,0.10133081674575806,0.022217750549316406,0.1823406219482422,-0.6013641357421875,2.73675537109375,9.237152099609375,-2.1218392467994813,-3.0267027080427704,-1.3638521734681461,16
49,1167.0,-0.054701149463653564,0.04790902137756348,0.19124794006347656,-0.6013641357421875,2.73675537109375,9.237152099609375,-0.46336003329366504,-1.5964064543287402,-1.696946838911328,16
50,1185.0,-0.054701149463653564,0.04790902137756348,0.19124794006347656,-0.69110107421875,2.747528076171875,9.038543701171875,-0.46336003329366504,-1.5964064543287402,-1.696946838911328,16
51,1209.0,-0.14629381895065308,0.05649447441101074,-0.010075569152832031,-0.491302490234375,2.6936798095703125,8.939254760742188,-0.0681926086734073,-1.2676831099543666,-0.9477024077176093,16
52,1227.0,0.04708820581436157,0.009719371795654297,-0.10864734649658203,-0.650421142578125,2.725982666015625,9.121109008789062,-2.6079301496509486,-1.6243829091691124,-1.6436167218718685,16
53,1244.0,0.04708820581436157,0.009719371795654297,-0.10864734649658203,-0.6468353271484375,2.7176055908203125,9.158187866210938,-2.6079301496509486,-1.6243829091691124,-1.6436167218718685,16
54,1261.0,-0.11351943016052246,0.04789543151855469,0.07011604309082031,-0.6468353271484375,2.7176055908203125,9.158187866210938,-2.0973598488141554,-1.820218093051718,-2.1734208354114175,16
55,1278.0,-0.11145496368408203,0.04294848442077637,0.10439777374267578,-0.61572265625,2.7391510009765625,8.89019775390625,-0.7055312205056371,-1.6130174743902113,-1.6611020061471011,16
56,1297.0,-0.11125200986862183,0.04413294792175293,0.10241031646728516,-0.704254150390625,2.74871826171875,9.011032104492188,-0.472976939645043,-0.18884107017251253,-1.1190581936148891,16
57,1314.0,-0.16015565395355225,0.0789792537689209,-0.04318428039550781,-0.74493408203125,2.725982666015625,9.200057983398438,-1.5693042637021297,0.06207275917707588,-0.5534092473111132,16
58,1331.0,-0.16015565395355225,0.0789792537689209,-0.04318428039550781,-0.6528167724609375,2.7630767822265625,9.10076904296875,-1.5693042637021297,0.06207275917707588,-0.5534092473111132,16
59,1348.0,-0.19703590869903564,0.05807900428771973,0.14068126678466797,-0.521209716796875,2.753509521484375,9.070846557617188,-1.0211406016735862,-1.6611020061471011,-0.1905895986000358,16
60,1365.0,0.01591813564300537,0.08590364456176758,0.007717132568359375,-0.521209716796875,2.753509521484375,9.070846557617188,-1.1767596317231568,-2.5747081095280064,-1.2265926919075698,16
61,1382.0,0.01591813564300537,0.08590364456176758,0.007717132568359375,-0.656402587890625,2.7331695556640625,9.116317749023438,-1.1767596317231568,-2.5747081095280064,-1.2265926919075698,16
62,1401.0,-0.12313103675842285,0.06438946723937988,0.05023193359375,-0.6599884033203125,2.685302734375,9.146224975585938,0.2832616052587688,-0.8235568893634575,-0.5140673576918396,16
63,1423.0,-0.12469452619552612,0.015556573867797852,0.07797431945800781,-0.52838134765625,2.7116241455078125,8.990692138671875,0.12676831099543664,-0.4231438794606299,0.21944031765416966,16
64,1440.0,0.003741323947906494,0.0419316291809082,-0.07593822479248047,-0.557098388671875,2.685302734375,8.975143432617188,-1.1251780431112206,-1.604274832252595,0.7300106184909628,16
65,1456.0,-0.029468894004821777,0.01837921142578125,-0.09019088745117188,-0.62530517578125,2.735565185546875,9.104354858398438,-1.4136852336525592,-2.1183421899444346,0.2692733778385827,16
66,1473.0,-0.09920364618301392,0.07091665267944336,0.036459922790527344,-0.62530517578125,2.735565185546875,9.104354858398438,-1.8621827753122764,-0.9826729762680745,0.3558255350009843,16
67,1491.0,-0.09818440675735474,0.07324457168579102,0.03408527374267578,-0.5822296142578125,2.702056884765625,9.127090454101562,-1.535207959365426,-0.009616906351377954,0.8427907020662134,16
68,1508.0,-0.05437815189361572,0.04230380058288574,0.05411815643310547,-0.5953826904296875,2.6637725830078125,9.0911865234375,-1.395325685163565,-0.16436167218718684,0.67493197302398,16
69,1524.0,-0.06661319732666016,0.007373332977294922,0.01663684844970703,-0.5714569091796875,2.67694091796875,9.17852783203125,-1.3586065881855762,-0.2150689965853615,0.5595290968074446,16
70,1542.0,-0.04278022050857544,0.022372007369995117,0.1003122329711914,-0.603759765625,2.6625823974609375,9.19049072265625,-0.5717687958001074,-0.4109041804679671,0.6819260867340731,16
71,1560.0,-0.07400482892990112,0.007896900177001953,0.10906696319580078,-0.5116424560546875,2.702056884765625,8.964370727539062,0.4126527088954904,0.01923381270275591,0.6434584613285612,16
72,1579.0,0.01791989803314209,0.045356035232543945,-0.11357879638671875,-0.5762481689453125,2.723602294921875,8.9715576171875,0.08480362873487832,0.4388806353083393,0.10228891301011096,16
73,1597.0,0.017537415027618408,0.044943809509277344,-0.11066532135009766,-0.632476806640625,2.720001220703125,9.285003662109375,-0.7308848827047244,-0.3977902172615426,-0.2666505851972978,16
74,1615.0,-0.046080946922302246,0.06659626960754395,-0.10119438171386719,-0.5834197998046875,2.70684814453125,9.251510620117188,-0.7597356017588583,0.042838946474319975,-0.09966612036882606,16
75,1631.0,-0.09810429811477661,0.06043124198913574,0.20667362213134766,-0.5714569091796875,2.759490966796875,8.859085083007812,1.3839602503846637,1.0421229428038654,0.2010807691651754,16
76,1649.0,-0.025688230991363525,0.08501434326171875,-0.21410751342773438,-0.6599884033203125,2.759490966796875,8.781326293945312,1.6383711365892986,2.048401052843504,0.8086943977295097,16
77,1666.0,-0.025688230991363525,0.08501434326171875,-0.21410751342773438,-0.6599884033203125,2.7977752685546875,8.781326293945312,1.6383711365892986,2.048401052843504,0.8086943977295097,16
78,1683.0,-0.10682326555252075,0.08070731163024902,-0.2829294204711914,-0.626495361328125,2.741546630859375,9.057693481445312,-0.2421711872119721,1.7581453338746422,1.0141464879634932,16
79,1701.0,-0.06625169515609741,0.06552004814147949,-0.000888824462890625,-0.603759765625,2.76068115234375,9.165374755859375,-2.1952774407554583,-0.22905722400554762,1.6147660028177346,16
80,1718.0,-0.06625169515609741,0.06552004814147949,-0.000888824462890625,-0.566680908203125,2.75469970703125,9.129470825195312,-2.1952774407554583,-0.22905722400554762,1.6147660028177346,16
81,1735.0,-0.008651793003082275,0.08227729797363281,0.06343460083007812,-0.6133270263671875,2.71881103515625,9.318511962890625,-1.4792550496846815,0.09092347823120975,2.1751693638389407,16
82,1751.0,-0.008651793003082275,0.08227729797363281,0.06343460083007812,-0.6133270263671875,2.71881103515625,9.318511962890625,-1.4792550496846815,0.09092347823120975,2.1751693638389407,16
83,1769.0,-0.05637991428375244,0.04821610450744629,0.2492532730102539,-0.49847412109375,2.708038330078125,9.2598876953125,-0.5333011703945956,0.023605133771564066,2.3893640962105405,16
84,1786.0,0.055918097496032715,0.033768415451049805,0.18712615966796875,-0.5068511962890625,2.7044525146484375,9.082809448242188,1.2309640129763781,0.2823873410450072,2.1428215879297605,16
85,1803.0,0.055918097496032715,0.033768415451049805,0.18712615966796875,-0.46856689453125,2.714019775390625,8.969161987304688,1.2309640129763781,0.2823873410450072,2.1428215879297605,16
86,1823.0,0.07906866073608398,0.033133745193481445,-0.10130119323730469,-0.415924072265625,2.6996612548828125,8.951217651367188,0.622476120198282,-1.0631052839341446,1.195119180212151,16
87,1840.0,0.1283993124961853,0.017040252685546875,-0.11780643463134766,-0.509246826171875,2.737945556640625,9.0074462890625,0.4519945985147638,0.01923381270275591,0.6522011034661775,16
88,1857.0,0.03634554147720337,0.05332231521606445,-0.06047534942626953,-0.509246826171875,2.737945556640625,9.0074462890625,0.6128592138469041,1.537830752006711,0.5254327924707409,16
89,1874.0,0.04107469320297241,0.05055832862854004,-0.0589447021484375,-0.5367584228515625,2.7212066650390625,8.905746459960938,1.0377516217350573,2.706722005806013,0.8253054177909808,16
90,1891.0,0.019396066665649414,0.03168439865112305,-0.15829181671142578,-0.575042724609375,2.741546630859375,8.910537719726562,0.2561594146321582,2.291446504269238,0.7693525081102363,16
91,1908.0,-0.013934969902038574,0.0522613525390625,-0.15204334259033203,-0.5295867919921875,2.7212066650390625,8.930877685546875,-0.8838811201130101,1.8027328087764853,0.7737238291790445,16
92,1925.0,0.033430635929107666,0.03417468070983887,-0.12880420684814453,-0.5702667236328125,2.73077392578125,9.008636474609375,-1.6034005680388332,0.6146077422744274,0.1005403845825877,16
93,1943.0,-0.005556225776672363,0.046652793884277344,-0.05075836181640625,-0.5882110595703125,2.6996612548828125,9.291000366210938,-1.5675557352746063,0.41177844468172875,-0.5376724914634038,16
94,1959.0,-0.02116525173187256,0.017755746841430664,0.22449207305908203,-0.5882110595703125,2.6996612548828125,9.291000366210938,-0.4074071236129206,0.5263070566845025,-0.6976628425817825,16
95,1978.0,-0.01874333620071411,0.016444921493530273,0.2186126708984375,-0.6229095458984375,2.74871826171875,9.262283325195312,1.147908912669023,0.387299046696403,-1.0158950163910165,16
96,1998.0,-0.05094724893569946,0.06034421920776367,0.1856708526611328,-0.5894012451171875,2.75469970703125,9.032562255859375,1.5675557352746063,-0.2255601671505011,-1.0805905682093773,16
97,2015.0,-0.017262518405914307,0.06218767166137695,-0.042166709899902344,-0.6348724365234375,2.7223968505859375,9.0194091796875,0.3680652339936471,-0.7632326586139049,-1.4530271232718326,16
98,2041.0,-0.06160879135131836,0.029439687728881836,-0.05112171173095703,-0.5068511962890625,2.7116241455078125,9.025390625,-0.48609090285146744,-0.8218083609359342,-1.442535952706693,16
99,2059.0,0.06258100271224976,0.019318580627441406,-0.04436016082763672,-0.5068511962890625,2.7116241455078125,9.025390625,-0.24129692299821046,-1.5553160362819436,-1.3839602503846637,16
100,2076.0,0.058119356632232666,0.02051997184753418,-0.043816566467285156,-0.5894012451171875,2.74273681640625,8.875839233398438,-0.910109046525859,-1.4722609359745884,-1.7126835947590373,16
101,2093.0,-0.0248754620552063,0.0536808967590332,-0.1891012191772461,-0.6001739501953125,2.714019775390625,9.018203735351562,-1.5894123406186471,-0.33571745808446674,-1.449530066416786,16
102,2111.0,-0.034568071365356445,0.02817249298095703,-0.04659080505371094,-0.515228271484375,2.684112548828125,9.141448974609375,-1.2869169226571224,-0.29200424739638514,-0.9013664043882427,16
103,2129.0,0.04895395040512085,0.0016715526580810547,0.07352828979492188,-0.6528167724609375,2.6757354736328125,9.176132202148438,-1.1680169895855406,-0.4222696152468683,-1.4460330095617395,16
104,2145.0,-0.0854296088218689,-0.003480195999145508,0.1043539047241211,-0.689910888671875,2.7044525146484375,9.213226318359375,-0.9774273909855047,0.010491170565139585,-1.8910334943664102,16
105,2162.0,-0.1170390248298645,0.02645730972290039,0.1370830535888672,-0.689910888671875,2.7044525146484375,9.213226318359375,-0.2928785116101468,0.5778886452964388,-1.5719270563434147,16
106,2180.0,-0.11248922348022461,0.025684118270874023,0.13336753845214844,-0.651611328125,2.672149658203125,9.250320434570312,0.5210614714019327,-0.5009533944854152,-1.5728013205571763,16
107,2196.0,-0.07367175817489624,-0.008225440979003906,0.16615676879882812,-0.6001739501953125,2.7164154052734375,8.9835205078125,1.09807585248461,-1.7782534107911598,-2.107851019379295,16
108,2212.0,-0.025046229362487793,0.03451800346374512,-0.09791088104248047,-0.67315673828125,2.7511138916015625,8.801666259765625,-0.3838019898413565,-2.3141773738270404,-2.7775374071207053,16
109,2231.0,-0.09914898872375488,0.07113265991210938,-0.27337074279785156,-0.6240997314453125,2.708038330078125,8.940444946289062,-2.241613444084825,-2.2538531430774875,-2.630661019208751,16
110,2251.0,-0.052304744720458984,0.034238338470458984,-0.1331329345703125,-0.626495361328125,2.68292236328125,9.164169311523438,-2.842232958939066,-1.9399922903370617,-2.1305818889370975,16
111,2268.0,-0.055618226528167725,0.015099048614501953,0.08608818054199219,-0.7162322998046875,2.69488525390625,9.14263916015625,-1.7100608021177524,-1.2012390297084825,-2.1305818889370975,16
112,2285.0,-0.05462956428527832,0.01818680763244629,0.08263206481933594,-0.62530517578125,2.672149658203125,9.074447631835938,-0.7824664713166608,-0.2570336788459198,-1.3682234945369542,16
113,2302.0,-0.1392931342124939,0.03088831901550293,0.05900859832763672,-0.668365478515625,2.6529998779296875,9.052902221679688,-0.3217292306642806,0.5455408693872584,-0.45024607008724055,16
114,2319.0,-0.04471135139465332,0.009386301040649414,-0.009209632873535156,-0.668365478515625,2.6529998779296875,9.052902221679688,-0.6950400499404975,0.7238907689946315,-1.3131448490699715,16
115,2337.0,-0.08366698026657104,-0.0072193145751953125,-0.03046131134033203,-0.7473297119140625,2.6673583984375,9.168960571289062,-0.8821325916854869,-0.26053073570096635,-1.5011116550287225,16
116,2354.0,-0.15334665775299072,0.01112508773803711,0.07883644104003906,-0.7473297119140625,2.6398468017578125,9.168960571289062,-0.49133648813403724,-0.8069458693019864,-0.24042265878444882,16
117,2372.0,-0.15071576833724976,-0.015382528305053711,0.07637977600097656,-0.6049652099609375,2.608734130859375,9.056503295898438,0.11103155514772728,-0.6469555181836077,-0.42926372895696135,16
118,2389.0,-0.15071576833724976,-0.015382528305053711,0.07637977600097656,-0.7126312255859375,2.6529998779296875,8.885406494140625,0.11103155514772728,-0.6469555181836077,-0.42926372895696135,16
119,2409.0,-0.11699610948562622,0.0016865730285644531,-0.20149612426757812,-0.67315673828125,2.6912841796875,8.912933349609375,-1.4678896149057803,-2.0361613538508414,-1.8140982435553867,16
120,2431.0,-0.0798652172088623,0.04328513145446777,-0.17072200775146484,-0.5822296142578125,2.67694091796875,9.039749145507812,-1.734540200103078,-2.4033523236307266,-1.4932432771048676,16
121,2449.0,0.00470125675201416,0.03384542465209961,-0.044742584228515625,-0.5822296142578125,2.67694091796875,9.039749145507812,-2.502144179785791,-3.0573019555244274,-1.1898735949295813,16
122,2465.0,-0.002413034439086914,0.04023289680480957,-0.046077728271484375,-0.5642852783203125,2.6805267333984375,9.215621948242188,-2.9480189288042236,-3.3003474069501615,-2.1130966046618647,16
123,2485.0,0.017642557621002197,0.08110713958740234,0.2013864517211914,-0.5702667236328125,2.6805267333984375,9.22637939453125,-1.1435375916002148,-0.6758062372377416,-2.4776647818004656,16
124,2502.0,0.017642557621002197,0.08110713958740234,0.2013864517211914,-0.74493408203125,2.678131103515625,9.006240844726562,-1.1435375916002148,-0.6758062372377416,-2.4776647818004656,16
125,2519.0,-0.16792535781860352,0.050560712814331055,-0.09470081329345703,-0.75689697265625,2.684112548828125,8.92608642578125,-0.40128727411658915,-0.7885863208129922,-2.459305233311471,16
126,2536.0,-0.16792535781860352,0.050560712814331055,-0.09470081329345703,-0.75689697265625,2.684112548828125,8.92608642578125,-0.40128727411658915,-0.7885863208129922,-2.459305233311471,16
127,2553.0,-0.17653965950012207,0.0580904483795166,-0.1710033416748047,-0.7820281982421875,2.6230926513671875,9.116317749023438,-1.7266718221792234,-1.7502769559507876,-1.9303753839856836,16
128,2571.0,-0.20024925470352173,0.005988121032714844,0.019745826721191406,-0.710235595703125,2.5812225341796875,9.2479248046875,-1.6672218556434324,-2.008184899010469,-0.4983306018441303,16
129,2587.0,-0.20024925470352173,0.005988121032714844,0.019745826721191406,-0.596588134765625,2.5704498291015625,9.222793579101562,-1.6672218556434324,-2.008184899010469,-0.4983306018441303,16
130,2605.0,-0.02155482769012451,-0.03948783874511719,0.11654281616210938,-0.695892333984375,2.618316650390625,9.072052001953125,-0.10753449829268075,-2.5939419222307625,-1.5290881098690945,16
131,2621.0,-0.02155482769012451,-0.03948783874511719,0.11654281616210938,-0.6934967041015625,2.654205322265625,8.808837890625,-0.10753449829268075,-2.5939419222307625,-1.5290881098690945,16
132,2638.0,-0.12376952171325684,0.00877833366394043,-0.03382587432861328,-0.6934967041015625,2.654205322265625,8.808837890625,-0.18884107017251253,-3.1071350157088404,-1.499363126601199,16
133,2656.0,-0.12717431783676147,0.05203080177307129,-0.2901153564453125,-0.590606689453125,2.624298095703125,8.952407836914062,-2.9646299488656944,-0.943331086648801,-0.7929576418818003,16
134,2673.0,-0.12717431783676147,0.05203080177307129,-0.2901153564453125,-0.6240997314453125,2.5704498291015625,9.16656494140625,-2.9646299488656944,-0.943331086648801,-0.7929576418818003,16
135,2690.0,-0.06005984544754028,-0.015404224395751953,0.06329727172851562,-0.6755523681640625,2.590789794921875,9.14862060546875,-2.469796403876611,-0.622476120198282,-1.409313912583751,16
136,2709.0,-0.11090505123138428,0.010804176330566406,0.04339027404785156,-0.6193084716796875,2.618316650390625,9.006240844726562,-1.8106011867003402,-0.22993148821930925,-1.3542352671167681,16
137,2732.0,-0.052276611328125,0.04264712333679199,-0.09770870208740234,-0.6934967041015625,2.6494140625,9.058883666992188,-2.169049514342609,0.1223969899266285,-1.383085986170902,16
138,2750.0,-0.12173908948898315,0.0775904655456543,-0.04540443420410156,-0.6934967041015625,2.6494140625,9.058883666992188,-2.224128159809592,0.11802566885782034,-1.0735964544992842,16
139,2766.0,-0.11770856380462646,0.08153820037841797,-0.04582405090332031,-0.6719512939453125,2.624298095703125,9.14862060546875,-2.352644999232552,-0.20282929759269866,-0.9984097321157839,16
140,2785.0,-0.09327936172485352,0.06150627136230469,0.04083251953125,-0.620513916015625,2.6470184326171875,9.19647216796875,-2.642900718201414,-0.2308057524330709,-1.1208067220424125,16
141,2803.0,-0.040083229541778564,0.08889198303222656,0.08428955078125,-0.680328369140625,2.68890380859375,9.263473510742188,-2.6079301496509486,0.027976454840372228,-1.2344610698314247,16
142,2821.0,-0.09623771905899048,0.13294243812561035,0.14551925659179688,-0.5714569091796875,2.6278839111328125,9.348419189453125,-1.7030666884076593,-0.03584483276422692,-1.2230956350525233,16
143,2839.0,-0.05750167369842529,0.08885955810546875,0.2641029357910156,-0.5714569091796875,2.6278839111328125,9.348419189453125,-0.17834989960737296,0.2526623577771117,-1.2204728424112385,16
144,2856.0,0.01748102903366089,0.06466174125671387,0.21635055541992188,-0.627685546875,2.637451171875,9.174942016601562,1.6978211031250896,-0.29987262532023984,-1.6497365713681997,16
145,2872.0,0.01748102903366089,0.06466174125671387,0.21635055541992188,-0.6719512939453125,2.6446380615234375,9.018203735351562,1.6978211031250896,-0.29987262532023984,-1.6497365713681997,16
146,2890.0,-0.03778946399688721,0.06963014602661133,0.043837547302246094,-0.737762451171875,2.6697540283203125,9.037353515625,1.6392454008030601,-0.04983306018441303,-1.5526932436406586,16
147,2907.0,-0.13842839002609253,0.09110283851623535,-0.08622932434082031,-0.7186126708984375,2.6015625,9.028976440429688,0.7964546987368468,0.5245585282569792,-0.6006195148542413,16
148,2924.0,-0.13842839002609253,0.09110283851623535,-0.08622932434082031,-0.6540069580078125,2.5417327880859375,9.10675048828125,0.7964546987368468,0.5245585282569792,-0.6006195148542413,16
149,2940.0,-0.05209618806838989,-0.03835940361022949,-0.013430595397949219,-0.6540069580078125,2.5417327880859375,9.10675048828125,0.32872334437437367,-1.2493235614653724,-0.1311396320642448,16
150,2957.0,-0.05209618806838989,-0.03835940361022949,-0.013430595397949219,-0.692291259765625,2.554901123046875,9.11871337890625,0.32872334437437367,-1.2493235614653724,-0.1311396320642448,16
151,2974.0,-0.0543140172958374,-0.03808164596557617,-0.0130767822265625,-0.683929443359375,2.5154266357421875,9.147430419921875,0.31211232431290264,-1.720551972682892,-0.3916703677652112,16
152,2990.0,-0.08802402019500732,-0.06612205505371094,0.027489662170410156,-0.7305755615234375,2.5931854248046875,8.893783569335938,1.0709736618579992,-1.015020752177255,0.20982341130279172,16
153,3007.0,-0.08802402019500732,-0.06612205505371094,0.027489662170410156,-0.749725341796875,2.5333709716796875,9.0313720703125,1.0709736618579992,-1.015020752177255,0.20982341130279172,16
154,3025.0,-0.1438388228416443,-0.04733729362487793,-0.07981395721435547,-0.6300811767578125,2.497467041015625,9.084014892578125,-0.6023680432817645,1.9085187786416429,1.2991566216497854,16
155,3041.0,-0.1438388228416443,-0.04733729362487793,-0.07981395721435547,-0.6300811767578125,2.497467041015625,9.084014892578125,-0.6023680432817645,1.9085187786416429,1.2991566216497854,16
156,3060.0,-0.02080148458480835,-0.0796651840209961,-0.026594161987304688,-0.7592926025390625,2.4831085205078125,9.032562255859375,-0.5289298493257875,0.8576531937001611,1.0631052839341446,16
157,3077.0,-0.15006768703460693,-0.08801054954528809,-0.07583427429199219,-0.7880096435546875,2.55609130859375,9.110336303710938,-0.12589404678167504,-2.377124397217878,-0.10403744143763423,16
158,3093.0,-0.15006768703460693,-0.08801054954528809,-0.07583427429199219,-0.6528167724609375,2.52618408203125,9.027786254882812,-0.12589404678167504,-2.377124397217878,-0.10403744143763423,16
159,3110.0,-0.048354148864746094,-0.04337811470031738,-0.07911396026611328,-0.6121368408203125,2.519012451171875,8.975143432617188,0.06644408024588404,-1.6523593640094847,0.9179774244497138,16
160,3127.0,-0.048354148864746094,-0.04337811470031738,-0.07911396026611328,-0.6121368408203125,2.519012451171875,8.842330932617188,0.06644408024588404,-1.6523593640094847,0.9179774244497138,16
161,3144.0,-0.012648582458496094,-0.04926562309265137,-0.12840557098388672,-0.6336669921875,2.5572967529296875,8.842330932617188,-0.10578596986515748,-1.7861217887150145,1.071847926071761,16
162,3161.0,-0.0449337363243103,-0.0026297569274902344,-0.24958515167236328,-0.614532470703125,2.5417327880859375,8.8626708984375,-2.9217910023913745,-1.9111415712829278,1.7188034442553688,16
163,3179.0,-0.0449337363243103,-0.0026297569274902344,-0.24958515167236328,-0.491302490234375,2.5453338623046875,8.984710693359375,-2.9217910023913745,-1.9111415712829278,1.7188034442553688,16
164,3197.0,0.07836496829986572,0.0032722949981689453,-0.10388660430908203,-0.3608856201171875,2.5632781982421875,8.831573486328125,-3.355426052417144,-3.846762540551181,1.4145594978663207,16
165,3218.0,0.19029873609542847,0.030042409896850586,-0.2532987594604492,-0.292694091796875,2.6589813232421875,8.782516479492188,-4.026860968586077,-5.465025600223963,0.3191064380229957,16
166,3235.0,0.24162918329238892,0.1382150650024414,-0.30535030364990234,-0.292694091796875,2.6589813232421875,8.782516479492188,-5.8173540783699,-6.571844094846189,-1.492369012891106,16
167,3253.0,0.22613167762756348,0.15809845924377441,-0.3102750778198242,-0.157501220703125,2.7212066650390625,8.928482055664062,-9.471778491893522,-5.421312389535881,-3.008343159553776,16
168,3269.0,0.3534327745437622,0.24709820747375488,-0.1714305877685547,-0.39678955078125,2.6553955078125,9.761184692382812,-11.137251819109432,-1.2877911868708842,-4.888011219141285,16
169,3287.0,0.12000805139541626,0.20673084259033203,0.6510963439941406,-0.5989837646484375,2.5572967529296875,10.343841552734375,-8.1848615692364,3.434109831655691,-5.1092000652229785,16
170,3307.0,-0.06418561935424805,0.12161612510681152,1.2248115539550781,-0.6193084716796875,2.5058441162109375,10.072250366210938,-1.4320447821415534,7.05968352612518,-5.103080215726647,16
171,3325.0,-0.059377193450927734,0.06583595275878906,0.950901985168457,-0.7880096435546875,2.5393524169921875,9.409439086914062,5.013031001709199,8.8388112011301,-4.982431754227542,16
172,3345.0,-0.19855886697769165,0.08353066444396973,0.2925262451171875,-0.948333740234375,2.47833251953125,9.063674926757812,7.136618776936203,9.77602243828257,-5.23334558357713,16
173,3362.0,-0.30696433782577515,-0.00936579704284668,-0.042624473571777344,-0.9279937744140625,2.4687652587890625,8.898574829101562,4.97631190473121,5.934505483013959,-2.452311119601378,16
174,3378.0,-0.27146363258361816,-0.02950906753540039,-0.20278549194335938,-0.878936767578125,2.43048095703125,8.8148193359375,3.3449348818520046,3.330072390218057,-1.5107285613801003,16
175,3398.0,-0.27146363258361816,-0.02950906753540039,-0.20278549194335938,-1.0009765625,2.4221038818359375,8.930877685546875,3.3449348818520046,3.330072390218057,-1.5107285613801003,16
176,3419.0,-0.33273494243621826,-0.08327698707580566,-0.16542339324951172,-0.9052581787109375,2.3909912109375,9.255096435546875,-0.09092347823120975,0.6793032940927881,0.6032423074955262,16
177,3436.0,-0.23535197973251343,-0.11565470695495605,0.1585531234741211,-0.9052581787109375,2.3909912109375,9.255096435546875,1.3489896818341984,0.1494991805532391,1.0447457354451504,16
178,3452.0,-0.23490631580352783,-0.12193608283996582,0.15961265563964844,-0.8382568359375,2.5118255615234375,9.034957885742188,3.576614898498837,0.21419473237159986,2.2127627250306907,16
179,3470.0,-0.16816025972366333,-0.009281396865844727,-0.05804634094238281,-0.7880096435546875,2.6230926513671875,8.787307739257812,2.1926546481141735,0.4957078092028454,3.28898197217126,16
180,3486.0,-0.11936116218566895,0.09789419174194336,-0.3033628463745117,-0.8047637939453125,2.584808349609375,8.91412353515625,-0.027976454840372228,0.04983306018441303,4.175485884925555,16
181,3506.0,-0.13996946811676025,0.060970306396484375,-0.1764822006225586,-0.813140869140625,2.584808349609375,9.182113647460938,-1.8648055679535613,-0.9966612036882606,4.671193694128401,16
182,3530.0,-0.09534728527069092,0.042881011962890625,0.17861270904541016,-0.7461395263671875,2.56207275390625,9.273040771484375,-0.2517880935633501,-1.0998243809121333,5.729053392779975,16
183,3549.0,-0.10177117586135864,0.041312217712402344,0.17764949798583984,-0.7521209716796875,2.5883941650390625,9.08880615234375,0.4310122573844846,-0.7868377923854689,6.186293576577309,16
184,3566.0,-0.10177117586135864,0.041312217712402344,0.17764949798583984,-0.7365570068359375,2.5931854248046875,8.96197509765625,0.4310122573844846,-0.7868377923854689,6.186293576577309,16
185,3583.0,-0.10717624425888062,0.07200288772583008,-0.1339397430419922,-0.7186126708984375,2.6003570556640625,9.064865112304688,-1.3350014544140123,-2.0894914708903007,6.483543409256264,16
186,3600.0,-0.10066443681716919,0.08098077774047852,-0.03232002258300781,-0.6576080322265625,2.5812225341796875,9.165374755859375,-1.2082331434185756,-3.2242864203528994,6.584083793838851,16
187,3622.0,-0.05480766296386719,0.06323719024658203,0.0663766860961914,-0.575042724609375,2.5979766845703125,9.068466186523438,-0.9083605180983357,-4.856537707445867,5.976470165274518,16
188,3640.0,0.0091325044631958,0.0816354751586914,-0.03215599060058594,-0.575042724609375,2.5979766845703125,9.068466186523438,-1.3253845480626343,-6.093621569918576,4.830309781033018,16
189,3658.0,-0.00862663984298706,0.08484387397766113,-0.03412055969238281,-0.6217041015625,2.6685638427734375,8.993087768554688,-1.9382437619095385,-4.836429630529349,3.923697791362205,16
190,3676.0,-0.06830930709838867,0.1595911979675293,-0.11115550994873047,-0.527191162109375,2.6553955078125,9.170150756835938,-2.19090611968665,-3.141231320045544,3.4070076410290806,16
191,3693.0,0.01522207260131836,0.14977622032165527,0.06384563446044922,-0.4302825927734375,2.5764312744140625,9.265869140625,-1.200364765494721,-3.405259112601557,2.524000785129832,16
192,3710.0,0.10093456506729126,0.07201099395751953,0.15778636932373047,-0.5020599365234375,2.6817169189453125,8.989501953125,-0.1818469564624195,-3.550386972085988,1.4390388958516465,16
193,3727.0,0.020311176776885986,0.17801928520202637,-0.11896610260009766,-0.52001953125,2.6529998779296875,9.20843505859375,-1.0875846819194703,-2.4514368553876165,0.5936254011441482,16
194,3744.0,-0.0008842349052429199,0.14862704277038574,0.0960540771484375,-0.4948883056640625,2.4747467041015625,9.67144775390625,-1.6453652502993916,0.27626749154867575,0.3846762540551181,16
195,3762.0,0.0009958148002624512,0.1473078727722168,0.09271907806396484,-0.5343780517578125,2.51422119140625,9.483612060546875,-0.5193129429744094,1.152280233737831,-0.3890475751239263,16
196,3778.0,-0.010129988193511963,-0.00667119026184082,0.3681783676147461,-0.52239990234375,2.596771240234375,8.96197509765625,5.841833476355226,-0.06731834445964567,-1.5054829760975306,16
197,3795.0,-0.010129988193511963,-0.00667119026184082,0.3681783676147461,-0.63128662109375,2.6159210205078125,8.7550048828125,5.841833476355226,-0.06731834445964567,-1.5054829760975306,16
198,3811.0,0.003032207489013672,0.06118631362915039,-0.1487274169921875,-0.63128662109375,2.6159210205078125,8.7550048828125,5.108325801009217,0.2517880935633501,-1.0709736618579992,16
199,3830.0,-0.10529834032058716,0.07010173797607422,-0.3513631820678711,-0.662384033203125,2.6159210205078125,8.829177856445312,2.443568477463762,-0.7396275248423407,-0.9188516886634753,16
200,3846.0,-0.10916119813919067,0.06641626358032227,-0.3491191864013672,-0.5583038330078125,2.613525390625,8.927276611328125,0.16960725746975663,-2.858843979000537,-0.29724983267895494,16
201,3863.0,-0.053908705711364746,0.06944990158081055,-0.1775970458984375,-0.5307769775390625,2.6219024658203125,9.050506591796875,-1.7109350663315142,-3.4279899821593594,0.01661102006147101,16
202,3879.0,-0.053908705711364746,0.06944990158081055,-0.1775970458984375,-0.590606689453125,2.55010986328125,9.201263427734375,-1.7109350663315142,-3.4279899821593594,0.01661102006147101,16
203,3900.0,-0.03330421447753906,0.0819849967956543,-0.05577278137207031,-0.457794189453125,2.5465240478515625,9.123489379882812,-1.6768387619948104,-1.8613085110985148,0.017485284275232642,16
204,3925.0,0.03299146890640259,0.012592792510986328,0.014660835266113281,-0.457794189453125,2.5465240478515625,9.123489379882812,-0.5350496988221188,-1.202113293922244,0.8244311535772191,16
205,3943.0,0.028155148029327393,0.01484370231628418,0.013703346252441406,-0.44464111328125,2.6003570556640625,8.892593383789062,-1.2606889962442736,-2.01955033378937,0.29724983267895494,16
206,3959.0,0.036201685667037964,0.07428550720214844,-0.21816349029541016,-0.533172607421875,2.590789794921875,9.061279296875,-3.1831960023061026,-1.6785872904223338,-0.25528515041839656,16
207,3976.0,-0.053865671157836914,0.07251858711242676,-0.05159473419189453,-0.5953826904296875,2.53814697265625,9.539840698242188,-2.842232958939066,0.08655215716240158,-0.7151481268570151,16
208,3993.0,-0.1128087043762207,0.023639917373657227,0.4242401123046875,-0.590606689453125,2.5596923828125,9.416610717773438,0.018359548488994275,1.6252571733828742,-0.6452069897560845,16
209,4010.0,-0.10251641273498535,0.04157066345214844,0.30095481872558594,-0.545135498046875,2.6314697265625,8.948822021484375,2.6201698486436116,1.8525658689608986,-0.5464151336010201,16
210,4027.0,-0.051373839378356934,0.10721635818481445,-0.1642751693725586,-0.545135498046875,2.6314697265625,8.948822021484375,1.7625166549434503,1.5701785279158913,-1.8543143973884217,16
211,4045.0,-0.04537370800971985,0.10613679885864258,-0.16309833526611328,-0.6815338134765625,2.6996612548828125,9.00146484375,-1.048242792300197,1.5588130931369901,-2.562468410535344,16
212,4062.0,-0.1752038598060608,0.17713236808776855,-0.11065387725830078,-0.69110107421875,2.618316650390625,9.267059326171875,-1.3411213039103438,1.4652668222644953,-2.3001891464068542,16
213,4079.0,-0.34171533584594727,0.1613912582397461,0.09662914276123047,-0.69110107421875,2.618316650390625,9.267059326171875,-0.5735173242276307,1.4775065212571583,-2.0518981096985507,16
214,4096.0,-0.1716746687889099,0.09775972366333008,0.15366172790527344,-0.6719512939453125,2.6637725830078125,9.054107666015625,0.6845488793753579,1.3795889293158554,-2.279206805276575,16
215,4113.0,-0.1562817096710205,0.1464977264404297,-0.13641929626464844,-0.6875152587890625,2.6697540283203125,8.975143432617188,-0.12414551835415176,1.5177226750901933,-1.9207584776343058,16
216,4130.0,-0.1562817096710205,0.1464977264404297,-0.13641929626464844,-0.72698974609375,2.6458282470703125,9.13067626953125,-0.12414551835415176,1.5177226750901933,-1.9207584776343058,16
217,4147.0,-0.15165317058563232,0.14652633666992188,-0.13579463958740234,-0.69708251953125,2.624298095703125,9.14862060546875,-0.15299623740828563,0.5096960366230315,-1.5649329426333216,16
218,4164.0,-0.18905186653137207,0.12189960479736328,0.01978302001953125,-0.67913818359375,2.6817169189453125,9.038543701171875,0.4205210868193451,-0.13288816049176808,-0.5507864546698282,16
219,4181.0,-0.15822196006774902,0.09894824028015137,0.037863731384277344,-0.6360626220703125,2.6637725830078125,9.086410522460938,0.3427115717945598,0.2885071905413386,0.4074071236129206,16
220,4198.0,-0.09366297721862793,0.1390063762664795,-0.02429676055908203,-0.614532470703125,2.6398468017578125,9.068466186523438,-0.8497848157763064,0.4519945985147638,1.0928302672020402,16
221,4215.0,-0.09366297721862793,0.1390063762664795,-0.02429676055908203,-0.614532470703125,2.6398468017578125,9.068466186523438,-0.8497848157763064,0.4519945985147638,1.0928302672020402,16
222,4232.0,-0.0729210376739502,0.11660885810852051,-0.04268646240234375,-0.6288909912109375,2.620697021484375,9.089996337890625,-0.7763466218203293,-0.7343819395597709,0.8445392304937366,16
223,4251.0,-0.09050959348678589,0.09653496742248535,-0.021234512329101562,-0.5714569091796875,2.6410369873046875,9.127090454101562,-0.625098912839567,-1.3577323239718146,0.35495127078722266,16
224,4268.0,-0.09050959348678589,0.09653496742248535,-0.021234512329101562,-0.539154052734375,2.6290740966796875,9.08880615234375,-0.625098912839567,-1.3577323239718146,0.35495127078722266,16
225,4285.0,-0.005189716815948486,0.09919548034667969,-0.022642135620117188,-0.5894012451171875,2.666168212890625,8.959579467773438,0.45286886272852545,-0.6102364212056193,-0.14512785948443094,16
226,4303.0,-0.005189716815948486,0.09919548034667969,-0.022642135620117188,-0.581024169921875,2.6805267333984375,8.89019775390625,0.45286886272852545,-0.6102364212056193,-0.14512785948443094,16
227,4323.0,-0.055343031883239746,0.13239741325378418,-0.147705078125,-0.581024169921875,2.6805267333984375,8.89019775390625,-0.3427115717945598,-0.6382128760459914,-0.33746598651199,16
228,4340.0,-0.044357478618621826,0.1454153060913086,-0.20705509185791016,-0.575042724609375,2.6553955078125,9.156997680664062,-2.0352870896370794,0.13988227420186114,-0.6548238961074625,16
229,4356.0,-0.03651249408721924,0.12105679512023926,0.05698585510253906,-0.6779327392578125,2.6278839111328125,9.35919189453125,-1.0561111702240515,0.07780951502478525,-0.7728495649652828,16
230,4374.0,-0.13454967737197876,0.09202122688293457,0.251739501953125,-0.7066497802734375,2.6338653564453125,9.238357543945312,0.30774100324409454,0.2989983611064782,-0.5910026085028633,16
231,4391.0,-0.1579706072807312,0.09375667572021484,0.12773799896240234,-0.6288909912109375,2.6625823974609375,9.194076538085938,0.9153546318084288,0.06207275917707588,-0.21944031765416966,16
232,4408.0,-0.07766944169998169,0.11650395393371582,0.08187389373779297,-0.6815338134765625,2.6494140625,9.240737915039062,1.0937045314158018,0.04196468226055834,-0.27626749154867575,16
233,4427.0,-0.12747424840927124,0.0964961051940918,0.12602615356445312,-0.6815338134765625,2.6494140625,9.240737915039062,2.0116819558655155,-0.860275986341446,-0.4957078092028454,16
234,4446.0,-0.12718486785888672,0.08738946914672852,0.1241292953491211,-0.695892333984375,2.6817169189453125,9.146224975585938,3.0048461026987296,-1.9461121398333932,-0.5778886452964388,16
235,4463.0,-0.1421777606010437,0.10760259628295898,0.03098583221435547,-0.680328369140625,2.6865081787109375,8.90814208984375,3.8100434435731927,-1.8604342468847532,-0.4484975416597173,16
236,4482.0,-0.12733381986618042,0.10164451599121094,-0.19944381713867188,-0.6719512939453125,2.7056427001953125,8.851913452148438,2.076377507683876,-1.4504043306305476,0.2858843979000537,16
237,4500.0,-0.12359011173248291,0.10295796394348145,-0.31899070739746094,-0.6420440673828125,2.648223876953125,9.076828002929688,0.05682717389450609,-1.7240490295379385,0.5831342305790086,16
238,4516.0,-0.12466287612915039,0.11594557762145996,-0.24572277069091797,-0.6420440673828125,2.648223876953125,9.076828002929688,-1.2554434109617036,-1.865679832167323,0.5009533944854152,16
239,4533.0,-0.1001119613647461,0.06210613250732422,-0.022153854370117188,-0.6420440673828125,2.648223876953125,9.076828002929688,-1.4364161032103615,-1.590286604832409,0.7378789964148175,16
240,4553.0,-0.10517001152038574,0.06589365005493164,-0.023535728454589844,-0.66119384765625,2.702056884765625,9.030181884765625,-1.4364161032103615,-1.590286604832409,0.7378789964148175,16
241,4569.0,-0.04800039529800415,0.07668447494506836,0.021310806274414062,-0.67315673828125,2.67333984375,9.0911865234375,-1.2178500497699536,-0.9774273909855047,0.8305510030735506,16
242,4586.0,-0.13781332969665527,0.09279394149780273,-0.010916709899902344,-0.656402587890625,2.684112548828125,9.227584838867188,-1.5588130931369901,-1.3052764711461167,0.7719753007515212,16
243,4603.0,-0.13781332969665527,0.09279394149780273,-0.010916709899902344,-0.575042724609375,2.6924896240234375,9.438156127929688,-1.5588130931369901,-1.3052764711461167,0.7719753007515212,16
244,4625.0,-0.04068255424499512,0.11017990112304688,0.3218402862548828,-0.575042724609375,2.6924896240234375,9.438156127929688,0.6688121235276486,-0.47122841121751974,0.10578596986515748,16
245,4643.0,-0.0414695143699646,0.10567331314086914,0.32158946990966797,-0.591796875,2.7618865966796875,9.228775024414062,2.393735417279349,-0.33834025072575163,-0.42401814367439156,16
246,4659.0,-0.058061182498931885,0.16860318183898926,0.11336612701416016,-0.64923095703125,2.765472412109375,9.195281982421875,2.0064363705829455,-0.1337624247055297,-1.0272604511699177,16
247,4676.0,-0.11478298902511597,0.16733932495117188,0.08072948455810547,-0.6540069580078125,2.672149658203125,9.505157470703125,1.188125066502058,-0.11365434778901218,-0.45286886272852545,16
248,4694.0,-0.11891317367553711,0.06748771667480469,0.3907613754272461,-0.5176239013671875,2.6458282470703125,9.255096435546875,3.4489723232896385,0.430137993170723,1.1732625748681103,16
249,4711.0,0.01715230941772461,0.02911210060119629,0.14350223541259766,-0.4410552978515625,2.68890380859375,9.056503295898438,5.310280834388154,0.26315352834225125,1.8962790796489801,16
250,4728.0,0.09257656335830688,0.059296607971191406,-0.051280975341796875,-0.4410552978515625,2.68890380859375,9.056503295898438,3.9700337946915716,0.1223969899266285,1.4206793473626522,16
251,4746.0,0.0905066728591919,0.04990673065185547,-0.048521995544433594,-0.557098388671875,2.69488525390625,9.165374755859375,2.773166086051897,-0.701159899436829,0.9660619562066035,16
252,4762.0,-0.028397202491760254,0.04554319381713867,0.06101799011230469,-0.72698974609375,2.648223876953125,9.305343627929688,3.8799845806741233,-1.4128109694387976,1.2423294477552793,16
253,4782.0,-0.1983480453491211,-0.013973474502563477,0.19884204864501953,-0.627685546875,2.71282958984375,8.9775390625,5.8768040449056915,-1.9574775746122943,1.9373694976957767,16
254,4798.0,-0.10631948709487915,0.03439593315124512,-0.12416839599609375,-0.527191162109375,2.714019775390625,8.819610595703125,5.905654763959825,-2.395483945706872,2.9786181762858805,16
255,4815.0,-0.013623833656311035,0.021116256713867188,-0.27713966369628906,-0.527191162109375,2.714019775390625,8.819610595703125,4.5697790453320515,-1.8805423238012706,2.5205037282747855,16
256,4832.0,-0.01964956521987915,0.010106086730957031,-0.2730865478515625,-0.56787109375,2.77862548828125,8.752609252929688,3.4087561694566038,-1.3690977587507158,1.9906996147352363,16
257,4849.0,-0.0659605860710144,0.0664970874786377,-0.33664512634277344,-0.5774383544921875,2.855194091796875,8.65570068359375,2.3185486948958483,-1.8280864709755729,2.1751693638389407,16
258,4865.0,-0.08302879333496094,0.13800597190856934,-0.43084239959716797,-0.375244140625,2.9580841064453125,8.515716552734375,0.8296767388597889,-2.8841976411996244,1.7904931097838226,16
259,4882.0,0.11110642552375793,0.2406165599822998,-0.5690736770629883,-0.433868408203125,2.9748382568359375,8.628173828125,-1.4722609359745884,-2.2940692969105227,-0.027102190626610595,16
260,4902.0,0.04948589205741882,0.2619760036468506,-0.4565591812133789,-0.485321044921875,2.94732666015625,9.070846557617188,-2.7381955175014316,-0.21419473237159986,-1.352486738689245,16
261,4919.0,0.0024605393409729004,0.2406466007232666,-0.01572704315185547,-0.5116424560546875,2.8683624267578125,9.0732421875,-2.4820361028692735,2.5301206346261633,-2.058017959194882,16
262,4937.0,0.012502044439315796,0.24367856979370117,-0.016317367553710938,-0.5523223876953125,2.9162139892578125,8.822006225585938,-0.2955013042514317,3.577489162712599,-2.8964373401922874,16
263,4953.0,-0.03587597608566284,0.2195873260498047,-0.2655210494995117,-0.6875152587890625,2.8575897216796875,8.87823486328125,-3.2575084604758415,0.8305510030735506,-2.8702094137794383,16
264,4970.0,-0.03587597608566284,0.2195873260498047,-0.2655210494995117,-0.5989837646484375,2.737945556640625,9.09478759765625,-3.2575084604758415,0.8305510030735506,-2.8702094137794383,16
265,4988.0,-0.16882789134979248,0.17093682289123535,-0.2114849090576172,-0.52239990234375,2.702056884765625,9.362777709960938,-4.465741603894417,-1.2703059025956516,-2.497772858716983,16
266,5004.0,-0.08313173055648804,0.0638120174407959,0.0011129379272460938,-0.52239990234375,2.702056884765625,9.362777709960938,-4.840800951598157,-2.644649246628937,-2.6647573235454547,16
267,5028.0,-0.018333613872528076,0.04781937599182129,0.26030635833740234,-0.4960784912109375,2.6470184326171875,9.397476196289062,-1.9758371231012886,-3.764581704457588,-3.1788246812372942,16
268,5047.0,-0.0004634261131286621,-0.0027141571044921875,0.2920083999633789,-0.485321044921875,2.6589813232421875,9.289794921875,-1.022014865887348,-4.530437155712778,-3.5302788951694706,16
269,5067.0,0.0030247867107391357,0.010493993759155273,0.18279361724853516,-0.5583038330078125,2.720001220703125,9.304153442382812,0.4310122573844846,-2.91392262446752,-3.3563003166309056,16
270,5084.0,-0.07328471541404724,0.06747221946716309,0.19722747802734375,-0.5738525390625,2.7044525146484375,9.14263916015625,2.7075962700197747,-1.542202073075519,-2.5991875075133324,16
271,5102.0,-0.09022459387779236,0.044173479080200195,0.03766918182373047,-0.555908203125,2.6589813232421875,8.825592041015625,3.1980584939400503,-1.0587339628653365,-1.7765048823636365,16
272,5127.0,-0.0802941620349884,-0.01500391960144043,-0.27349090576171875,-0.4171295166015625,2.6051483154296875,8.723892211914062,1.247575033037849,-3.3379407681419115,-1.0019067889708304,16
273,5146.0,0.05153176188468933,-0.06927824020385742,-0.3737630844116211,-0.485321044921875,2.606353759765625,9.042144775390625,-0.5778886452964388,-2.3989810025619187,-1.3183904343525412,16
274,5162.0,0.05153176188468933,-0.06927824020385742,-0.3737630844116211,-0.626495361328125,2.5812225341796875,8.945236206054688,-0.5778886452964388,-2.3989810025619187,-1.3183904343525412,16
275,5179.0,-0.16325488686561584,-0.09183502197265625,-0.15207290649414062,-0.587005615234375,2.5931854248046875,8.863876342773438,0.49658207341660704,-0.9249715381598068,0.026227926412848965,16
276,5198.0,-0.1260116994380951,-0.08002209663391113,-0.23245906829833984,-0.566680908203125,2.6075439453125,8.843536376953125,-0.14337933105690767,-1.0963273240570868,0.1792241638211346,16
277,5216.0,-0.1094430685043335,-0.06378030776977539,-0.25243186950683594,-0.566680908203125,2.6075439453125,8.843536376953125,-1.0499913207277203,-2.1821634775490337,-0.5735173242276307,16
278,5233.0,-0.11414247751235962,-0.058821678161621094,-0.25301361083984375,-0.66717529296875,2.6876983642578125,8.916519165039062,-2.3806214540729242,-2.322045751750895,-1.535207959365426,16
279,5250.0,-0.2185559868812561,0.02929830551147461,-0.18187332153320312,-0.689910888671875,2.7164154052734375,9.081619262695312,-3.518913460390569,-2.3019376748343774,-1.8683026248086079,16
280,5266.0,-0.24422678351402283,0.06769204139709473,-0.01978778839111328,-0.632476806640625,2.720001220703125,9.218017578125,-3.773324346595204,-1.7319174074617933,-1.780001939218683,16
281,5283.0,-0.18795615434646606,0.08051037788391113,0.11326122283935547,-0.6934967041015625,2.7032623291015625,9.261077880859375,-3.2164180424290447,-0.8427907020662134,-2.044029731774696,16
282,5300.0,-0.24762794375419617,0.07082581520080566,0.1535654067993164,-0.73895263671875,2.7582855224609375,9.267059326171875,-2.0501495812710275,-0.37418508348997853,-2.9620071562244097,16
283,5318.0,-0.2902572453022003,0.12954068183898926,0.15774154663085938,-0.73895263671875,2.7582855224609375,9.267059326171875,-0.8637730431964925,0.05245585282569793,-2.3325369223160344,16
284,5334.0,-0.2869206964969635,0.12974023818969727,0.15697669982910156,-0.72100830078125,2.77862548828125,9.14263916015625,0.5000791302716536,0.4222696152468683,-1.5701785279158913,16
285,5355.0,-0.2650967538356781,0.1478428840637207,0.03302192687988281,-0.5894012451171875,2.71881103515625,9.17254638671875,0.8532818726313529,0.8384193809974052,-1.2563176751754654,16
286,5372.0,-0.13116306066513062,0.08522796630859375,0.06345748901367188,-0.5894012451171875,2.747528076171875,9.072052001953125,1.0928302672020402,-0.16698446482847173,-1.0325060364524876,16
287,5389.0,-0.13064685463905334,0.11158347129821777,-0.03633880615234375,-0.6468353271484375,2.765472412109375,9.147430419921875,0.4231438794606299,-0.4074071236129206,-0.8751384779753938,16
288,5406.0,-0.18810510635375977,0.1289050579071045,0.038558006286621094,-0.6468353271484375,2.765472412109375,9.147430419921875,-0.17572710696608806,-0.3846762540551181,1.3192646985663028,16
289,5423.0,-0.18810510635375977,0.1289050579071045,0.038558006286621094,-0.608551025390625,2.74871826171875,9.078033447265625,-0.17572710696608806,-0.3846762540551181,1.3192646985663028,16
290,5439.0,-0.18582013249397278,0.12515568733215332,0.03738689422607422,-0.563079833984375,2.7882080078125,8.976333618164062,0.17223005011104153,-1.114686872546081,1.3315043975589658,16
291,5457.0,-0.10670584440231323,0.1406416893005371,-0.12964630126953125,-0.578643798828125,2.8408355712890625,8.871047973632812,-0.5831342305790086,-2.053646638126074,1.4355418389966,16
292,5473.0,-0.10670584440231323,0.1406416893005371,-0.12964630126953125,-0.591796875,2.7702484130859375,9.165374755859375,-0.5831342305790086,-2.053646638126074,1.4355418389966,16
293,5490.0,-0.13443157076835632,0.12245345115661621,0.06134223937988281,-0.5403594970703125,2.6996612548828125,9.396270751953125,-2.2250024240233537,0.45549165536981034,1.4163080262938441,16
294,5508.0,-0.13443157076835632,0.12245345115661621,0.06134223937988281,-0.5403594970703125,2.6996612548828125,9.396270751953125,-2.2250024240233537,0.45549165536981034,1.4163080262938441,16
295,5528.0,-0.08079960942268372,0.05448293685913086,0.28293418884277344,-0.533172607421875,2.661376953125,9.216812133789062,-1.0473685280864353,0.2850101336862921,1.4241764042176988,16
296,5544.0,-0.06983909010887146,0.011831521987915039,0.09364604949951172,-0.6049652099609375,2.7212066650390625,9.078033447265625,1.4906204844635829,0.9984097321157839,1.0499913207277203,16
297,5562.0,-0.06983909010887146,0.011831521987915039,0.09364604949951172,-0.6946868896484375,2.7212066650390625,9.134262084960938,1.4906204844635829,0.9984097321157839,1.0499913207277203,16
298,5579.0,-0.21480178833007812,0.05798053741455078,0.015171051025390625,-0.5989837646484375,2.6589813232421875,9.042144775390625,2.0973598488141554,1.445158745347978,1.3988227420186115,16
299,5598.0,-0.11451441049575806,-0.009745597839355469,-0.07309913635253906,-0.5989837646484375,2.6589813232421875,9.042144775390625,2.1069767551655336,0.21944031765416966,0.9354627087249464,16
300,5616.0,-0.11209970712661743,-0.014857769012451172,-0.06953144073486328,-0.608551025390625,2.67694091796875,8.996673583984375,1.9601003672535793,-0.36719096977988547,0.5761401168689155,16
301,5633.0,-0.11983633041381836,-0.0013146400451660156,-0.11062049865722656,-0.6420440673828125,2.7092437744140625,8.894973754882812,1.2991566216497854,-0.3977902172615426,0.8856296485405334,16
302,5652.0,-0.15143293142318726,0.027487516403198242,-0.20577335357666016,-0.5834197998046875,2.725982666015625,8.811233520507812,0.6198533275569972,-0.7859635281717073,1.2842941300158377,16
303,5669.0,-0.09395083785057068,0.04267597198486328,-0.28157711029052734,-0.56787109375,2.6996612548828125,8.916519165039062,-0.4930850165615605,-1.4206793473626522,0.9686847488478884,16
304,5687.0,-0.08326902985572815,0.018341779708862305,-0.17644309997558594,-0.4841156005859375,2.747528076171875,9.0433349609375,-1.1863765380745348,-1.784373260287491,1.4390388958516465,16
305,5704.0,-0.004425376653671265,0.0689997673034668,-0.050586700439453125,-0.4841156005859375,2.747528076171875,9.0433349609375,-1.2685573741681282,-1.1295493641800287,1.2318382771901397,16
306,5721.0,-0.007134079933166504,0.07222199440002441,-0.05155372619628906,-0.4769439697265625,2.747528076171875,9.0194091796875,-1.4775065212571583,-0.36719096977988547,0.6661893308863637,16
307,5738.0,-0.0011321306228637695,0.07313799858093262,-0.07430362701416016,-0.4589996337890625,2.7642669677734375,9.137847900390625,-0.8191855682946493,-0.30774100324409454,0.10666023407891911,16
308,5755.0,0.01586282253265381,0.08871197700500488,0.042491912841796875,-0.590606689453125,2.813323974609375,8.930877685546875,-0.2203145818679313,-0.0017485284275232642,0.10753449829268075,16
309,5772.0,-0.11294698715209961,0.13610291481018066,-0.1605672836303711,-0.515228271484375,2.753509521484375,8.97991943359375,-1.4766322570433967,-0.15911608690461704,0.44237769216338585,16
310,5789.0,-0.03708118200302124,0.07806134223937988,-0.1096029281616211,-0.491302490234375,2.7582855224609375,9.204849243164062,-1.5736755847709378,-0.023605133771564066,0.39604168883401936,16
311,5806.0,-0.013303607702255249,0.08362245559692383,0.11118793487548828,-0.491302490234375,2.7582855224609375,9.204849243164062,-0.8060716050882248,-0.39866448147530426,-0.4825938459964209,16
312,5823.0,-0.01440495252609253,0.08188271522521973,0.1078500747680664,-0.52838134765625,2.79058837890625,9.040939331054688,0.4415034279496242,-1.216975785556192,-1.1487831768827845,16
313,5840.0,-0.05356442928314209,0.11075925827026367,-0.054610252380371094,-0.49249267578125,2.7762298583984375,8.893783569335938,-0.10840876250644238,-2.258224464146296,-1.452152859058071,16
314,5857.0,-0.022386610507965088,0.09568333625793457,-0.19701004028320312,-0.4757537841796875,2.7822113037109375,8.927276611328125,-1.2440779761828025,-2.666505851972978,-1.6331255513067289,16
315,5874.0,-0.028675228357315063,0.135329008102417,-0.07085132598876953,-0.4757537841796875,2.7822113037109375,8.927276611328125,-1.6243829091691124,-2.6350323402775593,-1.3157676417112563,16
316,5891.0,-0.01606050133705139,0.10423636436462402,-0.16028785705566406,-0.4470367431640625,2.7858123779296875,9.1031494140625,-2.272212691566482,-2.5991875075133324,-1.6951983104838046,16
317,5909.0,0.007424145936965942,0.11148333549499512,0.012952804565429688,-0.4470367431640625,2.7858123779296875,9.1031494140625,-1.8805423238012706,-1.0797163039956157,-1.9207584776343058,16
318,5930.0,-0.07951125502586365,0.09620118141174316,0.16554832458496094,-0.5654754638671875,2.74871826171875,9.095977783203125,0.27626749154867575,0.0681926086734073,-1.4364161032103615,16
319,5948.0,-0.07951125502586365,0.09620118141174316,0.16554832458496094,-0.497283935546875,2.7798309326171875,8.827987670898438,0.27626749154867575,0.0681926086734073,-1.4364161032103615,16
320,5966.0,-0.03630724549293518,0.10116457939147949,-0.2616701126098633,-0.575042724609375,2.77862548828125,8.918914794921875,-0.6364643476184682,0.2334285450743558,-1.244952240396564,16
321,5983.0,-0.10930579900741577,0.10044002532958984,-0.16687965393066406,-0.6229095458984375,2.7403411865234375,9.156997680664062,-1.734540200103078,0.15037344476700074,-1.6252571733828742,16
322,6000.0,-0.15144464373588562,0.06462669372558594,0.06805896759033203,-0.6229095458984375,2.7403411865234375,9.156997680664062,-1.3350014544140123,-0.09879185615506443,-1.7712592970810668,16
323,6019.0,-0.14673414826393127,0.06395149230957031,0.06586360931396484,-0.627685546875,2.7559051513671875,9.11871337890625,0.6399614044735147,-0.47822252492761275,-1.5107285613801003,16
324,6036.0,-0.14673414826393127,0.06395149230957031,0.06586360931396484,-0.579833984375,2.7917938232421875,8.957199096679688,0.6399614044735147,-0.47822252492761275,-1.5107285613801003,16
325,6055.0,-0.09927091002464294,0.10604166984558105,-0.12991619110107422,-0.5642852783203125,2.865966796875,8.831573486328125,-0.05682717389450609,-0.8445392304937366,-1.594657925901217,16
326,6073.0,-0.08154842257499695,0.17738938331604004,-0.24909687042236328,-0.6420440673828125,2.855194091796875,8.89019775390625,-1.4626440296232106,-0.19933224073765213,-1.5404535446479959,16
327,6096.0,-0.15427947044372559,0.16793084144592285,-0.18690776824951172,-0.69708251953125,2.8276824951171875,9.076828002929688,-2.9672527415069796,-0.2535366219908733,-1.5631844142057982,16
328,6113.0,-0.20405477285385132,0.14421653747558594,-0.0025739669799804688,-0.5475311279296875,2.7798309326171875,9.176132202148438,-2.849227072649159,-0.9319656518698999,-1.0019067889708304,16
329,6143.0,-0.05051657557487488,0.10083198547363281,0.09069061279296875,-0.3249969482421875,2.7152252197265625,9.075637817382812,-1.6506108355819615,-0.2727704346936292,-1.6270057018103974,16
330,6161.0,0.16999855637550354,0.03908538818359375,-0.010519027709960938,-0.8179168701171875,2.9401397705078125,9.013427734375,-1.1164354009736042,1.2187243139837152,-2.397232474134395,16
331,6179.0,-0.3104918599128723,0.2595992088317871,-0.07138442993164062,-0.698272705078125,2.8228912353515625,8.90814208984375,-0.9835472404818362,0.5542835115248748,-0.6600694813900323,16
332,6196.0,-0.1853976845741272,0.14251136779785156,-0.17296886444091797,-0.4877166748046875,2.8288726806640625,8.87225341796875,-2.1576840795637082,-0.6478297823973694,-0.0463360033293665,16
333,6216.0,0.017136096954345703,0.15616559982299805,-0.20244598388671875,-0.5738525390625,2.85400390625,9.050506591796875,-3.769827289740158,-2.240739179871063,-2.088617206676539,16
334,6233.0,0.017136096954345703,0.15616559982299805,-0.20244598388671875,-0.6229095458984375,2.7882080078125,9.246719360351562,-3.769827289740158,-2.240739179871063,-2.088617206676539,16
335,6251.0,-0.11720651388168335,0.12006282806396484,0.16393375396728516,-0.5260009765625,2.771453857421875,9.35919189453125,-0.2701476420523443,-0.24129692299821046,-0.7405017890561024,16
336,6267.0,-0.020829975605010986,0.10127091407775879,0.2756919860839844,-0.4900970458984375,2.7283782958984375,9.027786254882812,1.5456991299305656,-0.5534092473111132,-0.38030493298630996,16
337,6284.0,-0.020829975605010986,0.10127091407775879,0.2756919860839844,-0.4900970458984375,2.7283782958984375,9.027786254882812,1.5456991299305656,-0.5534092473111132,-0.38030493298630996,16
338,6304.0,0.010933756828308105,0.05434155464172363,-0.05448341369628906,-0.569061279296875,2.801361083984375,8.762176513671875,-1.1295493641800287,-0.23168001664683252,0.4484975416597173,16
339,6323.0,-0.06932035088539124,0.1329059600830078,-0.32064342498779297,-0.581024169921875,2.80255126953125,8.825592041015625,-3.5713693132162674,-0.4878394312789907,1.1409147989589299,16
340,6342.0,-0.08404490351676941,0.1435546875,-0.2592630386352539,-0.5654754638671875,2.743927001953125,9.14263916015625,-4.120407239458572,-1.1461603842414998,1.2606889962442736,16
341,6364.0,-0.07229623198509216,0.09329795837402344,0.05477142333984375,-0.5894012451171875,2.7690582275390625,9.280227661132812,-2.594816186444524,-1.2161015213424302,1.1994905012809594,16
342,6383.0,-0.09972164034843445,0.12333416938781738,0.18885326385498047,-0.5774383544921875,2.7810211181640625,9.177337646484375,0.13201389627800644,0.3269748159468504,1.347241153406675,16
343,6400.0,-0.09972164034843445,0.12333416938781738,0.18885326385498047,-0.5774383544921875,2.7810211181640625,9.177337646484375,0.13201389627800644,0.3269748159468504,1.347241153406675,16
344,6417.0,-0.09071150422096252,0.12990093231201172,0.08629322052001953,-0.6001739501953125,2.8456268310546875,9.064865112304688,1.2178500497699536,-0.8900009696093415,0.549037926242305,16
345,6434.0,-0.11554130911827087,0.19110965728759766,-0.025453567504882812,-0.6599884033203125,2.8109283447265625,9.045730590820312,0.6600694813900323,-0.6504525750386543,0.8069458693019864,16
346,6451.0,-0.11554130911827087,0.19110965728759766,-0.025453567504882812,-0.6468353271484375,2.813323974609375,9.058883666992188,0.6600694813900323,-0.6504525750386543,0.8069458693019864,16
347,6468.0,-0.15927380323410034,0.15018391609191895,-0.029458999633789062,-0.569061279296875,2.765472412109375,9.123489379882812,0.7571128091175734,0.33134613701565857,1.2842941300158377,16
348,6485.0,-0.15927380323410034,0.15018391609191895,-0.029458999633789062,-0.569061279296875,2.765472412109375,9.123489379882812,0.7571128091175734,0.33134613701565857,1.2842941300158377,16
349,6503.0,-0.07649984955787659,0.08974099159240723,0.035297393798828125,-0.65521240234375,2.794189453125,8.957199096679688,1.8342063204719041,0.6425841971147996,1.7109350663315142,16
350,6520.0,-0.15911293029785156,0.11125016212463379,-0.1262531280517578,-0.5858154296875,2.7798309326171875,8.87225341796875,0.9914156184056908,-0.304243946389048,2.0099334274379923,16
351,6537.0,-0.15911293029785156,0.11125016212463379,-0.1262531280517578,-0.5762481689453125,2.7702484130859375,8.966766357421875,0.9914156184056908,-0.304243946389048,2.0099334274379923,16
352,6554.0,-0.08883211016654968,0.08091068267822266,-0.1080617904663086,-0.5176239013671875,2.747528076171875,8.969161987304688,-0.38030493298630996,-3.103637958853794,2.5650912031766286,16
353,6571.0,-0.039804816246032715,0.05766916275024414,-0.10361003875732422,-0.4362640380859375,2.7511138916015625,8.942840576171875,-0.7518672238350036,-3.3973907346777024,2.7460638954252867,16
354,6588.0,0.029304027557373047,0.06129932403564453,-0.12741851806640625,-0.4362640380859375,2.7511138916015625,8.942840576171875,-0.8891267053955799,-3.5573810857960813,2.7626749154867576,16
355,6607.0,0.01687297224998474,0.0626378059387207,-0.12537193298339844,-0.3824310302734375,2.76666259765625,8.880630493164062,-1.7406600495994096,-3.8441397479098964,2.6035588285821403,16
356,6626.0,0.057455241680145264,0.08164286613464355,-0.18459606170654297,-0.3453369140625,2.7451324462890625,8.904556274414062,-2.859718243214299,-3.4542179085722085,2.2538531430774875,16
357,6645.0,0.08221101760864258,0.06614065170288086,-0.15894794464111328,-0.280731201171875,2.7559051513671875,8.97393798828125,-3.301221671163923,-2.849227072649159,1.8578114542434683,16
358,6661.0,0.13589012622833252,0.08288049697875977,-0.08979034423828125,-0.403961181640625,2.771453857421875,9.006240844726562,-3.1045122230675557,-1.651485099795723,0.8620245147689692,16
359,6678.0,0.008901506662368774,0.10288286209106445,-0.05816459655761719,-0.3776397705078125,2.7212066650390625,9.099563598632812,-2.5082640292821226,-0.7029084278643523,0.1031631772238726,16
360,6695.0,0.03287884593009949,0.05650162696838379,0.03255271911621094,-0.3776397705078125,2.7212066650390625,9.099563598632812,-1.6138917386039728,-0.387299046696403,-0.21332046815783823,16
361,6712.0,0.03108808398246765,0.05710864067077637,0.030968666076660156,-0.3585052490234375,2.71282958984375,9.171356201171875,-0.011365434778901218,-0.6845488793753579,-1.121680986256174,16
362,6728.0,0.04887092113494873,0.04724264144897461,0.09994983673095703,-0.4661712646484375,2.7451324462890625,9.109130859375,0.26839911362482105,-0.2718961704798676,-2.2486075577949176,16
363,6746.0,-0.05519092082977295,0.07696676254272461,0.036873817443847656,-0.4960784912109375,2.7630767822265625,8.935653686523438,0.22730869557802436,0.42664093631567646,-2.4173405510509127,16
364,6763.0,-0.07930228114128113,0.0928184986114502,-0.1328125,-0.5128326416015625,2.7403411865234375,8.923690795898438,-0.4458747490184324,0.9188516886634753,-2.0405326749196493,16
365,6781.0,-0.0904020369052887,0.0709679126739502,-0.141448974609375,-0.531982421875,2.7463226318359375,9.033767700195312,-1.582418226908554,0.34183730758079817,-1.5308366382966179,16
366,6798.0,-0.10571244359016418,0.07996416091918945,-0.031978607177734375,-0.531982421875,2.7463226318359375,9.033767700195312,-2.298440617979331,-0.4187725583918218,-0.8253054177909808,16
367,6821.0,-0.1048143208026886,0.08430242538452148,-0.03311347961425781,-0.5702667236328125,2.6924896240234375,9.129470825195312,-2.7346984606463853,-1.4556499159131175,-0.18097269224865786,16
368,6838.0,-0.1461060643196106,0.041971683502197266,0.0560455322265625,-0.5260009765625,2.69488525390625,9.174942016601562,-2.6324095476362745,-2.813382239884932,0.7352562037735326,16
369,6855.0,-0.1064995527267456,0.04926133155822754,0.09656143188476562,-0.5260009765625,2.7391510009765625,9.16656494140625,-2.1707980427701328,-2.593067658017001,0.5918768727166249,16
370,6872.0,-0.1064995527267456,0.04926133155822754,0.09656143188476562,-0.49249267578125,2.70086669921875,9.135452270507812,-2.1707980427701328,-2.593067658017001,0.5918768727166249,16
371,6889.0,-0.08189183473587036,0.06039309501647949,0.04979419708251953,-0.49249267578125,2.70086669921875,9.135452270507812,-1.4871234276085363,-2.934904965597799,-1.0805905682093773,16
372,6906.0,-0.08189183473587036,0.06039309501647949,0.04979419708251953,-0.3776397705078125,2.7056427001953125,9.0074462890625,-1.4871234276085363,-2.934904965597799,-1.0805905682093773,16
373,6924.0,0.02631351351737976,0.07158517837524414,-0.0805978775024414,-0.4374542236328125,2.76666259765625,8.910537719726562,-2.6533918887665533,-1.2606889962442736,-3.645681771386006,16
374,6941.0,-0.03145629167556763,0.13741469383239746,-0.17498302459716797,-0.5834197998046875,2.723602294921875,9.028976440429688,-3.595848711201593,0.09179774244497137,-3.3589231092721907,16
375,6958.0,-0.03145629167556763,0.13741469383239746,-0.17498302459716797,-0.421905517578125,2.626678466796875,9.3197021484375,-3.595848711201593,0.09179774244497137,-3.3589231092721907,16
376,6977.0,-0.006637632846832275,0.013852119445800781,0.2239370346069336,-0.36328125,2.614715576171875,9.44891357421875,-2.920916738177613,-0.06906687288716894,-2.725955818508769,16
377,6994.0,0.05398765206336975,0.007324695587158203,0.34192371368408203,-0.36328125,2.614715576171875,9.44891357421875,-1.045619999658912,1.0368773575212957,-3.1639621896033465,16
378,7011.0,0.06024974584579468,0.00779271125793457,0.3406543731689453,-0.5858154296875,2.6936798095703125,9.299362182617188,0.9188516886634753,2.2949435611242843,-2.2556016715050107,16
379,7028.0,-0.15422484278678894,0.08333349227905273,0.1915302276611328,-0.551116943359375,2.702056884765625,9.087600708007812,1.5675557352746063,2.14806717321233,-1.640119665016822,16
380,7045.0,-0.11476075649261475,0.08869409561157227,-0.01918792724609375,-0.52838134765625,2.7283782958984375,8.9835205078125,0.5840084947927703,0.04721026754312813,-1.9093930428554047,16
381,7062.0,-0.09221810102462769,0.11561870574951172,-0.1230916976928711,-0.596588134765625,2.6805267333984375,9.027786254882812,-1.2178500497699536,-1.5623101499920367,-1.8586857184572299,16
382,7080.0,-0.16223827004432678,0.07211685180664062,-0.07994461059570312,-0.5499267578125,2.6039581298828125,9.2598876953125,-2.093862791959109,-1.3551095313305297,-1.7992357519214388,16
383,7097.0,-0.11653050780296326,0.0003058910369873047,0.1501007080078125,-0.5499267578125,2.6039581298828125,9.2598876953125,-1.3017794142910701,-0.7501186954074803,-1.7808762034324446,16
384,7114.0,-0.11568936705589294,-0.00031566619873046875,0.14966869354248047,-0.5487213134765625,2.578826904296875,9.40106201171875,1.925129798703114,0.07693525081102363,-1.5107285613801003,16
385,7131.0,-0.11237624287605286,-0.03231501579284668,0.2917041778564453,-0.5236053466796875,2.6051483154296875,8.948822021484375,3.4708289286336798,0.2675248494110594,-1.5771726416259844,16
386,7148.0,-0.08543875813484192,-0.012523174285888672,-0.15791702270507812,-0.491302490234375,2.6326751708984375,8.632965087890625,1.6138917386039728,-0.07518672238350037,-1.5797954342672693,16
387,7165.0,-0.05243757367134094,0.01346278190612793,-0.47135162353515625,-0.603759765625,2.6314697265625,8.82080078125,-0.31998070223675734,-0.6443327255423229,-2.172546571197656,16
388,7182.0,-0.164328932762146,0.016294240951538086,-0.28351593017578125,-0.539154052734375,2.5764312744140625,8.993087768554688,-2.57121105267296,-0.5604033610212062,-1.6986953673388512,16
389,7201.0,-0.09873160719871521,-0.030728578567504883,-0.11298942565917969,-0.5260009765625,2.548919677734375,9.110336303710938,-3.214669514001521,0.23517707350187905,-0.9442053508625627,16
390,7225.0,-0.07690924406051636,-0.0447847843170166,0.0013570785522460938,-0.5547027587890625,2.5704498291015625,9.12469482421875,-1.594657925901217,2.0790003003251614,-0.9704332772754116,16
391,7244.0,-0.09883326292037964,-0.01916050910949707,0.014826774597167969,-0.620513916015625,2.6015625,9.0672607421875,-1.3262588122763959,2.1856605344040805,-0.8025745482331783,16
392,7265.0,-0.15852633118629456,0.01575016975402832,-0.04324913024902344,-0.6229095458984375,2.6589813232421875,9.074447631835938,-1.4504043306305476,1.2274669561213316,-1.5701785279158913,16
393,7282.0,-0.15695083141326904,0.07799005508422852,-0.03719806671142578,-0.587005615234375,2.666168212890625,9.152206420898438,-2.2451105009398713,0.35232847814593776,-1.6138917386039728,16
394,7299.0,-0.11908987164497375,0.09114313125610352,0.038677215576171875,-0.587005615234375,2.666168212890625,9.152206420898438,-2.354393527660075,-0.12414551835415176,-1.4390388958516465,16
395,7316.0,-0.11820715665817261,0.0972139835357666,0.03671455383300781,-0.6169281005859375,2.6589813232421875,9.280227661132812,-2.3491479423775057,-0.4021615383303508,-1.4530271232718326,16
396,7333.0,-0.1480332314968109,0.094482421875,0.16266250610351562,-0.5762481689453125,2.66497802734375,9.2838134765625,-1.1487831768827845,-0.7265135616359163,-1.1627714043029707,16
397,7350.0,-0.10886421799659729,0.10209035873413086,0.16488361358642578,-0.5176239013671875,2.6673583984375,9.186904907226562,-0.2928785116101468,-1.2091074076323372,-0.4843423744239442,16
398,7366.0,-0.05152776837348938,0.10432624816894531,0.06753349304199219,-0.5307769775390625,2.6793212890625,9.129470825195312,0.14862491633947747,-0.3243520233055655,-0.9669362204203651,16
399,7383.0,-0.06216105818748474,0.11232399940490723,0.010062217712402344,-0.5307769775390625,2.6793212890625,9.129470825195312,0.5044504513404617,0.40128727411658915,-0.7405017890561024,16
400,7401.0,-0.05952832102775574,0.10904359817504883,0.009874343872070312,-0.5834197998046875,2.720001220703125,8.903350830078125,-0.3234777590918039,-0.018359548488994275,-0.37768214034502506,16
401,7423.0,-0.11110907793045044,0.14232873916625977,-0.24118518829345703,-0.592987060546875,2.6589813232421875,9.113922119140625,-3.1998070223675734,-1.9837055010251432,-0.06119849496331425,16
402,7440.0,-0.11110907793045044,0.14232873916625977,-0.24118518829345703,-0.491302490234375,2.6003570556640625,9.417816162109375,-3.1998070223675734,-1.9837055010251432,-0.06119849496331425,16
403,7457.0,-0.12246769666671753,0.09668827056884766,0.0012998580932617188,-0.4781341552734375,2.5991668701171875,9.302963256835938,-3.241771704628132,-2.794148427182176,0.37680787613126343,16
404,7474.0,-0.01974886655807495,0.04361248016357422,0.17368698120117188,-0.4781341552734375,2.5991668701171875,9.302963256835938,-0.1792241638211346,-1.919884213420544,-1.0141464879634932,16
405,7491.0,-0.01974886655807495,0.04361248016357422,0.17368698120117188,-0.52239990234375,2.608734130859375,9.10076904296875,-0.1792241638211346,-1.919884213420544,-1.0141464879634932,16
406,7508.0,-0.06676405668258667,0.05244183540344238,-0.03319835662841797,-0.5475311279296875,2.6039581298828125,8.96795654296875,-0.9240972739460451,-1.2773000163057446,-1.3961999493773265,16
407,7525.0,-0.06676405668258667,0.05244183540344238,-0.03319835662841797,-0.509246826171875,2.54412841796875,9.101959228515625,-0.9240972739460451,-1.2773000163057446,-1.3961999493773265,16
408,7543.0,-0.0918031632900238,0.05008721351623535,-0.16257095336914062,-0.563079833984375,2.5237884521484375,9.182113647460938,-1.829834999403096,-1.3192646985663028,-1.1234295146836972,16
409,7559.0,-0.1059885323047638,-0.021308422088623047,0.04862689971923828,-0.5977783203125,2.5393524169921875,9.18450927734375,-0.5114445650505548,-0.4546173911560487,-1.634874079734252,16
410,7576.0,-0.1059885323047638,-0.021308422088623047,0.04862689971923828,-0.5977783203125,2.5393524169921875,9.18450927734375,-0.5114445650505548,-0.4546173911560487,-1.634874079734252,16
411,7596.0,-0.1348590850830078,-0.005759716033935547,0.048226356506347656,-0.6001739501953125,2.6051483154296875,8.900955200195312,0.1608646153321403,-1.3463668891929135,-1.6060233606801182,16
412,7612.0,-0.13674655556678772,0.060840606689453125,-0.229644775390625,-0.50445556640625,2.6398468017578125,8.8626708984375,-1.8586857184572299,-2.3019376748343774,-2.3745016045765928,16
413,7629.0,-0.13674655556678772,0.060840606689453125,-0.229644775390625,-0.5487213134765625,2.5979766845703125,9.238357543945312,-1.8586857184572299,-2.3019376748343774,-2.3745016045765928,16
414,7650.0,-0.0917564332485199,0.06914258003234863,0.10359859466552734,-0.5056610107421875,2.5525054931640625,9.262283325195312,-2.537989012550018,-1.4573984443406407,-2.5353662199087332,16
415,7668.0,-0.04811668395996094,0.028512001037597656,0.12242317199707031,-0.4781341552734375,2.536956787109375,9.110336303710938,-1.4416616884929314,-0.49920486605789194,-2.3867413035692557,16
416,7684.0,-0.01932629942893982,0.01670098304748535,-0.0298004150390625,-0.4781341552734375,2.536956787109375,9.110336303710938,-1.47838078547092,-0.22643443136426272,-2.165552457487563,16
417,7701.0,-0.01888677477836609,0.01988697052001953,-0.0299835205078125,-0.6408538818359375,2.5836181640625,9.14862060546875,-1.1391662705314067,-0.8707671569065856,-1.5430763372892806,16
418,7723.0,-0.17811113595962524,0.06771254539489746,0.0071620941162109375,-0.5618896484375,2.5764312744140625,9.1031494140625,-1.0517398491552434,-0.9975354679020223,-0.919725952877237,16
419,7740.0,-0.1644158661365509,0.05834507942199707,-0.06024456024169922,-0.6420440673828125,2.5584869384765625,9.241943359375,-1.1470346484552614,-0.8489105515625448,-0.9730560699166966,16
420,7757.0,-0.09555837512016296,0.06408977508544922,-0.037652015686035156,-0.6420440673828125,2.5584869384765625,9.241943359375,-1.7153063874003223,-1.3297558691314424,-1.342869832337867,16
421,7774.0,-0.17398908734321594,0.04914426803588867,0.09699344635009766,-0.5654754638671875,2.55010986328125,9.238357543945312,-1.442535952706693,-1.8001100161352006,-1.2213471066250001,16
422,7791.0,-0.0994555652141571,0.042706966400146484,0.08972835540771484,-0.521209716796875,2.5237884521484375,9.0433349609375,-0.7982032271643701,-2.474167724945419,-1.0893332103469937,16
423,7808.0,-0.10135352611541748,0.04392290115356445,0.08634090423583984,-0.590606689453125,2.530975341796875,9.087600708007812,-0.9302171234423766,-1.723174765324177,-1.174136839081872,16
424,7824.0,-0.057869911193847656,0.01970839500427246,-0.10649394989013672,-0.5547027587890625,2.5584869384765625,8.963180541992188,-0.9555707856414639,-0.6661893308863637,-0.9171031602359521,16
425,7842.0,-0.08768138289451599,0.05797624588012695,-0.1814889907836914,-0.584625244140625,2.53216552734375,9.099563598632812,-1.5439506015030424,-0.9249715381598068,-0.9398340297937545,16
426,7859.0,-0.08768138289451599,0.05797624588012695,-0.1814889907836914,-0.6181182861328125,2.51422119140625,9.159393310546875,-1.5439506015030424,-0.9249715381598068,-0.9398340297937545,16
427,7876.0,-0.11627903580665588,0.03594803810119629,-0.0453643798828125,-0.6181182861328125,2.51422119140625,9.159393310546875,-2.327291337033465,-1.1033214377671798,-1.0255119227423946,16
428,7893.0,-0.14730936288833618,0.024229049682617188,0.012143135070800781,-0.4996795654296875,2.4568023681640625,9.27783203125,-2.7740403502656585,-0.5333011703945956,-0.1958351838826056,16
429,7909.0,-0.14411646127700806,0.030371904373168945,0.009906768798828125,-0.4817352294921875,2.4699554443359375,9.263473510742188,-2.4418199490362387,-0.2421711872119721,-0.11802566885782034,16
430,7932.0,-0.010064035654067993,-0.005110025405883789,0.10510921478271484,-0.5379638671875,2.530975341796875,9.045730590820312,-0.8113171903707946,-1.273802959450698,-1.2178500497699536,16
431,7950.0,-0.06652775406837463,0.057047367095947266,-0.11034011840820312,-0.5260009765625,2.49627685546875,9.038543701171875,-1.1295493641800287,-0.959942106710272,-1.1566515548066394,16
432,7967.0,-0.05403757095336914,0.025612354278564453,-0.11536312103271484,-0.5535125732421875,2.46636962890625,9.165374755859375,-1.7424085780269327,-0.36019685606979246,-0.9240972739460451,16
433,7983.0,-0.08018818497657776,0.0013604164123535156,0.009610176086425781,-0.5535125732421875,2.46636962890625,9.165374755859375,-2.419089079478436,-0.7780951502478526,-0.7238907689946315,16
434,8001.0,-0.08128610253334045,0.008330583572387695,0.00728607177734375,-0.4948883056640625,2.419708251953125,9.107940673828125,-2.86583809271063,-2.23899065144354,-1.0115236953222084,16
435,8020.0,-0.028893262147903442,-0.028727293014526367,-0.051392555236816406,-0.42071533203125,2.395782470703125,8.978729248046875,-3.565249463719936,-3.619453844973157,-1.2213471066250001,16
436,8039.0,0.036604851484298706,-0.04007315635681152,-0.1789264678955078,-0.5307769775390625,2.4101409912109375,9.070846557617188,-4.81544728939907,-2.8072623903886007,-1.5561903004957052,16
437,8059.0,-0.07627794146537781,-0.012259721755981445,-0.08801937103271484,-0.4410552978515625,2.362274169921875,9.313720703125,-4.800584797765122,-1.7284203506067468,-1.4871234276085363,16
438,8077.0,-0.05606323480606079,-0.05241703987121582,0.07750129699707031,-0.4410552978515625,2.362274169921875,9.313720703125,-4.13526973109252,-1.2536948825341805,-1.5701785279158913,16
439,8095.0,0.009774535894393921,-0.02553105354309082,0.1362171173095703,-0.569061279296875,2.4005584716796875,9.225189208984375,-2.9147968886812814,-0.2745189631211525,-2.200523026038028,16
440,8113.0,0.009774535894393921,-0.02553105354309082,0.1362171173095703,-0.6695709228515625,2.4161224365234375,9.219207763671875,-2.9147968886812814,-0.2745189631211525,-2.200523026038028,16
441,8131.0,-0.20607325434684753,0.041413068771362305,0.035735130310058594,-0.587005615234375,2.4208984375,9.18450927734375,-2.478539046014227,1.0272604511699177,-1.2064846149910524,16
442,8150.0,-0.11681577563285828,0.051416873931884766,-0.0005092620849609375,-0.6169281005859375,2.4221038818359375,9.22998046875,-2.4016037952032034,0.9634391635653186,-0.7378789964148175,16
443,8167.0,-0.1405526101589203,0.057439565658569336,0.04220294952392578,-0.632476806640625,2.44244384765625,9.215621948242188,-2.309806052758232,0.20195503337893703,-0.995786939474499,16
444,8184.0,-0.1515384316444397,0.0818183422088623,0.025488853454589844,-0.632476806640625,2.44244384765625,9.215621948242188,-2.3185486948958483,-0.5717687958001074,-1.114686872546081,16
445,8201.0,-0.14764153957366943,0.08527159690856934,0.02329540252685547,-0.5953826904296875,2.43048095703125,9.264678955078125,-1.9076445144278813,-0.396915953047781,-1.727546086392985,16
446,8218.0,-0.10590186715126038,0.07611274719238281,0.06918811798095703,-0.7054595947265625,2.5046539306640625,9.263473510742188,-1.5981549827562636,0.6714349161689335,-1.8936562870076952,16
447,8235.0,-0.2066740095615387,0.14994215965270996,0.06528854370117188,-0.69110107421875,2.4711456298828125,9.354400634765625,-1.1776338959369186,1.1312978926075519,-0.9232230097322836,16
448,8255.0,-0.18460720777511597,0.11644101142883301,0.15117454528808594,-0.5606842041015625,2.4041595458984375,9.4884033203125,-1.211730200273622,0.2718961704798676,-0.651326839252416,16
449,8273.0,-0.052993953227996826,0.0505368709564209,0.2766103744506836,-0.6360626220703125,2.45440673828125,9.487197875976562,-0.5516607188835899,-1.0202663374598246,-1.352486738689245,16
450,8289.0,-0.1270357370376587,0.0975649356842041,0.26773834228515625,-0.6360626220703125,2.45440673828125,9.487197875976562,1.015020752177255,-1.3446183607653903,-1.2519463541066571,16
451,8307.0,-0.1260271668434143,0.0907127857208252,0.26121997833251953,-0.5116424560546875,2.4711456298828125,9.27783203125,2.23374506616097,-1.0106494311084468,-0.4511203343010022,16
452,8327.0,-0.0027094483375549316,0.0982675552368164,0.05194091796875,-0.5882110595703125,2.4149169921875,9.109130859375,2.5292463704124017,-0.06644408024588404,-0.34446010022208307,16
453,8344.0,-0.07284116744995117,0.02841782569885254,-0.10921382904052734,-0.6193084716796875,2.407745361328125,9.0552978515625,1.4416616884929314,1.5693042637021297,0.6889202004441661,16
454,8361.0,-0.07284116744995117,0.02841782569885254,-0.10921382904052734,-0.6193084716796875,2.407745361328125,9.0552978515625,1.4416616884929314,1.5693042637021297,0.6889202004441661,16
455,8378.0,-0.09914731979370117,0.01623988151550293,-0.15317153930664062,-0.4781341552734375,2.3885955810546875,9.061279296875,-0.0244793979853257,-1.6549821566507696,0.8908752338231032,16
456,8395.0,-0.09914731979370117,0.01623988151550293,-0.15317153930664062,-0.4661712646484375,2.3790283203125,9.115127563476562,-0.0244793979853257,-1.6549821566507696,0.8908752338231032,16
457,8411.0,0.036593496799468994,-0.003091096878051758,-0.14327430725097656,-0.555908203125,2.3287811279296875,9.109130859375,0.1739785785385648,-1.3673492303231927,-0.0017485284275232642,16
458,8428.0,-0.04492074251174927,-0.06204652786254883,-0.09023666381835938,-0.6133270263671875,2.3933868408203125,9.218017578125,0.16698446482847173,0.2150689965853615,0.17834989960737296,16
459,8445.0,-0.04492074251174927,-0.06204652786254883,-0.09023666381835938,-0.5247955322265625,2.2833099365234375,9.32568359375,0.16698446482847173,0.2150689965853615,0.17834989960737296,16
460,8463.0,-0.002548813819885254,-0.11178421974182129,0.1269512176513672,-0.5247955322265625,2.2833099365234375,9.32568359375,1.739785785385648,2.5677139958179134,1.7056894810489442,16
461,8482.0,0.0030724406242370605,-0.11774468421936035,0.12841796875,-0.433868408203125,2.3060455322265625,9.13665771484375,2.911299831826235,2.251230350436203,0.7387532606285792,16
462,8500.0,0.0030724406242370605,-0.11774468421936035,0.12841796875,-0.6635894775390625,2.3479156494140625,8.90814208984375,2.911299831826235,2.251230350436203,0.7387532606285792,16
463,8516.0,-0.12352573871612549,-0.06731081008911133,-0.2830982208251953,-0.9064483642578125,2.361083984375,9.119903564453125,2.759177858631711,3.151722490610684,1.0823390966369006,16
464,8535.0,-0.3560451865196228,-0.06361627578735352,-0.06796550750732422,-0.569061279296875,2.4173126220703125,8.623397827148438,4.2847689116457595,4.280397590576951,2.176917892266464,16
465,8553.0,-0.00857466459274292,-0.017936229705810547,-0.5587158203125,-0.761688232421875,2.4831085205078125,8.308746337890625,3.3475576744932893,4.348590199250358,2.218882574527022,16
466,8570.0,-0.19012576341629028,0.04400944709777832,-0.8681297302246094,-0.761688232421875,2.4831085205078125,8.308746337890625,-0.8742642137616321,4.394926202579724,1.9233812702755906,16
467,8587.0,-0.18079888820648193,0.051429033279418945,-0.8659915924072266,-0.932769775390625,2.52618408203125,8.69158935546875,-5.0584927408248035,3.065170333448282,2.160306872204993,16
468,8604.0,-0.3483504056930542,0.11018586158752441,-0.48525047302246094,-0.819122314453125,2.5345611572265625,8.849517822265625,-7.243279011015122,-0.29724983267895494,2.4689221396628493,16
469,8621.0,-0.24120038747787476,0.13998746871948242,-0.3321723937988281,-0.67315673828125,2.5058441162109375,8.991897583007812,-9.449921886549483,-3.9420573398511993,2.6297867549949894,16
470,8639.0,-0.10972338914871216,0.13947796821594238,-0.197357177734375,-0.485321044921875,2.4627838134765625,9.67742919921875,-12.268549711716984,-5.839210683713941,2.4496883269600933,16
471,8656.0,0.060056865215301514,0.12816643714904785,0.4768524169921875,-0.71502685546875,2.6159210205078125,10.138046264648438,-11.970425614824267,-6.266725884243379,1.8604342468847532,16
472,8673.0,-0.18571937084197998,0.306079626083374,0.9260396957397461,-0.71502685546875,2.6159210205078125,10.138046264648438,-7.6340751145665715,-5.0401331923358095,2.8125079756711706,16
473,8689.0,-0.1990627646446228,0.3176894187927246,0.9181594848632812,-0.23406982421875,2.3551025390625,9.952606201171875,-2.2372421230160167,-4.222696152468683,2.131456153150859,16
474,8706.0,0.2697955369949341,0.05845308303833008,0.7286090850830078,-0.334564208984375,2.5453338623046875,9.520706176757812,0.7667297154689514,-3.3737856009061384,-0.021856605344040804,16
475,8723.0,0.16145259141921997,0.24517536163330078,0.2957000732421875,-0.3764495849609375,2.5644683837890625,9.269454956054688,1.107692758835988,-2.1026054340967253,-0.648704046611131,16
476,8739.0,0.11501681804656982,0.26135897636413574,0.044508934020996094,-0.2998809814453125,2.46038818359375,9.268264770507812,0.36893949820740873,-1.3813374577433788,-1.2458265046103258,16
477,8756.0,0.1893104612827301,0.15735960006713867,0.042876243591308594,-0.2998809814453125,2.46038818359375,9.268264770507812,-0.7256392974221547,-0.6067393643505727,-2.322045751750895,16
478,8773.0,0.1894717514514923,0.1579439640045166,0.042438507080078125,-0.4183197021484375,2.4244842529296875,9.44891357421875,0.06906687288716894,0.06731834445964567,-2.6673801161867394,16
479,8790.0,0.07461124658584595,0.11807751655578613,0.22322559356689453,-0.4829254150390625,2.3000640869140625,9.580520629882812,2.7679205007693275,1.5413278088617575,-2.423460400547244,16
480,8813.0,0.016995370388031006,-0.016552448272705078,0.35629844665527344,-0.5068511962890625,2.2749481201171875,8.984710693359375,5.110948593650502,2.419963343692198,-2.637655132918844,16
481,8833.0,0.0704505443572998,-0.09069085121154785,0.12149715423583984,-0.555908203125,2.3347625732421875,8.7490234375,5.203620600309234,1.3393727754828204,-3.2907305005987832,16
482,8850.0,-0.045450806617736816,-0.011842012405395508,-0.4644451141357422,-0.5295867919921875,2.368255615234375,8.732269287109375,1.0115236953222084,-1.7240490295379385,-2.775788878693182,16
483,8867.0,-0.045450806617736816,-0.011842012405395508,-0.4644451141357422,-0.5295867919921875,2.368255615234375,8.732269287109375,1.0115236953222084,-1.7240490295379385,-2.775788878693182,16
484,8884.0,-0.02270817756652832,0.025048255920410156,-0.4783153533935547,-0.545135498046875,2.386199951171875,8.928482055664062,-1.8044813372040087,-0.1792241638211346,-2.226750952450877,16
485,8901.0,-0.03575718402862549,0.04881620407104492,-0.28232288360595703,-0.7006683349609375,2.4029541015625,9.177337646484375,-2.3727530761490696,0.5805114379377238,-3.0433137281042413,16
486,8919.0,-0.03575718402862549,0.04881620407104492,-0.28232288360595703,-0.668365478515625,2.4280853271484375,9.192886352539062,-2.3727530761490696,0.5805114379377238,-3.0433137281042413,16
487,8936.0,-0.15903306007385254,0.10023713111877441,-0.02036571502685547,-0.70306396484375,2.5333709716796875,9.167755126953125,-1.1487831768827845,-3.3003474069501615,-4.242804229385201,16
488,8953.0,-0.15903306007385254,0.10023713111877441,-0.02036571502685547,-0.7066497802734375,2.5644683837890625,9.194076538085938,-1.1487831768827845,-3.3003474069501615,-4.242804229385201,16
489,8971.0,-0.20732077956199646,0.2405717372894287,-0.02100372314453125,-0.7066497802734375,2.5644683837890625,9.194076538085938,-0.6259731770533286,-2.6324095476362745,-3.030199764897817,16
490,8988.0,-0.21170231699943542,0.24111080169677734,-0.02158832550048828,-0.755706787109375,2.5943756103515625,9.385513305664062,-0.24916530092206515,-2.532743427267448,-1.9784599157425735,16
491,9006.0,-0.21170231699943542,0.24111080169677734,-0.02158832550048828,-0.5774383544921875,2.55609130859375,9.469253540039062,-0.24916530092206515,-2.532743427267448,-1.9784599157425735,16
492,9027.0,-0.09465134143829346,0.2253875732421875,0.2524280548095703,-0.61572265625,2.584808349609375,9.313720703125,2.224128159809592,-2.852724129504206,-0.5131930934780781,16
493,9045.0,-0.1403827667236328,0.2478189468383789,0.09740066528320312,-0.7760467529296875,2.685302734375,9.135452270507812,1.6986953673388512,-3.265376838399696,-0.14337933105690767,16
494,9062.0,-0.3107842206954956,0.345684289932251,-0.0808095932006836,-0.62530517578125,2.648223876953125,9.43096923828125,-0.843664966279975,-5.059367005038565,0.5516607188835899,16
495,9080.0,-0.171624094247818,0.3092188835144043,0.21271896362304688,-0.6360626220703125,2.565673828125,9.470458984375,-0.6460812539698462,-3.664915584088762,0.96955901306165,16
496,9097.0,-0.1784769892692566,0.3073101043701172,0.21162033081054688,-0.6360626220703125,2.565673828125,9.470458984375,1.0167692806047781,-1.4967403339599141,0.869892892692824,16
497,9114.0,-0.19175738096237183,0.2179720401763916,0.2513914108276367,-0.6540069580078125,2.44482421875,9.453704833984375,3.205926871863905,-0.2902557189688619,1.7913673739975842,16
498,9133.0,-0.09525388479232788,-0.03804636001586914,-0.056362152099609375,-0.2472381591796875,2.2952728271484375,8.783721923828125,5.464151336010201,-3.876487523819077,1.3551095313305297,16
499,9150.0,-0.09525388479232788,-0.03804636001586914,-0.056362152099609375,-0.3716583251953125,2.2952728271484375,8.626983642578125,5.464151336010201,-3.876487523819077,1.3551095313305297,16
500,9167.0,0.17402759194374084,-0.09318232536315918,-0.42490482330322266,-0.3716583251953125,2.332366943359375,8.626983642578125,4.602126821241232,-5.031390550198193,-0.430137993170723,16
501,9185.0,0.022789090871810913,-0.06683182716369629,-0.5750217437744141,-0.3704681396484375,2.32159423828125,8.737060546875,0.14075653841562277,-4.839052423170634,-1.2825456015883143,16
502,9202.0,0.022789090871810913,-0.06683182716369629,-0.5750217437744141,-0.25201416015625,2.2892913818359375,8.899765014648438,0.14075653841562277,-4.839052423170634,-1.2825456015883143,16
503,9221.0,0.12357175350189209,-0.10647416114807129,-0.300506591796875,-0.36328125,2.3311767578125,9.046920776367188,-1.161897140089209,-2.3124288453995168,-1.6270057018103974,16
504,9238.0,0.008973568677902222,-0.061533212661743164,-0.15357303619384766,-0.4900970458984375,2.432861328125,9.009841918945312,-0.7859635281717073,-0.9520737287864174,-1.5247167888002864,16
505,9255.0,0.008973568677902222,-0.061533212661743164,-0.15357303619384766,-0.4900970458984375,2.432861328125,9.009841918945312,-0.7859635281717073,-0.9520737287864174,-1.5247167888002864,16
506,9272.0,-0.11396697163581848,0.0437929630279541,-0.18998241424560547,-0.5702667236328125,2.4388427734375,9.0433349609375,-0.9783016551992664,1.4075653841562277,0.42401814367439156,16
507,9290.0,-0.11396697163581848,0.0437929630279541,-0.18998241424560547,-0.52239990234375,2.46038818359375,9.0732421875,-0.9783016551992664,1.4075653841562277,0.42401814367439156,16
508,9307.0,-0.138299822807312,0.08255982398986816,-0.12818145751953125,-0.5774383544921875,2.437652587890625,9.360382080078125,-3.448098059075877,1.0867104177057088,1.3376242470552973,16
509,9330.0,-0.19158169627189636,0.06788468360900879,0.15619182586669922,-0.6587982177734375,2.4747467041015625,9.390289306640625,-2.8448557515803508,0.25528515041839656,1.114686872546081,16
510,9348.0,-0.27319037914276123,0.11004400253295898,0.18385028839111328,-0.6468353271484375,2.5465240478515625,9.080429077148438,-1.345492624979152,-0.7212679763533465,1.0849618892781854,16
511,9365.0,-0.26422619819641113,0.18449950218200684,-0.1265392303466797,-0.6468353271484375,2.5465240478515625,9.080429077148438,-1.297408093222262,-1.8053556014177703,0.9267200665873301,16
512,9382.0,-0.26821985840797424,0.1894383430480957,-0.1276836395263672,-0.5128326416015625,2.5979766845703125,9.16656494140625,-3.022331386973962,-1.5526932436406586,0.7684782438964747,16
513,9399.0,-0.1396760642528534,0.2478163242340088,-0.04364490509033203,-0.5822296142578125,2.5955810546875,9.294586181640625,-2.926162323460183,-2.640277925560129,0.35145421393217613,16
514,9416.0,-0.21517077088356018,0.25076842308044434,0.0821218490600586,-0.334564208984375,2.5477294921875,8.948822021484375,-1.8516916047471368,-2.316800166468325,0.5472893978147817,16
515,9433.0,-0.12613031268119812,0.21314406394958496,0.032876014709472656,-0.334564208984375,2.5477294921875,8.948822021484375,-1.1243037788974588,-1.8053556014177703,0.7256392974221547,16
516,9450.0,0.0222780704498291,0.20888328552246094,-0.2650566101074219,-0.43267822265625,2.6111297607421875,8.972747802734375,-1.7188034442553688,-1.3918286283085184,0.2526623577771117,16
517,9467.0,-0.07902157306671143,0.27775049209594727,-0.24193477630615234,-0.43267822265625,2.6111297607421875,8.972747802734375,-3.1936871728712424,-1.207358879204814,-0.22993148821930925,16
518,9484.0,-0.08166787028312683,0.28630900382995605,-0.24349689483642578,-0.4063568115234375,2.5417327880859375,9.195281982421875,-4.026860968586077,-1.0543626417965284,0.03846762540551182,16
519,9502.0,-0.05777624249458313,0.2255253791809082,-0.023372650146484375,-0.4254913330078125,2.46636962890625,9.526687622070312,-3.0336968217528635,-1.0447457354451504,-0.5166901503331246,16
520,9521.0,-0.0760168731212616,0.15508127212524414,0.30443572998046875,-0.5307769775390625,2.48431396484375,9.3436279296875,0.8392936452111669,0.6434584613285612,-1.3384985112690588,16
521,9540.0,-0.0760168731212616,0.15508127212524414,0.30443572998046875,-0.5056610107421875,2.443634033203125,9.285003662109375,0.8392936452111669,0.6434584613285612,-1.3384985112690588,16
522,9558.0,-0.14585891366004944,0.12400507926940918,0.0641031265258789,-0.5056610107421875,2.443634033203125,9.285003662109375,1.3577323239718146,1.9941966715902828,0.1363852173468146,16
523,9574.0,-0.14178839325904846,0.11827826499938965,0.06528377532958984,-0.455413818359375,2.4125213623046875,9.318511962890625,2.5274978419848786,0.5079475081955083,-0.4257666721019148,16
524,9592.0,-0.14178839325904846,0.11827826499938965,0.06528377532958984,-0.403961181640625,2.461578369140625,9.056503295898438,2.5274978419848786,0.5079475081955083,-0.4257666721019148,16
525,9609.0,-0.04579192399978638,0.12301468849182129,-0.16008567810058594,-0.409942626953125,2.49627685546875,8.924896240234375,1.5308366382966179,-2.5563485610390124,-1.3638521734681461,16
526,9625.0,-0.05547580122947693,0.15470409393310547,-0.29003143310546875,-0.4290924072265625,2.4878997802734375,8.989501953125,0.30861526745785617,-0.9442053508625627,-0.9450796150763243,16
527,9643.0,-0.07445845007896423,0.14593815803527832,-0.22454833984375,-0.41473388671875,2.449615478515625,9.0732421875,-0.4126527088954904,0.4388806353083393,-0.622476120198282,16
528,9660.0,-0.05906844139099121,0.10901451110839844,-0.14065170288085938,-0.41473388671875,2.449615478515625,9.0732421875,-0.8873781769680567,-0.16173887954590194,-0.5735173242276307,16
529,9677.0,-0.05906844139099121,0.10901451110839844,-0.14065170288085938,-0.4231109619140625,2.437652587890625,9.089996337890625,-0.8873781769680567,-0.16173887954590194,-0.5735173242276307,16
530,9694.0,-0.06835314631462097,0.10209918022155762,-0.12435245513916016,-0.4314727783203125,2.4400482177734375,9.081619262695312,-1.3865830430259485,-0.3182321738092341,-1.2694316383818898,16
531,9711.0,-0.075916588306427,0.1086275577545166,-0.1333169937133789,-0.521209716796875,2.4400482177734375,9.19647216796875,-1.9085187786416429,-0.00786837792385469,-1.4224278757901754,16
532,9728.0,-0.16006749868392944,0.11139202117919922,-0.019374847412109375,-0.4410552978515625,2.4041595458984375,9.3197021484375,-2.385867039355494,0.027976454840372228,-1.4635182938369722,16
533,9744.0,-0.07593300938606262,0.07855749130249023,0.09973907470703125,-0.491302490234375,2.383819580078125,9.37713623046875,-1.4128109694387976,0.5000791302716536,-1.7546482770195957,16
534,9761.0,-0.07593300938606262,0.07855749130249023,0.09973907470703125,-0.491302490234375,2.383819580078125,9.37713623046875,-1.4128109694387976,0.5000791302716536,-1.7546482770195957,16
535,9778.0,-0.11118349432945251,0.0555109977722168,0.14876651763916016,-0.5618896484375,2.4149169921875,9.240737915039062,1.6383711365892986,1.5771726416259844,-2.0046878421554224,16
536,9795.0,-0.17279624938964844,0.08165121078491211,0.012830734252929688,-0.5307769775390625,2.4579925537109375,8.957199096679688,0.4703541470037581,0.387299046696403,-2.048401052843504,16
537,9812.0,-0.1365383267402649,0.1228475570678711,-0.2635374069213867,-0.4948883056640625,2.4819183349609375,8.989501953125,-1.508980032952577,-0.47122841121751974,-1.9242555344893524,16
538,9831.0,-0.10010501742362976,0.14866876602172852,-0.22641754150390625,-0.497283935546875,2.473541259765625,9.17852783203125,-2.8737064706344846,-2.220631102954546,-1.9373694976957767,16
539,9848.0,-0.10501992702484131,0.1444091796875,-0.038604736328125,-0.497283935546875,2.473541259765625,9.305343627929688,-3.063421805020759,-2.8623410358555836,-1.9933224073765212,16
540,9865.0,-0.1074816882610321,0.14773178100585938,0.08368301391601562,-0.52838134765625,2.4807281494140625,9.305343627929688,-2.366633226652738,-2.1646781932738013,-1.68732993255995,16
541,9882.0,-0.13831427693367004,0.15593576431274414,0.07986831665039062,-0.4075469970703125,2.4771270751953125,9.273040771484375,-1.5553160362819436,-1.333252925986489,-1.3612293808268612,16
542,9900.0,-0.018659740686416626,0.15126514434814453,0.045375823974609375,-0.497283935546875,2.50225830078125,9.249114990234375,-0.7317591469184861,-0.6478297823973694,-1.4705124075470652,16
543,9920.0,-0.10592871904373169,0.17270636558532715,0.02052593231201172,-0.5463409423828125,2.4568023681640625,9.330474853515625,-0.07518672238350037,-0.4458747490184324,-1.2292154845488548,16
544,9938.0,-0.05333468317985535,0.1313779354095459,0.08058929443359375,-0.5068511962890625,2.407745361328125,9.294586181640625,0.5437923409597352,0.38205346141383323,-1.4355418389966,16
545,9955.0,-0.14656567573547363,0.11738944053649902,0.09760475158691406,-0.5068511962890625,2.407745361328125,9.294586181640625,1.2458265046103258,0.3680652339936471,-1.1138126083323194,16
546,9971.0,-0.09865373373031616,0.05523419380187988,0.060821533203125,-0.5020599365234375,2.4113311767578125,9.050506591796875,2.3675074908664997,-0.03671909697798855,-0.5507864546698282,16
547,9988.0,-0.09865373373031616,0.05523419380187988,0.060821533203125,-0.45062255859375,2.383819580078125,8.959579467773438,2.3675074908664997,-0.03671909697798855,-0.5507864546698282,16
548,10005.0,-0.09246402978897095,0.053053855895996094,-0.1771688461303711,-0.6073455810546875,2.377838134765625,9.306549072265625,0.8296767388597889,-1.197741972853436,-0.6854231435891196,16
549,10021.0,-0.04284408688545227,0.024695873260498047,-0.2607460021972656,-0.5977783203125,2.3874053955078125,9.293380737304688,-0.6399614044735147,-1.5456991299305656,-1.2440779761828025,16
550,10038.0,-0.19685915112495422,0.018525362014770508,0.0836172103881836,-0.5977783203125,2.3874053955078125,9.293380737304688,0.4825938459964209,-1.161897140089209,-0.8978693475331962,16
551,10055.0,-0.0594215989112854,0.03449726104736328,-0.2803163528442383,-0.47454833984375,2.4041595458984375,8.934463500976562,1.4705124075470652,-0.33746598651199,0.24391971563949535,16
552,10072.0,-0.0594215989112854,0.03449726104736328,-0.2803163528442383,-0.5307769775390625,2.4208984375,8.911727905273438,1.4705124075470652,-0.33746598651199,0.24391971563949535,16
553,10092.0,-0.05950823426246643,0.03174114227294922,-0.27214527130126953,-0.579833984375,2.4292755126953125,8.999069213867188,-0.09004921401744811,-1.045619999658912,-0.47385120385880464,16
554,10112.0,-0.1707095205783844,0.06421375274658203,-0.20125675201416016,-0.4889068603515625,2.449615478515625,9.060089111328125,-2.8649638284968684,-2.6079301496509486,-1.0202663374598246,16
555,10129.0,-0.08291882276535034,0.08946394920349121,-0.1384410858154297,-0.4709625244140625,2.4568023681640625,9.141448974609375,-2.600061771727094,-1.9102673070691663,-0.6670635951001254,16
556,10147.0,-0.06711503863334656,0.10090851783752441,-0.0574493408203125,-0.43865966796875,2.4568023681640625,9.409439086914062,-2.663883059331693,-1.3087735280011632,-0.14250506684314604,16
557,10164.0,-0.03844854235649109,0.10657858848571777,0.20794010162353516,-0.43865966796875,2.4268798828125,9.409439086914062,-1.8525658689608986,-1.640119665016822,-0.36981376242117037,16
558,10181.0,-0.03844854235649109,0.10657858848571777,0.20794010162353516,-0.334564208984375,2.4412384033203125,9.417816162109375,-1.8525658689608986,-1.640119665016822,-0.36981376242117037,16
559,10200.0,0.05474424362182617,0.09488224983215332,0.21292400360107422,-0.4350738525390625,2.5225982666015625,9.198867797851562,-0.029724983267895494,-3.2723709521097892,-2.236367858802255,16
560,10221.0,-0.054408252239227295,0.17734813690185547,-0.006836891174316406,-0.491302490234375,2.5979766845703125,9.141448974609375,-1.1321721568213137,-4.561036403194435,-2.6866139288894955,16
561,10238.0,-0.12261044979095459,0.2569742202758789,-0.0658416748046875,-0.5307769775390625,2.5584869384765625,9.200057983398438,-2.605307357009664,-5.986087071625895,-2.371878811935308,16
562,10257.0,-0.1781846582889557,0.22382521629333496,-0.009698867797851562,-0.5523223876953125,2.5357513427734375,9.092391967773438,-2.6227926412848963,-7.563259713251879,-1.8044813372040087,16
563,10273.0,-0.20015865564346313,0.23047828674316406,-0.012421607971191406,-0.2783355712890625,2.5824127197265625,9.087600708007812,-2.9130483602537582,-10.074146535175286,-1.0823390966369006,16
564,10292.0,-0.247014582157135,0.21611618995666504,-0.1228189468383789,-0.6061553955078125,2.530975341796875,9.32330322265625,-3.84064269105485,-10.290964060188172,-2.2748354842077667,16
565,10310.0,-0.3459893763065338,0.2296743392944336,0.1016683578491211,-0.508056640625,2.536956787109375,9.4525146484375,-3.226909212994184,-8.577406201215373,-0.7815922071028991,16
566,10327.0,-0.3459893763065338,0.2296743392944336,0.1016683578491211,-0.2771453857421875,2.432861328125,9.738449096679688,-3.226909212994184,-8.577406201215373,-0.7815922071028991,16
567,10344.0,-0.2661954462528229,0.24274611473083496,0.22738170623779297,-0.2771453857421875,2.432861328125,9.738449096679688,-2.7652977081280423,-5.868935666981836,0.4869651670652291,16
568,10361.0,-0.0481937974691391,0.1364302635192871,0.5089759826660156,-0.21612548828125,2.3180084228515625,9.773147583007812,4.064454329777828,0.11889993307158198,-0.8086943977295097,16
569,10378.0,-0.0481937974691391,0.1364302635192871,0.5089759826660156,-0.46258544921875,2.3311767578125,9.627182006835938,4.064454329777828,0.11889993307158198,-0.8086943977295097,16
570,10395.0,-0.22401879727840424,-0.002008199691772461,0.4031791687011719,-0.533172607421875,2.3634796142578125,9.255096435546875,9.019783893378758,2.6105529422922333,-0.40653285939915895,16
571,10412.0,-0.22401879727840424,-0.002008199691772461,0.4031791687011719,-0.45660400390625,2.3766326904296875,8.947616577148438,9.019783893378758,2.6105529422922333,-0.40653285939915895,16
572,10431.0,-0.28671395778656006,0.0071659088134765625,0.0369873046875,-0.5188140869140625,2.3933868408203125,8.999069213867188,8.092189562577667,2.247733293581156,0.018359548488994275,16
573,10449.0,-0.26681962609291077,0.0050945281982421875,-0.208740234375,-0.5188140869140625,2.3933868408203125,8.999069213867188,4.358207105601736,-0.4825938459964209,0.4082813878266822,16
574,10467.0,-0.2679455280303955,-0.006307363510131836,-0.2049732208251953,-0.5188140869140625,2.44244384765625,8.965576171875,4.065328593991589,-0.6976628425817825,1.4661410864782571,16
575,10484.0,-0.2695862650871277,0.03216052055358887,-0.23482513427734375,-0.3955841064453125,2.4412384033203125,8.760986328125,3.5984715038428776,-0.47122841121751974,1.9286268555581605,16
576,10502.0,-0.14958587288856506,0.025144338607788086,-0.43619823455810547,-0.39080810546875,2.4388427734375,8.799270629882812,0.549037926242305,-1.5526932436406586,1.2676831099543666,16
577,10522.0,-0.1511133462190628,0.02315521240234375,-0.39657020568847656,-0.3333740234375,2.4340667724609375,9.089996337890625,-0.9844215046955977,-2.9891093468510204,1.0412486785901038,16
578,10539.0,-0.10196919739246368,0.02040266990661621,-0.10617637634277344,-0.235260009765625,2.44244384765625,9.182113647460938,-0.6268474412670902,-3.0197085943326774,0.7177709194983,16
579,10555.0,-0.010554969310760498,0.029071569442749023,-0.014275550842285156,-0.235260009765625,2.44244384765625,9.182113647460938,0.2885071905413386,-1.6584792135058162,0.5333011703945956,16
580,10572.0,-0.01450715959072113,0.02766251564025879,-0.013976097106933594,-0.1323699951171875,2.4292755126953125,9.147430419921875,0.6574466887487473,-1.1706397822268255,0.03846762540551182,16
581,10590.0,0.08580587804317474,0.01202845573425293,-0.047878265380859375,-0.1527099609375,2.4053497314453125,9.107940673828125,1.1426633273864533,-0.5525349830973515,-0.3295976085881353,16
582,10607.0,0.06392508745193481,-0.013684272766113281,-0.08655166625976562,-0.0904998779296875,2.374237060546875,9.240737915039062,0.24916530092206515,-0.6434584613285612,-0.6233503844120437,16
583,10625.0,0.12411610782146454,-0.044519901275634766,0.045993804931640625,-0.2256927490234375,2.371856689453125,9.322097778320312,-0.2753932273349141,-0.9310913876561382,-1.1286750999662671,16
584,10644.0,-0.11293397843837738,0.014372825622558594,-0.09350967407226562,-0.328582763671875,2.4352569580078125,9.10076904296875,0.2981240968927166,-0.5665232105175376,-1.6506108355819615,16
585,10660.0,-0.11293397843837738,0.014372825622558594,-0.09350967407226562,-0.3537139892578125,2.4472198486328125,8.871047973632812,1.4958660697461525,0.8917494980368648,-1.4661410864782571,16
586,10678.0,-0.10991880297660828,0.011305570602416992,-0.0922689437866211,-0.274749755859375,2.4627838134765625,8.963180541992188,0.8095686619432714,0.2981240968927166,-1.2213471066250001,16
587,10694.0,-0.13518822193145752,0.024119138717651367,-0.32091617584228516,-0.4709625244140625,2.4819183349609375,9.146224975585938,-1.452152859058071,-1.5317109025103794,-1.4748837286158734,16
588,10712.0,-0.058247506618499756,0.04494786262512207,-0.22931480407714844,-0.3190155029296875,2.4687652587890625,9.134262084960938,-2.5222522567023087,-0.9870442973368827,-1.6934497820562815,16
589,10729.0,-0.1013084203004837,0.061885833740234375,-0.060805320739746094,-0.232879638671875,2.47833251953125,9.000259399414062,-1.4775065212571583,0.6102364212056193,-0.4484975416597173,16
590,10746.0,-0.1013084203004837,0.061885833740234375,-0.060805320739746094,-0.232879638671875,2.47833251953125,9.000259399414062,-1.4775065212571583,0.6102364212056193,-0.4484975416597173,16
591,10765.0,-0.012355685234069824,0.07320237159729004,-0.19031715393066406,-0.3812255859375,2.489105224609375,8.997879028320312,-1.3376242470552973,0.8148142472258412,-1.095453059843325,16
592,10782.0,-0.15305623412132263,0.08789563179016113,-0.18429088592529297,-0.49847412109375,2.53814697265625,8.873443603515625,-1.6173887954590194,-0.21157193973031496,-1.5413278088617575,16
593,10799.0,-0.15305623412132263,0.08789563179016113,-0.18429088592529297,-0.3608856201171875,2.4926910400390625,8.917709350585938,-1.6173887954590194,-0.21157193973031496,-1.5413278088617575,16
594,10816.0,-0.11938010156154633,0.09673285484313965,-0.25171852111816406,-0.3309783935546875,2.4747467041015625,9.003860473632812,-3.046810784959288,0.9538222572139406,-1.244952240396564,16
595,10833.0,-0.08261112868785858,0.08539271354675293,-0.1631460189819336,-0.403961181640625,2.507049560546875,9.028976440429688,-3.6229509018282036,1.7695107686535434,-1.1566515548066394,16
596,10850.0,-0.08261112868785858,0.08539271354675293,-0.1631460189819336,-0.403961181640625,2.507049560546875,9.028976440429688,-3.6229509018282036,1.7695107686535434,-1.1566515548066394,16
597,10867.0,-0.14120933413505554,0.13510560989379883,-0.13649845123291016,-0.3836212158203125,2.4268798828125,9.141448974609375,-5.480762356071672,-0.5166901503331246,-0.8454134947074983,16
598,10884.0,-0.14120933413505554,0.13510560989379883,-0.13649845123291016,-0.4015655517578125,2.4352569580078125,9.396270751953125,-5.480762356071672,-0.5166901503331246,-0.8454134947074983,16
599,10901.0,-0.1338542103767395,0.08545255661010742,0.21843719482421875,-0.41473388671875,2.408935546875,9.478836059570312,-3.2881077079574985,0.042838946474319975,-0.4878394312789907,16
600,10918.0,-0.14401084184646606,0.06466531753540039,0.2983407974243164,-0.3585052490234375,2.461578369140625,9.18450927734375,-1.022014865887348,1.682958611491142,0.22993148821930925,16
601,10935.0,-0.14401084184646606,0.06466531753540039,0.2983407974243164,-0.3549041748046875,2.479522705078125,8.898574829101562,-1.022014865887348,1.682958611491142,0.22993148821930925,16
602,10952.0,-0.07422608137130737,0.14099526405334473,-0.28221702575683594,-0.3549041748046875,2.479522705078125,8.898574829101562,-2.728578611150054,1.1863765380745348,0.21419473237159986,16
603,10969.0,-0.07422608137130737,0.14099526405334473,-0.28221702575683594,-0.4649810791015625,2.4747467041015625,9.12469482421875,-2.728578611150054,1.1863765380745348,0.21419473237159986,16
604,10985.0,-0.1823209524154663,0.15618014335632324,-0.06002044677734375,-0.3082427978515625,2.3359527587890625,9.265869140625,-4.181605734421886,-0.34446010022208307,0.8445392304937366,16
605,11004.0,-0.027936607599258423,0.026839256286621094,0.07834053039550781,-0.3357696533203125,2.4627838134765625,9.161773681640625,-2.9357792298115606,-1.4250506684314603,-0.5805114379377238,16
606,11023.0,-0.05823242664337158,0.1610274314880371,-0.02774524688720703,-0.497283935546875,2.4472198486328125,9.061279296875,-2.9690012699345028,-1.3253845480626343,-1.4582727085544025,16
607,11040.0,-0.22225135564804077,0.15382933616638184,-0.1300516128540039,-0.497283935546875,2.4472198486328125,8.999069213867188,-3.654424413523622,-1.8001100161352006,-0.8357965883561204,16
608,11057.0,-0.22657665610313416,0.16388273239135742,-0.19427776336669922,-0.380035400390625,2.3945770263671875,8.999069213867188,-4.255043928377863,-2.666505851972978,-1.3725948156057624,16
609,11076.0,-0.11367732286453247,0.12177872657775879,-0.19246768951416016,-0.352508544921875,2.3814239501953125,8.898574829101562,-6.039417188665355,-3.928069112431013,-2.474167724945419,16
610,11093.0,-0.09548208117485046,0.12674236297607422,-0.29659080505371094,-0.4075469970703125,2.3527069091796875,9.119903564453125,-7.648063341986758,-4.655456938280691,-3.025828443829009,16
611,11110.0,-0.16189472377300262,0.11873030662536621,-0.08042621612548828,-0.2771453857421875,2.3168182373046875,9.177337646484375,-7.911216870329009,-5.841833476355226,-3.317832691225394,16
612,11129.0,-0.04496346414089203,0.10380315780639648,-0.0283966064453125,-0.4410552978515625,2.3048553466796875,9.390289306640625,-7.7582206329207235,-6.125095081613995,-4.254169664164102,16
613,11147.0,-0.2349570393562317,0.1285560131072998,0.1734294891357422,-0.3596954345703125,2.2940826416015625,9.373550415039062,-5.858444496416697,-5.309406570174392,-3.6727839620126166,16
614,11164.0,-0.2349570393562317,0.1285560131072998,0.1734294891357422,-0.28790283203125,2.2294769287109375,9.22637939453125,-5.858444496416697,-5.309406570174392,-3.6727839620126166,16
615,11181.0,-0.08940498530864716,0.07965922355651855,0.0022678375244140625,-0.509246826171875,2.361083984375,9.399871826171875,-3.6990118884254657,0.810442926157033,-0.6967885783680208,16
616,11198.0,-0.08940498530864716,0.07965922355651855,0.0022678375244140625,-0.058197021484375,2.1983642578125,9.131866455078125,-3.6990118884254657,0.810442926157033,-0.6967885783680208,16
617,11215.0,-0.3078881502151489,0.22027111053466797,0.1727619171142578,-0.193389892578125,2.2474212646484375,9.171356201171875,-3.616831052331872,0.023605133771564066,-0.7177709194983,16
618,11232.0,0.006820783019065857,0.13387608528137207,-0.061577796936035156,-0.193389892578125,2.2474212646484375,9.171356201171875,-6.267600148457141,-0.47385120385880464,-2.970749798362026,16
619,11249.0,0.006820783019065857,0.13387608528137207,-0.061577796936035156,-0.4422454833984375,2.3180084228515625,9.338851928710938,-6.267600148457141,-0.47385120385880464,-2.970749798362026,16
620,11266.0,-0.23683327436447144,0.23790240287780762,0.0979146957397461,-0.368072509765625,2.2641754150390625,9.481216430664062,-6.372511854108536,1.6567306850782928,0.37680787613126343,16
621,11283.0,-0.23683327436447144,0.23790240287780762,0.0979146957397461,-0.3596954345703125,2.3072509765625,9.616424560546875,-6.372511854108536,1.6567306850782928,0.37680787613126343,16
622,11307.0,-0.13521486520767212,0.24872636795043945,0.36812591552734375,-0.4051513671875,2.32159423828125,9.32330322265625,-1.7091865379039908,5.619770366059771,2.6131757349335185,16
623,11329.0,-0.16560086607933044,0.2643153667449951,0.07452774047851562,-0.3154296875,2.3000640869140625,9.084014892578125,-0.15736755847709377,6.193287690287402,2.7792859355482284,16
624,11348.0,-0.0636289119720459,0.2524607181549072,-0.1656780242919922,-0.2592010498046875,2.203155517578125,9.225189208984375,-4.2480498146677705,-1.4941175413186294,-1.352486738689245,16
625,11365.0,-0.0636289119720459,0.2524607181549072,-0.1656780242919922,-0.515228271484375,2.344329833984375,9.43096923828125,-4.2480498146677705,-1.4941175413186294,-1.352486738689245,16
626,11382.0,-0.014984339475631714,0.16801762580871582,-0.02749919891357422,-0.28192138671875,2.1995697021484375,9.37713623046875,-5.350496988221189,-5.117942707360594,-3.030199764897817,16
627,11398.0,-0.27975550293922424,0.3206753730773926,0.1744823455810547,-0.18621826171875,2.108642578125,9.453704833984375,-3.9796507010429494,-3.28898197217126,-1.9443636114058698,16
628,11415.0,-0.052056893706321716,0.18483972549438477,0.11789417266845703,-0.455413818359375,2.149322509765625,9.642730712890625,-3.053804898669381,-2.023047390644417,-2.7040992131647283,16
629,11432.0,-0.23564520478248596,0.1464245319366455,0.3780498504638672,-0.455413818359375,2.149322509765625,9.642730712890625,-0.34358583600832143,-2.761800651272996,-4.480604095528364,16
630,11450.0,-0.23564520478248596,0.1464245319366455,0.3780498504638672,-0.3764495849609375,2.1576995849609375,9.318511962890625,-0.34358583600832143,-2.761800651272996,-4.480604095528364,16
631,11467.0,-0.2339962273836136,0.14237523078918457,0.37723445892333984,-0.3656768798828125,2.26177978515625,9.084014892578125,3.072164447158375,1.592035133259932,-3.2137952497877595,16
