,ms,accelX,accelY,accelZ,accelWithGX,accelWithGY,accelWithGZ,rotRateAlpha,rotRateBeta,rotRateGamma,interval
0,102.0,0.30000000000000004,-0.30000000000000004,0.0,0.6000000000000001,0.4,9.8,-5.8,10.8,16.200000000000003,16
1,118.0,0.8,-0.9,1.5,0.9,-0.30000000000000004,11.3,-24.400000000000002,42.2,29.900000000000006,16
2,134.0,1.5,0.5,1.5,1.4000000000000001,0.9,11.3,-41.300000000000004,78.60000000000001,47.3,16
3,151.0,0.4,1.0,0.6000000000000001,0.1,1.3,10.4,-34.0,71.6,54.0,16
4,168.0,0.4,1.0,0.6000000000000001,-0.1,1.0,9.4,-24.5,56.6,52.5,16
5,184.0,0.30000000000000004,0.30000000000000004,-0.5,-0.6000000000000001,0.6000000000000001,9.200000000000001,-9.3,30.3,45.8,16
6,201.0,-0.5,0.4,-0.5,-1.1,0.5,9.1,2.7,4.4,43.300000000000004,16
7,218.0,-0.1,0.5,-1.2000000000000002,0.1,1.4000000000000001,9.1,-8.4,-30.799999999999997,56.50000000000001,16
8,234.0,1.4000000000000001,1.4000000000000001,0.0,1.7000000000000002,1.8,9.9,-36.1,-1.3,48.50000000000001,16
9,251.0,2.5,1.6,0.2,1.5,1.8,9.9,-47.0,38.60000000000001,13.000000000000002,16
10,268.0,1.2000000000000002,1.4000000000000001,-1.0,0.6000000000000001,1.3,8.8,-43.800000000000004,35.2,3.9,16
11,285.0,0.7000000000000001,0.8,-2.1,0.1,0.7000000000000001,7.7,-34.50000000000001,-5.9,-3.9,16
12,301.0,0.1,-0.1,-2.4000000000000004,-0.4,-0.30000000000000004,7.4,-34.60000000000001,-37.400000000000006,-3.6000000000000005,16
13,318.0,-0.2,0.0,-0.4,-0.5,-0.4,9.4,-52.300000000000004,-73.30000000000001,12.100000000000001,16
14,335.0,0.1,-1.6,4.3,0.0,-2.2,14.100000000000001,-51.0,-33.300000000000004,24.7,16
15,351.0,0.1,-1.6,4.3,1.5,0.30000000000000004,14.100000000000001,4.9,21.500000000000004,10.4,16
16,368.0,1.6,0.9,4.3,1.2000000000000002,1.3,11.4,28.0,11.700000000000001,0.30000000000000004,16
17,384.0,0.9,1.1,0.4,0.0,0.0,9.200000000000001,39.699999999999996,-7.300000000000001,-11.700000000000001,16
18,401.0,-0.30000000000000004,0.2,-1.0,-0.6000000000000001,-0.30000000000000004,8.9,19.700000000000003,-3.3000000000000007,-5.2,16
19,418.0,-0.5,0.2,-1.0,-0.4,0.1,8.9,11.3,-5.7,2.9,16
20,434.0,0.5,1.2000000000000002,-0.9,1.0,1.6,8.3,16.0,-19.300000000000004,-1.9,16
21,451.0,1.5,2.3000000000000003,-1.7000000000000002,1.4000000000000001,2.0,8.1,14.700000000000001,-29.0,-9.5,16
22,468.0,2.0,2.7,-0.6000000000000001,2.0,2.5,9.200000000000001,7.6,-38.1,-29.600000000000005,16
23,484.0,1.5,2.1,0.5,1.7000000000000002,1.9000000000000001,10.3,0.1,-32.400000000000006,-51.2,16
24,501.0,0.1,0.5,0.4,0.4,0.30000000000000004,10.200000000000001,-5.7,-28.1,-56.2,16
25,518.0,-0.6000000000000001,-0.2,1.2000000000000002,-0.2,-0.4,11.0,-9.899999999999999,-11.5,-43.4,16
26,534.0,-0.6000000000000001,-0.2,1.2000000000000002,0.0,-0.7000000000000001,10.0,-7.500000000000001,-6.0,-36.2,16
27,551.0,-0.4,-0.5,0.2,0.1,-0.7000000000000001,10.0,4.800000000000001,-0.5,-19.200000000000003,16
28,568.0,0.1,-0.1,-0.6000000000000001,1.1,0.2,8.3,14.0,7.500000000000001,-10.700000000000001,16
29,584.0,1.9000000000000001,0.8,-2.6,1.7000000000000002,1.2000000000000002,7.1000000000000005,6.699999999999999,6.500000000000001,-18.6,16
30,601.0,1.0,0.9,-3.2,1.1,1.3,8.0,-7.9,7.8,-23.800000000000004,16
31,618.0,1.1,1.4000000000000001,-1.5,1.0,0.7000000000000001,7.7,-23.0,29.0,-32.8,16
32,634.0,-0.30000000000000004,0.6000000000000001,-2.0,-0.9,-0.30000000000000004,8.200000000000001,-26.000000000000004,25.1,-34.800000000000004,16
33,651.0,-1.7000000000000002,-0.5,-1.7000000000000002,-1.6,-0.9,8.1,-35.1,16.6,-22.8,16
34,668.0,-1.7000000000000002,-1.2000000000000002,-0.5,-1.5,-1.7000000000000002,9.3,-42.400000000000006,-11.3,3.2,16
35,684.0,-1.2000000000000002,-0.8,3.3000000000000003,-1.0,-1.4000000000000001,13.100000000000001,-24.3,-4.0,38.50000000000001,16
36,701.0,0.0,1.2000000000000002,2.3000000000000003,0.2,0.6000000000000001,12.100000000000001,3.3000000000000007,-8.899999999999999,43.2,16
37,718.0,0.8,1.7000000000000002,1.5,1.0,1.1,11.3,12.200000000000001,-12.7,30.3,16
38,734.0,0.8,1.7000000000000002,1.5,0.9,0.8,10.8,5.8,-3.5,24.7,16
39,751.0,0.5,1.2000000000000002,1.0,0.6000000000000001,0.5,10.600000000000001,-7.500000000000001,19.5,19.700000000000003,16
40,768.0,0.5,1.2000000000000002,0.2,0.7000000000000001,0.7000000000000001,9.1,-3.3000000000000007,8.5,13.8,16
41,784.0,0.0,1.0,-0.4,0.1,-0.2,8.700000000000001,9.2,-13.700000000000001,9.899999999999999,16
42,801.0,1.0,0.4,-1.7000000000000002,0.7000000000000001,0.0,9.0,8.5,-37.800000000000004,6.9,16
43,818.0,-0.2,0.4,-0.1,1.0,-0.9,8.700000000000001,10.5,-34.1,8.5,16
44,834.0,1.9000000000000001,0.1,-1.4000000000000001,2.3000000000000003,-0.4,8.4,4.0,-39.50000000000001,9.8,16
45,851.0,1.7000000000000002,-0.5,0.9,2.3000000000000003,-1.0,10.600000000000001,4.6,-32.300000000000004,-1.6,16
46,868.0,1.3,-1.0,-0.2,1.9000000000000001,-1.5,9.600000000000001,4.1,-6.2,-7.1000000000000005,16
47,884.0,0.1,-1.1,-1.6,0.7000000000000001,-1.6,8.1,-0.30000000000000004,5.1000000000000005,-11.000000000000002,16
48,901.0,-1.2000000000000002,-1.6,-2.2,-0.6000000000000001,-2.1,7.6000000000000005,-15.299999999999999,4.4,4.800000000000001,16
49,918.0,-1.2000000000000002,-1.6,-2.2,-0.5,-2.4000000000000004,7.800000000000001,-24.599999999999998,-7.200000000000001,25.7,16
50,934.0,-1.0,-1.8,-1.9000000000000001,-0.2,-2.2,8.0,-24.900000000000002,-10.8,34.0,16
51,951.0,-0.7000000000000001,-1.5,-1.0,0.1,-2.4000000000000004,9.5,-21.200000000000003,-5.8,50.5,16
52,968.0,0.7000000000000001,-1.0,-0.1,2.3000000000000003,-0.5,9.5,-19.700000000000003,15.2,47.7,16
53,984.0,2.0,1.3,-1.2000000000000002,2.4000000000000004,0.4,7.9,-16.1,7.9,17.7,16
54,1001.0,1.7000000000000002,0.9,-1.9000000000000001,2.2,0.0,7.9,-17.0,-2.7,5.1000000000000005,16
55,1018.0,1.6,1.0,-1.8,2.1,0.1,7.9,-22.2,-29.400000000000002,-21.200000000000003,16
56,1034.0,-1.5,-0.7000000000000001,-0.4,-0.8,-1.7000000000000002,9.3,-17.400000000000002,-43.6,-24.0,16
57,1051.0,-1.5,-1.5,0.1,-0.7000000000000001,-2.5,9.9,-20.1,-45.8,-7.699999999999999,16
58,1067.0,-0.4,-0.7000000000000001,1.3,0.6000000000000001,-1.9000000000000001,11.0,-25.5,-26.5,6.500000000000001,16
59,1084.0,0.9,0.6000000000000001,3.0,1.9000000000000001,-0.7000000000000001,12.700000000000001,-42.60000000000001,17.200000000000003,3.2,16
60,1101.0,1.3,0.4,5.7,2.0,-1.0,15.4,-55.2,85.4,-5.0,16
61,1117.0,1.3,0.4,5.7,1.5,-1.0,15.600000000000001,-54.9,117.4,-9.100000000000001,16
62,1134.0,0.7000000000000001,0.6000000000000001,4.4,0.30000000000000004,-1.1,10.8,-33.1,119.89999999999999,-18.6,16
63,1151.0,-0.1,0.9,-1.1,-0.30000000000000004,-0.8,7.6000000000000005,15.6,16.3,-23.5,16
64,1167.0,-1.1,-0.30000000000000004,-1.9000000000000001,-1.0,-1.9000000000000001,8.9,43.2,-70.7,-15.399999999999999,16
65,1184.0,-1.3,-0.9,0.7000000000000001,-1.1,-3.1,12.100000000000001,44.300000000000004,-70.6,1.1,16
66,1201.0,-1.4000000000000001,-1.5,2.4000000000000004,-0.1,-1.4000000000000001,11.600000000000001,26.799999999999997,-15.6,17.9,16
67,1218.0,0.1,0.6000000000000001,1.6,0.6000000000000001,-0.6000000000000001,11.3,18.6,5.500000000000001,17.300000000000004,16
68,1234.0,0.5,1.0,0.5,0.9,-0.2,10.200000000000001,2.3,29.300000000000004,8.899999999999999,16
69,1251.0,0.8,1.5,-0.4,1.2000000000000002,0.30000000000000004,9.3,-6.9,19.5,3.5,16
70,1268.0,1.3,1.9000000000000001,0.6000000000000001,1.7000000000000002,0.6000000000000001,10.3,0.1,-12.4,-4.2,16
71,1284.0,1.8,1.0,2.2,2.2,-0.1,12.0,12.7,-14.5,-9.4,16
72,1301.0,1.8,1.0,2.2,2.7,0.30000000000000004,11.100000000000001,26.6,1.6,-16.0,16
73,1317.0,2.3000000000000003,1.5,1.3,2.7,0.6000000000000001,10.200000000000001,29.1,7.8,-21.6,16
74,1334.0,2.1,1.7000000000000002,-0.4,2.1,0.7000000000000001,8.700000000000001,22.6,11.4,-32.300000000000004,16
75,1351.0,1.3,1.5,-1.1,1.2000000000000002,0.1,9.0,3.4,16.1,-35.2,16
76,1368.0,0.30000000000000004,0.8,-0.2,0.1,-0.2,10.0,-20.5,34.900000000000006,-27.6,16
77,1384.0,-0.7000000000000001,0.7000000000000001,0.8,-0.6000000000000001,-0.7000000000000001,11.100000000000001,-27.5,41.7,-10.299999999999999,16
78,1401.0,-0.5,0.4,1.3,-0.4,-0.7000000000000001,11.0,-20.5,37.2,0.8,16
79,1418.0,0.7000000000000001,1.2000000000000002,0.30000000000000004,0.8,0.1,10.0,10.5,3.2,16.3,16
80,1434.0,1.5,1.5,0.0,1.7000000000000002,0.5,9.8,36.6,-26.400000000000006,20.0,16
81,1451.0,2.1,1.6,-0.30000000000000004,2.3000000000000003,0.7000000000000001,9.4,39.50000000000001,-23.3,18.5,16
82,1472.0,2.2,1.9000000000000001,-0.9,2.4000000000000004,1.1,8.9,22.000000000000004,-2.2,11.4,16
83,1485.0,1.9000000000000001,2.0,-0.6000000000000001,2.1,1.3,9.200000000000001,-5.9,14.600000000000001,2.3,16
84,1501.0,1.9000000000000001,2.0,-0.6000000000000001,1.7000000000000002,0.9,9.700000000000001,-17.0,20.5,-2.1,16
85,1518.0,1.0,1.2000000000000002,0.1,0.7000000000000001,0.0,9.8,-22.6,19.400000000000002,-4.6,16
86,1534.0,0.2,0.6000000000000001,-0.1,0.1,-0.5,9.700000000000001,-10.9,-0.6000000000000001,-0.2,16
87,1551.0,-0.2,0.30000000000000004,-0.30000000000000004,0.0,-0.5,9.1,-2.0,-16.4,7.1000000000000005,16
88,1570.0,0.1,0.7000000000000001,-0.5,0.5,-0.2,9.4,1.8000000000000003,-23.700000000000003,9.8,16
89,1584.0,0.4,0.9,-0.4,0.6000000000000001,0.2,9.700000000000001,-1.4,-18.8,7.9,16
90,1601.0,0.30000000000000004,1.1,0.5,0.6000000000000001,0.2,10.3,-5.7,-9.899999999999999,6.0,16
91,1618.0,-0.2,1.2000000000000002,0.8,0.1,0.30000000000000004,10.5,-15.000000000000002,15.2,3.5,16
92,1634.0,-1.0,1.4000000000000001,0.30000000000000004,-0.8,0.30000000000000004,10.100000000000001,-25.0,31.2,4.4,16
93,1651.0,-1.8,1.1,0.0,-1.7000000000000002,0.0,9.700000000000001,-24.1,21.6,11.700000000000001,16
94,1669.0,-2.1,0.9,0.2,-2.1,-0.30000000000000004,9.9,-11.8,-3.6000000000000005,26.5,16
95,1684.0,-2.1,0.9,0.2,-1.8,-0.2,10.100000000000001,-4.1,-13.200000000000003,33.9,16
96,1701.0,-1.5,1.1,0.5,-1.0,0.2,10.200000000000001,6.9,-21.1,45.099999999999994,16
97,1717.0,-0.7000000000000001,1.6,0.5,-0.1,0.6000000000000001,10.4,10.8,-18.4,49.1,16
98,1734.0,0.2,1.9000000000000001,0.9,0.7000000000000001,1.1,10.700000000000001,17.7,-9.2,45.8,16
99,1751.0,0.8,2.5,0.5,1.2000000000000002,1.6,9.600000000000001,26.799999999999997,-11.4,36.0,16
100,1769.0,1.2000000000000002,2.8000000000000003,-0.6000000000000001,1.7000000000000002,2.0,8.8,30.000000000000004,-26.5,25.300000000000004,16
101,1785.0,1.5,3.0,-1.3,1.8,2.1,8.5,28.3,-34.7,19.9,16
102,1801.0,1.3,2.7,-0.2,1.8,1.9000000000000001,9.5,18.900000000000002,-40.1,11.2,16
103,1817.0,1.1,2.5,0.6000000000000001,1.6,1.7000000000000002,10.3,3.6000000000000005,-24.7,5.2,16
104,1834.0,1.1,2.4000000000000004,1.1,1.6,1.7000000000000002,10.8,-10.299999999999999,-14.200000000000001,1.1,16
105,1851.0,0.9,2.0,2.3000000000000003,1.5,1.2000000000000002,12.100000000000001,-7.9,-13.000000000000002,-7.0,16
106,1867.0,0.9,2.0,2.3000000000000003,1.3,0.5,12.4,0.8,-13.399999999999999,-7.400000000000001,16
107,1884.0,0.7000000000000001,1.2000000000000002,2.2,1.3,0.6000000000000001,11.200000000000001,21.500000000000004,-23.2,-5.7,16
108,1901.0,0.5,1.4000000000000001,0.7000000000000001,1.2000000000000002,0.7000000000000001,9.5,36.5,-44.2,-4.5,16
109,1918.0,0.2,1.3,-0.7000000000000001,1.2000000000000002,0.4,9.0,39.699999999999996,-53.7,-1.1,16
110,1934.0,0.30000000000000004,1.1,-1.0,1.5,0.7000000000000001,9.200000000000001,28.1,-35.4,2.6,16
111,1951.0,0.5,1.0,-0.1,1.3,-0.30000000000000004,8.3,12.0,-3.9,13.100000000000001,16
112,1968.0,-0.4,1.3,-2.3000000000000003,0.8,2.4000000000000004,6.4,5.0,-12.600000000000001,19.799999999999997,16
113,1984.0,0.4,2.9000000000000004,-4.6000000000000005,1.6,2.6,5.1000000000000005,-1.0,-36.6,19.300000000000004,16
114,2001.0,1.1,3.2,-2.2,2.5,2.8000000000000003,7.4,-9.700000000000001,-78.0,14.800000000000002,16
115,2017.0,1.3,2.3000000000000003,0.6000000000000001,3.0,1.9000000000000001,10.200000000000001,-9.5,-86.60000000000001,13.900000000000002,16
116,2034.0,1.4000000000000001,1.5,4.0,3.3000000000000003,1.0,13.600000000000001,-10.299999999999999,-34.800000000000004,20.5,16
117,2051.0,1.6,0.6000000000000001,6.7,3.4000000000000004,0.1,16.400000000000002,-7.400000000000001,44.5,35.0,16
118,2068.0,1.6,0.6000000000000001,6.7,3.1,1.3,13.5,-0.6000000000000001,78.9,36.5,16
119,2084.0,1.7000000000000002,2.6,0.9,3.6,3.2,7.5,31.2,46.300000000000004,24.400000000000002,16
120,2101.0,1.8,3.9000000000000004,-3.2,3.0,3.4000000000000004,6.300000000000001,45.8,-41.50000000000001,-1.0,16
121,2118.0,1.4000000000000001,3.3000000000000003,-2.9000000000000004,2.8000000000000003,3.1,8.200000000000001,29.800000000000004,-83.89999999999999,-20.0,16
122,2134.0,0.8,2.4000000000000004,0.1,2.9000000000000004,0.9,12.0,7.0,-74.10000000000001,-31.9,16
123,2151.0,0.30000000000000004,0.30000000000000004,3.7,2.5,-0.4,12.8,8.700000000000001,-27.9,-28.3,16
124,2168.0,0.4,-0.6000000000000001,2.1,2.6,-0.6000000000000001,11.700000000000001,16.200000000000003,-15.2,-23.700000000000003,16
125,2185.0,0.7000000000000001,0.2,-1.7000000000000002,3.0,0.2,7.9,25.4,-22.1,-19.9,16
126,2201.0,1.4000000000000001,2.0,-4.9,3.9000000000000004,2.2,4.6000000000000005,24.7,-88.60000000000001,-33.7,16
127,2218.0,0.4,1.2000000000000002,-1.7000000000000002,3.3000000000000003,1.4000000000000001,7.6000000000000005,5.9,-146.7,-46.50000000000001,16
128,2234.0,1.4000000000000001,-0.4,1.6,4.800000000000001,-0.2,10.8,-8.2,-179.9,-40.800000000000004,16
129,2251.0,1.4000000000000001,-0.4,1.6,3.7,-3.0,15.600000000000001,-18.5,-106.5,-18.200000000000003,16
130,2267.0,-0.1,-3.2,6.5,3.8000000000000003,-3.5,14.600000000000001,-20.900000000000002,-50.2,-7.8,16
131,2284.0,1.1,-2.8000000000000003,5.6000000000000005,6.300000000000001,-1.9000000000000001,13.4,-37.9,33.9,6.500000000000001,16
132,2301.0,3.3000000000000003,-1.5,3.0,7.2,-1.7000000000000002,11.700000000000001,-38.300000000000004,73.0,-1.3,16
133,2318.0,3.4000000000000004,-1.4000000000000001,0.8,6.6000000000000005,-1.0,8.700000000000001,-37.2,84.5,-12.9,16
134,2334.0,2.7,-1.1,-1.2000000000000002,5.4,-1.1,8.3,-34.0,77.5,-24.3,16
135,2351.0,1.8,-1.2000000000000002,-1.7000000000000002,4.800000000000001,-1.5,7.6000000000000005,-35.599999999999994,82.8,-26.799999999999997,16
136,2368.0,1.6,0.4,-5.300000000000001,4.4,0.0,4.0,-35.599999999999994,46.7,-34.800000000000004,16
137,2386.0,2.0,1.0,-2.8000000000000003,4.800000000000001,0.5,6.6000000000000005,-36.7,-0.4,-45.7,16
138,2401.0,1.1,1.0,-1.6,3.9000000000000004,0.5,7.800000000000001,-43.00000000000001,15.700000000000001,-60.5,16
139,2418.0,0.30000000000000004,2.0,-0.4,3.0,1.5,9.0,-45.099999999999994,27.099999999999998,-70.2,16
140,2434.0,-1.2000000000000002,1.8,0.30000000000000004,1.5,1.2000000000000002,9.700000000000001,-35.3,48.9,-69.10000000000001,16
141,2451.0,-1.2000000000000002,1.8,0.30000000000000004,0.8,0.9,6.4,-26.000000000000004,38.400000000000006,-63.0,16
142,2468.0,-2.3000000000000003,2.3000000000000003,-3.6,-0.1,2.0,5.9,-3.2,-30.3,-50.900000000000006,16
143,2485.0,-2.8000000000000003,2.6,-2.7,0.7000000000000001,2.2,8.1,15.299999999999999,-77.80000000000001,-32.5,16
144,2501.0,-1.8,2.7,-0.4,1.5,2.5,9.600000000000001,14.100000000000001,-59.60000000000001,-20.599999999999998,16
145,2518.0,-0.9,3.3000000000000003,1.2000000000000002,2.8000000000000003,3.0,11.0,4.1,5.1000000000000005,-18.4,16
146,2535.0,0.1,3.9000000000000004,1.2000000000000002,2.9000000000000004,3.8000000000000003,10.200000000000001,-0.5,68.7,-28.200000000000003,16
147,2551.0,-1.0,3.0,0.7000000000000001,1.8,2.7,10.100000000000001,-5.4,102.0,-32.9,16
148,2568.0,-1.6,4.5,-0.8,0.7000000000000001,4.1000000000000005,8.700000000000001,-15.700000000000001,140.70000000000002,-31.5,16
149,2587.0,-1.8,4.0,-2.7,0.30000000000000004,3.7,6.9,-13.3,103.00000000000001,-30.3,16
150,2601.0,-2.6,3.1,-2.4000000000000004,-0.7000000000000001,2.8000000000000003,7.300000000000001,19.9,20.1,-30.3,16
151,2618.0,-3.6,1.5,0.7000000000000001,-1.7000000000000002,1.3,10.3,46.300000000000004,-32.9,-15.5,16
152,2634.0,-3.6,1.5,0.7000000000000001,-1.5,0.7000000000000001,11.600000000000001,63.8,-22.000000000000004,11.2,16
153,2651.0,-3.4000000000000004,0.0,3.0,-0.8,0.0,13.0,71.0,-2.6,26.700000000000003,16
154,2668.0,-2.0,0.5,3.0,0.9,1.4000000000000001,12.0,85.5,34.7,41.199999999999996,16
155,2686.0,-0.2,1.2000000000000002,0.9,1.6,1.6,8.700000000000001,83.00000000000001,69.00000000000001,39.1,16
156,2701.0,-0.6000000000000001,1.2000000000000002,-2.9000000000000004,0.8,2.5,4.6000000000000005,49.0,73.30000000000001,39.300000000000004,16
157,2718.0,1.1,3.9000000000000004,-7.0,2.8000000000000003,4.5,2.5,-14.900000000000002,4.6,15.000000000000002,16
158,2734.0,-1.6,3.0,-2.5,-0.1,3.7,7.1000000000000005,-44.9,-27.099999999999998,1.3,16
159,2751.0,-2.8000000000000003,-1.6,4.4,-1.2000000000000002,-1.2000000000000002,14.100000000000001,-82.39999999999999,-19.200000000000003,24.900000000000002,16
160,2767.0,-3.8000000000000003,-3.6,7.4,-2.2,-3.4000000000000004,17.1,-61.10000000000001,6.2,52.2,16
161,2785.0,-3.3000000000000003,-2.5,4.9,-1.7000000000000002,-2.4000000000000004,14.600000000000001,17.5,4.7,88.4,16
162,2801.0,-0.8,-0.4,-1.3,0.9,-0.1,8.3,77.80000000000001,-49.1,93.60000000000001,16
163,2818.0,0.4,0.30000000000000004,-5.7,2.4000000000000004,0.8,3.9000000000000004,74.60000000000001,-111.6,74.80000000000001,16
164,2834.0,0.4,0.30000000000000004,-5.7,2.7,1.6,4.5,54.6,-133.20000000000002,62.800000000000004,16
165,2851.0,0.30000000000000004,1.5,-1.9000000000000001,3.0,1.5,10.100000000000001,-2.7,-82.2,41.50000000000001,16
166,2868.0,1.3,-0.1,1.8,3.6,-0.2,12.3,-53.10000000000001,35.9,27.700000000000003,16
167,2884.0,0.6000000000000001,-0.30000000000000004,2.0,2.4000000000000004,0.4,9.200000000000001,-61.199999999999996,102.8,19.799999999999997,16
168,2901.0,-0.5,0.7000000000000001,-3.3000000000000003,0.8,1.1,4.6000000000000005,-28.3,32.400000000000006,15.899999999999999,16
169,2918.0,-1.5,0.7000000000000001,-5.0,0.5,0.5,5.9,12.0,-69.9,25.6,16
170,2934.0,-1.8,-0.1,-1.9000000000000001,0.6000000000000001,0.0,7.6000000000000005,27.400000000000002,-92.3,34.800000000000004,16
171,2951.0,-2.0,-0.4,-0.6000000000000001,0.7000000000000001,-0.2,8.8,53.10000000000001,-82.10000000000001,49.6,16
172,2968.0,-1.3,0.0,-1.3,1.5,0.4,8.1,61.8,-38.800000000000004,48.800000000000004,16
173,2984.0,-1.0,1.0,-2.9000000000000004,1.8,1.5,6.5,31.9,18.5,27.400000000000002,16
174,3001.0,-2.3000000000000003,0.1,-2.5,0.30000000000000004,0.6000000000000001,6.9,-15.299999999999999,69.7,8.4,16
175,3018.0,-2.3000000000000003,0.1,-2.5,-0.7000000000000001,-0.1,6.9,-34.7,84.80000000000001,7.1000000000000005,16
176,3034.0,-4.0,-0.5,-2.7,-2.6,-0.8,7.800000000000001,-45.9,60.900000000000006,21.400000000000002,16
177,3051.0,-5.5,-1.9000000000000001,0.30000000000000004,-3.6,-2.6,11.9,-18.700000000000003,16.0,57.20000000000001,16
178,3068.0,-5.1000000000000005,-3.1,3.0,-1.6,-2.9000000000000004,12.600000000000001,31.2,-22.2,98.8,16
179,3084.0,-1.8,-2.5,3.6,2.7,-1.8,13.600000000000001,74.60000000000001,-41.7,116.6,16
180,3101.0,2.2,-1.7000000000000002,4.800000000000001,5.5,-2.1,16.0,81.8,-1.9,102.10000000000001,16
181,3117.0,3.4000000000000004,-3.7,6.6000000000000005,5.7,-3.2,16.1,76.1,37.1,94.6,16
182,3134.0,3.6,-2.7,4.3,5.7,-2.2,13.8,48.50000000000001,99.2,86.89999999999999,16
183,3151.0,5.9,0.1,1.9000000000000001,7.7,0.7000000000000001,11.5,27.3,87.40000000000002,72.30000000000001,16
184,3167.0,16.3,3.2,6.800000000000001,17.8,3.9000000000000004,16.5,25.5,101.30000000000001,16.700000000000003,16
185,3186.0,2.4000000000000004,0.7000000000000001,-3.7,3.7,1.5,6.0,44.6,41.199999999999996,-47.900000000000006,16
186,3201.0,2.4000000000000004,0.7000000000000001,-3.7,-1.5,-3.6,12.4,32.5,-17.1,2.2,16
187,3217.0,-2.8000000000000003,-4.5,2.7,0.30000000000000004,-3.8000000000000003,13.5,22.6,-1.3,31.5,16
188,3234.0,0.8,-3.5,4.0,3.5,-0.5,13.600000000000001,31.799999999999997,7.8,56.10000000000001,16
189,3251.0,2.7,-0.7000000000000001,6.0,4.1000000000000005,0.4,15.4,63.70000000000001,6.500000000000001,42.3,16
190,3267.0,2.3000000000000003,0.4,3.5,2.9000000000000004,2.7,8.700000000000001,64.30000000000001,20.8,19.9,16
191,3285.0,0.30000000000000004,2.3000000000000003,-0.8,0.8,3.1,4.4,47.7,3.0,4.0,16
192,3301.0,-1.4000000000000001,1.4000000000000001,-4.6000000000000005,-0.2,2.2,4.9,16.200000000000003,-18.6,6.9,16
193,3318.0,-1.7000000000000002,0.2,-2.0,-0.4,1.8,7.6000000000000005,4.2,-12.5,13.200000000000003,16
194,3334.0,0.9,-0.8,0.4,2.2,0.7000000000000001,10.0,-17.1,22.9,18.1,16
195,3351.0,0.8,-0.4,0.5,2.0,1.1,10.100000000000001,-9.4,50.60000000000001,17.5,16
196,3368.0,0.4,-0.9,-1.1,1.5,0.6000000000000001,8.6,9.2,32.6,32.2,16
197,3384.0,0.0,-0.6000000000000001,-2.8000000000000003,1.1,0.9,6.800000000000001,29.200000000000003,-7.8,46.800000000000004,16
198,3401.0,0.0,-0.6000000000000001,-2.8000000000000003,1.0,0.9,7.6000000000000005,32.9,-24.400000000000002,56.50000000000001,16
199,3417.0,0.6000000000000001,-0.30000000000000004,-0.6000000000000001,3.6,2.7,10.4,34.60000000000001,-21.400000000000002,65.89999999999999,16
200,3434.0,4.0,1.9000000000000001,2.1,6.800000000000001,4.4,13.3,32.7,27.400000000000002,46.800000000000004,16
201,3451.0,6.1000000000000005,2.9000000000000004,4.7,7.7,5.300000000000001,16.400000000000002,32.8,101.7,4.9,16
202,3467.0,5.6000000000000005,4.6000000000000005,2.1,2.7,5.6000000000000005,5.2,46.0,75.4,-47.400000000000006,16
203,3484.0,-2.1,0.2,-2.4000000000000004,-4.1000000000000005,-0.5,8.9,48.6,32.1,-32.9,16
204,3501.0,-8.200000000000001,-4.1000000000000005,-1.7000000000000002,-7.7,-1.9000000000000001,7.800000000000001,33.300000000000004,47.7,-8.5,16
205,3518.0,-11.4,-7.6000000000000005,-3.3000000000000003,-11.100000000000001,-5.4,6.300000000000001,-1.0,62.900000000000006,73.10000000000001,16
206,3534.0,-8.5,-7.9,-7.5,-8.3,-5.9,2.0,-33.6,61.9,154.29999999999998,16
207,3551.0,1.3,-6.6000000000000005,-0.5,1.4000000000000001,-4.800000000000001,9.1,-69.10000000000001,114.70000000000002,205.6,16
208,3568.0,12.5,3.0,2.7,12.3,4.7,12.3,-53.300000000000004,92.7,152.2,16
209,3584.0,12.5,3.0,2.7,12.9,4.1000000000000005,17.3,-48.800000000000004,121.0,103.2,16
210,3601.0,11.0,0.9,12.700000000000001,5.2,5.6000000000000005,10.100000000000001,-3.1,127.1,18.5,16
211,3617.0,4.2,2.8000000000000003,-4.3,1.3,2.3000000000000003,3.8000000000000003,8.600000000000001,12.200000000000001,-24.200000000000003,16
212,3634.0,-1.3,1.2000000000000002,-7.1000000000000005,-4.5,2.8000000000000003,2.0,-88.8,43.800000000000004,-38.800000000000004,16
213,3651.0,-5.7,-0.6000000000000001,-3.5,-7.9,-1.6,11.0,-101.4,6.699999999999999,-18.6,16
214,3668.0,-6.7,-2.4000000000000004,2.6,-6.7,0.4,12.4,-37.1,-49.50000000000001,19.200000000000003,16
215,3686.0,-4.2,0.9,2.8000000000000003,-2.4000000000000004,2.3000000000000003,10.600000000000001,-7.300000000000001,-71.39999999999999,38.0,16
216,3701.0,0.5,1.0,-1.2000000000000002,-0.1,1.8,8.6,-12.5,-76.89999999999999,39.2,16
217,3717.0,7.0,2.3000000000000003,0.1,6.6000000000000005,3.0,9.9,-51.0,-58.400000000000006,37.1,16
218,3734.0,10.5,2.6,9.600000000000001,10.100000000000001,3.2,19.3,-86.60000000000001,31.2,-6.0,16
219,3751.0,9.1,7.5,3.4000000000000004,8.6,7.9,13.200000000000001,-43.900000000000006,36.6,-84.3,16
220,3768.0,-5.300000000000001,-2.9000000000000004,3.2,-5.9,-2.6,13.0,28.3,22.3,-93.7,16
221,3784.0,-5.300000000000001,-2.9000000000000004,3.2,-8.200000000000001,-2.7,6.2,39.300000000000004,15.000000000000002,-60.300000000000004,16
222,3801.0,-8.6,-2.3000000000000003,-6.7,-10.3,-2.3000000000000003,1.4000000000000001,2.5,-13.3,9.3,16
223,3817.0,-7.6000000000000005,-1.6,-8.9,-8.0,-1.1,4.0,-58.2,-31.2,64.2,16
224,3834.0,-5.800000000000001,-1.8,-4.3,-2.0,-2.2,6.5,-90.4,-33.2,106.5,16
225,3851.0,1.3,-1.9000000000000001,-0.9,3.9000000000000004,-2.5,12.5,-77.9,-34.900000000000006,102.5,16
226,3868.0,7.300000000000001,-1.9000000000000001,5.1000000000000005,7.0,-2.2,14.9,-73.9,-2.7,89.30000000000001,16
227,3884.0,6.800000000000001,1.6,2.3000000000000003,6.4,1.2000000000000002,12.100000000000001,-36.0,0.1,23.2,16
228,3901.0,0.2,-3.6,-1.2000000000000002,-0.1,-4.1000000000000005,8.6,2.8,-12.9,-7.6,16
229,3917.0,5.1000000000000005,0.5,-2.6,4.4,-0.1,7.2,-71.6,150.6,29.600000000000005,16
230,3934.0,1.4000000000000001,2.9000000000000004,4.5,0.5,2.3000000000000003,14.200000000000001,28.0,19.400000000000002,40.4,16
231,3951.0,2.2,4.3,-3.6,1.4000000000000001,3.9000000000000004,6.1000000000000005,74.89999999999999,-27.0,12.8,16
232,3967.0,2.2,4.3,-3.6,4.6000000000000005,8.5,0.2,67.4,-67.60000000000001,-12.200000000000001,16
233,3984.0,6.4,6.9,-5.800000000000001,4.800000000000001,4.2,2.2,14.200000000000001,-63.4,-81.8,16
234,4001.0,2.8000000000000003,2.8000000000000003,-6.6000000000000005,0.2,0.0,10.0,-66.3,-5.500000000000001,-98.60000000000001,16
235,4017.0,-1.3,-1.5,1.9000000000000001,-2.1,-2.4000000000000004,8.6,-103.3,38.0,-79.19999999999999,16
236,4034.0,-3.0,-1.7000000000000002,1.2000000000000002,-5.7,-3.2,13.200000000000001,-25.4,-37.9,-83.30000000000001,16
237,4051.0,-7.7,-7.1000000000000005,13.700000000000001,-6.300000000000001,-3.0,10.200000000000001,-20.2,30.599999999999998,-38.7,16
238,4068.0,-1.5,-0.2,-2.6,-1.9000000000000001,-1.1,7.2,20.0,-81.50000000000001,-35.699999999999996,16
239,4084.0,-2.8000000000000003,-3.3000000000000003,-4.0,-2.7,-4.2,5.800000000000001,-6.1000000000000005,-127.5,-30.9,16
240,4101.0,2.2,-4.4,-4.4,2.5,-5.5,5.4,-78.80000000000001,-59.5,20.7,16
241,4118.0,8.200000000000001,-3.2,-2.3000000000000003,8.6,-4.6000000000000005,7.4,-104.9,-12.0,12.600000000000001,16
242,4134.0,7.9,1.2000000000000002,-4.3,8.4,-0.6000000000000001,5.300000000000001,-112.60000000000001,-17.1,-16.200000000000003,16
243,4151.0,7.7,1.5,-1.0,8.4,-0.6000000000000001,8.5,-114.6,-48.10000000000001,-69.3,16
244,4168.0,7.7,1.5,-1.0,5.1000000000000005,-1.9000000000000001,12.0,-125.80000000000001,-31.799999999999997,-96.0,16
245,4184.0,0.6000000000000001,-0.4,6.1000000000000005,-2.1,-6.800000000000001,23.400000000000002,-126.10000000000001,50.0,-100.30000000000001,16
246,4201.0,-4.9,-2.0,13.4,-2.5,-6.800000000000001,17.1,4.0,58.3,-62.900000000000006,16
247,4218.0,-2.8000000000000003,-3.5,4.4,-1.7000000000000002,-1.4000000000000001,8.6,62.4,37.7,-25.300000000000004,16
248,4234.0,-0.5,2.5,-4.4,1.3,-0.7000000000000001,3.3000000000000003,20.5,15.299999999999999,-11.700000000000001,16
249,4252.0,1.2000000000000002,1.5,-6.7,1.0,-1.2000000000000002,4.6000000000000005,-31.0,-12.600000000000001,-9.3,16
250,4268.0,0.0,0.1,-1.3,0.5,-2.5,8.1,-51.0,-9.0,-5.6,16
251,4284.0,-2.0,-2.6,5.5,-1.5,-5.4,14.9,-57.00000000000001,17.300000000000004,1.4,16
252,4301.0,-2.5,-5.7,11.4,-2.1,-8.5,20.8,-9.2,40.300000000000004,31.5,16
253,4317.0,0.0,-0.9,5.1000000000000005,0.1,-3.6,14.5,69.80000000000001,39.300000000000004,49.6,16
254,4334.0,4.9,2.0,-2.2,5.0,-0.30000000000000004,7.300000000000001,120.7,29.500000000000004,20.900000000000002,16
255,4351.0,4.9,2.0,-2.2,3.1,-0.30000000000000004,4.7,94.5,50.7,-0.6000000000000001,16
256,4367.0,0.9,0.6000000000000001,-6.800000000000001,-0.2,-2.0,1.3,58.5,33.300000000000004,-6.300000000000001,16
257,4384.0,-0.1,0.4,-7.5,0.2,-0.7000000000000001,2.1,25.200000000000003,6.600000000000001,-3.1,16
258,4401.0,0.9,1.2000000000000002,-6.2,1.0,-1.0,3.5,-10.5,-3.0,-13.700000000000001,16
259,4417.0,0.5,0.5,-3.3000000000000003,-0.5,-4.3,10.600000000000001,-58.2,38.0,-27.800000000000004,16
260,4434.0,-1.8,-3.9000000000000004,3.1,-4.5,-5.5,15.0,-112.60000000000001,92.7,-48.10000000000001,16
261,4451.0,-3.6,-5.800000000000001,13.3,-4.2,-8.3,22.8,-78.80000000000001,100.9,-27.3,16
262,4468.0,-1.1,-1.6,11.9,-1.9000000000000001,-4.1000000000000005,21.400000000000002,48.50000000000001,60.6,-15.5,16
263,4484.0,1.9000000000000001,-1.1,-0.9,1.1,-3.2,8.6,123.6,-17.1,-4.7,16
264,4501.0,-0.7000000000000001,-1.7000000000000002,-6.7,-1.4000000000000001,-3.5,3.0,103.60000000000001,-44.2,16.0,16
265,4517.0,1.6,1.4000000000000001,-6.6000000000000005,1.0,-0.2,3.0,18.200000000000003,-25.6,32.9,16
266,4534.0,1.6,1.4000000000000001,-6.6000000000000005,5.300000000000001,4.6000000000000005,4.800000000000001,-43.800000000000004,-7.9,-20.3,16
267,4551.0,5.9,6.4,-4.9,4.800000000000001,4.1000000000000005,6.5,-60.2,-2.8,-63.2,16
268,4567.0,2.0,2.7,-2.1,-3.8000000000000003,-2.7,8.700000000000001,-53.300000000000004,-19.300000000000004,-107.19999999999999,16
269,4585.0,-7.1000000000000005,-4.0,3.9000000000000004,-8.0,-5.1000000000000005,10.3,-70.5,18.4,-59.5,16
270,4601.0,-4.3,-2.5,1.6,1.0,-3.6,13.600000000000001,-12.7,-42.400000000000006,-3.6000000000000005,16
271,4618.0,4.6000000000000005,1.5,0.2,3.4000000000000004,0.4,11.200000000000001,13.8,-26.9,-11.6,16
272,4634.0,1.4000000000000001,3.5,-1.2000000000000002,1.3,1.2000000000000002,8.4,3.8,-18.700000000000003,-16.1,16
273,4651.0,-2.6,0.8,0.1,-2.7,-1.6,9.600000000000001,-42.5,28.900000000000002,-10.600000000000001,16
274,4672.0,0.4,2.3000000000000003,4.5,8.1,3.6,21.700000000000003,36.6,-7.0,-28.400000000000002,16
275,4684.0,4.5,3.4000000000000004,4.3,4.4,1.2000000000000002,13.8,99.10000000000001,-27.6,-51.2,16
276,4701.0,-1.3,-1.0,-5.0,-1.4000000000000001,-3.0,4.6000000000000005,61.199999999999996,16.6,-63.2,16
277,4717.0,-4.6000000000000005,-1.9000000000000001,-3.1,-4.7,-3.9000000000000004,6.5,7.300000000000001,22.000000000000004,-20.599999999999998,16
278,4734.0,-4.6000000000000005,-1.9000000000000001,-3.1,-0.4,-3.1,8.8,13.200000000000003,7.6,-2.0,16
279,4751.0,-0.2,-0.5,1.4000000000000001,-1.3,-2.2,9.1,38.7,-16.4,18.4,16
280,4767.0,-1.4000000000000001,-1.4000000000000001,-2.0,-1.0,-2.7,5.800000000000001,31.799999999999997,-29.0,45.400000000000006,16
281,4784.0,-0.4,-0.1,-3.8000000000000003,0.4,-1.9000000000000001,6.4,-61.599999999999994,24.7,51.4,16
282,4801.0,2.2,0.7000000000000001,-2.7,3.6,-2.3000000000000003,10.4,-124.3,28.400000000000002,33.7,16
283,4817.0,3.6,-0.4,2.4000000000000004,2.7,-3.5,15.3,-116.0,17.300000000000004,5.8,16
284,4834.0,3.5,-0.6000000000000001,6.800000000000001,3.2,-3.3000000000000003,16.2,-82.2,13.700000000000001,0.7,16
285,4851.0,6.800000000000001,2.7,-5.300000000000001,6.6000000000000005,-0.1,4.1000000000000005,-23.2,-31.400000000000002,-31.3,16
286,4868.0,-0.7000000000000001,-0.9,5.5,-0.7000000000000001,-3.8000000000000003,14.9,-7.8,-27.2,-44.9,16
287,4884.0,-2.1,-0.1,5.5,-2.1,-2.8000000000000003,15.0,53.8,23.2,-48.50000000000001,16
288,4901.0,0.7000000000000001,2.8000000000000003,-1.1,0.7000000000000001,0.30000000000000004,8.4,80.2,-9.5,-70.6,16
289,4917.0,0.7000000000000001,2.8000000000000003,-1.1,-0.9,-2.6,8.3,62.7,-10.700000000000001,-71.19999999999999,16
290,4934.0,-1.0,-0.4,-1.2000000000000002,-1.7000000000000002,-1.6,7.4,38.1,-10.0,-75.9,16
291,4951.0,-1.6,-1.4000000000000001,-2.6,0.4,-5.7,12.200000000000001,24.200000000000003,-87.00000000000001,-45.0,16
292,4968.0,-3.9000000000000004,0.7000000000000001,1.1,-0.5,-1.9000000000000001,7.9,27.6,-60.400000000000006,-38.7,16
293,4984.0,-0.6000000000000001,0.4,-1.2000000000000002,-1.0,-1.4000000000000001,10.4,76.89999999999999,-111.0,8.899999999999999,16
294,5001.0,-1.4000000000000001,0.2,-0.7000000000000001,0.4,-1.2000000000000002,7.2,84.80000000000001,-44.6,38.50000000000001,16
295,5017.0,-1.7000000000000002,0.1,0.4,-0.6000000000000001,-1.3,10.100000000000001,83.30000000000001,-36.5,52.00000000000001,16
296,5034.0,-2.0,1.8,1.5,-0.9,0.4,11.200000000000001,27.9,8.5,40.0,16
297,5051.0,-0.5,4.5,2.0,0.4,3.0,11.600000000000001,-60.8,36.7,17.1,16
298,5068.0,-0.1,1.3,2.7,0.8,-0.4,12.4,-67.9,-3.8,-3.8,16
299,5084.0,0.7000000000000001,3.1,2.0,1.7000000000000002,1.3,11.600000000000001,-27.800000000000004,-11.6,20.5,16
300,5101.0,0.8,2.9000000000000004,1.4000000000000001,1.8,1.2000000000000002,11.0,37.300000000000004,9.600000000000001,52.2,16
301,5118.0,0.8,2.9000000000000004,1.4000000000000001,1.6,0.9,11.0,72.60000000000001,19.700000000000003,72.80000000000001,16
302,5134.0,-0.1,1.7000000000000002,0.9,0.1,0.2,11.0,89.8,41.0,95.30000000000001,16
303,5151.0,-0.9,2.2,1.4000000000000001,-0.30000000000000004,0.9,10.8,44.8,31.9,68.5,16
304,5170.0,-1.2000000000000002,1.6,1.4000000000000001,-0.6000000000000001,0.0,10.9,-6.0,4.7,35.2,16
305,5184.0,-0.9,0.5,0.4,-0.30000000000000004,-1.3,9.9,-44.10000000000001,9.899999999999999,25.300000000000004,16
306,5201.0,-1.0,-0.1,1.4000000000000001,-0.2,-1.2000000000000002,10.3,-27.2,21.8,30.699999999999996,16
307,5218.0,-0.7000000000000001,-0.9,-0.2,-0.2,-2.3000000000000003,9.5,-0.4,9.5,32.0,16
308,5234.0,-0.6000000000000001,-2.5,-0.2,-0.2,-3.9000000000000004,9.5,36.8,22.8,26.200000000000003,16
309,5251.0,-0.5,-2.2,-0.6000000000000001,-0.30000000000000004,-3.4000000000000004,9.200000000000001,76.2,18.1,-1.9,16
310,5267.0,-0.30000000000000004,-1.9000000000000001,-0.7000000000000001,-0.1,-2.7,9.0,92.10000000000001,30.9,-39.8,16
311,5284.0,-0.1,-2.0,-0.30000000000000004,0.0,-2.6,9.5,76.0,52.80000000000001,-47.80000000000001,16
312,5301.0,-0.1,-2.0,-0.30000000000000004,-0.4,-2.7,10.600000000000001,48.70000000000001,71.5,-24.400000000000002,16
313,5318.0,-0.2,-2.3000000000000003,0.8,-0.6000000000000001,-2.7,11.100000000000001,42.800000000000004,74.7,-8.100000000000001,16
314,5334.0,-0.30000000000000004,-2.6,0.7000000000000001,-1.2000000000000002,-3.3000000000000003,10.4,38.400000000000006,42.0,18.8,16
315,5351.0,-0.9,-2.9000000000000004,-0.1,-1.4000000000000001,-2.6,9.4,17.799999999999997,9.8,30.200000000000003,16
316,5368.0,-1.0,-1.7000000000000002,-0.2,-1.6,-1.8,9.9,-1.2000000000000002,15.700000000000001,18.200000000000003,16
317,5385.0,-1.0,-1.7000000000000002,0.5,-1.5,-1.7000000000000002,10.8,6.0,37.300000000000004,6.2,16
318,5401.0,-0.6000000000000001,-1.3,0.8,-1.3,-1.5,10.5,18.1,40.7,3.4,16
319,5417.0,-0.1,-1.4000000000000001,0.4,-0.9,-1.4000000000000001,10.100000000000001,32.0,34.300000000000004,7.6,16
320,5434.0,-0.1,-1.0,0.1,-1.0,-0.9,9.9,31.5,36.7,22.700000000000003,16
321,5451.0,0.0,-1.2000000000000002,-0.8,-1.0,-1.1,8.9,16.200000000000003,36.8,41.900000000000006,16
322,5469.0,-0.1,-1.4000000000000001,-0.9,-1.2000000000000002,-1.3,8.8,-6.500000000000001,38.900000000000006,54.0,16
323,5484.0,0.5,-0.9,-0.9,-0.7000000000000001,-0.9,8.9,-18.0,43.00000000000001,53.300000000000004,16
324,5501.0,0.5,-0.9,-0.9,-0.7000000000000001,-0.5,8.5,-16.4,35.9,46.4,16
325,5518.0,0.8,-0.2,-1.3,-0.5,0.0,8.200000000000001,-3.3000000000000007,12.5,25.0,16
326,5538.0,0.8,-0.1,-1.6,-0.5,-0.30000000000000004,8.0,7.699999999999999,1.7,4.5,16
327,5551.0,1.0,-0.5,-1.9000000000000001,-0.30000000000000004,-0.4,7.5,10.1,7.1000000000000005,-7.8,16
328,5568.0,1.2000000000000002,-0.30000000000000004,-2.6,0.0,0.0,6.9,7.8,4.1,-17.7,16
329,5584.0,1.2000000000000002,0.1,-2.7,-0.2,0.2,7.0,4.300000000000001,2.2,-22.000000000000004,16
330,5601.0,1.5,1.1,-3.1,0.1,1.2000000000000002,6.6000000000000005,-1.1,-5.7,-30.9,16
331,5618.0,1.7000000000000002,1.6,-2.6,0.30000000000000004,1.7000000000000002,7.1000000000000005,2.8,-15.700000000000001,-37.2,16
332,5634.0,1.7000000000000002,1.2000000000000002,-1.4000000000000001,0.4,1.4000000000000001,8.3,14.800000000000002,-3.9,-35.1,16
333,5651.0,1.4000000000000001,0.5,-0.7000000000000001,0.0,0.7000000000000001,9.0,29.800000000000004,16.4,-22.8,16
334,5667.0,1.3,0.8,-0.9,-0.1,1.1,8.8,44.7,9.5,-16.0,16
335,5685.0,1.3,0.8,-0.9,-0.1,2.1,8.5,47.3,-14.900000000000002,-23.3,16
336,5701.0,1.2000000000000002,1.6,-1.2000000000000002,-0.4,2.4000000000000004,8.6,41.300000000000004,-24.1,-29.300000000000004,16
337,5717.0,1.0,2.0,-0.9,-0.4,2.4000000000000004,8.9,14.900000000000002,-19.6,-37.50000000000001,16
338,5734.0,1.0,1.4000000000000001,-0.7000000000000001,-0.30000000000000004,1.7000000000000002,9.5,-16.700000000000003,-0.4,-32.9,16
339,5751.0,1.0,0.8,0.6000000000000001,-0.30000000000000004,1.3,10.3,-26.400000000000006,8.100000000000001,-26.300000000000004,16
340,5768.0,1.2000000000000002,-0.4,2.2,-0.1,0.0,12.0,-28.3,23.400000000000002,-8.2,16
341,5785.0,0.7000000000000001,-2.1,4.0,-0.8,-1.7000000000000002,13.700000000000001,-25.4,44.4,13.3,16
342,5801.0,0.8,-2.8000000000000003,4.5,-0.8,-2.6,14.100000000000001,-18.0,51.6,29.600000000000005,16
343,5817.0,-0.1,-2.8000000000000003,3.5,-1.7000000000000002,-2.6,13.200000000000001,-25.4,21.200000000000003,26.400000000000006,16
344,5834.0,0.0,-1.0,3.3000000000000003,-1.7000000000000002,-0.9,13.0,-41.6,4.300000000000001,1.1,16
345,5851.0,-0.2,1.6,2.9000000000000004,-1.8,1.6,12.600000000000001,-27.099999999999998,-28.0,-44.10000000000001,16
346,5867.0,0.6000000000000001,1.5,2.4000000000000004,-0.9,1.4000000000000001,12.100000000000001,3.8,-40.6,-86.89999999999999,16
347,5884.0,0.6000000000000001,1.5,2.4000000000000004,-0.8,1.4000000000000001,11.200000000000001,6.4,-32.5,-97.3,16
348,5901.0,0.6000000000000001,1.5,0.9,-0.6000000000000001,1.5,10.200000000000001,-2.8,-14.100000000000001,-91.6,16
349,5917.0,0.9,1.7000000000000002,0.0,-0.9,1.3,9.700000000000001,-8.3,-4.7,-62.800000000000004,16
350,5934.0,0.30000000000000004,0.9,0.2,-0.6000000000000001,1.0,9.700000000000001,-4.9,13.000000000000002,-20.400000000000002,16
351,5951.0,0.8,2.0,-0.30000000000000004,-0.6000000000000001,2.0,9.3,15.299999999999999,7.200000000000001,-0.5,16
352,5968.0,0.8,1.9000000000000001,-0.6000000000000001,-0.7000000000000001,1.8,9.1,23.5,4.1,1.5,16
353,5984.0,0.8,1.6,-1.3,-0.6000000000000001,1.6,8.4,30.599999999999998,0.30000000000000004,0.5,16
354,6002.0,0.9,1.2000000000000002,-1.9000000000000001,-0.5,1.3,7.800000000000001,26.6,-0.2,0.7,16
355,6017.0,1.3,1.6,-2.3000000000000003,-0.2,1.7000000000000002,7.4,22.000000000000004,-2.1,-1.3,16
356,6034.0,1.7000000000000002,1.8,-2.7,0.30000000000000004,2.1,7.0,18.0,-2.6,-2.3,16
357,6051.0,1.9000000000000001,1.9000000000000001,-3.2,0.5,2.1,6.5,9.5,2.3,5.7,16
358,6068.0,1.9000000000000001,1.9000000000000001,-3.2,0.5,2.3000000000000003,6.9,9.700000000000001,4.9,12.4,16
359,6084.0,2.0,2.0,-2.4000000000000004,0.5,2.2,7.4,24.200000000000003,10.8,28.0,16
360,6101.0,1.7000000000000002,1.3,-2.3000000000000003,-0.2,1.2000000000000002,7.300000000000001,35.8,19.799999999999997,46.199999999999996,16
361,6117.0,0.9,0.2,-1.5,-0.9,0.8,8.8,35.699999999999996,34.60000000000001,57.20000000000001,16
362,6134.0,0.5,0.1,-1.1,-1.4000000000000001,0.6000000000000001,8.700000000000001,16.8,36.300000000000004,52.2,16
363,6151.0,0.1,-0.4,-0.2,-1.6,0.0,10.0,-8.600000000000001,35.699999999999996,43.800000000000004,16
364,6167.0,0.0,-1.2000000000000002,0.4,-1.8,-0.5,10.100000000000001,-18.4,31.400000000000002,39.50000000000001,16
365,6184.0,-0.8,-1.5,1.7000000000000002,-2.7,-0.9,11.3,-28.0,16.6,32.8,16
366,6201.0,-0.9,-2.1,1.9000000000000001,-2.8000000000000003,-1.6,11.5,-34.50000000000001,9.700000000000001,23.099999999999998,16
367,6217.0,0.0,-2.6,2.5,-1.9000000000000001,-2.2,12.100000000000001,-54.199999999999996,11.900000000000002,6.300000000000001,16
368,6234.0,0.0,-3.6,2.5,-1.9000000000000001,-3.3000000000000003,12.100000000000001,-55.2,-4.4,-5.0,16
369,6251.0,0.0,-3.6,2.5,-2.2,-2.6,13.3,-38.300000000000004,-5.300000000000001,-12.4,16
370,6267.0,-0.4,-2.6,3.7,-2.2,-1.6,13.3,-19.5,-1.9,-21.1,16
371,6284.0,-0.30000000000000004,-1.0,3.6,-2.2,-0.4,13.0,21.200000000000003,11.2,-39.2,16
372,6301.0,-0.30000000000000004,0.0,2.7,-2.6,0.7000000000000001,11.600000000000001,49.199999999999996,18.3,-43.50000000000001,16
373,6317.0,-0.9,1.1,1.5,-3.1,2.0,10.4,50.60000000000001,16.5,-35.4,16
374,6334.0,-1.1,1.9000000000000001,0.2,-3.1,2.4000000000000004,9.700000000000001,20.8,13.6,-22.700000000000003,16
375,6350.0,-0.7000000000000001,1.8,0.0,-2.8000000000000003,2.2,9.600000000000001,3.1,11.4,-14.100000000000001,16
376,6367.0,-0.30000000000000004,1.2000000000000002,-0.2,-2.4000000000000004,1.5,9.3,-24.400000000000002,-1.2000000000000002,6.0,16
377,6384.0,-0.1,1.1,-0.7000000000000001,-2.2,1.3,8.9,-35.1,-16.4,18.3,16
378,6401.0,0.2,0.5,-1.3,-1.8,0.6000000000000001,8.3,-35.3,-20.400000000000002,21.6,16
379,6417.0,0.30000000000000004,0.30000000000000004,-1.2000000000000002,-1.6,0.30000000000000004,8.4,-26.200000000000003,-12.8,16.200000000000003,16
380,6434.0,0.30000000000000004,0.30000000000000004,-1.2000000000000002,-1.4000000000000001,0.6000000000000001,8.5,-15.6,-7.9,9.899999999999999,16
381,6451.0,0.6000000000000001,0.4,-1.3,-1.3,0.2,8.4,3.5,-7.400000000000001,-0.8,16
382,6468.0,0.6000000000000001,0.2,-1.1,-1.3,0.6000000000000001,8.0,8.0,-9.5,-6.300000000000001,16
383,6484.0,0.6000000000000001,0.8,-1.7000000000000002,-1.1,0.8,8.1,2.0,-12.8,-12.9,16
384,6501.0,0.9,0.7000000000000001,-1.6,-0.8,0.9,7.800000000000001,-0.9000000000000001,-15.100000000000001,-16.3,16
385,6518.0,1.1,0.8,-2.0,-0.5,0.9,7.7,-1.8000000000000003,-22.9,-18.200000000000003,16
386,6534.0,1.5,1.0,-2.0,-0.2,1.1,7.7,-1.5,-25.900000000000002,-19.200000000000003,16
387,6551.0,1.6,0.9,-1.7000000000000002,0.0,1.0,7.9,0.9000000000000001,-30.000000000000004,-18.5,16
388,6567.0,1.4000000000000001,0.6000000000000001,-0.9,-0.1,0.7000000000000001,8.8,4.1,-21.400000000000002,-15.2,16
389,6584.0,1.2000000000000002,0.4,0.0,-0.30000000000000004,0.5,9.700000000000001,11.4,-19.400000000000002,-21.6,16
390,6601.0,1.2000000000000002,0.1,-0.1,-0.2,0.30000000000000004,9.700000000000001,19.400000000000002,-25.8,-37.800000000000004,16
391,6617.0,1.1,0.4,0.2,-0.1,0.6000000000000001,9.9,21.7,-26.300000000000004,-43.300000000000004,16
392,6634.0,1.1,0.4,0.2,-0.30000000000000004,0.5,9.9,18.3,-22.4,-38.1,16
393,6651.0,0.5,-0.2,1.0,-1.1,-0.4,11.700000000000001,10.8,1.7,-10.299999999999999,16
394,6668.0,0.0,-0.9,2.3000000000000003,-1.5,-0.8,12.600000000000001,11.5,20.2,15.399999999999999,16
395,6684.0,-0.5,-1.3,3.7,-1.8,-1.4000000000000001,13.600000000000001,11.900000000000002,32.400000000000006,20.7,16
396,6701.0,-0.1,-2.1,4.1000000000000005,-1.8,-1.7000000000000002,14.600000000000001,5.0,28.700000000000003,13.5,16
397,6717.0,-0.2,-2.5,4.9,-1.6,-2.7,14.200000000000001,-5.7,-0.6000000000000001,4.9,16
398,6734.0,-0.2,-2.8000000000000003,4.7,-1.7000000000000002,-2.5,14.3,-18.1,-17.200000000000003,-1.8000000000000003,16
399,6751.0,0.0,-1.9000000000000001,3.2,-1.4000000000000001,-1.8,13.0,-39.9,-47.400000000000006,-22.700000000000003,16
400,6768.0,0.30000000000000004,-1.4000000000000001,1.8,-0.9,-1.4000000000000001,11.5,-52.1,-61.0,-36.300000000000004,16
401,6784.0,0.2,-0.6000000000000001,0.6000000000000001,-0.8,-0.8,10.4,-41.199999999999996,-54.9,-40.2,16
402,6801.0,0.0,0.1,0.0,-0.9,-0.1,9.8,-2.1,-22.5,-43.800000000000004,16
403,6817.0,0.0,0.1,0.0,-0.7000000000000001,0.0,8.700000000000001,29.500000000000004,-21.200000000000003,-46.7,16
404,6834.0,0.1,0.2,-1.1,-0.5,0.30000000000000004,9.0,35.5,-11.6,-44.9,16
405,6851.0,0.4,0.7000000000000001,-1.5,-0.30000000000000004,0.8,7.7,34.7,-2.1,-39.8,16
406,6873.0,0.4,0.8,-3.1,-0.30000000000000004,1.0,6.7,26.799999999999997,-0.7,-20.900000000000002,16
407,6884.0,0.4,0.8,-3.1,-0.4,0.8,6.6000000000000005,25.5,4.5,-14.900000000000002,16
408,6901.0,0.4,0.30000000000000004,-3.5,-0.30000000000000004,0.4,6.2,31.5,11.4,-10.700000000000001,16
409,6917.0,0.5,0.1,-3.5,-0.30000000000000004,0.4,6.0,49.0,18.8,-20.900000000000002,16
410,6934.0,0.5,-0.2,-3.6,-0.4,0.30000000000000004,6.1000000000000005,55.2,27.400000000000002,-27.700000000000003,16
411,6951.0,0.30000000000000004,-0.30000000000000004,-2.7,-0.7000000000000001,0.4,7.0,65.0,48.10000000000001,-37.400000000000006,16
412,6967.0,0.0,0.0,-2.3000000000000003,-1.2000000000000002,0.9,7.4,71.6,44.8,-40.6,16
413,6984.0,-0.30000000000000004,0.6000000000000001,-1.8,-1.7000000000000002,1.7000000000000002,7.800000000000001,53.2,37.400000000000006,-37.1,16
414,7001.0,-0.1,1.2000000000000002,-0.8,-1.6,2.3000000000000003,8.9,33.7,34.900000000000006,-30.799999999999997,16
415,7018.0,0.4,1.2000000000000002,-0.4,-1.1,2.4000000000000004,9.200000000000001,24.5,29.200000000000003,-18.4,16
416,7034.0,0.4,1.2000000000000002,-0.4,-1.4000000000000001,2.7,8.4,17.0,14.900000000000002,-13.5,16
417,7051.0,-0.5,2.2,0.0,-0.5,3.2,13.5,-24.200000000000003,-110.5,-43.00000000000001,16
418,7067.0,-1.5,2.1,1.9000000000000001,2.4000000000000004,2.7,16.3,-92.7,-244.20000000000005,-99.10000000000001,16
419,7084.0,-0.8,-1.6,9.4,0.1,-0.8,11.5,-113.4,75.2,-52.60000000000001,16
420,7101.0,1.3,-0.9,-6.300000000000001,1.2000000000000002,-0.4,13.8,-54.9,-138.40000000000003,-16.5,16
421,7119.0,-3.3000000000000003,-0.1,5.800000000000001,-0.8,1.4000000000000001,9.1,-22.700000000000003,12.4,-82.10000000000001,16
422,7134.0,-0.5,-1.8,-4.5,-1.1,-1.6,5.300000000000001,-19.700000000000003,34.2,-96.7,16
423,7151.0,1.2000000000000002,-2.5,2.3000000000000003,0.6000000000000001,-2.3000000000000003,12.100000000000001,19.200000000000003,1.5,16.3,16
424,7168.0,0.2,-1.0,0.8,-0.5,-0.6000000000000001,10.600000000000001,60.2,59.60000000000001,61.0,16
425,7184.0,0.0,-1.9000000000000001,0.9,-1.1,-1.3,10.600000000000001,62.300000000000004,111.20000000000002,65.2,16
426,7201.0,0.0,-1.9000000000000001,0.9,-2.9000000000000004,1.4000000000000001,8.3,53.8,55.1,83.70000000000002,16
427,7217.0,-1.6,0.6000000000000001,-1.4000000000000001,-3.7,3.7,9.8,30.1,-65.6,55.8,16
428,7256.0,1.1,0.8,-1.7000000000000002,0.2,1.5,8.1,8.700000000000001,-60.7,50.7,16
429,7267.0,1.1,0.8,-1.7000000000000002,0.1,1.7000000000000002,6.7,55.1,-89.4,46.199999999999996,16
430,7284.0,1.1,1.1,-4.7,0.4,2.7,5.5,111.70000000000002,-160.4,36.6,16
431,7301.0,0.8,1.3,-3.4000000000000004,0.5,2.9000000000000004,7.2,132.3,-195.20000000000002,30.200000000000003,16
432,7317.0,0.0,2.0,-1.2000000000000002,0.6000000000000001,3.8000000000000003,8.5,133.4,-196.90000000000003,24.599999999999998,16
433,7340.0,-0.9,2.9000000000000004,0.2,1.8,4.1000000000000005,14.4,54.0,-260.29999999999995,-14.100000000000001,16
434,7351.0,-1.5,1.6,-0.4,0.7000000000000001,3.8000000000000003,8.9,-20.400000000000002,-269.6,-20.0,16
435,7367.0,0.9,-0.2,15.0,3.7,1.7000000000000002,24.3,-116.5,-117.30000000000001,-38.800000000000004,16
436,7385.0,-2.2,-0.30000000000000004,1.1,0.30000000000000004,1.2000000000000002,10.4,-130.4,130.8,-37.9,16
437,7401.0,-2.2,-0.30000000000000004,1.1,1.9000000000000001,-0.5,7.7,-82.7,179.5,-31.7,16
438,7417.0,-1.3,-1.5,-4.3,0.2,-0.1,5.9,93.49999999999999,113.5,-37.7,16
439,7434.0,-1.5,-2.2,-5.4,0.6000000000000001,-0.1,2.4000000000000004,242.0,-0.7,-40.0,16
440,7451.0,5.0,-1.1,12.700000000000001,3.0,9.1,9.700000000000001,216.6,10.9,-61.599999999999994,16
441,7467.0,0.4,4.9,3.6,2.5,3.7,12.4,58.60000000000001,-117.60000000000001,-51.1,16
442,7484.0,3.2,-2.5,-12.3,1.8,1.5,8.1,-113.5,-60.7,-10.200000000000001,16
443,7501.0,1.9000000000000001,-2.1,-1.2000000000000002,4.0,0.7000000000000001,7.9,-107.7,-27.700000000000003,13.5,16
444,7517.0,2.0,-1.6,1.0,4.1000000000000005,1.1,10.100000000000001,1.0,-13.000000000000002,-0.4,16
445,7534.0,-1.3,-2.3000000000000003,-3.3000000000000003,0.8,0.6000000000000001,5.9,49.199999999999996,16.700000000000003,21.400000000000002,16
446,7551.0,-1.2000000000000002,0.5,0.2,1.1,3.5,9.3,-2.5,-45.8,39.400000000000006,16
447,7567.0,-0.2,0.8,1.6,2.2,3.6,10.700000000000001,-38.400000000000006,-25.300000000000004,67.3,16
448,7584.0,-0.2,0.8,1.6,1.5,5.4,11.8,-25.300000000000004,34.2,42.7,16
449,7601.0,-0.9,2.8000000000000003,2.6,0.4,3.1,10.5,-13.100000000000001,34.2,30.9,16
450,7636.0,-0.6000000000000001,2.1,3.3000000000000003,2.0,4.0,13.700000000000001,68.1,16.200000000000003,7.0,16
451,7652.0,-1.5,0.6000000000000001,4.2,0.9,3.8000000000000003,11.100000000000001,68.3,123.6,10.200000000000001,16
452,7667.0,-1.7000000000000002,0.9,3.0,0.1,4.5,11.600000000000001,68.0,117.80000000000001,60.2,16
453,7684.0,-2.0,1.1,-0.1,-0.30000000000000004,4.4,9.0,49.4,102.10000000000001,88.00000000000001,16
454,7701.0,-1.7000000000000002,2.0,0.8,-0.1,5.2,10.0,2.0,68.1,123.6,16
455,7718.0,-0.1,2.2,0.9,1.4000000000000001,5.4,10.100000000000001,17.200000000000003,67.5,132.1,16
456,7735.0,3.8000000000000003,1.0,1.5,5.4,4.3,10.600000000000001,64.0,41.6,93.10000000000001,16
457,7752.0,3.1,0.8,2.4000000000000004,4.7,4.3,11.5,85.4,-0.7,34.400000000000006,16
458,7767.0,2.9000000000000004,-1.1,0.4,4.5,2.6,9.4,74.10000000000001,14.200000000000001,11.1,16
459,7784.0,2.9000000000000004,-1.1,0.4,3.4000000000000004,1.9000000000000001,9.700000000000001,60.5,41.6,19.0,16
460,7801.0,1.9000000000000001,-1.7000000000000002,1.3,4.800000000000001,2.4000000000000004,10.700000000000001,28.200000000000003,72.0,27.6,16
461,7817.0,2.8000000000000003,-2.0,2.3000000000000003,4.0,2.5,10.5,55.7,76.60000000000001,42.400000000000006,16
462,7835.0,1.7000000000000002,-0.8,0.7000000000000001,1.8,3.5,8.6,80.9,55.0,56.9,16
463,7850.0,-0.1,-0.4,-0.9,0.0,4.2,7.0,83.4,35.9,80.4,16
464,7867.0,-1.5,0.2,-2.4000000000000004,-0.4,5.800000000000001,5.800000000000001,51.0,9.700000000000001,105.7,16
465,7884.0,-1.8,2.2,-1.8,-0.5,6.800000000000001,6.800000000000001,32.5,-8.600000000000001,98.2,16
466,7901.0,-1.6,1.2000000000000002,0.6000000000000001,-0.2,5.800000000000001,9.1,50.1,-0.8,57.49999999999999,16
467,7917.0,-0.9,-0.6000000000000001,0.30000000000000004,0.4,4.3,8.700000000000001,124.10000000000001,23.099999999999998,32.300000000000004,16
468,7937.0,0.30000000000000004,-3.1,-1.0,1.6,2.2,7.1000000000000005,163.90000000000003,38.400000000000006,4.4,16
469,7951.0,1.3,-4.6000000000000005,-2.1,2.5,1.2000000000000002,5.7,194.7,60.1,-27.400000000000002,16
470,7968.0,1.3,-4.6000000000000005,-2.1,2.1,1.3,4.1000000000000005,187.3,95.30000000000001,-34.800000000000004,16
471,7984.0,1.3,-4.9,-3.4000000000000004,1.4000000000000001,2.3000000000000003,4.9,166.60000000000002,115.9,-32.8,16
472,8001.0,0.2,-3.4000000000000004,-1.7000000000000002,0.30000000000000004,3.8000000000000003,5.9,101.9,123.8,-4.800000000000001,16
473,8017.0,0.5,-2.2,1.4000000000000001,1.6,4.9,10.700000000000001,57.3,112.30000000000001,17.400000000000002,16
474,8034.0,2.6,-2.0,4.2,3.4000000000000004,4.6000000000000005,11.0,79.39999999999999,94.4,1.9,16
475,8051.0,3.6,-2.5,3.9000000000000004,2.8000000000000003,4.3,9.0,100.1,78.5,-20.400000000000002,16
476,8067.0,2.2,-2.8000000000000003,2.5,1.9000000000000001,4.5,9.0,96.1,71.9,-26.9,16
477,8084.0,0.4,-1.8,3.5,-0.2,5.7,9.8,78.10000000000001,53.599999999999994,-32.1,16
478,8101.0,-1.7000000000000002,-1.0,2.5,-2.3000000000000003,6.5,8.700000000000001,38.7,-8.899999999999999,-29.300000000000004,16
479,8117.0,-3.5,0.6000000000000001,2.7,-4.2,8.200000000000001,8.8,37.7,8.4,-40.800000000000004,16
480,8134.0,-2.4000000000000004,0.9,1.5,-3.4000000000000004,8.700000000000001,7.4,86.60000000000001,33.2,-55.7,16
481,8150.0,-2.4000000000000004,0.9,1.5,-2.6,7.2,4.5,110.4,32.7,-47.400000000000006,16
482,8167.0,-1.5,-0.8,-1.1,-1.8,6.2,2.9000000000000004,102.4,31.9,-41.0,16
483,8184.0,0.4,-2.8000000000000003,-2.6,0.1,4.7,2.8000000000000003,75.7,28.0,-32.1,16
484,8201.0,1.9000000000000001,-3.9000000000000004,-2.4000000000000004,0.30000000000000004,4.6000000000000005,2.7,63.4,23.400000000000002,-36.5,16
485,8217.0,1.4000000000000001,-3.3000000000000003,-2.6,-0.8,5.7,2.5,34.50000000000001,11.900000000000002,-44.10000000000001,16
486,8234.0,-0.2,-1.4000000000000001,-1.9000000000000001,-2.5,7.9,4.0,18.0,3.7000000000000006,-45.2,16
487,8250.0,-1.5,0.7000000000000001,-1.1,-3.3000000000000003,9.0,3.8000000000000003,81.50000000000001,43.900000000000006,1.0,16
488,8267.0,-0.5,3.8000000000000003,-2.8000000000000003,-2.3000000000000003,12.3,1.9000000000000001,90.0,28.500000000000004,7.699999999999999,16
489,8284.0,-1.8,4.3,-3.8000000000000003,-3.7,12.8,0.6000000000000001,76.3,22.2,-19.5,16
490,8301.0,5.1000000000000005,-0.4,-2.0,3.2,8.200000000000001,2.2,26.5,30.200000000000003,23.800000000000004,16
491,8317.0,1.0,0.9,-1.8,-0.9,9.5,2.4000000000000004,23.0,26.300000000000004,-5.500000000000001,16
492,8334.0,1.4000000000000001,-0.1,-1.3,-0.5,8.6,2.8000000000000003,11.5,14.5,14.200000000000001,16
493,8350.0,1.4000000000000001,-0.1,-1.3,-0.2,8.6,4.4,9.5,-0.1,18.4,16
494,8367.0,2.2,-0.30000000000000004,1.7000000000000002,0.30000000000000004,8.1,6.5,26.1,-16.5,-9.700000000000001,16
495,8384.0,1.4000000000000001,-0.6000000000000001,2.1,-1.6,8.4,5.4,36.9,-28.400000000000002,-17.9,16
496,8401.0,-0.2,-0.1,0.7000000000000001,-2.7,9.4,4.9,27.5,-36.6,2.7,16
497,8417.0,-1.9000000000000001,1.9000000000000001,0.4,-2.5,11.3,2.7,77.00000000000001,-12.4,22.8,16
498,8435.0,-0.2,1.6,-3.0,-2.6,9.4,0.2,44.00000000000001,-23.2,11.700000000000001,16
499,8451.0,-0.5,-0.1,-2.5,-2.2,8.9,1.1,8.899999999999999,-16.3,4.4,16
500,8467.0,-0.2,-0.1,0.4,-1.9000000000000001,8.8,4.0,-27.9,-7.200000000000001,-14.300000000000002,16
501,8485.0,-0.8,0.2,2.0,-2.5,9.1,5.800000000000001,-37.400000000000006,-36.6,6.8,16
502,8501.0,-0.4,-1.6,0.1,-2.0,7.300000000000001,3.9000000000000004,-16.3,-30.699999999999996,8.4,16
503,8517.0,-1.6,-1.3,3.4000000000000004,-3.3000000000000003,7.6000000000000005,7.300000000000001,-2.3,6.300000000000001,-20.5,16
504,8534.0,-1.6,-1.3,3.4000000000000004,-2.5,8.3,9.1,39.2,16.8,-27.099999999999998,16
505,8551.0,-0.8,-0.6000000000000001,5.300000000000001,-2.3000000000000003,9.700000000000001,7.9,62.900000000000006,11.3,-24.7,16
506,8567.0,-1.5,1.2000000000000002,2.6,-4.2,13.9,4.7,100.1,8.5,-3.5,16
507,8584.0,-2.2,2.2,-1.9000000000000001,-1.9000000000000001,10.700000000000001,-1.5,55.1,20.2,37.400000000000006,16
508,8607.0,0.5,2.7,-5.7,-2.2,12.700000000000001,-1.2000000000000002,-23.0,-10.9,25.5,16
509,8619.0,-0.8,2.4000000000000004,-4.9,-2.2,10.200000000000001,-1.6,-99.39999999999999,-14.300000000000002,26.400000000000006,16
510,8634.0,0.1,-0.2,-3.5,-1.4000000000000001,8.8,0.1,-137.5,-17.5,26.9,16
511,8651.0,0.1,-1.1,1.7000000000000002,-1.4000000000000001,7.800000000000001,5.7,-119.49999999999999,-13.6,18.6,16
512,8667.0,0.0,0.9,1.0,-1.4000000000000001,9.8,5.1000000000000005,34.300000000000004,12.0,6.8,16
513,8684.0,0.6000000000000001,1.0,-3.5,-0.9,10.0,0.30000000000000004,71.39999999999999,9.5,-18.700000000000003,16
514,8701.0,-0.30000000000000004,0.7000000000000001,-5.4,-1.9000000000000001,9.700000000000001,-1.7000000000000002,-1.0,6.600000000000001,-27.400000000000002,16
515,8717.0,-0.30000000000000004,0.7000000000000001,-5.4,-1.5,9.700000000000001,0.4,-33.9,20.8,-2.6,16
516,8736.0,-0.4,1.7000000000000002,-1.4000000000000001,-2.0,10.600000000000001,2.5,-26.5,25.4,29.600000000000005,16
517,8751.0,-0.4,1.7000000000000002,-1.4000000000000001,-1.8,11.100000000000001,2.5,-24.200000000000003,24.599999999999998,44.2,16
518,8767.0,-0.30000000000000004,1.9000000000000001,-2.9000000000000004,-1.6,9.700000000000001,-0.6000000000000001,-49.800000000000004,1.1,63.2,16
519,8784.0,0.1,1.1,-2.9000000000000004,-1.3,11.0,1.8,-67.5,51.1,41.900000000000006,16
520,8801.0,-0.9,2.8000000000000003,-2.6,-2.8000000000000003,11.700000000000001,1.7000000000000002,-66.2,84.80000000000001,9.4,16
521,8817.0,-2.0,2.2,-2.4000000000000004,-3.5,10.9,2.0,-71.0,88.00000000000001,6.0,16
522,8834.0,-2.1,1.8,-3.7,-3.5,10.4,0.8,-93.8,71.0,21.7,16
523,8851.0,-2.3000000000000003,1.8,-1.6,-3.7,10.3,3.2,-116.2,45.3,41.50000000000001,16
524,8868.0,-2.4000000000000004,0.7000000000000001,-0.6000000000000001,-3.8000000000000003,9.0,4.5,-108.50000000000001,56.300000000000004,61.39999999999999,16
525,8884.0,-1.6,-0.5,0.30000000000000004,-2.8000000000000003,7.6000000000000005,5.6000000000000005,-76.2,25.7,87.00000000000001,16
526,8900.0,-2.2,-0.7000000000000001,3.1,-3.2,7.300000000000001,8.6,-82.3,5.9,89.8,16
527,8917.0,-2.2,-0.7000000000000001,3.1,-3.4000000000000004,7.7,11.700000000000001,-119.1,-1.1,48.50000000000001,16
528,8934.0,-2.5,-0.1,6.0,-4.0,7.6000000000000005,14.5,-134.4,10.4,15.100000000000001,16
529,8951.0,-2.8000000000000003,0.4,10.3,-3.8000000000000003,8.0,16.0,-127.5,18.700000000000003,-54.9,16
530,8968.0,-2.5,0.2,9.0,-3.8000000000000003,6.9,14.8,-90.80000000000001,-28.0,-123.8,16
531,8985.0,-3.4000000000000004,-0.1,8.6,-4.0,6.7,12.9,-32.6,-70.10000000000001,-184.7,16
532,9001.0,-2.6,-1.3,5.800000000000001,-3.7,3.8000000000000003,12.0,-4.0,-94.7,-218.20000000000002,16
533,9022.0,-1.1,-5.5,4.3,-2.4000000000000004,1.1,9.600000000000001,-12.5,-77.80000000000001,-219.20000000000002,16
534,9034.0,-0.6000000000000001,-5.6000000000000005,1.4000000000000001,-2.8000000000000003,1.0,8.3,-18.1,-74.30000000000001,-213.1,16
535,9051.0,-0.2,-5.5,-1.1,-2.6,0.9,5.9,-16.700000000000003,-90.70000000000002,-185.7,16
536,9067.0,-0.1,-4.9,-1.8,-2.6,1.4000000000000001,5.300000000000001,-38.7,-100.5,-145.3,16
537,9084.0,1.4000000000000001,-4.6000000000000005,-2.6,-1.1,1.3,4.800000000000001,-107.8,-101.0,-112.20000000000002,16
538,9101.0,2.5,-4.7,-2.7,0.1,0.7000000000000001,5.1000000000000005,-192.29999999999998,-108.8,-93.10000000000001,16
539,9123.0,3.9000000000000004,-4.6000000000000005,-3.1,1.6,0.1,5.2,-265.90000000000003,-85.9,-90.70000000000002,16
540,9134.0,3.9000000000000004,-4.6000000000000005,-3.1,2.0,-0.2,4.7,-287.9,-64.9,-95.30000000000001,16
541,9150.0,4.9,-3.7,-4.0,3.2,0.6000000000000001,4.800000000000001,-299.3,-7.300000000000001,-121.2,16
542,9167.0,5.800000000000001,-2.3000000000000003,-4.1000000000000005,3.0,-0.5,5.9,-278.7,23.3,-153.50000000000003,16
543,9184.0,5.300000000000001,-3.2,-2.0,2.6,-1.3,7.6000000000000005,-231.3,-3.6000000000000005,-162.50000000000003,16
544,9201.0,4.9,-2.5,-3.0,2.7,-0.8,5.9,-165.20000000000002,-119.39999999999999,-127.80000000000001,16
545,9217.0,5.5,-0.5,-3.3000000000000003,3.4000000000000004,0.1,6.300000000000001,-143.2,-166.00000000000003,-97.60000000000001,16
546,9234.0,2.5,-1.7000000000000002,-0.7000000000000001,0.9,-1.6,8.9,-133.60000000000002,-171.50000000000003,-13.399999999999999,16
547,9250.0,1.5,-2.9000000000000004,0.8,0.30000000000000004,-3.1,10.600000000000001,-146.60000000000002,-108.2,60.8,16
548,9267.0,4.1000000000000005,1.0,7.300000000000001,3.0,0.30000000000000004,17.1,-156.5,-29.300000000000004,79.19999999999999,16
549,9285.0,6.0,7.2,9.1,4.9,6.1000000000000005,18.8,-109.30000000000001,27.700000000000003,50.7,16
550,9300.0,6.0,7.2,9.1,2.8000000000000003,7.2,17.7,-65.7,16.900000000000002,32.1,16
551,9318.0,-0.5,10.5,9.200000000000001,-7.9,16.400000000000002,19.1,51.70000000000001,-1.6,44.300000000000004,16
552,9334.0,-16.3,32.9,7.9,-17.1,36.2,5.0,218.60000000000002,-109.30000000000001,8.0,16
553,9351.0,-8.1,22.1,-3.7,-1.4000000000000001,5.2,11.700000000000001,242.20000000000002,-309.8,-56.6,16
554,9367.0,3.2,-6.2,-0.4,3.0,-11.8,12.200000000000001,81.60000000000001,-187.20000000000002,-6.9,16
555,9385.0,-1.6,-6.0,2.4000000000000004,2.3000000000000003,4.9,14.100000000000001,-31.5,2.7,27.2,16
556,9400.0,3.2,5.5,6.4,3.8000000000000003,6.1000000000000005,16.2,-23.700000000000003,0.7,22.000000000000004,16
557,9421.0,0.7000000000000001,-1.0,8.700000000000001,2.8000000000000003,-2.7,14.3,19.9,-51.1,71.5,16
558,9434.0,4.2,-3.9000000000000004,1.1,5.2,-3.3000000000000003,10.9,6.8,-97.3,82.3,16
559,9451.0,4.9,-3.5,-0.1,6.300000000000001,-3.1,9.600000000000001,-53.599999999999994,-135.20000000000002,78.4,16
560,9467.0,3.4000000000000004,-2.9000000000000004,-4.5,5.4,-2.8000000000000003,5.1000000000000005,-132.6,-155.70000000000002,40.1,16
561,9485.0,3.8000000000000003,-1.4000000000000001,-4.4,6.2,-1.9000000000000001,5.1000000000000005,-217.6,-138.20000000000002,-17.400000000000002,16
562,9501.0,3.8000000000000003,-1.4000000000000001,-4.4,7.0,-1.9000000000000001,4.800000000000001,-257.0,-90.9,-45.400000000000006,16
563,9518.0,4.3,-0.9,-5.0,5.2,-1.7000000000000002,4.6000000000000005,-321.7,30.5,-83.10000000000001,16
564,9534.0,0.7000000000000001,0.7000000000000001,-3.8000000000000003,1.7000000000000002,-1.7000000000000002,6.4,-315.8,51.1,-89.6,16
565,9552.0,-2.0,1.2000000000000002,0.8,-0.1,-2.2,14.8,-160.0,0.0,-64.0,16
566,9567.0,-3.0,0.0,8.4,0.9,-3.9000000000000004,15.600000000000001,64.60000000000001,31.5,-35.3,16
567,9586.0,0.1,-1.5,3.6,4.800000000000001,-3.5,12.100000000000001,202.60000000000002,32.2,3.4,16
568,9600.0,3.2,-0.7000000000000001,2.6,5.6000000000000005,-2.9000000000000004,11.8,239.1,48.2,22.1,16
569,9620.0,3.1,0.0,3.7,5.1000000000000005,-1.4000000000000001,13.200000000000001,284.6,102.60000000000001,45.2,16
570,9634.0,1.7000000000000002,2.2,-0.6000000000000001,3.6,1.7000000000000002,9.0,341.00000000000006,36.300000000000004,42.0,16
571,9650.0,-0.2,0.5,-2.2,1.8,1.2000000000000002,7.4,396.1,-35.3,28.900000000000002,16
572,9670.0,-1.0,-2.4000000000000004,-4.1000000000000005,1.2000000000000002,-0.5,5.300000000000001,422.9,-94.3,16.6,16
573,9684.0,-1.0,-2.4000000000000004,-4.1000000000000005,-1.0,-0.7000000000000001,3.1,406.90000000000003,-109.10000000000001,6.4,16
574,9700.0,-4.7,-2.5,-6.4,-0.6000000000000001,2.7,-0.5,215.5,-63.70000000000001,-54.1,16
575,9717.0,0.0,0.5,-17.1,1.9000000000000001,3.9000000000000004,-6.0,-38.800000000000004,-45.2,-87.00000000000001,16
576,9734.0,-2.5,0.2,-8.8,-0.2,3.5,4.4,-190.2,12.8,-74.4,16
577,9750.0,-2.5,-0.6000000000000001,-2.5,0.2,0.2,7.7,-241.70000000000002,56.10000000000001,-36.0,16
578,9769.0,-1.7000000000000002,-4.1000000000000005,1.3,1.2000000000000002,-4.5,14.0,-242.50000000000003,83.00000000000001,31.9,16
579,9784.0,0.8,-6.4,5.9,2.8000000000000003,-5.1000000000000005,15.4,-225.4,114.10000000000001,65.4,16
580,9800.0,2.7,-2.8000000000000003,8.1,4.2,-2.0,17.8,-137.5,146.4,75.8,16
581,9817.0,-2.8000000000000003,-0.7000000000000001,11.200000000000001,-1.5,0.0,20.900000000000002,3.7000000000000006,76.7,10.299999999999999,16
582,9837.0,-0.8,-0.2,5.9,0.30000000000000004,0.8,15.600000000000001,108.3,19.700000000000003,-68.9,16
583,9850.0,-3.5,-2.2,3.1,-2.3000000000000003,-0.8,12.700000000000001,136.5,-22.8,-65.3,16
584,9867.0,-3.5,-2.2,3.1,-1.1,-0.6000000000000001,12.700000000000001,140.4,26.5,-22.1,16
585,9888.0,-1.7000000000000002,-0.9,0.0,-0.8,1.4000000000000001,9.5,134.5,66.7,7.6,16
586,9900.0,-1.7000000000000002,-0.9,0.0,0.0,1.3,8.4,122.69999999999999,62.4,19.1,16
587,9917.0,-0.9,-0.9,-2.3000000000000003,-0.8,2.7,6.9,87.80000000000001,41.300000000000004,32.1,16
588,9934.0,-2.0,0.4,-3.0,-1.3,3.5,6.0,52.00000000000001,18.0,22.8,16
589,9950.0,-2.2,0.7000000000000001,-3.8000000000000003,-1.4000000000000001,3.9000000000000004,5.300000000000001,21.400000000000002,-14.600000000000001,15.000000000000002,16
590,9967.0,-0.9,1.4000000000000001,-5.0,-0.1,4.4,4.2,9.8,-36.7,15.899999999999999,16
591,9984.0,2.3000000000000003,3.6,-3.1,3.2,6.6000000000000005,6.2,-4.2,-58.2,8.4,16
592,10001.0,-0.4,-0.5,-2.1,0.6000000000000001,2.5,7.2,-29.200000000000003,-13.5,9.0,16
593,10017.0,1.6,-1.0,-0.8,2.6,1.8,8.6,-77.5,28.600000000000005,28.1,16
594,10034.0,1.3,-0.1,0.1,2.1,2.4000000000000004,9.600000000000001,-103.3,80.0,20.0,16
595,10051.0,0.5,0.30000000000000004,-2.0,1.0,2.5,7.6000000000000005,-113.2,105.7,-3.9,16
596,10067.0,0.5,0.30000000000000004,-2.0,0.0,2.1,6.2,-119.0,81.8,-14.600000000000001,16
597,10084.0,-0.8,0.0,-3.4000000000000004,-0.4,1.9000000000000001,6.5,-117.1,-7.9,-24.0,16
598,10101.0,-0.2,0.5,-2.1,0.9,2.0,8.5,-77.00000000000001,-95.0,-34.300000000000004,16
599,10117.0,0.5,0.6000000000000001,0.1,1.2000000000000002,1.6,10.700000000000001,-7.500000000000001,-90.4,-38.7,16
600,10134.0,0.30000000000000004,0.1,0.8,1.8,1.8,10.5,51.6,-47.3,-46.7,16
601,10151.0,0.30000000000000004,0.7000000000000001,0.6000000000000001,-0.6000000000000001,2.6,9.9,79.6,-2.2,-65.4,16
602,10183.0,-5.2,1.9000000000000001,-2.5,-4.5,3.9000000000000004,7.1000000000000005,71.30000000000001,31.0,-50.3,16
603,10201.0,-4.3,2.1,-3.0,-3.5,4.4,6.5,46.50000000000001,-32.300000000000004,-7.6,16
604,10217.0,-1.7000000000000002,1.3,1.0,-0.8,3.6,10.5,27.9,8.600000000000001,26.300000000000004,16
605,10234.0,1.5,1.1,4.3,2.0,3.5,13.8,23.3,142.3,50.1,16
606,10251.0,1.5,1.1,4.3,1.5,2.6,14.8,17.799999999999997,187.50000000000003,51.9,16
607,10267.0,0.7000000000000001,-0.8,5.4,1.5,1.4000000000000001,13.200000000000001,-1.0,224.2,28.500000000000004,16
608,10284.0,3.1,-0.30000000000000004,2.6,2.6,2.9000000000000004,11.4,-12.100000000000001,230.6,-15.6,16
609,10301.0,3.7,1.0,1.0,1.3,3.2,9.1,-15.8,252.10000000000002,-51.9,16
610,10317.0,1.8,0.5,-2.0,-1.2000000000000002,2.4000000000000004,5.7,-18.6,260.40000000000003,-58.1,16
611,10334.0,2.1,-0.1,-3.8000000000000003,0.5,2.3000000000000003,6.300000000000001,11.8,217.70000000000005,-47.60000000000001,16
612,10350.0,4.6000000000000005,0.4,-2.0,1.0,2.7,6.9,40.5,218.10000000000002,-43.300000000000004,16
613,10367.0,6.1000000000000005,-0.4,-2.8000000000000003,1.8,2.0,5.7,89.8,251.8,-27.9,16
614,10384.0,8.6,-0.8,-5.5,3.6,1.8,2.6,93.49999999999999,256.8,-18.200000000000003,16
615,10401.0,8.9,-2.6,-6.0,3.3000000000000003,0.1,1.6,2.2,235.50000000000003,-56.9,16
616,10417.0,8.200000000000001,-1.2000000000000002,-4.4,2.0,1.2000000000000002,2.8000000000000003,-58.7,265.5,-91.6,16
617,10434.0,8.200000000000001,-1.2000000000000002,-4.4,-5.300000000000001,0.6000000000000001,3.1,-79.6,248.6,-105.20000000000002,16
618,10451.0,1.6,-1.4000000000000001,-3.6,-7.4,1.3,2.4000000000000004,-94.3,214.00000000000003,-98.3,16
619,10467.0,0.0,1.1,-4.2,-5.5,2.8000000000000003,3.6,-137.5,87.50000000000001,-92.2,16
620,10484.0,1.4000000000000001,-1.6,1.1,-6.4,-2.0,10.9,-157.1,21.6,-96.80000000000001,16
621,10501.0,0.8,-3.4000000000000004,6.9,-6.9,-3.0,15.3,-96.9,27.2,-69.9,16
622,10517.0,1.6,-2.2,10.200000000000001,-5.800000000000001,-0.7000000000000001,15.200000000000001,23.3,82.7,-55.3,16
623,10534.0,1.2000000000000002,-0.9,5.7,-6.6000000000000005,-0.8,11.700000000000001,72.0,100.0,-54.6,16
624,10551.0,-0.4,-0.6000000000000001,1.5,-8.3,-0.4,7.300000000000001,81.90000000000002,92.7,-52.300000000000004,16
625,10568.0,-1.2000000000000002,-0.7000000000000001,0.5,-9.3,-0.6000000000000001,6.1000000000000005,26.200000000000003,47.5,-47.400000000000006,16
626,10584.0,-0.9,-0.7000000000000001,4.0,-9.0,-0.7000000000000001,9.600000000000001,-2.4000000000000004,7.200000000000001,-60.8,16
627,10601.0,-2.4000000000000004,-1.0,6.1000000000000005,-10.5,-1.1,11.700000000000001,18.3,6.699999999999999,-74.10000000000001,16
628,10617.0,-5.7,-0.5,4.0,-13.8,-0.7000000000000001,9.4,71.10000000000001,30.5,-58.3,16
629,10634.0,-5.7,-0.5,4.0,-14.9,-0.7000000000000001,7.4,87.3,29.1,-42.900000000000006,16
630,10651.0,-6.300000000000001,0.8,-0.6000000000000001,-14.5,0.4,3.5,77.9,2.6,-16.3,16
631,10668.0,-5.6000000000000005,0.4,-3.6,-12.8,0.1,1.9000000000000001,28.500000000000004,-46.300000000000004,-10.299999999999999,16
632,10684.0,-3.3000000000000003,0.30000000000000004,-2.8000000000000003,-10.100000000000001,-0.5,3.6,-21.0,-91.2,-14.5,16
633,10701.0,-1.4000000000000001,-1.1,-0.7000000000000001,-9.3,-2.2,6.5,-44.6,-92.2,-16.0,16
634,10718.0,-2.4000000000000004,-2.6,1.7000000000000002,-11.0,-3.1,8.3,-19.6,-68.60000000000001,-5.500000000000001,16
635,10734.0,-3.9000000000000004,-2.6,1.3,-11.5,-2.9000000000000004,7.5,2.9,-58.400000000000006,-1.8000000000000003,16
636,10751.0,-4.800000000000001,-1.6,-1.7000000000000002,-12.3,-1.9000000000000001,4.6000000000000005,35.3,-50.8,-13.399999999999999,16
637,10767.0,-2.4000000000000004,-2.8000000000000003,-5.6000000000000005,-9.8,-3.1,0.8,29.800000000000004,-47.0,-37.400000000000006,16
638,10784.0,-5.7,0.4,-4.3,-13.0,0.0,2.2,5.500000000000001,-38.1,-42.0,16
639,10800.0,-2.3000000000000003,3.5,-6.9,-9.600000000000001,3.1,-0.30000000000000004,-22.8,-40.300000000000004,12.8,16
640,10817.0,-2.3000000000000003,3.5,-6.9,-10.3,0.9,1.4000000000000001,-62.900000000000006,-44.2,30.200000000000003,16
641,10834.0,-0.9,0.7000000000000001,-5.1000000000000005,-7.6000000000000005,-0.30000000000000004,3.8000000000000003,-84.9,-53.599999999999994,22.3,16
642,10850.0,-0.7000000000000001,0.30000000000000004,-2.8000000000000003,-9.200000000000001,-1.3,7.1000000000000005,-137.70000000000002,-82.9,-0.7,16
643,10867.0,-2.7,-1.4000000000000001,3.6,-9.700000000000001,-3.0,12.0,-132.4,-77.5,17.799999999999997,16
644,10884.0,-2.3000000000000003,-1.1,6.0,-8.5,-1.3,12.8,-64.2,-50.5,26.700000000000003,16
645,10900.0,-2.7,0.7000000000000001,4.5,-9.700000000000001,-0.30000000000000004,11.8,22.000000000000004,-66.60000000000001,13.000000000000002,16
646,10917.0,-3.1,0.4,4.4,-9.600000000000001,-0.6000000000000001,11.700000000000001,53.50000000000001,-67.9,13.5,16
647,10934.0,-1.4000000000000001,0.2,0.30000000000000004,-7.9,-0.6000000000000001,7.6000000000000005,76.1,-32.2,39.8,16
648,10950.0,1.7000000000000002,-2.9000000000000004,-4.0,-4.7,-3.5,3.4000000000000004,77.9,16.200000000000003,57.400000000000006,16
649,10967.0,2.3000000000000003,-0.1,-5.9,-4.2,-0.30000000000000004,1.4000000000000001,91.8,-10.4,23.099999999999998,16
650,10984.0,3.9000000000000004,-0.1,-7.300000000000001,-2.5,-0.2,0.2,72.4,-40.5,-8.3,16
651,11001.0,2.4000000000000004,2.1,-5.9,-3.9000000000000004,2.1,1.6,25.7,-42.2,-28.400000000000002,16
652,11017.0,2.4000000000000004,2.1,-5.9,-6.5,2.6,3.4000000000000004,9.8,-43.300000000000004,-32.6,16
653,11034.0,-2.9000000000000004,2.5,-1.6,-10.3,2.3000000000000003,8.700000000000001,7.699999999999999,-41.6,-7.400000000000001,16
654,11050.0,-5.5,0.4,1.4000000000000001,-13.200000000000001,-0.7000000000000001,8.3,30.3,-58.3,38.300000000000004,16
655,11072.0,-5.0,1.6,3.0,-7.0,6.300000000000001,13.3,45.9,-67.5,29.500000000000004,16
656,11084.0,-2.2,0.8,0.5,-7.4,-0.8,7.4,30.4,-43.50000000000001,10.5,16
657,11101.0,0.0,-2.3000000000000003,0.30000000000000004,-3.8000000000000003,-3.1,6.5,23.3,-6.500000000000001,28.0,16
658,11118.0,4.4,-3.4000000000000004,-2.6,-1.4000000000000001,-2.9000000000000004,5.300000000000001,16.200000000000003,11.000000000000002,26.5,16
659,11134.0,5.4,-2.8000000000000003,-3.4000000000000004,-0.4,-2.4000000000000004,4.5,-25.7,25.4,-4.6,16
660,11150.0,1.8,-2.9000000000000004,0.9,-4.0,-2.7,8.8,-84.1,-1.1,-19.200000000000003,16
661,11171.0,1.4000000000000001,-1.5,6.6000000000000005,-4.3,-1.5,14.600000000000001,-94.0,-50.2,-29.900000000000006,16
662,11185.0,1.8,-1.1,11.100000000000001,-3.8000000000000003,-1.4000000000000001,19.200000000000003,-65.4,-38.50000000000001,-34.800000000000004,16
663,11201.0,1.8,-1.1,11.100000000000001,-2.5,0.30000000000000004,15.9,-11.3,-5.4,-33.2,16
664,11223.0,0.5,1.9000000000000001,0.30000000000000004,-5.0,1.4000000000000001,8.4,14.900000000000002,-7.400000000000001,-53.300000000000004,16
665,11236.0,0.5,1.9000000000000001,0.30000000000000004,-6.300000000000001,1.6,5.9,9.600000000000001,-10.700000000000001,-48.10000000000001,16
666,11264.0,-0.5,1.3,-3.4000000000000004,-6.0,0.7000000000000001,4.7,-19.200000000000003,7.500000000000001,-18.5,16
667,11267.0,-0.5,1.3,-3.4000000000000004,-6.5,0.7000000000000001,5.4,-13.8,18.8,-17.7,16
668,11284.0,-1.2000000000000002,1.0,-1.5,-6.2,-0.4,7.2,12.4,34.0,-17.200000000000003,16
669,11300.0,0.1,-0.9,-0.1,-5.6000000000000005,-1.5,7.9,23.099999999999998,45.7,-18.1,16
670,11317.0,-0.1,-0.30000000000000004,1.5,-6.0,-0.9,9.4,39.8,73.9,-10.200000000000001,16
671,11334.0,0.1,-1.2000000000000002,1.8,-6.0,-1.7000000000000002,9.600000000000001,47.80000000000001,81.60000000000001,6.1000000000000005,16
672,11351.0,0.4,0.4,-0.1,-5.800000000000001,0.0,7.5,57.1,77.20000000000002,2.2,16
673,11367.0,0.0,1.0,-2.1,-6.300000000000001,0.8,5.300000000000001,67.2,73.6,5.300000000000001,16
674,11384.0,0.0,1.0,-2.1,-5.5,1.4000000000000001,4.0,65.89999999999999,83.5,12.9,16
675,11400.0,2.3000000000000003,1.3,-4.3,-4.1000000000000005,0.5,2.5,45.3,113.2,23.900000000000006,16
676,11417.0,3.0,0.30000000000000004,-4.4,-3.9000000000000004,0.4,2.1,19.700000000000003,141.9,7.699999999999999,16
677,11434.0,2.4000000000000004,0.5,-3.7,-6.2,0.5,4.2,20.3,147.6,-26.700000000000003,16
678,11451.0,0.2,-1.2000000000000002,-0.4,-7.9,-2.1,6.1000000000000005,31.2,134.3,-23.2,16
679,11469.0,-0.1,-2.1,-0.7000000000000001,-8.9,-0.9,5.300000000000001,33.6,133.20000000000002,-17.5,16
680,11485.0,-2.6,0.8,0.30000000000000004,-11.600000000000001,0.1,5.1000000000000005,32.5,114.6,-3.2,16
681,11500.0,-5.2,-1.4000000000000001,-0.6000000000000001,-13.4,-1.1,4.800000000000001,14.900000000000002,100.5,11.6,16
682,11517.0,-4.800000000000001,-0.2,0.5,-13.100000000000001,0.1,5.7,-33.50000000000001,56.9,44.8,16
683,11534.0,-2.5,-0.2,2.6,-10.8,0.1,7.800000000000001,-80.0,7.400000000000001,52.1,16
684,11551.0,-1.1,-1.0,4.2,-9.4,-0.7000000000000001,9.5,-96.60000000000001,-36.8,48.300000000000004,16
685,11567.0,0.4,-0.9,5.300000000000001,-7.800000000000001,-0.6000000000000001,10.700000000000001,-74.60000000000001,-42.800000000000004,47.5,16
686,11584.0,0.4,-0.9,5.300000000000001,-7.0,-0.4,10.200000000000001,-51.2,-43.6,37.2,16
687,11601.0,1.4000000000000001,-0.7000000000000001,4.0,-6.6000000000000005,-0.8,8.3,-11.000000000000002,-62.6,16.3,16
688,11617.0,1.7000000000000002,-0.7000000000000001,0.6000000000000001,-5.7,0.5,3.8000000000000003,0.1,-71.10000000000001,7.9,16
689,11634.0,2.5,0.8,-2.8000000000000003,-4.5,0.5,2.7,-6.1000000000000005,-44.4,15.399999999999999,16
690,11651.0,3.5,-0.4,-3.3000000000000003,-3.8000000000000003,0.30000000000000004,3.7,-28.0,-42.3,5.8,16
691,11667.0,3.6,0.5,-1.0,-5.5,0.9,6.5,-29.500000000000004,-34.60000000000001,-15.899999999999999,16
692,11684.0,1.1,0.5,2.5,-6.6000000000000005,0.7000000000000001,8.6,-22.3,-27.3,-21.7,16
693,11701.0,-1.9000000000000001,-0.1,3.6,-9.5,0.1,9.8,-1.2000000000000002,-4.800000000000001,-16.200000000000003,16
694,11717.0,-3.1,-0.30000000000000004,0.9,-10.700000000000001,-0.1,7.0,17.9,0.8,-4.2,16
695,11734.0,-3.5,-1.0,-4.0,-11.100000000000001,-0.7000000000000001,2.2,19.1,-1.4,10.0,16
696,11750.0,-0.8,0.30000000000000004,-5.6000000000000005,-8.4,0.6000000000000001,0.6000000000000001,10.200000000000001,-39.2,15.8,16
697,11767.0,-0.4,0.6000000000000001,-5.9,-7.9,0.9,0.4,-11.8,-55.1,1.4,16
698,11784.0,-0.4,0.6000000000000001,-5.9,-8.700000000000001,1.1,0.9,-20.599999999999998,-52.60000000000001,1.2000000000000002,16
699,11801.0,-1.2000000000000002,1.2000000000000002,-4.0,-8.1,1.4000000000000001,3.7,-21.8,-54.199999999999996,8.899999999999999,16
700,11817.0,0.4,1.4000000000000001,-1.2000000000000002,-7.4,0.6000000000000001,6.2,-11.5,-48.400000000000006,-1.2000000000000002,16
701,11834.0,-1.0,0.5,0.4,-6.800000000000001,1.6,6.6000000000000005,-1.1,-26.400000000000006,18.900000000000002,16
702,11851.0,1.3,1.7000000000000002,-0.6000000000000001,-6.2,1.8,6.6000000000000005,15.100000000000001,-19.9,10.5,16
703,11870.0,0.1,1.5,-0.2,-7.0,1.8,6.1000000000000005,34.900000000000006,-30.5,13.100000000000001,16
704,11884.0,0.6000000000000001,1.8,-1.4000000000000001,-6.5,2.2,5.5,37.9,-34.1,14.600000000000001,16
705,11901.0,-0.8,1.7000000000000002,-1.9000000000000001,-7.7,2.2,5.0,30.9,-59.1,-0.4,16
706,11917.0,-0.5,0.4,-3.0,-7.2,1.1,4.1000000000000005,2.7,-76.80000000000001,25.4,16
707,11934.0,0.2,-0.5,-1.1,-6.300000000000001,0.1,6.2,-35.5,-65.5,24.7,16
708,11951.0,-2.0,-1.4000000000000001,3.0,-8.5,-0.9,10.3,-42.900000000000006,-48.50000000000001,17.799999999999997,16
709,11969.0,-3.0,-2.1,3.1,-9.4,-1.6,10.600000000000001,-22.000000000000004,-32.300000000000004,13.8,16
710,12018.0,-1.5,-3.5,3.7,-6.5,-1.3,10.8,-24.0,7.9,41.900000000000006,16
711,12043.0,-0.1,-1.1,2.1,-6.4,-0.6000000000000001,9.5,-35.5,21.500000000000004,47.80000000000001,16
712,12052.0,-0.1,-1.1,2.1,-5.1000000000000005,0.0,8.6,-31.7,26.000000000000004,38.50000000000001,16
713,12067.0,0.7000000000000001,-0.4,-0.2,-5.7,0.1,7.2,-38.1,33.300000000000004,32.1,16
714,12084.0,-0.8,0.0,-0.1,-7.300000000000001,0.4,7.2,-61.599999999999994,38.1,35.699999999999996,16
715,12101.0,0.5,-0.4,1.1,-6.0,0.0,8.4,-63.4,34.2,40.0,16
716,12117.0,0.5,0.2,1.9000000000000001,-6.1000000000000005,0.6000000000000001,9.1,-48.2,24.8,31.7,16
717,12137.0,1.9000000000000001,-0.4,3.1,-4.800000000000001,-0.1,10.4,-21.300000000000004,11.3,11.000000000000002,16
718,12151.0,1.9000000000000001,-0.4,3.1,-6.0,0.30000000000000004,8.5,4.5,3.1,12.100000000000001,16
719,12167.0,0.7000000000000001,0.0,1.3,-5.4,1.0,7.0,10.200000000000001,-1.0,10.4,16
720,12184.0,1.2000000000000002,1.2000000000000002,-1.3,-5.300000000000001,1.8,5.9,9.100000000000001,-10.299999999999999,0.4,16
721,12201.0,0.8,0.9,-1.6,-4.5,2.1,4.6000000000000005,4.300000000000001,-0.8,15.6,16
722,12217.0,4.4,1.6,-2.9000000000000004,-1.2000000000000002,1.1,4.9,14.700000000000001,11.900000000000002,4.6,16
723,12234.0,4.4,0.1,-2.1,-3.1,1.5,6.300000000000001,23.0,7.6,-17.0,16
724,12250.0,5.300000000000001,0.30000000000000004,0.5,-1.4000000000000001,0.8,7.7,35.3,0.6000000000000001,-38.50000000000001,16
725,12267.0,0.30000000000000004,-2.2,0.1,-6.300000000000001,-1.6,7.2,68.0,22.6,-33.800000000000004,16
726,12284.0,0.9,-1.7000000000000002,-3.5,-5.9,-1.0,3.6,97.3,31.400000000000002,-36.0,16
727,12301.0,1.3,-0.8,-4.2,-5.6000000000000005,0.0,2.8000000000000003,61.10000000000001,23.700000000000003,-43.00000000000001,16
728,12317.0,0.0,-0.9,-0.6000000000000001,-6.9,-0.1,6.300000000000001,49.0,25.6,-47.60000000000001,16
729,12334.0,0.9,-0.1,1.4000000000000001,-6.1000000000000005,0.6000000000000001,8.3,40.6,38.60000000000001,-29.500000000000004,16
730,12350.0,0.9,-0.1,1.4000000000000001,-7.6000000000000005,1.1,8.3,41.50000000000001,35.699999999999996,-35.4,16
731,12367.0,-3.0,0.4,2.8000000000000003,-12.8,1.8,9.600000000000001,57.20000000000001,22.5,-29.900000000000006,16
732,12384.0,-4.5,2.7,-1.0,-9.9,4.2,3.8000000000000003,59.00000000000001,25.1,-4.4,16
733,12401.0,-2.0,1.7000000000000002,-3.1,-9.4,2.3000000000000003,3.7,36.6,11.8,-14.100000000000001,16
734,12417.0,-0.7000000000000001,1.9000000000000001,-4.6000000000000005,-4.800000000000001,2.5,3.4000000000000004,-11.8,4.4,9.8,16
735,12434.0,4.3,0.7000000000000001,-1.4000000000000001,-2.8000000000000003,0.9,7.4,-36.0,9.0,2.8,16
736,12451.0,3.2,-0.2,2.4000000000000004,-4.0,0.7000000000000001,9.0,-37.1,14.800000000000002,-3.2,16
737,12467.0,-0.8,-0.5,7.1000000000000005,-8.1,0.30000000000000004,13.700000000000001,-27.5,28.400000000000002,-5.9,16
738,12484.0,-2.8000000000000003,-1.3,9.3,-10.100000000000001,-0.4,15.8,15.700000000000001,21.8,2.2,16
739,12500.0,-1.7000000000000002,-0.30000000000000004,4.5,-9.1,0.7000000000000001,10.9,60.6,10.299999999999999,6.699999999999999,16
740,12517.0,-0.7000000000000001,0.5,-2.2,-8.1,1.5,4.2,60.300000000000004,5.2,-5.500000000000001,16
741,12534.0,-0.7000000000000001,0.5,-2.2,-7.9,1.5,1.2000000000000002,20.1,-13.000000000000002,-14.300000000000002,16
742,12550.0,0.1,0.30000000000000004,-6.300000000000001,-7.2,1.4000000000000001,0.8,-0.2,-25.0,-23.5,16
743,12567.0,-0.4,-0.1,-4.1000000000000005,-8.1,0.5,4.2,-38.2,-21.300000000000004,-24.5,16
744,12584.0,-0.7000000000000001,-0.30000000000000004,0.4,-8.8,0.2,9.0,-45.5,-4.300000000000001,-13.5,16
745,12600.0,-2.4000000000000004,-0.7000000000000001,4.2,-9.5,0.2,11.4,-10.200000000000001,-0.6000000000000001,10.200000000000001,16
746,12617.0,-1.5,-0.5,3.5,-8.200000000000001,1.0,7.300000000000001,14.700000000000001,4.300000000000001,28.400000000000002,16
747,12634.0,0.0,0.30000000000000004,-1.1,-7.2,1.3,5.4,13.399999999999999,-8.5,35.9,16
748,12650.0,2.6,-0.5,-2.8000000000000003,-4.6000000000000005,0.5,3.8000000000000003,-2.4000000000000004,-37.400000000000006,30.699999999999996,16
749,12667.0,3.2,-1.0,-1.4000000000000001,-3.8000000000000003,0.1,5.4,-13.6,-61.10000000000001,11.4,16
750,12684.0,2.4000000000000004,-1.8,0.7000000000000001,-4.5,-0.8,7.5,-7.500000000000001,-62.6,-0.4,16
751,12701.0,1.7000000000000002,-1.3,-0.7000000000000001,-5.1000000000000005,-0.2,6.300000000000001,4.7,-46.199999999999996,1.9,16
752,12717.0,-0.7000000000000001,-2.1,-0.1,-7.4,-1.1,7.0,20.5,-52.00000000000001,-10.1,16
753,12734.0,-0.7000000000000001,-2.1,-0.1,-7.2,1.1,4.6000000000000005,21.6,-59.00000000000001,-1.5,16
754,12750.0,1.2000000000000002,0.1,-3.1,-9.600000000000001,1.2000000000000002,5.1000000000000005,4.0,-90.0,-24.200000000000003,16
755,12767.0,-1.7000000000000002,1.8,-3.8000000000000003,-6.800000000000001,2.4000000000000004,2.6,-15.100000000000001,-90.80000000000001,-18.200000000000003,16
756,12784.0,-2.9000000000000004,0.1,-4.2,-7.9,2.2,5.9,-37.1,-99.2,-7.9,16
757,12801.0,0.2,1.5,-2.7,-5.5,2.3000000000000003,5.7,-73.5,-86.00000000000001,27.6,16
758,12817.0,-0.7000000000000001,3.0,0.6000000000000001,-6.6000000000000005,4.6000000000000005,11.5,-89.8,-85.4,38.0,16
759,12834.0,-1.0,4.0,5.800000000000001,-6.4,4.5,14.0,-94.80000000000001,-86.8,51.50000000000001,16
760,12850.0,0.2,2.7,9.200000000000001,-5.0,3.1,17.5,-56.300000000000004,-90.6,35.3,16
761,12867.0,3.4000000000000004,-1.1,9.600000000000001,-1.6,-0.6000000000000001,18.0,24.3,-64.4,11.700000000000001,16
762,12884.0,6.4,-2.9000000000000004,3.3000000000000003,1.5,-2.2,11.700000000000001,106.60000000000001,-16.900000000000002,-24.599999999999998,16
763,12901.0,4.2,-3.8000000000000003,-3.0,-0.7000000000000001,-2.8000000000000003,5.4,128.8,19.300000000000004,-59.9,16
764,12917.0,4.2,-3.8000000000000003,-3.0,-1.5,-2.1,4.6000000000000005,114.3,30.000000000000004,-61.300000000000004,16
765,12934.0,3.1,-2.1,-3.6,-4.0,-0.9,5.6000000000000005,68.60000000000001,39.599999999999994,-56.300000000000004,16
766,12951.0,-1.0,-0.8,-1.1,-7.1000000000000005,0.9,9.9,34.2,23.2,-52.400000000000006,16
767,12967.0,-2.7,0.0,2.3000000000000003,-7.6000000000000005,2.5,7.4,37.9,36.1,-31.0,16
768,12984.0,-2.5,1.6,-1.2000000000000002,-9.5,1.4000000000000001,7.9,13.000000000000002,5.8,-31.3,16
769,13000.0,-3.7,0.6000000000000001,-0.6000000000000001,-9.4,2.9000000000000004,6.7,-12.100000000000001,-7.8,-22.9,16
770,13017.0,-3.3000000000000003,2.8000000000000003,-1.5,-8.6,3.9000000000000004,6.6000000000000005,-28.400000000000002,-11.6,-21.500000000000004,16
771,13034.0,-4.2,1.2000000000000002,3.0,-9.5,2.1,11.100000000000001,-49.699999999999996,-16.6,-17.300000000000004,16
772,13050.0,-2.5,-0.8,4.2,-7.800000000000001,0.1,12.4,-20.400000000000002,-22.000000000000004,-1.7,16
773,13067.0,0.6000000000000001,-1.3,0.6000000000000001,-4.6000000000000005,-0.5,8.9,3.5,-14.0,0.30000000000000004,16
774,13084.0,3.3000000000000003,-2.5,-1.3,-1.9000000000000001,-1.7000000000000002,7.0,10.600000000000001,-9.2,-3.8,16
775,13101.0,3.5,-1.8,-3.0,-1.7000000000000002,-0.9,5.300000000000001,16.200000000000003,15.700000000000001,-13.200000000000003,16
776,13117.0,3.5,-1.8,-3.0,-2.3000000000000003,-0.1,5.2,17.799999999999997,25.0,-18.700000000000003,16
777,13134.0,1.7000000000000002,-0.1,-2.4000000000000004,-5.0,1.5,6.6000000000000005,20.400000000000002,35.1,-25.1,16
778,13150.0,-1.1,0.6000000000000001,-0.8,-7.2,1.1,8.700000000000001,17.5,32.6,-19.300000000000004,16
779,13167.0,-2.6,-0.7000000000000001,1.4000000000000001,-8.6,-0.1,9.700000000000001,11.2,5.300000000000001,-15.899999999999999,16
780,13184.0,-0.7000000000000001,-0.6000000000000001,1.3,-4.6000000000000005,0.6000000000000001,9.1,-5.4,-1.9,13.000000000000002,16
781,13201.0,-0.5,0.7000000000000001,1.3,-6.0,1.6,9.4,-9.2,0.1,28.900000000000002,16
782,13218.0,1.4000000000000001,1.9000000000000001,1.7000000000000002,-4.1000000000000005,2.8000000000000003,9.8,-12.8,-6.2,49.4,16
783,13234.0,2.7,0.30000000000000004,-2.3000000000000003,-2.7,1.3,5.800000000000001,-82.3,-25.0,73.30000000000001,16
784,13250.0,7.1000000000000005,-1.8,1.8,1.9000000000000001,-1.1,10.100000000000001,-131.6,-63.0,11.2,16
785,13267.0,3.7,-4.0,4.7,-1.4000000000000001,-3.5,13.100000000000001,-33.300000000000004,-11.1,-6.300000000000001,16
786,13284.0,-1.8,-1.5,-0.9,-7.0,-0.9,7.4,84.69999999999999,30.799999999999997,23.2,16
787,13301.0,-1.8,-1.5,-0.9,-8.0,1.2000000000000002,4.800000000000001,88.10000000000001,31.3,41.300000000000004,16
788,13317.0,-2.2,1.6,-5.4,-6.1000000000000005,3.2,2.2,18.1,-12.100000000000001,54.199999999999996,16
789,13334.0,1.3,0.9,-5.6000000000000005,-3.9000000000000004,-1.1,6.1000000000000005,-75.4,-70.5,22.700000000000003,16
790,13350.0,1.3,-2.7,1.2000000000000002,-3.8000000000000003,-3.6,12.3,-104.4,-69.60000000000001,18.4,16
791,13368.0,-0.30000000000000004,-3.7,5.6000000000000005,-4.800000000000001,-1.5,12.8,-52.1,2.3,48.2,16
792,13384.0,0.6000000000000001,-0.7000000000000001,4.1000000000000005,-5.4,0.5,13.8,-7.200000000000001,3.9,26.799999999999997,16
793,13400.0,-1.8,0.0,4.1000000000000005,-6.6000000000000005,0.5,12.600000000000001,-1.0,14.600000000000001,22.2,16
794,13417.0,-1.2000000000000002,1.0,0.4,-6.1000000000000005,1.6,8.9,-14.200000000000001,12.0,48.2,16
795,13434.0,2.3000000000000003,0.9,-1.7000000000000002,-2.6,1.4000000000000001,6.800000000000001,-37.1,21.200000000000003,38.50000000000001,16
796,13450.0,3.4000000000000004,-2.3000000000000003,-1.6,-1.6,-1.8,6.9,6.2,29.500000000000004,-7.8,16
797,13468.0,2.4000000000000004,-2.6,-0.4,-2.7,-2.1,8.0,49.800000000000004,20.8,-42.5,16
798,13484.0,2.4000000000000004,-2.6,-0.4,-2.2,-2.6,10.200000000000001,51.1,14.800000000000002,-58.3,16
799,13500.0,-0.2,-2.4000000000000004,4.7,-7.4,1.8,13.4,33.800000000000004,71.0,-26.5,16
800,13517.0,-2.2,4.2,4.4,-6.5,5.0,10.3,114.40000000000002,93.8,-4.800000000000001,16
801,13534.0,-1.1,3.3000000000000003,-1.9000000000000001,-7.0,3.3000000000000003,2.3000000000000003,114.9,9.100000000000001,-37.6,16
802,13550.0,-1.5,1.1,-4.7,-6.1000000000000005,2.1,4.6000000000000005,53.0,-46.4,-43.900000000000006,16
803,13567.0,-0.4,0.0,-1.5,-6.5,1.1,7.4,66.0,-22.9,-23.2,16
804,13584.0,1.4000000000000001,0.4,-2.9000000000000004,-4.0,1.8,5.2,78.10000000000001,-8.100000000000001,-20.7,16
805,13600.0,-1.0,3.8000000000000003,-6.4,-6.4,5.4,1.7000000000000002,65.6,2.7,-26.400000000000006,16
806,13617.0,-1.7000000000000002,4.1000000000000005,-1.0,-7.0,5.7,7.1000000000000005,19.799999999999997,-60.00000000000001,-40.4,16
807,13634.0,-0.30000000000000004,1.9000000000000001,1.1,-5.5,3.5,9.200000000000001,21.500000000000004,-25.8,-17.6,16
808,13650.0,0.0,0.2,-2.6,-5.2,1.9000000000000001,5.5,34.7,12.7,-1.7,16
809,13667.0,0.0,0.2,-2.6,-6.2,0.8,6.800000000000001,30.599999999999998,-12.7,3.1,16
810,13684.0,-1.0,-1.0,-1.3,-7.800000000000001,0.6000000000000001,6.5,27.9,-24.0,6.600000000000001,16
811,13701.0,-2.0,-0.4,-1.5,-6.1000000000000005,1.4000000000000001,7.4,6.8,-51.70000000000001,-11.000000000000002,16
812,13718.0,0.5,-1.0,2.3000000000000003,-6.4,0.5,9.5,-1.5,-9.5,-11.900000000000002,16
813,13734.0,-0.7000000000000001,-0.9,3.2,-7.6000000000000005,0.6000000000000001,10.9,-22.5,-2.5,2.1,16
814,13750.0,-4.9,0.30000000000000004,4.2,-8.200000000000001,2.9000000000000004,12.0,-39.50000000000001,-6.500000000000001,47.60000000000001,16
815,13767.0,-3.1,1.7000000000000002,3.4000000000000004,-8.1,3.4000000000000004,11.700000000000001,-45.5,-9.899999999999999,51.50000000000001,16
816,13784.0,-3.7,2.0,0.0,-8.700000000000001,3.7,8.3,-67.60000000000001,26.200000000000003,85.4,16
817,13800.0,-3.0,1.3,-1.1,-8.1,2.9000000000000004,7.1000000000000005,-61.39999999999999,42.400000000000006,94.5,16
818,13817.0,-0.9,0.8,-2.3000000000000003,-6.0,2.5,5.9,-63.0,41.7,99.2,16
819,13834.0,1.3,-0.30000000000000004,-1.9000000000000001,-3.9000000000000004,1.3,6.300000000000001,-67.7,25.5,72.2,16
820,13850.0,2.5,-2.4000000000000004,2.4000000000000004,-2.6,-0.9,10.600000000000001,-54.300000000000004,27.6,39.400000000000006,16
821,13867.0,2.5,-2.4000000000000004,2.4000000000000004,-2.9000000000000004,-1.3,11.8,-33.800000000000004,43.4,34.60000000000001,16
822,13884.0,2.8000000000000003,-2.7,2.9000000000000004,-2.7,-1.7000000000000002,10.5,8.100000000000001,79.7,37.9,16
823,13900.0,2.5,-2.5,1.7000000000000002,-3.0,-0.9,8.1,32.1,100.4,45.9,16
824,13917.0,3.2,-2.0,-1.8,-2.3000000000000003,0.4,5.0,-1.5,91.6,33.1,16
825,13934.0,3.0,-1.3,-2.2,-3.6,0.5,6.5,-32.2,78.2,13.3,16
826,13950.0,2.2,-1.8,0.2,-4.6000000000000005,-0.30000000000000004,8.5,-32.6,68.0,12.4,16
827,13967.0,1.9000000000000001,-1.6,0.9,-4.3,0.1,8.3,-26.400000000000006,62.0,14.300000000000002,16
828,13984.0,2.7,-1.4000000000000001,1.6,-3.6,0.30000000000000004,9.0,-12.100000000000001,42.5,0.6000000000000001,16
829,14001.0,-0.8,-1.3,6.0,-7.1000000000000005,0.30000000000000004,13.3,15.899999999999999,-26.9,-29.900000000000006,16
830,14017.0,-3.8000000000000003,-2.6,8.4,-10.0,-1.1,15.9,9.0,-68.0,-26.400000000000006,16
831,14034.0,5.0,0.9,2.2,-1.1,2.5,9.700000000000001,34.7,-17.9,10.600000000000001,16
832,14050.0,5.0,0.9,2.2,-4.9,2.2,7.5,55.900000000000006,-21.8,1.9,16
833,14068.0,1.2000000000000002,0.4,0.0,-4.6000000000000005,1.1,7.300000000000001,56.300000000000004,-46.50000000000001,2.4000000000000004,16
834,14084.0,1.9000000000000001,-1.2000000000000002,-1.2000000000000002,-3.5,1.4000000000000001,5.9,16.1,-24.900000000000002,-1.6,16
835,14101.0,0.2,0.0,-1.7000000000000002,-5.0,0.9,9.200000000000001,38.400000000000006,-81.2,-20.0,16
836,14117.0,0.0,-2.7,1.6,-5.800000000000001,1.4000000000000001,10.9,25.8,-77.60000000000001,-36.0,16
837,14134.0,-1.4000000000000001,-1.7000000000000002,3.9000000000000004,-8.0,-2.0,12.8,42.5,-55.8,-35.0,16
838,14151.0,-2.3000000000000003,-2.9000000000000004,-0.2,-7.800000000000001,-0.9,7.7,56.2,-9.4,-17.0,16
839,14168.0,-3.5,-2.2,-1.0,-8.9,0.0,7.0,67.3,-38.50000000000001,-19.799999999999997,16
840,14184.0,-0.9,-2.4000000000000004,-6.0,-6.2,-0.2,2.0,35.9,-54.4,-32.0,16
841,14201.0,-1.0,-3.8000000000000003,-3.1,-6.1000000000000005,-1.7000000000000002,4.9,-15.399999999999999,-64.2,-29.400000000000002,16
842,14217.0,0.2,-4.9,1.3,-4.800000000000001,-2.9000000000000004,9.5,-34.400000000000006,-60.2,-26.6,16
843,14234.0,-0.4,-4.800000000000001,2.6,-5.300000000000001,-2.8000000000000003,10.9,25.6,-36.1,-32.1,16
844,14250.0,-0.4,-4.800000000000001,2.6,-5.7,-2.1,8.1,52.00000000000001,-25.200000000000003,-33.300000000000004,16
845,14268.0,-0.9,-3.5,-2.8000000000000003,-6.0,-1.0,3.7,50.8,-8.4,-31.3,16
846,14284.0,-1.0,-1.3,-4.6000000000000005,-5.6000000000000005,0.9,4.6000000000000005,20.599999999999998,2.5,-29.800000000000004,16
847,14300.0,-2.2,-1.7000000000000002,-3.1,-8.1,1.3,7.5,4.5,-66.0,-25.300000000000004,16
848,14317.0,-1.3,-0.1,5.7,-4.1000000000000005,1.1,12.200000000000001,-31.6,-46.6,-37.0,16
849,14334.0,0.30000000000000004,1.2000000000000002,2.4000000000000004,-3.0,3.8000000000000003,14.3,-26.5,4.1,-19.300000000000004,16
850,14351.0,2.0,1.5,3.4000000000000004,-2.7,3.3000000000000003,11.8,1.8000000000000003,27.099999999999998,-19.700000000000003,16
851,14367.0,0.6000000000000001,1.6,-0.1,-4.2,3.4000000000000004,8.3,28.500000000000004,34.0,-15.399999999999999,16
852,14384.0,1.9000000000000001,0.9,2.1,-2.9000000000000004,2.8000000000000003,10.4,9.4,9.700000000000001,-24.3,16
853,14401.0,0.2,1.7000000000000002,2.0,-4.7,3.5,10.3,14.100000000000001,14.0,-22.700000000000003,16
854,14418.0,0.30000000000000004,0.8,-0.9,-4.6000000000000005,2.7,7.4,40.4,28.0,-36.300000000000004,16
855,14434.0,0.30000000000000004,0.8,-0.9,-7.800000000000001,3.0,3.7,55.7,21.500000000000004,-31.9,16
856,14451.0,-4.3,1.3,-5.2,-7.2,5.7,1.7000000000000002,34.0,10.299999999999999,8.3,16
857,14467.0,0.7000000000000001,3.7,-5.800000000000001,-3.7,6.2,4.6000000000000005,-5.0,-18.700000000000003,6.4,16
858,14484.0,1.9000000000000001,4.0,-2.6,-1.1,5.2,7.5,-16.200000000000003,-3.5,5.6,16
859,14502.0,4.1000000000000005,2.4000000000000004,0.8,-1.3,3.7,8.200000000000001,17.5,29.700000000000006,-4.2,16
860,14520.0,1.7000000000000002,0.2,-2.0,-4.7,2.2,10.5,34.800000000000004,-62.900000000000006,-18.8,16
861,14534.0,2.0,-3.2,5.1000000000000005,-2.9000000000000004,-1.1,13.4,21.500000000000004,-110.10000000000001,-42.3,16
862,14551.0,-2.7,1.2000000000000002,-2.7,-7.5,3.3000000000000003,5.6000000000000005,-8.100000000000001,-34.2,-19.400000000000002,16
863,14572.0,-4.2,0.6000000000000001,-3.0,-5.4,3.1,2.6,26.400000000000006,-12.0,-28.500000000000004,16
864,14585.0,-0.5,-1.4000000000000001,-5.6000000000000005,-5.2,0.7000000000000001,2.7,28.400000000000002,-78.10000000000001,-37.6,16
865,14601.0,1.5,-2.6,-1.2000000000000002,-2.7,-0.7000000000000001,7.5,-30.5,-195.5,-67.00000000000001,16
866,14617.0,-1.2000000000000002,-3.9000000000000004,3.8000000000000003,-5.1000000000000005,-2.3000000000000003,12.700000000000001,-87.2,-121.70000000000002,-92.90000000000002,16
867,14634.0,-1.2000000000000002,-3.9000000000000004,3.8000000000000003,-5.5,0.4,16.900000000000002,-75.2,-109.39999999999999,-78.10000000000001,16
868,14650.0,-2.8000000000000003,-1.0,12.8,-5.800000000000001,0.8,22.3,32.8,3.6000000000000005,-14.800000000000002,16
869,14667.0,-0.9,1.3,8.6,-4.1000000000000005,4.800000000000001,11.200000000000001,136.0,50.400000000000006,2.8,16
870,14684.0,2.1,5.0,-4.7,-5.1000000000000005,8.9,0.30000000000000004,54.6,59.60000000000001,10.700000000000001,16
871,14700.0,-1.7000000000000002,8.700000000000001,-9.9,-5.2,9.9,-3.3000000000000003,1.8000000000000003,87.60000000000001,36.6,16
872,14717.0,-1.2000000000000002,6.1000000000000005,-13.200000000000001,-5.7,6.4,0.30000000000000004,-62.7,14.600000000000001,21.8,16
873,14734.0,-0.6000000000000001,1.3,-5.2,-4.9,3.3000000000000003,3.4000000000000004,-75.4,-13.5,10.9,16
874,14750.0,0.30000000000000004,-1.9000000000000001,1.9000000000000001,-3.9000000000000004,-0.1,10.5,-67.4,-29.0,6.2,16
875,14769.0,0.2,-1.5,4.7,-3.9000000000000004,0.2,13.5,-14.600000000000001,-18.4,4.300000000000001,16
876,14784.0,-1.2000000000000002,-1.6,6.1000000000000005,-5.2,0.2,14.9,22.3,-67.10000000000001,-27.099999999999998,16
877,14801.0,0.1,2.7,1.6,-3.8000000000000003,4.6000000000000005,10.4,34.0,-17.5,10.600000000000001,16
878,14817.0,0.1,2.7,1.6,-3.1,3.1,8.3,33.7,5.9,17.799999999999997,16
879,14834.0,0.4,0.7000000000000001,-1.5,-2.4000000000000004,2.1,6.2,8.2,22.8,28.400000000000002,16
880,14851.0,2.1,0.8,-2.0,-2.5,2.3000000000000003,7.9,-3.0,27.9,41.300000000000004,16
881,14870.0,2.5,-0.1,2.9000000000000004,-1.3,0.30000000000000004,14.3,18.0,-11.700000000000001,12.9,16
882,14884.0,4.1000000000000005,-1.9000000000000001,3.8000000000000003,-1.6,0.7000000000000001,13.0,45.9,17.1,-25.8,16
883,14900.0,1.6,0.6000000000000001,0.6000000000000001,-3.6,1.8,10.100000000000001,80.2,43.4,-39.8,16
884,14917.0,-1.7000000000000002,-1.0,-2.9000000000000004,-5.9,1.4000000000000001,5.6000000000000005,82.2,63.10000000000001,-34.400000000000006,16
885,14934.0,3.8000000000000003,6.4,-9.200000000000001,-0.6000000000000001,9.0,-0.9,65.5,67.3,-28.3,16
886,14950.0,-2.6,-0.1,-2.5,-7.1000000000000005,2.4000000000000004,5.800000000000001,17.1,23.5,-45.8,16
887,14967.0,-1.3,1.6,1.0,-5.9,4.1000000000000005,9.3,-1.9,-17.7,-31.799999999999997,16
888,14986.0,-1.9000000000000001,1.3,5.4,-6.4,3.8000000000000003,13.700000000000001,-29.600000000000005,-23.400000000000002,8.0,16
889,15001.0,-0.8,4.1000000000000005,1.4000000000000001,-5.300000000000001,6.5,9.8,-31.400000000000002,4.1,40.300000000000004,16
890,15017.0,-0.8,4.1000000000000005,1.4000000000000001,-4.800000000000001,6.6000000000000005,12.5,-30.000000000000004,-2.1,40.5,16
891,15034.0,-0.9,2.2,1.9000000000000001,-5.0,5.1000000000000005,7.7,-40.6,-1.6,55.60000000000001,16
892,15050.0,-0.7000000000000001,2.0,-2.0,-5.800000000000001,2.6,5.9,-69.80000000000001,-40.2,65.6,16
893,15067.0,-2.9000000000000004,-0.6000000000000001,5.800000000000001,-3.8000000000000003,1.6,14.4,-66.5,-77.20000000000002,88.20000000000002,16
894,15084.0,1.1,0.4,-0.9,-2.2,3.9000000000000004,5.800000000000001,-70.10000000000001,-43.4,93.2,16
895,15100.0,1.8,0.0,-3.2,-3.1,0.8,5.1000000000000005,-73.7,-32.9,80.50000000000001,16
896,15117.0,0.9,-0.6000000000000001,-2.6,-2.7,1.4000000000000001,6.300000000000001,-70.10000000000001,-31.9,73.6,16
897,15134.0,-0.30000000000000004,-2.3000000000000003,-4.800000000000001,-3.8000000000000003,-0.4,4.2,-71.7,-30.4,62.7,16
898,15150.0,0.6000000000000001,-2.5,-1.5,-2.8000000000000003,-0.8,7.5,-77.60000000000001,-20.599999999999998,66.7,16
899,15167.0,2.8000000000000003,-4.3,4.5,-0.4,-2.8000000000000003,13.700000000000001,-94.4,-62.1,43.300000000000004,16
900,15184.0,2.8000000000000003,-3.8000000000000003,4.9,-0.30000000000000004,-2.5,14.100000000000001,-76.60000000000001,-15.2,34.300000000000004,16
901,15201.0,2.8000000000000003,-3.8000000000000003,4.9,-0.4,-2.3000000000000003,13.700000000000001,-62.199999999999996,-9.4,16.0,16
902,15217.0,0.5,-5.0,8.3,-1.0,-2.8000000000000003,18.6,-18.3,20.2,15.000000000000002,16
903,15234.0,0.2,-2.9000000000000004,0.0,-2.6,1.6,4.9,1.0,44.2,9.2,16
904,15250.0,-1.1,-0.5,-4.2,-3.2,1.6,3.8000000000000003,-10.4,18.200000000000003,0.2,16
905,15267.0,0.4,-0.7000000000000001,-4.2,-4.0,-0.30000000000000004,5.5,-2.1,-9.899999999999999,-15.000000000000002,16
906,15284.0,0.2,-0.5,-3.1,-2.9000000000000004,-0.1,7.7,-5.6,-10.0,-16.200000000000003,16
907,15301.0,0.6000000000000001,-1.2000000000000002,2.0,-2.7,-0.2,11.200000000000001,-5.0,-11.000000000000002,-18.200000000000003,16
908,15317.0,-0.9,-1.9000000000000001,5.800000000000001,-4.1000000000000005,-0.9,15.0,-1.6,-24.8,-17.799999999999997,16
909,15334.0,0.30000000000000004,0.30000000000000004,5.5,-2.8000000000000003,1.3,14.700000000000001,4.9,-16.200000000000003,-12.7,16
910,15350.0,0.0,1.9000000000000001,-2.3000000000000003,-3.2,2.9000000000000004,7.0,11.3,22.4,-21.200000000000003,16
911,15367.0,-1.8,1.6,-5.5,-5.1000000000000005,2.6,3.7,-1.9,13.8,-23.2,16
912,15384.0,-1.8,1.6,-5.5,-5.9,2.5,4.3,-8.5,-15.899999999999999,-11.900000000000002,16
913,15404.0,-1.0,0.9,-0.30000000000000004,-4.1000000000000005,1.8,8.9,-19.200000000000003,-44.300000000000004,-6.699999999999999,16
914,15418.0,-1.0,0.9,-0.30000000000000004,-5.1000000000000005,0.1,11.3,-20.1,-82.3,-10.4,16
915,15434.0,-1.1,0.1,9.3,-0.7000000000000001,1.3,12.700000000000001,-15.2,-42.900000000000006,7.0,16
916,15450.0,1.2000000000000002,1.8,0.7000000000000001,-3.8000000000000003,2.5,6.1000000000000005,-6.300000000000001,3.4,5.500000000000001,16
917,15467.0,-1.6,0.4,-4.800000000000001,-5.1000000000000005,0.9,4.7,-14.900000000000002,-24.0,10.200000000000001,16
918,15483.0,-0.4,1.1,-4.4,-3.1,1.9000000000000001,4.9,-12.200000000000001,-38.1,4.7,16
919,15501.0,0.2,0.4,4.0,-2.2,1.1,13.5,-14.5,-98.2,-13.700000000000001,16
920,15517.0,1.4000000000000001,-0.2,4.5,-0.8,0.5,14.0,-11.700000000000001,-79.39999999999999,-14.900000000000002,16
921,15534.0,1.5,-0.8,2.3000000000000003,-0.6000000000000001,-0.2,11.9,14.200000000000001,-6.500000000000001,-29.200000000000003,16
922,15550.0,-2.7,-1.8,-5.800000000000001,-5.0,-1.1,3.8000000000000003,18.5,33.2,-45.3,16
923,15567.0,-5.5,-1.7000000000000002,-4.7,-7.800000000000001,-1.1,4.800000000000001,14.700000000000001,10.0,-46.199999999999996,16
924,15584.0,-5.5,-1.7000000000000002,-4.7,-6.6000000000000005,2.6,3.2,18.6,3.7000000000000006,-38.60000000000001,16
925,15600.0,-4.1000000000000005,1.4000000000000001,-5.800000000000001,-6.7,1.1,6.1000000000000005,12.5,0.5,-32.400000000000006,16
926,15617.0,-4.1000000000000005,0.2,-3.5,-5.6000000000000005,0.6000000000000001,12.600000000000001,4.5,-47.3,-20.7,16
927,15634.0,-0.5,-2.0,6.9,-0.4,0.1,21.700000000000003,9.899999999999999,-27.800000000000004,-8.0,16
928,15650.0,3.7,0.9,5.300000000000001,0.2,2.3000000000000003,12.600000000000001,18.3,47.900000000000006,-5.500000000000001,16
929,15667.0,3.5,2.0,0.1,0.5,2.1,5.1000000000000005,17.0,103.49999999999999,-10.8,16
930,15684.0,1.1,2.8000000000000003,-4.3,-1.6,3.7,5.1000000000000005,15.5,99.30000000000001,-17.200000000000003,16
931,15700.0,0.9,2.8000000000000003,-4.6000000000000005,-2.0,3.7,4.7,6.2,83.80000000000001,-14.700000000000001,16
932,15717.0,-1.7000000000000002,0.9,0.5,-4.800000000000001,1.8,9.700000000000001,-9.899999999999999,20.400000000000002,3.0,16
933,15734.0,2.5,0.30000000000000004,12.5,-0.4,1.1,21.8,-6.2,-77.80000000000001,5.9,16
934,15750.0,7.800000000000001,3.9000000000000004,6.300000000000001,5.0,4.7,15.600000000000001,-15.700000000000001,7.500000000000001,4.9,16
935,15767.0,7.800000000000001,3.9000000000000004,6.300000000000001,1.0,3.6,12.700000000000001,8.100000000000001,61.8,4.800000000000001,16
936,15784.0,4.7,2.0,-3.5,-0.5,0.6000000000000001,6.800000000000001,7.699999999999999,62.50000000000001,-9.4,16
937,15800.0,1.2000000000000002,-0.6000000000000001,-4.800000000000001,-2.1,0.6000000000000001,4.5,3.9,29.0,-10.5,16
938,15817.0,1.1,-0.30000000000000004,-4.9,-1.9000000000000001,-0.1,6.800000000000001,-6.300000000000001,2.5,-5.0,16
939,15834.0,2.2,-1.2000000000000002,-1.9000000000000001,-1.7000000000000002,-1.1,8.200000000000001,-5.4,-4.4,-4.300000000000001,16
940,15850.0,-1.2000000000000002,-3.5,3.9000000000000004,0.1,-0.9,15.3,-5.1000000000000005,-57.00000000000001,2.4000000000000004,16
941,15867.0,1.5,-3.3000000000000003,8.8,-1.4000000000000001,-2.5,18.1,5.9,-56.7,2.6,16
942,15883.0,3.3000000000000003,-0.30000000000000004,-2.1,0.30000000000000004,0.5,7.2,9.0,46.199999999999996,-4.4,16
943,15901.0,-3.0,-3.5,4.5,-6.1000000000000005,-2.7,13.8,11.700000000000001,-27.6,-17.5,16
944,15917.0,1.9000000000000001,-0.7000000000000001,-2.8000000000000003,-1.2000000000000002,0.2,6.5,27.700000000000003,16.200000000000003,-20.599999999999998,16
945,15934.0,-0.9,-3.3000000000000003,-3.5,-4.1000000000000005,-2.4000000000000004,5.800000000000001,25.8,24.3,-38.2,16
946,15950.0,-0.9,-3.3000000000000003,-3.5,-3.7,-0.1,6.6000000000000005,28.3,1.7,-26.5,16
947,15967.0,-0.5,-1.1,-2.6,-4.4,-0.7000000000000001,8.700000000000001,25.7,-13.000000000000002,-25.8,16
948,15984.0,-0.5,-0.5,2.7,-3.7,-0.5,13.0,27.2,-3.1,-20.7,16
949,16000.0,-0.2,0.9,3.5,-2.9000000000000004,2.7,6.300000000000001,25.6,60.300000000000004,-11.8,16
950,16017.0,-2.8000000000000003,0.2,-1.7000000000000002,-6.1000000000000005,2.2,8.9,15.700000000000001,45.3,-5.300000000000001,16
951,16034.0,-2.5,1.1,-0.7000000000000001,-6.9,3.2,9.9,21.8,14.100000000000001,-5.8,16
952,16050.0,-1.8,2.4000000000000004,0.5,-5.6000000000000005,3.5,9.5,19.0,17.400000000000002,-7.500000000000001,16
953,16067.0,-1.3,2.5,-3.0,-5.1000000000000005,3.8000000000000003,6.0,11.1,62.300000000000004,6.2,16
954,16084.0,-3.0,2.1,-4.9,-6.9,3.4000000000000004,4.0,-7.6,58.2,27.0,16
955,16100.0,-1.1,0.7000000000000001,-1.4000000000000001,-5.1000000000000005,2.0,7.4,-24.900000000000002,23.700000000000003,40.1,16
956,16117.0,-2.3000000000000003,-1.7000000000000002,10.200000000000001,-6.1000000000000005,-0.4,19.200000000000003,-29.900000000000006,-95.20000000000002,37.0,16
957,16134.0,4.4,3.4000000000000004,0.5,0.7000000000000001,4.7,9.4,-24.900000000000002,7.9,58.60000000000001,16
958,16151.0,4.4,3.4000000000000004,0.5,-1.0,3.6,9.3,-24.3,45.6,54.300000000000004,16
959,16167.0,1.9000000000000001,-0.2,-3.3000000000000003,-3.3000000000000003,0.2,5.800000000000001,-25.900000000000002,31.7,36.400000000000006,16
960,16184.0,-2.6,-1.9000000000000001,-2.1,-4.4,1.1,10.100000000000001,-32.9,-52.5,43.900000000000006,16
961,16201.0,1.8,-0.6000000000000001,2.7,-2.5,1.2000000000000002,7.4,-35.2,-11.700000000000001,53.7,16
962,16217.0,2.1,-0.6000000000000001,-1.0,-3.5,-0.8,10.8,-34.60000000000001,-10.9,47.1,16
963,16234.0,0.7000000000000001,-0.9,-1.2000000000000002,-2.0,0.1,9.4,-31.7,-13.8,43.4,16
964,16250.0,0.0,-2.7,1.5,-3.5,-1.7000000000000002,10.600000000000001,-31.9,-27.2,39.50000000000001,16
965,16271.0,1.7000000000000002,-1.7000000000000002,11.0,1.6,-0.6000000000000001,13.3,-5.300000000000001,-32.8,28.700000000000003,16
966,16284.0,4.4,1.5,0.4,1.2000000000000002,2.5,9.600000000000001,1.7,33.0,25.5,16
967,16300.0,0.30000000000000004,-3.5,-4.1000000000000005,-2.9000000000000004,-2.5,5.1000000000000005,3.4,45.3,-3.8,16
968,16317.0,0.0,-2.7,-4.6000000000000005,-3.3000000000000003,-1.7000000000000002,4.6000000000000005,16.1,-1.4,-18.1,16
969,16334.0,0.0,-2.7,-4.6000000000000005,-2.2,-0.9,7.1000000000000005,12.100000000000001,-13.700000000000001,-23.700000000000003,16
970,16350.0,1.0,-2.0,-2.0,-3.4000000000000004,-2.1,7.9,15.899999999999999,-0.9000000000000001,-19.5,16
971,16367.0,-0.4,-2.0,-0.8,-5.800000000000001,-2.1,10.5,11.3,-34.1,-15.8,16
972,16384.0,-3.3000000000000003,-0.9,8.0,-1.7000000000000002,-0.2,12.100000000000001,-31.799999999999997,-102.7,-21.400000000000002,16
973,16400.0,0.0,-1.5,5.800000000000001,0.30000000000000004,5.5,15.4,-4.300000000000001,35.0,-2.5,16
974,16417.0,2.0,-0.2,-4.5,-4.9,-0.1,5.300000000000001,25.1,47.7,-32.300000000000004,16
975,16434.0,-1.1,0.9,-6.1000000000000005,-4.2,1.9000000000000001,3.1,24.3,21.300000000000004,-38.60000000000001,16
976,16450.0,-2.5,1.0,-3.4000000000000004,-5.6000000000000005,2.0,5.800000000000001,18.0,-21.6,-27.099999999999998,16
977,16469.0,-1.4000000000000001,1.8,1.3,-4.4,2.8000000000000003,10.5,10.4,-46.9,-19.5,16
978,16484.0,-0.4,0.7000000000000001,2.3000000000000003,-3.3000000000000003,1.8,11.600000000000001,8.4,-27.800000000000004,-10.1,16
979,16500.0,-0.2,-0.2,2.1,-3.0,0.9,11.4,7.6,-7.1000000000000005,-9.5,16
980,16517.0,-1.2000000000000002,0.4,2.6,-4.0,1.5,12.0,7.200000000000001,-26.400000000000006,-11.1,16
981,16534.0,-1.2000000000000002,0.4,2.6,-3.8000000000000003,1.8,12.700000000000001,6.600000000000001,-35.1,-11.4,16
982,16550.0,0.5,1.6,2.3000000000000003,-3.0,2.3000000000000003,10.9,10.700000000000001,-23.800000000000004,-21.200000000000003,16
983,16567.0,-0.2,1.7000000000000002,1.0,-2.7,2.9000000000000004,9.5,9.2,-10.600000000000001,-30.699999999999996,16
984,16584.0,-0.4,1.6,-0.1,-3.2,2.5,8.8,9.899999999999999,3.8,-33.800000000000004,16
985,16600.0,-0.5,1.3,-2.0,-3.3000000000000003,1.8,7.2,5.0,10.8,-30.699999999999996,16
986,16617.0,-0.6000000000000001,0.5,-2.2,-3.2,1.1,7.0,-0.30000000000000004,7.699999999999999,-24.0,16
987,16633.0,-0.4,0.30000000000000004,-1.5,-3.2,1.4000000000000001,7.800000000000001,-5.4,9.4,-18.8,16
988,16650.0,0.2,0.4,-1.1,-2.6,1.4000000000000001,8.200000000000001,-6.2,16.4,-11.8,16
989,16667.0,0.6000000000000001,0.2,-0.4,-2.2,1.2000000000000002,9.0,-8.4,19.799999999999997,-7.9,16
990,16684.0,0.30000000000000004,-0.1,-0.2,-2.6,0.9,9.1,-8.600000000000001,20.8,-7.400000000000001,16
991,16700.0,0.6000000000000001,-0.8,0.30000000000000004,-2.4000000000000004,0.1,9.600000000000001,-5.300000000000001,17.6,-8.600000000000001,16
992,16717.0,0.6000000000000001,-0.8,0.30000000000000004,-2.6,-0.30000000000000004,11.3,-8.899999999999999,-12.8,-6.600000000000001,16
993,16734.0,0.4,-1.2000000000000002,2.0,-3.1,-1.6,16.1,-8.899999999999999,-71.8,-4.9,16
994,16750.0,3.7,0.30000000000000004,9.8,1.9000000000000001,0.5,12.9,7.0,-8.0,-10.4,16
995,16767.0,1.7000000000000002,0.4,1.2000000000000002,-2.7,0.30000000000000004,10.200000000000001,-0.4,-2.8,-5.4,16
996,16784.0,1.4000000000000001,-1.0,3.6,0.8,1.1,8.8,1.4,1.7,0.8,16
997,16800.0,3.3000000000000003,0.7000000000000001,-2.7,-0.30000000000000004,1.1,5.6000000000000005,4.2,26.700000000000003,-10.700000000000001,16
998,16817.0,2.0,-0.9,-4.0,-0.9,0.0,5.300000000000001,2.6,27.700000000000003,-14.0,16
999,16834.0,1.4000000000000001,-1.1,-2.5,-1.5,-0.2,6.800000000000001,9.3,11.8,-16.700000000000003,16
1000,16850.0,1.5,-2.1,-0.2,-1.4000000000000001,-1.2000000000000002,9.1,9.3,2.3,-18.3,16
1001,16867.0,3.8000000000000003,-0.9,8.6,1.1,0.0,18.0,17.1,-47.0,-22.4,16
1002,16884.0,1.0,0.30000000000000004,-1.4000000000000001,-1.9000000000000001,1.3,7.9,27.2,60.300000000000004,-18.6,16
1003,16900.0,-2.6,-1.8,-4.4,-5.7,-0.8,4.800000000000001,21.900000000000002,54.6,-27.099999999999998,16
1004,16917.0,-2.6,-1.8,-4.4,-5.9,0.0,5.300000000000001,25.6,25.300000000000004,-29.400000000000002,16
1005,16934.0,-3.9000000000000004,-0.4,-3.1,-5.0,2.6,7.6000000000000005,20.599999999999998,-7.200000000000001,-21.1,16
1006,16950.0,-2.1,0.5,0.9,-4.7,1.6,10.8,21.900000000000002,0.30000000000000004,-13.100000000000001,16
1007,16967.0,-1.0,1.0,2.6,-3.5,1.7000000000000002,13.200000000000001,22.1,-19.799999999999997,-9.899999999999999,16
1008,16984.0,-0.5,0.6000000000000001,6.5,-2.4000000000000004,3.8000000000000003,8.200000000000001,21.7,45.7,8.899999999999999,16
1009,17000.0,0.5,2.3000000000000003,-6.5,-5.300000000000001,3.3000000000000003,2.6,-25.1,63.0,14.5,16
1010,17017.0,-1.5,2.1,-3.6,-4.9,3.4000000000000004,5.5,-15.100000000000001,55.5,16.1,16
1011,17034.0,-0.7000000000000001,0.30000000000000004,-2.0,-4.2,1.6,7.1000000000000005,3.8,33.400000000000006,16.900000000000002,16
1012,17050.0,0.1,0.2,-3.8000000000000003,-3.5,1.4000000000000001,5.2,-41.7,-44.300000000000004,15.299999999999999,16
1013,17071.0,2.9000000000000004,0.0,-13.0,-0.5,0.8,-3.8000000000000003,-234.70000000000002,-62.199999999999996,65.7,16
1014,17084.0,-20.700000000000003,-22.8,7.0,-23.8,-23.1,16.3,-491.19999999999993,-80.4,512.8000000000001,16
1015,17101.0,-20.700000000000003,-22.8,7.0,-7.6000000000000005,-9.600000000000001,10.0,-500.20000000000005,-50.8,683.4,16
1016,17117.0,17.2,6.300000000000001,1.3,6.9,9.1,11.600000000000001,-430.4,-139.60000000000002,578.4000000000001,16
1017,17133.0,3.9000000000000004,8.4,12.8,3.4000000000000004,7.4,29.6,-316.3,-151.20000000000002,297.1,16
1018,17151.0,6.2,6.6000000000000005,11.5,-0.30000000000000004,1.4000000000000001,11.100000000000001,-125.2,-7.300000000000001,82.39999999999999,16
1019,17168.0,-0.5,0.5,1.9000000000000001,-4.3,-5.2,14.100000000000001,72.0,5.300000000000001,59.699999999999996,16
1020,17184.0,0.30000000000000004,-4.6000000000000005,11.100000000000001,9.200000000000001,-2.1,18.8,184.5,-54.1,-97.8,16
1021,17201.0,10.5,-7.300000000000001,-3.6,8.200000000000001,-8.9,5.800000000000001,176.6,24.3,-181.70000000000002,16
1022,17217.0,-3.5,-16.3,-0.4,-5.800000000000001,-17.6,9.1,134.6,26.000000000000004,-124.50000000000001,16
1023,17234.0,2.5,-7.2,-6.5,0.2,-8.4,2.9000000000000004,68.1,-27.800000000000004,-45.3,16
1024,17250.0,1.8,-1.4000000000000001,-2.2,-0.30000000000000004,-2.6,7.300000000000001,17.200000000000003,-32.300000000000004,-110.2,16
1025,17267.0,-1.2000000000000002,-5.0,0.0,-3.2,-6.2,9.5,0.8,-31.3,-119.49999999999999,16
1026,17284.0,-0.2,-3.2,-1.6,-2.2,-4.5,7.9,-12.0,-8.2,-86.00000000000001,16
1027,17301.0,-0.2,-3.2,-1.6,-2.2,-4.1000000000000005,9.3,-7.500000000000001,-0.8,-79.3,16
1028,17317.0,-0.1,-2.2,0.5,-3.7,-1.7000000000000002,9.5,42.5,13.8,-78.2,16
1029,17334.0,-2.1,1.3,-1.5,-3.7,1.2000000000000002,6.2,67.00000000000001,2.4000000000000004,-68.80000000000001,16
1030,17350.0,-1.9000000000000001,4.0,-5.0,-3.9000000000000004,2.9000000000000004,4.4,7.400000000000001,-12.200000000000001,-58.0,16
1031,17367.0,-1.6,4.5,-3.9000000000000004,-3.2,3.5,7.2,-42.5,-15.700000000000001,-39.2,16
1032,17385.0,-0.5,4.5,-0.6000000000000001,-1.8,2.9000000000000004,9.600000000000001,-32.9,-2.3,-25.900000000000002,16
1033,17401.0,-0.2,3.4000000000000004,0.4,-2.0,2.0,10.0,-18.3,8.3,-16.0,16
1034,17417.0,-1.2000000000000002,3.5,0.2,-3.0,2.1,9.700000000000001,3.5,32.300000000000004,5.8,16
1035,17434.0,-4.1000000000000005,1.9000000000000001,1.9000000000000001,-6.0,0.6000000000000001,11.4,15.399999999999999,-15.899999999999999,18.900000000000002,16
1036,17450.0,6.800000000000001,-4.1000000000000005,6.1000000000000005,5.2,-5.5,15.700000000000001,-30.5,-71.6,-84.80000000000001,16
1037,17467.0,-2.1,-0.7000000000000001,7.1000000000000005,-3.6,-2.2,16.6,-41.0,-1.3,53.599999999999994,16
1038,17484.0,-2.1,-0.7000000000000001,7.1000000000000005,-1.0,1.4000000000000001,13.9,-18.1,37.7,90.1,16
1039,17501.0,4.1000000000000005,4.0,0.8,2.2,1.2000000000000002,11.5,-2.0,4.4,0.5,16
1040,17517.0,1.6,-0.2,2.0,-0.6000000000000001,-3.2,12.0,-14.900000000000002,-14.400000000000002,6.4,16
1041,17533.0,2.1,-1.3,1.7000000000000002,2.1,-1.8,10.700000000000001,-41.50000000000001,-9.100000000000001,39.2,16
1042,17550.0,3.1,0.5,-0.1,0.4,-0.7000000000000001,9.3,-34.0,-22.6,23.5,16
1043,17567.0,1.6,1.2000000000000002,-0.1,-0.4,-1.6,9.0,-8.0,-33.400000000000006,18.1,16
1044,17584.0,0.5,-0.9,-1.6,-0.9,-2.6,7.9,-13.900000000000002,-31.0,22.3,16
1045,17601.0,-0.1,-0.8,-0.30000000000000004,-1.5,-2.6,9.200000000000001,-31.6,-33.0,37.50000000000001,16
1046,17617.0,-0.2,-1.9000000000000001,0.5,-1.4000000000000001,-3.9000000000000004,10.0,-32.5,-40.0,33.1,16
1047,17634.0,0.8,-2.4000000000000004,1.0,-0.30000000000000004,-4.4,10.5,-32.300000000000004,-29.700000000000006,17.7,16
1048,17650.0,-0.6000000000000001,-1.8,-1.3,-1.8,-3.9000000000000004,8.3,-17.6,-11.700000000000001,25.4,16
1049,17668.0,0.30000000000000004,0.6000000000000001,-1.9000000000000001,-0.8,-1.6,7.6000000000000005,-10.1,-31.799999999999997,-12.100000000000001,16
1050,17683.0,0.30000000000000004,0.6000000000000001,-1.9000000000000001,-1.6,-2.9000000000000004,8.1,-8.700000000000001,-50.3,-30.599999999999998,16
1051,17700.0,-0.30000000000000004,-1.7000000000000002,-0.1,-0.8,-4.0,9.9,-20.599999999999998,-47.80000000000001,-37.50000000000001,16
1052,17717.0,-0.5,-2.1,-0.1,-1.7000000000000002,-3.4000000000000004,9.600000000000001,-4.300000000000001,-11.6,6.500000000000001,16
1053,17733.0,-0.8,-0.2,-1.3,-0.9,-1.7000000000000002,7.1000000000000005,-2.5,-27.800000000000004,9.3,16
1054,17750.0,0.1,0.1,-1.6,-1.1,-3.0,8.5,-24.1,-45.8,-16.1,16
1055,17768.0,-1.2000000000000002,-0.30000000000000004,-0.4,-1.0,-1.7000000000000002,8.4,-14.800000000000002,-31.9,0.6000000000000001,16
1056,17783.0,-0.8,1.1,-2.2,-1.2000000000000002,-1.3,7.300000000000001,-8.600000000000001,-19.9,6.1000000000000005,16
1057,17800.0,-2.1,0.9,-2.0,-2.4000000000000004,-1.5,7.5,-4.2,-29.900000000000006,13.8,16
1058,17817.0,0.5,-0.8,1.6,0.4,-3.4000000000000004,11.100000000000001,-50.5,-43.300000000000004,-11.6,16
1059,17834.0,-1.5,0.2,3.3000000000000003,-1.7000000000000002,-2.4000000000000004,12.8,-13.900000000000002,-2.0,74.0,16
1060,17851.0,0.8,4.4,-5.2,0.5,1.9000000000000001,4.3,14.600000000000001,10.4,64.80000000000001,16
1061,17871.0,0.2,-0.4,5.1000000000000005,0.2,-2.9000000000000004,14.600000000000001,-22.700000000000003,-86.2,-19.5,16
1062,17884.0,0.2,-0.4,5.1000000000000005,1.3,-3.9000000000000004,10.700000000000001,-39.50000000000001,-53.8,-8.899999999999999,16
1063,17900.0,-1.1,-1.1,0.30000000000000004,-0.2,-0.7000000000000001,11.8,-3.5,-5.8,71.7,16
1064,17917.0,0.1,1.9000000000000001,-0.9,-0.1,-1.1,7.2,5.0,-12.200000000000001,70.5,16
1065,17934.0,-1.4000000000000001,0.4,-2.6,-2.1,-3.0,7.800000000000001,-23.800000000000004,-12.600000000000001,89.8,16
1066,17950.0,-0.7000000000000001,-0.2,-1.9000000000000001,-0.8,-3.0,7.5,-27.0,-14.600000000000001,103.3,16
1067,17970.0,2.6,-0.5,2.1,1.6,-5.0,12.100000000000001,-26.9,-23.900000000000006,23.2,16
1068,17983.0,0.4,-2.2,1.9000000000000001,0.4,-5.1000000000000005,11.3,-8.899999999999999,-2.9,30.000000000000004,16
1069,18000.0,0.2,-1.2000000000000002,2.0,0.2,-4.1000000000000005,11.4,9.2,1.6,47.60000000000001,16
1070,18017.0,0.6000000000000001,-0.8,3.2,0.6000000000000001,-3.7,12.600000000000001,-10.700000000000001,-16.200000000000003,19.700000000000003,16
1071,18034.0,-1.2000000000000002,1.9000000000000001,-0.9,-1.3,-0.9,8.5,5.1000000000000005,3.4,58.400000000000006,16
1072,18050.0,-1.2000000000000002,1.9000000000000001,-0.9,-0.1,-0.2,6.6000000000000005,-5.500000000000001,-12.7,78.2,16
1073,18067.0,0.0,2.6,-2.7,-0.4,-2.0,6.5,-19.300000000000004,-25.1,90.70000000000002,16
1074,18084.0,1.6,0.1,-1.3,2.5,-3.4000000000000004,8.8,-38.60000000000001,-36.400000000000006,91.30000000000001,16
1075,18100.0,2.6,-1.1,1.0,1.5,-5.0,11.5,-25.8,-31.9,73.5,16
1076,18117.0,0.7000000000000001,-1.9000000000000001,1.7000000000000002,0.5,-4.2,11.3,-11.5,-28.400000000000002,85.80000000000001,16
1077,18134.0,1.4000000000000001,-2.1,3.5,0.2,-5.300000000000001,13.700000000000001,-26.5,-29.500000000000004,70.3,16
1078,18150.0,-0.8,-1.0,1.0,-0.9,-4.2,10.3,-19.1,-13.700000000000001,93.00000000000001,16
1079,18174.0,0.0,3.3000000000000003,-0.5,-0.4,-0.7000000000000001,6.5,-13.700000000000001,-35.8,77.1,16
1080,18185.0,-0.2,1.5,-0.6000000000000001,-0.30000000000000004,-1.8,8.6,-24.1,-45.400000000000006,64.0,16
1081,18200.0,-0.8,2.4000000000000004,-0.9,-0.8,-0.9,8.3,-17.300000000000004,-24.200000000000003,71.19999999999999,16
1082,18217.0,-0.6000000000000001,1.7000000000000002,-0.5,-0.6000000000000001,-1.6,8.8,2.4000000000000004,-26.200000000000003,60.300000000000004,16
1083,18234.0,-0.5,-0.1,0.5,-0.5,-3.4000000000000004,9.8,-3.0,-26.000000000000004,34.800000000000004,16
1084,18250.0,-0.5,-0.1,0.5,-1.7000000000000002,-4.3,10.100000000000001,-5.1000000000000005,-19.0,28.400000000000002,16
1085,18267.0,-2.0,-0.8,1.3,-1.7000000000000002,-3.1,10.0,4.1,-9.700000000000001,28.400000000000002,16
1086,18283.0,-1.4000000000000001,1.3,0.4,-1.9000000000000001,-2.1,10.4,7.0,-22.5,-17.400000000000002,16
1087,18300.0,-2.8000000000000003,0.4,0.4,-2.8000000000000003,-2.5,8.6,14.700000000000001,-17.6,-16.5,16
1088,18317.0,-1.9000000000000001,2.1,-1.9000000000000001,-2.0,-0.7000000000000001,6.6000000000000005,17.6,-7.500000000000001,-13.700000000000001,16
1089,18335.0,-2.4000000000000004,2.4000000000000004,-3.0,-1.4000000000000001,-1.4000000000000001,6.0,12.4,-7.6,-5.2,16
1090,18350.0,-0.7000000000000001,1.6,-2.6,-0.6000000000000001,-1.6,6.7,1.8000000000000003,-5.0,-3.4,16
1091,18367.0,0.5,0.1,0.1,0.7000000000000001,-3.1,9.4,-14.800000000000002,3.2,-8.4,16
1092,18384.0,0.4,0.6000000000000001,1.1,0.5,-2.7,10.4,-1.7,11.700000000000001,-0.8,16
1093,18400.0,1.8,-1.8,3.4000000000000004,2.0,-5.0,12.700000000000001,-5.4,-42.60000000000001,-24.3,16
1094,18417.0,4.2,-4.4,10.100000000000001,4.800000000000001,-7.7,19.3,-32.1,-72.10000000000001,-92.50000000000001,16
1095,18434.0,4.2,-4.4,10.100000000000001,3.2,-8.0,11.600000000000001,4.800000000000001,34.900000000000006,21.1,16
1096,18450.0,-2.7,-1.9000000000000001,1.6,0.1,-0.1,8.6,37.400000000000006,43.70000000000001,68.0,16
1097,18467.0,2.2,5.5,-5.300000000000001,3.2,2.0,1.9000000000000001,37.300000000000004,7.6,14.100000000000001,16
1098,18483.0,1.0,1.1,-5.5,-0.30000000000000004,-4.800000000000001,7.6000000000000005,-26.799999999999997,-5.300000000000001,2.9,16
1099,18501.0,1.3,-1.1,2.4000000000000004,2.9000000000000004,-3.8000000000000003,12.8,-19.799999999999997,-7.300000000000001,-0.5,16
1100,18517.0,2.2,-0.7000000000000001,2.4000000000000004,1.8,-3.5,9.600000000000001,20.2,36.7,8.5,16
1101,18534.0,0.30000000000000004,0.1,-1.5,0.5,-3.0,7.800000000000001,24.7,42.5,18.6,16
1102,18550.0,1.5,-0.9,1.3,1.7000000000000002,-4.0,10.600000000000001,1.0,0.8,-12.200000000000001,16
1103,18567.0,1.6,-4.3,7.7,2.0,-7.4,17.0,-8.0,-30.4,-56.2,16
1104,18584.0,-2.7,-0.9,-0.5,-2.4000000000000004,-4.0,8.8,30.699999999999996,34.400000000000006,16.6,16
1105,18600.0,-0.2,4.1000000000000005,-5.7,-0.1,1.2000000000000002,3.6,34.800000000000004,23.099999999999998,22.000000000000004,16
1106,18617.0,-0.2,4.1000000000000005,-5.7,-2.2,-2.0,5.9,19.200000000000003,8.700000000000001,5.2,16
1107,18633.0,-2.3000000000000003,1.0,-3.5,-1.3,-3.4000000000000004,7.0,-13.5,-1.5,13.3,16
1108,18650.0,-0.8,-0.8,0.0,-0.1,-3.8000000000000003,10.4,-5.0,3.4,10.8,16
1109,18667.0,-0.30000000000000004,-1.3,0.2,-0.4,-4.5,8.5,5.6,13.700000000000001,8.5,16
1110,18684.0,-1.1,-0.9,-1.2000000000000002,-0.5,-2.9000000000000004,7.2,4.6,19.200000000000003,18.0,16
1111,18700.0,-0.2,0.30000000000000004,-2.6,-0.2,-3.1,7.4,2.7,12.7,-1.3,16
1112,18717.0,-0.2,-1.0,-1.5,-0.30000000000000004,-4.0,7.9,2.1,12.200000000000001,-6.9,16
1113,18734.0,-0.5,-1.6,0.2,-0.6000000000000001,-4.6000000000000005,9.600000000000001,1.0,21.1,-7.0,16
1114,18750.0,-0.6000000000000001,-1.3,-0.2,-0.8,-4.3,9.200000000000001,5.6,30.5,-4.6,16
1115,18767.0,-1.2000000000000002,-0.6000000000000001,-0.6000000000000001,-1.5,-3.6,8.700000000000001,14.700000000000001,22.6,-24.3,16
1116,18784.0,-1.7000000000000002,-2.7,1.1,-2.0,-5.6000000000000005,10.5,14.200000000000001,3.1,-30.699999999999996,16
1117,18800.0,0.1,-2.5,2.5,-0.1,-5.300000000000001,11.8,15.399999999999999,-3.2,-27.5,16
1118,18817.0,0.1,-2.5,2.5,0.0,-5.5,11.5,20.900000000000002,-2.1,-36.400000000000006,16
1119,18833.0,-0.5,-3.0,3.5,0.8,-5.5,13.600000000000001,36.9,-12.7,-52.5,16
1120,18850.0,-0.1,-2.0,2.2,-0.2,-3.7,10.5,51.800000000000004,11.8,-38.800000000000004,16
1121,18871.0,-0.7000000000000001,-0.4,-1.0,-1.4000000000000001,-1.9000000000000001,7.2,58.2,26.6,-11.1,16
1122,18884.0,-1.3,1.3,-3.3000000000000003,-0.9,-0.2,5.0,59.40000000000001,24.5,-11.3,16
1123,18901.0,0.1,2.6,-4.7,-1.1,-1.0,5.0,43.300000000000004,28.200000000000003,-47.3,16
1124,18917.0,-1.7000000000000002,-1.2000000000000002,-4.1000000000000005,-2.1,-3.2,5.4,26.6,40.300000000000004,-43.2,16
1125,18934.0,-1.0,-1.8,-0.30000000000000004,-1.5,-3.8000000000000003,9.3,1.9,52.1,-14.400000000000002,16
