,ms,accelX,accelY,accelZ,accelWithGX,accelWithGY,accelWithGZ,rotRateAlpha,rotRateBeta,rotRateGamma,interval
0,141.0,0.0,-0.2,0.2,-0.30000000000000004,2.1,9.600000000000001,-4.0,-0.8,0.8,16
1,150.0,0.0,-0.1,0.2,-0.30000000000000004,2.1,9.600000000000001,-3.6000000000000005,-0.8,0.30000000000000004,16
2,174.0,0.0,-0.1,0.2,-0.30000000000000004,2.1,9.700000000000001,-3.0,0.2,-1.2000000000000002,16
3,185.0,-0.1,-0.1,0.2,-0.4,2.2,9.700000000000001,-2.3,0.30000000000000004,-2.3,16
4,201.0,-0.2,-0.1,0.2,-0.5,2.1,9.700000000000001,-1.3,-0.9000000000000001,-2.9,16
5,217.0,-0.2,-0.1,0.2,-0.5,2.1,9.700000000000001,-0.7,-1.4,-3.0,16
6,233.0,-0.2,0.0,0.2,-0.5,2.2,9.700000000000001,-0.30000000000000004,-1.9,-3.1,16
7,251.0,-0.2,0.0,0.0,-0.5,2.2,9.600000000000001,0.5,-3.4,-3.6000000000000005,16
8,267.0,-0.1,0.0,0.0,-0.5,2.2,9.5,0.4,-4.1,-3.8,16
9,283.0,-0.1,0.0,0.0,-0.4,2.2,9.5,-1.1,-3.1,-4.7,16
10,300.0,-0.1,-0.1,0.0,-0.5,2.1,9.600000000000001,-1.9,-2.3,-5.6,16
11,317.0,-0.2,0.0,0.0,-0.6000000000000001,2.1,9.600000000000001,-1.4,-2.0,-5.500000000000001,16
12,333.0,-0.1,0.0,0.1,-0.4,2.2,9.700000000000001,-0.2,-2.8,-4.9,16
13,350.0,-0.2,0.2,0.0,-0.5,2.3000000000000003,9.600000000000001,0.8,-0.30000000000000004,-5.300000000000001,16
14,367.0,-0.30000000000000004,0.2,0.0,-0.8,2.3000000000000003,9.5,1.1,0.9000000000000001,-4.9,16
15,383.0,-0.30000000000000004,0.1,-0.1,-0.7000000000000001,2.3000000000000003,9.5,-0.2,0.2,-2.4000000000000004,16
16,400.0,-0.2,0.2,-0.1,-0.6000000000000001,2.4000000000000004,9.5,-0.30000000000000004,-1.3,-1.5,16
17,417.0,-0.2,0.30000000000000004,0.0,-0.7000000000000001,2.5,9.600000000000001,-2.5,-3.3000000000000007,-1.6,16
18,433.0,-0.1,0.2,0.30000000000000004,-0.6000000000000001,2.4000000000000004,9.8,-2.2,-0.30000000000000004,-1.8000000000000003,16
19,450.0,-0.30000000000000004,0.1,0.0,-0.8,2.3000000000000003,9.600000000000001,8.100000000000001,9.899999999999999,4.7,16
20,467.0,-0.2,0.5,-0.4,-0.7000000000000001,2.8000000000000003,9.1,3.5,-5.9,0.9000000000000001,16
21,483.0,-0.2,0.4,-0.4,-0.7000000000000001,2.7,9.200000000000001,0.5,-4.1,2.4000000000000004,16
22,500.0,0.0,0.0,-0.2,-0.5,2.3000000000000003,9.4,-11.1,-2.2,0.30000000000000004,16
23,517.0,-0.4,-0.1,0.5,-0.9,2.1,10.100000000000001,-10.4,-4.0,1.1,16
24,533.0,-0.30000000000000004,-0.1,0.6000000000000001,-0.7000000000000001,2.1,10.100000000000001,-6.8,-3.5,3.6000000000000005,16
25,550.0,0.1,0.0,0.4,-0.4,2.2,10.0,1.0,-4.9,5.8,16
26,567.0,0.1,0.0,0.1,-0.4,2.2,9.700000000000001,4.2,-1.3,5.0,16
27,583.0,0.0,0.0,0.0,-0.4,2.2,9.600000000000001,4.5,-1.3,4.9,16
28,600.0,0.1,-0.1,-0.30000000000000004,-0.30000000000000004,2.1,9.200000000000001,3.4,-3.2,4.2,16
29,617.0,0.1,-0.2,-0.30000000000000004,-0.30000000000000004,2.1,9.3,0.9000000000000001,-3.4,2.6,16
30,633.0,0.0,-0.2,-0.2,-0.4,2.1,9.4,0.5,-3.6000000000000005,2.2,16
31,650.0,-0.1,-0.2,0.0,-0.5,2.1,9.5,1.1,-4.0,2.6,16
32,667.0,0.0,-0.1,-0.2,-0.30000000000000004,2.1,9.4,1.7,-3.6000000000000005,3.1,16
33,683.0,0.1,0.0,-0.2,-0.30000000000000004,2.2,9.3,1.7,-3.3000000000000007,3.1,16
34,700.0,0.1,-0.1,-0.1,-0.2,2.1,9.4,-0.5,-2.0,2.3,16
35,717.0,0.0,-0.1,-0.1,-0.4,2.1,9.5,-2.0,0.8,2.2,16
36,733.0,-0.1,-0.1,0.0,-0.5,2.2,9.600000000000001,-2.3,1.5,2.9,16
37,750.0,0.1,-0.1,0.0,-0.30000000000000004,2.1,9.5,-1.8000000000000003,0.9000000000000001,3.3000000000000007,16
38,767.0,0.0,0.0,0.0,-0.30000000000000004,2.2,9.5,-0.6000000000000001,0.5,1.7,16
39,783.0,0.0,0.0,-0.1,-0.30000000000000004,2.2,9.5,-0.8,1.3,1.3,16
40,800.0,0.1,0.0,0.0,-0.30000000000000004,2.2,9.600000000000001,-0.5,-0.1,0.9000000000000001,16
41,817.0,0.0,0.0,0.0,-0.30000000000000004,2.2,9.5,0.30000000000000004,-1.4,1.4,16
42,833.0,0.1,0.1,-0.1,-0.2,2.3000000000000003,9.4,0.6000000000000001,-2.3,1.8000000000000003,16
43,852.0,0.30000000000000004,0.1,-0.2,0.1,2.3000000000000003,9.3,0.5,-5.4,1.5,16
44,867.0,0.4,0.1,-0.2,0.1,2.3000000000000003,9.4,-2.0,-3.6000000000000005,0.30000000000000004,16
45,883.0,0.30000000000000004,0.0,-0.1,0.1,2.2,9.4,-3.4,-3.1,0.0,16
46,900.0,0.4,-0.1,0.1,0.1,2.1,9.600000000000001,-4.2,-3.9,0.0,16
47,917.0,0.30000000000000004,0.1,0.1,0.1,2.2,9.600000000000001,-2.8,-4.5,-0.6000000000000001,16
48,933.0,0.4,0.0,0.0,0.2,2.2,9.600000000000001,-3.0,-5.2,-1.1,16
49,950.0,0.30000000000000004,0.0,0.1,0.1,2.2,9.600000000000001,-3.8,-3.7000000000000006,-2.4000000000000004,16
50,967.0,0.1,0.0,0.30000000000000004,0.0,2.1,9.9,-3.8,-1.3,-3.7000000000000006,16
51,983.0,0.0,0.0,0.4,-0.2,2.1,10.0,-2.4000000000000004,-0.9000000000000001,-3.6000000000000005,16
52,1000.0,0.0,0.0,0.30000000000000004,-0.2,2.2,9.9,1.2000000000000002,-1.6,-2.6,16
53,1017.0,0.0,0.1,0.2,-0.2,2.2,9.8,2.4000000000000004,-0.5,-2.2,16
54,1033.0,0.0,0.1,0.2,-0.2,2.2,9.8,2.4000000000000004,0.6000000000000001,-2.4000000000000004,16
55,1050.0,-0.30000000000000004,0.1,0.1,-0.4,2.2,9.700000000000001,2.3,1.8000000000000003,-2.7,16
56,1067.0,-0.30000000000000004,0.1,0.1,-0.5,2.2,9.600000000000001,2.5,0.6000000000000001,-1.1,16
57,1083.0,-0.30000000000000004,0.0,0.0,-0.4,2.2,9.5,1.9,0.9000000000000001,-0.1,16
58,1100.0,-0.4,0.0,-0.1,-0.6000000000000001,2.1,9.5,1.2000000000000002,1.1,0.5,16
59,1117.0,-0.30000000000000004,0.0,-0.2,-0.6000000000000001,2.2,9.4,1.9,-0.8,2.0,16
60,1133.0,-0.2,0.0,-0.2,-0.4,2.2,9.4,2.9,-0.8,2.7,16
61,1151.0,-0.2,0.1,-0.2,-0.4,2.3000000000000003,9.3,2.2,0.30000000000000004,2.6,16
62,1167.0,-0.30000000000000004,-0.1,-0.30000000000000004,-0.5,2.2,9.200000000000001,-0.1,1.6,3.4,16
63,1183.0,0.0,-0.1,-0.4,-0.2,2.1,9.1,-2.3,2.2,4.4,16
64,1200.0,0.1,0.0,-0.4,-0.2,2.2,9.1,-3.0,1.9,3.6000000000000005,16
65,1217.0,0.2,0.1,-0.30000000000000004,0.0,2.3000000000000003,9.3,-4.7,2.4000000000000004,1.9,16
66,1233.0,0.2,0.0,0.0,0.0,2.2,9.600000000000001,-4.5,2.4000000000000004,0.4,16
67,1250.0,0.30000000000000004,0.0,0.1,0.1,2.2,9.700000000000001,-4.0,3.6000000000000005,0.4,16
68,1267.0,0.30000000000000004,0.0,0.2,0.0,2.2,9.700000000000001,-3.1,5.500000000000001,-0.2,16
69,1283.0,0.2,0.0,0.4,0.0,2.1,9.9,-3.6000000000000005,6.1000000000000005,-0.6000000000000001,16
70,1300.0,0.2,-0.1,0.4,-0.1,2.0,10.0,-3.1,6.1000000000000005,-1.5,16
71,1317.0,0.0,-0.1,0.5,-0.30000000000000004,2.0,10.0,0.1,3.8,-3.5,16
72,1333.0,-0.1,-0.1,0.4,-0.4,2.0,10.0,3.2,1.7,-4.6,16
73,1350.0,0.0,-0.1,0.4,-0.30000000000000004,2.1,10.0,4.0,0.8,-5.1000000000000005,16
74,1367.0,-0.1,-0.1,0.2,-0.4,2.1,9.8,3.6000000000000005,-0.1,-5.7,16
75,1383.0,0.0,0.0,0.1,-0.30000000000000004,2.2,9.700000000000001,3.3000000000000007,-4.6,-5.300000000000001,16
76,1400.0,0.1,0.0,0.1,-0.2,2.2,9.700000000000001,3.4,-6.600000000000001,-5.300000000000001,16
77,1417.0,0.1,0.0,0.1,-0.2,2.2,9.600000000000001,2.7,-6.9,-5.500000000000001,16
78,1433.0,0.1,-0.1,-0.1,-0.2,2.1,9.5,2.6,-7.8,-5.7,16
79,1450.0,0.2,-0.1,-0.1,0.0,2.1,9.5,3.2,-7.8,-6.2,16
80,1467.0,0.2,-0.1,-0.1,-0.1,2.1,9.5,4.0,-6.699999999999999,-8.4,16
81,1483.0,-0.1,0.0,-0.1,-0.30000000000000004,2.2,9.4,6.0,-6.8,-9.700000000000001,16
82,1500.0,-0.1,-0.1,-0.2,-0.30000000000000004,2.2,9.3,6.8,-8.0,-9.3,16
83,1517.0,0.1,-0.1,-0.30000000000000004,-0.1,2.2,9.3,6.500000000000001,-7.9,-7.400000000000001,16
84,1533.0,0.2,0.0,-0.30000000000000004,0.0,2.2,9.200000000000001,3.0,-5.9,-9.3,16
85,1550.0,0.0,0.0,-0.30000000000000004,-0.1,2.3000000000000003,9.3,1.1,-4.4,-9.899999999999999,16
86,1567.0,-0.1,0.0,-0.1,-0.30000000000000004,2.3000000000000003,9.5,-1.1,-3.4,-9.2,16
87,1583.0,0.0,0.0,0.0,-0.2,2.2,9.5,0.2,-3.5,-8.4,16
88,1600.0,0.0,0.0,0.0,-0.1,2.2,9.5,1.1,-3.8,-8.4,16
89,1617.0,0.0,0.0,-0.2,-0.1,2.3000000000000003,9.4,0.8,-1.3,-8.5,16
90,1633.0,0.0,0.1,0.0,-0.1,2.4000000000000004,9.5,-3.0,2.4000000000000004,-7.500000000000001,16
91,1650.0,0.0,0.2,0.2,-0.1,2.4000000000000004,9.700000000000001,-3.0,2.7,-7.6,16
92,1667.0,-0.2,0.2,0.2,-0.4,2.4000000000000004,9.700000000000001,0.6000000000000001,3.8,-7.500000000000001,16
93,1683.0,-0.1,0.2,0.1,-0.30000000000000004,2.5,9.600000000000001,3.1,2.4000000000000004,-5.8,16
94,1700.0,0.0,0.2,0.0,-0.2,2.5,9.5,3.1,2.2,-5.7,16
95,1717.0,-0.1,0.30000000000000004,-0.1,-0.30000000000000004,2.6,9.4,0.8,1.5,-4.7,16
96,1733.0,0.1,0.30000000000000004,0.0,-0.2,2.6,9.5,-1.5,-2.2,-4.300000000000001,16
97,1750.0,0.2,0.2,0.1,0.0,2.5,9.600000000000001,-2.5,-3.5,-4.800000000000001,16
98,1767.0,0.2,0.1,0.30000000000000004,0.0,2.4000000000000004,9.8,-2.8,-4.300000000000001,-6.4,16
99,1783.0,0.0,0.0,0.30000000000000004,-0.2,2.3000000000000003,9.8,-0.5,-2.7,-6.8,16
100,1800.0,0.0,-0.1,0.2,-0.1,2.2,9.700000000000001,1.1,-2.8,-6.0,16
101,1817.0,0.1,-0.2,0.1,0.0,2.1,9.700000000000001,3.1,-3.9,-5.500000000000001,16
102,1833.0,0.2,-0.1,0.0,0.0,2.2,9.5,3.4,-3.3000000000000007,-6.300000000000001,16
103,1850.0,0.2,-0.2,-0.1,0.1,2.1,9.5,2.3,-3.3000000000000007,-7.200000000000001,16
104,1867.0,0.30000000000000004,-0.30000000000000004,-0.1,0.1,2.0,9.4,-0.6000000000000001,-2.2,-10.299999999999999,16
105,1883.0,0.30000000000000004,-0.5,0.0,0.1,1.8,9.5,-3.6000000000000005,-2.0,-13.200000000000003,16
106,1900.0,0.30000000000000004,-0.8,0.1,0.1,1.6,9.600000000000001,-4.2,-2.8,-15.299999999999999,16
107,1917.0,0.4,-0.8,0.1,0.2,1.4000000000000001,9.700000000000001,-3.2,-3.9,-16.8,16
108,1934.0,0.5,-1.0,-0.1,0.30000000000000004,1.3,9.4,-3.1,-4.800000000000001,-21.200000000000003,16
109,1951.0,0.6000000000000001,-1.1,-0.2,0.4,1.1,9.4,-8.0,-3.2,-25.6,16
110,1967.0,0.6000000000000001,-1.1,-0.1,0.4,1.1,9.5,-11.4,-1.5,-28.3,16
111,1983.0,0.4,-1.1,0.0,0.30000000000000004,1.0,9.600000000000001,-16.3,2.2,-33.1,16
112,2000.0,0.4,-1.1,0.1,0.2,0.9,9.700000000000001,-18.0,5.1000000000000005,-35.3,16
113,2017.0,0.6000000000000001,-1.0,0.30000000000000004,0.30000000000000004,0.9,9.9,-18.200000000000003,7.400000000000001,-36.6,16
114,2033.0,0.30000000000000004,-0.6000000000000001,0.30000000000000004,0.0,1.4000000000000001,9.9,-13.3,15.5,-42.5,16
115,2051.0,-0.4,0.0,0.0,-0.8,1.9000000000000001,9.600000000000001,-8.5,24.8,-44.10000000000001,16
116,2067.0,-0.6000000000000001,0.2,0.0,-1.1,2.1,9.600000000000001,-7.6,25.8,-43.6,16
117,2083.0,-0.7000000000000001,0.7000000000000001,-0.2,-1.3,2.5,9.4,-5.2,28.900000000000002,-42.2,16
118,2100.0,-0.8,1.0,-0.4,-1.6,2.8000000000000003,9.200000000000001,-6.600000000000001,30.9,-43.300000000000004,16
119,2117.0,-1.0,1.1,-0.30000000000000004,-1.8,2.9000000000000004,9.3,-7.500000000000001,27.800000000000004,-44.00000000000001,16
120,2133.0,-1.2000000000000002,1.3,-0.1,-2.1,3.1,9.5,-5.8,20.8,-43.4,16
121,2151.0,-1.1,1.2000000000000002,0.1,-2.1,3.0,9.700000000000001,-2.7,12.8,-40.1,16
122,2169.0,-1.0,1.1,0.30000000000000004,-2.1,2.9000000000000004,9.9,-0.2,9.0,-38.400000000000006,16
123,2183.0,-0.8,1.1,0.5,-1.9000000000000001,2.9000000000000004,10.0,5.7,5.9,-33.6,16
124,2200.0,-0.5,0.8,0.30000000000000004,-1.7000000000000002,2.6,9.9,10.700000000000001,6.300000000000001,-29.200000000000003,16
125,2217.0,-0.4,0.6000000000000001,0.1,-1.6,2.5,9.700000000000001,12.9,7.1000000000000005,-27.2,16
126,2234.0,-0.1,0.5,-0.2,-1.3,2.4000000000000004,9.4,13.3,10.200000000000001,-24.1,16
127,2253.0,-0.1,0.30000000000000004,-0.2,-1.4000000000000001,2.2,9.4,9.600000000000001,13.100000000000001,-22.1,16
128,2267.0,-0.1,0.2,-0.2,-1.4000000000000001,2.1,9.4,8.0,14.300000000000002,-20.900000000000002,16
129,2284.0,-0.1,0.0,-0.1,-1.4000000000000001,2.0,9.4,5.6,14.5,-18.1,16
130,2300.0,0.0,0.0,-0.30000000000000004,-1.4000000000000001,2.0,9.200000000000001,5.8,12.9,-16.900000000000002,16
131,2317.0,0.1,0.1,-0.4,-1.4000000000000001,2.1,9.200000000000001,5.4,12.4,-16.6,16
132,2333.0,0.1,0.30000000000000004,-0.30000000000000004,-1.4000000000000001,2.2,9.200000000000001,2.6,13.3,-16.4,16
133,2350.0,0.1,0.30000000000000004,-0.2,-1.4000000000000001,2.3000000000000003,9.3,0.5,13.6,-16.3,16
134,2367.0,0.1,0.4,-0.1,-1.4000000000000001,2.3000000000000003,9.4,-0.6000000000000001,14.600000000000001,-15.899999999999999,16
135,2383.0,-0.1,0.4,0.1,-1.7000000000000002,2.4000000000000004,9.5,-1.2000000000000002,16.900000000000002,-14.800000000000002,16
136,2400.0,-0.2,0.5,0.1,-1.9000000000000001,2.4000000000000004,9.600000000000001,0.2,16.3,-12.9,16
137,2417.0,-0.2,0.4,0.1,-2.0,2.4000000000000004,9.600000000000001,0.9000000000000001,16.700000000000003,-11.6,16
138,2433.0,-0.2,0.4,0.1,-2.0,2.3000000000000003,9.5,2.1,14.700000000000001,-10.0,16
139,2450.0,-0.2,0.4,0.2,-2.1,2.3000000000000003,9.700000000000001,2.5,12.600000000000001,-8.8,16
140,2467.0,-0.2,0.30000000000000004,0.30000000000000004,-2.1,2.2,9.700000000000001,1.7,12.5,-8.899999999999999,16
141,2483.0,-0.4,0.2,0.4,-2.3000000000000003,2.1,9.8,2.4000000000000004,9.899999999999999,-7.9,16
142,2500.0,-0.5,0.1,0.2,-2.5,2.1,9.700000000000001,4.1,5.4,-6.2,16
143,2517.0,-0.5,0.1,0.0,-2.5,2.1,9.4,5.500000000000001,2.2,-5.7,16
144,2533.0,-0.5,0.2,-0.4,-2.4000000000000004,2.2,9.0,8.0,-5.2,-4.1,16
145,2552.0,-0.4,0.4,-0.30000000000000004,-2.3000000000000003,2.4000000000000004,9.1,5.500000000000001,-7.400000000000001,-2.0,16
146,2567.0,-0.4,0.4,-0.2,-2.3000000000000003,2.4000000000000004,9.3,3.4,-6.699999999999999,-0.5,16
147,2583.0,-0.5,0.4,-0.1,-2.4000000000000004,2.5,9.3,1.6,-5.2,4.0,16
148,2600.0,-0.6000000000000001,0.5,-0.2,-2.5,2.6,9.200000000000001,1.5,-5.0,9.5,16
149,2617.0,-0.6000000000000001,0.5,-0.2,-2.4000000000000004,2.6,9.200000000000001,0.8,-5.4,12.299999999999999,16
150,2634.0,-0.5,0.6000000000000001,-0.2,-2.4000000000000004,2.6,9.3,-1.6,-4.4,17.200000000000003,16
151,2653.0,-0.7000000000000001,0.5,-0.1,-2.5,2.6,9.3,-3.1,-4.1,21.1,16
152,2667.0,-0.7000000000000001,0.4,-0.2,-2.3000000000000003,2.5,9.200000000000001,-4.2,-7.8,25.7,16
153,2683.0,-0.30000000000000004,0.30000000000000004,-0.2,-2.1,2.4000000000000004,9.200000000000001,-5.4,-9.4,27.400000000000002,16
154,2700.0,0.0,0.2,-0.2,-1.8,2.3000000000000003,9.3,-8.600000000000001,-10.0,28.0,16
155,2717.0,0.1,0.1,-0.1,-1.6,2.1,9.4,-10.0,-10.4,27.2,16
156,2733.0,0.2,0.0,-0.1,-1.5,2.1,9.4,-10.600000000000001,-12.9,25.0,16
157,2752.0,0.4,-0.1,0.0,-1.2000000000000002,1.9000000000000001,9.4,-11.000000000000002,-13.000000000000002,23.400000000000002,16
158,2767.0,0.5,-0.2,0.1,-1.0,1.8,9.600000000000001,-11.4,-12.100000000000001,20.8,16
159,2784.0,0.5,-0.2,0.1,-1.1,1.7000000000000002,9.600000000000001,-10.299999999999999,-11.3,19.1,16
160,2800.0,0.5,-0.2,0.2,-1.0,1.7000000000000002,9.700000000000001,-7.500000000000001,-11.700000000000001,16.900000000000002,16
161,2817.0,0.6000000000000001,-0.2,0.30000000000000004,-0.8,1.7000000000000002,9.8,-6.0,-9.2,14.200000000000001,16
162,2833.0,0.5,-0.2,0.30000000000000004,-0.9,1.7000000000000002,9.8,-5.0,-7.500000000000001,12.4,16
163,2853.0,0.30000000000000004,-0.1,0.30000000000000004,-1.1,1.8,9.8,-3.1,-5.7,9.700000000000001,16
164,2867.0,0.2,0.0,0.2,-1.1,1.9000000000000001,9.8,-1.5,-5.7,8.2,16
165,2883.0,0.30000000000000004,0.0,0.30000000000000004,-1.1,1.9000000000000001,9.8,-0.9000000000000001,-5.7,7.8,16
166,2900.0,0.2,0.1,0.30000000000000004,-1.1,2.0,9.8,-0.2,-4.9,5.9,16
167,2917.0,0.0,0.2,0.2,-1.3,2.1,9.8,0.9000000000000001,-6.4,5.8,16
168,2933.0,0.0,0.2,0.2,-1.3,2.1,9.700000000000001,1.7,-7.500000000000001,6.0,16
169,2950.0,0.1,0.2,0.2,-1.1,2.2,9.700000000000001,3.0,-9.8,5.7,16
170,2967.0,-0.1,0.2,0.1,-1.2000000000000002,2.2,9.700000000000001,4.5,-9.8,4.800000000000001,16
171,2983.0,-0.1,0.2,0.1,-1.2000000000000002,2.2,9.700000000000001,4.9,-9.4,4.9,16
172,3000.0,0.0,0.2,0.1,-1.2000000000000002,2.3000000000000003,9.700000000000001,5.2,-7.500000000000001,5.6,16
173,3017.0,-0.1,0.2,0.0,-1.2000000000000002,2.2,9.600000000000001,4.6,-4.7,5.7,16
174,3033.0,-0.1,0.2,0.0,-1.2000000000000002,2.3000000000000003,9.600000000000001,4.6,-3.9,5.6,16
175,3051.0,-0.1,0.2,0.0,-1.2000000000000002,2.3000000000000003,9.5,3.9,-3.0,5.4,16
176,3069.0,-0.1,0.0,0.0,-1.2000000000000002,2.1,9.600000000000001,2.5,-0.8,5.8,16
177,3083.0,-0.1,0.0,0.0,-1.2000000000000002,2.1,9.600000000000001,2.5,-0.5,5.9,16
178,3100.0,0.0,0.0,0.1,-1.1,2.1,9.700000000000001,2.7,0.30000000000000004,6.699999999999999,16
179,3117.0,0.0,0.0,0.0,-1.0,2.1,9.600000000000001,3.6000000000000005,0.6000000000000001,6.4,16
180,3133.0,0.0,0.0,0.0,-1.1,2.1,9.600000000000001,4.2,-0.2,5.9,16
181,3160.0,0.0,-0.1,-0.1,-1.1,2.1,9.5,4.2,-1.4,5.1000000000000005,16
182,3167.0,0.0,-0.1,-0.1,-1.1,2.1,9.5,4.6,-2.5,5.0,16
183,3183.0,0.0,-0.1,-0.1,-1.0,2.1,9.5,4.7,-3.4,4.7,16
184,3200.0,0.0,-0.1,-0.1,-1.0,2.1,9.5,3.9,-4.6,4.9,16
185,3217.0,0.0,-0.1,-0.1,-1.0,2.1,9.4,3.7000000000000006,-6.300000000000001,4.800000000000001,16
186,3233.0,0.0,0.0,-0.2,-1.0,2.2,9.4,3.3000000000000007,-6.4,5.0,16
187,3254.0,0.1,-0.1,-0.1,-0.8,2.2,9.4,1.6,-6.4,5.0,16
188,3269.0,0.1,-0.1,-0.1,-0.8,2.2,9.4,0.30000000000000004,-5.300000000000001,4.0,16
189,3284.0,0.1,0.0,-0.2,-0.8,2.2,9.3,-0.6000000000000001,-4.5,3.6000000000000005,16
190,3301.0,0.2,-0.1,-0.1,-0.8,2.1,9.5,-3.3000000000000007,-3.2,2.8,16
191,3317.0,0.1,-0.2,0.0,-0.8,2.0,9.5,-3.9,-1.7,1.2000000000000002,16
192,3334.0,0.1,-0.2,0.0,-0.8,2.0,9.600000000000001,-3.9,-1.9,0.5,16
193,3350.0,0.0,-0.2,0.0,-0.8,2.0,9.600000000000001,-3.4,-2.5,-1.3,16
194,3367.0,0.0,-0.1,0.2,-0.8,2.0,9.700000000000001,-2.2,-3.7000000000000006,-2.4000000000000004,16
195,3384.0,0.0,-0.2,0.2,-0.9,1.9000000000000001,9.700000000000001,-1.5,-3.9,-2.9,16
196,3400.0,0.0,-0.1,0.2,-0.8,2.0,9.700000000000001,0.8,-4.6,-3.6000000000000005,16
197,3417.0,0.0,0.0,0.0,-0.8,2.1,9.600000000000001,2.5,-4.9,-5.0,16
198,3433.0,0.0,0.0,0.0,-1.0,2.2,9.600000000000001,2.9,-5.2,-6.1000000000000005,16
199,3450.0,-0.2,0.1,0.0,-1.0,2.3000000000000003,9.600000000000001,2.9,-5.300000000000001,-5.6,16
200,3467.0,-0.2,0.2,0.0,-1.0,2.3000000000000003,9.600000000000001,3.4,-6.0,-4.6,16
201,3483.0,-0.30000000000000004,0.2,0.0,-1.1,2.3000000000000003,9.600000000000001,3.3000000000000007,-4.5,-3.3000000000000007,16
202,3500.0,-0.30000000000000004,0.2,-0.1,-1.1,2.4000000000000004,9.5,3.5,-4.1,-2.4000000000000004,16
203,3517.0,-0.4,0.30000000000000004,0.0,-1.2000000000000002,2.4000000000000004,9.600000000000001,2.3,-4.2,-0.8,16
204,3533.0,-0.6000000000000001,0.2,0.0,-1.3,2.4000000000000004,9.5,2.2,-3.9,1.8000000000000003,16
205,3550.0,-0.6000000000000001,0.2,0.0,-1.3,2.4000000000000004,9.600000000000001,2.4000000000000004,-4.7,3.7000000000000006,16
206,3567.0,-0.4,0.1,0.0,-1.2000000000000002,2.3000000000000003,9.600000000000001,1.3,-6.0,7.200000000000001,16
207,3583.0,-0.4,0.1,-0.1,-1.2000000000000002,2.3000000000000003,9.4,0.5,-7.200000000000001,9.8,16
208,3600.0,-0.4,0.1,-0.2,-1.1,2.3000000000000003,9.4,-0.30000000000000004,-7.8,10.8,16
209,3617.0,-0.2,0.1,-0.2,-1.0,2.3000000000000003,9.3,-2.0,-7.699999999999999,12.4,16
210,3633.0,-0.1,0.0,-0.1,-0.8,2.2,9.4,-3.0,-7.699999999999999,13.000000000000002,16
211,3650.0,-0.1,-0.1,-0.2,-0.8,2.2,9.4,-2.9,-7.6,13.200000000000003,16
212,3667.0,0.0,0.0,-0.2,-0.6000000000000001,2.2,9.3,-3.4,-6.9,13.6,16
213,3686.0,0.1,-0.1,-0.2,-0.5,2.1,9.3,-5.6,-5.1000000000000005,13.000000000000002,16
214,3700.0,0.2,-0.1,-0.2,-0.4,2.1,9.3,-6.300000000000001,-4.2,12.100000000000001,16
215,3717.0,0.1,-0.1,-0.1,-0.5,2.1,9.4,-6.4,-3.4,10.8,16
216,3733.0,0.2,-0.1,0.0,-0.4,2.1,9.600000000000001,-6.4,-3.0,10.8,16
217,3750.0,0.2,-0.1,0.1,-0.4,2.0,9.700000000000001,-6.4,-2.3,10.299999999999999,16
218,3767.0,0.2,-0.1,0.1,-0.30000000000000004,2.1,9.700000000000001,-5.0,-1.7,9.4,16
219,3783.0,0.2,0.0,0.1,-0.30000000000000004,2.1,9.600000000000001,-3.6000000000000005,-1.9,8.600000000000001,16
220,3800.0,0.30000000000000004,0.0,0.1,-0.2,2.1,9.700000000000001,-3.6000000000000005,-1.4,7.699999999999999,16
221,3818.0,0.30000000000000004,0.0,0.1,-0.2,2.1,9.700000000000001,-3.3000000000000007,-0.8,4.7,16
222,3833.0,0.2,0.0,0.1,-0.30000000000000004,2.0,9.700000000000001,-3.3000000000000007,-0.6000000000000001,4.4,16
223,3850.0,0.30000000000000004,-0.1,0.1,-0.2,2.0,9.700000000000001,-3.3000000000000007,-0.8,3.9,16
224,3867.0,0.30000000000000004,0.0,0.1,-0.2,2.0,9.700000000000001,-2.4000000000000004,-2.2,2.3,16
225,3883.0,0.2,-0.1,0.0,-0.2,2.0,9.600000000000001,-2.2,-1.5,0.9000000000000001,16
226,3900.0,0.2,-0.1,0.1,-0.2,2.0,9.700000000000001,-2.2,-2.8,0.8,16
227,3917.0,0.30000000000000004,-0.1,0.1,-0.1,2.0,9.700000000000001,-1.4,-1.9,-0.4,16
228,3933.0,0.30000000000000004,0.0,0.1,-0.1,2.0,9.700000000000001,-0.4,0.0,-2.4000000000000004,16
229,3950.0,0.2,0.0,0.1,-0.2,2.0,9.700000000000001,-0.30000000000000004,0.8,-3.2,16
230,3967.0,0.0,0.0,0.1,-0.4,2.0,9.700000000000001,0.7,0.9000000000000001,-4.300000000000001,16
231,3983.0,0.0,0.0,0.0,-0.30000000000000004,2.0,9.600000000000001,2.2,-0.9000000000000001,-4.0,16
232,4000.0,0.1,0.0,-0.1,-0.30000000000000004,2.1,9.600000000000001,2.0,-1.2000000000000002,-4.1,16
233,4017.0,0.2,0.0,0.0,-0.2,2.1,9.600000000000001,0.1,1.1,-6.600000000000001,16
234,4036.0,-0.1,0.0,0.0,-0.5,2.0,9.600000000000001,-0.5,2.0,-8.5,16
235,4060.0,-0.1,0.0,0.1,-0.5,2.0,9.700000000000001,0.2,2.2,-7.1000000000000005,16
236,4067.0,0.0,0.0,0.1,-0.4,2.0,9.700000000000001,0.5,1.9,-6.699999999999999,16
237,4083.0,0.0,0.0,-0.1,-0.4,2.0,9.600000000000001,1.5,1.4,-7.1000000000000005,16
238,4100.0,-0.1,0.1,-0.1,-0.5,2.1,9.5,1.6,0.9000000000000001,-7.6,16
239,4117.0,0.0,0.0,-0.1,-0.5,2.1,9.5,0.30000000000000004,0.9000000000000001,-7.6,16
240,4133.0,0.0,0.0,0.0,-0.5,2.1,9.600000000000001,-0.5,0.6000000000000001,-7.400000000000001,16
241,4152.0,0.0,0.1,0.0,-0.5,2.1,9.700000000000001,-0.9000000000000001,0.2,-7.0,16
242,4169.0,0.0,0.0,0.0,-0.5,2.1,9.600000000000001,-0.9000000000000001,0.30000000000000004,-6.8,16
243,4183.0,-0.1,0.1,0.0,-0.6000000000000001,2.1,9.700000000000001,-0.5,0.5,-6.4,16
244,4200.0,0.0,0.0,0.2,-0.5,2.0,9.8,-0.2,1.1,-5.6,16
245,4217.0,0.0,0.0,0.2,-0.5,2.0,9.8,0.30000000000000004,1.6,-5.4,16
246,4233.0,-0.1,0.0,0.0,-0.7000000000000001,2.1,9.700000000000001,1.6,1.1,-4.9,16
247,4251.0,-0.1,0.1,0.0,-0.6000000000000001,2.1,9.700000000000001,2.4000000000000004,-1.2000000000000002,-4.2,16
248,4267.0,-0.1,0.1,0.0,-0.6000000000000001,2.1,9.600000000000001,2.6,-2.0,-3.9,16
249,4283.0,0.0,0.0,0.0,-0.5,2.1,9.600000000000001,2.8,-4.0,-3.0,16
250,4300.0,0.0,0.1,-0.1,-0.5,2.2,9.5,2.8,-4.5,-2.4000000000000004,16
251,4317.0,0.1,0.1,-0.1,-0.4,2.2,9.5,1.5,-3.6000000000000005,-2.4000000000000004,16
252,4333.0,0.0,0.0,0.0,-0.4,2.1,9.600000000000001,0.1,-1.8000000000000003,-3.2,16
253,4351.0,-0.1,-0.1,-0.1,-0.6000000000000001,2.0,9.5,0.9000000000000001,-1.4,-2.9,16
254,4367.0,0.0,0.0,-0.2,-0.5,2.1,9.4,1.1,-1.3,-2.2,16
255,4384.0,-0.1,0.0,-0.1,-0.5,2.1,9.5,0.0,-1.0,-1.4,16
256,4400.0,0.0,0.0,0.0,-0.5,2.1,9.600000000000001,-0.5,0.7,-1.8000000000000003,16
257,4417.0,-0.1,0.0,0.0,-0.6000000000000001,2.1,9.600000000000001,0.0,0.6000000000000001,-2.0,16
258,4433.0,-0.2,0.0,-0.1,-0.7000000000000001,2.1,9.5,1.1,-0.2,-1.9,16
259,4455.0,0.0,0.0,-0.1,-0.6000000000000001,2.1,9.5,0.5,0.0,-1.2000000000000002,16
260,4468.0,0.0,0.0,0.0,-0.5,2.1,9.600000000000001,-0.1,0.6000000000000001,-1.1,16
261,4483.0,-0.1,0.0,0.0,-0.6000000000000001,2.1,9.600000000000001,0.5,0.8,-1.3,16
262,4500.0,-0.1,0.1,0.0,-0.6000000000000001,2.2,9.600000000000001,0.8,1.4,0.0,16
263,4517.0,0.0,0.1,0.0,-0.6000000000000001,2.2,9.600000000000001,0.1,1.8000000000000003,0.6000000000000001,16
264,4533.0,0.0,0.0,0.0,-0.5,2.1,9.600000000000001,-0.5,2.2,0.4,16
265,4553.0,-0.1,0.0,0.1,-0.6000000000000001,2.1,9.600000000000001,-0.1,1.3,1.3,16
266,4567.0,0.0,0.0,0.1,-0.5,2.1,9.600000000000001,0.2,0.8,1.8000000000000003,16
267,4583.0,0.0,0.0,0.0,-0.5,2.1,9.600000000000001,0.7,-0.1,1.5,16
268,4600.0,0.1,0.0,0.0,-0.5,2.2,9.600000000000001,0.6000000000000001,0.0,1.7,16
269,4617.0,0.1,0.0,0.0,-0.5,2.2,9.600000000000001,0.2,0.1,1.4,16
270,4634.0,0.1,0.0,0.0,-0.5,2.1,9.600000000000001,0.0,0.7,1.0,16
271,4654.0,0.1,-0.1,0.0,-0.5,2.0,9.600000000000001,-0.30000000000000004,1.6,0.5,16
272,4669.0,0.0,0.0,0.0,-0.6000000000000001,2.1,9.600000000000001,-0.6000000000000001,2.5,0.7,16
273,4683.0,0.0,-0.1,0.1,-0.5,2.0,9.700000000000001,0.1,2.5,1.1,16
274,4700.0,0.1,0.0,0.1,-0.5,2.1,9.700000000000001,1.6,1.2000000000000002,0.4,16
275,4717.0,0.1,0.0,0.0,-0.5,2.1,9.600000000000001,1.9,0.9000000000000001,-0.30000000000000004,16
276,4733.0,0.0,0.0,-0.1,-0.5,2.1,9.5,1.7,1.4,-1.0,16
277,4750.0,0.1,0.0,0.0,-0.5,2.1,9.600000000000001,0.5,2.0,-1.0,16
278,4767.0,0.0,0.0,0.0,-0.5,2.1,9.600000000000001,0.5,2.1,-1.3,16
279,4783.0,0.0,0.1,0.0,-0.6000000000000001,2.2,9.600000000000001,0.5,2.6,-1.1,16
280,4800.0,-0.1,0.0,0.0,-0.7000000000000001,2.1,9.600000000000001,0.5,1.6,-1.1,16
281,4817.0,-0.1,0.0,0.0,-0.7000000000000001,2.1,9.600000000000001,0.8,1.2000000000000002,-1.1,16
282,4833.0,-0.1,0.0,0.0,-0.7000000000000001,2.1,9.600000000000001,0.8,1.7,-0.8,16
283,4852.0,-0.1,0.0,0.0,-0.7000000000000001,2.1,9.600000000000001,0.6000000000000001,1.6,-0.8,16
284,4867.0,0.0,0.0,0.0,-0.7000000000000001,2.1,9.600000000000001,0.8,1.3,-0.8,16
285,4883.0,0.0,0.1,0.0,-0.6000000000000001,2.2,9.600000000000001,0.7,1.2000000000000002,-0.6000000000000001,16
286,4900.0,0.0,0.0,-0.1,-0.6000000000000001,2.1,9.5,0.30000000000000004,1.5,-0.8,16
287,4917.0,0.0,0.0,0.0,-0.6000000000000001,2.1,9.600000000000001,0.0,1.3,-1.0,16
288,4933.0,-0.1,0.0,0.1,-0.7000000000000001,2.1,9.600000000000001,0.0,2.2,-0.7,16
289,4953.0,0.0,0.0,0.1,-0.6000000000000001,2.1,9.600000000000001,0.9000000000000001,1.4,-0.5,16
290,4967.0,0.1,0.0,0.0,-0.6000000000000001,2.1,9.600000000000001,0.9000000000000001,1.8000000000000003,-1.1,16
291,4984.0,0.0,0.0,-0.1,-0.7000000000000001,2.1,9.5,0.8,1.3,-1.4,16
292,5000.0,0.0,0.0,0.1,-0.6000000000000001,2.1,9.600000000000001,-0.1,0.9000000000000001,-1.0,16
293,5017.0,0.1,0.0,0.1,-0.6000000000000001,2.1,9.600000000000001,-0.1,0.8,-1.1,16
294,5033.0,0.1,0.1,0.0,-0.6000000000000001,2.2,9.600000000000001,0.5,0.5,-1.9,16
295,5050.0,-0.1,0.1,0.1,-0.7000000000000001,2.2,9.600000000000001,0.5,0.9000000000000001,-1.9,16
296,5069.0,0.0,0.0,0.1,-0.7000000000000001,2.2,9.700000000000001,1.5,0.6000000000000001,-1.3,16
297,5084.0,0.0,0.0,0.0,-0.7000000000000001,2.2,9.600000000000001,2.3,0.8,-1.1,16
298,5100.0,0.0,0.0,-0.1,-0.7000000000000001,2.2,9.5,2.3,0.7,-1.6,16
299,5117.0,-0.1,0.1,-0.1,-0.7000000000000001,2.2,9.5,1.7,-0.2,-1.4,16
300,5133.0,0.0,0.1,0.0,-0.6000000000000001,2.3000000000000003,9.5,1.1,-0.30000000000000004,-1.1,16
301,5154.0,0.0,0.0,0.0,-0.7000000000000001,2.2,9.5,0.0,0.5,-1.4,16
302,5167.0,-0.1,0.0,0.0,-0.7000000000000001,2.1,9.5,0.2,-0.2,-1.1,16
303,5184.0,0.0,0.0,-0.1,-0.7000000000000001,2.2,9.5,0.6000000000000001,-0.30000000000000004,-0.7,16
304,5200.0,0.1,0.0,0.0,-0.5,2.2,9.5,0.1,1.2000000000000002,-1.3,16
305,5217.0,0.0,0.0,0.0,-0.7000000000000001,2.1,9.700000000000001,-0.4,2.2,-1.7,16
306,5233.0,-0.1,-0.1,0.2,-0.8,2.1,9.700000000000001,0.0,1.9,-1.4,16
307,5250.0,0.0,0.0,0.0,-0.7000000000000001,2.2,9.5,1.9,0.7,-1.0,16
308,5267.0,0.0,0.0,-0.1,-0.7000000000000001,2.2,9.5,1.3,0.30000000000000004,-1.4,16
309,5283.0,0.0,0.0,-0.1,-0.7000000000000001,2.2,9.5,0.4,0.9000000000000001,-1.9,16
310,5300.0,-0.1,0.0,0.0,-0.8,2.2,9.600000000000001,-0.4,0.9000000000000001,-2.4000000000000004,16
311,5317.0,-0.1,0.0,0.1,-0.8,2.2,9.700000000000001,0.2,0.2,-1.4,16
312,5333.0,0.0,0.0,0.1,-0.8,2.2,9.700000000000001,0.6000000000000001,0.4,-0.9000000000000001,16
313,5350.0,-0.1,0.0,-0.1,-0.8,2.2,9.5,0.8,1.2000000000000002,-0.6000000000000001,16
314,5367.0,-0.2,-0.1,-0.1,-0.9,2.1,9.4,0.30000000000000004,1.4,-0.2,16
315,5383.0,-0.2,0.0,-0.1,-0.9,2.1,9.4,0.1,0.8,0.1,16
316,5400.0,-0.1,0.0,-0.2,-0.8,2.2,9.4,-0.8,-0.8,-0.2,16
317,5417.0,0.0,-0.1,-0.1,-0.8,2.1,9.5,-1.9,-1.3,-0.8,16
318,5433.0,0.0,-0.1,-0.1,-0.7000000000000001,2.1,9.5,-2.1,-0.9000000000000001,-1.3,16
319,5450.0,0.0,0.0,0.0,-0.7000000000000001,2.1,9.600000000000001,-1.9,0.4,-1.4,16
320,5467.0,0.0,0.0,0.0,-0.7000000000000001,2.1,9.600000000000001,-1.6,2.7,-1.3,16
321,5483.0,0.0,0.0,0.0,-0.7000000000000001,2.2,9.5,-1.0,3.1,-1.1,16
322,5500.0,-0.1,0.1,-0.1,-0.8,2.2,9.5,-0.2,2.4000000000000004,-0.7,16
323,5517.0,0.0,0.1,0.0,-0.8,2.2,9.600000000000001,-0.6000000000000001,1.8000000000000003,-0.6000000000000001,16
324,5533.0,0.0,0.1,0.1,-0.8,2.2,9.600000000000001,-1.4,1.7,-0.7,16
325,5552.0,0.0,0.1,0.1,-0.8,2.3000000000000003,9.700000000000001,-1.5,1.7,-0.4,16
326,5568.0,0.0,0.1,0.1,-0.8,2.2,9.600000000000001,-0.8,0.4,0.1,16
327,5583.0,0.1,0.1,0.1,-0.7000000000000001,2.2,9.700000000000001,-0.9000000000000001,0.2,0.4,16
328,5600.0,0.1,0.0,0.1,-0.6000000000000001,2.2,9.600000000000001,-1.0,0.9000000000000001,0.0,16
329,5617.0,0.1,0.0,0.1,-0.7000000000000001,2.2,9.700000000000001,-0.5,0.8,0.0,16
330,5633.0,0.1,-0.1,0.1,-0.7000000000000001,2.1,9.600000000000001,0.2,0.2,0.1,16
331,5650.0,0.1,0.0,0.0,-0.6000000000000001,2.1,9.600000000000001,1.1,-0.9000000000000001,-0.1,16
332,5667.0,0.1,0.0,0.0,-0.6000000000000001,2.1,9.600000000000001,0.1,0.4,-0.7,16
333,5683.0,0.1,0.0,0.1,-0.6000000000000001,2.1,9.600000000000001,0.30000000000000004,0.2,-0.8,16
334,5700.0,0.1,0.0,0.0,-0.7000000000000001,2.2,9.600000000000001,1.1,0.1,-1.8000000000000003,16
335,5717.0,0.0,0.0,0.0,-0.7000000000000001,2.2,9.600000000000001,1.2000000000000002,0.7,-1.8000000000000003,16
336,5733.0,0.1,0.0,0.1,-0.8,2.2,9.600000000000001,1.3,0.9000000000000001,-2.1,16
337,5750.0,-0.1,0.0,0.0,-0.8,2.2,9.600000000000001,2.2,0.2,-2.0,16
338,5767.0,0.0,0.0,0.1,-0.8,2.2,9.700000000000001,3.0,-1.1,-1.2000000000000002,16
339,5783.0,0.0,0.1,0.0,-0.8,2.3000000000000003,9.600000000000001,3.4,-0.5,-1.0,16
340,5800.0,0.0,0.0,0.0,-0.7000000000000001,2.2,9.600000000000001,3.6000000000000005,-0.6000000000000001,-1.3,16
341,5817.0,0.0,0.0,0.0,-0.7000000000000001,2.2,9.5,4.1,-0.30000000000000004,-1.4,16
342,5834.0,0.0,0.0,-0.1,-0.7000000000000001,2.2,9.5,3.8,0.30000000000000004,-1.4,16
343,5850.0,0.0,0.0,-0.1,-0.8,2.3000000000000003,9.5,2.9,1.7,-0.8,16
344,5867.0,0.0,0.1,-0.1,-0.8,2.3000000000000003,9.4,3.5,2.1,1.4,16
345,5884.0,0.1,0.1,-0.30000000000000004,-0.7000000000000001,2.4000000000000004,9.3,3.3000000000000007,4.9,2.2,16
346,5900.0,0.1,0.2,-0.4,-0.7000000000000001,2.5,9.1,1.6,8.100000000000001,2.5,16
347,5917.0,0.1,0.1,-0.4,-0.7000000000000001,2.4000000000000004,9.1,-4.1,15.700000000000001,4.0,16
348,5933.0,-0.1,0.0,-0.30000000000000004,-1.0,2.3000000000000003,9.200000000000001,-7.6,26.000000000000004,8.0,16
349,5950.0,-0.30000000000000004,0.1,-0.30000000000000004,-1.2000000000000002,2.3000000000000003,9.200000000000001,-9.100000000000001,29.300000000000004,10.4,16
350,5967.0,-0.30000000000000004,0.2,-0.30000000000000004,-1.3,2.4000000000000004,9.200000000000001,-12.100000000000001,32.400000000000006,16.1,16
351,5983.0,-0.30000000000000004,0.2,-0.2,-1.5,2.4000000000000004,9.3,-16.200000000000003,27.400000000000002,17.400000000000002,16
352,6000.0,-0.4,0.30000000000000004,0.0,-1.5,2.4000000000000004,9.5,-16.900000000000002,24.3,17.0,16
353,6017.0,-0.2,0.30000000000000004,0.1,-1.5,2.3000000000000003,9.600000000000001,-16.0,23.3,19.5,16
354,6033.0,-0.1,0.1,0.1,-1.4000000000000001,2.1,9.600000000000001,-18.200000000000003,27.400000000000002,20.2,16
355,6051.0,-0.2,0.0,0.0,-1.6,2.0,9.5,-19.300000000000004,25.6,20.0,16
356,6067.0,-0.30000000000000004,0.0,0.30000000000000004,-1.7000000000000002,2.0,9.8,-19.9,16.8,20.599999999999998,16
357,6083.0,0.0,0.0,0.4,-1.5,1.9000000000000001,9.9,-19.1,10.9,21.1,16
358,6100.0,0.1,-0.1,0.5,-1.4000000000000001,1.7000000000000002,10.0,-18.6,8.100000000000001,19.799999999999997,16
359,6117.0,0.0,-0.30000000000000004,0.5,-1.4000000000000001,1.6,10.0,-15.700000000000001,4.9,17.300000000000004,16
360,6135.0,0.2,-0.30000000000000004,0.4,-1.3,1.5,10.0,-12.7,2.9,15.5,16
361,6151.0,0.2,-0.30000000000000004,0.30000000000000004,-1.2000000000000002,1.5,9.9,-12.0,1.3,14.100000000000001,16
362,6167.0,0.2,-0.4,0.4,-1.2000000000000002,1.4000000000000001,10.0,-9.2,-3.2,11.000000000000002,16
363,6183.0,0.2,-0.4,0.30000000000000004,-1.2000000000000002,1.3,9.9,-6.2,-5.0,9.3,16
364,6200.0,0.30000000000000004,-0.30000000000000004,0.2,-1.1,1.4000000000000001,9.8,-5.2,-5.0,8.4,16
365,6217.0,0.30000000000000004,-0.30000000000000004,0.2,-1.0,1.4000000000000001,9.8,-4.4,-4.800000000000001,5.300000000000001,16
366,6233.0,0.2,-0.2,0.1,-1.1,1.5,9.700000000000001,-4.1,-3.6000000000000005,2.5,16
367,6250.0,0.2,-0.2,0.0,-1.1,1.5,9.600000000000001,-3.5,-2.7,1.5,16
368,6268.0,0.2,-0.1,0.0,-1.1,1.5,9.700000000000001,-1.4,-2.0,-0.4,16
369,6283.0,0.1,-0.1,0.1,-1.2000000000000002,1.5,9.700000000000001,0.8,-0.30000000000000004,-3.4,16
370,6300.0,0.0,-0.1,0.1,-1.3,1.5,9.700000000000001,1.7,1.4,-4.0,16
371,6316.0,-0.1,-0.1,-0.1,-1.4000000000000001,1.6,9.5,2.6,1.7,-3.1,16
372,6333.0,0.2,0.0,0.0,-1.2000000000000002,1.7000000000000002,9.600000000000001,2.4000000000000004,1.3,-3.3000000000000007,16
373,6351.0,0.0,0.0,-0.1,-1.4000000000000001,1.7000000000000002,9.5,1.4,2.0,-6.1000000000000005,16
374,6367.0,-0.2,0.1,-0.1,-1.5,1.7000000000000002,9.5,0.8,2.2,-6.1000000000000005,16
375,6383.0,-0.1,0.0,0.0,-1.4000000000000001,1.7000000000000002,9.600000000000001,0.30000000000000004,-0.30000000000000004,-4.5,16
376,6400.0,0.0,0.0,0.1,-1.3,1.7000000000000002,9.8,0.30000000000000004,-0.6000000000000001,-4.6,16
377,6417.0,0.0,0.1,0.2,-1.3,1.7000000000000002,9.8,2.1,2.0,-4.9,16
378,6433.0,-0.2,0.2,0.2,-1.6,1.8,9.8,2.5,0.6000000000000001,-4.4,16
379,6451.0,-0.1,0.2,0.30000000000000004,-1.5,1.8,9.9,2.7,1.1,-3.2,16
380,6469.0,0.0,0.1,0.1,-1.4000000000000001,1.7000000000000002,9.700000000000001,4.6,-2.3,-3.0,16
381,6483.0,0.0,0.2,0.1,-1.3,1.9000000000000001,9.700000000000001,4.9,-1.6,-2.7,16
382,6500.0,0.2,0.1,0.0,-1.2000000000000002,1.8,9.600000000000001,2.1,-0.5,-3.0,16
383,6517.0,0.1,0.0,0.0,-1.3,1.7000000000000002,9.600000000000001,0.30000000000000004,0.1,-3.9,16
384,6533.0,0.0,0.0,0.1,-1.3,1.7000000000000002,9.700000000000001,-0.8,1.6,-4.9,16
385,6550.0,-0.2,-0.1,0.1,-1.6,1.6,9.8,-0.1,0.2,-5.500000000000001,16
386,6567.0,-0.2,-0.1,0.1,-1.6,1.6,9.700000000000001,2.2,-2.5,-2.1,16
387,6583.0,0.2,-0.1,-0.1,-1.1,1.7000000000000002,9.5,4.300000000000001,-3.0,-1.9,16
388,6600.0,0.0,-0.1,-0.2,-1.4000000000000001,1.7000000000000002,9.4,1.1,2.4000000000000004,-4.0,16
389,6617.0,-0.1,-0.1,-0.1,-1.5,1.7000000000000002,9.5,-0.7,3.6000000000000005,-3.8,16
390,6633.0,0.0,-0.1,0.1,-1.4000000000000001,1.6,9.700000000000001,0.8,-1.3,-4.1,16
391,6650.0,0.1,0.0,0.1,-1.3,1.7000000000000002,9.700000000000001,4.0,-0.6000000000000001,-5.4,16
392,6667.0,0.1,0.0,-0.1,-1.2000000000000002,1.7000000000000002,9.600000000000001,4.5,0.8,-6.8,16
393,6683.0,0.0,0.0,-0.1,-1.4000000000000001,1.8,9.5,1.9,0.0,-9.4,16
394,6700.0,0.0,-0.1,0.0,-1.3,1.7000000000000002,9.600000000000001,-0.8,-0.30000000000000004,-9.600000000000001,16
395,6717.0,-0.1,-0.1,0.0,-1.5,1.6,9.600000000000001,-0.9000000000000001,-0.8,-9.600000000000001,16
396,6733.0,-0.2,0.0,0.0,-1.6,1.7000000000000002,9.700000000000001,0.5,-1.7,-6.9,16
397,6754.0,0.1,0.0,0.1,-1.3,1.8,9.700000000000001,1.4,-3.7000000000000006,-5.500000000000001,16
398,6767.0,0.2,0.1,0.0,-1.1,1.8,9.700000000000001,1.2000000000000002,-3.1,-6.1000000000000005,16
399,6784.0,-0.1,0.0,0.1,-1.5,1.8,9.700000000000001,-0.2,0.6000000000000001,-7.200000000000001,16
400,6800.0,-0.2,0.1,0.1,-1.6,1.8,9.8,0.0,0.0,-4.9,16
401,6817.0,-0.2,0.1,0.2,-1.6,1.8,9.8,1.5,-1.4,-3.5,16
402,6833.0,0.0,0.1,0.0,-1.4000000000000001,1.9000000000000001,9.700000000000001,3.0,-1.2000000000000002,-1.9,16
403,6850.0,-0.1,0.1,-0.1,-1.5,1.9000000000000001,9.5,2.2,0.6000000000000001,-1.1,16
404,6867.0,-0.1,0.1,-0.1,-1.5,1.9000000000000001,9.5,1.2000000000000002,0.6000000000000001,-0.5,16
405,6883.0,0.1,0.1,-0.1,-1.3,1.8,9.5,0.2,0.7,-0.2,16
406,6900.0,0.0,0.0,-0.1,-1.4000000000000001,1.8,9.5,-0.9000000000000001,0.2,-1.0,16
407,6916.0,-0.1,0.0,0.0,-1.5,1.8,9.600000000000001,-1.6,0.2,-0.6000000000000001,16
408,6933.0,0.0,0.0,0.0,-1.4000000000000001,1.8,9.600000000000001,-2.2,-1.0,0.4,16
409,6950.0,0.0,0.0,0.1,-1.4000000000000001,1.8,9.700000000000001,-1.8000000000000003,-1.1,0.5,16
410,6967.0,-0.1,0.0,0.1,-1.5,1.8,9.700000000000001,-1.7,-0.8,0.5,16
411,6983.0,0.0,0.0,0.2,-1.4000000000000001,1.7000000000000002,9.8,-1.1,-1.3,0.2,16
412,7000.0,-0.1,0.0,0.0,-1.5,1.7000000000000002,9.700000000000001,1.3,-1.5,1.1,16
413,7017.0,0.0,0.0,-0.1,-1.4000000000000001,1.8,9.5,1.6,-1.9,1.6,16
414,7033.0,0.1,0.0,-0.1,-1.2000000000000002,1.8,9.5,0.4,-2.7,1.4,16
415,7055.0,0.0,0.0,-0.1,-1.4000000000000001,1.8,9.5,-1.6,-2.0,0.9000000000000001,16
416,7067.0,0.1,0.0,0.0,-1.3,1.8,9.600000000000001,-2.9,-0.8,1.5,16
417,7083.0,0.1,0.0,0.1,-1.3,1.7000000000000002,9.700000000000001,-3.4,-0.4,1.4,16
418,7100.0,0.2,0.0,0.1,-1.2000000000000002,1.7000000000000002,9.700000000000001,-3.3000000000000007,1.6,1.3,16
419,7117.0,0.0,0.1,0.0,-1.2000000000000002,1.7000000000000002,9.600000000000001,-2.8,1.9,0.7,16
420,7133.0,0.0,0.0,0.0,-1.4000000000000001,1.7000000000000002,9.700000000000001,-4.1,2.0,-0.2,16
421,7157.0,0.0,-0.1,0.0,-1.4000000000000001,1.6,9.600000000000001,-4.7,3.3000000000000007,0.6000000000000001,16
422,7167.0,0.1,0.0,0.0,-1.3,1.7000000000000002,9.700000000000001,-5.0,3.5,0.8,16
423,7183.0,0.2,0.0,0.1,-1.2000000000000002,1.7000000000000002,9.700000000000001,-5.4,4.5,0.6000000000000001,16
424,7200.0,0.2,-0.1,0.0,-1.2000000000000002,1.6,9.600000000000001,-6.2,8.600000000000001,-2.2,16
425,7217.0,0.0,0.0,-0.1,-1.3,1.6,9.600000000000001,-6.9,10.8,-3.2,16
426,7235.0,-0.1,0.0,-0.30000000000000004,-1.5,1.6,9.3,-9.8,14.900000000000002,-3.1,16
427,7251.0,-0.2,0.1,0.0,-1.7000000000000002,1.6,9.600000000000001,-13.700000000000001,14.0,-0.6000000000000001,16
428,7267.0,0.0,0.0,0.1,-1.7000000000000002,1.5,9.700000000000001,-13.200000000000003,10.1,1.6,16
429,7285.0,0.2,0.0,0.2,-1.3,1.5,9.8,-12.7,10.299999999999999,1.4,16
430,7300.0,0.0,-0.1,0.1,-1.6,1.4000000000000001,9.700000000000001,-11.1,9.3,-2.1,16
431,7317.0,-0.1,0.0,0.0,-1.9000000000000001,1.4000000000000001,9.600000000000001,-11.3,6.0,-2.7,16
432,7335.0,-0.4,0.0,-0.1,-2.0,1.4000000000000001,9.600000000000001,-11.8,4.2,-1.0,16
433,7353.0,0.6000000000000001,0.0,-0.5,-1.1,1.4000000000000001,9.200000000000001,-16.200000000000003,-2.8,-5.7,16
434,7367.0,-0.2,0.8,1.6,-1.9000000000000001,2.1,11.3,-7.0,-4.0,-5.500000000000001,16
435,7383.0,0.4,-0.6000000000000001,0.4,-1.3,0.7000000000000001,10.0,-0.9000000000000001,-0.8,-6.500000000000001,16
436,7400.0,-0.4,-0.30000000000000004,0.1,-2.0,1.0,9.8,0.6000000000000001,-7.400000000000001,-9.100000000000001,16
437,7416.0,-0.30000000000000004,0.0,-0.2,-1.9000000000000001,1.3,9.4,-2.1,2.2,2.0,16
438,7433.0,0.1,0.1,-0.30000000000000004,-1.5,1.4000000000000001,9.4,-3.1,-2.2,2.9,16
439,7450.0,0.0,0.2,0.0,-1.6,1.4000000000000001,9.600000000000001,-4.1,-1.3,0.1,16
440,7467.0,-0.1,0.0,0.1,-1.7000000000000002,1.3,9.700000000000001,-5.2,-1.1,0.0,16
441,7483.0,0.0,0.0,0.1,-1.6,1.3,9.8,-4.6,0.2,0.4,16
442,7500.0,-0.1,-0.1,0.2,-1.7000000000000002,1.2000000000000002,9.9,-0.8,1.4,1.1,16
443,7516.0,-0.1,-0.1,-0.1,-1.7000000000000002,1.2000000000000002,9.600000000000001,1.7,1.0,2.6,16
444,7533.0,0.0,0.0,-0.1,-1.6,1.2000000000000002,9.600000000000001,1.1,1.1,3.4,16
445,7550.0,0.2,0.1,0.1,-1.4000000000000001,1.3,9.8,-0.9000000000000001,3.8,3.7000000000000006,16
446,7569.0,0.0,0.1,0.1,-1.6,1.4000000000000001,9.700000000000001,0.5,2.3,0.4,16
447,7583.0,-0.1,0.0,0.1,-1.7000000000000002,1.3,9.8,1.6,2.0,-0.2,16
448,7601.0,-0.1,0.0,0.1,-1.7000000000000002,1.2000000000000002,9.8,3.0,1.7,0.0,16
449,7617.0,0.0,-0.1,0.1,-1.7000000000000002,1.2000000000000002,9.8,4.1,2.0,0.6000000000000001,16
450,7633.0,0.0,-0.1,0.1,-1.7000000000000002,1.2000000000000002,9.700000000000001,4.5,2.0,1.1,16
451,7656.0,0.0,0.1,-0.1,-1.6,1.4000000000000001,9.600000000000001,3.5,1.5,-0.1,16
452,7667.0,0.0,0.0,-0.1,-1.7000000000000002,1.4000000000000001,9.600000000000001,3.0,1.1,-0.7,16
453,7683.0,-0.1,0.0,-0.1,-1.7000000000000002,1.3,9.600000000000001,2.1,1.0,-0.7,16
454,7700.0,0.0,0.0,-0.1,-1.7000000000000002,1.3,9.5,0.6000000000000001,0.5,-1.2000000000000002,16
455,7717.0,0.0,0.1,-0.1,-1.6,1.4000000000000001,9.5,0.30000000000000004,-0.9000000000000001,-1.3,16
456,7733.0,0.2,0.1,-0.1,-1.5,1.4000000000000001,9.5,-0.2,-0.6000000000000001,-1.8000000000000003,16
457,7750.0,0.1,0.1,0.0,-1.6,1.4000000000000001,9.700000000000001,-1.7,1.1,-2.5,16
458,7767.0,0.1,0.0,0.0,-1.5,1.4000000000000001,9.700000000000001,-0.9000000000000001,3.3000000000000007,-2.4000000000000004,16
459,7783.0,0.1,0.0,0.0,-1.6,1.3,9.600000000000001,-0.5,4.300000000000001,-2.5,16
460,7800.0,-0.1,0.0,0.1,-1.7000000000000002,1.3,9.700000000000001,-1.1,5.9,-2.2,16
461,7817.0,-0.1,0.0,0.1,-1.8,1.3,9.700000000000001,0.4,6.0,-1.7,16
462,7833.0,0.0,0.0,0.0,-1.8,1.3,9.700000000000001,1.1,5.2,-2.0,16
463,7851.0,-0.1,0.0,-0.1,-1.8,1.3,9.600000000000001,0.30000000000000004,5.4,-2.2,16
464,7867.0,-0.1,0.1,0.1,-1.9000000000000001,1.4000000000000001,9.8,-1.1,3.1,-0.9000000000000001,16
465,7883.0,0.0,0.1,0.2,-1.8,1.4000000000000001,9.8,-1.2000000000000002,2.4000000000000004,-0.30000000000000004,16
466,7900.0,0.0,0.1,0.1,-1.8,1.5,9.8,-1.4,2.4000000000000004,-0.2,16
467,7917.0,-0.1,0.1,0.0,-1.8,1.4000000000000001,9.700000000000001,-1.4,1.3,0.8,16
468,7934.0,0.0,0.1,0.1,-1.7000000000000002,1.5,9.8,-1.2000000000000002,-0.4,1.5,16
469,7951.0,0.2,0.1,0.1,-1.6,1.5,9.8,-0.7,-0.1,1.3,16
470,7967.0,0.1,0.0,0.0,-1.7000000000000002,1.4000000000000001,9.700000000000001,-0.1,0.9000000000000001,0.9000000000000001,16
471,7983.0,0.1,0.0,0.0,-1.6,1.3,9.700000000000001,-0.7,0.8,2.1,16
472,8000.0,0.2,-0.1,0.0,-1.6,1.3,9.700000000000001,-0.8,0.7,1.8000000000000003,16
473,8017.0,0.1,-0.1,0.0,-1.6,1.2000000000000002,9.700000000000001,-0.9000000000000001,0.6000000000000001,0.5,16
474,8033.0,0.1,-0.1,0.0,-1.7000000000000002,1.2000000000000002,9.600000000000001,-0.6000000000000001,0.2,-0.5,16
475,8050.0,0.1,-0.2,0.0,-1.7000000000000002,1.1,9.700000000000001,-0.6000000000000001,0.30000000000000004,-1.3,16
476,8067.0,0.0,-0.2,-0.1,-1.7000000000000002,1.1,9.600000000000001,0.2,0.9000000000000001,-1.8000000000000003,16
477,8083.0,0.0,-0.2,-0.1,-1.8,1.0,9.5,-0.8,1.5,-2.4000000000000004,16
478,8100.0,-0.1,-0.2,-0.2,-1.9000000000000001,1.1,9.5,-1.4,1.5,-2.9,16
479,8117.0,-0.1,-0.1,-0.2,-1.9000000000000001,1.1,9.4,-1.9,0.30000000000000004,-3.0,16
480,8133.0,0.1,-0.1,-0.1,-1.7000000000000002,1.2000000000000002,9.600000000000001,-3.8,0.6000000000000001,-4.9,16
481,8150.0,0.0,-0.1,0.0,-1.8,1.1,9.600000000000001,-4.800000000000001,2.0,-5.8,16
482,8167.0,-0.1,-0.1,0.1,-1.9000000000000001,1.1,9.8,-4.4,3.6000000000000005,-5.8,16
483,8183.0,-0.1,-0.1,0.1,-1.9000000000000001,1.1,9.8,-1.9,4.0,-6.4,16
484,8200.0,-0.2,0.0,0.1,-2.0,1.1,9.8,-1.1,4.7,-6.300000000000001,16
485,8217.0,-0.1,0.0,0.2,-2.0,1.2000000000000002,9.8,-0.30000000000000004,5.500000000000001,-6.300000000000001,16
486,8233.0,-0.30000000000000004,0.0,0.2,-2.1,1.2000000000000002,9.9,0.9000000000000001,4.2,-6.1000000000000005,16
487,8251.0,-0.2,0.1,0.1,-2.1,1.2000000000000002,9.8,1.3,4.1,-5.500000000000001,16
488,8269.0,-0.2,0.2,0.0,-2.1,1.3,9.700000000000001,1.0,2.3,-5.2,16
489,8283.0,-0.2,0.2,0.0,-2.1,1.4000000000000001,9.600000000000001,-0.2,1.2000000000000002,-3.8,16
490,8300.0,-0.1,0.2,0.0,-2.0,1.4000000000000001,9.700000000000001,-1.3,1.4,-2.9,16
491,8317.0,-0.1,0.2,0.0,-2.1,1.4000000000000001,9.600000000000001,-3.0,2.4000000000000004,-1.9,16
492,8333.0,-0.2,0.2,0.0,-2.1,1.4000000000000001,9.700000000000001,-2.8,2.4000000000000004,1.5,16
493,8350.0,-0.1,0.2,0.0,-2.0,1.4000000000000001,9.700000000000001,-1.9,1.9,2.7,16
494,8366.0,0.0,0.2,0.0,-2.0,1.4000000000000001,9.700000000000001,-1.8000000000000003,1.7,3.3000000000000007,16
495,8383.0,-0.1,0.1,0.1,-2.0,1.3,9.700000000000001,-2.7,2.0,3.6000000000000005,16
496,8400.0,-0.1,0.1,0.2,-2.0,1.3,9.8,-2.3,1.4,3.7000000000000006,16
497,8416.0,0.0,0.0,0.1,-2.0,1.2000000000000002,9.8,-1.6,1.3,3.4,16
498,8433.0,0.0,-0.1,0.0,-2.0,1.1,9.700000000000001,-1.7,1.3,3.3000000000000007,16
499,8450.0,0.0,-0.1,0.0,-2.0,1.1,9.700000000000001,-1.7,1.0,3.5,16
500,8467.0,0.1,-0.1,0.1,-1.9000000000000001,1.1,9.8,-0.6000000000000001,0.9000000000000001,3.0,16
501,8483.0,0.1,-0.1,0.1,-1.9000000000000001,1.0,9.8,0.0,1.4,2.0,16
502,8500.0,0.1,-0.2,0.0,-1.9000000000000001,1.0,9.700000000000001,-0.2,1.8000000000000003,1.5,16
503,8516.0,0.1,-0.1,0.0,-1.9000000000000001,1.0,9.700000000000001,-0.2,0.9000000000000001,1.1,16
504,8533.0,0.1,0.0,0.1,-1.9000000000000001,1.1,9.8,0.4,0.30000000000000004,0.2,16
505,8556.0,0.1,0.0,0.1,-1.9000000000000001,1.1,9.8,1.1,0.9000000000000001,-1.1,16
506,8567.0,0.0,-0.1,0.0,-1.9000000000000001,1.1,9.700000000000001,1.7,1.5,-1.6,16
507,8583.0,0.0,-0.1,0.0,-2.0,1.1,9.700000000000001,1.7,1.8000000000000003,-1.3,16
508,8600.0,-0.1,0.0,0.0,-2.0,1.1,9.700000000000001,2.3,2.0,-1.2000000000000002,16
509,8616.0,-0.1,0.0,0.0,-2.1,1.1,9.700000000000001,2.6,1.4,-1.3,16
510,8633.0,-0.2,0.0,-0.1,-2.2,1.2000000000000002,9.600000000000001,1.7,1.4,-0.9000000000000001,16
511,8651.0,-0.1,0.1,0.0,-2.1,1.2000000000000002,9.700000000000001,1.3,0.1,0.1,16
512,8666.0,-0.1,0.1,0.0,-2.1,1.2000000000000002,9.700000000000001,1.3,0.5,-0.1,16
513,8683.0,-0.2,0.0,0.0,-2.2,1.2000000000000002,9.700000000000001,1.3,1.4,-0.5,16
514,8700.0,-0.2,0.0,0.0,-2.2,1.2000000000000002,9.700000000000001,1.4,0.8,1.2000000000000002,16
515,8716.0,-0.1,0.0,0.0,-2.1,1.2000000000000002,9.600000000000001,2.0,0.1,1.8000000000000003,16
516,8733.0,-0.1,0.0,-0.1,-2.1,1.2000000000000002,9.5,1.9,-0.5,2.2,16
517,8750.0,0.0,0.0,-0.1,-2.0,1.2000000000000002,9.5,0.5,-0.6000000000000001,2.3,16
518,8768.0,0.1,0.0,-0.1,-2.0,1.2000000000000002,9.600000000000001,-0.2,-0.4,2.2,16
519,8783.0,0.1,-0.1,0.0,-2.0,1.1,9.700000000000001,-0.8,0.2,1.8000000000000003,16
520,8800.0,0.1,-0.1,-0.1,-2.0,1.1,9.600000000000001,-1.1,0.9000000000000001,1.4,16
521,8816.0,0.1,-0.1,0.0,-2.0,1.1,9.700000000000001,-0.9000000000000001,0.7,1.5,16
522,8833.0,0.1,-0.1,0.1,-2.0,1.1,9.8,0.0,0.8,1.5,16
523,8850.0,0.1,-0.1,0.0,-1.9000000000000001,1.1,9.8,0.7,0.8,1.0,16
524,8868.0,0.1,0.0,0.0,-1.9000000000000001,1.1,9.600000000000001,1.2000000000000002,1.4,-0.6000000000000001,16
525,8883.0,0.0,0.0,0.1,-2.0,1.2000000000000002,9.700000000000001,0.7,1.4,-1.3,16
526,8900.0,0.0,0.0,0.1,-2.0,1.2000000000000002,9.8,2.0,1.4,-1.8000000000000003,16
527,8916.0,0.0,0.0,0.0,-2.0,1.2000000000000002,9.700000000000001,3.0,1.4,-2.1,16
528,8933.0,0.0,0.1,0.0,-2.0,1.3,9.600000000000001,2.2,1.5,-1.8000000000000003,16
529,8950.0,-0.1,0.0,0.0,-2.2,1.3,9.700000000000001,1.3,2.3,-1.5,16
530,8966.0,-0.1,0.1,0.0,-2.2,1.3,9.700000000000001,1.8000000000000003,1.4,-1.0,16
531,8983.0,-0.1,0.1,0.0,-2.2,1.3,9.700000000000001,2.2,0.0,0.0,16
532,9000.0,-0.1,0.1,0.0,-2.2,1.3,9.700000000000001,1.1,-0.1,0.2,16
533,9017.0,-0.1,0.1,0.0,-2.2,1.3,9.700000000000001,0.8,-0.30000000000000004,0.30000000000000004,16
534,9033.0,-0.1,0.0,0.0,-2.2,1.3,9.700000000000001,0.6000000000000001,-0.6000000000000001,0.9000000000000001,16
535,9050.0,-0.1,0.1,0.0,-2.2,1.3,9.700000000000001,1.7,-1.4,2.2,16
536,9066.0,-0.1,0.1,-0.1,-2.2,1.3,9.600000000000001,1.9,-1.9,2.8,16
537,9083.0,0.0,0.1,-0.1,-2.0,1.3,9.600000000000001,0.5,-2.2,3.1,16
538,9100.0,0.0,0.1,-0.1,-2.0,1.4000000000000001,9.600000000000001,0.2,-1.6,3.1,16
539,9116.0,0.0,0.1,-0.1,-2.0,1.4000000000000001,9.5,0.2,-2.2,3.0,16
540,9133.0,0.1,0.0,-0.1,-2.0,1.3,9.600000000000001,-1.1,-1.4,2.8,16
541,9150.0,0.1,-0.1,-0.1,-2.0,1.2000000000000002,9.5,-1.6,-0.30000000000000004,2.7,16
542,9167.0,0.0,0.0,0.0,-2.0,1.3,9.700000000000001,-0.30000000000000004,-1.2000000000000002,3.6000000000000005,16
543,9184.0,0.1,0.0,0.0,-1.9000000000000001,1.3,9.600000000000001,1.2000000000000002,-1.3,3.3000000000000007,16
544,9200.0,0.1,0.0,-0.1,-1.9000000000000001,1.3,9.600000000000001,-0.30000000000000004,0.1,2.2,16
545,9216.0,0.1,-0.1,0.0,-1.9000000000000001,1.2000000000000002,9.600000000000001,-1.1,0.4,1.9,16
546,9234.0,0.0,0.0,0.1,-2.0,1.3,9.700000000000001,-0.5,0.0,1.7,16
547,9250.0,0.1,0.0,0.1,-1.9000000000000001,1.3,9.8,0.1,-1.2000000000000002,1.6,16
548,9267.0,0.1,0.0,0.1,-1.9000000000000001,1.3,9.700000000000001,0.0,-0.8,1.0,16
549,9283.0,0.0,0.0,0.0,-1.9000000000000001,1.3,9.700000000000001,0.6000000000000001,-2.0,0.30000000000000004,16
550,9300.0,0.1,0.0,0.2,-1.9000000000000001,1.3,9.8,0.30000000000000004,-2.4000000000000004,0.30000000000000004,16
551,9317.0,0.1,0.0,0.1,-1.9000000000000001,1.3,9.8,0.30000000000000004,-1.7,0.1,16
552,9333.0,0.1,0.1,0.1,-1.9000000000000001,1.4000000000000001,9.8,1.9,-3.0,0.8,16
553,9350.0,0.1,0.1,0.1,-1.8,1.5,9.8,3.0,-2.8,0.8,16
554,9367.0,0.1,0.1,0.0,-1.8,1.4000000000000001,9.700000000000001,2.2,-3.3000000000000007,0.30000000000000004,16
555,9383.0,0.0,0.1,0.0,-1.9000000000000001,1.4000000000000001,9.700000000000001,2.0,-3.8,0.8,16
556,9400.0,0.1,0.1,-0.1,-1.8,1.5,9.600000000000001,2.0,-5.0,1.4,16
557,9417.0,0.2,0.1,-0.1,-1.7000000000000002,1.5,9.600000000000001,1.4,-5.300000000000001,1.4,16
558,9433.0,0.2,0.1,-0.1,-1.7000000000000002,1.5,9.600000000000001,-0.8,-4.9,1.2000000000000002,16
559,9455.0,0.1,0.0,0.0,-1.7000000000000002,1.4000000000000001,9.700000000000001,-0.8,-4.7,0.9000000000000001,16
560,9468.0,0.0,0.0,0.0,-1.8,1.3,9.700000000000001,0.8,-6.9,0.5,16
561,9483.0,0.1,-0.1,0.0,-1.7000000000000002,1.3,9.700000000000001,1.1,-6.9,0.6000000000000001,16
562,9500.0,0.2,0.0,0.0,-1.6,1.3,9.700000000000001,1.7,-6.4,-0.5,16
563,9517.0,0.2,0.0,0.1,-1.5,1.3,9.8,3.0,-5.8,-2.6,16
564,9533.0,0.2,-0.1,0.0,-1.6,1.3,9.8,3.0,-4.2,-4.1,16
565,9550.0,0.0,-0.1,-0.1,-1.7000000000000002,1.3,9.700000000000001,3.1,-3.0,-4.300000000000001,16
566,9566.0,0.1,-0.1,-0.1,-1.6,1.3,9.600000000000001,4.9,-3.9,-3.8,16
567,9583.0,0.0,-0.1,-0.1,-1.6,1.3,9.600000000000001,5.2,-3.9,-3.5,16
568,9600.0,0.1,-0.1,-0.2,-1.6,1.3,9.5,3.1,-2.0,-3.6000000000000005,16
569,9616.0,-0.1,-0.2,-0.2,-1.7000000000000002,1.2000000000000002,9.4,-0.1,-0.8,-4.1,16
570,9633.0,-0.1,-0.2,-0.2,-1.8,1.1,9.4,-0.9000000000000001,-0.9000000000000001,-4.4,16
571,9650.0,-0.1,-0.30000000000000004,-0.30000000000000004,-1.8,1.1,9.4,-2.6,-1.7,-5.0,16
572,9667.0,-0.2,-0.30000000000000004,-0.2,-1.9000000000000001,1.1,9.4,-4.2,-1.3,-7.1000000000000005,16
573,9683.0,-0.30000000000000004,-0.30000000000000004,-0.2,-2.0,1.1,9.5,-4.2,-1.6,-7.699999999999999,16
574,9700.0,-0.1,-0.1,-0.1,-1.8,1.2000000000000002,9.5,-1.5,-1.9,-9.2,16
575,9716.0,-0.2,0.0,-0.2,-1.9000000000000001,1.3,9.5,0.8,0.30000000000000004,-11.2,16
576,9733.0,-0.2,0.0,-0.1,-1.9000000000000001,1.3,9.5,1.1,1.6,-10.9,16
577,9750.0,-0.1,0.2,-0.1,-1.8,1.5,9.600000000000001,1.2000000000000002,4.4,-10.8,16
578,9766.0,-0.2,0.2,0.1,-1.9000000000000001,1.5,9.700000000000001,0.9000000000000001,7.500000000000001,-10.299999999999999,16
579,9783.0,-0.2,0.30000000000000004,0.1,-2.0,1.6,9.700000000000001,0.8,8.4,-9.600000000000001,16
580,9800.0,-0.30000000000000004,0.30000000000000004,0.1,-2.1,1.6,9.700000000000001,1.0,7.300000000000001,-7.1000000000000005,16
581,9816.0,-0.30000000000000004,0.4,0.30000000000000004,-2.1,1.7000000000000002,9.9,-0.6000000000000001,5.7,-4.4,16
582,9833.0,-0.30000000000000004,0.4,0.30000000000000004,-2.1,1.7000000000000002,9.9,-1.7,5.300000000000001,-3.2,16
583,9850.0,-0.30000000000000004,0.4,0.30000000000000004,-2.2,1.6,9.9,-2.6,2.2,-1.3,16
584,9866.0,-0.30000000000000004,0.2,0.2,-2.2,1.5,9.9,-1.4,-2.0,1.7,16
585,9883.0,-0.2,0.2,0.2,-2.0,1.5,9.9,-1.1,-3.2,3.1,16
586,9901.0,0.0,0.1,0.2,-1.9000000000000001,1.4000000000000001,9.8,-0.8,-4.4,4.5,16
587,9916.0,0.1,0.1,0.1,-1.8,1.4000000000000001,9.8,-0.5,-3.8,5.4,16
588,9933.0,0.1,0.0,0.1,-1.7000000000000002,1.3,9.700000000000001,-0.6000000000000001,-2.5,5.500000000000001,16
589,9951.0,0.1,-0.1,-0.1,-1.8,1.2000000000000002,9.600000000000001,-0.30000000000000004,-0.8,5.0,16
590,9967.0,0.1,-0.2,-0.1,-1.8,1.1,9.5,-0.6000000000000001,0.1,4.300000000000001,16
591,9983.0,0.0,-0.2,-0.1,-1.8,1.1,9.5,-0.2,0.2,3.7000000000000006,16
592,10000.0,0.0,-0.1,0.0,-1.8,1.2000000000000002,9.600000000000001,1.4,-0.6000000000000001,2.8,16
593,10017.0,0.1,-0.1,0.0,-1.7000000000000002,1.2000000000000002,9.600000000000001,1.5,0.7,1.7,16
594,10033.0,0.1,0.0,0.0,-1.8,1.3,9.700000000000001,0.9000000000000001,1.9,0.8,16
595,10054.0,0.0,0.0,0.0,-1.8,1.3,9.700000000000001,0.5,3.1,0.1,16
596,10066.0,0.0,0.0,0.1,-1.8,1.3,9.700000000000001,1.2000000000000002,2.8,0.4,16
597,10083.0,0.0,0.0,0.1,-1.8,1.4000000000000001,9.700000000000001,1.2000000000000002,3.4,0.7,16
598,10100.0,0.0,0.1,0.0,-1.8,1.4000000000000001,9.700000000000001,1.1,3.6000000000000005,0.9000000000000001,16
599,10117.0,0.0,0.1,0.1,-1.8,1.4000000000000001,9.700000000000001,0.6000000000000001,3.1,1.2000000000000002,16
600,10133.0,0.0,0.0,0.1,-1.8,1.4000000000000001,9.700000000000001,0.7,2.7,1.7,16
601,10151.0,0.1,0.0,0.1,-1.8,1.4000000000000001,9.8,1.1,0.5,1.8000000000000003,16
602,10166.0,0.1,0.0,0.1,-1.8,1.4000000000000001,9.8,1.4,0.1,1.6,16
603,10183.0,0.1,0.0,0.1,-1.8,1.3,9.8,1.6,-0.30000000000000004,1.6,16
604,10200.0,0.1,0.0,0.1,-1.7000000000000002,1.3,9.8,0.9000000000000001,0.0,1.6,16
605,10216.0,0.1,-0.1,0.1,-1.8,1.3,9.700000000000001,0.5,0.6000000000000001,0.9000000000000001,16
606,10233.0,-0.1,-0.2,0.1,-1.9000000000000001,1.2000000000000002,9.700000000000001,0.9000000000000001,0.1,0.7,16
607,10251.0,0.0,-0.2,-0.1,-1.9000000000000001,1.2000000000000002,9.600000000000001,1.5,-0.6000000000000001,1.0,16
608,10266.0,0.0,-0.1,0.0,-1.8,1.2000000000000002,9.600000000000001,1.9,-1.7,0.0,16
609,10283.0,0.0,-0.1,-0.1,-1.8,1.3,9.600000000000001,1.1,-1.4,-0.5,16
610,10301.0,0.1,-0.1,-0.1,-1.8,1.3,9.600000000000001,0.9000000000000001,-1.6,-0.8,16
611,10316.0,0.0,-0.1,-0.1,-1.8,1.3,9.600000000000001,0.7,-0.8,-2.2,16
612,10334.0,0.0,-0.1,-0.2,-1.8,1.3,9.5,0.8,-0.2,-2.3,16
613,10351.0,0.0,0.0,-0.2,-1.8,1.3,9.5,0.9000000000000001,-0.4,-2.4000000000000004,16
614,10367.0,0.0,0.0,-0.1,-1.8,1.3,9.600000000000001,-0.1,0.2,-3.3000000000000007,16
615,10383.0,-0.1,0.0,-0.1,-1.9000000000000001,1.4000000000000001,9.600000000000001,-0.30000000000000004,1.1,-3.2,16
616,10400.0,0.0,0.0,-0.1,-1.9000000000000001,1.4000000000000001,9.600000000000001,-0.6000000000000001,1.0,-3.0,16
617,10416.0,-0.1,0.0,0.0,-1.9000000000000001,1.4000000000000001,9.700000000000001,-1.4,1.1,-2.9,16
618,10433.0,-0.1,0.1,0.1,-1.9000000000000001,1.4000000000000001,9.700000000000001,-1.7,1.3,-2.5,16
619,10450.0,-0.1,0.0,0.1,-2.0,1.4000000000000001,9.700000000000001,-1.5,1.3,-2.2,16
620,10466.0,-0.1,0.0,0.1,-2.0,1.4000000000000001,9.8,-0.5,0.6000000000000001,-1.2000000000000002,16
621,10483.0,-0.1,0.1,0.1,-2.0,1.4000000000000001,9.700000000000001,-0.30000000000000004,0.9000000000000001,-1.2000000000000002,16
622,10500.0,0.0,0.1,0.0,-1.9000000000000001,1.4000000000000001,9.700000000000001,-0.6000000000000001,1.4,-1.2000000000000002,16
623,10517.0,0.0,0.0,0.0,-1.9000000000000001,1.4000000000000001,9.600000000000001,-1.1,2.4000000000000004,-1.1,16
624,10533.0,0.0,0.0,-0.1,-1.9000000000000001,1.3,9.5,-0.8,3.6000000000000005,-0.7,16
625,10550.0,0.0,0.1,-0.2,-1.9000000000000001,1.4000000000000001,9.4,-1.6,5.300000000000001,-0.7,16
626,10567.0,0.1,0.1,-0.30000000000000004,-1.9000000000000001,1.4000000000000001,9.3,-4.0,9.4,0.1,16
627,10583.0,-0.1,0.0,-0.2,-2.1,1.3,9.4,-7.8,15.2,1.2000000000000002,16
628,10600.0,-0.2,-0.1,-0.1,-2.2,1.2000000000000002,9.5,-8.2,18.3,3.2,16
629,10617.0,-0.2,0.0,-0.30000000000000004,-2.3000000000000003,1.3,9.3,-8.4,23.3,9.100000000000001,16
630,10633.0,-0.30000000000000004,0.1,-0.2,-2.5,1.3,9.3,-13.6,25.8,13.000000000000002,16
631,10650.0,-0.5,0.1,0.0,-2.7,1.3,9.600000000000001,-16.700000000000003,21.1,13.399999999999999,16
632,10666.0,-0.30000000000000004,0.2,0.5,-2.5,1.4000000000000001,10.0,-11.3,5.7,10.700000000000001,16
633,10683.0,-0.1,-0.1,0.4,-2.4000000000000004,1.1,9.9,-3.3000000000000007,7.400000000000001,7.0,16
634,10700.0,-0.30000000000000004,-0.1,0.2,-2.6,1.1,9.8,-3.3000000000000007,10.299999999999999,6.2,16
635,10716.0,-0.4,-0.2,0.2,-2.7,0.9,9.700000000000001,-4.5,4.2,6.8,16
636,10733.0,-0.1,-0.2,0.4,-2.4000000000000004,1.0,10.0,-4.7,-4.1,5.9,16
637,10750.0,-0.1,-0.1,0.4,-2.4000000000000004,1.0,10.0,-3.9,-4.5,5.1000000000000005,16
638,10767.0,0.0,-0.1,0.4,-2.2,1.1,10.0,-2.3,-4.2,3.7000000000000006,16
639,10783.0,-0.1,-0.1,0.30000000000000004,-2.3000000000000003,1.1,9.9,-1.1,-4.1,2.8,16
640,10800.0,0.0,-0.1,0.2,-2.3000000000000003,1.1,9.8,-0.30000000000000004,-5.0,3.1,16
641,10816.0,0.0,0.0,0.2,-2.2,1.1,9.8,1.7,-5.9,3.5,16
642,10833.0,0.0,0.1,0.1,-2.2,1.2000000000000002,9.700000000000001,2.1,-3.9,3.9,16
643,10850.0,0.0,0.1,-0.1,-2.2,1.3,9.600000000000001,2.5,-3.6000000000000005,4.4,16
644,10866.0,0.0,0.1,-0.1,-2.2,1.3,9.4,2.7,-3.6000000000000005,4.6,16
645,10883.0,0.0,0.1,-0.1,-2.2,1.3,9.5,1.4,-2.6,4.7,16
646,10900.0,0.0,0.1,-0.1,-2.2,1.2000000000000002,9.600000000000001,1.0,-2.2,4.9,16
647,10919.0,-0.1,0.0,-0.1,-2.2,1.2000000000000002,9.5,2.2,-2.2,5.9,16
648,10933.0,0.0,0.1,0.0,-2.1,1.3,9.600000000000001,3.0,-3.3000000000000007,6.500000000000001,16
649,10950.0,0.0,0.1,0.0,-2.1,1.3,9.600000000000001,3.0,-2.5,6.300000000000001,16
650,10966.0,0.0,0.0,0.1,-2.1,1.3,9.700000000000001,2.3,-1.2000000000000002,5.9,16
651,10983.0,0.1,0.0,0.1,-2.0,1.3,9.700000000000001,0.8,-0.5,6.1000000000000005,16
652,11000.0,0.0,0.0,0.1,-2.1,1.3,9.700000000000001,0.0,-1.4,5.8,16
653,11017.0,0.0,0.0,0.2,-2.1,1.3,9.8,-0.2,-3.7000000000000006,5.7,16
654,11033.0,0.1,0.0,0.30000000000000004,-2.0,1.3,9.9,0.9000000000000001,-5.7,5.9,16
655,11050.0,0.2,0.1,0.30000000000000004,-1.9000000000000001,1.3,9.9,1.9,-7.8,5.300000000000001,16
656,11066.0,0.1,0.0,0.2,-1.9000000000000001,1.3,9.9,2.6,-8.100000000000001,4.800000000000001,16
657,11083.0,0.1,0.0,0.1,-1.9000000000000001,1.3,9.8,2.7,-10.5,4.5,16
658,11100.0,0.2,-0.1,0.1,-1.8,1.2000000000000002,9.8,2.0,-11.000000000000002,4.300000000000001,16
659,11117.0,0.2,-0.1,0.1,-1.7000000000000002,1.2000000000000002,9.8,1.3,-10.600000000000001,3.9,16
660,11133.0,0.2,-0.1,0.0,-1.7000000000000002,1.2000000000000002,9.700000000000001,1.7,-8.3,1.8000000000000003,16
661,11150.0,0.0,-0.2,-0.1,-1.9000000000000001,1.1,9.600000000000001,3.6000000000000005,-8.0,1.9,16
662,11166.0,0.0,-0.1,-0.1,-1.9000000000000001,1.2000000000000002,9.600000000000001,4.0,-9.2,2.2,16
663,11183.0,0.30000000000000004,-0.30000000000000004,-0.1,-1.5,1.1,9.600000000000001,5.500000000000001,-9.700000000000001,0.8,16
664,11200.0,-0.1,-0.30000000000000004,-0.30000000000000004,-1.8,1.1,9.4,6.4,-5.500000000000001,-1.3,16
665,11216.0,0.0,-0.2,-0.30000000000000004,-1.7000000000000002,1.2000000000000002,9.4,6.1000000000000005,-4.7,-0.8,16
666,11233.0,0.0,-0.1,-0.30000000000000004,-1.8,1.3,9.4,6.0,-4.1,-2.6,16
667,11251.0,-0.2,0.0,-0.2,-2.0,1.4000000000000001,9.5,6.300000000000001,-2.3,-3.2,16
668,11267.0,-0.2,0.0,-0.2,-1.9000000000000001,1.4000000000000001,9.5,7.500000000000001,-3.8,-3.3000000000000007,16
669,11283.0,-0.1,0.1,0.0,-1.8,1.5,9.700000000000001,9.100000000000001,-7.1000000000000005,-4.0,16
670,11300.0,-0.2,0.0,0.1,-1.9000000000000001,1.4000000000000001,9.8,8.8,-1.9,-3.9,16
671,11316.0,-0.2,0.0,0.30000000000000004,-1.9000000000000001,1.4000000000000001,10.0,9.4,-0.9000000000000001,-3.0,16
672,11333.0,-0.30000000000000004,0.0,0.4,-2.0,1.5,10.100000000000001,14.400000000000002,-4.2,-0.5,16
673,11350.0,0.0,0.2,0.1,-1.7000000000000002,1.8,9.8,18.1,-5.2,2.9,16
674,11366.0,0.1,0.2,-0.1,-1.6,1.8,9.600000000000001,17.300000000000004,-5.1000000000000005,3.3000000000000007,16
675,11383.0,0.2,0.2,-0.2,-1.5,1.8,9.5,11.6,-4.6,2.3,16
676,11400.0,0.2,0.1,0.0,-1.4000000000000001,1.8,9.600000000000001,6.4,-4.5,1.1,16
677,11416.0,0.2,0.1,0.0,-1.5,1.8,9.700000000000001,5.300000000000001,-3.6000000000000005,1.3,16
678,11433.0,0.1,0.2,-0.2,-1.5,1.9000000000000001,9.5,4.2,-0.5,2.6,16
679,11450.0,0.0,0.0,-0.4,-1.6,1.7000000000000002,9.200000000000001,3.2,-1.5,1.8000000000000003,16
680,11466.0,-0.1,0.1,-0.4,-1.7000000000000002,1.8,9.3,1.7,-1.8000000000000003,1.8000000000000003,16
681,11483.0,0.0,0.2,-0.2,-1.6,1.9000000000000001,9.4,-2.2,2.0,2.0,16
682,11500.0,-0.1,0.0,0.0,-1.7000000000000002,1.7000000000000002,9.600000000000001,-5.2,3.2,0.7,16
683,11519.0,0.0,-0.30000000000000004,0.1,-1.7000000000000002,1.4000000000000001,9.8,-5.4,3.5,-0.30000000000000004,16
684,11534.0,-0.1,-0.4,0.0,-1.7000000000000002,1.2000000000000002,9.600000000000001,-4.5,2.3,-0.8,16
685,11554.0,-0.2,-0.1,0.0,-1.8,1.6,9.700000000000001,-3.5,-5.8,3.4,16
686,11566.0,-0.4,0.30000000000000004,0.0,-2.0,1.9000000000000001,9.700000000000001,-1.3,0.5,6.500000000000001,16
687,11583.0,-0.1,0.4,-0.30000000000000004,-1.8,2.1,9.4,0.5,5.6,6.4,16
688,11600.0,0.1,-0.30000000000000004,-0.30000000000000004,-1.5,1.4000000000000001,9.4,-2.7,-4.0,1.1,16
689,11616.0,0.2,-0.5,-0.2,-1.5,1.2000000000000002,9.600000000000001,-6.699999999999999,2.8,0.6000000000000001,16
690,11633.0,0.0,-0.30000000000000004,0.1,-1.6,1.3,9.8,-6.8,4.9,0.7,16
691,11650.0,-0.2,-0.1,-0.1,-1.8,1.5,9.600000000000001,-0.9000000000000001,1.0,0.9000000000000001,16
692,11666.0,0.0,0.0,0.0,-1.8,1.5,9.700000000000001,1.9,-3.2,0.6000000000000001,16
693,11683.0,0.1,0.0,0.0,-1.6,1.6,9.600000000000001,0.7,-1.2000000000000002,0.0,16
694,11700.0,0.0,0.0,0.1,-1.6,1.6,9.700000000000001,-3.0,2.5,-1.9,16
695,11716.0,-0.2,0.0,0.2,-1.8,1.6,9.8,-2.7,0.0,-1.6,16
696,11733.0,-0.2,0.0,0.2,-1.8,1.6,9.9,-1.4,-1.8000000000000003,-0.8,16
697,11750.0,-0.1,0.1,0.0,-1.7000000000000002,1.7000000000000002,9.700000000000001,1.0,-2.5,0.9000000000000001,16
698,11766.0,0.0,0.0,-0.2,-1.6,1.6,9.5,0.8,-2.7,0.9000000000000001,16
699,11783.0,0.0,0.0,-0.2,-1.6,1.6,9.5,0.2,-1.6,0.8,16
700,11800.0,0.0,-0.1,-0.2,-1.6,1.6,9.5,-0.4,-0.8,-0.30000000000000004,16
701,11816.0,0.0,0.0,-0.1,-1.6,1.6,9.5,-1.0,-0.2,0.0,16
702,11833.0,0.0,0.0,-0.1,-1.6,1.6,9.5,-1.3,0.7,0.0,16
703,11850.0,-0.1,0.0,-0.1,-1.7000000000000002,1.6,9.5,-2.3,3.8,0.30000000000000004,16
704,11868.0,0.0,0.0,0.0,-1.6,1.6,9.600000000000001,-2.8,3.3000000000000007,1.1,16
705,11884.0,0.1,0.0,0.0,-1.6,1.6,9.600000000000001,-2.8,3.2,1.0,16
706,11900.0,-0.1,0.1,0.1,-1.7000000000000002,1.7000000000000002,9.700000000000001,-1.6,3.7000000000000006,1.1,16
707,11916.0,0.1,0.1,0.1,-1.6,1.7000000000000002,9.700000000000001,-0.9000000000000001,2.5,1.6,16
708,11933.0,0.1,0.1,0.1,-1.6,1.7000000000000002,9.700000000000001,-1.3,3.1,1.0,16
709,11950.0,0.0,0.1,0.2,-1.7000000000000002,1.6,9.8,-1.9,4.5,0.9000000000000001,16
710,11966.0,0.0,0.0,0.30000000000000004,-1.7000000000000002,1.6,9.9,-0.8,3.2,1.4,16
711,11983.0,0.0,-0.1,0.1,-1.7000000000000002,1.5,9.8,-0.2,2.5,1.2000000000000002,16
712,12000.0,0.0,0.0,-0.1,-1.7000000000000002,1.6,9.600000000000001,-0.2,1.2000000000000002,1.1,16
713,12016.0,0.1,0.0,0.0,-1.6,1.6,9.600000000000001,-0.7,-0.8,0.7,16
714,12033.0,0.1,0.0,0.0,-1.6,1.6,9.700000000000001,-0.6000000000000001,-0.6000000000000001,0.0,16
715,12050.0,0.1,-0.1,0.0,-1.6,1.5,9.700000000000001,-0.6000000000000001,0.4,-1.0,16
716,12066.0,0.0,-0.1,0.0,-1.7000000000000002,1.5,9.700000000000001,0.5,0.9000000000000001,-0.7,16
717,12083.0,-0.1,-0.1,0.0,-1.8,1.5,9.700000000000001,1.3,0.9000000000000001,-0.30000000000000004,16
718,12100.0,0.0,0.0,0.0,-1.7000000000000002,1.6,9.700000000000001,2.5,2.2,-0.30000000000000004,16
719,12117.0,-0.1,0.0,-0.2,-1.8,1.6,9.5,2.1,4.0,-0.7,16
720,12133.0,-0.1,0.0,-0.2,-1.9000000000000001,1.5,9.5,1.4,3.6000000000000005,-0.8,16
721,12151.0,-0.1,0.1,-0.1,-1.9000000000000001,1.6,9.600000000000001,0.5,3.1,-0.8,16
722,12166.0,-0.1,0.1,0.0,-1.9000000000000001,1.7000000000000002,9.700000000000001,1.4,2.1,-1.1,16
723,12183.0,-0.1,0.0,0.0,-1.9000000000000001,1.6,9.600000000000001,1.7,1.3,-1.0,16
724,12200.0,0.1,0.1,-0.1,-1.7000000000000002,1.7000000000000002,9.600000000000001,1.0,0.8,-0.9000000000000001,16
725,12216.0,-0.1,0.1,0.4,-1.8,1.7000000000000002,10.0,-0.8,2.0,0.4,16
726,12233.0,0.0,0.2,0.5,-1.8,1.8,10.100000000000001,-0.6000000000000001,2.7,1.3,16
727,12250.0,-0.1,0.1,0.5,-1.9000000000000001,1.7000000000000002,10.100000000000001,0.30000000000000004,2.9,1.9,16
728,12267.0,-0.5,0.0,0.2,-2.3000000000000003,1.6,9.9,-3.9,3.4,3.5,16
729,12286.0,-0.5,-0.2,0.0,-2.3000000000000003,1.4000000000000001,9.700000000000001,-7.0,-4.4,5.4,16
730,12300.0,-0.5,-0.1,-0.5,-2.3000000000000003,1.5,9.1,-5.8,-12.600000000000001,5.6,16
731,12316.0,0.0,0.4,-1.7000000000000002,-1.7000000000000002,2.0,7.9,-6.500000000000001,-32.9,5.9,16
732,12335.0,0.9,0.7000000000000001,-2.2,-0.6000000000000001,2.2,7.5,-23.900000000000006,-42.1,1.8000000000000003,16
733,12350.0,1.2000000000000002,0.8,-2.1,-0.2,2.2,7.6000000000000005,-34.900000000000006,-40.2,-1.4,16
734,12367.0,1.5,1.1,-1.8,0.2,2.4000000000000004,7.9,-56.400000000000006,-32.0,-8.8,16
735,12383.0,1.7000000000000002,1.2000000000000002,-1.1,0.4,2.4000000000000004,8.6,-66.4,-24.900000000000002,-13.100000000000001,16
736,12400.0,1.2000000000000002,1.4000000000000001,0.6000000000000001,-0.1,2.3000000000000003,10.4,-74.5,6.0,-20.1,16
737,12417.0,0.6000000000000001,0.9,2.6,-0.7000000000000001,1.6,12.3,-65.8,33.7,-16.900000000000002,16
738,12438.0,0.0,0.6000000000000001,3.9000000000000004,-1.5,1.2000000000000002,13.700000000000001,-39.699999999999996,58.2,-8.4,16
739,12450.0,-0.30000000000000004,0.5,4.2,-2.0,1.0,14.0,-21.400000000000002,65.6,-1.4,16
740,12466.0,-0.1,0.5,3.8000000000000003,-2.0,1.0,13.600000000000001,19.1,66.5,10.5,16
741,12484.0,-0.1,0.8,2.7,-2.2,1.5,12.5,57.9,49.800000000000004,9.600000000000001,16
742,12500.0,-0.30000000000000004,0.7000000000000001,1.8,-2.4000000000000004,1.5,11.5,71.10000000000001,38.800000000000004,7.200000000000001,16
743,12516.0,-0.4,0.7000000000000001,0.5,-2.6,1.9000000000000001,10.200000000000001,82.39999999999999,15.2,2.4000000000000004,16
744,12533.0,-0.5,0.5,0.8,-2.7,1.9000000000000001,10.5,71.5,-5.8,-2.0,16
745,12550.0,-0.6000000000000001,0.30000000000000004,1.1,-2.8000000000000003,1.8,10.8,60.1,-13.200000000000003,-3.2,16
746,12566.0,-0.9,-0.30000000000000004,1.2000000000000002,-3.0,1.4000000000000001,10.9,49.300000000000004,-27.5,-1.1,16
747,12583.0,-0.7000000000000001,-0.7000000000000001,0.6000000000000001,-2.7,1.1,10.3,49.800000000000004,-46.4,4.5,16
748,12600.0,-0.5,-0.8,0.0,-2.5,1.1,9.700000000000001,47.7,-48.6,7.200000000000001,16
749,12616.0,-0.5,-1.1,-0.9,-2.2,1.0,8.8,41.4,-48.0,11.1,16
750,12633.0,-0.4,-1.4000000000000001,-1.5,-2.0,0.8,8.1,36.8,-49.300000000000004,14.200000000000001,16
751,12650.0,-0.30000000000000004,-1.5,-1.8,-1.8,0.7000000000000001,7.9,34.300000000000004,-48.0,15.2,16
752,12666.0,-0.2,-1.7000000000000002,-2.3000000000000003,-1.5,0.6000000000000001,7.300000000000001,24.7,-43.1,16.1,16
753,12683.0,0.0,-1.9000000000000001,-2.9000000000000004,-1.2000000000000002,0.5,6.800000000000001,10.5,-35.599999999999994,14.100000000000001,16
754,12700.0,0.1,-2.0,-3.2,-1.0,0.4,6.5,2.5,-32.6,12.200000000000001,16
755,12716.0,0.4,-2.2,-3.7,-0.6000000000000001,0.1,5.9,-13.000000000000002,-27.099999999999998,6.699999999999999,16
756,12733.0,0.7000000000000001,-2.2,-3.9000000000000004,-0.30000000000000004,0.0,5.7,-24.7,-18.5,-3.8,16
757,12750.0,0.6000000000000001,-2.1,-3.9000000000000004,-0.30000000000000004,0.0,5.7,-28.200000000000003,-10.200000000000001,-11.3,16
758,12768.0,0.2,-2.1,-4.1000000000000005,-0.8,0.0,5.5,-31.099999999999998,8.5,-26.799999999999997,16
759,12784.0,-0.30000000000000004,-2.1,-4.1000000000000005,-1.4000000000000001,-0.2,5.5,-26.6,20.3,-38.0,16
760,12800.0,-0.5,-2.2,-4.0,-1.6,-0.4,5.5,-23.6,23.6,-40.7,16
761,12816.0,-0.5,-2.1,-4.2,-1.7000000000000002,-0.30000000000000004,5.300000000000001,-21.8,26.5,-41.900000000000006,16
762,12833.0,0.0,-1.7000000000000002,-3.3000000000000003,-1.4000000000000001,-0.1,6.2,-32.7,38.1,-43.6,16
763,12850.0,0.1,-1.5,-2.8000000000000003,-1.3,0.0,6.7,-41.300000000000004,50.1,-44.5,16
764,12866.0,0.2,-0.7000000000000001,-1.3,-1.4000000000000001,0.6000000000000001,8.200000000000001,-60.7,67.5,-46.50000000000001,16
765,12883.0,0.0,-0.1,1.1,-2.0,0.9,10.5,-83.5,74.89999999999999,-48.0,16
766,12900.0,-0.2,0.2,2.6,-2.3000000000000003,1.0,12.0,-95.1,77.5,-47.80000000000001,16
767,12917.0,-0.8,0.5,5.300000000000001,-3.1,0.9,14.8,-103.89999999999999,82.0,-47.3,16
768,12933.0,-1.0,0.8,6.1000000000000005,-3.7,1.0,15.5,-79.7,72.10000000000001,-46.7,16
769,12950.0,-1.3,1.0,5.9,-4.0,1.0,15.3,-61.300000000000004,63.30000000000001,-45.8,16
770,12967.0,-1.3,1.6,4.5,-4.2,1.5,13.9,-29.0,38.50000000000001,-43.1,16
771,12983.0,-0.7000000000000001,2.0,3.4000000000000004,-3.6,1.8,12.8,-13.200000000000003,5.2,-43.1,16
772,13000.0,-0.4,2.1,3.2,-3.3000000000000003,1.8,12.700000000000001,-10.600000000000001,-8.3,-43.6,16
773,13017.0,0.2,2.2,2.6,-2.7,1.9000000000000001,12.100000000000001,-5.300000000000001,-32.8,-42.1,16
774,13033.0,0.9,2.1,1.7000000000000002,-1.8,1.8,11.200000000000001,-1.6,-42.400000000000006,-39.2,16
775,13051.0,0.8,1.7000000000000002,0.9,-1.7000000000000002,1.4000000000000001,10.600000000000001,-3.1,-46.800000000000004,-39.9,16
776,13067.0,0.5,1.3,0.7000000000000001,-2.0,1.0,10.3,-3.1,-48.6,-39.400000000000006,16
777,13083.0,0.2,0.9,0.6000000000000001,-2.1,0.5,10.3,0.30000000000000004,-50.900000000000006,-33.2,16
778,13100.0,0.1,0.8,0.7000000000000001,-2.1,0.4,10.4,4.5,-48.400000000000006,-30.000000000000004,16
779,13117.0,-0.5,0.4,0.6000000000000001,-2.5,0.1,10.4,15.399999999999999,-40.4,-24.1,16
780,13133.0,-0.6000000000000001,0.30000000000000004,0.2,-2.5,0.1,10.0,29.400000000000002,-36.5,-18.5,16
781,13150.0,-0.8,0.2,-0.1,-2.6,0.0,9.700000000000001,35.599999999999994,-34.60000000000001,-16.700000000000003,16
782,13166.0,-1.2000000000000002,-0.1,-0.4,-2.9000000000000004,-0.2,9.4,39.699999999999996,-30.3,-12.5,16
783,13183.0,-1.3,-0.1,-0.6000000000000001,-3.0,-0.1,9.3,37.6,-29.0,-8.4,16
784,13200.0,-1.0,-0.1,-0.6000000000000001,-2.6,0.0,9.200000000000001,34.900000000000006,-32.0,-5.8,16
785,13216.0,-0.8,0.1,-0.7000000000000001,-2.3000000000000003,0.30000000000000004,9.200000000000001,25.7,-39.2,-5.0,16
786,13233.0,-0.6000000000000001,0.2,-0.2,-2.0,0.4,9.600000000000001,12.8,-41.300000000000004,-8.8,16
787,13250.0,-0.7000000000000001,0.2,0.4,-1.9000000000000001,0.5,10.3,6.699999999999999,-43.2,-15.2,16
788,13266.0,-0.8,0.2,0.7000000000000001,-2.0,0.5,10.600000000000001,10.4,-47.5,-17.6,16
789,13283.0,-0.8,0.30000000000000004,0.7000000000000001,-1.7000000000000002,0.7000000000000001,10.600000000000001,26.700000000000003,-56.400000000000006,-20.5,16
790,13300.0,-0.4,0.4,0.30000000000000004,-1.2000000000000002,0.8,10.3,35.9,-54.699999999999996,-19.9,16
791,13317.0,-0.30000000000000004,0.30000000000000004,0.1,-1.0,0.9,10.0,36.1,-51.70000000000001,-19.300000000000004,16
792,13333.0,-0.30000000000000004,0.4,-0.1,-0.8,1.1,9.8,34.50000000000001,-45.400000000000006,-16.3,16
793,13350.0,-0.30000000000000004,0.4,-0.30000000000000004,-0.8,1.1,9.700000000000001,34.60000000000001,-44.5,-14.800000000000002,16
794,13367.0,-0.1,0.2,-0.7000000000000001,-0.4,1.1,9.200000000000001,34.300000000000004,-43.70000000000001,-11.5,16
795,13383.0,0.30000000000000004,0.30000000000000004,-1.2000000000000002,0.1,1.2000000000000002,8.700000000000001,32.6,-41.800000000000004,-11.000000000000002,16
796,13400.0,0.5,0.30000000000000004,-1.6,0.5,1.3,8.3,26.799999999999997,-39.8,-12.600000000000001,16
797,13416.0,0.7000000000000001,0.1,-1.6,0.7000000000000001,1.2000000000000002,8.3,23.5,-38.1,-13.3,16
798,13433.0,0.7000000000000001,0.1,-1.6,0.8,1.2000000000000002,8.200000000000001,18.0,-35.2,-13.3,16
799,13450.0,1.2000000000000002,0.0,-1.1,1.4000000000000001,1.2000000000000002,8.700000000000001,9.600000000000001,-30.3,-7.9,16
800,13466.0,1.6,0.1,-0.7000000000000001,1.9000000000000001,1.3,9.1,4.9,-25.0,-6.0,16
801,13483.0,1.9000000000000001,0.30000000000000004,-0.2,2.3000000000000003,1.4000000000000001,9.600000000000001,-5.0,-8.100000000000001,-5.6,16
802,13500.0,1.8,0.30000000000000004,0.4,2.2,1.5,10.200000000000001,-14.900000000000002,10.700000000000001,-5.2,16
803,13518.0,1.7000000000000002,0.2,0.6000000000000001,2.1,1.4000000000000001,10.4,-17.5,19.6,-5.0,16
804,13534.0,1.5,0.2,0.6000000000000001,1.7000000000000002,1.2000000000000002,10.5,-14.600000000000001,29.200000000000003,-5.4,16
805,13550.0,1.1,0.30000000000000004,0.4,1.2000000000000002,1.3,10.3,-7.200000000000001,32.300000000000004,-5.4,16
806,13567.0,1.1,0.2,0.1,1.2000000000000002,1.3,10.0,-4.9,32.0,-4.4,16
807,13583.0,1.3,0.4,-0.1,1.3,1.4000000000000001,9.8,-2.5,28.800000000000004,-7.6,16
808,13600.0,2.0,-0.30000000000000004,-0.4,1.9000000000000001,0.7000000000000001,9.4,4.800000000000001,31.2,-18.0,16
809,13616.0,1.0,0.1,-0.8,0.9,1.1,9.1,10.1,31.5,-22.9,16
810,13633.0,0.9,0.7000000000000001,-1.6,0.6000000000000001,1.7000000000000002,8.3,11.000000000000002,15.700000000000001,-17.0,16
811,13650.0,2.1,0.5,-2.0,1.9000000000000001,1.6,7.9,3.5,7.699999999999999,-24.200000000000003,16
812,13667.0,1.9000000000000001,0.5,-2.0,1.6,1.6,7.9,-3.3000000000000007,6.2,-32.6,16
813,13683.0,1.7000000000000002,0.7000000000000001,-1.5,1.4000000000000001,1.8,8.3,-17.9,1.9,-36.400000000000006,16
814,13700.0,2.0,0.9,-0.2,1.7000000000000002,1.8,9.600000000000001,-27.2,2.5,-41.900000000000006,16
815,13717.0,1.7000000000000002,0.9,0.5,1.4000000000000001,1.8,10.3,-28.3,7.1000000000000005,-44.8,16
816,13733.0,1.3,1.1,1.2000000000000002,1.0,1.9000000000000001,11.0,-23.0,18.8,-43.900000000000006,16
817,13750.0,0.8,1.1,2.3000000000000003,0.4,1.9000000000000001,12.100000000000001,-18.3,33.50000000000001,-40.2,16
818,13766.0,0.2,1.0,2.8000000000000003,-0.30000000000000004,1.8,12.700000000000001,-17.1,44.5,-36.7,16
819,13783.0,-1.4000000000000001,0.9,3.5,-2.1,1.6,13.4,-8.700000000000001,58.2,-27.2,16
820,13800.0,-1.2000000000000002,1.3,3.1,-2.1,2.1,13.0,14.400000000000002,56.7,-16.6,16
821,13816.0,-0.9,1.6,2.7,-1.9000000000000001,2.4000000000000004,12.600000000000001,29.300000000000004,42.60000000000001,-17.300000000000004,16
822,13833.0,-1.4000000000000001,1.6,2.0,-2.6,2.5,11.9,44.4,34.2,-28.3,16
823,13850.0,-2.1,2.1,2.2,-3.5,3.2,12.0,35.1,47.2,-20.0,16
824,13866.0,-1.8,1.2000000000000002,2.7,-3.3000000000000003,2.4000000000000004,12.600000000000001,29.1,48.800000000000004,-15.000000000000002,16
825,13883.0,-2.1,1.0,2.7,-3.7,2.3000000000000003,12.600000000000001,29.1,41.4,-8.600000000000001,16
826,13900.0,-2.4000000000000004,1.3,1.6,-4.2,2.6,11.4,36.2,34.60000000000001,4.2,16
827,13917.0,-2.2,1.3,0.8,-3.9000000000000004,2.7,9.9,36.1,30.1,14.900000000000002,16
828,13933.0,-2.0,1.0,-0.6000000000000001,-3.9000000000000004,2.6,9.1,33.50000000000001,27.2,17.300000000000004,16
829,13950.0,-1.9000000000000001,0.6000000000000001,-2.0,-3.8000000000000003,2.3000000000000003,7.7,29.0,13.900000000000002,21.0,16
830,13966.0,-1.8,0.5,-2.6,-3.8000000000000003,2.3000000000000003,7.1000000000000005,28.200000000000003,4.1,22.8,16
831,13983.0,-1.0,0.6000000000000001,-3.3000000000000003,-2.9000000000000004,2.4000000000000004,6.4,28.0,-11.6,28.600000000000005,16
832,14000.0,-0.1,0.7000000000000001,-3.1,-1.9000000000000001,2.6,6.6000000000000005,17.9,-20.7,26.200000000000003,16
833,14016.0,-0.2,0.2,-2.0,-2.0,2.3000000000000003,7.6000000000000005,1.2000000000000002,-9.899999999999999,20.0,16
834,14033.0,-0.4,0.0,-1.5,-2.2,2.0,8.1,-4.1,2.0,20.900000000000002,16
835,14050.0,-0.7000000000000001,-0.5,-1.1,-2.6,1.5,8.5,-0.30000000000000004,11.8,26.700000000000003,16
836,14066.0,-0.9,-0.8,-1.3,-2.7,1.3,8.200000000000001,20.1,-1.3,35.2,16
837,14083.0,-0.8,-0.9,-1.9000000000000001,-2.6,1.2000000000000002,7.7,31.400000000000002,-8.5,39.699999999999996,16
838,14100.0,-0.30000000000000004,-0.8,-3.1,-2.0,1.5,6.4,42.800000000000004,-22.2,46.800000000000004,16
839,14116.0,0.0,-0.4,-3.8000000000000003,-1.6,2.0,5.7,35.599999999999994,-28.0,47.1,16
840,14133.0,0.2,-0.4,-3.9000000000000004,-1.4000000000000001,2.1,5.5,27.800000000000004,-26.300000000000004,46.0,16
841,14150.0,0.30000000000000004,-0.30000000000000004,-3.8000000000000003,-1.1,2.3000000000000003,5.7,9.3,-19.300000000000004,42.60000000000001,16
842,14167.0,0.4,-0.1,-3.1,-0.9,2.4000000000000004,6.300000000000001,-7.400000000000001,-15.5,37.1,16
843,14183.0,0.2,-0.1,-2.6,-1.1,2.4000000000000004,6.800000000000001,-12.5,-14.700000000000001,34.800000000000004,16
844,14200.0,0.1,0.0,-1.9000000000000001,-1.1,2.5,7.5,-16.1,-14.5,32.9,16
845,14216.0,0.30000000000000004,0.2,-1.5,-0.8,2.7,7.9,-14.900000000000002,-20.5,33.300000000000004,16
846,14233.0,0.4,0.30000000000000004,-1.4000000000000001,-0.7000000000000001,2.8000000000000003,8.0,-13.900000000000002,-20.0,32.7,16
847,14250.0,0.4,0.6000000000000001,-1.4000000000000001,-0.6000000000000001,3.1,8.0,-15.399999999999999,-12.200000000000001,30.799999999999997,16
848,14266.0,0.30000000000000004,1.0,-1.3,-0.6000000000000001,3.2,8.1,-18.1,-8.100000000000001,29.700000000000006,16
849,14283.0,0.4,1.0,-1.1,-0.5,3.4000000000000004,8.4,-24.7,-2.2,27.5,16
850,14300.0,0.30000000000000004,0.9,-0.7000000000000001,-0.6000000000000001,3.2,8.700000000000001,-28.400000000000002,2.7,22.700000000000003,16
851,14316.0,-0.1,0.8,-0.1,-0.9,3.0,9.4,-27.9,4.6,19.5,16
852,14333.0,0.0,0.8,0.1,-0.9,3.0,9.600000000000001,-25.4,2.5,19.200000000000003,16
853,14350.0,0.1,0.8,0.8,-0.7000000000000001,2.9000000000000004,10.3,-20.3,-1.8000000000000003,18.0,16
854,14366.0,0.0,0.6000000000000001,1.8,-0.9,2.7,11.3,-20.8,9.899999999999999,14.700000000000001,16
855,14383.0,-0.4,0.4,2.0,-1.3,2.4000000000000004,11.5,-21.1,18.1,13.399999999999999,16
856,14400.0,-0.5,0.2,1.6,-1.5,2.2,11.200000000000001,-14.800000000000002,8.700000000000001,11.900000000000002,16
857,14416.0,0.2,0.5,1.7000000000000002,-0.8,2.4000000000000004,11.3,-10.200000000000001,-3.8,9.4,16
858,14433.0,0.30000000000000004,0.5,1.8,-0.6000000000000001,2.4000000000000004,11.4,-16.1,6.0,6.1000000000000005,16
859,14450.0,0.0,0.6000000000000001,2.3000000000000003,-1.0,2.4000000000000004,11.9,-34.0,23.3,-1.8000000000000003,16
860,14466.0,-0.2,0.0,3.6,-1.3,1.7000000000000002,13.3,-44.6,32.400000000000006,-5.6,16
861,14483.0,-0.4,-0.2,4.2,-1.6,1.4000000000000001,13.9,-47.3,41.7,-6.0,16
862,14501.0,-0.8,-0.2,4.6000000000000005,-2.2,1.2000000000000002,14.4,-44.8,55.3,-4.2,16
863,14516.0,-1.0,-0.4,4.800000000000001,-2.6,0.9,14.5,-38.1,57.20000000000001,-3.2,16
864,14534.0,-1.0,-0.4,4.5,-2.7,0.8,14.3,-35.3,57.20000000000001,-3.7000000000000006,16
865,14550.0,-0.7000000000000001,-0.5,3.5,-2.5,0.7000000000000001,13.3,-23.0,53.300000000000004,-8.0,16
866,14568.0,-0.30000000000000004,-0.30000000000000004,1.9000000000000001,-2.4000000000000004,0.8,11.600000000000001,-0.8,47.0,-16.700000000000003,16
867,14583.0,-0.1,-0.2,1.0,-2.2,0.9,10.8,9.0,41.50000000000001,-21.500000000000004,16
868,14600.0,0.4,0.0,0.1,-1.8,1.2000000000000002,9.8,19.0,31.099999999999998,-29.1,16
869,14616.0,1.0,0.1,-0.4,-1.3,1.3,9.3,21.300000000000004,27.099999999999998,-35.0,16
870,14633.0,1.4000000000000001,-0.1,-0.8,-1.1,1.2000000000000002,8.9,23.700000000000003,30.200000000000003,-36.8,16
871,14650.0,1.4000000000000001,-0.1,-0.9,-1.1,1.2000000000000002,8.700000000000001,24.7,32.9,-36.5,16
872,14667.0,0.9,-0.4,-0.9,-1.7000000000000002,0.9,8.700000000000001,27.099999999999998,31.799999999999997,-33.7,16
873,14683.0,0.8,-0.7000000000000001,-1.1,-1.9000000000000001,0.7000000000000001,8.5,33.9,26.000000000000004,-25.5,16
874,14700.0,0.8,-0.7000000000000001,-1.2000000000000002,-1.9000000000000001,0.7000000000000001,8.3,39.1,21.1,-21.1,16
875,14717.0,1.1,-0.6000000000000001,-1.9000000000000001,-1.7000000000000002,1.0,7.6000000000000005,47.400000000000006,12.5,-13.100000000000001,16
876,14733.0,1.5,-0.6000000000000001,-2.0,-1.4000000000000001,1.2000000000000002,7.4,43.1,11.900000000000002,-9.3,16
877,14750.0,1.4000000000000001,-0.6000000000000001,-1.9000000000000001,-1.5,1.2000000000000002,7.4,37.0,14.600000000000001,-9.100000000000001,16
878,14766.0,0.9,-0.8,-1.8,-2.0,1.1,7.5,25.5,15.2,-6.300000000000001,16
879,14787.0,0.8,-0.7000000000000001,-1.5,-2.1,1.2000000000000002,7.800000000000001,19.200000000000003,-2.5,-3.1,16
880,14799.0,0.9,-0.7000000000000001,-1.3,-2.0,1.3,8.0,17.400000000000002,-12.7,-1.9,16
881,14816.0,1.1,-0.5,-1.0,-1.6,1.4000000000000001,8.3,9.600000000000001,-24.599999999999998,-0.7,16
882,14833.0,1.1,-0.6000000000000001,-0.4,-1.6,1.4000000000000001,8.9,-5.500000000000001,-22.9,-0.4,16
883,14851.0,0.9,-0.6000000000000001,-0.1,-1.7000000000000002,1.3,9.200000000000001,-14.700000000000001,-20.0,0.6000000000000001,16
884,14867.0,0.4,-0.9,1.1,-2.2,1.0,10.4,-29.300000000000004,-17.9,4.0,16
885,14883.0,0.2,-0.9,1.6,-2.4000000000000004,0.8,11.0,-26.9,-22.1,9.600000000000001,16
886,14900.0,0.1,-0.8,1.5,-2.4000000000000004,0.9,10.9,-19.700000000000003,-24.7,12.0,16
887,14916.0,0.1,-0.4,0.8,-2.3000000000000003,1.3,10.3,-5.6,-29.1,15.100000000000001,16
888,14933.0,0.30000000000000004,0.0,0.2,-2.0,1.7000000000000002,9.700000000000001,-0.6000000000000001,-31.6,13.8,16
889,14950.0,0.2,0.0,0.0,-2.0,1.7000000000000002,9.600000000000001,-0.5,-30.799999999999997,11.900000000000002,16
890,14966.0,-0.2,0.0,-0.2,-2.3000000000000003,1.7000000000000002,9.3,0.30000000000000004,-31.7,11.2,16
891,14983.0,-0.1,0.0,-0.4,-2.0,1.7000000000000002,9.200000000000001,3.3000000000000007,-37.1,16.3,16
892,15000.0,0.0,0.0,-0.4,-1.9000000000000001,1.8,9.200000000000001,4.0,-37.9,18.5,16
893,15016.0,0.2,0.30000000000000004,-0.4,-1.6,2.1,9.200000000000001,3.6000000000000005,-33.7,22.4,16
894,15033.0,0.1,0.6000000000000001,-0.2,-1.5,2.3000000000000003,9.4,1.7,-26.000000000000004,22.000000000000004,16
895,15050.0,-0.1,0.7000000000000001,0.1,-1.7000000000000002,2.5,9.700000000000001,0.30000000000000004,-21.300000000000004,20.599999999999998,16
896,15067.0,-0.8,0.6000000000000001,0.7000000000000001,-2.3000000000000003,2.4000000000000004,10.4,-0.7,-9.100000000000001,18.900000000000002,16
897,15083.0,-1.6,0.2,1.2000000000000002,-3.2,2.1,10.9,4.300000000000001,4.1,19.700000000000003,16
898,15100.0,-1.9000000000000001,0.1,1.3,-3.5,1.9000000000000001,11.0,8.2,8.700000000000001,22.5,16
899,15116.0,-2.3000000000000003,-0.2,1.3,-3.9000000000000004,1.7000000000000002,11.0,17.9,14.600000000000001,28.500000000000004,16
900,15133.0,-2.1,-0.2,0.6000000000000001,-3.7,1.8,10.200000000000001,31.9,9.2,32.6,16
901,15150.0,-1.6,0.0,0.1,-3.3000000000000003,2.1,9.700000000000001,37.9,4.4,33.0,16
902,15166.0,-0.7000000000000001,0.4,-0.1,-2.4000000000000004,2.7,9.5,30.699999999999996,4.1,28.500000000000004,16
903,15183.0,-0.6000000000000001,0.4,0.4,-2.3000000000000003,2.7,10.0,0.6000000000000001,20.1,18.6,16
904,15200.0,-0.7000000000000001,0.1,0.9,-2.5,2.4000000000000004,10.5,-15.700000000000001,28.500000000000004,14.200000000000001,16
905,15217.0,-1.1,-0.9,1.6,-3.0,1.3,11.200000000000001,-38.1,47.60000000000001,7.500000000000001,16
906,15233.0,-1.7000000000000002,-1.2000000000000002,0.6000000000000001,-3.8000000000000003,0.8,10.200000000000001,-31.6,45.9,3.4,16
907,15249.0,-1.1,-1.1,-1.0,-3.7,0.8,9.3,-17.7,35.699999999999996,2.8,16
908,15266.0,-0.7000000000000001,-0.8,-1.8,-3.0,1.2000000000000002,7.800000000000001,12.600000000000001,21.200000000000003,-0.2,16
909,15284.0,-0.2,-0.30000000000000004,-2.8000000000000003,-2.5,1.7000000000000002,6.7,25.1,10.5,-5.0,16
910,15300.0,0.6000000000000001,-0.4,-2.6,-2.1,1.8,6.7,13.100000000000001,8.8,-8.0,16
911,15316.0,0.9,-0.5,-2.3000000000000003,-1.4000000000000001,1.6,7.1000000000000005,6.500000000000001,16.6,-8.4,16
912,15333.0,0.9,-0.5,-1.7000000000000002,-1.5,1.7000000000000002,7.6000000000000005,-0.1,34.60000000000001,-5.0,16
913,15350.0,1.1,-0.5,-1.5,-1.5,1.6,7.9,-3.6000000000000005,41.50000000000001,-2.2,16
914,15368.0,1.2000000000000002,-0.30000000000000004,-1.5,-1.5,1.7000000000000002,7.800000000000001,-13.8,57.49999999999999,1.6,16
915,15383.0,0.6000000000000001,-0.5,-2.0,-2.3000000000000003,1.5,7.2,-21.7,68.0,4.5,16
916,15400.0,0.7000000000000001,-0.5,-2.8000000000000003,-2.4000000000000004,1.5,6.4,-23.6,62.0,12.9,16
917,15416.0,0.8,-0.4,-2.9000000000000004,-2.3000000000000003,1.5,6.2,-23.700000000000003,57.00000000000001,17.0,16
918,15433.0,0.9,-0.5,-2.9000000000000004,-2.4000000000000004,1.3,6.1000000000000005,-28.3,48.400000000000006,24.5,16
919,15450.0,1.2000000000000002,-0.2,-2.7,-2.2,1.5,6.300000000000001,-34.900000000000006,36.8,32.400000000000006,16
920,15466.0,1.6,0.0,-2.6,-1.8,1.7000000000000002,6.4,-39.9,31.799999999999997,35.2,16
921,15483.0,1.5,0.2,-1.4000000000000001,-2.0,1.8,7.6000000000000005,-56.7,33.400000000000006,37.50000000000001,16
922,15500.0,1.0,0.30000000000000004,0.0,-2.5,1.8,9.0,-72.7,27.6,39.0,16
923,15516.0,0.9,0.30000000000000004,0.8,-2.6,1.6,9.8,-74.10000000000001,21.0,39.599999999999994,16
924,15533.0,0.7000000000000001,0.6000000000000001,2.0,-2.9000000000000004,1.8,11.0,-66.60000000000001,17.7,39.2,16
925,15551.0,0.0,1.2000000000000002,2.2,-3.6,2.3000000000000003,11.200000000000001,-54.0,16.200000000000003,34.1,16
926,15566.0,-0.2,1.5,2.0,-3.8000000000000003,2.6,11.0,-46.800000000000004,9.8,30.1,16
927,15583.0,0.0,1.8,1.5,-3.6,2.7,10.600000000000001,-33.50000000000001,-12.200000000000001,23.5,16
928,15600.0,0.7000000000000001,1.9000000000000001,1.4000000000000001,-2.9000000000000004,2.8000000000000003,10.5,-13.5,-14.700000000000001,5.8,16
929,15617.0,0.0,1.8,1.3,-3.6,2.8000000000000003,10.5,-3.9,-22.5,-2.9,16
930,15634.0,-0.4,1.7000000000000002,1.4000000000000001,-3.8000000000000003,2.6,10.600000000000001,4.300000000000001,-42.800000000000004,-3.3000000000000007,16
931,15649.0,0.4,1.4000000000000001,2.3000000000000003,-2.8000000000000003,2.3000000000000003,11.600000000000001,7.1000000000000005,-52.80000000000001,-1.1,16
932,15666.0,0.5,1.2000000000000002,2.5,-2.7,2.2,11.8,10.200000000000001,-51.0,-4.4,16
933,15683.0,-0.5,0.9,2.6,-3.5,2.0,12.0,20.5,-49.9,-8.2,16
934,15700.0,-0.6000000000000001,0.8,2.1,-3.4000000000000004,2.0,11.5,29.0,-49.300000000000004,-4.800000000000001,16
935,15716.0,-0.30000000000000004,0.9,1.7000000000000002,-3.0,2.1,11.200000000000001,32.300000000000004,-50.60000000000001,-4.300000000000001,16
936,15733.0,0.1,0.9,1.8,-2.5,2.2,11.200000000000001,31.2,-49.300000000000004,-6.300000000000001,16
937,15757.0,-0.2,0.9,2.3000000000000003,-2.6,2.3000000000000003,11.8,17.6,-37.9,-7.699999999999999,16
938,15766.0,-0.1,1.0,2.6,-2.5,2.4000000000000004,12.200000000000001,7.699999999999999,-31.2,-7.200000000000001,16
939,15783.0,-0.6000000000000001,0.1,4.3,-3.0,1.5,14.0,-16.3,-9.8,-7.200000000000001,16
940,15799.0,-1.9000000000000001,-1.3,5.7,-4.3,-0.1,15.3,-29.1,12.600000000000001,-0.30000000000000004,16
941,15816.0,-2.1,-1.6,5.7,-4.5,-0.4,15.4,-20.2,17.9,5.8,16
942,15833.0,-2.1,-1.8,3.8000000000000003,-4.6000000000000005,-0.5,13.600000000000001,16.8,11.3,15.000000000000002,16
943,15850.0,-1.3,-1.3,1.4000000000000001,-3.8000000000000003,0.1,11.100000000000001,49.300000000000004,-4.9,14.100000000000001,16
944,15871.0,-0.7000000000000001,-0.8,-0.30000000000000004,-3.2,0.8,9.3,60.2,-14.900000000000002,6.9,16
945,15883.0,-0.30000000000000004,-0.9,-0.7000000000000001,-2.7,0.8,9.0,54.4,-20.1,1.7,16
946,15899.0,0.5,-1.2000000000000002,-0.9,-1.9000000000000001,0.6000000000000001,8.700000000000001,29.500000000000004,-19.5,-9.600000000000001,16
947,15916.0,0.6000000000000001,-1.3,-0.8,-1.7000000000000002,0.5,8.9,18.8,-13.399999999999999,-14.600000000000001,16
948,15933.0,0.7000000000000001,-1.4000000000000001,-0.5,-1.6,0.4,9.200000000000001,11.2,-4.7,-22.700000000000003,16
949,15950.0,0.5,-1.5,-0.30000000000000004,-1.8,0.30000000000000004,9.3,16.0,-0.1,-29.200000000000003,16
950,15966.0,0.1,-1.6,-0.30000000000000004,-2.3000000000000003,0.2,9.3,20.400000000000002,-1.0,-31.400000000000002,16
951,15983.0,-0.2,-1.8,-0.9,-2.6,0.1,8.700000000000001,32.300000000000004,-7.300000000000001,-30.200000000000003,16
952,16000.0,0.2,-1.6,-1.8,-2.2,0.4,7.800000000000001,41.7,-5.0,-26.799999999999997,16
953,16016.0,0.30000000000000004,-1.5,-2.2,-2.1,0.5,7.4,43.70000000000001,-2.7,-26.799999999999997,16
954,16033.0,0.2,-1.3,-3.1,-2.2,0.9,6.4,43.1,-5.7,-28.700000000000003,16
955,16050.0,0.30000000000000004,-1.3,-3.4000000000000004,-2.0,0.9,6.1000000000000005,36.400000000000006,-13.6,-28.700000000000003,16
956,16066.0,0.5,-1.3,-3.2,-1.8,1.0,6.2,32.0,-15.700000000000001,-27.800000000000004,16
957,16083.0,0.7000000000000001,-1.1,-2.7,-1.6,1.2000000000000002,6.7,25.200000000000003,-14.100000000000001,-26.400000000000006,16
958,16100.0,0.7000000000000001,-1.1,-2.4000000000000004,-1.5,1.4000000000000001,7.1000000000000005,19.700000000000003,-8.0,-24.5,16
959,16117.0,0.9,-1.0,-1.8,-1.4000000000000001,1.4000000000000001,7.5,12.4,-2.5,-20.400000000000002,16
960,16133.0,0.9,-1.0,-1.6,-1.4000000000000001,1.4000000000000001,7.800000000000001,8.4,1.4,-18.900000000000002,16
961,16150.0,0.6000000000000001,-0.8,-1.3,-1.7000000000000002,1.6,8.0,5.1000000000000005,8.899999999999999,-14.700000000000001,16
962,16166.0,0.30000000000000004,-0.7000000000000001,-1.0,-2.0,1.7000000000000002,8.3,5.500000000000001,5.300000000000001,-8.100000000000001,16
963,16183.0,0.30000000000000004,-0.6000000000000001,-0.9,-2.1,1.8,8.4,5.0,3.3000000000000007,-4.7,16
964,16199.0,0.30000000000000004,-0.4,-0.8,-2.0,2.1,8.5,2.1,1.6,0.6000000000000001,16
965,16216.0,0.1,0.0,-0.9,-2.3000000000000003,2.4000000000000004,8.4,-3.1,-2.6,3.6000000000000005,16
966,16234.0,0.0,0.0,-0.9,-2.3000000000000003,2.4000000000000004,8.4,-6.9,-7.0,5.500000000000001,16
967,16249.0,0.2,0.2,-0.6000000000000001,-2.1,2.6,8.700000000000001,-14.400000000000002,-15.2,9.100000000000001,16
968,16266.0,0.2,0.5,-0.1,-2.0,2.8000000000000003,9.200000000000001,-19.6,-17.1,10.5,16
969,16283.0,-0.1,0.6000000000000001,0.4,-2.3000000000000003,2.8000000000000003,9.700000000000001,-22.5,-17.9,10.5,16
970,16300.0,-0.8,0.6000000000000001,1.3,-3.0,2.8000000000000003,10.600000000000001,-28.400000000000002,-13.8,11.000000000000002,16
971,16316.0,-1.9000000000000001,0.5,1.8,-4.0,2.6,11.200000000000001,-31.0,-5.8,15.2,16
972,16333.0,-2.4000000000000004,0.4,2.0,-4.5,2.5,11.4,-30.599999999999998,-1.7,17.7,16
973,16350.0,-2.6,0.4,1.7000000000000002,-4.7,2.4000000000000004,11.100000000000001,-23.6,-0.2,23.400000000000002,16
974,16366.0,-3.5,0.0,1.2000000000000002,-5.6000000000000005,2.0,10.700000000000001,-15.100000000000001,-5.6,26.1,16
975,16385.0,-3.0,0.0,1.1,-5.1000000000000005,2.0,10.600000000000001,-18.900000000000002,-2.6,34.1,16
976,16400.0,-2.5,0.5,2.2,-4.6000000000000005,2.3000000000000003,11.8,-43.900000000000006,14.100000000000001,37.400000000000006,16
977,16416.0,-3.1,0.2,3.9000000000000004,-5.300000000000001,1.8,13.4,-73.30000000000001,39.50000000000001,30.4,16
978,16433.0,-3.4000000000000004,0.1,4.5,-5.7,1.7000000000000002,14.100000000000001,-76.3,48.9,27.099999999999998,16
979,16449.0,-4.0,-0.4,3.7,-6.5,1.0,13.3,-42.1,49.0,23.2,16
980,16466.0,-3.6,-0.4,0.30000000000000004,-6.300000000000001,1.0,9.9,10.8,23.2,27.9,16
981,16483.0,-3.0,-0.30000000000000004,-1.1,-5.6000000000000005,1.2000000000000002,8.5,26.6,11.900000000000002,31.5,16
982,16500.0,-2.0,0.2,-2.7,-4.6000000000000005,1.8,6.9,30.200000000000003,-1.6,35.2,16
983,16516.0,-1.2000000000000002,0.0,-3.1,-3.9000000000000004,1.7000000000000002,6.5,9.5,-2.8,42.1,16
984,16534.0,-0.7000000000000001,-0.1,-2.8000000000000003,-3.4000000000000004,1.7000000000000002,6.7,-2.3,2.0,47.400000000000006,16
985,16550.0,-0.2,-0.30000000000000004,-2.5,-2.8000000000000003,1.4000000000000001,7.0,-18.8,10.0,56.0,16
986,16566.0,0.4,-0.30000000000000004,-2.5,-2.3000000000000003,1.4000000000000001,7.0,-25.5,8.4,60.5,16
987,16583.0,0.5,-0.2,-2.5,-2.1,1.5,7.0,-26.1,9.0,61.50000000000001,16
988,16599.0,0.7000000000000001,-0.2,-2.7,-1.9000000000000001,1.4000000000000001,6.7,-22.9,14.0,63.599999999999994,16
989,16616.0,1.0,-0.30000000000000004,-3.3000000000000003,-1.6,1.3,6.1000000000000005,-15.5,14.800000000000002,64.4,16
990,16633.0,1.1,-0.30000000000000004,-3.4000000000000004,-1.6,1.3,6.0,-12.7,14.0,64.80000000000001,16
991,16658.0,1.5,-0.4,-3.3000000000000003,-1.1,1.3,6.1000000000000005,-12.5,14.200000000000001,65.3,16
992,16668.0,1.5,-0.4,-3.1,-1.1,1.3,6.300000000000001,-12.8,14.400000000000002,64.2,16
993,16684.0,1.4000000000000001,-0.4,-2.8000000000000003,-1.2000000000000002,1.3,6.6000000000000005,-11.3,13.6,63.599999999999994,16
994,16699.0,1.6,0.1,-2.1,-1.0,1.8,7.2,-2.2,10.5,61.39999999999999,16
995,16716.0,1.3,0.4,-1.4000000000000001,-1.3,2.2,7.9,3.0,12.9,57.60000000000001,16
996,16734.0,1.1,0.5,-0.5,-1.4000000000000001,2.3000000000000003,8.3,2.0,16.8,57.800000000000004,16
997,16749.0,0.9,0.6000000000000001,0.0,-1.7000000000000002,2.5,9.3,-1.7,22.3,57.400000000000006,16
998,16766.0,0.30000000000000004,0.7000000000000001,0.9,-2.3000000000000003,2.6,10.100000000000001,-0.9000000000000001,21.0,56.800000000000004,16
999,16783.0,0.1,0.9,1.1,-2.6,2.8000000000000003,10.3,1.6,18.0,58.0,16
1000,16799.0,0.30000000000000004,1.2000000000000002,0.9,-2.4000000000000004,3.3000000000000003,10.100000000000001,4.5,9.8,59.40000000000001,16
1001,16816.0,0.6000000000000001,1.9000000000000001,0.7000000000000001,-2.0,4.0,9.9,-1.6,0.8,52.300000000000004,16
1002,16833.0,0.6000000000000001,2.1,0.8,-2.0,4.2,10.100000000000001,-8.5,-4.4,46.6,16
1003,16850.0,0.6000000000000001,2.3000000000000003,1.7000000000000002,-1.9000000000000001,4.4,10.9,-23.3,-12.0,32.6,16
1004,16866.0,-0.1,1.9000000000000001,2.8000000000000003,-2.6,3.9000000000000004,12.100000000000001,-30.5,-14.700000000000001,16.700000000000003,16
1005,16883.0,-0.5,1.2000000000000002,2.9000000000000004,-2.9000000000000004,3.2,12.3,-24.7,-26.6,9.2,16
1006,16900.0,0.0,1.2000000000000002,2.9000000000000004,-2.3000000000000003,3.2,12.3,-16.1,-36.5,8.4,16
1007,16916.0,0.8,1.2000000000000002,3.0,-1.4000000000000001,3.2,12.5,-7.8,-39.50000000000001,6.2,16
1008,16933.0,0.8,1.1,3.2,-1.3,3.1,12.8,-14.400000000000002,-29.800000000000004,4.300000000000001,16
1009,16950.0,0.6000000000000001,1.4000000000000001,4.9,-1.5,3.3000000000000003,14.4,-34.50000000000001,-1.9,0.9000000000000001,16
1010,16967.0,-0.8,-0.4,6.300000000000001,-3.0,1.3,16.0,-46.0,27.700000000000003,-0.8,16
1011,16983.0,-1.9000000000000001,-1.6,5.5,-4.2,0.0,15.200000000000001,-38.7,35.3,1.2000000000000002,16
1012,16999.0,-1.7000000000000002,-1.4000000000000001,4.3,-4.1000000000000005,0.2,14.0,10.4,25.900000000000002,10.200000000000001,16
1013,17017.0,-0.8,-1.0,1.9000000000000001,-3.1,0.7000000000000001,11.5,53.7,6.500000000000001,9.8,16
1014,17033.0,-0.1,-0.7000000000000001,0.0,-2.5,1.3,9.700000000000001,52.7,4.1,2.9,16
1015,17049.0,0.30000000000000004,-0.6000000000000001,0.0,-2.1,1.4000000000000001,9.600000000000001,40.5,4.0,-1.9,16
1016,17066.0,1.0,-1.0,0.4,-1.5,1.1,10.0,15.399999999999999,14.900000000000002,-11.6,16
1017,17083.0,1.1,-0.9,0.4,-1.4000000000000001,1.2000000000000002,10.0,8.2,27.6,-21.8,16
1018,17099.0,1.1,-0.7000000000000001,0.1,-1.4000000000000001,1.3,9.600000000000001,10.1,30.599999999999998,-26.799999999999997,16
1019,17116.0,1.0,-0.7000000000000001,-0.2,-1.7000000000000002,1.4000000000000001,9.4,11.1,37.9,-34.800000000000004,16
1020,17133.0,0.5,-1.2000000000000002,-0.2,-2.4000000000000004,0.9,9.3,13.700000000000001,43.6,-40.800000000000004,16
1021,17150.0,0.1,-1.5,-0.30000000000000004,-2.9000000000000004,0.6000000000000001,9.200000000000001,20.2,41.1,-40.0,16
1022,17167.0,-0.30000000000000004,-2.0,-1.1,-3.4000000000000004,0.1,8.3,40.6,29.800000000000004,-28.900000000000002,16
1023,17183.0,0.1,-2.1,-2.3000000000000003,-3.0,0.2,6.9,62.900000000000006,17.9,-13.3,16
1024,17199.0,0.5,-2.0,-2.9000000000000004,-2.7,0.4,6.300000000000001,70.6,11.000000000000002,-8.3,16
1025,17216.0,0.9,-1.5,-3.8000000000000003,-2.3000000000000003,1.1,5.4,75.2,-3.9,-5.0,16
1026,17233.0,1.4000000000000001,-1.2000000000000002,-3.8000000000000003,-1.8,1.6,5.2,68.2,-9.899999999999999,-5.7,16
1027,17250.0,1.5,-1.2000000000000002,-3.6,-1.6,1.7000000000000002,5.4,61.39999999999999,-7.8,-7.6,16
1028,17268.0,1.0,-1.3,-2.5,-2.1,1.7000000000000002,6.4,43.50000000000001,-1.6,-11.700000000000001,16
1029,17283.0,0.4,-1.8,-1.1,-2.8000000000000003,1.4000000000000001,7.800000000000001,33.800000000000004,-11.700000000000001,-11.3,16
1030,17299.0,0.2,-1.9000000000000001,-0.7000000000000001,-2.9000000000000004,1.3,8.200000000000001,36.2,-18.3,-7.400000000000001,16
1031,17316.0,0.6000000000000001,-1.7000000000000002,-0.4,-2.5,1.6,8.4,40.1,-23.2,2.7,16
1032,17333.0,0.6000000000000001,-1.2000000000000002,-0.2,-2.3000000000000003,2.1,8.6,27.099999999999998,-12.100000000000001,6.9,16
1033,17349.0,0.1,-1.1,0.1,-2.8000000000000003,2.3000000000000003,9.0,16.200000000000003,-8.3,7.500000000000001,16
1034,17366.0,-0.7000000000000001,-1.3,0.8,-3.6,2.1,9.700000000000001,0.9000000000000001,-18.4,14.100000000000001,16
1035,17383.0,-0.2,-1.2000000000000002,0.9,-2.9000000000000004,2.2,9.700000000000001,1.9,-25.4,22.4,16
1036,17400.0,0.0,-1.0,0.6000000000000001,-2.8000000000000003,2.4000000000000004,9.5,3.6000000000000005,-23.099999999999998,23.900000000000006,16
1037,17416.0,-0.1,-0.4,-0.30000000000000004,-2.7,3.0,8.6,1.7,-24.8,24.5,16
1038,17433.0,0.1,-0.2,-0.2,-2.4000000000000004,3.3000000000000003,8.700000000000001,-9.100000000000001,-34.1,22.700000000000003,16
1039,17453.0,0.2,0.0,0.30000000000000004,-2.1,3.4000000000000004,9.200000000000001,-18.5,-34.50000000000001,21.500000000000004,16
1040,17466.0,0.1,0.1,0.4,-2.2,3.5,9.4,-21.1,-31.5,20.5,16
1041,17483.0,-0.4,0.1,0.7000000000000001,-2.6,3.5,9.8,-25.6,-20.2,20.900000000000002,16
1042,17500.0,-0.5,0.2,0.8,-2.7,3.5,9.9,-26.000000000000004,-14.800000000000002,22.9,16
1043,17516.0,-0.7000000000000001,0.1,0.8,-2.9000000000000004,3.3000000000000003,10.0,-23.0,-5.4,25.0,16
1044,17533.0,-1.0,0.4,1.0,-3.1,3.6,10.200000000000001,-21.900000000000002,6.500000000000001,27.3,16
1045,17550.0,-1.2000000000000002,0.6000000000000001,1.3,-3.3000000000000003,3.7,10.4,-26.9,17.0,28.800000000000004,16
1046,17567.0,-1.3,0.7000000000000001,1.9000000000000001,-3.6,3.8000000000000003,11.100000000000001,-49.300000000000004,43.1,28.800000000000004,16
1047,17583.0,-2.3000000000000003,0.4,2.9000000000000004,-4.7,3.3000000000000003,12.100000000000001,-75.2,67.60000000000001,24.900000000000002,16
1048,17600.0,-3.1,0.0,3.3000000000000003,-6.1000000000000005,2.3000000000000003,12.700000000000001,-83.5,74.4,24.400000000000002,16
1049,17616.0,-3.3000000000000003,-0.2,3.0,-6.1000000000000005,2.3000000000000003,12.3,-68.3,62.1,23.900000000000006,16
1050,17633.0,-2.8000000000000003,0.2,1.0,-5.7,2.6,10.3,-22.6,34.0,19.400000000000002,16
1051,17653.0,-2.2,0.5,-0.8,-5.2,3.0,8.5,6.8,20.2,15.000000000000002,16
1052,17667.0,-1.9000000000000001,0.5,-1.3,-4.9,3.0,8.0,8.4,12.8,11.900000000000002,16
1053,17683.0,-1.2000000000000002,0.30000000000000004,-1.6,-4.2,2.8000000000000003,7.7,-1.4,1.9,4.5,16
1054,17700.0,-1.1,0.0,-1.5,-4.0,2.3000000000000003,7.800000000000001,-5.0,3.6000000000000005,3.7000000000000006,16
1055,17717.0,-0.8,-0.2,-1.4000000000000001,-3.8000000000000003,2.2,7.800000000000001,-4.5,9.899999999999999,9.100000000000001,16
1056,17733.0,-0.5,-0.6000000000000001,-1.5,-3.6,1.9000000000000001,7.7,-1.9,12.4,18.4,16
1057,17753.0,0.0,-0.8,-1.9000000000000001,-3.1,1.7000000000000002,7.300000000000001,-0.7,14.200000000000001,28.0,16
1058,17769.0,0.30000000000000004,-0.9,-2.1,-2.8000000000000003,1.6,7.0,0.0,15.100000000000001,32.400000000000006,16
1059,17783.0,0.8,-1.0,-2.8000000000000003,-2.3000000000000003,1.5,6.300000000000001,3.0,14.5,39.2,16
1060,17800.0,1.4000000000000001,-1.0,-3.5,-1.7000000000000002,1.6,5.5,7.1000000000000005,12.4,42.60000000000001,16
1061,17816.0,1.7000000000000002,-1.0,-3.7,-1.4000000000000001,1.7000000000000002,5.300000000000001,7.699999999999999,10.9,42.7,16
1062,17833.0,2.0,-0.9,-3.8000000000000003,-1.1,1.8,5.2,2.6,7.1000000000000005,40.1,16
1063,17851.0,2.3000000000000003,-1.0,-3.1,-0.8,1.7000000000000002,5.9,-8.8,7.500000000000001,37.800000000000004,16
1064,17866.0,2.5,-1.0,-2.6,-0.5,1.7000000000000002,6.4,-13.8,8.5,37.0,16
1065,17883.0,2.9000000000000004,-0.8,-1.6,-0.1,1.9000000000000001,7.4,-20.7,8.3,33.800000000000004,16
1066,17901.0,2.8000000000000003,-0.5,-0.6000000000000001,-0.2,2.1,8.3,-29.900000000000006,15.299999999999999,29.500000000000004,16
1067,17916.0,2.6,-0.4,-0.1,-0.4,2.2,8.8,-34.7,20.1,27.9,16
1068,17933.0,2.1,-0.30000000000000004,1.0,-0.9,2.1,9.9,-44.4,28.500000000000004,23.5,16
1069,17952.0,1.1,-0.30000000000000004,2.0,-2.0,2.0,11.0,-46.800000000000004,28.900000000000002,18.900000000000002,16
1070,17966.0,0.8,-0.2,2.2,-2.3000000000000003,2.1,11.200000000000001,-41.900000000000006,23.5,18.0,16
1071,17983.0,0.6000000000000001,0.2,2.1,-2.6,2.4000000000000004,11.200000000000001,-27.099999999999998,13.399999999999999,14.400000000000002,16
1072,18000.0,0.30000000000000004,0.6000000000000001,1.5,-2.9000000000000004,2.8000000000000003,10.5,-15.2,6.2,7.8,16
1073,18016.0,0.2,0.8,1.2000000000000002,-3.0,3.0,10.3,-11.3,-1.6,3.6000000000000005,16
1074,18033.0,0.1,1.0,1.4000000000000001,-3.1,3.2,10.4,-6.699999999999999,-15.899999999999999,-4.6,16
1075,18054.0,-0.4,1.3,1.4000000000000001,-3.5,3.4000000000000004,10.5,-5.300000000000001,-23.3,-9.2,16
1076,18067.0,-0.4,1.2000000000000002,1.6,-3.4000000000000004,3.3000000000000003,10.700000000000001,-8.0,-26.000000000000004,-10.1,16
1077,18083.0,-0.9,0.9,1.9000000000000001,-3.8000000000000003,3.0,11.100000000000001,-15.2,-21.500000000000004,-11.2,16
1078,18099.0,-1.4000000000000001,0.4,1.9000000000000001,-4.3,2.4000000000000004,11.200000000000001,-12.4,-21.900000000000002,-7.300000000000001,16
1079,18116.0,-1.4000000000000001,0.30000000000000004,1.4000000000000001,-4.3,2.3000000000000003,10.700000000000001,-7.400000000000001,-24.8,-3.6000000000000005,16
1080,18133.0,-0.30000000000000004,0.7000000000000001,0.5,-3.1,2.7,9.8,-0.4,-34.7,1.5,16
1081,18156.0,0.6000000000000001,1.1,1.3,-2.1,3.1,10.700000000000001,-13.700000000000001,-31.6,-2.1,16
1082,18168.0,0.2,1.4000000000000001,2.7,-2.3000000000000003,3.2,11.3,-38.50000000000001,-8.5,-12.100000000000001,16
1083,18183.0,-0.2,1.0,4.0,-2.8000000000000003,2.8000000000000003,13.5,-52.1,4.1,-16.0,16
1084,18199.0,-2.3000000000000003,-0.7000000000000001,6.0,-5.1000000000000005,0.8,15.5,-73.30000000000001,33.50000000000001,-18.8,16
1085,18218.0,-3.3000000000000003,-1.6,5.6000000000000005,-6.2,-0.30000000000000004,15.200000000000001,-43.50000000000001,23.3,-10.1,16
1086,18233.0,-3.1,-1.5,4.2,-6.0,-0.2,13.8,-11.2,10.600000000000001,-5.500000000000001,16
1087,18255.0,-1.8,-0.8,1.1,-4.7,0.6000000000000001,10.600000000000001,43.2,-6.600000000000001,-2.5,16
1088,18266.0,-1.4000000000000001,-0.30000000000000004,-0.1,-4.3,1.2000000000000002,9.5,55.5,-8.3,-4.800000000000001,16
1089,18284.0,-0.7000000000000001,0.0,-0.6000000000000001,-3.6,1.7000000000000002,8.9,43.1,-21.0,-12.4,16
1090,18300.0,0.1,-0.5,0.4,-2.7,1.1,10.0,13.8,-17.1,-20.599999999999998,16
1091,18316.0,0.1,-0.8,1.0,-2.9000000000000004,0.8,10.8,10.200000000000001,-10.9,-22.5,16
1092,18333.0,-0.1,-0.8,1.0,-2.9000000000000004,0.9,10.600000000000001,32.6,-12.4,-21.7,16
1093,18355.0,0.2,-0.5,0.0,-2.6,1.4000000000000001,9.600000000000001,55.1,-13.700000000000001,-19.9,16
1094,18366.0,-0.30000000000000004,-0.5,-1.0,-3.0,1.6,8.5,59.40000000000001,-11.900000000000002,-20.599999999999998,16
1095,18383.0,-0.4,-0.6000000000000001,-1.5,-3.1,1.6,8.0,61.7,-20.599999999999998,-20.599999999999998,16
1096,18399.0,-0.5,-0.9,-2.7,-3.2,1.5,6.7,63.4,-32.6,-16.0,16
1097,18416.0,-0.1,-1.0,-3.5,-2.9000000000000004,1.5,6.300000000000001,61.8,-46.50000000000001,-10.0,16
1098,18433.0,0.2,-0.9,-3.7,-2.2,1.7000000000000002,5.7,59.20000000000001,-52.900000000000006,-8.600000000000001,16
1099,18459.0,0.8,-0.7000000000000001,-3.3000000000000003,-1.3,2.1,6.1000000000000005,38.2,-57.9,-4.7,16
1100,18467.0,0.8,-0.7000000000000001,-3.3000000000000003,-1.3,2.1,6.1000000000000005,38.2,-57.9,-4.7,16
1101,18483.0,1.3,-0.6000000000000001,-2.2,-0.6000000000000001,2.2,7.1000000000000005,17.5,-47.60000000000001,-6.300000000000001,16
1102,18499.0,1.0,-0.8,-0.9,-0.8,2.1,8.4,1.7,-27.9,-8.600000000000001,16
1103,18516.0,0.7000000000000001,-1.0,-0.4,-1.4000000000000001,1.6,9.5,1.3,-12.8,-3.8,16
1104,18533.0,0.2,-1.5,0.30000000000000004,-1.6,1.4000000000000001,9.700000000000001,6.300000000000001,-8.4,0.9000000000000001,16
1105,18555.0,0.30000000000000004,-1.3,0.0,-1.4000000000000001,1.7000000000000002,9.3,24.0,-6.1000000000000005,12.600000000000001,16
1106,18566.0,0.5,-0.7000000000000001,-0.5,-1.2000000000000002,2.3000000000000003,8.8,36.1,-3.0,19.700000000000003,16
1107,18583.0,0.5,-0.4,-0.7000000000000001,-1.2000000000000002,2.7,8.6,35.9,0.8,21.300000000000004,16
1108,18600.0,0.1,-0.30000000000000004,-1.1,-1.5,2.9000000000000004,8.1,29.300000000000004,3.3000000000000007,21.7,16
1109,18616.0,-0.2,-0.30000000000000004,-1.3,-1.8,3.0,7.9,25.4,-7.0,24.599999999999998,16
1110,18633.0,-0.1,-0.2,-1.3,-1.8,3.1,7.9,24.400000000000002,-13.5,26.9,16
1111,18652.0,0.4,0.1,-1.6,-1.1,3.5,7.5,20.2,-22.4,29.400000000000002,16
1112,18666.0,0.5,0.30000000000000004,-1.4000000000000001,-0.9,3.8000000000000003,7.800000000000001,9.2,-23.900000000000006,26.799999999999997,16
1113,18683.0,0.2,0.30000000000000004,-1.1,-1.2000000000000002,3.8000000000000003,8.1,2.8,-22.000000000000004,25.0,16
1114,18699.0,-0.1,0.1,-0.30000000000000004,-1.4000000000000001,3.6,8.8,-8.3,-13.8,25.5,16
1115,18716.0,-0.6000000000000001,0.0,0.6000000000000001,-1.8,3.5,9.8,-18.200000000000003,4.5,26.300000000000004,16
1116,18733.0,-0.9,-0.1,0.9,-2.1,3.4000000000000004,10.100000000000001,-20.8,13.900000000000002,26.799999999999997,16
1117,18756.0,-1.1,0.0,1.3,-2.4000000000000004,3.3000000000000003,10.5,-21.500000000000004,33.1,28.400000000000002,16
1118,18766.0,-1.1,0.0,1.5,-2.5,3.4000000000000004,10.8,-28.200000000000003,42.3,28.1,16
1119,18783.0,-1.2000000000000002,0.1,1.9000000000000001,-2.7,3.3000000000000003,11.200000000000001,-38.7,53.400000000000006,26.5,16
1120,18800.0,-1.8,-0.1,3.3000000000000003,-3.4000000000000004,3.0,12.600000000000001,-59.20000000000001,76.4,19.400000000000002,16
1121,18816.0,-3.0,-0.8,3.9000000000000004,-5.0,2.2,13.200000000000001,-60.6,86.2,11.4,16
1122,18833.0,-3.4000000000000004,-0.8,3.5,-5.5,2.0,12.9,-47.3,78.3,8.700000000000001,16
1123,18851.0,-3.0,-0.7000000000000001,1.9000000000000001,-5.300000000000001,2.1,11.3,-4.2,55.8,6.9,16
1124,18866.0,-2.5,-0.30000000000000004,-0.2,-5.0,2.5,9.1,19.9,45.3,1.6,16
1125,18884.0,-2.2,-0.1,-1.3,-4.800000000000001,2.8000000000000003,7.9,13.8,33.1,-4.300000000000001,16
1126,18900.0,-1.9000000000000001,-0.1,-1.4000000000000001,-4.6000000000000005,2.8000000000000003,7.800000000000001,7.8,26.700000000000003,-5.2,16
1127,18916.0,-1.4000000000000001,-0.30000000000000004,-1.5,-4.2,2.6,7.7,-1.0,23.0,-3.0,16
1128,18933.0,-1.1,-0.30000000000000004,-1.5,-4.0,2.6,7.6000000000000005,-4.5,24.400000000000002,-0.2,16
1129,18951.0,-0.6000000000000001,-0.30000000000000004,-2.0,-3.5,2.6,7.2,-11.4,26.000000000000004,6.500000000000001,16
1130,18966.0,-0.30000000000000004,-0.5,-2.4000000000000004,-3.3000000000000003,2.3000000000000003,6.7,-19.400000000000002,26.9,14.200000000000001,16
1131,18983.0,-0.2,-0.7000000000000001,-2.5,-3.2,2.1,6.6000000000000005,-23.5,25.6,19.1,16
1132,18999.0,0.2,-1.0,-2.8000000000000003,-2.8000000000000003,1.8,6.300000000000001,-23.800000000000004,21.1,29.1,16
1133,19016.0,0.6000000000000001,-0.9,-3.3000000000000003,-2.4000000000000004,1.8,5.7,-15.5,15.5,39.0,16
1134,19033.0,0.9,-0.9,-3.5,-2.2,1.8,5.5,-11.900000000000002,13.000000000000002,42.900000000000006,16
1135,19058.0,1.6,-0.8,-3.9000000000000004,-1.4000000000000001,1.9000000000000001,5.1000000000000005,-12.600000000000001,6.4,49.9,16
1136,19066.0,1.9000000000000001,-0.8,-3.7,-1.1,1.9000000000000001,5.2,-17.5,3.8,51.300000000000004,16
1137,19083.0,2.3000000000000003,-0.7000000000000001,-3.4000000000000004,-0.7000000000000001,2.0,5.6000000000000005,-24.0,3.8,52.1,16
1138,19099.0,2.6,-0.5,-2.3000000000000003,-0.30000000000000004,2.2,6.6000000000000005,-42.1,14.300000000000002,50.900000000000006,16
1139,19116.0,2.5,-0.4,-0.9,-0.5,2.1,8.1,-62.6,26.5,46.50000000000001,16
1140,19133.0,1.7000000000000002,-0.30000000000000004,1.0,-1.3,2.1,10.0,-73.10000000000001,33.9,42.900000000000006,16
1141,19158.0,1.0,-0.2,2.3000000000000003,-2.1,1.9000000000000001,11.4,-70.9,40.1,41.0,16
1142,19171.0,0.7000000000000001,-0.1,2.7,-2.5,1.9000000000000001,11.8,-66.9,40.6,38.900000000000006,16
1143,19183.0,0.2,0.0,2.9000000000000004,-3.4000000000000004,1.9000000000000001,11.9,-50.0,30.200000000000003,33.6,16
1144,19199.0,-0.5,0.1,2.6,-3.8000000000000003,1.9000000000000001,11.700000000000001,-37.2,19.300000000000004,31.799999999999997,16
1145,19216.0,-0.30000000000000004,0.5,1.7000000000000002,-3.5,2.3000000000000003,10.8,-9.3,3.9,28.600000000000005,16
1146,19233.0,0.1,1.2000000000000002,0.5,-3.1,3.1,9.600000000000001,4.2,-6.600000000000001,19.400000000000002,16
1147,19251.0,0.1,1.4000000000000001,0.7000000000000001,-3.1,3.3000000000000003,9.8,-0.9000000000000001,-13.900000000000002,13.6,16
1148,19266.0,-0.1,1.4000000000000001,2.4000000000000004,-3.2,3.3000000000000003,11.5,-21.1,-17.5,2.8,16
1149,19283.0,-0.5,1.3,3.3000000000000003,-3.6,3.2,12.5,-25.7,-13.200000000000003,-1.3,16
1150,19300.0,-1.5,0.8,3.8000000000000003,-4.6000000000000005,2.6,13.100000000000001,-16.1,-12.0,-4.0,16
1151,19316.0,-1.7000000000000002,0.5,2.5,-4.800000000000001,2.3000000000000003,11.8,3.0,-17.9,1.3,16
1152,19333.0,-0.5,0.9,1.9000000000000001,-3.5,2.7,11.200000000000001,11.000000000000002,-23.700000000000003,7.8,16
1153,19352.0,-0.2,0.9,2.2,-3.1,2.7,11.5,3.2,-17.200000000000003,7.8,16
1154,19366.0,-0.5,1.0,3.3000000000000003,-3.5,2.8000000000000003,12.700000000000001,-24.400000000000002,6.600000000000001,2.5,16
1155,19383.0,-1.2000000000000002,0.2,5.2,-3.8000000000000003,2.6,13.700000000000001,-42.1,22.000000000000004,0.7,16
1156,19399.0,-1.7000000000000002,-0.6000000000000001,5.7,-4.7,1.0,15.100000000000001,-45.6,31.0,0.30000000000000004,16
1157,19416.0,-2.4000000000000004,-1.2000000000000002,5.300000000000001,-5.6000000000000005,0.30000000000000004,14.700000000000001,-26.799999999999997,26.9,0.8,16
1158,19433.0,-1.7000000000000002,-1.0,2.6,-4.9,0.5,12.100000000000001,19.5,2.7,1.5,16
1159,19451.0,-1.1,-0.7000000000000001,1.3,-4.3,0.9,10.8,39.400000000000006,-8.8,0.5,16
1160,19466.0,0.0,-0.2,-0.1,-3.2,1.5,9.4,50.400000000000006,-17.300000000000004,-4.6,16
1161,19483.0,0.6000000000000001,-0.30000000000000004,-0.1,-2.5,1.5,9.4,33.6,-16.4,-12.7,16
1162,19499.0,0.7000000000000001,-0.6000000000000001,0.30000000000000004,-2.4000000000000004,1.2000000000000002,9.8,25.900000000000002,-10.299999999999999,-14.800000000000002,16
1163,19516.0,0.6000000000000001,-1.0,0.6000000000000001,-2.5,0.9,10.0,27.0,-4.1,-13.399999999999999,16
1164,19533.0,0.8,-0.8,-0.30000000000000004,-2.2,1.2000000000000002,9.200000000000001,42.3,-8.899999999999999,-10.1,16
1165,19551.0,1.2000000000000002,-0.8,-1.2000000000000002,-1.9000000000000001,1.4000000000000001,8.200000000000001,49.699999999999996,-6.699999999999999,-10.200000000000001,16
1166,19568.0,1.0,-0.9,-1.7000000000000002,-2.0,1.4000000000000001,7.7,50.5,-5.0,-11.6,16
1167,19583.0,0.7000000000000001,-1.1,-2.3000000000000003,-2.4000000000000004,1.2000000000000002,7.0,51.2,-7.200000000000001,-12.7,16
1168,19599.0,0.6000000000000001,-1.3,-2.6,-2.4000000000000004,1.2000000000000002,6.7,51.6,-11.6,-11.700000000000001,16
1169,19616.0,0.7000000000000001,-1.4000000000000001,-3.1,-2.3000000000000003,1.2000000000000002,6.2,51.2,-21.500000000000004,-8.8,16
1170,19636.0,1.1,-1.4000000000000001,-3.2,-1.7000000000000002,1.3,6.0,45.7,-25.900000000000002,-5.0,16
1171,19657.0,1.4000000000000001,-1.5,-3.0,-1.4000000000000001,1.4000000000000001,6.2,37.0,-25.200000000000003,-3.8,16
1172,19666.0,1.4000000000000001,-1.4000000000000001,-2.8000000000000003,-1.3,1.5,6.300000000000001,32.1,-26.9,-3.3000000000000007,16
1173,19683.0,1.6,-1.5,-2.0,-1.0,1.4000000000000001,7.1000000000000005,18.700000000000003,-24.7,-1.6,16
1174,19700.0,1.5,-1.6,-1.5,-1.1,1.4000000000000001,7.6000000000000005,12.299999999999999,-19.1,-1.3,16
1175,19716.0,1.2000000000000002,-1.7000000000000002,-0.7000000000000001,-1.4000000000000001,1.2000000000000002,8.4,7.300000000000001,-15.299999999999999,0.30000000000000004,16
1176,19733.0,1.1,-1.8,0.0,-1.4000000000000001,1.2000000000000002,9.1,9.0,-9.4,3.4,16
1177,19752.0,0.7000000000000001,-1.7000000000000002,0.30000000000000004,-1.8,1.3,9.4,11.5,2.8,5.300000000000001,16
1178,19767.0,0.4,-1.7000000000000002,0.4,-2.1,1.3,9.5,13.8,5.8,6.4,16
1179,19783.0,-0.1,-1.7000000000000002,0.2,-2.6,1.4000000000000001,9.3,17.799999999999997,3.9,10.700000000000001,16
1180,19799.0,-0.2,-1.7000000000000002,0.1,-2.6,1.4000000000000001,9.200000000000001,18.3,0.8,13.3,16
1181,19816.0,0.0,-1.4000000000000001,-0.30000000000000004,-2.5,1.8,8.8,18.0,-4.4,16.6,16
1182,19833.0,0.0,-1.1,-0.5,-2.5,2.1,8.5,16.900000000000002,-6.300000000000001,18.0,16
1183,19850.0,-0.2,-0.7000000000000001,-0.30000000000000004,-2.5,2.3000000000000003,8.6,13.200000000000003,-7.8,18.0,16
1184,19866.0,-0.2,-0.5,-0.1,-2.6,2.7,9.0,0.5,-8.8,16.1,16
1185,19883.0,-0.8,-0.6000000000000001,0.5,-3.1,2.7,9.5,-12.299999999999999,-1.9,14.5,16
1186,19900.0,-1.1,-0.4,0.8,-3.5,2.8000000000000003,9.9,-16.900000000000002,2.3,14.700000000000001,16
1187,19917.0,-1.4000000000000001,-0.2,0.8,-3.7,2.9000000000000004,9.9,-15.000000000000002,5.0,14.5,16
1188,19936.0,-1.8,-0.2,0.4,-4.2,3.0,9.5,-9.0,7.8,15.899999999999999,16
1189,19957.0,-1.2000000000000002,0.1,0.5,-3.6,3.2,9.600000000000001,-12.7,10.200000000000001,18.5,16
1190,19966.0,-1.0,0.2,0.8,-3.4000000000000004,3.3000000000000003,9.9,-20.7,17.300000000000004,16.3,16
1191,19983.0,-1.2000000000000002,0.6000000000000001,1.5,-3.7,3.6,10.600000000000001,-43.50000000000001,39.2,10.600000000000001,16
1192,19999.0,-1.6,0.30000000000000004,3.0,-4.3,3.2,12.100000000000001,-70.2,66.60000000000001,1.4,16
1193,20016.0,-2.5,-0.2,3.5,-5.300000000000001,2.5,12.700000000000001,-79.19999999999999,79.7,-2.8,16
1194,20033.0,-3.4000000000000004,-0.8,3.1,-6.5,1.6,12.3,-60.5,64.2,-2.7,16
1195,20050.0,-2.2,-0.5,0.9,-5.4,1.8,10.100000000000001,-10.4,27.2,0.7,16
1196,20066.0,-1.5,-0.1,-0.1,-4.800000000000001,2.3000000000000003,9.0,8.899999999999999,19.6,-0.7,16
1197,20083.0,-1.3,0.5,-1.6,-4.7,3.0,7.6000000000000005,22.5,20.1,-7.1000000000000005,16
1198,20099.0,-1.0,0.4,-1.8,-4.3,2.9000000000000004,7.300000000000001,10.5,4.1,-11.5,16
1199,20116.0,-0.8,0.2,-1.7000000000000002,-4.2,2.6,7.4,4.1,1.4,-10.5,16
1200,20133.0,-0.30000000000000004,-0.4,-1.4000000000000001,-3.7,2.1,7.7,-3.1,7.200000000000001,-0.5,16
1201,20152.0,0.2,-0.5,-1.8,-3.2,2.0,7.300000000000001,-2.0,10.700000000000001,10.8,16
1202,20166.0,0.5,-0.5,-2.2,-2.9000000000000004,2.0,6.9,-2.5,10.0,15.5,16
1203,20183.0,1.2000000000000002,-0.4,-3.0,-2.3000000000000003,2.1,6.0,-7.8,9.3,22.700000000000003,16
1204,20199.0,1.6,-0.30000000000000004,-3.4000000000000004,-1.8,2.2,5.5,-15.000000000000002,5.500000000000001,25.0,16
1205,20216.0,1.8,-0.30000000000000004,-3.5,-1.6,2.2,5.5,-18.200000000000003,3.9,24.599999999999998,16
1206,20233.0,2.0,-0.4,-3.3000000000000003,-1.4000000000000001,2.0,5.7,-24.3,5.6,23.3,16
1207,20251.0,1.9000000000000001,-0.6000000000000001,-2.9000000000000004,-1.5,1.7000000000000002,6.1000000000000005,-27.3,6.9,23.099999999999998,16
1208,20267.0,1.8,-0.6000000000000001,-2.7,-1.6,1.7000000000000002,6.2,-25.7,4.0,24.200000000000003,16
1209,20283.0,2.1,-0.5,-2.2,-1.3,1.8,6.7,-22.700000000000003,-0.6000000000000001,29.1,16
1210,20299.0,2.5,-0.1,-1.7000000000000002,-0.8,2.1,7.300000000000001,-26.9,7.200000000000001,30.000000000000004,16
1211,20316.0,2.4000000000000004,0.1,-1.4000000000000001,-0.9,2.3000000000000003,7.5,-30.9,12.299999999999999,28.3,16
1212,20333.0,1.9000000000000001,0.4,-0.2,-1.5,2.5,8.700000000000001,-42.400000000000006,21.1,24.400000000000002,16
1213,20350.0,0.9,0.4,1.6,-2.5,2.4000000000000004,10.5,-54.0,32.300000000000004,20.599999999999998,16
1214,20366.0,0.4,0.5,2.2,-3.1,2.4000000000000004,11.100000000000001,-56.7,33.800000000000004,19.700000000000003,16
1215,20383.0,-0.2,0.4,2.9000000000000004,-3.8000000000000003,2.1,11.9,-53.300000000000004,28.200000000000003,19.6,16
1216,20399.0,-0.4,0.5,2.4000000000000004,-4.0,2.1,11.4,-38.2,10.8,17.9,16
1217,20416.0,-0.1,0.7000000000000001,2.0,-3.6,2.4000000000000004,11.0,-25.900000000000002,2.6,15.899999999999999,16
1218,20433.0,0.4,1.4000000000000001,1.2000000000000002,-3.2,3.0,10.3,-3.2,-3.7000000000000006,5.0,16
1219,20449.0,-0.1,1.8,1.1,-3.7,3.4000000000000004,10.100000000000001,-1.9,-11.000000000000002,-9.100000000000001,16
1220,20466.0,-0.1,1.7000000000000002,1.8,-3.6,3.3000000000000003,10.8,-11.6,-20.2,-15.100000000000001,16
1221,20483.0,-0.5,1.0,3.4000000000000004,-4.0,2.5,12.600000000000001,-25.8,-20.400000000000002,-24.200000000000003,16
1222,20499.0,-1.1,0.4,3.8000000000000003,-4.5,1.8,13.0,-11.3,-22.4,-22.3,16
1223,20516.0,-0.8,0.6000000000000001,3.8000000000000003,-4.2,2.0,13.0,1.1,-28.800000000000004,-18.4,16
1224,20533.0,-0.2,0.8,3.5,-3.5,2.2,12.8,6.8,-20.1,-12.0,16
1225,20552.0,-0.30000000000000004,1.2000000000000002,3.8000000000000003,-3.6,2.6,13.200000000000001,-9.8,-4.1,-14.600000000000001,16
1226,20566.0,-0.6000000000000001,0.8,4.4,-3.9000000000000004,2.2,13.8,-18.0,3.0,-16.0,16
1227,20583.0,-1.8,-0.6000000000000001,5.2,-5.2,0.7000000000000001,14.600000000000001,-24.5,15.2,-17.300000000000004,16
1228,20599.0,-2.2,-1.1,4.2,-5.6000000000000005,0.2,13.700000000000001,4.800000000000001,1.1,-13.200000000000003,16
1229,20616.0,-1.2000000000000002,-0.9,1.7000000000000002,-5.300000000000001,0.2,12.4,26.6,-12.200000000000001,-10.8,16
1230,20633.0,-0.6000000000000001,-0.6000000000000001,0.6000000000000001,-3.9000000000000004,0.8,10.100000000000001,58.0,-29.300000000000004,-10.5,16
1231,20649.0,0.4,-0.4,-0.4,-2.8000000000000003,1.2000000000000002,9.1,54.699999999999996,-38.2,-14.5,16
1232,20666.0,1.0,-0.4,-0.1,-1.9000000000000001,1.1,10.200000000000001,42.0,-37.9,-18.700000000000003,16
1233,20683.0,1.0,-0.9,1.5,-2.0,0.8,11.100000000000001,18.5,-19.1,-27.6,16
1234,20699.0,0.4,-1.1,2.3000000000000003,-2.7,0.6000000000000001,11.8,26.200000000000003,-16.1,-33.1,16
1235,20716.0,0.2,-1.1,1.7000000000000002,-2.9000000000000004,0.7000000000000001,11.3,49.9,-14.800000000000002,-33.6,16
1236,20733.0,0.1,-1.1,1.1,-2.9000000000000004,0.8,10.600000000000001,60.900000000000006,-12.9,-33.6,16
1237,20750.0,-0.30000000000000004,-1.3,-0.4,-3.3000000000000003,0.8,9.1,76.1,-11.000000000000002,-32.9,16
1238,20768.0,-0.6000000000000001,-1.4000000000000001,-1.6,-3.5,0.9,7.800000000000001,80.9,-12.9,-28.800000000000004,16
1239,20783.0,-0.6000000000000001,-1.3,-2.4000000000000004,-3.5,1.1,7.0,80.4,-18.1,-25.4,16
1240,20799.0,0.0,-1.2000000000000002,-3.3000000000000003,-2.9000000000000004,1.4000000000000001,6.0,69.5,-31.6,-19.5,16
1241,20816.0,0.5,-1.3,-3.7,-2.3000000000000003,1.5,5.6000000000000005,50.8,-32.0,-16.900000000000002,16
1242,20833.0,0.7000000000000001,-1.3,-3.7,-2.0,1.6,5.6000000000000005,41.900000000000006,-31.7,-16.700000000000003,16
1243,20852.0,0.7000000000000001,-1.3,-3.5,-1.9000000000000001,1.6,5.800000000000001,29.600000000000005,-36.1,-16.8,16
1244,20866.0,1.0,-1.3,-3.2,-1.5,1.7000000000000002,6.0,20.900000000000002,-40.800000000000004,-15.5,16
1245,20883.0,1.1,-1.4000000000000001,-3.0,-1.4000000000000001,1.6,6.2,15.5,-37.1,-14.400000000000002,16
1246,20899.0,1.1,-1.5,-2.9000000000000004,-1.3,1.5,6.300000000000001,7.200000000000001,-29.400000000000002,-10.200000000000001,16
1247,20916.0,1.3,-1.5,-2.8000000000000003,-1.0,1.5,6.4,2.5,-31.6,-4.4,16
1248,20933.0,1.5,-1.4000000000000001,-2.5,-0.7000000000000001,1.5,6.7,-0.6000000000000001,-30.4,-1.5,16
1249,20949.0,1.7000000000000002,-1.0,-1.7000000000000002,-0.4,1.9000000000000001,7.5,-9.5,-15.299999999999999,1.3,16
1250,20971.0,0.7000000000000001,-1.0,-0.6000000000000001,-1.4000000000000001,1.9000000000000001,8.6,-20.7,3.7000000000000006,2.7,16
