,ms,accelX,accelY,accelZ,accelWithGX,accelWithGY,accelWithGZ,rotRateAlpha,rotRateBeta,rotRateGamma,interval
0,1.0,1.0124632976729422,1.0350742848664523,-0.6828028156965971,2.050633356597647,-2.6916809241697193,-9.694123106494546,10.201152195244381,20.563107534118373,46.68983103403526,0.01666666753590107
1,52.0,-0.3060639908768236,0.26505846514105796,-0.15689444302022457,0.7462427299499511,-3.8443399704530834,-8.998606939697265,0.23312921737006526,-3.1459868392551655,-29.415650830574783,0.01666666753590107
2,57.0,-0.21849742417000234,0.3082347590446472,-0.15946926194429398,0.8423101446289568,-3.7984009338378906,-9.001449469646811,-0.28922489401271884,-2.450369211442979,-30.07719563282554,0.01666666753590107
3,74.0,-0.16407003373801707,0.23749065925776958,-0.2258347082555294,0.9253589416503906,-3.8582559753417964,-9.069385526275635,-1.3323201782779592,-1.3559285137006967,-30.863681670468754,0.01666666753590107
4,91.0,0.040449133962020274,0.25810703856796025,-0.4355523944467306,1.171662510504201,-3.8196497658327218,-9.28217019882202,-1.7597814843459776,-0.34896012766806367,-31.994610732861123,0.01666666753590107
5,111.0,0.30254524216614664,0.33144933815449473,-0.6352092898726462,1.4680945304870605,-3.733458213806152,-9.483283138275146,-0.9156467291171526,0.6458156236441561,-31.454243731770152,0.01666666753590107
6,124.0,0.4235548634652048,0.36672201932668685,-0.6814537391752005,1.6229694503784178,-3.689315412957966,-9.529072245025635,1.7437618092562417,-0.588971374276725,-31.06232064700565,0.01666666753590107
7,141.0,0.5714737536735832,0.4121101440608501,-0.6622036797821521,1.8109142807006835,-3.642778118188679,-9.504830368694662,6.327705813153253,-2.3043205570810654,-31.827414532168383,0.01666666753590107
8,158.0,0.5906700370527803,0.3258154239207506,-0.5090642053812742,1.8579003421507774,-3.736002053070068,-9.344569079589844,8.891027143561201,-3.7414154103401973,-33.311935657703145,0.01666666753590107
9,174.0,0.5454864949800073,0.2321454988375306,-0.45813364408910273,1.838298108319193,-3.8397012047365306,-9.285312588500975,9.248574740006676,-5.111684119646747,-33.39158249361466,0.01666666753590107
10,190.0,0.5332612196572125,0.0830541307836771,-0.29551906985640525,1.8552070114135741,-4.000262353570759,-9.113079122051596,7.653775941453827,-6.11377831193293,-31.326317703710398,0.01666666753590107
11,208.0,0.46346828311532734,-0.09963321740180253,-0.12202128255963325,1.802384937286377,-4.187608633477986,-8.934860735973714,5.425870260146395,-7.101169241370191,-29.456532927851896,0.01666666753590107
12,224.0,0.38587431743368505,-0.16225070935636757,-0.019137831190228462,1.7384898266114293,-4.249408963830769,-8.830264635467529,2.573132683707261,-7.419894896346958,-27.569433622447413,0.01666666753590107
13,241.0,0.2884798188693821,-0.2050020558461547,0.0031131635844707487,1.6573862453736363,-4.282628219604492,-8.809913336834311,-0.31190392350193796,-6.520952355340424,-24.80331629161897,0.01666666753590107
14,258.0,0.28240634417459365,-0.18754443282783032,-0.13776304157078265,1.662773199108988,-4.254646279962361,-8.953865296173095,-1.2932246023556293,-5.010729227958905,-22.074363727611857,0.01666666753590107
15,274.0,0.2752041577108204,-0.14997750323861836,-0.19424714533686638,1.66786087763682,-4.205564853668212,-9.013720337677002,-2.1184493385370393,-3.418335723210958,-19.787382459512514,0.01666666753590107
16,291.0,0.3730181968614459,-0.12165537185668944,-0.3189057906627655,1.7817349479675293,-4.1612718306943774,-9.14315628040731,-2.63072910765704,-3.5110011131239327,-16.451087766960576,0.01666666753590107
17,307.0,0.4003634460352361,-0.054014791043102736,-0.2905447885751724,1.8168999309815466,-4.082862018585205,-9.118466075786948,-1.7066692930297238,-4.1594473200938955,-14.565644782429821,0.01666666753590107
18,324.0,0.41412952105924483,-0.011660042655467986,-0.30637773300111293,1.834257746887207,-4.032284508514404,-9.137470635986327,-1.2706951166566365,-4.8300860923377,-12.790285664299455,0.01666666753590107
19,341.0,0.4820438042476773,0.014866437481343746,-0.2914899604707956,1.9015948147095738,-3.9942765571594236,-9.127893829345702,-2.464580060341425,-7.306647798587208,-11.25533469080155,0.01666666753590107
20,358.0,0.40914544903635974,0.0022848960667848587,-0.04695230531096458,1.8197428993225098,-3.994426194763183,-8.890418952178955,-4.619665039482531,-10.754621206710732,-11.179273704204288,0.01666666753590107
21,373.0,0.374983651715517,0.047863282676041126,0.06261924552023411,1.7682675636291503,-3.9312791259765625,-8.791507911571859,-7.130602660937891,-14.298189942457755,-11.42741959939273,0.01666666753590107
22,391.0,0.2761855699636042,0.05942337208837271,0.2731862420171499,1.6332944450378417,-3.88803385848999,-8.600720551300048,-9.856649406339987,-18.110285857876537,-11.093136481033966,0.01666666753590107
23,408.0,0.12572145225182174,0.11904460483640432,0.29836510693728924,1.450586930847168,-3.8007954277589917,-8.592640120697022,-10.476078408394796,-18.92810880343177,-10.945711116667471,0.01666666753590107
24,424.0,0.060571373079717154,0.12109043145030736,0.30326690750420093,1.3539210388183593,-3.7708679070070383,-8.604611128997803,-10.335484086971961,-17.265236070742343,-10.876146493744537,0.01666666753590107
25,441.0,-0.06686711222305894,0.14923194556832312,0.25545710858106613,1.1938089489258825,-3.7068230125978587,-8.672696238708495,-9.749958436409802,-13.401252915746266,-10.694475414653246,0.01666666753590107
26,458.0,-0.18831921659260986,0.1529521351352334,0.35763211942017076,1.0565909740172326,-3.6762966491699216,-8.584259830364584,-10.558800536980113,-8.989773749713015,-10.92679746908206,0.01666666753590107
27,474.0,-0.20920579114630816,0.16687281619906424,0.372743763834238,1.0302549018859863,-3.6318545731142162,-8.582913091930747,-12.645231229348601,-5.464318675644866,-10.879299479820146,0.01666666753590107
28,491.0,-0.21966595649272203,0.11664192760884762,0.3759504509210586,1.02142628326416,-3.633051673944294,-8.60012141636312,-15.441691675564828,-2.6453254353567686,-12.22443864250975,0.01666666753590107
29,508.0,-0.11313114300891756,0.14082330592423675,0.23636662366390226,1.1372457885742187,-3.5667619232177734,-8.755894161877036,-16.642203290126705,-0.47720285238972393,-13.23024888459124,0.01666666753590107
30,524.0,0.004203589169681072,0.1569581559062004,0.10628361520171165,1.2665326782226562,-3.5072064491823314,-8.902090685272217,-16.085715335047208,-0.23414560821550134,-13.824059554616626,0.01666666753590107
31,541.0,0.205784730656445,0.2096454977378249,-0.17517419607639312,1.4870986522950231,-3.4011130958557128,-9.202412771496176,-13.44838890498217,0.8985077567771809,-14.242507679022873,0.01666666753590107
32,558.0,0.3386516707487404,0.2676578339844942,-0.28532267001271244,1.6341922706604004,-3.309833865301311,-9.323768868145345,-10.6515399917569,-0.3891478668469344,-14.56672736741327,0.01666666753590107
33,574.0,0.3745141345076263,0.2517342886656523,-0.30516894173324105,1.6810289867676793,-3.299209887695312,-9.35249987258911,-7.472378069929336,-1.766210399902252,-15.56772744877178,0.01666666753590107
34,591.0,0.40754195936247706,0.2082251095458865,-0.2576870595902204,1.7259201217651365,-3.317914588165283,-9.312994960674644,-3.9147775643061684,-2.9130556173297513,-16.200064654584267,0.01666666753590107
35,608.0,0.46454921021983026,0.14800415733903646,-0.30412849276959897,1.7901147999085485,-3.3659482589721677,-9.363124142456055,-1.7340462920487216,-3.3952934397156853,-15.64601849213305,0.01666666753590107
36,624.0,0.4734649226032197,0.10399258165508508,-0.3065788085311651,1.804779138946533,-3.402909039361775,-9.367463048443197,-0.18630161384322974,-2.887420209827401,-13.342095793571138,0.01666666753590107
37,641.0,0.4458851340211928,0.047507308845221995,-0.294396787828207,1.783381107739359,-3.45378553237915,-9.356540087890625,-0.20228808514225446,-2.8683131825111134,-9.94219411059981,0.01666666753590107
38,658.0,0.36570538963004945,-0.052879065011441705,-0.19919453861117362,1.7043723068237304,-3.5501521492004393,-9.262716725811362,-0.7128949114828513,-3.1767660195327703,-8.618669935312358,0.01666666753590107
39,674.0,0.32104514077901836,-0.07406213829368352,-0.15514730709195135,1.6585832000732421,-3.5654151847839355,-9.221118056488036,-1.834757217917148,-4.1752993353838495,-7.631606854955258,0.01666666753590107
40,691.0,0.2959706130161881,-0.10489128406047821,-0.11778583694696426,1.630152201489359,-3.5844191604614255,-9.188796334075928,-3.039426069806035,-4.047040335602057,-6.177053184403928,0.01666666753590107
41,708.0,0.3282711465097964,-0.028669629645347593,-0.2702764920502901,1.6623241401672362,-3.497330367334187,-9.345466905212401,-3.105834505002188,-3.493764276979759,-4.971088517563443,0.01666666753590107
42,724.0,0.3449452179349959,-0.011834522439539431,-0.3283610167503357,1.6766892039977013,-3.4720413200378415,-9.407117013439535,-2.1472620646639147,-2.9680838901516053,-3.693302277166158,0.01666666753590107
43,740.0,0.35902854221463204,0.035650866834819314,-0.36820670492649077,1.6897079677857458,-3.4199674339294432,-9.448866489410399,-0.6533659175239291,-2.5071684242505703,-2.479812662851023,0.01666666753590107
44,758.0,0.3246799901500344,0.013189151918888092,-0.3513356496244669,1.650054002789408,-3.441814816339314,-9.433004903411865,0.7683825678872416,-3.7945333646285633,-2.14164978360028,0.01666666753590107
45,774.0,0.3166371150784194,0.028114333850145338,-0.3421650856971741,1.633893141583353,-3.429095327758789,-9.42417570026815,1.6713091902531563,-5.43595375379545,-2.2233892187187614,0.01666666753590107
46,791.0,0.28305399442836643,0.02705167305469513,-0.2825491136461496,1.584512586212158,-3.435978657531738,-9.364619933971762,2.7885574904596977,-7.379670204777461,-2.91257878474832,0.01666666753590107
47,808.0,0.20076032662317156,0.009933949515223502,-0.26687866630554197,1.488894157409668,-3.4585739356994627,-9.348758932495116,3.432163227742237,-8.092372270137965,-2.8980061492672746,0.01666666753590107
48,824.0,0.19405030759051442,0.016136019025743006,-0.2789174791455269,1.4648025032043457,-3.4605195168092844,-9.36013139038086,4.89169653308533,-9.665782331304918,-3.2340198668069906,0.01666666753590107
49,840.0,0.1294037940263748,-0.039615678812563414,-0.19538170232474802,1.381903416851908,-3.527856438501179,-9.274688318634032,6.650578673616687,-9.669327199484155,-2.8330817861117183,0.01666666753590107
50,858.0,0.04893756084404886,-0.13016542604863643,-0.14821663104593752,1.2747628194946794,-3.639037178094685,-9.223212982940673,7.661891059961449,-10.45722281741733,-1.9877647678262464,0.01666666753590107
51,874.0,0.057593087921291586,-0.15669862818717956,-0.1599070688396692,1.2602479719299822,-3.6828807037353513,-9.231292829021811,7.906269252048981,-10.889719787172647,-0.6504627136007035,0.01666666753590107
52,891.0,0.008562953422963619,-0.20086217956244945,-0.16694295882582663,1.1789946800231932,-3.7505169006347656,-9.233387755474448,7.492412722312276,-10.806608337804638,0.521205438983032,0.01666666753590107
53,908.0,-0.014943521305546164,-0.228968622367084,-0.26010055047273634,1.1312603574890643,-3.7951089065551757,-9.323170902252198,6.898308781039404,-11.22435807536825,0.44136335571078605,0.01666666753590107
54,925.0,-0.047759676171094174,-0.25204876144230365,-0.18799217659533024,1.0711060407776385,-3.832967512567341,-9.248651375579833,5.961388680700306,-11.974220638681855,0.6171904075543384,0.01666666753590107
55,941.0,0.027145488817989824,-0.1613017380684614,-0.17549100694060324,1.1052234875001012,-3.7612908081054686,-9.233537977600097,6.417450229978989,-13.677358190302154,1.6393089002180001,0.01666666753590107
56,958.0,0.04750964693278074,-0.11929478020519017,-0.21196809546649456,1.0922049429077654,-3.735403502655029,-9.267505129131674,6.664278752431263,-14.058507505424606,2.1957457356004273,0.01666666753590107
57,974.0,0.07735781883820891,-0.09000964901000261,-0.2327753211736679,1.0874165395874529,-3.7226840140745043,-9.285611279186606,6.543757076318627,-14.004733426089096,2.490187933643684,0.01666666753590107
58,991.0,0.19957608527466653,-0.014278116199374198,-0.2937000377357006,1.1614872995790093,-3.6682162185668945,-9.343221756634115,6.576403673003996,-14.598316992324579,3.337148893085013,0.01666666753590107
59,1008.0,0.30006628483198583,0.08908756572902202,-0.3268435979247093,1.22493364357315,-3.5830727142885324,-9.372850586700439,7.9382601505740285,-14.597393209239334,3.3888299463267377,0.01666666753590107
60,1024.0,0.26681035030968486,0.06643997285217046,-0.2638029121220112,1.1553520116943865,-3.626317981775105,-9.305064752197264,8.919125688032988,-14.327235321903235,2.253530203195793,0.01666666753590107
61,1041.0,0.20980572980083523,0.08419540977329015,-0.19487433732450007,1.053598441137746,-3.6373908721923827,-9.228599352154134,9.071524283888898,-13.613521534771921,0.3869309635331628,0.01666666753590107
62,1058.0,0.20663827874585985,0.10483838482946156,-0.08551789054870605,1.0193315029419958,-3.637840077264607,-9.113378981781006,8.879028208736782,-12.389843626092656,-0.35635375408374953,0.01666666753590107
63,1074.0,0.21512875145450233,0.11686200010031461,-0.04336275638639927,1.0009260776795446,-3.647117316436767,-9.064746760559082,9.304566923275148,-10.70697209951343,-0.5458239487118437,0.01666666753590107
64,1091.0,0.17022672973684966,0.1013254082724452,-0.0007616320222616196,0.9270050283569842,-3.692607147979736,-9.012073739513754,9.648768330082417,-8.069893263805806,-0.8615746827791004,0.01666666753590107
65,1107.0,0.06753894707001745,0.00022328736186027524,0.17220716296434402,0.807743858160451,-3.8147114326477047,-8.831611373901367,8.417668567096285,-6.555191666762875,-1.1452003157762898,0.01666666753590107
66,1124.0,0.06373392876386642,-0.01915741267353296,0.2441775896757841,0.7905356067933141,-3.8518218506410715,-8.75320126953125,6.998601144377755,-5.721558113939532,-0.4554571842588429,0.01666666753590107
67,1141.0,0.10083674797266722,-0.03912292685955763,0.3295978650689125,0.8179192152161151,-3.8869866875246166,-8.662071968841552,5.30097726296495,-4.589443159952518,0.6616417589204574,0.01666666753590107
68,1158.0,0.026865210571885106,-0.10233166270554066,0.3560270223110914,0.7393594732422382,-3.957465706634521,-8.632892636108398,3.5165732668261938,-3.3535921466249956,1.1099627295179593,0.01666666753590107
69,1174.0,-0.0007918079648166895,-0.1492345759168267,0.3643921150743961,0.7059904337342828,-4.008941042327881,-8.623016554260253,1.2764714289820573,-2.4071842731985154,1.0901428012070518,0.01666666753590107
70,1191.0,-0.020171338956430553,-0.17212240729033945,0.35925416766405105,0.6833950094360858,-4.031835887964069,-8.628403507995605,-0.9289690130932625,-0.4307965461366739,2.123239649022745,0.01666666753590107
71,1208.0,0.07323847388587891,-0.07944032420068979,0.3484469424456358,0.7755718464173376,-3.937713542938232,-8.639925603485107,-1.4036319422462409,0.03166526392028157,3.223656121958554,0.01666666753590107
72,1224.0,0.10139642768204211,-0.037542964191734786,0.37193653910458085,0.8016087164063006,-3.8934208122253415,-8.617629016003011,-1.8036717463439507,0.468905826734598,3.656898649550459,0.01666666753590107
73,1241.0,0.013190320962667465,-0.037487726873159405,0.4944973353683948,0.712724052838236,-3.887884513147175,-8.49747002018392,-3.7507552671433664,1.3757909172505052,2.9824569560428396,0.01666666753590107
74,1258.0,-0.013835633128881454,0.009485328964889048,0.5078986687332392,0.6862381969727576,-3.832219324548542,-8.487744160461425,-5.527165807519093,1.5869111040002475,2.5989830287250553,0.01666666753590107
75,1274.0,-0.07884082393757999,-0.0196133397474885,0.4899228670597076,0.6250363439697771,-3.848379893493652,-8.510937404522299,-6.3623698769647135,3.6668314521509506,1.8591740769828857,0.01666666753590107
76,1291.0,-0.22664039861522614,-0.07425619956105947,0.4333592683166265,0.49320554199218747,-3.882048354339599,-8.575132521057128,-7.937989504328167,7.261174960414202,0.35887097227759013,0.01666666753590107
77,1308.0,-0.28198139676079154,-0.124733464127779,0.26621757204830643,0.45983635635375975,-3.913023046056926,-8.748711556896566,-9.37761665022208,11.28914498096676,0.3038415255169726,0.01666666753590107
78,1324.0,-0.26796412345468995,-0.12260551218837498,0.15206687673330307,0.5047276374816895,-3.8889319763734935,-8.869469687652588,-9.891502154127268,15.217275565100303,1.1000908650114696,0.01666666753590107
79,1341.0,-0.18774397398792206,-0.09450754495114087,-0.04716799388825893,0.6350622095521539,-3.8316204818725583,-9.076418493652342,-9.526992887370259,17.829616309407786,1.3307761286387132,0.01666666753590107
80,1358.0,-0.15084135352633893,-0.0794397396788001,-0.10901450147032737,0.7122750669617205,-3.7963062996461985,-9.14285700519979,-9.601319859691984,18.757890244031294,0.6158500362905763,0.01666666753590107
81,1374.0,-0.09715594056807458,-0.06379705712795257,-0.17613982623815536,0.8072949453491717,-3.7593458115175364,-9.214683639526367,-9.635514347998006,17.975667951977464,0.4739374883579289,0.01666666753590107
82,1391.0,0.03703786421380937,-0.07879355072975158,-0.3523527177125215,0.9880572437562047,-3.748870886993408,-9.396493328094483,-8.237301200362818,15.430934127622058,0.36510303964755075,0.01666666753590107
83,1408.0,0.1259087915174663,-0.11385784984827041,-0.5065191970735788,1.107617543029785,-3.7681741378784177,-9.553761865124105,-6.666544240801592,13.614130275381699,0.16844228332944633,0.01666666753590107
84,1424.0,0.16214038084968924,-0.13769202216118573,-0.5439776978522539,1.1725603361267596,-3.7783497871950265,-9.593566052246093,-5.061487351889031,10.763681452644754,0.5560308126527815,0.01666666753590107
85,1441.0,0.24553024639375506,-0.15637071140706538,-0.5592004014253616,1.2844893368043004,-3.7840360161378976,-9.610774376678465,-3.529155969381238,8.42171972304775,1.879493676320262,0.01666666753590107
86,1458.0,0.2876696715302765,-0.14672960735857485,-0.49370472368597984,1.342099741186574,-3.766677469579875,-9.546579260143638,-3.6362117141017833,6.705174083199892,3.30626341798845,0.01666666753590107
87,1474.0,0.28404117883481084,-0.15063362905979155,-0.4838321489691734,1.3489830709595232,-3.7626378388002513,-9.53864905166626,-3.9016119477941458,5.03121253839295,3.7444168515935945,0.01666666753590107
88,1491.0,0.1998641084358096,-0.18765753781348465,-0.4145429241657257,1.2741642690796404,-3.7882258690431714,-9.472808506011962,-3.9269301783869137,3.9724730259989123,3.2381143517710016,0.01666666753590107
89,1508.0,0.17565014302507043,-0.170504450699687,-0.4493681538313627,1.2566566694397479,-3.7636853020265697,-9.509768994140625,-2.7395878088750565,4.027008671426879,2.9106872492350493,0.01666666753590107
90,1524.0,0.18227606397084892,-0.1684124468564987,-0.5076186827480793,1.2710218794006853,-3.7578491432189938,-9.568576572418213,-1.0037021682271918,4.656845601116319,2.5760009362718432,0.01666666753590107
91,1540.0,0.20915362256765366,-0.1654799005359411,-0.4981155258655548,1.3081320051331071,-3.755006321008503,-9.55780266494751,0.5594134638392304,5.7408363228718935,2.821759466901953,0.01666666753590107
92,1557.0,0.2523912182044238,-0.1576426310390234,-0.43282092365622515,1.3663411060608923,-3.752611827087402,-9.488520454406737,2.2916872684374807,5.6541475619260915,2.558242871316633,0.01666666753590107
93,1574.0,0.2430786154579371,-0.16131459755003452,-0.3886953662037849,1.3691841474670916,-3.7630867516115307,-9.440187508392333,2.8444502090983814,6.142523589941751,1.9685589162104054,0.01666666753590107
94,1590.0,0.2751933440558612,-0.12678864309191704,-0.34436639513373374,1.4179660062927752,-3.7397429931640622,-9.389310723114013,4.121247352726484,5.357435179757452,1.415998533347078,0.01666666753590107
95,1607.0,0.3223433638960123,-0.10786620821803808,-0.3281464972168207,1.4757261213440447,-3.733009300994873,-9.366865082550047,5.972567565937501,4.8380069773407985,1.5412046520132856,0.01666666753590107
96,1624.0,0.3249538386553526,-0.10316343735456467,-0.3121820353657007,1.4887445928711442,-3.7440827759340403,-9.343221756634115,6.880251895308006,5.044168553474817,1.8045103655079813,0.01666666753590107
97,1641.0,0.3237786573961377,-0.07214023032039403,-0.2600286542803049,1.4989199499268084,-3.7358524154663084,-9.280374547576903,7.110628199597012,3.6905817274423773,2.4005357243717427,0.01666666753590107
98,1657.0,0.259883838982135,-0.10349836839735507,-0.1327110188782215,1.4420576604980975,-3.7844846366882323,-9.145102153778076,6.976203673428814,3.7243471944911586,2.7942092585544716,0.01666666753590107
99,1674.0,0.2340831158366054,-0.08523644325882196,-0.09210136059224605,1.4223054968018083,-3.7831378982543944,-9.09676862324178,6.989093521053098,3.104084695914195,2.818485671855401,0.01666666753590107
100,1691.0,0.15277107947990298,-0.06515460921674966,0.002749006447196007,1.3474867679871618,-3.786429925537109,-8.991423750194906,7.308004444911102,3.288536088884505,3.7916032134746276,0.01666666753590107
101,1707.0,0.031464447995647786,-0.03870177883803844,0.14170096554160116,1.2336124784607438,-3.7768531188964842,-8.844480207824706,6.64214040178396,4.322332817646713,3.9643083886198083,0.01666666753590107
102,1724.0,-0.04309921007938683,-0.039549627839028836,0.18825287335813046,1.167023671722412,-3.7919662246152757,-8.790909361156821,4.869115073915622,4.613012862117762,4.078261130298185,0.01666666753590107
103,1741.0,-0.1906760819170624,-0.023744448202848434,0.32606267668008804,1.0332476539611817,-3.789572315216064,-8.64561124790609,3.1524842701465516,5.389222453267869,3.9145069180603067,0.01666666753590107
104,1758.0,-0.27392566220760345,0.05240706358551979,0.35028234117925167,0.9624692135132848,-3.7204400345399975,-8.616731774902343,2.0708209353506595,6.29990267436307,4.73600663982312,0.01666666753590107
105,1774.0,-0.30695071058347817,0.08564531632065772,0.3146259213864803,0.9403227020263671,-3.692607440240681,-8.648604584503174,1.3054553367250066,6.3160462533532185,4.826903224184473,0.01666666753590107
106,1790.0,-0.38632001537457106,0.11338847877085208,0.2973082913607359,0.8768763580322265,-3.6694136116579172,-8.661772693634033,0.07805413451464957,7.172875982371569,3.6102450424246872,0.01666666753590107
107,1807.0,-0.4144255813963711,0.1390925366088748,0.30046997026205063,0.860565859222412,-3.645022097723186,-8.65638515537679,-0.8054374647124715,6.880786784497382,2.4722800314135567,0.01666666753590107
108,1824.0,-0.40798692665100095,0.15618863283842802,0.2908855648368597,0.8795698348999023,-3.626168344171345,-8.664914498791099,-1.6450676034619671,6.6636542170090305,1.6298423647500684,0.01666666753590107
109,1841.0,-0.4133521069459617,0.15355536172538994,0.220785023650527,0.8916904808044434,-3.6233249374389644,-8.734795259746909,-2.8236132229313764,7.3428384096781665,1.357737553335398,0.01666666753590107
110,1857.0,-0.37496976932063697,0.14601678291410206,0.08395955519080162,0.9431659626282751,-3.624671968133747,-8.872312217602133,-3.0622914087131217,6.877865597966733,0.9320977733416573,0.01666666753590107
111,1874.0,-0.38219329083338377,0.13121259701400995,0.03329027518332004,0.9494507419861853,-3.6324528312683104,-8.923937775421143,-3.195752878208348,6.491820744756673,0.15787534035320192,0.01666666753590107
112,1891.0,-0.39379795003980395,0.07294365565776824,-0.01953355250954628,0.9501989300049841,-3.6834792541503902,-8.977956365856528,-3.0665980564282265,6.314662286272644,-0.8994189467011429,0.01666666753590107
113,1907.0,-0.3598362053357064,0.005901917520165443,-0.0961076736241579,1.0003273811340332,-3.7395930632993575,-9.056665745434165,-3.6592772629289163,5.300752720495986,-1.8312977271025366,0.01666666753590107
114,1924.0,-0.32287761690318584,-0.010152852962911128,-0.12432312976121902,1.0480617767333984,-3.7461774101257324,-9.087192401123046,-3.719442264893443,4.455629508828213,-2.1479023948986034,0.01666666753590107
115,1941.0,-0.2912698879793286,-0.09708499422371387,-0.1338695412635803,1.0890626262940466,-3.8195001282289622,-9.100959060668945,-4.043887776413273,3.7715318488248992,-2.4389841398702137,0.01666666753590107
116,1957.0,-0.2144473450616002,-0.13974661660343407,-0.17074994989335535,1.1650783828735352,-3.8510736626222726,-9.14255831451416,-4.191068107743293,2.5038478850968864,-2.3138789799376753,0.01666666753590107
117,1974.0,-0.1704768320403993,-0.170034495100379,-0.20460604226589202,1.2093711135864258,-3.8708255340576168,-9.1807159034729,-4.160834275382231,1.3566358651666162,-1.8318452094531954,0.01666666753590107
118,1990.0,-0.12004326048493384,-0.18853899682313202,-0.23516601570248602,1.2527661648072301,-3.8804023406982417,-9.216030377960205,-3.5568632720796294,0.2761117312190877,-1.6823440011875466,0.01666666753590107
119,2007.0,-0.10415756295844912,-0.23434651601314543,-0.24457974073588848,1.2608463031493127,-3.916315073339641,-9.230694278606771,-2.8672212060175575,-0.8816440197164194,-1.9586109591276932,0.01666666753590107
120,2024.0,-0.12085823012962936,-0.23254355824440717,-0.2610322783648968,1.240495735168457,-3.9085345024660225,-9.250147167095541,-2.1528047631753804,-1.3846957763809093,-2.4270407003328005,0.01666666753590107
121,2040.0,-0.12498480854034423,-0.22663053480833767,-0.2637754395931959,1.2321161754883825,-3.899555953979492,-9.254786517333983,-0.7577088498443628,-1.3275211166123788,-2.9944693378021876,0.01666666753590107
122,2058.0,-0.15864771642833947,-0.2647778946340084,-0.1971685857415199,1.1969511924743652,-3.937115284784138,-9.188646111950277,0.5118417832394734,-0.7480642492103345,-3.366380608628787,0.01666666753590107
123,2074.0,-0.18404723836183548,-0.2922378562286496,-0.1778980680823326,1.172560409191996,-3.964648603875935,-9.169193807983397,0.21413951722907118,-0.7707179056140041,-3.5815070214918587,0.01666666753590107
124,2091.0,-0.17460341045111416,-0.3120020026236772,-0.11041033974289893,1.182436344909668,-3.984251129968464,-9.101706664165853,0.25093095818336636,-0.9818999909530994,-3.760726916444762,0.01666666753590107
125,2107.0,-0.20778467230200767,-0.3052805854141712,-0.1080634843558073,1.1499651310242711,-3.978115988214314,-9.099013771820069,0.5556542451139317,-0.4388335710360897,-4.085906246413545,0.01666666753590107
126,2124.0,-0.21874255803748963,-0.30507717179656024,-0.11678455094993113,1.1418847004212438,-3.9784149711608885,-9.107094202423095,0.7312371176946562,0.16381226884582395,-4.097625143481995,0.01666666753590107
127,2141.0,-0.20077976197600364,-0.26053397345393897,-0.20344635083675383,1.1649287452697754,-3.9360675292968748,-9.192087776836752,1.2229662883451162,0.8914551062114666,-3.8917094541580965,0.01666666753590107
128,2157.0,-0.19128318096473812,-0.20909926203191279,-0.19206629416644572,1.1789948261536658,-3.888034150750935,-9.178620392498374,1.6449442331700839,0.9607065542887846,-3.8185598356945523,0.01666666753590107
129,2174.0,-0.17013444834351538,-0.19158669395595787,-0.18493980328738688,1.2045827102661133,-3.8741175613403316,-9.169343445587158,1.904767510683425,0.4044072298242569,-4.029902110314025,0.01666666753590107
130,2191.0,-0.14321224688738585,-0.16296148797422647,-0.17438392248153686,1.234360739544779,-3.851522575433552,-9.155875476726889,2.0720200604368197,-0.602784844903694,-4.600536667825088,0.01666666753590107
131,2208.0,-0.13072174475714562,-0.13249094638675452,-0.18699673581719398,1.2455835598267615,-3.8256352699831124,-9.166799021801351,2.0064692408683262,-1.9197996898295653,-4.370042969659722,0.01666666753590107
132,2224.0,-0.08774754929691553,-0.0964627706721425,-0.19624737924337385,1.285835929107666,-3.793463185174763,-9.174880036926268,1.9981530586670129,-2.365920965988353,-3.7886222627887403,0.01666666753590107
133,2241.0,-0.07818126405030489,-0.07124971122145653,-0.21857786899507045,1.2909237537659703,-3.77326181640625,-9.195829301452637,1.5319892327190574,-1.5294926918557121,-2.93534209770468,0.01666666753590107
134,2258.0,-0.01790565904676914,0.007521043154597282,-0.3139507986038923,1.3488333602905274,-3.6969469307497143,-9.290549320110678,1.0404542422122667,-1.1825548337905012,-2.549832987457643,0.01666666753590107
135,2274.0,0.01171893323585391,0.04208206892609596,-0.3337888870179653,1.3778632015503942,-3.6646249160766597,-9.309553880310059,1.3817401187392921,-0.969994117456121,-2.6394373854053943,0.01666666753590107
136,2291.0,0.06318959275409579,0.11668664353340863,-0.2954115178287029,1.4285902030944824,-3.595193067932129,-9.269151727294922,2.288970560695108,-0.9776763727250929,-3.128404865114495,0.01666666753590107
137,2308.0,0.11787088488191365,0.16826894673258067,-0.20431378132104872,1.4826093780517577,-3.5479078774049877,-9.176376412963867,2.3580792684909433,-1.8254192821046828,-3.681462998013587,0.01666666753590107
138,2324.0,0.14597031342387198,0.184674722610414,-0.15814122821092605,1.5087961048401892,-3.534889405877888,-9.129090345653891,1.7980665089128973,-2.4089611895997765,-4.253210022585715,0.01666666753590107
139,2341.0,0.19481193961277604,0.20383593467622993,-0.147350369605422,1.555483037213236,-3.518279339599609,-9.11756883468628,1.828087324749219,-2.0649715186567783,-4.509545314589001,0.01666666753590107
140,2357.0,0.26365575873628255,0.20514146431684493,-0.18332009313106537,1.6232687255859375,-3.5185786148071285,-9.153032362255454,2.714370110129135,-2.4192047658075033,-4.5618005306078295,0.01666666753590107
141,2374.0,0.26549261877462266,0.20424919165223834,-0.1455547183603048,1.6240167674742638,-3.5244144813537597,-9.113378397259115,3.959117871737422,-2.765000594899147,-5.0285859037702565,0.01666666753590107
142,2391.0,0.23918913373872636,0.1571978098809719,0.0360457113713026,1.5972317825317381,-3.5793314819335937,-8.928576541137694,4.24408787806234,-2.8950495311303053,-5.640557193025058,0.01666666753590107
143,2408.0,0.18151435888335107,0.08072276522666215,0.2266489472478628,1.540967897387594,-3.657890931646526,-8.736890186199545,2.6735403064878565,-3.0082246984603587,-5.442191850941787,0.01666666753590107
144,2424.0,0.14238558680489657,0.0414355877161026,0.28435937793850896,1.5037082801818846,-3.695899175262451,-8.679429346355795,0.14895840832983126,-1.8036655564850153,-5.441749169306205,0.01666666753590107
145,2441.0,0.10928498897477984,-0.021602467738091945,0.2510673491895199,1.4799157550536095,-3.747075235748291,-8.716240196880698,-2.1916535985139434,-0.5438449547606854,-4.787834542132001,0.01666666753590107
146,2458.0,0.14706380774900316,-0.032062486954033374,0.16885200731754302,1.5280992095947266,-3.746626615197956,-8.801383993420004,-1.6557047693206157,0.6406694496305217,-4.419378706695193,0.01666666753590107
147,2474.0,0.15492840364426375,-0.04038374057561159,0.15916998673677443,1.545906230572611,-3.749319799804687,-8.811859210205078,-0.9950637931961239,1.969632323127155,-3.856547640310871,0.01666666753590107
148,2491.0,0.16166341098770498,-0.09601122751235962,0.14183715914189815,1.5705962890624998,-3.798101658630371,-8.82921717224121,-2.6537240067149455,3.2925878851662036,-3.5692224993827675,0.01666666753590107
149,2508.0,0.1929965607538819,-0.13156886310577393,0.10469196209609508,1.6175824966430663,-3.825934252929687,-8.867074901470541,-4.823025811170022,4.7672671349938,-2.927194108911678,0.01666666753590107
150,2524.0,0.2384926759071648,-0.11250526619553565,0.08351181142330169,1.6780360885620116,-3.7936128227785226,-8.891316777801514,-6.50260646722977,5.259744691606052,-1.82599792719343,0.01666666753590107
151,2541.0,0.293578895574063,-0.046050388035178184,0.006830722802877426,1.7556981510438023,-3.707421270751953,-8.972420359039306,-7.011280109911414,6.622563798962234,-0.509456019506729,0.01666666753590107
152,2557.0,0.29884003097265954,0.009789572608470916,-0.10802782852053641,1.7800890804566443,-3.6378397850036617,-9.089736240386962,-7.123147082571999,7.000956705867764,-0.18867986703592965,0.01666666753590107
153,2574.0,0.2803258846387267,0.001262275020778179,-0.15807225462794303,1.779939296722412,-3.6312554381772872,-9.14285700519979,-7.251038105912257,7.539086820005558,-0.4341565456410706,0.01666666753590107
154,2591.0,0.31966771494597196,0.03715864104926586,-0.27725802150070666,1.8460792637147008,-3.5754409042358395,-9.265560424804686,-7.67132269743159,7.6428237331197115,0.7148305764214624,0.01666666753590107
155,2608.0,0.41991774907186624,0.11160071857124566,-0.38082887061238285,1.9656395629882812,-3.487603630828857,-9.371204573059082,-6.704982411016308,6.603008113594841,2.0737154414548638,0.01666666753590107
156,2624.0,0.41192397383898494,0.12430939349681139,-0.40285833159089085,1.9711761543273925,-3.4620158928468823,-9.396043830761313,-5.647182049633148,4.905971628450657,2.3157350838446265,0.01666666753590107
157,2641.0,0.3214313636176288,0.0993690135076642,-0.34104105010330676,1.890970398712158,-3.4726398704528805,-9.338134078106284,-4.211749493663269,1.6634913984178419,0.6487345156581317,0.01666666753590107
158,2658.0,0.24078546301946044,0.08388912030309438,-0.33647008892595764,1.8136079036988317,-3.4796731300905344,-9.336339011383057,-2.619424717693845,-0.4907521867948838,-0.9983856130102773,0.01666666753590107
159,2674.0,0.20663900939822197,0.0637587709441781,-0.32953473670482636,1.7788918334960937,-3.495384786224365,-9.331251332855224,-0.07551614560882125,-2.055938593479436,-2.455141379238702,0.01666666753590107
160,2691.0,0.18471403170749545,0.07018442007750272,-0.2631733820468187,1.7562965553283691,-3.4913445709228514,-9.264063464245199,3.361537791063836,-2.1274274087576095,-3.9554658549655803,0.01666666753590107
161,2708.0,0.11199775506481528,0.015125380678474902,-0.13398176946640014,1.6859668815612792,-3.5531449012756346,-9.131784407043456,4.755310888851692,-0.7932150012752923,-4.74850673977789,0.01666666753590107
162,2724.0,0.11627572464495897,0.028670506428182124,-0.09921908364295959,1.695244559124857,-3.548955048370361,-9.092429717254639,5.263840670673944,0.7415598280472196,-4.476274609368223,0.01666666753590107
163,2741.0,0.1879043521814048,0.08418985681533812,-0.057120063582062716,1.7775450950622558,-3.508103982543945,-9.042600395202637,5.90992320530426,2.5476671771605144,-2.420385961647092,0.01666666753590107
164,2758.0,0.20220380342975258,0.13767887041866778,0.03899637787044048,1.8014871116638183,-3.466654658563435,-8.939948999023438,5.777585301927501,3.2176090566655655,-0.855432848611378,0.01666666753590107
165,2774.0,0.1978704504005611,0.18446224890351295,0.09183598765432834,1.805078560284525,-3.4311902542114256,-8.881141420745848,4.406243399147613,2.9659191470715345,0.4979124662008786,0.01666666753590107
166,2791.0,0.16105010139495132,0.2284904834613204,0.18709259740710257,1.7758992275513708,-3.393930783136189,-8.781782051849365,0.47827396478979944,2.3074472896170506,2.993254844790395,0.01666666753590107
167,2808.0,0.1864588295482099,0.32805764988958835,0.15344868648052215,1.803582038116455,-3.2921769203186035,-8.815898840984701,-1.86013201101398,1.2900468568442809,4.646034265433835,0.01666666753590107
168,2824.0,0.17038403919041156,0.3604293489232659,0.11636077257990836,1.7863737136840818,-3.2543188988283274,-8.85540375289917,-3.7026762849151775,0.9645005109293151,6.136574068287847,0.01666666753590107
169,2841.0,0.13907923873588443,0.41345892832130193,-0.04884148005843162,1.752106848553568,-3.1884780609130856,-9.026289311870933,-5.288476736123357,-0.22078690545729354,7.189857540195514,0.01666666753590107
170,2858.0,0.11083104937300085,0.43139556702822446,-0.15119535459578037,1.7199347637452185,-3.158101919610798,-9.134328246307373,-6.076143542719336,-1.2398951256464044,7.515294709805465,0.01666666753590107
171,2874.0,0.10444310190156102,0.41256285626441236,-0.17623977948129177,1.70467158203125,-3.1645360443115234,-9.165901196178794,-6.327481270684289,-2.32318682022911,7.415319523376696,0.01666666753590107
172,2891.0,0.044023558382689953,0.3538397413998842,-0.1651058065265417,1.6303016929626464,-3.202543995666504,-9.165452283367514,-7.076666364609593,-4.689316747317383,5.90366974023229,0.01666666753590107
173,2908.0,-0.036629064217209815,0.2747328869372606,-0.13611176723241805,1.536927974347025,-3.2619501243591307,-9.146448892211913,-7.292923387223714,-6.0443660876058525,4.1116419723193305,0.01666666753590107
174,2924.0,-0.07794657851159573,0.22704408404529094,-0.14313012156188487,1.4802151763916014,-3.291578369903564,-9.163208303833008,-6.6405335997817145,-6.343377255317024,2.176034023099182,0.01666666753590107
175,2941.0,-0.1527854002662003,0.14865940637737513,-0.20050036051273346,1.3899838474549353,-3.346495370483398,-9.232340876770019,-4.35161682682632,-4.655972617563027,-0.1777127710238577,0.01666666753590107
176,2958.0,-0.1393093942299485,0.08665683145076036,-0.30487375817894935,1.398812319946289,-3.3940804207399484,-9.343072119030357,-2.7416323833144176,-2.5411520304659687,-1.1776001718778915,0.01666666753590107
177,2974.0,-0.13456760653033853,0.035522856540977955,-0.28489538451135155,1.401655580548197,-3.438073583984375,-9.326163654327392,-0.8276640208496037,-1.1005846663441203,-2.3365150806207438,0.01666666753590107
178,2991.0,-0.11861162024661898,-0.038005905528366565,-0.17456220165789127,1.4214074519835411,-3.505110938207805,-9.217675807079672,0.16171944285523648,0.5538050781178565,-3.691735602525286,0.01666666753590107
179,3008.0,-0.08097644772678614,-0.11849369295537471,-0.07277765144109725,1.462557939147949,-3.580827857971191,-9.117119921875,-0.2432326946585273,0.6971257122365844,-5.018138275661076,0.01666666753590107
180,3024.0,-0.04633358889073133,-0.13620266038626433,-0.052826165780425066,1.5023615417480467,-3.5941456047058105,-9.09796630859375,-0.7073135263530402,1.2225773944492486,-5.648677007287735,0.01666666753590107
181,3041.0,0.05107961437404156,-0.11961977437585591,-0.12118950791060924,1.6083048190794884,-3.5697546752929687,-9.16784648502767,-1.1489872287842386,2.3061371739568775,-4.564394294945142,0.01666666753590107
182,3058.0,0.18242840498834847,-0.06312281112819909,-0.2139221521437168,1.7461213444031773,-3.508253620147705,-9.261370571899414,-1.0243839810339903,2.2115172827242215,-3.0860004894261173,0.01666666753590107
183,3074.0,0.2228407871365547,-0.03591857786029577,-0.20816110439896582,1.7922097263611851,-3.4778771865844726,-9.255833980560302,-0.8449200669008178,1.7966827552757352,-1.498567196119481,0.01666666753590107
184,3091.0,0.2480094229236245,-0.003462415413558483,-0.14129296926259993,1.8203415958680211,-3.4413656112670896,-9.189993434906006,-1.946169342667692,0.014713027885000826,-0.6582587342080384,0.01666666753590107
185,3108.0,0.20939064619392156,0.00626022943854332,-0.10048048188090324,1.779939296722412,-3.4262522132873534,-9.151536570739745,-3.4930398500409146,-1.273117379212758,-0.6035839770365855,0.01666666753590107
186,3124.0,0.2024260678783059,0.015790566588938234,-0.11589783124327659,1.7700633610047398,-3.407397875213623,-9.170989459228515,-4.302594851605846,-1.672973942141641,-0.41770144599174625,0.01666666753590107
187,3141.0,0.2259698789425194,0.063902563329041,-0.261382406976819,1.7898153785705566,-3.3460464576721187,-9.322122854503988,-3.5400663428066874,-1.3352190599721006,0.49412747418363373,0.01666666753590107
188,3158.0,0.2520850017994642,0.13951017749905587,-0.36856034066975113,1.8143560917176305,-3.2644942558839913,-9.431807218059896,-1.448037243196315,-1.3697705323839622,0.7912395825012777,0.01666666753590107
189,3174.0,0.23580811299830673,0.1214478665858507,-0.32402678693830966,1.7955016075134276,-3.2811037376403807,-9.388263259887696,-0.09367688490015791,-1.447409399401203,0.490531379585622,0.01666666753590107
190,3191.0,0.25006971645429726,0.15136048202961683,-0.20410802961587904,1.8031331253051757,-3.252074042510986,-9.269151727294922,0.7729146652058095,-3.792985046121086,0.260400054972237,0.01666666753590107
191,3208.0,0.19510536960139868,0.07174363221824169,-0.08829904569983482,1.7405847530640661,-3.333177916009724,-9.154080410003662,0.7482492512873067,-3.5086861058821213,-0.34315446687355283,0.01666666753590107
192,3224.0,0.1772897269256413,0.09132482326179742,-0.1155664073318243,1.7161938236512242,-3.313874665124714,-9.182361917114257,0.41002295266290323,-3.8095132501388704,-0.9778285578775372,0.01666666753590107
193,3241.0,0.16963643569350242,0.05128068990409374,-0.15559972703456879,1.7004818752564488,-3.3545760933473705,-9.223512258148192,1.7401297494433816,-2.7563326579555776,-1.8744275969468167,0.01666666753590107
194,3258.0,0.11657441533058881,0.03169979112148285,-0.15101707541942597,1.6473603797912597,-3.376722166442871,-9.217975666809082,2.4273721779509576,-0.9005013182411783,-1.8720393786148395,0.01666666753590107
195,3274.0,0.12015651160106063,0.0012523381486535072,-0.14735563030242918,1.650652553204447,-3.4118870033264157,-9.21258812855184,2.690507136716403,-1.5845900136212066,-1.7259730084497664,0.01666666753590107
196,3291.0,0.058452627360075705,-0.09586860417127609,-0.042868835389614106,1.5910967869080601,-3.5146883293703195,-9.105597826385498,1.9895406170104497,0.16128592594613902,-2.427803973972549,0.01666666753590107
197,3307.0,0.023560762199014425,-0.16089929474741219,-0.0008007949888706207,1.5614683952331543,-3.580079962213337,-9.062502196502685,0.43241479404186445,0.3059068840085345,-2.8064641120293556,0.01666666753590107
198,3324.0,0.05539528561607003,-0.1465592192277312,-0.07509411168992519,1.5963339569091797,-3.5649659797117113,-9.13657222584188,0.4485585864754243,-0.3319104813958309,-2.348242515425656,0.01666666753590107
199,3341.0,0.09160977768301963,-0.1212783552378416,-0.15849837108552456,1.6374842979431152,-3.541174185235798,-9.21857421722412,1.7189174230371433,0.9181212853091071,-1.712968968600297,0.01666666753590107
200,3358.0,0.1107293425641954,-0.10950579211860895,-0.20996961512565612,1.6606782726563512,-3.533093754632771,-9.267954626464844,2.0648682120455817,0.014634467369332457,-1.8797739275196443,0.01666666753590107
201,3374.0,0.10337138101682067,-0.1203285071671009,-0.19440671981275082,1.6552911727905273,-3.548955048370361,-9.250147751617432,2.21471146337826,0.07623056738774872,-2.263296093048442,0.01666666753590107
202,3391.0,0.13599953902959822,-0.07714812161028385,-0.1867342854887247,1.6906055011473595,-3.512742748260498,-9.239373259624838,2.2262604594911055,-0.5618730789923754,-1.3705881273719538,0.01666666753590107
203,3408.0,0.21301438964903355,-0.04969897367060184,-0.18354162692725656,1.7664719123840331,-3.4911949333190915,-9.234135943493246,2.6674765926087662,-1.3808911475698007,-0.9479433853292637,0.01666666753590107
204,3424.0,0.21812954070568083,-0.024250059637427327,-0.18141572081446647,1.7693150268554687,-3.4721912499025462,-9.229946675109863,2.770885229755936,-1.3970959848190676,-0.8059756622747273,0.01666666753590107
205,3441.0,0.20275033139660953,0.0017930208966135978,-0.1284282269924879,1.7500119221009314,-3.454533720397949,-9.17443112411499,2.832025668111305,-1.9751496218726445,-0.6688262641536646,0.01666666753590107
206,3458.0,0.2641108090274036,0.07682225065678358,-0.11867957091629504,1.807622399548441,-3.3865985405519603,-9.162609753417968,3.4186900392741526,-2.305606767079144,-0.5469203541561894,0.01666666753590107
207,3474.0,0.255742647524178,0.06963818437159061,-0.0676730217784643,1.7956513912476597,-3.4024601265504955,-9.108889853668213,3.9345287638385527,-1.5031252801734067,-0.683948729862896,0.01666666753590107
208,3491.0,0.21186331991776822,0.07423457225114106,-0.012297171515226364,1.7518074272155761,-3.4075478050783277,-9.049783000183105,2.7402042334476504,-0.7720694292960204,-0.6745949458771222,0.01666666753590107
209,3507.0,0.20415128423571585,0.065898121060431,0.043673137509822844,1.7452235187806189,-3.4204163467407223,-8.991873247528076,2.1323632876500014,-0.6722117434653166,-0.8264326658082973,0.01666666753590107
210,3524.0,0.15956790001317858,0.045078328132629394,0.0898947904586792,1.7031753521241246,-3.4448072761535644,-8.94383957672119,1.7103358239535513,0.7705831160996022,-1.2926649537305113,0.01666666753590107
211,3541.0,0.1428257317878306,0.04663169505447149,0.07601648723185062,1.6961422386169434,-3.4446576385498044,-8.955510725292562,1.281019801360757,1.0004934734211668,-1.3410649548496911,0.01666666753590107
212,3558.0,0.19274755442887542,0.04804419220089912,0.09831833541095256,1.7537525699339807,-3.4440587958738207,-8.931568708691,1.374624449006314,1.3119279014589456,-0.7137677349535849,0.01666666753590107
213,3574.0,0.16379516231939195,0.024127310040593146,0.13513035497963427,1.7317559883117675,-3.4694977730348704,-8.892962791442871,0.6715890756729348,2.2245748968699934,-0.7863918023770082,0.01666666753590107
214,3591.0,0.10608166288882494,-0.0376382412597537,0.10638415296673774,1.6865655781067908,-3.5287542641237377,-8.920496110534668,-0.7648769199348796,2.116266666210397,-1.4413491006166974,0.01666666753590107
215,3608.0,0.11773308384642005,-0.0391153280749917,0.06936345908343791,1.7076643341064452,-3.527257595825195,-8.957007101330161,-1.074739657411615,2.890009705296482,-1.0595691669347822,0.01666666753590107
216,3624.0,0.15358970238640904,-0.009224924463033676,0.029236031356453893,1.7525557613648473,-3.4952351486206052,-8.996362375640869,-0.3396474848998686,3.130854555149002,0.12510798805774176,0.01666666753590107
217,3641.0,0.17288097057268023,-0.01620031643360853,-0.027985154512524604,1.782483135986328,-3.5021184783935544,-9.051728289031981,0.08636982979818059,2.461011499943505,0.9878788610760936,0.01666666753590107
218,3658.0,0.08852277145311235,-0.015265081410109996,-0.004184592208266258,1.7057190452575683,-3.50152022023946,-9.026439533996582,-0.795694359944007,2.5425882911823754,0.5532653330908669,0.01666666753590107
219,3674.0,0.0580630435205996,-0.03047141837030649,-0.027871757265925407,1.6811784782409667,-3.5140894866943357,-9.050082275390624,-1.9308968262401318,1.8451745370618868,-0.20914780954434226,0.01666666753590107
220,3691.0,0.05403861031010747,-0.029186346995830535,-0.10442249750494956,1.6838719551086425,-3.5060093483522534,-9.128042882427573,-2.519066827228144,1.3434321490056294,-0.2894834273449744,0.01666666753590107
221,3707.0,0.06453048596903681,0.0015045593440532684,-0.20570143628716467,1.6997335411071777,-3.470395598657429,-9.230245950317382,-1.5757269893994688,0.8191440535511003,0.13501352326240565,0.01666666753590107
222,3724.0,0.07102554707676172,0.011558920368552206,-0.24110358905792234,1.7081133930481969,-3.458125315149128,-9.266158975219726,-0.4522833874506084,-0.07212186175644225,0.20846937966068957,0.01666666753590107
223,3741.0,-0.004733896654099226,-0.030645898154377935,-0.241436182013154,1.6329951698303222,-3.4997245689943433,-9.266607888031006,-0.19190386306652113,-0.7227399888411901,-0.4598461677699579,0.01666666753590107
224,3757.0,-0.02375833059772849,-0.044890404345095156,-0.25110592763423917,1.6121955429077148,-3.5134909362792968,-9.27678324508667,-0.13166935859110426,-1.7486214888507057,-0.8973545220245065,0.01666666753590107
225,3774.0,-0.027391426403075455,-0.05372632949054241,-0.2533113287240267,1.6048634464539586,-3.522020571954548,-9.279775997161865,0.30942365769872415,-2.1285934501149777,-1.0733409627356434,0.01666666753590107
226,3791.0,-0.006863309898227453,-0.0425312739983201,-0.2460562430292368,1.6189292350769042,-3.512892385864258,-9.272892667388916,1.683681224160988,-2.687348601112095,-0.8615176933882132,0.01666666753590107
227,3808.0,-0.030587153704464434,-0.056985039025545116,-0.17620412364602087,1.590049323681742,-3.5309985359191893,-9.202562993621825,2.1720163777633337,-2.6328315252609342,-1.2365261348382957,0.01666666753590107
228,3824.0,-0.06148351948857307,-0.06271189223974943,-0.11996785716116427,1.5544355739869176,-3.5413235305786133,-9.145401428985595,2.4102670363917182,-2.324512517258327,-1.5720514938523558,0.01666666753590107
229,3841.0,-0.043499388378113506,-0.04332476246356964,-0.07377835291624069,1.5655087566651402,-3.528753971862793,-9.0978160864681,2.982874664799268,-2.905971430499979,-1.685414277941173,0.01666666753590107
230,3858.0,-0.06464037608429789,-0.0512473721563816,0.022028291934728623,1.5390229007996619,-3.542520923669636,-9.000701866149901,2.6305592067014354,-2.460756648510099,-1.8172053392975078,0.01666666753590107
231,3874.0,-0.08343319322913885,-0.04803454758971929,0.0392787019431591,1.5177742149353026,-3.5434184570312497,-8.98229585636556,1.5212927295919945,-1.2192204631938932,-2.261285029224696,0.01666666753590107
232,3891.0,-0.06746946203038096,-0.023857553188502786,0.022194880673289296,1.5339349300108849,-3.520374266052246,-8.998905630382895,0.5625326191341048,0.1954037080261312,-2.0735700864915896,0.01666666753590107
233,3908.0,-0.012910773368924855,0.01947773066908121,-0.025361820271611213,1.5916953373230993,-3.477428566034138,-9.045742784881591,0.394768819049164,1.8489979488932131,-1.7055983407122068,0.01666666753590107
234,3924.0,0.018893354909867047,0.037431028249859805,-0.05257715945541858,1.6289551006592808,-3.459621398925781,-9.07192936553955,0.2713099481500101,2.061308829714359,-1.4700332270881065,0.01666666753590107
235,3941.0,0.03893471081107855,0.00512304210215807,-0.015061960053443908,1.656039360809326,-3.491494500787556,-9.03332227924764,-0.24282245642150338,1.653511211379984,-1.9071728044883274,0.01666666753590107
236,3958.0,0.11094736922904848,0.03983282869458198,-0.023295535391569137,1.7308583088196814,-3.455880458831787,-9.041402709850669,-0.3520268292445465,0.7623891302514083,-2.304688960409423,0.01666666753590107
237,3974.0,0.14313187512755393,0.035735037986934184,-0.012574234890937805,1.766172783306986,-3.458274660491943,-9.030779024505614,-0.4883013228216128,1.007160271659628,-2.267521845710564,0.01666666753590107
238,3991.0,0.21212065567970276,0.07973053931891917,-0.08168401147425174,1.839345425415039,-3.4118872955873605,-9.100061235046386,-0.24448752847510558,0.6315573903083429,-1.7074885955650079,0.01666666753590107
239,4008.0,0.21175927502140401,0.05139262584596872,-0.0838683697760105,1.842487815093994,-3.4388217720031737,-9.102156161499023,-0.05105822536678407,1.1535984602476437,-1.3879494010250684,0.01666666753590107
240,4024.0,0.20689795259535312,0.038923312634229656,-0.08607610895335674,1.8417396270751951,-3.450044884546101,-9.1041014503479,-0.5961631899467782,1.1304814715583238,-1.2545111968617029,0.01666666753590107
241,4041.0,0.23077143400534986,0.019970190361142157,-0.0728933867752552,1.870919105938822,-3.465307920129597,-9.091381669506431,-1.0937604535896313,0.5927490558571239,-0.86831805384146,0.01666666753590107
242,4058.0,0.2211792836651206,-0.0006783376529812812,-0.0913280381321907,1.8661307026185094,-3.4822166770935055,-9.11038622970581,-1.3502819749695059,0.6525472553188797,-0.14622543886754025,0.01666666753590107
243,4074.0,0.22972966986745594,0.00786620333045721,-0.11745908921062946,1.877203885296732,-3.470395598657429,-9.137320998382569,-0.7722946120952192,0.10661150895012328,0.11436820927898429,0.01666666753590107
244,4091.0,0.21098785225749014,0.002696399477124214,-0.18837386938929557,1.8613421531677246,-3.473388350732624,-9.208548497772217,0.03635683014771342,-0.12980264921464127,0.2899732532940848,0.01666666753590107
245,4108.0,0.16177008623257277,-0.008243219949305058,-0.18829262084662912,1.814355945587158,-3.484610878753662,-9.207949362835288,0.5707303936028539,-0.29882037598166117,0.41553528884907376,0.01666666753590107
246,4124.0,0.142605805426836,-0.012295710210502147,-0.17742986604869365,1.7953519699096678,-3.490297399957478,-9.196427851867675,0.9918272440248899,-0.5260084493517261,0.44232972075663707,0.01666666753590107
247,4141.0,0.1121437394067645,-0.018111995273828504,-0.1419786134392023,1.7660231457032263,-3.499873914337158,-9.159317726135253,1.2985191729011527,0.2834679249964708,0.5370985421297111,0.01666666753590107
248,4158.0,0.05712839301899075,-0.04243862727880478,-0.14145897347927092,1.7140988971985875,-3.5268086830139156,-9.157222799682616,1.114792313591393,1.040384766381803,0.8778953130791401,0.01666666753590107
249,4174.0,0.04313289315328002,-0.04341828596591949,-0.15330372505187986,1.7028759307861328,-3.530400277765095,-9.16754779434204,1.07369421158178,1.4163297975218234,0.9451263591834566,0.01666666753590107
250,4191.0,0.027788609027117488,-0.045368250989913934,-0.13130641277730465,1.692850357464701,-3.536385489654541,-9.14300722732544,1.4929401874604484,1.8940253306662875,1.220972086550884,0.01666666753590107
251,4208.0,0.015899579921364784,-0.011604220815002918,-0.08453589377403259,1.6849194183349607,-3.506308331298828,-9.094075146374106,1.83316919893512,1.4310902632050442,0.7174973384055292,0.01666666753590107
252,4224.0,-0.012389233712852001,-0.003511222991347313,-0.05345978750884533,1.6603788513183593,-3.5027170288085934,-9.060556323131918,2.1422510536906527,1.6226338471330604,0.3108506069463015,0.01666666753590107
253,4241.0,-0.034623861874639984,-0.0021697452545166016,-0.02335632566809654,1.644218136242777,-3.5084035500124093,-9.02658917160034,2.537884638721764,1.8302614593393987,-0.17744164453031994,0.01666666753590107
254,4258.0,-0.04903554132580757,-0.014506664258241653,0.010061375287175179,1.6341924167908728,-3.5269583206176756,-8.989927958679198,3.2544461878501485,1.7474901320477165,-0.7408367351296975,0.01666666753590107
255,4274.0,-0.0803625536121428,-0.031872517339885234,0.04874444942474365,1.608155327606201,-3.5526962807253,-8.946981966400147,4.264288162532653,1.9766008236278607,-1.479255263128093,0.01666666753590107
256,4291.0,-0.12092647306025027,-0.05367547608613968,0.13084522500634194,1.5776291103087365,-3.586214811706543,-8.858395920452475,3.9010130255813,3.2750705843792365,-2.030743733178552,0.01666666753590107
257,4307.0,-0.11884484448060392,-0.12340396908968686,0.13825111734867096,1.5894506271362303,-3.66133318105489,-8.847024047088622,1.9040029563832066,4.365278912713638,-1.904837306679006,0.01666666753590107
258,4324.0,-0.11049831028729677,-0.1589738796427846,0.10512626186013221,1.6103998916625977,-3.6973955513000485,-8.877549533733726,-0.5931589205681775,5.608503969023835,-1.2667758687335184,0.01666666753590107
259,4341.0,-0.027391426403075455,-0.1730456596150994,0.009109189128875731,1.7117045494079588,-3.705475981903076,-8.972419774517416,-2.5230868204415198,6.475058179872993,-0.2987584507118815,0.01666666753590107
260,4358.0,0.0636420126967132,-0.13387801683098077,-0.1377741474866867,1.815702684020996,-3.660883975982666,-9.118914988598227,-2.6916454304302677,6.552487765625195,0.6113224746445042,0.01666666753590107
261,4374.0,0.09621347208619117,-0.14174801955372093,-0.16646598896384238,1.8613421531677246,-3.663278469903767,-9.147197080230713,-2.99805732155056,6.732580644131391,1.530272080473034,0.01666666753590107
262,4391.0,0.179122641441226,-0.11004179869145155,-0.2268716500878334,1.9590555084228514,-3.624372400665283,-9.207501034545897,-4.142063207995744,5.922490753377083,2.4384656858235276,0.01666666753590107
263,4407.0,0.23604455210268496,-0.09300152430236339,-0.27633798404633997,2.0232500404357907,-3.6011788643434643,-9.25792890701294,-4.457973117487174,4.81375382937173,3.6717338204277272,0.01666666753590107
264,4424.0,0.2979455663509667,-0.05321808770745992,-0.33715164144933224,2.0905871082581577,-3.5549405525207516,-9.320178150177002,-3.720958566889186,3.806277021132754,4.973125621483399,0.01666666753590107
265,4441.0,0.3221018102250993,-0.019015958376228808,-0.43318624983727927,2.1161749923706052,-3.517232168634236,-9.41729295501709,-1.6634129579640926,1.6840810036708453,6.389799916671485,0.01666666753590107
266,4458.0,0.31703415157198905,-0.03507248242497444,-0.46873745568990705,2.1077952865600587,-3.534440493066609,-9.453056342315673,-0.37705867213984984,0.4118395428582886,6.748956876440143,0.01666666753590107
267,4474.0,0.32101153077036143,-0.0224757434412837,-0.47875382279157636,2.105850143841654,-3.5256115821838376,-9.462782786560059,0.7628205527470298,-0.5351397185809456,6.957063775827146,0.01666666753590107
268,4491.0,0.2724874460980296,-0.04868599723577499,-0.4560632675558328,2.0486882869444787,-3.5601781609132885,-9.438541494750975,1.5675718502521794,0.35434735933463185,7.260063347126782,0.01666666753590107
269,4508.0,0.2749069283299148,-0.03418137880414724,-0.5183078345447778,2.0462940852843223,-3.553444176483154,-9.498695226940512,2.2790936802684465,0.7502022585031073,7.671198900252883,0.01666666753590107
270,4524.0,0.29215660768598317,-0.0138183897331357,-0.5218021064013243,2.0588637901306153,-3.5435683868959544,-9.498995086669922,3.8509934158551813,1.252475800489039,8.181666748252127,0.01666666753590107
271,4541.0,0.2957826892286539,0.013882102619111537,-0.47738662609159943,2.057816473034769,-3.5353380264282226,-9.447819026184082,5.3218076323861965,1.709738716009704,8.477730689336438,0.01666666753590107
272,4558.0,0.2955696309998631,0.04079612076878547,-0.4386544521152973,2.053476982525736,-3.5256118744447824,-9.403077382659912,6.073352983556563,1.228091278100153,8.78837196165685,0.01666666753590107
273,4574.0,0.2981974952854216,0.05700578955262899,-0.440818352150917,2.050184955243021,-3.528604334259033,-9.398737892150878,6.815917916628832,0.9185095388747401,9.701714248981062,0.01666666753590107
274,4591.0,0.35027298882901664,0.13633300876766444,-0.4075397674053907,2.091335150146484,-3.4778771865844726,-9.356091175079346,8.07253910833554,-0.48984772033838603,10.264678930941024,0.01666666753590107
275,4608.0,0.3480738713495433,0.21276275297552347,-0.2504559392929077,2.0766708111084995,-3.4259532303407787,-9.191489226421714,9.309419772680442,-2.4385158450252447,9.924563684804715,0.01666666753590107
276,4624.0,0.3238603443302214,0.2407981763705611,-0.14581833773255348,2.035370686340332,-3.4249057671144603,-9.07911197052002,10.074785157862683,-4.524727971340293,9.601840661616198,0.01666666753590107
277,4641.0,0.22985212720334527,0.26044746421426535,0.11337971094250679,1.9107225624084472,-3.44106633605957,-8.810960800060629,9.730376284059375,-7.816424943706633,8.976389994034376,0.01666666753590107
278,4658.0,0.0432590037509799,0.20563830792307852,0.42227088806927204,1.6983870949342845,-3.5199256455019112,-8.49687205429077,8.742269038532909,-8.1961587021236,8.173744582588558,0.01666666753590107
279,4674.0,0.003914396964758635,0.23610680368393658,0.49322950738966465,1.6338929954528807,-3.510797459411621,-8.42160433959961,7.351672405595932,-7.437201741930124,7.7685367798883815,0.01666666753590107
280,4691.0,-0.11837503501176834,0.2390571779221296,0.6421311980903148,1.4823102489747106,-3.53069926071167,-8.26837543334961,5.590101304965705,-6.046956436848579,6.655854567863699,0.01666666753590107
281,4708.0,-0.2736443610481918,0.19518617975264788,0.8354664892792701,1.3106757713317871,-3.587112929590046,-8.072649447631836,3.725482713440673,-4.11896478888323,5.738980645851766,0.01666666753590107
282,4724.0,-0.35304055384621025,0.12967764253169298,0.9177700939565896,1.2199955295838414,-3.6601360802248117,-7.989151664733886,1.1093630602531734,-1.8537363926299093,4.392606072696036,0.01666666753590107
283,4741.0,-0.5029799170315266,-0.027659575819969175,0.9590414310216903,1.0658687977112828,-3.815758895874023,-7.949348062133788,-3.290522179829098,1.7792334362153508,2.825510094529936,0.01666666753590107
284,4758.0,-0.5419042525790632,-0.12822072172164917,0.8318769403547048,1.0324994659423827,-3.905841025598347,-8.079981690216064,-6.299960304084192,5.0839232426520535,2.4107694821825376,0.01666666753590107
285,4774.0,-0.5195242245972156,-0.16957389185130595,0.6935159328907727,1.0684124908447266,-3.9311294883728025,-8.22273537968099,-8.165220506504381,8.109279549654685,2.3900964205556128,0.01666666753590107
286,4791.0,-0.4908106096796691,-0.23677695803046225,0.46479894719719883,1.1246762298583983,-3.9721301918029783,-8.457516779980063,-9.442027041642593,11.191095054110288,1.9059971581774389,0.01666666753590107
287,4808.0,-0.45939840332791204,-0.31028935348689557,0.2552232998251915,1.1821370697021483,-4.024054148046672,-8.671348915752768,-9.974677636518745,12.714108564486303,0.9781387978762438,0.01666666753590107
288,4824.0,-0.44780134290605783,-0.35465485717505213,0.13439794905185698,1.2240357448853552,-4.044555084283649,-8.796446537017822,-10.75543912186384,13.830685691885185,-0.019068874306470678,0.01666666753590107
289,4841.0,-0.3247304051630199,-0.3760562493830919,-0.1441045195519924,1.3910311645507811,-4.033032696533203,-9.080158849224448,-10.67839885689433,14.805795941194763,-0.06173525178254205,0.01666666753590107
290,4858.0,-0.16562720005214213,-0.3541737956598401,-0.39290626189708705,1.5831659939087925,-3.9887399658203124,-9.331700245666504,-9.67656463868343,15.15628880600126,0.6640746936471571,0.01666666753590107
291,4874.0,-0.11799845678433775,-0.3663227908760309,-0.4935796360015869,1.663970299939066,-3.980959102685749,-9.433902729034424,-8.633621219405516,14.802864082493535,1.653145902981094,0.01666666753590107
292,4891.0,-0.0025698504880070686,-0.3833189338624477,-0.6112596744865179,1.8188452198304235,-3.975422219085693,-9.552714986419677,-7.736664555900163,12.964959214586068,3.072282694808381,0.01666666753590107
293,4908.0,0.1322559685871005,-0.32818829053193327,-0.6055751991093158,1.9759644115172326,-3.9055411658689376,-9.548374911388754,-6.97874194247912,9.830870564865066,4.475334177696877,0.01666666753590107
294,4924.0,0.16469035759344697,-0.29189386509656906,-0.5536521196484565,2.022801273754984,-3.856161341150105,-9.498695811462401,-6.168332740381114,6.370315094516731,5.408851990055662,0.01666666753590107
295,4941.0,0.11495090578198432,-0.23216332675516604,-0.4358697898328304,1.9786578883849084,-3.7817908675596117,-9.385569198498128,-5.615013993076504,1.7735163544366386,5.13826636212279,0.01666666753590107
296,4958.0,-0.035085634167492386,-0.23351503362506626,-0.41052784330546854,1.8257284034729002,-3.7728129035949705,-9.364919209179282,-5.533927694797405,0.21594650247093625,4.798858894339224,0.01666666753590107
297,4974.0,-0.07189341595247388,-0.21457886248677968,-0.4255436261296272,1.7841291496276854,-3.743633863122761,-9.38497064808309,-5.148544516163191,-0.33429146933224146,4.7059055692640515,0.01666666753590107
298,4991.0,-0.14817878325358033,-0.14938216769397258,-0.4214169015884399,1.7021278888978062,-3.6686654236391183,-9.38586847370565,-2.9603004627055527,0.786977437737484,4.928456184311516,0.01666666753590107
299,5007.0,-0.2290184528581798,-0.09180530025511979,-0.3235287742882967,1.6198270606994627,-3.6083608848020434,-9.2893522192806,-1.419560797164357,1.4631927926343387,4.385115916497471,0.01666666753590107
300,5024.0,-0.2570749190412462,-0.06934387760013341,-0.25585399894416333,1.5913956237241624,-3.585616261291504,-9.221865659984946,-0.6701100729133626,1.3259247733373,3.299376666314373,0.01666666753590107
301,5041.0,-0.31149113049209115,-0.0431739558160305,-0.10296469991207122,1.5370776119507847,-3.559878885705769,-9.068786975860595,-0.38742265711212437,0.816682624128957,1.2598384242491953,0.01666666753590107
302,5058.0,-0.3467402846582234,-0.032763913221657275,-0.0330219796359539,1.5020624126709996,-3.5488054107666014,-8.999055852508544,-0.4826959253080009,0.38542327931516185,-0.24070034866289217,0.01666666753590107
303,5074.0,-0.3336322351515293,-0.013873919312655926,-0.042488896161317825,1.5156794346131384,-3.528604334259033,-9.008931934356688,-0.16740796323743898,0.005077965503426804,-1.171814361320656,0.01666666753590107
304,5091.0,-0.3215380388624966,-0.01083119061589241,-0.047129415443539616,1.528099355725199,-3.5250130317687987,-9.013720337677002,0.4132822869183216,0.3210161429066754,-1.8867983501941792,0.01666666753590107
305,5108.0,-0.26158713576868176,0.001147124208509922,-0.05551496647298336,1.5870565716065466,-3.5131913688108325,-9.022249096569418,0.36918701252354236,0.2525344784931591,-1.927330613719739,0.01666666753590107
306,5124.0,-0.24084990655779837,-0.005172434201836586,-0.05745791723430156,1.6074069934569297,-3.5193268028259275,-9.024344023022055,0.002335204324630336,0.07365570613257291,-1.7311940477400065,0.01666666753590107
307,5141.0,-0.1466730548657477,0.016051555612683295,-0.040376434051990505,1.6938979668214915,-3.496731816919148,-9.009380847167968,-0.6857302352975057,-1.36074166263144,-1.1947392509395691,0.01666666753590107
308,5158.0,-0.09017842970564961,0.006248539000749588,-0.034195699590444564,1.7395372898377477,-3.504064059503376,-9.006387510570883,-1.420168150391959,-2.3859302186053166,-0.9539325007360129,0.01666666753590107
309,5174.0,-0.07325520582497119,-0.014283084635436535,-0.029283377629518506,1.7471688076294958,-3.5199253532409664,-9.005190409740806,-2.192424342673097,-3.3783778359059142,-1.3973933114913746,0.01666666753590107
310,5191.0,-0.03911971198916435,-0.04207388561964035,-0.10523381388783454,1.7658735080994665,-3.5378818656921385,-9.088090226745605,-3.366133014271374,-3.5859342647344965,-1.5233603559198041,0.01666666753590107
311,5208.0,0.022068331684172153,-0.028887948571145534,-0.19754267975091933,1.816301234436035,-3.516334343011677,-9.185803582000732,-3.406715863885474,-3.2067930252280274,-0.9689617983960971,0.01666666753590107
312,5224.0,0.055579848402738566,-0.023844985967874526,-0.2550859371811151,1.8420390484131872,-3.5039141296386718,-9.247753549957276,-2.65500701506185,-2.9933989190931998,-0.8143902952496244,0.01666666753590107
313,5241.0,0.07263561262190342,-0.00831540840268135,-0.23794074111282823,1.8504186080932616,-3.4817677642822265,-9.234884716033935,-1.4221991711746858,-2.966144116427322,-1.1692660604300067,0.01666666753590107
314,5258.0,0.06092223234400153,-0.013452186769247055,-0.18210779473185537,1.8320133289612828,-3.4844612411499023,-9.18131445388794,-0.4408482633978319,-3.417481522677883,-2.1753095961603375,0.01666666753590107
315,5274.0,0.04033201038837433,-0.04409837718456983,-0.1556651934862137,1.8056768184386194,-3.5134909362792968,-9.156623664745688,0.11332500460497062,-3.1786327956102993,-3.0715518645671898,0.01666666753590107
316,5291.0,0.06651274582743644,-0.07225391982793808,-0.15132979463040827,1.827523908587545,-3.53997649988383,-9.153780550274252,0.25981647400459756,-1.9951960136432203,-3.19502802438268,0.01666666753590107
317,5308.0,0.12457505869567394,-0.08796382239609957,-0.21060323685407636,1.8854339535035192,-3.554641277313232,-9.213486538696289,0.7749730067452163,-1.0135188576117926,-3.1019363879768145,0.01666666753590107
318,5324.0,0.14912161706164478,-0.12058072836250067,-0.200135618853569,1.911770171765238,-3.5883097381591793,-9.202263718414306,1.354593318439665,-0.12339737251619735,-2.712684760951434,0.01666666753590107
319,5341.0,0.1750998156659305,-0.14063304404914378,-0.11970716039836406,1.9409493583679198,-3.6112045837953684,-9.120112089428305,1.65425431461734,-0.3013140086785241,-2.7122476288445534,0.01666666753590107
320,5358.0,0.2076372266553342,-0.16380699888765812,-0.014028525352478026,1.975665136309713,-3.63589478841573,-9.013421062469481,0.6801108572404364,0.013448389011703876,-2.410045055243693,0.01666666753590107
321,5374.0,0.24978797690346835,-0.14975421587675808,-0.004635258585214614,2.019658884076029,-3.6213799408510323,-9.003844255828858,-0.10899733271382707,-0.4776948928142293,-2.143280277821209,0.01666666753590107
322,5391.0,0.2861645276643336,-0.1328393214330077,-0.018707623079419134,2.057816473034769,-3.6035730660036203,-9.017909606060385,0.2813709501995711,0.24293176612865003,-0.9905903394548828,0.01666666753590107
323,5408.0,0.30620719873979685,-0.11740648224055766,-0.04505319369137287,2.0799625461302695,-3.5898058219358324,-9.043198361095785,1.1485108230896304,-0.17542343035228694,-0.13720894883288873,0.01666666753590107
324,5424.0,0.2638276081718504,-0.1562716349467635,-0.020755787780880927,2.03806430933848,-3.6321538483217357,-9.017461277770996,1.2956055636116135,0.32091446380149213,0.3051738659723746,0.01666666753590107
325,5441.0,0.23368527562543748,-0.18282471082955598,0.012537410011887549,2.0117277988158166,-3.6623800597593186,-8.981996581158041,0.050167059102869296,0.7559715805567995,1.3824201494485315,0.01666666753590107
326,5458.0,0.23753113739863035,-0.20022534296363592,0.0010527239233255386,2.0187612045839427,-3.6815339653015133,-8.992171938213705,0.008811277534647015,0.6063325412081338,2.1702136347092735,0.01666666753590107
327,5474.0,0.23088746160045265,-0.20360037235468625,0.020852233892679213,2.0145710594177246,-3.6866219360902903,-8.971223258209228,-0.12776567869681718,1.5441642583580169,2.610523913988261,0.01666666753590107
328,5491.0,0.19250746206268668,-0.18952274716347456,0.0010164835661649703,1.9812017276488243,-3.67405237737447,-8.989479045867919,-0.5797301283296977,0.8578035645836072,3.145037442960534,0.01666666753590107
329,5508.0,0.15174831230342387,-0.16837708328217266,0.0364203899025917,1.9448397899352012,-3.6550481094360348,-8.952368920135498,-0.5478939762780336,2.1928943450653584,3.753430993750719,0.01666666753590107
330,5524.0,0.13263634620681405,-0.14412147068679332,0.008961889612674712,1.9303252346314488,-3.6317049355104563,-8.978554916271566,-0.9978299130882733,2.700218598499103,4.323117862514442,0.01666666753590107
331,5541.0,0.10546616133898495,-0.10629647468328475,-0.0031990883022546767,1.9095256077088414,-3.5960908935546874,-8.988581220245361,-0.9018413159789702,2.7090724446541437,4.353602277440678,0.01666666753590107
332,5558.0,0.04759323356300592,-0.08490326578170061,0.00720832394361496,1.8598457771301269,-3.576787934930622,-8.975712386322021,-1.358758559894609,3.43884187209004,3.9919621170218975,0.01666666753590107
333,5574.0,0.03398775592818856,-0.0715358346864581,-0.005457096362113952,1.8522144054688512,-3.562871345520019,-8.987384119415283,-1.6405579710624663,3.166694692158175,3.5507739449911515,0.01666666753590107
334,5591.0,-0.00814750448986888,-0.05737199251651764,0.012544424274563789,1.8206408710755406,-3.5473090347290035,-8.967781593322753,-2.236866889498489,4.564722997798949,3.396673564814851,0.01666666753590107
335,5608.0,-0.018603724313527345,-0.0021586393386125564,0.0051852936834096905,1.8189945651732384,-3.4898479026243088,-8.974215425762534,-2.2918693356675437,3.8550804302997874,3.033266306391741,0.01666666753590107
336,5624.0,-0.046136605013906956,0.0005935819789767265,0.0225128605812788,1.7978956630431115,-3.484161965942383,-8.95670782612264,-1.9657280162428465,3.5301898892668486,2.9618857069232303,0.01666666753590107
337,5641.0,-0.05784560137763619,0.035271219867467875,0.028412440013885498,1.7928082767762243,-3.447351407678425,-8.950273993682861,-1.6604500432464822,2.7520042390124937,2.7597089058396795,0.01666666753590107
338,5658.0,-0.11718772492334247,0.004812076456844806,0.02203063002228737,1.7371427959166466,-3.4753333473205563,-8.9568574637264,-2.5546715361543626,2.4308553609842525,2.4659599719971794,0.01666666753590107
339,5674.0,-0.14323518937155605,0.0014841010779142378,-0.0018909283131361007,1.7137994758605957,-3.473687333679199,-8.98214680328369,-3.1278268603559827,1.855412990627736,2.1662948136729785,0.01666666753590107
340,5691.0,-0.1822374124608934,-0.017741992917656896,0.0011748889982700348,1.676539712524414,-3.485209429168701,-8.981697890472411,-3.0394755886775173,1.354732910430827,1.4634502053886835,0.01666666753590107
341,5708.0,-0.20716507909893989,-0.00913929200619459,-0.045594460961222646,1.651849654034525,-3.4700963234499094,-9.030928077587484,-3.2109626422729085,0.9029278496655311,1.1955311259964676,0.01666666753590107
342,5724.0,-0.20737287663072346,-0.004522445860505104,-0.04857844520807266,1.6517001625612378,-3.458424590356648,-9.036614306530355,-3.30625381303493,0.5865368920852915,0.9639789619531611,0.01666666753590107
343,5741.0,-0.2156172656238079,0.008515899410843849,-0.08936112197339534,1.6418237884521483,-3.4367271378114816,-9.081057259368896,-3.0600022281241097,0.2600355736665669,0.8579619929558397,0.01666666753590107
344,5758.0,-0.22559666171595452,-0.00981207670122385,-0.11175649365484713,1.62805712890625,-3.4491467666625977,-9.106495652008055,-2.8698600069147098,-0.36514772936184675,0.36743280116518623,0.01666666753590107
345,5774.0,-0.2347046818010509,-0.026081074456870555,-0.11749708313345908,1.6160861206054686,-3.458873503167927,-9.115324270629882,-3.1538413433572687,-0.5494128395947152,-0.260115374822065,0.01666666753590107
346,5791.0,-0.20675591377615926,-0.04350596424937248,-0.15016425798237323,1.638831036376953,-3.466654074041545,-9.152733087047935,-3.3275264372049347,-0.8742137343947975,-0.5037865889696482,0.01666666753590107
347,5808.0,-0.11010185831561684,-0.0031806758627295493,-0.2179699662297964,1.7296610618591308,-3.4196681587219238,-9.224260446166992,-2.6401090918215826,-1.2060783254571423,-0.17138860282180768,0.01666666753590107
348,5824.0,-0.09739946700036525,-0.013929741153120994,-0.21680442958176135,1.738190259142965,-3.424456562042236,-9.226205150493978,-2.3239622601433183,-0.7685936100604244,-0.4037037203397456,0.01666666753590107
349,5841.0,-0.06456219628155231,-0.01565612655431032,-0.2365788051098585,1.7642274944581091,-3.4180221450805663,-9.25044702682495,-2.464037914076055,-1.6742094593294727,-1.0647555216706432,0.01666666753590107
350,5858.0,0.009019172757863998,-0.008305471530556678,-0.22690905948877332,1.8300678939819335,-3.405452878625691,-9.2443118850708,-1.8962188886069193,-2.3858345959569367,-1.005978008602981,0.01666666753590107
351,5874.0,0.03716083300635219,-0.003556523437798023,-0.19382102887928485,1.851915276391804,-3.39647433013916,-9.214085089111327,-1.597348486825673,-2.454485040748146,-0.8936165409186583,0.01666666753590107
352,5891.0,0.07029284888803959,-0.011882453234493731,-0.18526304389238357,1.8761562759399413,-3.3987188941955564,-9.209595960998534,-1.76930340837921,-2.5872989229326904,-0.7388660654715902,0.01666666753590107
353,5908.0,0.07384031223654747,-0.04041325893104076,-0.15094693279266355,1.8734630913332104,-3.422062652643025,-9.178470754894613,-1.945715775418121,-2.4207708001181403,-0.8994964266595402,0.01666666753590107
354,5924.0,0.07174173252210021,-0.05291296728104353,-0.13057576041519642,1.8661304103575647,-3.429694170434773,-9.16096373977661,-1.8072575956582073,-2.4501897055338544,-0.7727263547559581,0.01666666753590107
355,5941.0,0.08322145017459988,-0.04149403990507126,-0.08430968380272388,1.8701707717895506,-3.412934466552734,-9.118167385101318,-1.0099346091231225,-3.0432010299829364,-0.8268024031579772,0.01666666753590107
356,5958.0,0.04615341001823544,-0.08576309748142957,0.010818915656208992,1.8270751419067381,-3.4540850998476147,-9.025392070770263,-1.0794868523281855,-3.0700172064380524,-0.8711809169599003,0.01666666753590107
357,5974.0,0.007090688913315534,-0.10760814180374145,0.06085866558849811,1.7823333522520959,-3.472340595245361,-8.977806728252768,-1.6602641340350108,-2.867084175347334,-1.006352601790274,0.01666666753590107
358,5991.0,-0.008233575338125229,-0.12758593094944953,0.06904431013166903,1.761833000537008,-3.4855087043762203,-8.973167962536214,-2.397141760684481,-1.411602559564234,-0.4738869022693885,0.01666666753590107
359,6008.0,0.017817103980481624,-0.10034370375871658,-0.013421207109093666,1.7880197273254395,-3.452588431549072,-9.057713208660482,-2.656427054078978,0.29881202500818377,0.3691898139683191,0.01666666753590107
360,6024.0,0.039591275023669,-0.0821717949911952,-0.06300210735797881,1.8115128311157225,-3.4287960525512693,-9.109038906750083,-2.5505463153390866,1.106887009957338,1.1335330720134387,0.01666666753590107
361,6041.0,0.05813567036539316,-0.07275982352346182,-0.05348667551577091,1.8348564434327184,-3.411737657983601,-9.101407973480224,-3.541665674289528,1.8637532919345563,1.208255341533378,0.01666666753590107
362,6058.0,0.1054245141543448,-0.041778994326293464,-0.06760171010792256,1.8848351108275352,-3.3741786194399,-9.11741919708252,-4.409503960702647,1.2683988924350427,1.2114864478976173,0.01666666753590107
363,6074.0,0.13960209356620906,-0.018395780651271343,-0.08256956213712692,1.9204491527833043,-3.3423058098390697,-9.135226071929932,-4.331294879611416,0.8594388612812963,1.453929775459332,0.01666666753590107
364,6091.0,0.1921985422439873,0.04510053996443748,-0.12416881598234177,1.9726725303649901,-3.270030847223103,-9.180117353057861,-3.1801608369936782,0.2674016925625876,1.8428584626030178,0.01666666753590107
365,6108.0,0.1477919758930802,0.053417701932787894,-0.1399520760476589,1.9274821201600134,-3.2570120834350584,-9.197774590301513,-2.7301034508822593,0.26868859625175323,1.826441676046069,0.01666666753590107
366,6124.0,0.13841186086833476,0.05222030884176492,-0.11443828008472919,1.917755529785156,-3.253271435602009,-9.17413184890747,-2.6734933489373125,0.653973003947267,2.055353758531754,0.01666666753590107
367,6141.0,0.15224164877831936,0.03370323989838361,-0.1278922204196453,1.9327194362916051,-3.2653917892456055,-9.189694159698485,-2.86200870446378,1.0084219356653763,2.572436858185566,0.01666666753590107
368,6158.0,0.1579309464611113,0.03326192587167025,-0.07996142546534538,1.9406500831604003,-3.2595559226989743,-9.143605777740477,-3.313199475090598,1.1302077303829945,2.9088687113685334,0.01666666753590107
369,6173.0,0.1467662861071527,0.009845394448935984,-0.06806698953211307,1.9303252346314488,-3.2757170761659737,-9.134178608703612,-3.5986896430094952,0.6455477521626447,2.7164373095701215,0.01666666753590107
370,6191.0,0.12404738155975938,0.0043324762463569635,-0.037029461711645124,1.90892691116333,-3.2695816421508788,-9.107094202423095,-4.0765715122522534,0.7115699615055746,2.2151927782713345,0.01666666753590107
371,6208.0,0.11727496481537818,-0.02244710186868906,-0.07304828507602214,1.9047370582580565,-3.2869396041870114,-9.145999979400635,-4.2707772691309875,1.253467992187689,2.401433040473953,0.01666666753590107
372,6224.0,0.12247750189453363,-0.020490999364852904,-0.11614274591505527,1.9120691547118127,-3.2763153343200684,-9.191789086151122,-3.7292884094688397,1.5753063991569842,3.014271977196759,0.01666666753590107
373,6241.0,0.12572627455741167,-0.04044628441780805,-0.10823942544460297,1.9189524844847619,-3.2893340981081125,-9.185653944396972,-2.817998807433626,2.027389896852664,3.1293715503254633,0.01666666753590107
374,6258.0,0.08458002517670392,-0.08449936115592718,-0.051374213406443596,1.8822912715636193,-3.3262942939758298,-9.13043708408773,-2.774069592013043,1.6719807899476389,2.5578751083185103,0.01666666753590107
375,6274.0,0.05572480983138084,-0.12784604319036005,-0.014164718952775001,1.8565538959778844,-3.363853624780476,-9.094674281311034,-3.0998107050410595,1.7621070570366613,1.9260234862673278,0.01666666753590107
376,6291.0,0.015134294637292623,-0.181646022439003,0.006799743142724037,1.821837679644674,-3.4084450461789966,-9.075819358715414,-3.455771349721563,2.320799882557602,1.8695207463583974,0.01666666753590107
377,6308.0,0.011635200475156307,-0.21376053184121846,-0.06497545325756073,1.8249805077150463,-3.4337340934753415,-9.14869345626831,-3.18946142020912,3.749856670380687,2.3234423119927508,0.01666666753590107
378,6324.0,0.012115531338006257,-0.20888941867351532,-0.11725099941790103,1.8344073844909667,-3.423109823608398,-9.201216255187989,-2.8076711345217436,4.855752235691315,2.8395250023765675,0.01666666753590107
379,6341.0,0.01564545902982354,-0.16472615955919026,-0.1325157885670662,1.8477251312255858,-3.3750764450624584,-9.215880740356445,-2.644857353955211,4.853958884147364,3.327324092850773,0.01666666753590107
380,6358.0,-0.030209698694199323,-0.16052023230195045,-0.0518663808375597,1.812710078076273,-3.3659482589721677,-9.134777159118652,-3.1300803958952637,3.9860313783882106,2.903719175621167,0.01666666753590107
381,6374.0,-0.04870280224010348,-0.15284312180280685,-0.04844108256399631,1.8001405193604527,-3.352780442102253,-9.132083682250975,-3.32278009606201,2.9934785334857126,2.3196171926141322,0.01666666753590107
382,6391.0,-0.11630217426046728,-0.15079554162323475,-0.12706979812085628,1.7404351154603064,-3.343802185876667,-9.21154124984741,-3.2057928294014433,3.844395453116949,1.3636111958564916,0.01666666753590107
383,6408.0,-0.09961246687471866,-0.06480068121254444,-0.27466566691994665,1.7651251739501952,-3.2537200561523436,-9.35893370502889,-2.1274694571096875,4.569470833045754,1.5551290598534144,0.01666666753590107
384,6424.0,-0.09545359362959861,-0.05747340706437826,-0.3119815443575382,1.7796400215148924,-3.2447420921877024,-9.394697092327474,-0.4786810013756499,5.569379791684356,1.818755151908866,0.01666666753590107
385,6441.0,-0.0829312350563705,0.010130348870158195,-0.3181213622868061,1.8068740653991697,-3.1803979225710033,-9.396642965698241,0.8912350994149982,5.068021708490617,1.6854591010576012,0.01666666753590107
386,6458.0,-0.05102043153271079,0.02861965302377939,-0.2307277409940958,1.8468274517334997,-3.1664813331604003,-9.305962577819823,1.2773871012176623,3.676955926935025,1.5786908646124314,0.01666666753590107
387,6474.0,-0.04361395466849208,0.029665654945373533,-0.18292495633363723,1.8587983139038085,-3.1693247398927804,-9.255833980560302,1.0340717505980073,1.8731264459099293,1.3268637109047652,0.01666666753590107
388,6491.0,-0.04660188443809747,0.03591244038045406,-0.10088555555045604,1.8543091857910154,-3.165134886987507,-9.173383076366783,-0.8913881917019417,-0.502321246588416,1.8459358897109317,0.01666666753590107
389,6508.0,-0.10138853663653134,0.03458762151747942,-0.08426935179233551,1.793556464795023,-3.16318959813863,-9.159168088531494,-2.253921871856011,-1.7341174754264779,1.9279671019730196,0.01666666753590107
390,6524.0,-0.1111162960551679,0.032572190041840074,-0.12581249153614044,1.7760488651551305,-3.159448365783691,-9.204358644866943,-2.9265292326846595,-2.5101186390851926,2.587818230753023,0.01666666753590107
391,6541.0,-0.16149287672638893,0.06645254007279873,-0.18782091168165205,1.712303099822998,-3.1178491119384764,-9.271845204162597,-2.3978021545998565,-3.2163928561064803,2.5298794435710974,0.01666666753590107
392,6558.0,-0.2257882387652993,0.062465224002301686,-0.17622633547782898,1.6377835731506347,-3.116951286315918,-9.26406404876709,-2.133052496425938,-3.5946342181898,1.7583326304682887,0.01666666753590107
393,6574.0,-0.25292642105966806,0.028301380854845046,-0.16765666005313395,1.6006734474182127,-3.146130619049072,-9.259275645446778,-2.288103340113928,-3.915913937029329,0.3307354220543242,0.01666666753590107
394,6591.0,-0.2756481020860374,-0.0020540099203586576,-0.16259879214167594,1.566406582287699,-3.1682772766664624,-9.259425283050536,-2.4185147032579204,-3.282959666314013,-1.394111192151772,0.01666666753590107
395,6607.0,-0.24163360428139566,-0.007722703206539154,-0.23772271444797513,1.5934911346986889,-3.167229521179199,-9.338284300231933,-1.7078555047894846,-2.6174031951429333,-2.3910483781711833,0.01666666753590107
396,6624.0,-0.21864801162183284,-0.0070125091105699535,-0.28690789337754247,1.612644455718994,-3.1621421349123118,-9.389759635925293,-0.4032747524433571,-1.7592487295907167,-3.3780785882429027,0.01666666753590107
397,6641.0,-0.15167612385004758,-0.034809447574615474,-0.3391968835413456,1.6777369594849645,-3.1886279907777904,-9.44288098526001,1.6875114661814843,-0.9081060935517528,-4.9365341636655256,0.01666666753590107
398,6658.0,-0.07431260592341422,-0.06553542522788047,-0.3529594514340162,1.755248799841106,-3.2218472465515133,-9.45574923466146,2.823487077875143,-0.2969888981083193,-6.046659323619684,0.01666666753590107
399,6674.0,-0.026337679566442965,-0.07921908266544342,-0.35903029578030105,1.8071734867371618,-3.23995368886739,-9.459490759277344,3.4153206215792205,0.4482580581519437,-6.653353437967005,0.01666666753590107
400,6691.0,0.08604045311808585,-0.08071107478886842,-0.4050128792762756,1.9268834236145018,-3.248931945092976,-9.501388703808187,4.4919554430421025,0.6741773438423994,-7.058676926996249,0.01666666753590107
401,6708.0,0.20769421753957867,-0.043701486821472645,-0.3997767321884632,2.0542253166750073,-3.2202015251711007,-9.492111756896971,5.7514841609011205,0.46583843146702764,-6.749592084032955,0.01666666753590107
402,6724.0,0.23997838442027566,-0.03744856390655041,-0.35738369761705396,2.091484787750244,-3.225887461853027,-9.444526414379476,7.042011265421418,-0.5125246420739159,-6.286594477652123,0.01666666753590107
403,6741.0,0.2989547433935106,-0.07395107913464308,-0.2527519412755966,2.15298598902598,-3.280804754693806,-9.332897346496582,6.849791386043864,-1.3027769420750095,-5.286936101578696,0.01666666753590107
404,6758.0,0.33342867540344595,-0.11953121930956839,-0.17101064665615556,2.1871032165527344,-3.3391634201601144,-9.246706086730956,6.073128014200776,-2.0954025727301238,-4.3070724674936125,0.01666666753590107
405,6774.0,0.3571240237675607,-0.0936132264599204,-0.13832418258488177,2.207902697344869,-3.3252471230104566,-9.210344149017333,5.764339430692731,-2.6809572515962556,-3.0311892885538225,0.01666666753590107
406,6791.0,0.3635239539377391,-0.061513330104947084,-0.011227496457099913,2.2077533520020545,-3.31013372503072,-9.07851283558309,5.787853210684146,-3.131204815787377,-0.8437913247796203,0.01666666753590107
407,6808.0,0.3106044107854366,-0.07743366055339575,0.09718553198873996,2.148347223309427,-3.338265594537556,-8.967033405303955,4.914894416827632,-3.3286636637017417,0.4896957486293533,0.01666666753590107
408,6824.0,0.2826069813132286,-0.08779343426525592,0.1557774216890335,2.1130326026916504,-3.358317033441365,-8.90643017578125,2.8502733722526403,-2.6890305351952106,1.7600052797630013,0.01666666753590107
409,6841.0,0.25327625741064547,-0.066573243843019,0.17080314138531683,2.0756233478821815,-3.3435029106691476,-8.890718227386474,0.4272189410741888,-2.1641089396951627,3.6346211337988166,0.01666666753590107
410,6857.0,0.21962957000508904,-0.038486967043578624,0.1543698929786682,2.0389621349610385,-3.317017054803669,-8.907178363800048,-0.595306801618735,-1.0170546544460377,4.532683007289243,0.01666666753590107
411,6874.0,0.21285452291220425,-0.009894202026724815,0.11300386336743831,2.0293851821899414,-3.2893338058471677,-8.948777033123374,-0.5548798190559286,-0.8290194398738809,4.918913129380538,0.01666666753590107
412,6891.0,0.14378551673069595,0.01109568677097559,0.0483762006342411,1.960252755383402,-3.271227655792236,-9.012373599243164,0.09864516050036122,0.022895047561933973,4.767545892089301,0.01666666753590107
413,6908.0,0.12323913391679525,0.037328444658219814,-0.019857377636432645,1.9428946472167967,-3.2498297707155346,-9.07821414489746,0.9043666717028767,0.7772883341521448,4.111078054825981,0.01666666753590107
414,6924.0,0.11506912533417343,0.037416415202617646,-0.04324585200846195,1.9375078396119176,-3.2549171569824216,-9.099163409423827,1.4581691884997943,1.801000502048241,3.586435002978023,0.01666666753590107
415,6941.0,0.15983926430046558,0.0998287399739027,-0.06814999164044856,1.988683753967285,-3.2026936332702634,-9.119064626201986,3.063425860445579,1.840370993084664,3.2055926194813975,0.01666666753590107
416,6957.0,0.103364220623672,0.051148880217969414,-0.007371990072727203,1.9384055191040037,-3.2601547653749585,-9.053823215484618,3.0014871437309645,2.210602250818851,2.7283751995788346,0.01666666753590107
417,6974.0,0.06849266759827732,0.010571370635926723,0.0026537293791770934,1.9080292316712437,-3.3080387985780835,-9.04020619354248,2.147623851246514,2.172081904890683,1.936931298371838,0.01666666753590107
418,6991.0,-0.0018786533534526824,-0.09040040189325808,0.01128653316795826,1.8448821628846228,-3.413682654571533,-9.028384822845458,0.930091938881495,2.6354086410121447,2.226094827403733,0.01666666753590107
419,7007.0,0.012249240720272064,-0.10625205101966857,-0.015264789149165153,1.8649333095274865,-3.430891271264851,-9.05322466506958,0.7950113943878585,2.6778885756682156,2.4679531065743534,0.01666666753590107
420,7024.0,0.002469751114398241,-0.10889262865632772,-0.048268064084649086,1.8616415745057164,-3.435829312188923,-9.084050011444091,0.9980906342154974,3.6117724434778316,2.426860980980264,0.01666666753590107
421,7041.0,-0.03667436466366052,-0.13194587972462177,-0.06780395468175411,1.8348564434327184,-3.4611177749633786,-9.100210872650146,-0.03059428492233829,4.784520192837252,2.6163317092168876,0.01666666753590107
422,7058.0,0.002766542103886604,-0.11959902384877204,-0.07078150918781757,1.8834883723936975,-3.450044592285156,-9.100809423065185,-0.1604760015807504,4.840965729911884,2.862779875509757,0.01666666753590107
423,7074.0,0.008717413332313299,-0.1161585280060768,-0.05227496163845062,1.89770423701182,-3.4485482162475583,-9.079860158538818,-0.08741158705905959,4.776006788923654,3.6875901045859116,0.01666666753590107
424,7091.0,0.06786912887245417,-0.022768881168961523,-0.08400923955142497,1.9636942741394041,-3.3598134094789622,-9.108440940856934,0.41323204767532495,2.9092004024301024,4.457101414594351,0.01666666753590107
425,7108.0,0.006163052674382925,-0.05407821166813373,-0.01733107402920723,1.9032406822204588,-3.3954268669128416,-9.03990691833496,0.08550734499269458,2.4337684366652628,4.224638060627083,0.01666666753590107
426,7124.0,-0.00515329110994935,-0.030296354064345356,-0.024777298381924627,1.892167791803181,-3.373430431421101,-9.04664061050415,-0.7068204720723299,1.1197425999140656,3.6912976166447593,0.01666666753590107
427,7141.0,-0.04165288372859358,-0.020568448515236377,-0.02321779398024082,1.8538602729797362,-3.3641528999879955,-9.045293872070312,-0.8224004529596097,1.2373177964517823,3.10562042126039,0.01666666753590107
428,7157.0,-0.05251753822267055,0.03298515475690365,-0.0790454796642065,1.8439843372620641,-3.310881913049519,-9.100808838543296,-0.685148548640144,1.7125883989974804,3.1608589358426338,0.01666666753590107
429,7174.0,-0.06354059814885259,0.04883738840520382,-0.09404431135356425,1.8344072383604944,-3.295918152673542,-9.115174633026122,0.2648941593635467,1.7424956629388504,2.938111099082885,0.01666666753590107
430,7190.0,-0.10818068099468946,0.024097791685163975,-0.06308335590064525,1.7932570434570312,-3.3231521965578197,-9.082553050884604,0.22888660267842953,2.8601553753211797,2.7877598524306872,0.01666666753590107
431,7208.0,-0.07993059193566442,0.03650923722982406,-0.022828502401709555,1.8252796367920934,-3.3134257523134347,-9.04050546875,0.22946767568598306,1.7853603293442637,2.516264315234323,0.01666666753590107
432,7224.0,-0.0887822991721332,0.01487842018008232,0.06850304286181927,1.8174983352661132,-3.336320013427734,-8.948478342437744,-0.4051148480944408,1.482519239777713,1.7434371618272544,0.01666666753590107
433,7240.0,-0.143091689247638,-0.02376812133938074,0.13103636366426943,1.7640777107238768,-3.372083692987263,-8.88682764968872,-2.257338033658075,1.333704038636827,1.1278795963713721,0.01666666753590107
434,7258.0,-0.12693930360898376,-0.020830898843705654,0.037537411233782764,1.7799394428528845,-3.359963047082722,-8.983792816925048,-3.0948065242569673,0.94949020973286,0.7108760569745837,0.01666666753590107
435,7275.0,-0.13422551509439945,-0.016477964331209658,-0.022077391773462293,1.7742533600404857,-3.349189139612019,-9.045442925152182,-2.4155203056371044,1.8146062388749065,1.0782592325465816,0.01666666753590107
436,7290.0,-0.10820639995783567,0.006107084703445434,-0.099084059086442,1.8014871116638183,-3.3221047333315012,-9.123853614044188,-1.5396892037911891,1.2522004584881228,0.7321372085612169,0.01666666753590107
437,7307.0,-0.15793986041992902,-0.03688157767355442,-0.053687166523933405,1.7546505416870115,-3.362057681274414,-9.07896174839437,-1.5281131003650752,1.6369380775240654,-0.12477720413067216,0.01666666753590107
438,7324.0,-0.15641279698312283,-0.045999826891720295,-0.0299590849339962,1.7580922065734863,-3.366996014459431,-9.056367054748534,-2.282584120377735,0.7149409266652403,-0.7584899993698301,0.01666666753590107
439,7341.0,-0.1567962433427572,-0.06166209092587232,-0.015807225462794304,1.7571943809509276,-3.3770217339113353,-9.044396046447753,-2.943184435532324,0.5067144989677623,-0.6387207112829525,0.01666666753590107
440,7358.0,-0.12668737467452884,-0.055609074497222896,-0.11030980197787284,1.786673135022074,-3.3617584060668944,-9.1424086769104,-2.5849002458735466,0.3204631377077424,-0.6052666048107886,0.01666666753590107
441,7374.0,-0.12651990915313363,-0.0630330870181322,-0.17477613666951655,1.7871220478333532,-3.362805869293213,-9.209147048187255,-2.3087915562230736,0.36273144322124895,-0.7404050458298115,0.01666666753590107
442,7391.0,-0.10729615324512123,-0.06363835943490266,-0.19093992048501968,1.8044798637390136,-3.3571196403503416,-9.228001386260987,-1.7082926368963653,-0.5959363529611397,-0.9674530736414647,0.01666666753590107
443,7408.0,-0.10064195605292915,-0.07947948716729879,-0.14617840321660042,1.8074727619446813,-3.369689199066162,-9.185205031585692,-1.6901051237970908,-0.8563376885938461,-1.4118333986138394,0.01666666753590107
444,7424.0,-0.08108443814590573,-0.06855535757094622,-0.1576946534872055,1.824680940246582,-3.353528630121052,-9.199121328735352,-2.5522724322083956,-1.2649070649435796,-1.3501269083310055,0.01666666753590107
445,7441.0,-0.019673399371653796,-0.014258242455124854,-0.17359364888668058,1.8812441005982456,-3.293075038202107,-9.2182749420166,-2.4119355235399054,-1.6231783412759573,-1.345506285357492,0.01666666753590107
446,7458.0,0.022993922096490857,0.03764408647865057,-0.19927520263195037,1.9185038639344274,-3.2338185471132395,-9.247753549957276,-1.7333600714805468,-1.7900370879350185,-1.7282506630945542,0.01666666753590107
447,7474.0,0.01768544042482972,0.024901509283483027,-0.2063496710628271,1.909226332501322,-3.2423475982666012,-9.25718071899414,-1.2350539089070405,-2.2879616136886503,-2.4842627445386976,0.01666666753590107
448,7491.0,-0.00234539408236742,-0.0112476624622941,-0.18907061948180198,1.8833388809204101,-3.2742207001283763,-9.242665871429443,-0.7271372432845031,-2.5676006573663734,-2.9282988920099275,0.01666666753590107
449,7508.0,0.008052081291377544,-0.033868659593164915,-0.16841478494405746,1.8893245312012732,-3.2939728638246653,-9.223961170959472,-0.4023334669983647,-2.626517228816669,-3.1845897877836085,0.01666666753590107
450,7524.0,0.014317571426928043,-0.04806289690136909,-0.17003215701282023,1.8926164123535154,-3.305644596917927,-9.227103560638428,-0.26389044172067216,-2.0428839675414263,-3.225056097294995,0.01666666753590107
451,7541.0,0.026830577649921177,-0.05770809260308742,-0.2021440360665321,1.9033903198242186,-3.3123779968261715,-9.260622383880614,0.034621081644457485,-1.3213534557918574,-3.356938512431479,0.01666666753590107
452,7558.0,0.07394158065393566,-0.03891045315265655,-0.19251696054339407,1.9505261650085448,-3.2921772125795483,-9.251494490051268,0.4696293465389434,-0.9340292227728899,-3.30944543236803,0.01666666753590107
453,7574.0,0.11943564998060464,-0.020414719258248806,-0.19568273109793663,1.9957168674744665,-3.273921424920857,-9.254636879730224,0.9813940233459896,-1.3998261394963687,-2.544046536570173,0.01666666753590107
454,7591.0,0.17851356963217258,-0.03151303637772798,-0.1293733988881111,2.051681331280619,-3.286341346032917,-9.188497058868407,0.675457897590071,-1.9636772519445502,-2.3654957867125193,0.01666666753590107
455,7608.0,0.20619974119812248,-0.005360065728425979,-0.08525777830779552,2.075473564147949,-3.2600051277711986,-9.145251791381835,0.08973391807793003,-2.927659842435708,-2.036048228842713,0.01666666753590107
456,7624.0,0.2223858829759061,-0.0027037060007452964,-0.08623568342924118,2.085948196411133,-3.2562641876772043,-9.147795630645751,-0.21240535621118875,-3.038346899917173,-1.541098997524562,0.01666666753590107
457,7641.0,0.25282310681566594,0.031418343831598756,-0.15087152946889398,2.108543474578857,-3.220350870513916,-9.214683639526367,-0.032502335619578375,-3.115832834730029,-0.7934162250515432,0.01666666753590107
458,7658.0,0.2260143026061356,0.03218640559464693,-0.13055647119283675,2.0760721145629883,-3.2191540619447827,-9.195679663848876,0.26909093708254933,-2.7782633281634306,-0.719325694668977,0.01666666753590107
459,7674.0,0.20331278758496044,0.04550269102454185,-0.10535597896277904,2.049137492016703,-3.205985952813923,-9.171288734436034,0.4461110308750325,-2.4412731070158142,-1.25947578389295,0.01666666753590107
460,7691.0,0.1615191802114248,0.023941139818727968,-0.0572387215256691,2.0046951237000523,-3.2279826805666088,-9.12355433883667,0.42664050942885334,-2.515378525076337,-1.420552988863007,0.01666666753590107
461,7708.0,0.14790435022637247,0.024647242261469363,-0.05396598346531391,1.988983175305277,-3.2276831130981445,-9.120561586761474,0.5379877473822822,-1.7367583040360397,-0.9859578703720275,0.01666666753590107
462,7724.0,0.13626140483617782,0.009798048175871371,-0.03184299898445606,1.975515790966898,-3.2427965110778807,-9.098714496612548,0.3446284003521004,-1.6211883016282507,-0.7868459565959612,0.01666666753590107
463,7741.0,0.05819003090113401,-0.014802724595367907,-0.012765373548865318,1.898302787426859,-3.2662899071291087,-9.079859574016929,0.018175413525881607,-1.200779272599976,-1.340160168228076,0.01666666753590107
464,7759.0,0.025739421412348747,-0.03510726147741079,-0.002497662034630775,1.8691234546937048,-3.2836478691652413,-9.069984076690673,-0.3214213385431011,0.11785455394281301,-1.9273987021680274,0.01666666753590107
465,7774.0,0.0494428069524467,-0.02767418886721134,-0.026901450929045674,1.8965069900512694,-3.273322582244873,-9.094674281311034,-0.7311483785962989,0.8512578954812078,-1.1908296079699716,0.01666666753590107
466,7791.0,0.1088607722133398,-0.0018844985723495483,-0.0876245074391365,1.963395145062357,-3.244442816980183,-9.15497823562622,-0.5477961658346849,1.6158823118602086,-0.16228988371285155,0.01666666753590107
467,7808.0,0.13432619898989795,0.04331950176656246,-0.12300327933430671,1.9931730282105504,-3.1982047974184153,-9.189843797302245,-0.26812766696616597,0.7638682930935392,0.04796217532121134,0.01666666753590107
468,7824.0,0.11118556189909577,0.03372574399113655,-0.08030570885837078,1.9713259380616246,-3.207332398986816,-9.147047442626953,-0.2325594301828981,0.12042042389427672,-0.3290672017104015,0.01666666753590107
469,7842.0,0.09847615632116793,0.04576368004828691,-0.070510291031003,1.9580081913270055,-3.1946132026672363,-9.137620273590088,-0.5117675049322494,-1.2797411686037894,-1.1189188150671385,0.01666666753590107
470,7858.0,0.08996668665111064,0.034331308668851854,-0.06341361076831817,1.946635295049846,-3.203741096496582,-9.131933460125326,-0.6523520079581525,-1.5583184380306931,-0.7526428238317703,0.01666666753590107
471,7874.0,0.08421776773557066,0.03286445098668336,-0.06362754577994346,1.939004069519043,-3.2026936332702634,-9.133429836162923,-1.1017916888365085,-1.1033191966113582,-0.19227217301338614,0.01666666753590107
472,7891.0,0.05368161356598138,-0.0026090134546160695,-0.053365679484605785,1.9089270572938024,-3.2326211540222167,-9.125050714874266,-1.8850064927541088,0.4450219358675328,0.42055545120860666,0.01666666753590107
473,7908.0,0.05049100083112716,0.008277706740796566,-0.056547232130169864,1.9087772735595703,-3.2163103629514573,-9.12953925846517,-2.3799610601575485,1.0500200288665753,1.0354121752226222,0.01666666753590107
474,7924.0,0.05589110630899667,0.004973696759343147,-0.07079962936639786,1.9164086452208458,-3.2142157287597652,-9.145251791381835,-2.3203755570554154,1.0603044794876164,1.0523799659465205,0.01666666753590107
475,7942.0,0.05443126288950443,-0.006013853462040424,-0.07567454192638397,1.9180548049926758,-3.2190044243410227,-9.151686208343506,-1.930697043206909,0.58856166964823,1.2093671682642093,0.01666666753590107
476,7957.0,0.039378655186295505,-0.038596272636950014,-0.079764441588521,1.9038390865050254,-3.2474352767944334,-9.157072577556967,-1.7809900754925134,0.07640026824015445,0.6686067909657251,0.01666666753590107
477,7974.0,0.029179478863626717,-0.057983402413129805,-0.08698328692615032,1.8936640217103062,-3.262249691827595,-9.165901780700683,-2.328601025806815,0.2204266930198547,0.7289663465998913,0.01666666753590107
478,7991.0,0.035946634911000724,-0.07746084082126617,-0.1611409945487976,1.9011457557678222,-3.276464971923828,-9.241768045806884,-2.2924603604741614,0.6488517494519326,0.8641453418671111,0.01666666753590107
479,8008.0,0.08286401503905653,-0.08731032692342997,-0.2855132241487503,1.9515736282348632,-3.2805051872253417,-9.367463048443197,-1.465014532152028,1.7733527500616757,1.6775187927040498,0.01666666753590107
480,8024.0,0.1346668291211128,-0.05584054516553878,-0.31153613867759705,2.005742440795898,-3.2480338272094724,-9.393350938415526,-0.26175216562363507,1.5391456701436441,2.4170359673026125,0.01666666753590107
481,8041.0,0.16671747950688004,-0.0835024590730667,-0.2274941659003496,2.0382138008117674,-3.279008811187744,-9.30805750427246,0.6864405216103341,0.4490479054964322,2.9819833251125814,0.01666666753590107
482,8058.0,0.09512173132672905,-0.15201134715378284,-0.07922025170922278,1.9638437656126915,-3.349189139612019,-9.159766054424644,-0.8774183737760028,-0.6181009571480658,2.8945976714280266,0.01666666753590107
483,8074.0,0.07274535660669207,-0.18010989891290663,-0.06510346355140209,1.9363104465208947,-3.374627239990234,-9.147645408520102,-2.511134629724232,-1.5751705424255245,3.0158604230656096,0.01666666753590107
484,8091.0,0.10427315216213465,-0.12573884177803993,-0.14794249027967452,1.9584571041382848,-3.314473215539753,-9.234435803222656,-2.0115182447688467,-1.7582285768051518,3.5968518952359387,0.01666666753590107
485,8108.0,0.0866267285734415,-0.06340484293997288,-0.2594061384677887,1.9352631294250486,-3.251475784356892,-9.347262556457519,0.235772847424404,-0.9252182787435735,3.994549904943686,0.01666666753590107
486,8124.0,0.08785217871516943,-0.04662584983557463,-0.25617782407104966,1.9312227679930627,-3.2392049163267016,-9.343521031841636,1.741861095676274,-0.8586441047383419,3.8114747950911334,0.01666666753590107
487,8141.0,-0.004870382515341043,-0.0687125939592719,-0.12955927684903143,1.8347066596984862,-3.268085558374226,-9.215281605419516,1.6801978276842815,-0.5040058487141762,3.801444235408147,0.01666666753590107
488,8158.0,-0.062042176284641024,-0.07900427087098359,-0.009118541479110717,1.771260461834818,-3.2849943153381345,-9.093776455688475,0.4852695726037734,-1.175270650484094,4.045229481698358,0.01666666753590107
489,8174.0,-0.08879676608890294,-0.05996347031444311,0.028070494708418846,1.7389387394227087,-3.2676366455629466,-9.057115242767333,-0.5513703291221586,-1.2200412598330583,3.6529217719062195,0.01666666753590107
490,8191.0,-0.12415990202352403,-0.009231354203820229,-0.024201544320583343,1.697189847973734,-3.2160116722658274,-9.11098478012085,-0.949590314692883,-0.8934937575961568,2.8419089518403133,0.01666666753590107
491,8208.0,-0.14941139378845691,0.05909282495975494,-0.1059375782430172,1.6686089195251463,-3.1462805489137766,-9.193884012603759,-0.6718115370686362,-0.3689377639796898,2.355874824936322,0.01666666753590107
492,8224.0,-0.14142726316675544,0.10511077203005552,-0.11297522179484366,1.6733971767149864,-3.1012393379211423,-9.201215670666098,0.4795098555036015,-0.9283096863949447,2.2168061970193387,0.01666666753590107
493,8240.0,-0.15872414266541598,0.19534633875042198,0.045748190218210215,1.6514004489623009,-3.015048370416462,-9.042001844787597,1.3570298817043611,-1.4530006562887987,1.1888676361308854,0.01666666753590107
494,8258.0,-0.3296324979908764,0.22439590762406586,0.37492519952654835,1.4731823551453649,-2.989759615381062,-8.712948169597983,0.02447207420826645,-1.832780518482664,-1.127631575127136,0.01666666753590107
495,8274.0,-0.4497812646768987,0.17130904508084058,0.5089315189123154,1.3497313320435582,-3.0385411819458006,-8.58111802520752,-2.7926272159879675,-1.5868405609527259,-3.861807739745427,0.01666666753590107
496,8291.0,-0.6904284882694482,0.04436842629760503,0.612693506681919,1.1131541343688964,-3.1464301865175366,-8.483255032348632,-6.715315206570068,1.7708683754727892,-6.4915658933232665,0.01666666753590107
497,8308.0,-0.798389535164088,-0.028279169023036954,0.5051864871650934,1.0184335311889647,-3.1976059547424316,-8.595632288250327,-7.79156220135414,5.412608594099169,-7.534800876301375,0.01666666753590107
498,8324.0,-0.8215560373485088,-0.0485503881573677,0.3844873931199312,1.0199300533570348,-3.1956609581544995,-8.719083895874023,-7.464551526914148,9.938503247127064,-8.542124859057672,0.01666666753590107
499,8341.0,-0.7592514107353985,-0.06566869621872902,0.16120821456611156,1.1299135459899903,-3.184887050683796,-8.942193563079833,-6.396341530349065,14.101466833983048,-9.37301566404243,0.01666666753590107
500,8358.0,-0.5804921957790852,-0.037378713540732855,-0.012853636354207991,1.3492821269713342,-3.1374519302919506,-9.114276807403565,-6.014572375559434,14.968769377433144,-9.655610472083477,0.01666666753590107
501,8374.0,-0.4786130991466343,-0.029194238041341303,-0.07527589799761772,1.492635097503662,-3.109768973596394,-9.17443112411499,-6.3751158637296035,13.941915322518842,-9.816056738328953,0.01666666753590107
502,8391.0,-0.20259981701001523,0.03857464532703161,-0.2213414884895086,1.8136079036988317,-3.015496990966797,-9.319579599761962,-6.538961429747632,9.699789843182412,-8.94903337886118,0.01666666753590107
503,8408.0,0.06691226653903723,0.15544512099474667,-0.4273573975533247,2.1021090576171875,-2.8809730774477122,-9.527276593780517,-5.453318229099738,4.931712476998319,-7.606079876705982,0.01666666753590107
504,8424.0,0.11003726864680648,0.11758271559029818,-0.49836219410300253,2.157325333404541,-2.9028198753356933,-9.600898294830321,-5.176920537070008,1.9652362426226058,-7.456787309375136,0.01666666753590107
505,8441.0,0.17287439470142124,0.15576076281517742,-0.6334726753383875,2.223764429473877,-2.8413188201904296,-9.74290438079834,-6.477129861625622,-2.2630702699190084,-7.103230250952242,0.01666666753590107
506,8458.0,0.188051359436661,0.1667746165215969,-0.6962240228056907,2.2343888454712926,-2.812139487457275,-9.81263550415039,-5.768059749356272,-4.665794856476328,-6.597893155680148,0.01666666753590107
507,8474.0,0.21216054929867387,0.14964140315204857,-0.6751876645177602,2.249651588793844,-2.813037020818889,-9.798868260082601,-4.815980044154331,-6.5985377547830675,-6.1004735303165685,0.01666666753590107
508,8491.0,0.24527166852280496,0.13598024980723858,-0.61742871851027,2.263418540600687,-2.8089970977783203,-9.751134449005127,-3.276377498388236,-9.26293692028392,-6.0001734830154,0.01666666753590107
509,8508.0,0.25174773266911504,0.07998042242676019,-0.4978443077087402,2.2515971699036657,-2.8546368591859936,-9.638906246185302,-2.392406091712135,-9.672957445028016,-5.851179736460742,0.01666666753590107
510,8523.0,0.27812954363822934,0.0620204028442502,-0.4845288990616798,2.2589291202269495,-2.864063735961914,-9.632471244701742,-2.022121046238234,-9.910659127201862,-5.914305198543646,0.01666666753590107
511,8540.0,0.39740781110003587,0.0537397734940052,-0.5074947641074657,2.3584384189881384,-2.864811923980713,-9.662100074768066,-1.4006010458020477,-10.218698097448499,-5.181057924159743,0.01666666753590107
512,8558.0,0.519698996642232,0.05254764109998941,-0.4748521391779184,2.452859600830078,-2.861519604437053,-9.636810735210776,1.0317907875803403,-10.821907961545467,-4.692864176817558,0.01666666753590107
513,8574.0,0.5606997000724077,0.05295242250859737,-0.4217874884665012,2.4712648799620567,-2.8630162727355954,-9.587879823303222,2.63015558521017,-11.229140061560905,-5.33400506958337,0.01666666753590107
514,8590.0,0.599190028116852,0.05162234294861555,-0.3016881138801574,2.4877253086365756,-2.869001776885986,-9.470863217163085,3.573435018553373,-10.975716137691338,-5.893201194668777,0.01666666753590107
515,8608.0,0.6000421149015426,0.03253565742373466,-0.1659732370108366,2.4607903938293454,-2.896535095977783,-9.338134662628173,4.312280486735747,-10.368325344048674,-6.087827008181466,0.01666666753590107
516,8624.0,0.6067359134517609,0.04617898285090923,-0.09843699335455894,2.448669894055277,-2.8904002464845773,-9.271994841766357,4.560708981001097,-9.59262929774679,-5.400372737087914,0.01666666753590107
517,8641.0,0.539859448878467,0.05565495946556329,0.09021978462934493,2.3590369694031774,-2.890998504638672,-9.08464856185913,3.952542107113992,-8.80839722252968,-5.6007303599747145,0.01666666753590107
518,8658.0,0.375415467261523,0.06134966397583484,0.22117489975094795,2.18186575429067,-2.8898011115476487,-8.954762537273764,2.5824938848515866,-7.4921087788942105,-6.188345194649251,0.01666666753590107
519,8674.0,0.28531024892255663,0.05889291847348213,0.2096352686047554,2.0834043571472165,-2.8936922737672925,-8.967482318115234,1.669883388263916,-4.982108174015612,-7.333343592958203,0.01666666753590107
520,8691.0,0.1362140585631132,0.05741320130974054,0.08806640598773956,1.9373579097472131,-2.8944398772642015,-9.088688192638754,1.8599922055794065,-1.8045342711700763,-8.619723491991833,0.01666666753590107
521,8708.0,0.0850922124825418,0.046133974665403366,-0.040836452779173846,1.9066823471069334,-2.906860382898152,-9.213187263488768,3.398048567272139,3.5578480999805806,-9.273920718242946,0.01666666753590107
522,8724.0,0.11771306397169828,0.06077829382866621,-0.1632324138700962,1.9627963023863733,-2.8975822669431563,-9.329155821880697,5.1919934839077575,6.309908047723492,-8.913050234766262,0.01666666753590107
523,8741.0,0.16649068501368164,0.010992226396501064,-0.16186638621389865,2.0425532913208007,-2.956539775085449,-9.318532136535644,6.0849045409903475,8.135149744909755,-8.20692991044471,0.01666666753590107
524,8758.0,0.23907763618826866,-0.006688683983683586,-0.07923135762512683,2.1507414249695835,-2.987814326532185,-9.224110224041342,5.916054580744816,6.512936274575767,-7.7121544220635725,0.01666666753590107
525,8774.0,0.22571152026727795,-0.044381578040122986,-0.04435761264264583,2.1582231590270995,-3.034052053833008,-9.182062641906738,4.888403101244915,5.520131993334449,-7.359636406168167,0.01666666753590107
526,8790.0,0.21367022320926188,-0.08720511298328637,-0.04941664959788322,2.161964245251566,-3.082086016900837,-9.182062641906738,3.637417669377114,3.864820706943049,-6.835425363785212,0.01666666753590107
527,8808.0,0.22426526698172092,-0.07058890922516584,-0.15943419063091277,2.1902456062316893,-3.0690675453737377,-9.287108239746093,2.563419514377268,3.2247323036396542,-4.456572074933675,0.01666666753590107
528,8823.0,0.22476459480598568,-0.072442428137362,-0.20070494317412374,2.2007202384948727,-3.075202687127888,-9.324816915893555,3.3416636481263917,2.464997128767619,-2.4521013047278117,0.01666666753590107
529,8841.0,0.1704902760438621,-0.08279781793504953,-0.1584960329979658,2.1559787411011753,-3.092410719299316,-9.278279621124266,3.9025071294622404,2.724115722857685,-1.130397374854168,0.01666666753590107
530,8858.0,0.05920008472651243,-0.12726064451783894,-0.03506722172796726,2.0531777073182162,-3.1476269950866698,-9.149441644287108,3.057146355277398,1.1647144864001335,-0.4759938021849259,0.01666666753590107
531,8874.0,0.006568564735352993,-0.1288946754604578,0.04034253178238868,2.0042462108887733,-3.1545106171205637,-9.07148045272827,1.5024064027632629,1.1031441730138767,0.47375899630500945,0.01666666753590107
532,8891.0,-0.02167056453824043,-0.0941033480644226,0.06336567997336387,1.9789573097229003,-3.1223385323122144,-9.04693988571167,0.35753900534815836,0.4766778349581321,1.9020648902062156,0.01666666753590107
533,8908.0,-0.10592705684900283,-0.08168985669314861,0.05035188462138176,1.8960580772399902,-3.111714262445271,-9.059060531616211,-0.22548148657291373,0.6673886160550827,2.966828629448204,0.01666666753590107
534,8924.0,-0.162138919544965,-0.06846884833127259,0.052608723637461656,1.8403930347718298,-3.0985458610534664,-9.056665745434165,-0.8832116548526431,0.5406948501711344,2.117753513015344,0.01666666753590107
535,8941.0,-0.24766397048681973,-0.07887859866470098,0.07451777310669422,1.7562965553283691,-3.107823684747517,-9.034819239807128,-1.4857934617110877,0.9790643952304864,1.4104280871921093,0.01666666753590107
536,8958.0,-0.22836159638464448,-0.04257745122760534,0.01491933671236038,1.7790414710998534,-3.0680197898864745,-9.094823334392904,-2.4792493856879085,1.9289344275142226,1.4185180193771663,0.01666666753590107
537,8974.0,-0.17981398470625282,0.0013210194706916808,-0.02942833905816078,1.8302176777161656,-3.020285686548054,-9.139864837646483,-2.171125038076647,1.5719868204986522,1.9773754097684224,0.01666666753590107
538,8991.0,-0.16542568613067268,0.014568039056658743,-0.0476572387099266,1.8463783927917479,-3.0044241005495187,-9.158568953594564,-1.4167546566325393,1.4572417768765535,0.7328226287165982,0.01666666753590107
539,9008.0,-0.16476576091721654,0.009295943872630595,-0.03621405367553234,1.847425709887594,-3.0074165603637693,-9.147795630645751,-1.8644503981167206,2.156918458046432,-0.7849800342920783,0.01666666753590107
540,9024.0,-0.15094459470510482,0.0068187401041388505,-0.08373392974138259,1.8659810650147497,-3.0047233757570386,-9.195978939056396,-2.578607507213849,2.8397798538099734,-1.3507913576712007,0.01666666753590107
541,9041.0,-0.011120090559870004,0.06639730275422334,-0.17087854470908642,2.0088848304748534,-2.9405285514831543,-9.283965850067139,-1.877008341236024,2.907376315034886,-1.195441479763611,0.01666666753590107
542,9058.0,0.06752864487171173,0.05993599778562784,-0.17373977935910223,2.093878843279928,-2.9427734078004955,-9.286808380016684,-0.6100935208415779,2.5848791149758017,-0.8785553334685455,0.01666666753590107
543,9074.0,0.06886676160767674,0.02164279974848032,-0.15124386991262434,2.0994157268799842,-2.9789854156494138,-9.264063464245199,-0.7817243819355094,1.5439856062225386,-1.8235779057931296,0.01666666753590107
544,9090.0,0.07491495573073625,-0.03834375918060541,-0.12192483644783496,2.1071967361450192,-3.035099809320271,-9.235632904052734,-1.5471175681221068,1.6882724986654118,-2.669544645823399,0.01666666753590107
545,9108.0,0.19578604534193872,-0.024247137027978895,-0.21954817533195017,2.2330419609069825,-3.0137013397216794,-9.334543360137939,-1.15048965695823,1.6605703186088978,-1.851694379511487,0.01666666753590107
546,9124.0,0.25216025899276134,-0.016380056914687156,-0.24846798034608364,2.293645044299215,-3.0035262749269602,-9.363273780059814,0.37363442616857273,1.817674914802946,-0.41146308204114457,0.01666666753590107
547,9141.0,0.2921716591246426,-0.02802665556669235,-0.26983050184845925,2.3374888622008263,-3.0160955413818358,-9.383474272045493,1.2826818852065973,0.945129133947807,0.024629075177684184,0.01666666753590107
548,9158.0,0.2583971075557172,-0.09803893394768237,-0.12436112368404864,2.30456873550415,-3.09001651763916,-9.236530729675293,1.1883485417539643,-0.5257431391911533,-0.40668002863143154,0.01666666753590107
549,9174.0,0.23471666449978945,-0.10468348652869462,-0.08456745795607566,2.27927998046875,-3.098246878106892,-9.196577489471435,0.24249940981810295,-1.2226185890276802,-0.02356788789624634,0.01666666753590107
550,9191.0,0.23316242079511285,-0.08710574426203965,-0.0957025999546051,2.27434208567515,-3.0808886238098143,-9.208398860168456,-0.01627795495794033,-1.691049397449845,1.0524777230290163,0.01666666753590107
551,9208.0,0.19553718514740465,-0.051877779014408584,-0.1338140116840601,2.231994497680664,-3.0473700928285714,-9.247005361938475,0.6355287184238823,-1.2381683684468605,2.291541273143972,0.01666666753590107
552,9224.0,0.15544906651750207,-0.058955462315678595,-0.14283844513893126,2.1884501011170445,-3.0578444328308105,-9.255684342956542,1.3201295712699557,-0.832803364674068,2.4285651131781827,0.01666666753590107
553,9241.0,0.0603657675050199,-0.06137275259047746,-0.08155249404907226,2.0917840629577635,-3.0660745010375976,-9.19283596485555,1.1037294348483822,0.10681764859494676,1.6138679396635836,0.01666666753590107
554,9257.0,0.01270867492556572,-0.06169833128303289,-0.0008452186524868011,2.045546043395996,-3.0698157333925367,-9.110685504913329,0.7491879220505074,0.6289111188917861,1.2335689830927974,0.01666666753590107
555,9274.0,0.010997779354453086,-0.06001490824073553,0.015211597657203674,2.0458453186035155,-3.0707132667541504,-9.093326958355307,0.6360770545481873,1.0273703745268727,1.447929881160299,0.01666666753590107
556,9291.0,0.020602789176255465,-0.036088381469249725,-0.012541501665115355,2.0591630653381348,-3.0494647270202635,-9.119364485931396,0.8835379564680699,1.5047032673150913,1.8946366325970037,0.01666666753590107
557,9308.0,0.0009634382046759128,-0.027452070549130438,-0.027983400946855544,2.0446482177734375,-3.044676615960896,-9.132382957458496,0.7611050546874458,1.9411517149486714,2.104174456615124,0.01666666753590107
558,9324.0,-0.02477744451239705,-0.03494301082640886,-0.05475216540694237,2.022202431079,-3.054851680755615,-9.157521490368246,0.5816616844826362,1.8740892891394896,1.73910799583223,0.01666666753590107
559,9341.0,-0.02801613417267799,-0.024685528445243833,-0.039144846430420877,2.022202723339945,-3.047220455224812,-9.140313165935874,0.3222983241603602,1.9431719568391141,1.6247905860851977,0.01666666753590107
560,9358.0,0.01923442343249917,0.004109481145441532,-0.1037286700218916,2.073528275299072,-3.0213331497743723,-9.203011906433105,0.5484131773766604,1.3204562464113527,1.5299943905945907,0.01666666753590107
561,9374.0,0.025072628066688776,-0.023646833047270773,-0.10445815334022045,2.0816089981630443,-3.0515596534729004,-9.202413356018067,0.6774929737976174,1.4382755154901918,1.3704958130964529,0.01666666753590107
562,9391.0,0.06770297852531075,-0.04376227709800005,-0.13371113583147526,2.126649624633789,-3.07430427698344,-9.230245365795492,0.2546027184707771,1.1591643173692636,1.7487083603192117,0.01666666753590107
563,9407.0,0.11877791672423481,-0.09200637578517198,-0.16656477316319943,2.17707749710083,-3.124582804107666,-9.262567672729492,0.33526015557519323,0.7540877823671982,2.3918276600667996,0.01666666753590107
564,9424.0,0.1422986391738057,-0.08616261819303035,-0.1740893234491348,2.199672629138082,-3.121290484564006,-9.26945041798055,0.7706238837912107,0.40008388016219754,2.928601341324112,0.01666666753590107
565,9440.0,0.13865283001735806,-0.08031067729443311,-0.19095804066359995,2.1933879959106446,-3.1188968674257396,-9.285760916790366,1.3270133347362707,-0.4418376536517053,3.0681803124381424,0.01666666753590107
566,9458.0,0.11847922603860497,-0.08292728953361511,-0.17311609450280666,2.1691467041015624,-3.1290719322204588,-9.266308612823487,2.0624131859257853,-0.3187538028266674,3.4170932691122506,0.01666666753590107
567,9474.0,0.1401240716136992,-0.0853980635613203,-0.1724210979759693,2.1862050986692307,-3.1387983764648437,-9.26421310184896,2.4063838604051546,-1.0922040242325146,3.8692654525454344,0.01666666753590107
568,9491.0,0.11922390692606567,-0.10898527537584304,-0.1503098039329052,2.1601684478759764,-3.170371910858154,-9.240570360454916,2.3148941168030683,-0.8558862024175377,4.445968633134053,0.01666666753590107
569,9507.0,0.1048709719248116,-0.1197863631144166,-0.14385668227076528,2.137573461969197,-3.1914711052492257,-9.232489929851889,2.1959423169824768,-1.9778810572104149,4.671909156443959,0.01666666753590107
570,9523.0,0.09693170335814356,-0.13259440676122902,-0.12788169902563096,2.1208139042176306,-3.2119714569643136,-9.215880740356445,2.325291158823709,-2.4824281984163146,4.6215399264097,0.01666666753590107
571,9540.0,0.06906959070339798,-0.11001812555491923,-0.09417641330063342,2.084302036639303,-3.197157334192097,-9.181464091491698,2.2006229175546395,-2.2537628565143963,5.077918225711143,0.01666666753590107
572,9557.0,0.05624664174839854,-0.07333265497535467,-0.1290641868084669,2.0599112533569333,-3.1715693039491772,-9.215132552337646,2.563249186534841,-2.0209558586545118,5.058787719619583,0.01666666753590107
573,9573.0,0.03454392850622535,-0.06225567290484905,-0.11303308946192264,2.0307320667542514,-3.1700726356506346,-9.197475315093994,3.121196667662604,-1.158382794317826,5.4700564614345,0.01666666753590107
574,9590.0,0.014206073876470326,-0.05707184052616358,-0.1278624098032713,2.004395848492533,-3.1757588645935058,-9.209895236206053,3.5401051895075915,-0.9336967846593808,5.502642013304161,0.01666666753590107
575,9607.0,-0.022546908981353045,-0.06155249307155609,-0.0970318027317524,1.9590555084228514,-3.1961095787048337,-9.175478002819418,3.937054226284165,-1.4759081502696696,4.716347220957709,0.01666666753590107
