,ms,accelX,accelY,accelZ,accelWithGX,accelWithGY,accelWithGZ,rotRateAlpha,rotRateBeta,rotRateGamma,interval
0,137.0,0.1,0.0,0.0,1.4000000000000001,5.2,8.700000000000001,-6.699999999999999,-11.1,6.1000000000000005,16
1,157.0,0.30000000000000004,0.2,-0.2,1.7000000000000002,5.6000000000000005,8.6,1.3,-6.600000000000001,1.4,16
2,170.0,0.30000000000000004,0.2,-0.2,1.7000000000000002,5.6000000000000005,8.6,1.3,-6.600000000000001,1.4,16
3,187.0,-0.1,0.1,-0.4,1.1,5.5,8.1,6.699999999999999,-6.9,-11.8,16
4,204.0,-0.4,-0.1,-0.4,0.9,5.4,8.200000000000001,3.7000000000000006,-8.899999999999999,-14.900000000000002,16
5,220.0,-0.4,-0.1,-0.30000000000000004,1.0,5.300000000000001,8.3,-0.2,-9.3,-12.5,16
6,237.0,-0.2,-0.1,-0.1,1.1,5.4,8.5,-3.4,-8.600000000000001,-8.3,16
7,254.0,-0.1,-0.1,0.1,1.3,5.300000000000001,8.5,-4.1,-7.8,-4.4,16
8,270.0,0.0,-0.1,0.0,1.3,5.4,8.3,-1.9,-6.500000000000001,-1.2000000000000002,16
9,287.0,0.1,0.0,-0.2,1.5,5.4,8.200000000000001,1.8000000000000003,-3.5,0.8,16
10,304.0,0.30000000000000004,0.1,-0.30000000000000004,1.7000000000000002,5.6000000000000005,8.3,3.3000000000000007,-2.0,1.6,16
11,320.0,0.4,0.2,-0.2,1.8,5.6000000000000005,8.4,1.7,-5.0,0.5,16
12,337.0,0.5,0.0,0.1,1.9000000000000001,5.4,8.6,-0.5,-11.700000000000001,-3.3000000000000007,16
13,354.0,0.4,-0.1,0.2,1.9000000000000001,5.300000000000001,8.700000000000001,-0.9000000000000001,-15.399999999999999,-8.4,16
14,370.0,0.4,-0.1,0.30000000000000004,2.0,5.300000000000001,8.700000000000001,1.2000000000000002,-15.100000000000001,-12.0,16
15,387.0,0.5,-0.1,0.1,1.8,5.4,8.3,4.6,-10.9,-15.000000000000002,16
16,404.0,0.2,-0.1,-0.2,1.7000000000000002,5.5,8.3,5.1000000000000005,1.5,-15.299999999999999,16
17,420.0,0.2,0.0,-0.2,1.7000000000000002,5.5,8.4,0.6000000000000001,12.100000000000001,-11.8,16
18,437.0,0.5,-0.2,0.0,2.4000000000000004,5.0,8.4,-4.9,5.4,-12.4,16
19,454.0,0.8,-1.0,-0.30000000000000004,1.4000000000000001,4.0,8.700000000000001,-9.600000000000001,-15.899999999999999,-25.0,16
20,470.0,-0.2,-1.4000000000000001,0.30000000000000004,1.2000000000000002,4.5,9.600000000000001,-16.4,-45.8,-40.5,16
21,487.0,0.1,0.30000000000000004,1.5,2.8000000000000003,6.2,10.3,-24.0,-92.50000000000001,-31.2,16
22,504.0,1.1,1.2000000000000002,1.9000000000000001,3.9000000000000004,5.9,10.100000000000001,-31.3,-135.8,-18.0,16
23,520.0,1.2000000000000002,0.7000000000000001,1.6,3.8000000000000003,5.300000000000001,10.0,-33.50000000000001,-166.9,-1.4,16
24,537.0,0.1,0.1,1.2000000000000002,4.800000000000001,5.300000000000001,8.4,-26.1,-212.2,29.300000000000004,16
25,554.0,1.8,0.2,-0.9,7.1000000000000005,4.6000000000000005,6.0,-32.8,-273.50000000000006,48.300000000000004,16
26,570.0,2.1,-0.1,-1.8,6.9,4.9,4.9,-83.89999999999999,-311.3,22.8,16
27,587.0,0.8,0.9,-3.4000000000000004,7.2,4.4,3.0,-169.0,-344.8,-12.8,16
28,604.0,0.0,0.4,-4.800000000000001,3.7,2.2,2.6,-254.2,-352.20000000000005,-6.0,16
29,620.0,-3.5,-0.7000000000000001,-3.9000000000000004,2.9000000000000004,2.0,4.0,-303.2,-318.8,44.10000000000001,16
30,637.0,-3.6,1.3,-0.5,4.3,1.8,5.0,-295.4,-264.4,157.8,16
31,654.0,0.6000000000000001,3.4000000000000004,8.5,9.700000000000001,1.7000000000000002,11.0,-236.3,-287.7,243.9,16
32,670.0,1.4000000000000001,1.1,5.4,7.2,-0.5,4.5,-57.800000000000004,-99.8,233.8,16
33,687.0,-2.9000000000000004,-0.1,-1.0,7.0,1.0,4.5,39.599999999999994,-66.80000000000001,198.10000000000002,16
34,704.0,0.4,1.8,-0.4,9.600000000000001,1.1,5.300000000000001,53.599999999999994,-53.9,175.79999999999998,16
35,721.0,1.1,1.3,0.0,10.3,-0.8,5.9,48.50000000000001,-21.900000000000002,126.10000000000001,16
36,737.0,3.1,-3.4000000000000004,1.7000000000000002,10.700000000000001,-5.1000000000000005,6.4,44.300000000000004,-0.30000000000000004,58.900000000000006,16
37,754.0,0.2,-5.800000000000001,-0.5,6.800000000000001,-5.800000000000001,4.800000000000001,54.1,-8.5,-5.0,16
38,771.0,-1.8,-5.6000000000000005,-0.5,6.0,-4.4,6.5,70.0,-14.100000000000001,-31.0,16
39,840.0,-3.2,-0.7000000000000001,-3.3000000000000003,6.800000000000001,-2.1,0.1,67.10000000000001,-157.60000000000002,59.699999999999996,16
40,857.0,-0.7000000000000001,-4.0,-4.5,8.8,-5.800000000000001,-0.7000000000000001,36.1,-160.60000000000002,76.0,16
41,876.0,-0.2,-4.9,-2.1,6.9,-3.8000000000000003,2.6,15.299999999999999,-84.69999999999999,47.1,16
42,887.0,-2.3000000000000003,-2.9000000000000004,-0.30000000000000004,3.3000000000000003,-1.6,4.3,15.299999999999999,-84.69999999999999,47.1,16
43,904.0,-8.6,0.5,3.0,1.5,-2.3000000000000003,4.1000000000000005,48.2,-106.1,75.00000000000001,16
44,921.0,-7.5,-0.6000000000000001,1.7000000000000002,4.3,-4.5,3.4000000000000004,88.50000000000001,-147.29999999999998,190.50000000000003,16
45,937.0,-2.0,-4.1000000000000005,1.5,8.3,-8.5,3.0,102.0,-160.20000000000002,280.5,16
46,954.0,0.2,-6.300000000000001,1.1,9.200000000000001,-10.0,3.0,108.90000000000002,-164.7,296.0,16
47,972.0,0.7000000000000001,-6.0,1.4000000000000001,9.200000000000001,-9.600000000000001,2.8000000000000003,119.89999999999999,-156.6,278.9,16
48,987.0,1.6,-4.4,1.3,10.700000000000001,-9.0,3.0,145.00000000000003,-127.80000000000001,264.2,16
49,1004.0,3.0,-3.5,2.3000000000000003,11.200000000000001,-9.3,4.1000000000000005,171.10000000000002,-99.9,259.1,16
50,1020.0,3.6,-3.5,2.4000000000000004,12.3,-10.200000000000001,4.0,193.3,-104.7,268.40000000000003,16
51,1037.0,6.300000000000001,-4.2,2.5,15.3,-10.8,5.0,217.3,-115.10000000000002,283.1,16
52,1054.0,9.600000000000001,-3.4000000000000004,2.9000000000000004,17.0,-10.100000000000001,4.7,255.60000000000002,-85.5,280.7,16
53,1070.0,10.4,-3.0,1.7000000000000002,18.8,-9.0,4.4,296.1,-47.60000000000001,261.40000000000003,16
54,1087.0,14.0,0.30000000000000004,0.6000000000000001,20.8,-4.2,2.9000000000000004,308.3,-29.0,232.3,16
55,1104.0,14.9,5.7,-3.7,21.6,1.3,-2.6,298.6,-43.300000000000004,180.60000000000002,16
56,1120.0,15.200000000000001,8.4,-6.9,21.6,2.2,-5.300000000000001,245.80000000000004,-44.7,128.70000000000002,16
57,1137.0,14.100000000000001,8.4,-11.700000000000001,18.2,2.2,-9.700000000000001,136.1,-6.9,59.5,16
58,1154.0,7.0,9.8,-12.600000000000001,11.100000000000001,3.0,-3.7,28.500000000000004,38.900000000000006,-18.200000000000003,16
59,1170.0,4.2,9.5,-7.7,8.700000000000001,2.3000000000000003,-2.1,-70.10000000000001,58.1,-50.2,16
60,1187.0,-2.7,6.800000000000001,-5.4,1.2000000000000002,-3.4000000000000004,0.0,-118.50000000000001,-4.9,-37.7,16
61,1204.0,-7.300000000000001,0.0,-0.30000000000000004,5.7,-6.300000000000001,-3.8000000000000003,-88.4,-59.00000000000001,-9.4,16
62,1220.0,-1.4000000000000001,0.2,-6.7,9.8,-3.4000000000000004,-7.5,-88.4,-59.00000000000001,-9.4,16
63,1237.0,-0.4,2.8000000000000003,-2.6,1.1,-8.0,11.4,-119.60000000000002,21.400000000000002,-75.60000000000001,16
64,1254.0,-7.800000000000001,-8.1,8.4,-0.30000000000000004,-11.0,1.1,2.1,-143.9,-76.5,16
65,1270.0,-7.7,-4.7,-1.0,2.4000000000000004,-6.6000000000000005,2.9000000000000004,2.1,-143.9,-76.5,16
66,1287.0,-2.7,0.6000000000000001,1.6,6.2,-5.7,2.4000000000000004,24.1,-49.199999999999996,-83.30000000000001,16
67,1304.0,-0.1,0.0,-0.8,8.700000000000001,-5.1000000000000005,0.6000000000000001,-49.300000000000004,-67.9,-124.39999999999999,16
68,1321.0,0.7000000000000001,0.4,-1.1,8.9,-5.1000000000000005,0.9,-49.300000000000004,-67.9,-124.39999999999999,16
69,1337.0,0.5,-0.30000000000000004,-0.4,6.9,-5.0,-0.7000000000000001,-89.8,-77.9,-149.20000000000002,16
70,1354.0,0.30000000000000004,-2.2,-0.8,6.6000000000000005,-6.4,-0.6000000000000001,-91.6,-18.4,-188.5,16
71,1370.0,-2.2,-2.0,-1.6,8.200000000000001,-4.2,3.8000000000000003,-91.6,-18.4,-188.5,16
72,1387.0,1.1,0.6000000000000001,0.5,9.9,-4.6000000000000005,-1.0,-86.2,44.8,-160.8,16
73,1404.0,0.2,-0.5,-2.3000000000000003,8.8,-3.3000000000000003,-1.3,-111.10000000000002,-17.0,-102.10000000000001,16
74,1421.0,-0.5,0.2,-2.0,8.0,-2.5,-1.7000000000000002,-111.10000000000002,-17.0,-102.10000000000001,16
75,1437.0,-2.9000000000000004,1.8,-1.5,5.9,-1.2000000000000002,0.6000000000000001,-109.60000000000001,-11.6,-58.2,16
76,1454.0,-0.8,1.6,1.2000000000000002,13.100000000000001,-4.2,0.9,-53.8,31.6,72.0,16
77,1470.0,4.0,-0.5,0.30000000000000004,16.1,-4.7,0.6000000000000001,-53.8,31.6,72.0,16
78,1487.0,7.6000000000000005,1.6,0.4,18.2,-0.9,1.7000000000000002,-20.900000000000002,75.2,60.300000000000004,16
79,1504.0,8.0,2.0,0.1,14.4,-3.6,-0.4,-25.5,89.9,10.9,16
80,1520.0,5.2,0.30000000000000004,-1.6,13.4,-4.3,0.0,-25.5,89.9,10.9,16
81,1537.0,4.6000000000000005,-0.6000000000000001,-1.2000000000000002,13.4,-5.800000000000001,0.9,-41.6,106.20000000000002,-7.500000000000001,16
82,1554.0,5.0,-3.3000000000000003,-1.5,10.0,-5.0,-1.0,-50.900000000000006,187.3,-111.30000000000001,16
83,1570.0,0.7000000000000001,-1.6,-3.2,10.4,-5.1000000000000005,-1.3,-50.900000000000006,187.3,-111.30000000000001,16
84,1588.0,0.5,-2.2,0.6000000000000001,9.4,-4.4,5.7,-93.4,229.40000000000003,-117.5,16
85,1604.0,0.1,-1.4000000000000001,2.5,5.5,-4.3,7.0,-95.20000000000002,212.70000000000002,-126.70000000000002,16
86,1621.0,-7.5,-1.4000000000000001,3.9000000000000004,0.9,-4.5,8.8,-64.80000000000001,146.1,-103.00000000000001,16
87,1637.0,-7.1000000000000005,-2.3000000000000003,5.4,2.0,-6.1000000000000005,7.5,-10.600000000000001,74.2,-7.300000000000001,16
88,1654.0,-7.2,-3.0,1.0,2.0,-6.2,5.2,103.8,-45.5,100.70000000000002,16
89,1670.0,-6.7,-2.9000000000000004,1.4000000000000001,3.6,-0.7000000000000001,3.2,103.8,-45.5,100.70000000000002,16
90,1687.0,-3.4000000000000004,6.5,-3.6,7.9,0.4,-2.1,119.60000000000002,-108.90000000000002,105.7,16
91,1704.0,-1.5,-0.4,-4.6000000000000005,5.800000000000001,-5.5,0.4,-9.2,-164.20000000000002,35.599999999999994,16
92,1720.0,-3.0,-1.9000000000000001,-2.2,7.9,-6.300000000000001,4.4,-9.2,-164.20000000000002,35.599999999999994,16
93,1737.0,1.7000000000000002,-3.4000000000000004,5.9,11.8,-7.9,9.0,-26.000000000000004,-128.5,60.00000000000001,16
94,1754.0,2.6,0.0,1.5,11.4,1.0,-5.800000000000001,86.60000000000001,-166.20000000000002,34.2,16
95,1771.0,2.4000000000000004,4.9,-7.6000000000000005,11.9,1.1,-5.9,86.60000000000001,-166.20000000000002,34.2,16
96,1787.0,3.7,3.7,-3.5,10.700000000000001,0.4,0.7000000000000001,21.6,-33.50000000000001,13.100000000000001,16
97,1804.0,0.0,5.2,0.2,11.200000000000001,-0.2,1.7000000000000002,-5.500000000000001,-31.9,51.1,16
98,1820.0,2.2,3.7,0.2,12.4,-3.0,2.1,-5.500000000000001,-31.9,51.1,16
99,1837.0,1.4000000000000001,-0.4,0.7000000000000001,7.2,-3.2,1.7000000000000002,27.0,-2.9,56.800000000000004,16
100,1854.0,-3.0,0.30000000000000004,0.2,3.7,-3.2,1.6,-9.600000000000001,48.6,71.39999999999999,16
101,1871.0,-5.0,1.2000000000000002,-0.30000000000000004,2.7,-1.7000000000000002,0.2,-9.600000000000001,48.6,71.39999999999999,16
102,1887.0,-2.9000000000000004,0.8,5.2,8.6,-9.0,5.1000000000000005,-90.0,2.6,100.6,16
103,1904.0,0.5,-5.7,1.2000000000000002,8.0,-8.5,4.0,0.7,17.400000000000002,65.89999999999999,16
104,1920.0,-0.30000000000000004,-3.3000000000000003,2.1,7.4,-4.800000000000001,2.4000000000000004,0.7,17.400000000000002,65.89999999999999,16
105,1937.0,-0.8,0.8,-1.9000000000000001,6.7,-4.3,-0.4,-9.0,5.0,22.3,16
106,1954.0,-3.5,2.2,-2.5,3.4000000000000004,-2.7,1.2000000000000002,-24.5,17.200000000000003,32.6,16
107,1970.0,-4.6000000000000005,2.7,-0.6000000000000001,3.1,-3.3000000000000003,3.8000000000000003,-24.5,17.200000000000003,32.6,16
108,1989.0,-2.3000000000000003,-0.4,4.800000000000001,11.100000000000001,-9.600000000000001,8.3,-19.799999999999997,-28.1,78.5,16
109,2007.0,9.3,-5.7,4.7,22.400000000000002,-9.600000000000001,-1.0,49.0,-165.3,13.3,16
110,2020.0,14.3,-3.9000000000000004,-2.3000000000000003,19.200000000000003,-3.3000000000000003,-5.4,49.0,-165.3,13.3,16
111,2037.0,5.800000000000001,3.8000000000000003,-4.800000000000001,12.9,-6.0,0.30000000000000004,20.2,-48.0,-48.2,16
112,2054.0,3.2,-2.1,-0.6000000000000001,10.100000000000001,-6.4,0.2,16.900000000000002,29.600000000000005,-21.900000000000002,16
113,2072.0,1.8,-0.9,-1.3,9.1,-5.7,0.4,16.900000000000002,29.600000000000005,-21.900000000000002,16
114,2088.0,-1.8,0.5,-1.8,4.5,-3.6,-0.1,17.7,40.0,-49.199999999999996,16
115,2104.0,-6.1000000000000005,3.4000000000000004,-1.8,1.6,-2.1,1.6,-13.399999999999999,68.9,-19.300000000000004,16
116,2120.0,-6.7,3.2,-0.30000000000000004,3.6,-4.2,4.5,-13.399999999999999,68.9,-19.300000000000004,16
117,2137.0,-1.5,0.30000000000000004,3.8000000000000003,9.8,-3.7,5.6000000000000005,-13.3,75.00000000000001,11.4,16
118,2154.0,4.3,1.6,3.0,12.600000000000001,-3.6,5.1000000000000005,4.1,35.5,9.600000000000001,16
119,2181.0,7.300000000000001,0.6000000000000001,2.0,18.0,-4.0,3.2,24.7,-5.0,-35.1,16
120,2188.0,9.5,1.0,1.1,16.400000000000002,-2.0,-1.1,24.7,-5.0,-35.1,16
121,2204.0,9.5,1.0,1.1,16.400000000000002,-2.0,-1.1,24.7,-5.0,-35.1,16
122,2222.0,9.600000000000001,0.5,-0.4,13.0,-3.9000000000000004,0.4,-29.0,81.2,-98.9,16
123,2239.0,-2.6,1.6,-5.300000000000001,1.0,-1.8,-1.0,-40.0,100.0,-135.5,16
124,2254.0,-6.2,-0.6000000000000001,-2.5,2.5,-4.7,0.30000000000000004,-73.6,110.70000000000002,-67.10000000000001,16
125,2278.0,-8.5,-0.4,-1.1,-2.3000000000000003,-2.9000000000000004,0.6000000000000001,-73.6,110.70000000000002,-67.10000000000001,16
126,2287.0,-9.3,0.4,-2.3000000000000003,1.4000000000000001,-3.9000000000000004,0.6000000000000001,-61.7,35.4,-31.2,16
127,2304.0,-2.7,-1.2000000000000002,-2.1,5.1000000000000005,-5.7,0.30000000000000004,-67.00000000000001,4.300000000000001,26.000000000000004,16
128,2320.0,-3.3000000000000003,-1.4000000000000001,-2.3000000000000003,2.5,-6.4,-1.1,-67.00000000000001,4.300000000000001,26.000000000000004,16
129,2340.0,-7.300000000000001,-1.8,-4.3,1.1,-6.300000000000001,-1.0,-63.0,67.8,46.0,16
130,2354.0,-7.2,-1.2000000000000002,-4.0,0.7000000000000001,-6.1000000000000005,-1.0,-69.7,119.0,73.0,16
131,2370.0,-6.6000000000000005,-1.1,-4.2,3.8000000000000003,-7.2,-0.1,-87.80000000000001,133.10000000000002,92.10000000000001,16
132,2387.0,-3.3000000000000003,-0.8,-1.9000000000000001,2.0,-4.1000000000000005,2.2,-108.50000000000001,125.9,99.10000000000001,16
133,2404.0,-7.4,2.0,0.2,1.0,-4.800000000000001,4.0,-131.29999999999998,70.8,124.10000000000001,16
134,2420.0,-5.800000000000001,1.3,1.0,2.4000000000000004,-5.1000000000000005,4.5,-131.29999999999998,70.8,124.10000000000001,16
135,2437.0,-3.6,1.2000000000000002,1.8,3.8000000000000003,-5.9,5.2,-142.79999999999998,32.1,129.20000000000002,16
136,2454.0,-0.7000000000000001,-0.2,4.4,5.4,-7.2,6.7,-152.8,-24.3,129.20000000000002,16
137,2470.0,0.30000000000000004,-0.8,6.1000000000000005,7.1000000000000005,-7.6000000000000005,9.4,-152.8,-24.3,129.20000000000002,16
138,2487.0,2.2,1.0,7.6000000000000005,8.8,-5.800000000000001,8.200000000000001,-110.5,-14.600000000000001,121.4,16
139,2504.0,3.2,1.8,6.300000000000001,9.9,-5.9,6.5,-65.4,-36.6,122.50000000000001,16
140,2520.0,6.7,1.0,4.5,14.3,-8.200000000000001,6.4,-63.500000000000014,-87.3,121.4,16
141,2537.0,10.100000000000001,-1.5,4.7,16.3,-10.200000000000001,5.2,-73.10000000000001,-126.20000000000002,83.30000000000001,16
142,2553.0,10.8,-2.2,4.3,16.3,-10.3,4.3,-68.80000000000001,-154.7,15.2,16
143,2570.0,9.3,-2.0,1.6,13.4,-8.8,-1.6,-54.199999999999996,-144.20000000000002,-61.599999999999994,16
144,2587.0,5.5,-0.1,-3.8000000000000003,9.9,-7.6000000000000005,-4.2,-49.1,-90.1,-112.4,16
145,2604.0,3.5,-0.1,-4.3,9.4,-9.3,-8.8,-64.2,-32.9,-114.80000000000001,16
146,2623.0,4.7,-6.1000000000000005,-15.9,9.600000000000001,-12.600000000000001,-12.8,-106.0,28.400000000000002,-93.4,16
147,2637.0,-0.5,-2.2,-7.9,5.7,-6.1000000000000005,-4.9,-177.00000000000003,153.0,-119.8,16
148,2654.0,-0.6000000000000001,0.7000000000000001,-2.5,7.7,-8.200000000000001,-1.5,-111.30000000000001,66.5,-112.0,16
149,2675.0,1.2000000000000002,-1.4000000000000001,-1.1,9.5,-6.2,-2.5,-100.4,-8.5,-134.5,16
150,2687.0,1.7000000000000002,0.0,-1.6,10.100000000000001,-4.9,-3.3000000000000003,-100.4,-8.5,-134.5,16
151,2704.0,3.6,1.0,-2.4000000000000004,12.200000000000001,-3.9000000000000004,-5.4,-118.60000000000001,-98.0,-158.79999999999998,16
152,2720.0,3.9000000000000004,1.5,-3.8000000000000003,15.9,-3.5,-3.3000000000000003,-118.60000000000001,-98.0,-158.79999999999998,16
153,2737.0,7.800000000000001,-1.0,2.1,15.5,-9.3,1.8,-126.49999999999999,-100.0,-174.5,16
154,2754.0,6.7,-4.800000000000001,3.9000000000000004,11.600000000000001,-4.5,3.0,-33.800000000000004,-55.0,-217.10000000000002,16
155,2770.0,2.5,-0.8,5.300000000000001,3.9000000000000004,-4.2,1.7000000000000002,-33.800000000000004,-55.0,-217.10000000000002,16
156,2787.0,-8.3,-2.4000000000000004,1.3,3.0,-6.800000000000001,-0.6000000000000001,7.300000000000001,-104.50000000000001,-189.1,16
157,2804.0,-6.1000000000000005,-3.6,2.1,0.7000000000000001,-7.300000000000001,-1.9000000000000001,51.50000000000001,-92.39999999999999,-128.20000000000002,16
158,2820.0,-9.600000000000001,-4.0,-0.6000000000000001,-0.2,-5.2,-3.7,89.2,-62.900000000000006,-90.30000000000001,16
159,2839.0,-7.7,0.1,-1.6,4.7,-1.9000000000000001,-4.2,83.5,-60.900000000000006,-39.50000000000001,16
160,2853.0,-4.2,1.2000000000000002,-1.2000000000000002,6.4,-1.7000000000000002,-3.2,67.8,-61.0,-7.300000000000001,16
161,2870.0,-3.0,0.9,0.8,4.9,-2.7,-1.6,55.60000000000001,-42.2,8.899999999999999,16
162,2888.0,-3.8000000000000003,0.9,1.1,5.300000000000001,-2.2,-3.0,57.400000000000006,-7.400000000000001,46.800000000000004,16
163,2904.0,-3.4000000000000004,1.5,-0.2,6.300000000000001,-1.6,-4.6000000000000005,61.7,37.800000000000004,135.0,16
164,2920.0,-0.1,3.0,-3.5,9.200000000000001,-1.1,-7.2,61.7,37.800000000000004,135.0,16
165,2937.0,1.1,4.7,-5.1000000000000005,11.5,1.0,-6.800000000000001,27.3,55.7,147.4,16
166,2955.0,6.7,2.6,-1.7000000000000002,14.200000000000001,-3.8000000000000003,-2.2,-53.0,55.60000000000001,143.8,16
167,2970.0,6.1000000000000005,1.3,0.2,12.3,-3.8000000000000003,-3.2,-53.0,55.60000000000001,143.8,16
168,2989.0,1.7000000000000002,2.3000000000000003,-2.9000000000000004,6.7,-3.1,-6.4,-37.7,25.300000000000004,97.8,16
169,3007.0,-2.4000000000000004,0.4,-1.9000000000000001,6.800000000000001,-9.0,-2.7,-41.900000000000006,-29.0,120.2,16
170,3020.0,-0.7000000000000001,-3.2,0.0,9.200000000000001,-10.700000000000001,-1.9000000000000001,-41.900000000000006,-29.0,120.2,16
171,3037.0,4.2,-4.9,1.4000000000000001,13.0,-11.5,-2.3000000000000003,-12.299999999999999,-40.0,127.80000000000001,16
172,3054.0,5.7,-5.300000000000001,0.4,12.8,-11.5,-3.3000000000000003,39.699999999999996,8.100000000000001,56.400000000000006,16
173,3070.0,4.7,-6.0,-1.5,11.3,-12.9,-3.5,39.699999999999996,8.100000000000001,56.400000000000006,16
174,3087.0,4.1000000000000005,-6.2,0.2,10.700000000000001,-12.4,-3.3000000000000003,31.6,58.60000000000001,35.599999999999994,16
175,3103.0,3.4000000000000004,-5.800000000000001,-1.1,9.8,-11.3,-5.5,26.700000000000003,81.60000000000001,7.6,16
176,3120.0,0.9,-3.8000000000000003,-3.7,7.9,-9.9,-4.6000000000000005,7.300000000000001,125.00000000000001,-14.700000000000001,16
177,3137.0,-0.9,-2.7,-2.2,4.4,-8.4,-3.6,-16.6,142.0,-28.3,16
178,3154.0,-1.3,-0.5,-3.3000000000000003,10.700000000000001,-5.7,-3.3000000000000003,-49.6,88.60000000000001,-27.2,16
179,3170.0,2.9000000000000004,0.6000000000000001,-1.8,10.100000000000001,-6.300000000000001,-0.5,-49.6,88.60000000000001,-27.2,16
180,3187.0,-0.8,1.8,1.3,5.7,-4.6000000000000005,1.6,-58.1,121.30000000000001,-69.10000000000001,16
181,3204.0,-2.6,1.3,2.6,2.9000000000000004,-4.0,3.2,-34.900000000000006,135.0,-107.8,16
182,3220.0,-2.0,3.8000000000000003,5.1000000000000005,12.8,0.7000000000000001,3.4000000000000004,-15.100000000000001,89.0,-136.7,16
183,3237.0,0.0,1.6,4.1000000000000005,7.1000000000000005,-2.0,6.7,3.7000000000000006,89.0,-206.70000000000005,16
184,3254.0,-2.1,2.0,6.9,4.6000000000000005,-0.30000000000000004,5.800000000000001,27.800000000000004,125.60000000000001,-281.2,16
185,3270.0,-7.5,4.5,2.7,-1.1,-0.6000000000000001,3.4000000000000004,95.80000000000001,103.00000000000001,-295.0,16
186,3287.0,-10.700000000000001,-9.0,8.5,-1.3,-15.8,11.8,85.1,281.2,-226.3,16
187,3304.0,-10.700000000000001,-13.100000000000001,10.0,-4.5,-12.4,13.200000000000001,-88.00000000000001,232.60000000000002,-85.1,16
188,3320.0,-6.0,-2.3000000000000003,5.800000000000001,4.7,1.5,1.6,62.7,-51.2,67.60000000000001,16
189,3337.0,-7.4,-0.1,-9.5,2.7,-4.1000000000000005,-17.900000000000002,152.4,-233.2,83.4,16
190,3354.0,-6.5,-0.8,-18.7,3.8000000000000003,-2.6,-17.900000000000002,149.70000000000002,-150.5,89.4,16
191,3371.0,-5.2,1.3,-12.5,0.9,-3.1,-4.1000000000000005,52.2,-58.60000000000001,130.5,16
192,3387.0,-9.8,-0.7000000000000001,-1.0,-0.4,-7.5,1.7000000000000002,-13.200000000000003,-51.1,172.6,16
193,3404.0,-8.8,-2.7,1.6,0.7000000000000001,-10.100000000000001,3.7,-19.400000000000002,-98.2,223.00000000000003,16
194,3420.0,-5.5,-5.1000000000000005,4.2,6.300000000000001,-10.5,3.1,5.2,-160.9,271.6,16
195,3437.0,4.5,-5.300000000000001,2.7,14.200000000000001,-12.0,1.0,33.1,-211.8,292.8,16
196,3454.0,7.4,-5.2,2.1,13.8,-9.0,-0.8,56.400000000000006,-242.1,262.59999999999997,16
197,3474.0,7.1000000000000005,-2.2,-3.0,4.800000000000001,-4.7,-2.7,79.39999999999999,-164.6,227.90000000000003,16
198,3487.0,-18.5,10.200000000000001,3.2,7.0,-14.9,-2.1,65.89999999999999,-67.60000000000001,249.80000000000004,16
199,3504.0,2.2,-6.6000000000000005,-1.1,18.900000000000002,-14.8,-5.7,107.5,-65.10000000000001,382.7,16
200,3520.0,16.8,-8.9,-11.100000000000001,16.1,-14.5,-14.3,112.9,-147.29999999999998,278.0,16
201,3537.0,5.0,1.7000000000000002,-8.0,0.0,-3.2,-1.1,54.0,-268.3,172.70000000000002,16
202,3553.0,-3.4000000000000004,5.9,0.6000000000000001,-3.7,-4.6000000000000005,7.5,-36.0,-213.60000000000002,133.0,16
203,3571.0,4.5,-2.2,4.3,12.100000000000001,-14.8,2.4000000000000004,22.2,-221.40000000000003,183.4,16
204,3587.0,9.9,-6.1000000000000005,3.8000000000000003,11.700000000000001,-14.600000000000001,1.4000000000000001,78.0,-138.10000000000002,148.8,16
205,3604.0,9.4,-5.0,2.5,11.9,-13.8,1.4000000000000001,135.4,-61.8,87.3,16
206,3620.0,9.4,-4.1000000000000005,-0.4,10.700000000000001,-13.9,-6.5,179.2,-3.3000000000000007,43.4,16
207,3637.0,7.6000000000000005,-2.9000000000000004,-9.0,11.0,-11.0,-9.9,155.70000000000002,-63.599999999999994,-4.9,16
208,3653.0,8.3,-1.3,-9.8,11.700000000000001,-11.200000000000001,-9.9,91.30000000000001,-49.800000000000004,-54.199999999999996,16
209,3672.0,8.4,-3.2,-8.4,11.3,-14.3,-5.7,31.2,9.0,-107.6,16
210,3687.0,7.800000000000001,-4.800000000000001,-5.5,11.4,-15.5,-2.8000000000000003,-11.5,81.90000000000002,-144.3,16
211,3704.0,7.300000000000001,-6.800000000000001,-0.8,8.3,-14.8,-1.4000000000000001,-14.700000000000001,140.8,-174.7,16
212,3720.0,-1.9000000000000001,-3.4000000000000004,-2.6,-1.3,-9.200000000000001,-2.3000000000000003,-12.299999999999999,121.2,-186.8,16
213,3737.0,-7.800000000000001,2.7,-3.0,-4.5,-6.2,-6.2,-39.699999999999996,53.599999999999994,-119.20000000000002,16
214,3754.0,-9.3,2.7,-5.800000000000001,-5.300000000000001,-9.200000000000001,-8.5,-75.4,-10.200000000000001,-41.7,16
215,3771.0,-8.9,-2.6,-6.2,-1.7000000000000002,-12.9,-3.9000000000000004,-137.0,-78.2,8.3,16
216,3787.0,-3.8000000000000003,-5.800000000000001,0.9,1.0,-14.600000000000001,0.7000000000000001,-136.6,-46.300000000000004,18.5,16
217,3804.0,-3.5,-5.6000000000000005,2.3000000000000003,2.6,-13.9,1.4000000000000001,-100.5,-9.5,19.700000000000003,16
218,3820.0,0.1,-4.4,3.6,5.2,-12.8,0.5,-86.5,-4.4,53.2,16
219,3837.0,0.7000000000000001,-1.5,1.0,3.7,-8.1,-1.5,-108.50000000000001,-28.400000000000002,44.00000000000001,16
220,3854.0,-0.5,0.8,1.0,3.0,-7.1000000000000005,-1.1,-143.9,-31.9,10.0,16
221,3870.0,-1.2000000000000002,1.7000000000000002,2.2,3.3000000000000003,-7.2,-0.5,-147.7,-6.2,10.600000000000001,16
222,3887.0,-0.4,1.0,3.0,3.7,-8.5,0.6000000000000001,-133.0,20.0,5.9,16
223,3904.0,-0.6000000000000001,0.1,4.0,3.6,-9.4,2.6,-102.60000000000001,47.900000000000006,-15.899999999999999,16
224,3920.0,-1.1,-0.9,7.2,2.7,-9.3,4.0,-56.50000000000001,49.4,-51.0,16
225,3937.0,-2.5,-0.9,6.4,2.2,-8.8,1.4000000000000001,-6.600000000000001,11.900000000000002,-75.8,16
226,3954.0,-2.6,-0.5,4.5,2.5,-8.0,-0.5,30.000000000000004,-22.3,-79.39999999999999,16
227,3972.0,-2.3000000000000003,1.1,1.2000000000000002,2.8000000000000003,-6.4,-1.8,46.6,-4.7,-71.39999999999999,16
228,3992.0,-2.3000000000000003,2.2,1.3,3.0,-5.4,-2.1,50.900000000000006,33.9,-62.7,16
229,4004.0,-2.3000000000000003,2.7,0.5,3.2,-4.7,-2.4000000000000004,58.1,68.60000000000001,-55.8,16
230,4021.0,-1.8,3.7,-0.1,4.1000000000000005,-3.9000000000000004,-0.8,42.800000000000004,123.00000000000001,-56.400000000000006,16
231,4039.0,-1.4000000000000001,4.7,2.2,4.7,-2.7,0.0,-1.3,171.10000000000002,-72.60000000000001,16
232,4054.0,-1.4000000000000001,4.9,1.8,4.3,-3.0,0.2,-31.2,145.3,-83.89999999999999,16
233,4071.0,-2.3000000000000003,4.3,2.5,3.3000000000000003,-2.7,1.4000000000000001,-29.400000000000002,119.8,-64.4,16
234,4088.0,-4.2,6.6000000000000005,2.6,0.9,0.8,-0.2,-3.9,87.00000000000001,-21.6,16
235,4104.0,-5.300000000000001,8.3,1.2000000000000002,0.5,1.2000000000000002,-1.2000000000000002,19.1,26.5,26.1,16
236,4120.0,-4.800000000000001,8.9,-0.4,2.7,0.6000000000000001,-2.2,32.2,-11.5,72.2,16
237,4137.0,-0.5,5.1000000000000005,-0.6000000000000001,6.0,-7.2,-1.2000000000000002,32.2,2.2,113.3,16
238,4154.0,0.7000000000000001,0.8,0.0,5.7,-9.5,-0.9,22.3,32.5,136.8,16
239,4170.0,0.1,-0.9,0.0,4.0,-8.3,-1.8,28.700000000000003,22.3,142.79999999999998,16
240,4187.0,-0.2,-1.1,-2.3000000000000003,6.5,-12.0,-5.7,37.7,-7.699999999999999,133.70000000000002,16
241,4204.0,2.2,-3.4000000000000004,-4.6000000000000005,9.200000000000001,-12.5,-6.7,37.300000000000004,-60.7,122.39999999999999,16
242,4220.0,7.800000000000001,-4.1000000000000005,-3.9000000000000004,14.5,-14.8,-2.8000000000000003,31.6,-51.50000000000001,102.2,16
243,4237.0,11.8,-7.9,-1.5,13.9,-16.6,-3.7,30.699999999999996,0.2,56.800000000000004,16
244,4254.0,9.600000000000001,-7.7,-2.8000000000000003,9.600000000000001,-16.2,-5.800000000000001,31.799999999999997,22.2,-3.5,16
245,4271.0,2.1,-7.2,-4.800000000000001,4.9,-17.0,-5.1000000000000005,1.6,2.0,-38.2,16
246,4288.0,-0.30000000000000004,-8.9,-2.8000000000000003,4.0,-18.8,-1.6,-28.700000000000003,-6.2,-42.900000000000006,16
247,4304.0,-0.6000000000000001,-9.9,-0.4,2.9000000000000004,-19.5,1.8,-44.5,8.3,-43.300000000000004,16
248,4320.0,-3.4000000000000004,-9.700000000000001,3.8000000000000003,1.5,-16.400000000000002,1.3,-38.300000000000004,18.6,-49.699999999999996,16
249,4337.0,-3.6,-5.6000000000000005,1.2000000000000002,-0.2,-13.3,-0.8,-27.0,47.0,-53.0,16
250,4354.0,-5.300000000000001,-4.5,0.30000000000000004,-1.3,-11.9,-1.7000000000000002,-26.000000000000004,66.5,-65.10000000000001,16
251,4370.0,-6.9,-2.2,-1.1,-1.7000000000000002,-10.5,-3.1,-24.599999999999998,29.300000000000004,-60.6,16
252,4387.0,-6.2,-1.5,-2.2,-0.30000000000000004,-9.700000000000001,-3.5,-24.7,-16.200000000000003,-44.8,16
253,4404.0,-5.5,-1.1,-2.0,-0.8,-8.9,-2.2,-29.500000000000004,-27.5,-21.7,16
254,4420.0,-7.1000000000000005,2.2,1.9000000000000001,-3.1,-3.0,1.7000000000000002,-53.0,-68.60000000000001,13.6,16
255,4437.0,-7.2,7.0,3.7,-1.6,-2.0,0.6000000000000001,-67.9,-162.3,75.1,16
256,4454.0,-5.6000000000000005,6.800000000000001,3.1,-0.5,-2.3000000000000003,2.0,-48.0,-204.6,131.6,16
257,4470.0,-3.1,6.300000000000001,7.2,1.4000000000000001,-3.1,7.300000000000001,-8.600000000000001,-134.10000000000002,161.4,16
258,4487.0,1.1,4.3,10.100000000000001,6.9,-8.0,8.200000000000001,70.9,-38.1,172.4,16
259,4503.0,4.2,1.4000000000000001,9.8,9.700000000000001,-13.200000000000001,8.3,165.3,29.700000000000006,145.9,16
260,4520.0,7.4,-7.2,8.4,7.300000000000001,-13.200000000000001,4.6000000000000005,215.9,16.700000000000003,44.8,16
261,4537.0,2.2,-0.5,2.7,5.0,-8.0,0.8,195.00000000000003,-76.2,-82.50000000000001,16
262,4554.0,1.5,1.2000000000000002,1.0,5.300000000000001,-7.5,-0.6000000000000001,165.7,-121.6,-133.20000000000002,16
263,4570.0,1.0,1.9000000000000001,-2.1,4.0,-6.800000000000001,-7.300000000000001,144.10000000000002,-124.8,-161.00000000000003,16
264,4587.0,-1.6,3.1,-18.3,2.9000000000000004,-6.6000000000000005,-13.8,125.4,-73.5,-158.6,16
265,4603.0,-1.5,2.2,-14.4,4.2,-8.0,-6.2,62.6,170.50000000000003,-86.00000000000001,16
266,4620.0,1.0,0.2,-2.8000000000000003,5.7,-8.5,-0.4,10.9,230.79999999999998,-6.2,16
267,4637.0,1.3,1.0,-1.1,5.300000000000001,-7.1000000000000005,-1.1,-10.200000000000001,75.2,44.2,16
268,4653.0,1.3,1.8,-1.6,5.300000000000001,-6.4,-1.7000000000000002,-27.0,-75.3,77.20000000000002,16
269,4670.0,1.8,3.1,-2.0,5.800000000000001,-5.9,-0.9,-48.50000000000001,-74.2,89.30000000000001,16
270,4687.0,2.5,2.8000000000000003,0.0,6.4,-7.1000000000000005,1.3,-66.4,30.5,78.80000000000001,16
271,4704.0,2.8000000000000003,2.1,1.1,6.7,-6.6000000000000005,1.3,-65.4,122.39999999999999,46.800000000000004,16
272,4720.0,3.8000000000000003,2.9000000000000004,0.2,8.0,-8.700000000000001,-1.4000000000000001,-59.9,127.69999999999999,18.5,16
273,4737.0,4.9,-2.1,-2.8000000000000003,7.800000000000001,-11.3,-1.7000000000000002,-78.7,131.29999999999998,11.000000000000002,16
274,4753.0,4.2,-2.2,-1.9000000000000001,7.1000000000000005,-10.8,-0.1,-53.8,212.60000000000002,-23.400000000000002,16
275,4770.0,3.7,-2.9000000000000004,-0.6000000000000001,7.9,-13.8,-2.2,-1.2000000000000002,208.10000000000002,-42.900000000000006,16
276,4787.0,3.6,-5.0,-4.5,7.800000000000001,-14.100000000000001,-4.9,32.300000000000004,108.50000000000001,-61.50000000000001,16
277,4804.0,3.6,-5.1000000000000005,-5.5,8.1,-14.700000000000001,-4.800000000000001,32.400000000000006,7.200000000000001,-75.2,16
278,4820.0,3.0,-5.300000000000001,-3.2,6.2,-13.200000000000001,-0.8,-11.8,-100.9,-72.50000000000001,16
279,4837.0,0.0,-3.5,0.6000000000000001,3.5,-11.4,1.6,-51.1,-148.60000000000002,-77.9,16
280,4854.0,-1.3,-2.6,1.9000000000000001,2.9000000000000004,-11.200000000000001,2.3000000000000003,-59.5,-118.3,-73.30000000000001,16
281,4870.0,-2.8000000000000003,-2.8000000000000003,3.0,2.1,-11.8,3.5,-43.4,-47.0,-56.6,16
282,4887.0,-3.0,-3.6,4.800000000000001,1.2000000000000002,-12.8,4.1000000000000005,-21.400000000000002,21.500000000000004,-34.2,16
283,4904.0,-3.8000000000000003,-4.1000000000000005,4.4,1.0,-13.3,3.3000000000000003,-8.5,7.0,-28.0,16
284,4920.0,-3.8000000000000003,-5.300000000000001,4.0,1.5,-14.200000000000001,2.5,-2.3,-5.4,-29.500000000000004,16
285,4937.0,-3.4000000000000004,-4.800000000000001,1.2000000000000002,1.8,-12.3,0.1,-5.2,25.200000000000003,-42.400000000000006,16
286,4953.0,-3.5,-3.8000000000000003,0.4,1.7000000000000002,-11.4,0.30000000000000004,-36.8,58.3,-66.4,16
287,4970.0,-4.4,-2.0,1.5,0.5,-9.4,2.2,-76.3,107.6,-86.5,16
288,4987.0,-5.5,-0.30000000000000004,3.9000000000000004,0.30000000000000004,-8.5,3.7,-85.9,153.3,-86.89999999999999,16
289,5004.0,-5.1000000000000005,0.4,5.300000000000001,1.1,-6.7,6.300000000000001,-65.8,153.89999999999998,-67.9,16
290,5020.0,-4.1000000000000005,2.3000000000000003,5.800000000000001,3.3000000000000003,-5.5,3.3000000000000003,-20.8,83.00000000000001,-49.6,16
291,5037.0,-1.7000000000000002,2.3000000000000003,0.30000000000000004,4.800000000000001,-5.7,-1.7000000000000002,15.299999999999999,-20.5,-41.6,16
292,5054.0,-1.4000000000000001,2.2,-1.7000000000000002,4.5,-5.300000000000001,-2.5,20.8,-76.3,-51.50000000000001,16
293,5072.0,-2.7,3.3000000000000003,-2.0,2.6,-3.6,-1.0,14.700000000000001,-44.00000000000001,-61.10000000000001,16
294,5087.0,-4.5,4.6000000000000005,-0.2,1.3,-2.8000000000000003,0.4,21.300000000000004,9.3,-52.1,16
295,5103.0,-5.1000000000000005,4.800000000000001,0.2,1.1,-3.1,0.5,40.7,38.800000000000004,-25.6,16
296,5120.0,-5.1000000000000005,3.8000000000000003,0.1,1.2000000000000002,-4.4,0.5,54.1,35.3,8.5,16
297,5137.0,-5.1000000000000005,3.0,-0.2,0.4,-4.7,0.1,55.400000000000006,14.0,33.9,16
298,5153.0,-5.5,3.0,-0.4,0.4,-5.0,-0.1,49.4,-13.5,51.300000000000004,16
299,5171.0,-4.7,2.1,-0.7000000000000001,2.3000000000000003,-6.4,-0.2,44.5,-30.799999999999997,67.3,16
300,5187.0,-1.3,0.5,-1.6,7.0,-8.700000000000001,-2.4000000000000004,43.800000000000004,-38.0,71.9,16
301,5204.0,1.5,-0.7000000000000001,-3.0,10.9,-10.100000000000001,-4.4,35.3,-36.0,52.1,16
302,5220.0,9.1,-3.2,-6.9,16.8,-11.200000000000001,-6.2,-1.4,9.899999999999999,-12.8,16
303,5237.0,9.8,-2.9000000000000004,-5.1000000000000005,14.5,-9.600000000000001,-2.8000000000000003,-54.699999999999996,104.50000000000001,-116.2,16
304,5254.0,7.9,-2.3000000000000003,-3.6,13.5,-8.9,-1.3,-90.0,188.4,-203.8,16
305,5273.0,4.800000000000001,-1.0,0.9,9.700000000000001,-6.2,5.2,-101.50000000000001,177.10000000000002,-231.7,16
306,5287.0,1.0,1.0,6.5,8.4,-5.5,7.300000000000001,-33.0,-49.0,-70.6,16
307,5307.0,0.0,0.2,5.4,6.6000000000000005,-8.200000000000001,3.8000000000000003,-33.0,-49.0,-70.6,16
308,5322.0,-1.4000000000000001,-3.5,1.0,3.3000000000000003,-11.600000000000001,-3.1,31.0,-62.50000000000001,14.300000000000002,16
309,5337.0,-4.0,-4.9,-3.7,0.2,-12.100000000000001,-4.5,69.3,-34.50000000000001,54.199999999999996,16
310,5354.0,-6.5,-4.3,-1.1,0.9,-10.4,1.8,39.2,-92.0,107.7,16
311,5372.0,-5.5,-2.1,1.9000000000000001,1.3,-9.3,2.6,59.1,-122.79999999999998,137.1,16
312,5387.0,-4.2,-2.3000000000000003,2.2,2.0,-10.0,2.8000000000000003,103.8,-100.1,138.20000000000002,16
313,5403.0,-3.1,-3.4000000000000004,2.1,3.6,-12.5,3.3000000000000003,139.4,-59.699999999999996,115.8,16
314,5420.0,-2.3000000000000003,-5.300000000000001,2.7,3.3000000000000003,-13.4,3.7,134.6,-46.300000000000004,72.9,16
315,5437.0,-3.4000000000000004,-5.1000000000000005,2.0,1.9000000000000001,-12.100000000000001,2.4000000000000004,2.7,-62.50000000000001,8.3,16
316,5454.0,-3.9000000000000004,-4.1000000000000005,1.5,2.1,-11.0,2.7,2.7,-62.50000000000001,8.3,16
317,5471.0,-3.3000000000000003,-1.8,2.7,3.0,-8.9,4.6000000000000005,-46.0,34.300000000000004,12.9,16
318,5488.0,-1.9000000000000001,-0.2,4.1000000000000005,4.5,-7.800000000000001,5.2,-50.3,96.1,13.399999999999999,16
319,5503.0,-1.1,0.30000000000000004,4.2,5.1000000000000005,-7.6000000000000005,5.0,-50.3,96.1,13.399999999999999,16
320,5520.0,0.1,0.6000000000000001,3.6,6.300000000000001,-7.5,3.9000000000000004,-35.599999999999994,52.60000000000001,5.9,16
321,5537.0,0.7000000000000001,0.6000000000000001,2.8000000000000003,6.800000000000001,-7.4,2.8000000000000003,-19.200000000000003,11.8,-1.3,16
322,5554.0,1.5,0.8,0.4,7.4,-6.6000000000000005,-2.5,-6.8,-3.9,-9.3,16
323,5571.0,1.0,2.3000000000000003,-5.0,5.6000000000000005,-5.300000000000001,-2.1,-15.700000000000001,37.400000000000006,-18.900000000000002,16
324,5587.0,-0.5,2.7,-1.4000000000000001,5.2,-5.7,1.3,-57.3,123.8,-4.2,16
325,5604.0,-0.5,2.4000000000000004,0.1,5.4,-6.4,1.9000000000000001,-57.3,123.8,-4.2,16
326,5620.0,0.2,0.9,0.6000000000000001,5.9,-7.9,1.6,-46.800000000000004,99.30000000000001,9.8,16
327,5637.0,0.5,-0.30000000000000004,0.1,6.0,-8.4,1.5,-17.7,91.90000000000002,12.100000000000001,16
328,5654.0,0.4,-0.7000000000000001,0.30000000000000004,5.7,-9.0,2.2,-17.7,91.90000000000002,12.100000000000001,16
329,5671.0,0.1,-1.0,0.7000000000000001,5.4,-9.200000000000001,2.5,-12.8,91.90000000000002,9.899999999999999,16
330,5687.0,0.1,-1.2000000000000002,1.0,5.5,-9.8,3.0,-27.0,85.80000000000001,9.4,16
331,5703.0,0.2,-1.5,1.3,5.7,-10.200000000000001,3.3000000000000003,-27.0,85.80000000000001,9.4,16
332,5720.0,0.6000000000000001,-2.3000000000000003,2.0,5.9,-10.600000000000001,4.1000000000000005,-40.7,91.30000000000001,5.7,16
333,5737.0,0.7000000000000001,-2.3000000000000003,2.3000000000000003,5.7,-10.100000000000001,4.1000000000000005,-52.2,92.90000000000002,-0.4,16
334,5754.0,0.2,-1.0,2.2,5.2,-8.5,3.4000000000000004,-59.60000000000001,84.80000000000001,-6.0,16
335,5771.0,0.30000000000000004,0.4,1.1,5.800000000000001,-7.4,2.3000000000000003,-63.8,70.2,-7.8,16
336,5787.0,1.0,1.4000000000000001,0.4,6.4,-6.6000000000000005,2.0,-75.00000000000001,41.900000000000006,-9.3,16
337,5804.0,1.0,1.4000000000000001,0.4,6.4,-6.6000000000000005,2.0,-75.00000000000001,41.900000000000006,-9.3,16
338,5820.0,1.6,2.1,0.8,6.800000000000001,-6.300000000000001,1.8,-72.4,29.1,-7.0,16
339,5837.0,1.7000000000000002,2.1,0.5,6.800000000000001,-6.300000000000001,1.2000000000000002,-61.50000000000001,24.900000000000002,-1.8000000000000003,16
340,5853.0,1.4000000000000001,2.2,-0.5,6.300000000000001,-6.1000000000000005,0.6000000000000001,-48.6,36.1,3.5,16
341,5870.0,1.1,2.1,-0.6000000000000001,6.1000000000000005,-6.6000000000000005,0.6000000000000001,-38.800000000000004,49.699999999999996,6.0,16
342,5887.0,1.0,1.8,-0.6000000000000001,6.0,-7.0,0.5,-31.2,47.5,3.6000000000000005,16
343,5903.0,0.8,0.9,-0.7000000000000001,5.800000000000001,-8.0,0.4,-26.700000000000003,32.6,-1.0,16
344,5920.0,0.5,0.0,-0.8,5.5,-8.6,0.30000000000000004,-24.400000000000002,22.2,-3.0,16
345,5937.0,0.30000000000000004,-0.2,-0.8,5.2,-8.700000000000001,0.2,-22.8,21.900000000000002,-2.3,16
346,5953.0,-0.2,-0.30000000000000004,-0.9,4.7,-8.6,0.4,-23.5,27.400000000000002,0.7,16
347,5971.0,-0.5,0.0,-0.4,4.6000000000000005,-8.3,1.0,-26.1,26.9,5.300000000000001,16
348,5989.0,-0.30000000000000004,0.4,0.2,5.1000000000000005,-7.9,1.1,-22.700000000000003,3.9,11.3,16
349,6004.0,0.1,0.6000000000000001,0.2,5.4,-7.7,0.9,-22.700000000000003,3.9,11.3,16
350,6020.0,0.7000000000000001,0.9,-0.30000000000000004,5.9,-7.4,0.30000000000000004,-19.1,-2.8,9.899999999999999,16
351,6037.0,0.9,1.1,-0.6000000000000001,6.1000000000000005,-7.2,0.1,-22.4,-1.7,0.6000000000000001,16
352,6053.0,1.1,1.4000000000000001,-0.8,6.2,-6.9,0.1,-22.4,-1.7,0.6000000000000001,16
353,6070.0,1.0,1.5,-0.5,5.9,-7.1000000000000005,0.30000000000000004,-23.0,0.4,-3.7000000000000006,16
354,6087.0,0.9,1.3,-0.4,5.800000000000001,-7.5,0.30000000000000004,-18.1,1.2000000000000002,-5.8,16
355,6103.0,0.6000000000000001,0.6000000000000001,-0.4,5.5,-8.200000000000001,0.1,-10.200000000000001,-0.1,-6.0,16
356,6120.0,0.30000000000000004,-0.1,-0.6000000000000001,5.300000000000001,-8.8,0.0,-4.9,-2.3,-5.8,16
357,6137.0,0.2,-0.4,-0.6000000000000001,5.1000000000000005,-9.0,0.1,-3.0,-4.0,-5.0,16
358,6154.0,-0.1,-0.6000000000000001,-0.6000000000000001,4.800000000000001,-9.1,0.0,-2.3,-4.4,-4.0,16
359,6170.0,-0.5,-0.7000000000000001,-0.8,4.5,-9.200000000000001,-0.30000000000000004,-2.5,-2.6,-3.0,16
360,6187.0,-0.7000000000000001,-0.8,-0.9,4.3,-9.200000000000001,-0.30000000000000004,-4.9,-2.1,-2.1,16
361,6204.0,-0.9,-0.7000000000000001,-0.9,4.1000000000000005,-9.1,-0.4,-9.3,-3.5,-0.9000000000000001,16
362,6220.0,-0.9,-0.5,-0.9,4.4,-8.9,-0.4,-12.600000000000001,-2.7,-0.30000000000000004,16
363,6237.0,-0.8,-0.4,-0.9,4.5,-8.8,-0.4,-14.800000000000002,1.1,-1.9,16
364,6254.0,-0.4,-0.30000000000000004,-0.7000000000000001,4.9,-8.700000000000001,-0.1,-15.8,6.1000000000000005,-4.9,16
365,6270.0,-0.1,-0.2,-0.4,5.2,-8.6,0.0,-15.700000000000001,10.5,-5.9,16
366,6289.0,0.1,0.0,-0.30000000000000004,5.2,-8.3,0.1,-16.8,12.4,-3.1,16
367,6303.0,0.1,0.1,-0.30000000000000004,5.2,-8.200000000000001,0.1,-16.8,12.4,-3.1,16
368,6320.0,-0.1,0.30000000000000004,-0.2,5.0,-8.0,0.1,-17.6,9.3,-0.8,16
369,6337.0,-0.1,0.4,-0.2,5.0,-7.9,0.2,-16.1,7.9,0.4,16
370,6354.0,-0.1,0.6000000000000001,-0.1,5.1000000000000005,-7.800000000000001,0.30000000000000004,-12.200000000000001,7.699999999999999,0.9000000000000001,16
371,6370.0,0.1,0.6000000000000001,0.0,5.4,-7.800000000000001,0.30000000000000004,-7.699999999999999,5.500000000000001,1.4,16
372,6387.0,0.4,0.5,0.0,5.6000000000000005,-8.1,0.1,-2.5,2.3,0.6000000000000001,16
373,6404.0,0.4,0.4,-0.1,5.5,-8.1,0.1,-2.5,2.3,0.6000000000000001,16
374,6420.0,0.30000000000000004,0.2,-0.2,5.2,-8.3,0.0,-3.7000000000000006,5.4,0.8,16
375,6437.0,0.1,0.2,-0.2,5.1000000000000005,-8.4,0.1,-6.699999999999999,7.9,2.0,16
376,6454.0,-0.2,0.0,-0.1,4.800000000000001,-8.5,0.2,-9.2,8.4,2.9,16
377,6471.0,-0.30000000000000004,0.0,-0.1,4.9,-8.3,0.2,-9.2,8.600000000000001,3.5,16
378,6487.0,-0.2,0.1,0.0,4.9,-8.3,0.30000000000000004,-8.5,7.500000000000001,4.6,16
379,6503.0,0.0,0.2,0.1,5.1000000000000005,-8.200000000000001,0.30000000000000004,-7.400000000000001,6.1000000000000005,5.2,16
380,6520.0,0.1,0.30000000000000004,0.0,5.300000000000001,-8.0,0.1,-6.300000000000001,6.699999999999999,4.6,16
381,6537.0,0.2,0.4,-0.1,5.300000000000001,-7.9,0.1,-7.300000000000001,7.400000000000001,3.4,16
382,6554.0,0.2,0.6000000000000001,0.0,5.4,-7.7,0.30000000000000004,-10.5,7.1000000000000005,3.1,16
383,6570.0,0.4,0.7000000000000001,0.2,5.6000000000000005,-7.6000000000000005,0.4,-12.4,5.9,3.4,16
384,6587.0,0.5,0.7000000000000001,0.30000000000000004,5.7,-7.6000000000000005,0.5,-11.8,5.300000000000001,3.1,16
385,6604.0,0.6000000000000001,0.6000000000000001,0.30000000000000004,5.800000000000001,-7.7,0.5,-9.700000000000001,4.9,2.2,16
386,6620.0,0.6000000000000001,0.6000000000000001,0.30000000000000004,5.800000000000001,-7.7,0.5,-7.699999999999999,3.3000000000000007,1.3,16
387,6637.0,0.6000000000000001,0.6000000000000001,0.30000000000000004,5.800000000000001,-7.7,0.5,-5.500000000000001,1.2000000000000002,0.9000000000000001,16
388,6653.0,0.6000000000000001,0.5,0.2,5.800000000000001,-7.7,0.4,-2.8,-0.5,0.7,16
389,6670.0,0.5,0.5,0.2,5.7,-7.800000000000001,0.30000000000000004,-0.2,-0.30000000000000004,0.30000000000000004,16
390,6687.0,0.5,0.4,0.1,5.7,-7.9,0.2,1.6,0.30000000000000004,-0.30000000000000004,16
391,6703.0,0.4,0.1,-0.1,5.6000000000000005,-8.4,-0.1,1.6,0.5,-1.3,16
392,6720.0,0.30000000000000004,-0.4,-0.30000000000000004,5.5,-8.700000000000001,-0.2,-1.1,0.2,-2.3,16
393,6737.0,0.2,-0.5,-0.30000000000000004,5.4,-8.8,-0.2,-5.500000000000001,-0.9000000000000001,-2.2,16
394,6753.0,0.0,-0.6000000000000001,-0.2,5.300000000000001,-8.8,-0.1,-9.2,-3.0,-1.4,16
395,6772.0,-0.1,-0.4,-0.1,5.2,-8.6,-0.1,-10.1,-4.9,-0.1,16
396,6787.0,-0.1,-0.30000000000000004,-0.1,5.2,-8.4,0.0,-8.2,-4.7,1.3,16
397,6804.0,-0.1,0.0,0.0,5.2,-8.3,0.0,-5.300000000000001,-3.0,2.3,16
398,6820.0,0.0,0.0,0.0,5.300000000000001,-8.3,0.1,-3.4,-2.2,3.1,16
399,6837.0,0.0,0.0,0.1,5.300000000000001,-8.3,0.1,-3.2,-2.9,3.5,16
400,6853.0,0.1,-0.1,0.1,5.5,-8.4,0.1,-3.7000000000000006,-3.4,3.5,16
401,6872.0,0.30000000000000004,-0.1,0.1,5.6000000000000005,-8.3,0.0,-4.1,-2.4000000000000004,3.2,16
402,6887.0,0.30000000000000004,0.0,0.1,5.5,-8.200000000000001,0.0,-4.5,-1.9,2.4000000000000004,16
403,6903.0,0.2,0.30000000000000004,0.0,5.5,-8.0,-0.1,-4.2,-1.7,1.6,16
404,6920.0,0.1,0.30000000000000004,-0.1,5.5,-8.1,-0.2,-3.2,-1.0,0.7,16
405,6937.0,0.2,0.2,-0.2,5.5,-8.3,-0.30000000000000004,-2.4000000000000004,-0.1,0.1,16
406,6953.0,0.2,-0.1,-0.30000000000000004,5.5,-8.5,-0.5,-2.9,0.0,-0.30000000000000004,16
407,6971.0,0.2,-0.2,-0.30000000000000004,5.5,-8.5,-0.5,-4.4,-1.1,-0.5,16
408,6989.0,0.1,0.0,-0.30000000000000004,5.300000000000001,-8.200000000000001,-0.5,-5.2,-3.7000000000000006,0.5,16
409,7004.0,0.0,0.1,-0.30000000000000004,5.300000000000001,-8.1,-0.5,-5.2,-3.7000000000000006,0.5,16
410,7020.0,-0.1,0.2,-0.30000000000000004,5.2,-8.200000000000001,-0.5,-3.5,-4.2,1.4,16
411,7037.0,-0.1,0.1,-0.30000000000000004,5.2,-8.200000000000001,-0.5,-1.5,-3.6000000000000005,1.8000000000000003,16
412,7054.0,-0.2,0.1,-0.30000000000000004,5.0,-8.200000000000001,-0.5,-0.4,-2.9,1.8000000000000003,16
413,7072.0,-0.30000000000000004,0.1,-0.2,4.9,-8.200000000000001,-0.4,-0.6000000000000001,-2.0,2.2,16
414,7087.0,-0.4,0.1,-0.1,4.800000000000001,-8.200000000000001,-0.4,-1.6,-0.7,2.5,16
415,7104.0,-0.4,0.1,0.0,4.9,-8.200000000000001,-0.30000000000000004,-2.9,0.5,2.7,16
416,7120.0,-0.2,0.1,0.0,5.1000000000000005,-8.200000000000001,-0.2,-3.7000000000000006,1.1,2.8,16
417,7137.0,-0.1,0.1,0.1,5.2,-8.200000000000001,-0.2,-4.300000000000001,1.0,3.0,16
418,7154.0,0.2,0.1,0.1,5.4,-8.1,-0.2,-4.1,0.2,2.9,16
419,7171.0,0.30000000000000004,0.30000000000000004,0.1,5.6000000000000005,-8.0,-0.2,-3.1,-1.3,2.5,16
420,7187.0,0.30000000000000004,0.30000000000000004,0.1,5.6000000000000005,-8.0,-0.30000000000000004,-1.2000000000000002,-3.3000000000000007,1.9,16
421,7204.0,0.30000000000000004,0.2,-0.2,5.5,-8.3,-0.7000000000000001,0.9000000000000001,-5.8,0.8,16
422,7220.0,0.2,-0.2,-0.4,5.4,-8.6,-0.9,1.1,-6.600000000000001,0.8,16
423,7238.0,0.1,-0.30000000000000004,-0.5,5.300000000000001,-8.6,-0.8,0.7,-4.4,0.9000000000000001,16
424,7254.0,0.0,-0.30000000000000004,-0.4,5.2,-8.6,-0.7000000000000001,0.9000000000000001,-1.6,1.2000000000000002,16
425,7270.0,-0.1,-0.1,-0.2,5.1000000000000005,-8.4,-0.6000000000000001,1.5,-1.7,2.1,16
426,7289.0,-0.1,0.1,-0.1,5.2,-8.1,-0.5,-0.1,-3.7000000000000006,3.4,16
427,7303.0,0.0,0.2,0.0,5.300000000000001,-8.0,-0.4,-0.1,-3.7000000000000006,3.4,16
428,7320.0,0.1,0.4,0.2,5.300000000000001,-7.800000000000001,-0.2,-1.2000000000000002,-3.2,3.7000000000000006,16
429,7337.0,0.2,0.5,0.2,5.4,-7.800000000000001,-0.30000000000000004,-1.9,-4.9,3.6000000000000005,16
430,7353.0,0.2,0.4,0.0,5.4,-8.0,-0.6000000000000001,-2.1,-8.5,3.3000000000000007,16
431,7370.0,0.2,0.2,-0.2,5.4,-8.0,-0.7000000000000001,-2.6,-9.4,2.6,16
432,7387.0,0.2,0.2,-0.2,5.5,-7.9,-0.5,-3.8,-8.3,1.9,16
433,7403.0,0.4,0.5,0.30000000000000004,5.800000000000001,-7.7,-0.1,-3.9,-6.8,1.1,16
434,7420.0,0.6000000000000001,0.6000000000000001,0.4,5.9,-7.6000000000000005,-0.2,-1.8000000000000003,-7.6,0.4,16
435,7437.0,0.6000000000000001,0.6000000000000001,0.30000000000000004,5.9,-7.7,-0.4,0.1,-9.700000000000001,-0.8,16
436,7454.0,0.7000000000000001,0.4,0.0,6.0,-7.9,-0.6000000000000001,-0.30000000000000004,-10.700000000000001,-2.4000000000000004,16
437,7471.0,0.7000000000000001,0.30000000000000004,0.0,6.1000000000000005,-7.800000000000001,-0.4,-2.1,-10.299999999999999,-3.4,16
438,7487.0,0.8,0.30000000000000004,0.1,6.2,-7.7,-0.30000000000000004,-2.5,-9.3,-3.6000000000000005,16
439,7503.0,0.8,0.5,0.30000000000000004,6.2,-7.5,-0.30000000000000004,-0.5,-11.900000000000002,-2.8,16
440,7521.0,0.8,0.7000000000000001,0.30000000000000004,6.2,-7.300000000000001,-0.30000000000000004,2.0,-18.5,-1.5,16
441,7537.0,0.7000000000000001,0.7000000000000001,0.30000000000000004,6.2,-7.300000000000001,-0.2,4.800000000000001,-25.0,-0.8,16
442,7554.0,0.5,0.8,0.5,5.9,-7.2,-0.1,9.2,-29.200000000000003,-1.1,16
443,7570.0,0.2,0.7000000000000001,0.5,5.7,-7.2,0.0,14.5,-31.7,-1.8000000000000003,16
444,7587.0,0.1,0.7000000000000001,0.5,5.6000000000000005,-7.300000000000001,0.0,19.0,-33.7,-2.6,16
445,7604.0,0.1,0.6000000000000001,0.6000000000000001,5.800000000000001,-7.4,0.1,21.400000000000002,-34.900000000000006,-3.1,16
446,7620.0,0.30000000000000004,0.5,0.7000000000000001,6.0,-7.300000000000001,0.1,22.5,-36.7,-3.6000000000000005,16
447,7637.0,0.4,0.5,0.6000000000000001,6.300000000000001,-7.300000000000001,0.1,23.0,-38.1,-4.6,16
448,7653.0,0.9,0.5,0.5,6.7,-7.300000000000001,-0.1,23.099999999999998,-37.9,-6.600000000000001,16
449,7670.0,1.2000000000000002,0.4,0.2,7.0,-7.300000000000001,-0.5,21.6,-38.400000000000006,-9.100000000000001,16
450,7687.0,1.3,0.4,0.1,7.1000000000000005,-7.2,-0.5,18.700000000000003,-39.8,-11.700000000000001,16
451,7703.0,1.2000000000000002,0.5,0.0,7.2,-7.1000000000000005,-0.5,16.200000000000003,-40.7,-14.300000000000002,16
452,7720.0,1.3,0.6000000000000001,0.1,7.300000000000001,-7.1000000000000005,-0.5,17.200000000000003,-41.0,-16.3,16
453,7737.0,1.3,0.5,0.1,7.300000000000001,-7.1000000000000005,-0.7000000000000001,21.300000000000004,-44.00000000000001,-17.6,16
454,7754.0,1.3,0.30000000000000004,-0.1,7.4,-7.300000000000001,-0.9,24.900000000000002,-50.8,-18.1,16
455,7770.0,1.4000000000000001,0.2,-0.2,7.5,-7.300000000000001,-1.0,26.700000000000003,-59.40000000000001,-18.1,16
456,7787.0,1.4000000000000001,0.2,-0.2,7.6000000000000005,-7.4,-1.0,27.400000000000002,-67.3,-19.200000000000003,16
457,7803.0,1.4000000000000001,0.0,-0.2,7.800000000000001,-7.6000000000000005,-1.0,27.9,-70.4,-22.2,16
458,7820.0,1.7000000000000002,-0.30000000000000004,-0.1,8.200000000000001,-7.7,-1.0,29.300000000000004,-66.5,-27.6,16
459,7837.0,1.8,-0.4,-0.1,8.4,-7.7,-1.0,30.799999999999997,-56.6,-35.599999999999994,16
460,7853.0,2.0,-0.4,0.1,8.3,-7.5,-0.4,31.7,-41.199999999999996,-46.0,16
461,7870.0,1.2000000000000002,-0.2,1.0,7.300000000000001,-7.2,0.5,35.2,-23.0,-56.7,16
462,7888.0,0.6000000000000001,-0.2,1.2000000000000002,6.5,-7.2,0.5,43.70000000000001,-10.1,-62.1,16
463,7903.0,-0.7000000000000001,-0.30000000000000004,1.2000000000000002,5.800000000000001,-7.6000000000000005,0.7000000000000001,51.800000000000004,-10.4,-59.300000000000004,16
464,7922.0,-1.1,-1.1,1.4000000000000001,6.1000000000000005,-8.3,0.5,53.0,-35.599999999999994,-53.10000000000001,16
465,7937.0,-0.8,-1.5,1.3,6.7,-8.8,0.2,51.6,-74.89999999999999,-49.0,16
466,7954.0,0.30000000000000004,-2.3000000000000003,0.5,8.200000000000001,-9.200000000000001,-0.8,50.3,-98.2,-52.00000000000001,16
467,7971.0,1.6,-2.5,-0.2,8.700000000000001,-8.8,-1.1,49.4,-92.90000000000002,-60.6,16
468,7988.0,1.4000000000000001,-2.3000000000000003,-0.2,7.800000000000001,-8.4,-0.7000000000000001,49.199999999999996,-69.80000000000001,-70.3,16
469,8007.0,-0.7000000000000001,-1.7000000000000002,0.7000000000000001,6.0,-7.9,-0.4,52.300000000000004,-62.1,-67.8,16
470,8020.0,-1.8,-1.7000000000000002,0.2,5.4,-7.9,-1.0,57.400000000000006,-78.9,-50.2,16
471,8037.0,-2.0,-1.6,0.1,5.1000000000000005,-7.800000000000001,-1.0,60.7,-77.20000000000002,-33.800000000000004,16
472,8054.0,-2.9000000000000004,-1.4000000000000001,0.2,4.2,-7.5,-0.7000000000000001,60.5,-53.8,-26.799999999999997,16
473,8078.0,-3.7,-1.2000000000000002,0.6000000000000001,3.5,-7.2,-0.4,54.300000000000004,-40.5,-25.4,16
474,8087.0,-4.0,-1.0,0.7000000000000001,3.4000000000000004,-7.0,-0.5,44.300000000000004,-42.800000000000004,-26.5,16
475,8103.0,-4.1000000000000005,-0.5,0.4,3.6,-6.2,-0.9,35.4,-47.0,-29.400000000000002,16
476,8120.0,-3.7,0.30000000000000004,0.0,4.2,-5.6000000000000005,-1.4000000000000001,28.500000000000004,-46.300000000000004,-33.2,16
477,8138.0,-3.4000000000000004,0.4,-0.2,4.5,-5.6000000000000005,-1.5,26.1,-42.800000000000004,-35.599999999999994,16
478,8153.0,-3.0,0.2,-0.30000000000000004,4.6000000000000005,-5.9,-1.6,29.900000000000006,-36.9,-32.2,16
479,8170.0,-2.8000000000000003,-0.2,-0.4,4.9,-6.5,-1.7000000000000002,35.8,-30.799999999999997,-24.599999999999998,16
480,8188.0,-2.7,-0.6000000000000001,-0.4,5.0,-6.7,-1.8,38.800000000000004,-30.4,-15.8,16
481,8204.0,-2.1,-0.8,-0.9,5.800000000000001,-6.5,-2.7,38.60000000000001,-37.2,-3.0,16
482,8220.0,-1.4000000000000001,0.2,-1.5,6.300000000000001,-5.2,-3.0,34.300000000000004,-33.0,10.8,16
483,8237.0,-1.2000000000000002,0.8,-1.6,6.6000000000000005,-4.9,-3.6,28.600000000000005,-32.0,21.1,16
484,8253.0,0.0,1.0,-3.2,8.6,-5.9,-5.5,29.900000000000006,-34.7,32.1,16
485,8271.0,3.0,-0.9,-4.6000000000000005,12.200000000000001,-8.700000000000001,-5.6000000000000005,31.5,-28.700000000000003,38.7,16
486,8287.0,5.0,-2.4000000000000004,-4.2,13.9,-9.9,-4.4,29.400000000000002,2.7,30.4,16
487,8304.0,7.300000000000001,-3.4000000000000004,-2.2,14.200000000000001,-7.9,-2.2,20.8,54.9,1.6,16
488,8320.0,5.4,0.4,0.2,11.4,-5.300000000000001,0.6000000000000001,-3.7000000000000006,81.3,-21.8,16
489,8337.0,3.9000000000000004,0.9,1.6,10.5,-7.5,2.0,-27.800000000000004,69.3,-16.3,16
490,8354.0,1.9000000000000001,-4.3,3.8000000000000003,8.3,-12.3,3.1,-26.200000000000003,44.7,11.5,16
491,8374.0,0.2,-6.1000000000000005,3.2,7.2,-11.3,1.8,-4.300000000000001,21.900000000000002,36.6,16
492,8388.0,-0.1,-4.800000000000001,2.5,7.300000000000001,-8.8,1.4000000000000001,13.700000000000001,0.1,51.9,16
493,8403.0,0.0,0.30000000000000004,1.5,5.7,-4.2,0.8,29.400000000000002,23.099999999999998,36.7,16
494,8420.0,-3.9000000000000004,3.7,0.8,1.2000000000000002,-2.6,-0.1,32.7,69.80000000000001,11.4,16
495,8437.0,-6.0,4.0,0.2,-0.2,-3.3000000000000003,0.2,11.5,76.2,17.200000000000003,16
496,8453.0,-7.2,2.5,2.0,1.0,-5.6000000000000005,3.3000000000000003,-20.2,47.1,50.1,16
497,8471.0,-4.1000000000000005,0.0,4.1000000000000005,4.0,-8.4,4.2,-15.399999999999999,34.400000000000006,75.5,16
498,8487.0,-2.6,-1.3,4.2,4.9,-9.600000000000001,3.9000000000000004,14.400000000000002,23.6,76.1,16
499,8503.0,-0.9,-3.2,2.7,6.5,-11.3,0.7000000000000001,36.1,-3.6000000000000005,63.8,16
500,8520.0,1.9000000000000001,-4.4,-0.9,9.600000000000001,-11.200000000000001,-1.1,29.400000000000002,-23.800000000000004,57.1,16
501,8539.0,3.2,-3.7,-1.2000000000000002,9.5,-9.5,-0.4,-0.30000000000000004,-1.9,45.8,16
502,8553.0,2.1,0.1,0.5,7.300000000000001,-5.7,1.5,-20.400000000000002,37.1,27.0,16
503,8571.0,0.4,3.0,2.1,6.2,-3.8000000000000003,2.6,-17.799999999999997,49.199999999999996,23.700000000000003,16
504,8587.0,0.0,3.8000000000000003,2.4000000000000004,5.9,-3.3000000000000003,2.7,3.5,34.7,31.0,16
505,8603.0,-0.4,4.5,2.1,5.7,-3.3000000000000003,2.1,33.50000000000001,7.0,38.2,16
506,8620.0,0.1,3.7,1.0,6.4,-5.0,1.0,63.0,-17.799999999999997,40.6,16
507,8637.0,0.5,2.7,0.4,6.7,-6.1000000000000005,0.4,86.8,-33.50000000000001,35.5,16
508,8653.0,1.1,0.7000000000000001,-0.8,7.2,-7.5,0.2,98.60000000000001,-40.9,26.9,16
509,8671.0,1.2000000000000002,0.0,-0.6000000000000001,6.7,-7.6000000000000005,0.6000000000000001,98.10000000000001,-40.800000000000004,19.799999999999997,16
510,8687.0,0.8,0.0,-0.5,6.1000000000000005,-7.5,0.6000000000000001,93.60000000000001,-39.699999999999996,15.899999999999999,16
511,8703.0,-0.2,0.4,-0.5,5.4,-7.0,0.8,91.90000000000002,-29.900000000000006,17.5,16
512,8720.0,-0.7000000000000001,0.9,-0.7000000000000001,5.0,-6.7,0.5,92.8,-17.1,20.599999999999998,16
513,8737.0,-0.7000000000000001,0.9,-1.1,5.4,-6.800000000000001,0.2,88.50000000000001,-18.200000000000003,22.3,16
514,8754.0,0.4,0.7000000000000001,-1.6,6.300000000000001,-7.300000000000001,0.4,72.0,9.700000000000001,20.400000000000002,16
515,8773.0,0.4,0.30000000000000004,-1.3,5.300000000000001,-7.2,1.6,42.800000000000004,67.60000000000001,12.0,16
516,8787.0,-0.30000000000000004,0.4,-0.6000000000000001,4.6000000000000005,-7.1000000000000005,2.3000000000000003,8.899999999999999,121.4,5.6,16
517,8804.0,-1.0,0.0,0.0,4.0,-9.3,-0.2,-15.8,122.50000000000001,9.3,16
518,8820.0,-0.4,-3.7,-4.0,7.9,-13.0,-1.7000000000000002,-38.300000000000004,81.8,15.5,16
519,8837.0,2.6,-5.1000000000000005,-3.8000000000000003,9.8,-12.100000000000001,-0.5,-74.89999999999999,22.5,19.0,16
520,8853.0,4.7,-2.3000000000000003,-0.9,10.200000000000001,-8.6,1.8,-76.0,14.100000000000001,-2.4000000000000004,16
521,8870.0,5.0,0.30000000000000004,-0.1,11.100000000000001,-7.1000000000000005,1.2000000000000002,-49.50000000000001,12.200000000000001,-8.899999999999999,16
522,8887.0,5.6000000000000005,0.8,-0.5,12.100000000000001,-6.800000000000001,1.0,-23.0,-4.9,1.4,16
523,8903.0,7.9,1.1,-1.0,14.600000000000001,-7.2,-0.1,-9.600000000000001,-23.6,6.8,16
524,8920.0,9.0,0.8,-1.7000000000000002,15.100000000000001,-7.2,-2.0,-8.8,-41.0,-8.600000000000001,16
525,8937.0,8.700000000000001,0.9,-6.0,13.4,-7.0,-6.2,-29.800000000000004,-39.2,-35.0,16
526,8954.0,6.4,0.0,-6.300000000000001,11.600000000000001,-8.5,-2.7,-91.4,-42.400000000000006,-60.400000000000006,16
527,8970.0,4.2,-1.9000000000000001,0.1,9.8,-10.600000000000001,3.2,-147.2,-79.8,-91.6,16
528,8987.0,3.2,-3.2,3.2,9.1,-11.700000000000001,5.5,-144.3,-113.7,-120.10000000000001,16
529,9004.0,1.4000000000000001,-5.4,6.9,7.7,-13.4,6.2,-80.4,-133.9,-132.3,16
530,9020.0,0.2,-7.300000000000001,6.1000000000000005,7.2,-15.3,4.3,-11.5,-137.60000000000002,-113.3,16
531,9037.0,0.0,-8.3,5.0,6.9,-15.9,2.8000000000000003,31.5,-103.3,-63.10000000000001,16
532,9053.0,-0.4,-8.3,1.7000000000000002,6.5,-13.9,-0.6000000000000001,29.300000000000004,-47.900000000000006,-12.0,16
533,9074.0,-1.4000000000000001,-5.2,-0.2,4.800000000000001,-11.100000000000001,-0.5,-26.000000000000004,-36.9,2.7,16
534,9088.0,-2.4000000000000004,-4.1000000000000005,0.7000000000000001,3.6,-10.200000000000001,1.1,-102.7,-47.60000000000001,-19.9,16
535,9103.0,-4.6000000000000005,-2.8000000000000003,3.7,2.5,-9.1,1.9000000000000001,-141.3,-42.800000000000004,-49.0,16
536,9120.0,-5.300000000000001,-1.6,3.8000000000000003,1.0,-6.800000000000001,3.3000000000000003,-138.40000000000003,-15.5,-65.8,16
537,9137.0,-6.5,-0.30000000000000004,5.2,0.5,-5.6000000000000005,4.6000000000000005,-116.1,19.9,-72.80000000000001,16
538,9153.0,-6.0,1.4000000000000001,6.5,2.0,-3.7,2.9000000000000004,-68.5,-1.3,-58.3,16
539,9170.0,-4.9,3.5,3.5,3.5,-2.0,0.6000000000000001,10.1,-66.3,-55.5,16
540,9187.0,-4.1000000000000005,4.0,2.8000000000000003,4.0,-1.4000000000000001,0.30000000000000004,10.1,-66.3,-55.5,16
541,9203.0,-3.5,5.1000000000000005,2.5,3.9000000000000004,-0.2,0.6000000000000001,19.9,-69.3,-70.3,16
542,9220.0,-3.8000000000000003,5.5,2.9000000000000004,3.1,0.0,1.0,26.799999999999997,-59.60000000000001,-81.8,16
543,9237.0,-5.800000000000001,5.1000000000000005,3.8000000000000003,1.1,-1.6,2.0,36.7,-38.7,-75.7,16
544,9253.0,-7.0,2.6,4.800000000000001,0.30000000000000004,-3.7,2.7,48.10000000000001,-22.4,-46.0,16
545,9270.0,-7.800000000000001,1.0,4.9,-0.7000000000000001,-5.1000000000000005,2.7,63.2,-26.700000000000003,4.9,16
546,9287.0,-8.3,0.4,4.800000000000001,-1.0,-5.5,2.7,63.2,-26.700000000000003,4.9,16
547,9304.0,-8.700000000000001,-0.2,4.4,-1.0,-6.2,2.0,67.9,-20.900000000000002,18.200000000000003,16
548,9320.0,-8.3,-0.5,3.9000000000000004,-0.1,-6.800000000000001,1.3,70.3,-11.8,29.0,16
549,9337.0,-5.6000000000000005,-1.7000000000000002,1.7000000000000002,4.2,-8.700000000000001,-4.4,65.2,-13.8,43.00000000000001,16
550,9353.0,2.2,-4.4,-13.8,19.3,-12.700000000000001,-29.5,31.3,-53.400000000000006,46.7,16
551,9370.0,12.100000000000001,-6.800000000000001,-27.200000000000003,30.400000000000002,-14.100000000000001,-23.6,-77.20000000000002,-36.2,10.8,16
552,9387.0,24.900000000000002,-7.2,-5.9,26.700000000000003,-8.8,-3.1,-130.0,139.1,-119.1,16
553,9403.0,10.3,1.7000000000000002,-1.2000000000000002,14.200000000000001,0.8,-2.6,-35.8,154.29999999999998,-205.6,16
554,9420.0,3.4000000000000004,4.7,0.5,8.3,-3.4000000000000004,0.6000000000000001,52.300000000000004,50.400000000000006,14.100000000000001,16
555,9437.0,-0.1,1.6,2.1,4.5,-4.6000000000000005,1.5,52.300000000000004,50.400000000000006,14.100000000000001,16
556,9454.0,-6.6000000000000005,-0.1,3.0,-0.5,-6.7,3.3000000000000003,84.1,35.1,28.700000000000003,16
557,9471.0,-9.9,-3.1,7.1000000000000005,-1.4000000000000001,-11.3,7.6000000000000005,133.20000000000002,78.10000000000001,94.3,16
558,9487.0,-9.4,-5.6000000000000005,8.1,-1.1,-15.5,4.1000000000000005,133.20000000000002,78.10000000000001,94.3,16
559,9504.0,-5.6000000000000005,-14.4,-4.0,12.4,-23.3,-6.0,114.3,13.5,149.3,16
560,9520.0,4.0,-12.4,2.5,6.2,-12.600000000000001,2.7,-78.0,0.9000000000000001,16.900000000000002,16
561,9537.0,-1.4000000000000001,-6.1000000000000005,3.6,3.6,-9.0,0.0,-78.0,0.9000000000000001,16.900000000000002,16
562,9553.0,-5.800000000000001,-0.5,-0.2,-0.5,-4.9,1.4000000000000001,-29.1,183.9,-16.900000000000002,16
563,9570.0,-8.0,1.5,1.5,-1.1,-3.7,3.5,-21.300000000000004,218.50000000000003,-6.2,16
564,9588.0,-7.7,2.9000000000000004,4.1000000000000005,0.9,-4.1000000000000005,4.1000000000000005,-8.700000000000001,169.60000000000002,36.400000000000006,16
565,9604.0,-5.1000000000000005,1.9000000000000001,3.4000000000000004,3.1,-5.800000000000001,4.2,0.6000000000000001,103.49999999999999,65.4,16
566,9620.0,-2.5,-0.5,4.4,4.5,-7.300000000000001,4.800000000000001,-10.4,-56.9,64.9,16
567,9637.0,-0.8,-2.0,5.0,7.5,-10.5,5.5,-10.4,-56.9,64.9,16
568,9653.0,2.4000000000000004,-4.800000000000001,5.2,10.9,-12.200000000000001,4.4,0.6000000000000001,-109.8,52.00000000000001,16
569,9671.0,5.0,-3.7,3.2,11.4,-8.1,1.8,28.800000000000004,-66.4,31.9,16
570,9687.0,4.7,-0.9,1.8,10.4,-4.800000000000001,-0.9,28.800000000000004,-66.4,31.9,16
571,9705.0,2.1,4.9,-2.1,7.0,-1.2000000000000002,-0.5,27.6,10.700000000000001,35.2,16
572,9720.0,-0.7000000000000001,6.300000000000001,0.5,5.800000000000001,-1.0,1.1,29.400000000000002,121.0,70.8,16
573,9738.0,-1.1,6.1000000000000005,1.3,5.2,-1.9000000000000001,1.9000000000000001,29.400000000000002,121.0,70.8,16
574,9753.0,-0.5,4.800000000000001,-0.30000000000000004,6.0,-3.7,-0.4,48.70000000000001,104.2,68.7,16
575,9771.0,0.1,2.6,-2.4000000000000004,6.300000000000001,-6.1000000000000005,-1.1,43.900000000000006,80.2,20.599999999999998,16
576,9787.0,0.30000000000000004,1.4000000000000001,-2.6,6.300000000000001,-7.0,-0.9,43.900000000000006,80.2,20.599999999999998,16
577,9804.0,0.30000000000000004,-0.1,-2.2,6.300000000000001,-7.9,-0.1,25.6,65.7,14.600000000000001,16
578,9820.0,0.4,-0.30000000000000004,-1.8,6.300000000000001,-7.9,0.2,8.899999999999999,56.10000000000001,25.200000000000003,16
579,9838.0,0.5,0.0,-1.2000000000000002,5.800000000000001,-6.9,0.6000000000000001,-0.8,56.0,38.0,16
580,9853.0,0.0,1.4000000000000001,-1.4000000000000001,5.7,-6.1000000000000005,0.2,-3.0,49.1,44.9,16
581,9870.0,0.2,1.6,-1.6,6.2,-6.5,-0.1,-9.700000000000001,38.60000000000001,50.3,16
582,9887.0,1.5,0.6000000000000001,-2.7,8.1,-8.200000000000001,-1.3,-9.700000000000001,38.60000000000001,50.3,16
583,9905.0,4.3,-0.8,-3.4000000000000004,10.600000000000001,-8.6,-1.4000000000000001,-19.700000000000003,56.7,40.5,16
584,9920.0,5.4,-0.6000000000000001,-3.3000000000000003,11.0,-7.7,-1.2000000000000002,-35.0,72.80000000000001,24.200000000000003,16
585,9937.0,6.0,1.2000000000000002,-2.9000000000000004,11.9,-6.300000000000001,-1.0,-55.0,62.6,14.200000000000001,16
586,9953.0,7.800000000000001,1.7000000000000002,-2.0,14.8,-7.2,0.1,-75.60000000000001,29.200000000000003,8.3,16
587,9970.0,9.5,0.9,-1.3,16.6,-8.5,-0.5,-75.7,-39.699999999999996,-53.50000000000001,16
588,9987.0,11.5,-1.5,-2.8000000000000003,15.9,-9.600000000000001,-2.8000000000000003,-75.7,-39.699999999999996,-53.50000000000001,16
589,10004.0,7.9,-1.8,-3.9000000000000004,13.0,-10.600000000000001,-3.0,-72.80000000000001,-37.6,-92.90000000000002,16
590,10025.0,6.0,-4.9,-3.1,11.0,-14.5,-1.7000000000000002,-101.0,-103.49999999999999,-146.4,16
591,10037.0,4.3,-7.1000000000000005,-1.7000000000000002,9.200000000000001,-16.0,0.9,-101.0,-103.49999999999999,-146.4,16
592,10053.0,0.5,-9.200000000000001,3.9000000000000004,6.4,-16.2,5.1000000000000005,-83.60000000000001,-118.40000000000002,-146.1,16
593,10073.0,-1.5,-9.4,5.300000000000001,4.3,-17.1,3.8000000000000003,6.0,-46.1,-28.800000000000004,16
594,10087.0,-2.8000000000000003,-9.9,4.2,2.4000000000000004,-16.900000000000002,2.6,6.0,-46.1,-28.800000000000004,16
595,10103.0,-5.9,-8.200000000000001,1.7000000000000002,1.7000000000000002,-13.8,0.5,10.9,54.9,38.900000000000006,16
596,10121.0,-3.8000000000000003,-4.5,0.30000000000000004,3.6,-10.0,-0.4,-29.600000000000005,58.900000000000006,66.1,16
597,10137.0,-3.2,-2.5,0.30000000000000004,3.1,-8.1,0.0,-97.40000000000002,-31.400000000000002,24.1,16
598,10153.0,-4.9,0.6000000000000001,2.5,0.8,-5.9,2.6,-141.3,-72.0,-37.1,16
599,10172.0,-6.2,1.8,5.0,0.8,-5.300000000000001,3.4000000000000004,-136.4,-54.199999999999996,-63.599999999999994,16
600,10187.0,-5.6000000000000005,2.3000000000000003,5.7,2.0,-3.8000000000000003,4.2,-90.80000000000001,-16.0,-56.2,16
601,10203.0,-4.2,3.7,5.300000000000001,3.7,-2.8000000000000003,2.6,-32.5,-4.0,-50.1,16
602,10220.0,-3.4000000000000004,4.0,4.2,4.6000000000000005,-2.5,0.4,11.3,-32.8,-54.199999999999996,16
603,10237.0,-2.4000000000000004,3.8000000000000003,-0.2,1.7000000000000002,-4.5,-7.2,22.3,-55.0,-68.4,16
604,10253.0,-5.300000000000001,-1.0,7.0,1.7000000000000002,-8.3,7.7,-76.2,230.09999999999997,-76.89999999999999,16
605,10271.0,-5.9,-2.2,9.1,1.4000000000000001,-2.0,-0.2,-213.8,138.29999999999998,-100.5,16
606,10287.0,-3.4000000000000004,5.5,2.9000000000000004,6.0,-1.6,1.7000000000000002,-164.4,18.900000000000002,-25.6,16
607,10304.0,-2.8000000000000003,3.4000000000000004,0.8,2.4000000000000004,-3.9000000000000004,-2.5,-17.300000000000004,3.1,18.3,16
608,10321.0,-5.0,2.3000000000000003,-0.9,1.0,-5.300000000000001,-2.7,50.0,-17.0,36.300000000000004,16
609,10337.0,-6.800000000000001,0.7000000000000001,-0.1,-0.2,-5.1000000000000005,-1.1,60.00000000000001,-9.0,93.4,16
610,10353.0,-7.9,3.1,0.8,-1.0,-2.5,-0.9,72.80000000000001,-43.4,107.10000000000001,16
611,10370.0,-7.7,4.3,0.6000000000000001,1.3,-2.7,-1.8,96.9,-98.3,94.2,16
612,10387.0,-2.3000000000000003,2.1,-1.8,6.2,-7.6000000000000005,-6.1000000000000005,121.6,-154.00000000000003,64.30000000000001,16
613,10403.0,2.5,-3.5,-6.5,11.600000000000001,-15.4,-10.0,112.30000000000001,-163.6,1.4,16
614,10420.0,5.1000000000000005,-8.5,-8.4,16.2,-18.2,-5.9,57.60000000000001,-83.80000000000001,-56.10000000000001,16
615,10437.0,11.0,-10.200000000000001,-1.8,16.6,-12.200000000000001,-4.6000000000000005,-9.5,46.6,-63.30000000000001,16
616,10453.0,7.4,-0.5,-1.6,10.8,-3.4000000000000004,1.1,-37.1,99.39999999999999,-21.500000000000004,16
617,10472.0,4.0,3.5,2.4000000000000004,6.9,-1.6,4.800000000000001,-73.5,141.1,44.5,16
618,10487.0,-2.5,4.5,8.200000000000001,4.0,-1.5,8.9,-58.7,120.2,121.2,16
619,10503.0,-1.6,4.0,7.4,6.1000000000000005,-7.2,3.8000000000000003,1.9,109.7,195.6,16
620,10520.0,0.30000000000000004,0.6000000000000001,4.3,7.6000000000000005,-10.700000000000001,2.2,78.0,110.70000000000002,204.8,16
621,10537.0,2.6,-5.0,-1.1,8.9,-14.200000000000001,-4.0,100.80000000000001,52.400000000000006,150.9,16
622,10553.0,3.6,-5.7,-8.200000000000001,8.200000000000001,-13.4,-9.600000000000001,6.4,-92.10000000000001,121.30000000000001,16
623,10570.0,3.3000000000000003,-4.9,-8.8,8.5,-12.0,-1.2000000000000002,-90.0,-66.3,125.7,16
624,10587.0,1.8,-0.9,7.9,2.3000000000000003,-7.6000000000000005,9.9,-44.8,38.1,91.10000000000001,16
625,10603.0,-5.300000000000001,1.5,9.600000000000001,-2.2,-7.800000000000001,8.200000000000001,28.600000000000005,-10.1,56.2,16
626,10620.0,-6.5,1.1,8.8,-2.9000000000000004,-7.2,6.9,61.300000000000004,-97.89999999999999,66.1,16
627,10637.0,-6.2,2.5,5.4,-1.6,-5.9,3.5,92.3,-143.70000000000002,65.0,16
628,10653.0,-6.0,3.2,3.2,-2.3000000000000003,-6.6000000000000005,2.5,96.5,-178.3,30.1,16
629,10671.0,-6.300000000000001,2.3000000000000003,2.8000000000000003,-2.4000000000000004,-8.8,1.5,101.80000000000001,-176.6,-1.4,16
630,10687.0,-6.300000000000001,-1.7000000000000002,0.1,-1.7000000000000002,-11.100000000000001,-2.1,124.50000000000001,-114.80000000000001,-12.7,16
631,10703.0,-3.6,-1.5,-4.2,2.4000000000000004,-10.0,-3.7,153.79999999999998,-58.800000000000004,-16.700000000000003,16
632,10720.0,-1.6,-1.1,-4.3,1.2000000000000002,-10.5,-1.9000000000000001,159.0,-29.0,-24.599999999999998,16
633,10746.0,-7.1000000000000005,-2.2,0.30000000000000004,-4.3,-7.7,0.8,121.4,-123.4,-17.200000000000003,16
634,10757.0,-8.200000000000001,1.1,-0.2,-6.6000000000000005,9.600000000000001,1.4000000000000001,121.4,-123.4,-17.200000000000003,16
635,10773.0,-3.2,9.200000000000001,-1.8,9.8,-10.5,-4.6000000000000005,91.0,-129.70000000000002,254.39999999999998,16
636,10787.0,6.800000000000001,-1.5,-5.800000000000001,10.200000000000001,-4.6000000000000005,-6.2,91.0,-129.70000000000002,254.39999999999998,16
637,10803.0,6.800000000000001,-0.8,-7.5,8.700000000000001,-12.600000000000001,-5.0,94.2,-20.8,148.1,16
638,10820.0,6.2,-3.5,-6.6000000000000005,8.4,-13.3,-2.9000000000000004,74.7,71.30000000000001,91.90000000000002,16
639,10837.0,6.1000000000000005,-6.4,-2.6,8.8,-16.0,0.30000000000000004,29.400000000000002,119.20000000000002,77.9,16
640,10853.0,8.200000000000001,-7.2,-0.5,10.700000000000001,-16.1,0.1,-18.5,105.60000000000002,88.9,16
641,10870.0,8.8,-6.6000000000000005,-1.4000000000000001,9.600000000000001,-15.700000000000001,-1.2000000000000002,-51.300000000000004,69.00000000000001,94.3,16
642,10887.0,6.9,-6.6000000000000005,-2.9000000000000004,9.9,-14.4,-2.3000000000000003,-76.3,48.50000000000001,87.40000000000002,16
643,10903.0,11.4,-3.0,-4.1000000000000005,14.8,-10.0,-2.7,-78.2,20.2,91.10000000000001,16
644,10920.0,13.4,-0.30000000000000004,-3.6,14.0,-8.700000000000001,-1.1,-77.4,29.800000000000004,58.0,16
645,10937.0,6.9,-0.9,-0.7000000000000001,1.4000000000000001,-13.200000000000001,0.30000000000000004,-75.00000000000001,69.60000000000001,-31.0,16
646,10953.0,-2.8000000000000003,-3.6,-0.30000000000000004,2.0,-13.3,-1.0,-75.2,47.7,-81.3,16
647,10970.0,-0.1,-3.6,-1.2000000000000002,5.0,-14.4,-2.0,-80.60000000000001,12.5,-87.89999999999999,16
648,10990.0,4.0,-5.9,-2.8000000000000003,7.2,-16.900000000000002,-3.8000000000000003,-88.00000000000001,20.0,-97.2,16
649,11004.0,3.0,-9.4,-3.2,2.6,-20.200000000000003,-2.2,-86.7,60.8,-111.0,16
650,11020.0,-0.6000000000000001,-10.700000000000001,-1.9000000000000001,-0.9,-19.400000000000002,-1.0,-76.80000000000001,114.10000000000001,-146.1,16
651,11037.0,-7.2,-8.3,0.1,-3.6,-16.1,0.6000000000000001,-58.1,131.0,-175.10000000000002,16
652,11053.0,-6.5,-6.0,1.7000000000000002,-1.5,-14.9,2.3000000000000003,-51.70000000000001,134.3,-158.2,16
653,11071.0,-6.0,-5.800000000000001,2.7,-1.0,-13.8,3.9000000000000004,-67.60000000000001,128.1,-143.9,16
654,11087.0,-6.300000000000001,-3.7,5.0,-2.4000000000000004,-11.200000000000001,5.7,-69.60000000000001,118.90000000000002,-145.3,16
655,11103.0,-8.1,-0.4,6.5,-3.0,-8.5,6.6000000000000005,-24.599999999999998,98.60000000000001,-133.8,16
656,11120.0,-8.3,0.2,6.6000000000000005,-2.1,-8.700000000000001,6.300000000000001,28.3,46.0,-106.60000000000001,16
657,11137.0,-5.7,1.8,5.5,-1.5,-2.4000000000000004,4.7,62.1,-37.2,-78.4,16
658,11153.0,-9.4,8.3,3.8000000000000003,-3.6,1.8,2.2,59.1,-123.00000000000001,-72.7,16
659,11172.0,-7.300000000000001,10.9,1.7000000000000002,-1.8,2.7,1.3,17.1,-160.3,-55.1,16
660,11190.0,-5.300000000000001,9.600000000000001,1.0,1.5,-0.1,-0.5,-14.600000000000001,-146.60000000000002,-21.200000000000003,16
661,11203.0,-3.5,7.7,0.1,3.0,-0.2,-1.2000000000000002,-42.7,-174.00000000000003,-25.900000000000002,16
662,11221.0,-2.6,7.7,0.1,5.1000000000000005,-0.7000000000000001,-2.1,-61.7,-186.4,-52.300000000000004,16
663,11238.0,0.5,4.4,-1.0,4.6000000000000005,-6.9,-1.7000000000000002,-49.699999999999996,-159.6,-73.10000000000001,16
664,11253.0,-3.2,1.2000000000000002,1.1,2.1,-3.9000000000000004,-0.1,-15.899999999999999,-92.50000000000001,-75.5,16
665,11270.0,-3.7,3.6,1.8,1.1,-1.9000000000000001,0.1,-1.9,-40.6,-27.700000000000003,16
666,11287.0,-6.9,6.9,1.8,-2.9000000000000004,-2.0,0.1,7.6,-22.6,8.0,16
667,11303.0,-9.1,2.2,1.6,-2.7,-7.2,-0.6000000000000001,14.700000000000001,-38.7,30.9,16
668,11320.0,-8.0,0.4,1.3,0.1,-8.0,-1.4000000000000001,38.400000000000006,-56.9,54.50000000000001,16
669,11337.0,-1.1,-1.3,-1.5,7.800000000000001,-10.8,-6.2,69.00000000000001,-83.70000000000002,86.4,16
670,11354.0,5.7,-3.9000000000000004,-8.0,13.600000000000001,-12.5,-11.4,73.5,-107.10000000000001,104.80000000000001,16
671,11370.0,9.0,-4.3,-9.5,17.7,-14.5,-12.200000000000001,47.400000000000006,-85.30000000000001,87.00000000000001,16
672,11389.0,16.5,-6.800000000000001,-8.8,21.5,-15.700000000000001,-7.6000000000000005,4.800000000000001,-63.0,22.1,16
673,11403.0,12.3,-7.800000000000001,-2.9000000000000004,12.5,-13.5,-3.0,-18.4,-18.900000000000002,-52.300000000000004,16
674,11420.0,7.300000000000001,-5.4,-0.8,6.9,-11.9,-1.3,-2.6,-8.100000000000001,-81.8,16
675,11438.0,0.1,-3.0,2.1,4.3,-10.3,0.7000000000000001,34.50000000000001,38.7,-58.1,16
676,11454.0,-2.1,-3.4000000000000004,3.0,3.4000000000000004,-11.5,5.0,38.0,59.5,-18.6,16
677,11470.0,-2.0,-3.4000000000000004,6.7,3.3000000000000003,-12.4,7.5,21.6,45.5,4.0,16
678,11488.0,-3.7,-4.800000000000001,8.200000000000001,-0.30000000000000004,-12.5,0.9,21.300000000000004,-15.2,-10.700000000000001,16
679,11503.0,-6.1000000000000005,-3.5,-4.3,0.7000000000000001,-11.4,-10.9,37.0,-53.300000000000004,-1.1,16
680,11520.0,-4.4,-3.1,-9.200000000000001,1.0,-10.8,-10.600000000000001,21.7,-57.00000000000001,43.800000000000004,16
681,11537.0,-6.7,-2.4000000000000004,-4.3,-3.4000000000000004,-11.4,-1.5,-19.200000000000003,-73.4,58.1,16
682,11553.0,-7.2,-6.2,2.5,-3.7,-12.0,0.9,-5.9,-28.3,47.900000000000006,16
683,11572.0,-8.1,6.1000000000000005,3.4000000000000004,0.8,-1.4000000000000001,2.3000000000000003,77.5,227.10000000000002,77.60000000000001,16
684,11589.0,-3.7,7.4,3.1,4.5,-3.4000000000000004,0.7000000000000001,77.5,227.10000000000002,77.60000000000001,16
685,11603.0,1.2000000000000002,3.8000000000000003,-0.30000000000000004,4.2,-6.800000000000001,-0.6000000000000001,84.5,225.10000000000002,113.00000000000001,16
686,11620.0,0.1,2.1,-0.7000000000000001,2.0,-9.200000000000001,-0.7000000000000001,90.0,262.3,85.4,16
687,11637.0,-4.4,-2.5,-0.9,-3.3000000000000003,-11.700000000000001,1.4000000000000001,39.0,198.50000000000003,59.300000000000004,16
688,11653.0,-7.5,-1.0,3.0,0.0,-7.800000000000001,5.7,-14.100000000000001,151.5,50.0,16
689,11671.0,-3.4000000000000004,1.4000000000000001,5.1000000000000005,3.8000000000000003,-6.0,7.5,-8.8,94.0,98.39999999999999,16
690,11686.0,2.2,3.6,7.2,5.300000000000001,-5.6000000000000005,7.6000000000000005,-8.8,94.0,98.39999999999999,16
691,11703.0,1.2000000000000002,3.9000000000000004,5.7,2.7,-5.6000000000000005,5.800000000000001,12.100000000000001,55.400000000000006,73.5,16
692,11720.0,-0.2,3.6,4.7,0.5,-6.800000000000001,5.0,34.900000000000006,40.7,41.199999999999996,16
693,11737.0,-4.2,2.1,1.1,-2.4000000000000004,-6.9,0.4,58.7,-19.0,23.3,16
694,11753.0,-6.5,0.9,-0.8,-4.7,-9.4,-0.2,63.0,-88.8,19.5,16
695,11775.0,-8.3,-0.5,0.1,-5.300000000000001,-9.200000000000001,1.5,141.2,-284.7,20.900000000000002,16
696,11788.0,-8.1,-0.1,-0.2,-3.2,-9.4,-0.6000000000000001,141.2,-284.7,20.900000000000002,16
697,11803.0,-4.3,-1.1,-3.9000000000000004,0.1,-10.700000000000001,-2.2,205.4,-271.5,-5.8,16
698,11820.0,-3.1,-1.9000000000000001,-4.5,2.3000000000000003,-11.200000000000001,-4.0,225.60000000000002,-172.4,-47.2,16
699,11837.0,0.4,-2.5,-8.200000000000001,4.4,-10.700000000000001,-5.6000000000000005,197.20000000000002,-111.4,-84.2,16
700,11853.0,1.1,-2.0,-6.5,5.5,-9.9,-0.6000000000000001,113.8,-62.300000000000004,-111.70000000000002,16
701,11876.0,2.6,-1.5,-1.0,9.0,-10.4,2.5,-61.7,6.500000000000001,-45.8,16
702,11887.0,4.9,-2.0,0.0,11.700000000000001,-10.3,2.7,-61.7,6.500000000000001,-45.8,16
703,11903.0,10.3,-2.7,-0.2,17.400000000000002,-12.3,2.0,-129.70000000000002,-26.9,4.7,16
704,11920.0,13.100000000000001,-3.8000000000000003,0.2,18.900000000000002,-11.600000000000001,2.1,-148.60000000000002,5.7,-8.3,16
705,11937.0,12.600000000000001,-1.7000000000000002,-0.6000000000000001,15.0,-8.200000000000001,0.8,-119.20000000000002,93.10000000000001,-108.50000000000001,16
706,11953.0,7.1000000000000005,2.8000000000000003,-0.7000000000000001,10.5,-1.7000000000000002,-0.5,-84.80000000000001,166.5,-194.10000000000002,16
707,11970.0,5.0,6.300000000000001,-2.3000000000000003,10.8,0.5,-4.9,-59.5,173.9,-185.7,16
708,11988.0,9.9,6.800000000000001,-9.700000000000001,19.0,-5.1000000000000005,-7.4,-94.3,161.00000000000003,-50.5,16
709,12003.0,11.9,1.3,-6.9,13.9,-6.800000000000001,-4.6000000000000005,-183.80000000000004,182.8,10.5,16
710,12020.0,8.3,1.2000000000000002,-5.7,12.0,-7.300000000000001,-3.6,-259.8,163.00000000000003,-51.1,16
711,12037.0,4.7,-0.6000000000000001,-1.5,10.0,-9.8,1.8,-294.3,111.10000000000002,-123.4,16
712,12053.0,2.7,-3.9000000000000004,4.4,8.3,-11.600000000000001,6.4,-251.70000000000002,61.10000000000001,-185.10000000000002,16
713,12070.0,1.4000000000000001,-4.4,6.4,7.800000000000001,-12.4,4.7,-116.2,11.1,-219.6,16
714,12086.0,0.6000000000000001,-7.300000000000001,3.0,8.0,-15.200000000000001,1.3,-7.0,-98.0,-192.0,16
715,12103.0,0.9,-8.6,0.8,8.8,-13.700000000000001,0.9,54.50000000000001,-130.6,-118.40000000000002,16
716,12120.0,1.3,-7.0,1.4000000000000001,8.4,-11.600000000000001,1.4000000000000001,82.0,-110.6,-41.50000000000001,16
717,12137.0,0.0,-3.6,1.1,6.5,-9.200000000000001,0.0,84.4,-126.60000000000002,-15.700000000000001,16
718,12155.0,-1.7000000000000002,-1.5,0.7000000000000001,5.300000000000001,-7.6000000000000005,0.8,67.00000000000001,-113.2,-17.5,16
719,12172.0,-2.3000000000000003,-1.0,1.4000000000000001,4.7,-6.800000000000001,1.7000000000000002,39.0,-49.6,-29.700000000000006,16
720,12187.0,-3.6,0.30000000000000004,2.6,3.7,-5.6000000000000005,2.5,20.900000000000002,7.500000000000001,-43.900000000000006,16
721,12204.0,-4.800000000000001,1.3,3.1,1.8,-4.4,2.7,8.4,35.3,-57.3,16
722,12220.0,-6.0,1.8,3.1,1.0,-3.9000000000000004,2.4000000000000004,-3.7000000000000006,13.000000000000002,-69.3,16
723,12237.0,-7.0,2.6,2.6,1.0,-2.8000000000000003,1.5,-13.5,-43.6,-64.10000000000001,16
724,12253.0,-6.6000000000000005,3.4000000000000004,1.9000000000000001,1.3,-2.3000000000000003,-0.2,-20.0,-100.2,-50.400000000000006,16
725,12270.0,-6.5,3.5,0.9,1.3,-2.4000000000000004,-0.30000000000000004,-18.8,-122.30000000000001,-38.1,16
726,12287.0,-6.7,3.0,1.8,0.30000000000000004,-3.1,1.3,-1.4,-76.89999999999999,-28.900000000000002,16
727,12303.0,-6.7,3.0,1.8,0.30000000000000004,-3.1,1.3,-1.4,-76.89999999999999,-28.900000000000002,16
728,12320.0,-9.3,2.1,2.4000000000000004,-1.9000000000000001,-3.8000000000000003,1.1,68.5,-30.799999999999997,4.1,16
729,12337.0,-9.4,2.2,2.4000000000000004,-1.8,-3.7,1.7000000000000002,76.0,-36.400000000000006,37.300000000000004,16
730,12353.0,-8.8,2.2,2.9000000000000004,-0.9,-4.6000000000000005,1.6,68.60000000000001,-38.800000000000004,62.4,16
731,12370.0,-8.0,1.6,2.7,-0.2,-5.9,0.2,62.1,-53.50000000000001,81.0,16
732,12386.0,-5.6000000000000005,-1.4000000000000001,-2.7,6.1000000000000005,-11.3,-16.7,53.599999999999994,-81.90000000000002,96.20000000000002,16
733,12403.0,15.3,-9.0,-29.3,35.6,-16.7,-20.3,-26.799999999999997,-156.70000000000002,90.6,16
734,12420.0,28.5,-10.4,-18.3,37.0,-16.2,-0.4,-160.20000000000002,-45.0,-25.7,16
735,12437.0,20.8,-6.6000000000000005,4.0,18.5,-3.7,-0.9,-49.9,195.00000000000003,-257.3,16
736,12453.0,5.5,9.1,-1.1,11.4,3.2,-1.2000000000000002,43.4,120.7,-251.3,16
737,12475.0,0.0,3.8000000000000003,2.8000000000000003,4.6000000000000005,-4.2,2.7,47.7,12.4,53.7,16
738,12487.0,-3.6,1.3,3.8000000000000003,1.8,-5.7,3.9000000000000004,47.7,12.4,53.7,16
739,12505.0,-7.300000000000001,-1.8,6.1000000000000005,1.5,-11.5,3.4000000000000004,102.0,27.5,69.00000000000001,16
740,12520.0,-6.300000000000001,-5.4,3.8000000000000003,0.6000000000000001,-18.6,-5.2,154.40000000000003,58.1,103.10000000000001,16
741,12537.0,-3.7,-18.6,-8.0,11.100000000000001,-23.900000000000002,4.6000000000000005,83.80000000000001,22.9,152.0,16
742,12553.0,-0.30000000000000004,-9.3,9.600000000000001,1.4000000000000001,-9.4,5.300000000000001,-54.6,-63.0,138.9,16
743,12570.0,-5.800000000000001,-2.4000000000000004,5.7,-0.8,-5.9,3.4000000000000004,12.8,26.200000000000003,41.4,16
744,12587.0,-8.8,2.6,3.0,-1.7000000000000002,-3.8000000000000003,3.5,63.0,93.7,28.800000000000004,16
745,12604.0,-7.6000000000000005,3.1,3.2,0.7000000000000001,-4.7,3.7,71.5,92.3,47.3,16
746,12620.0,-6.0,2.5,3.2,1.9000000000000001,-5.7,4.2,56.0,38.400000000000006,65.5,16
747,12637.0,-3.5,0.1,4.4,4.3,-8.9,5.4,33.0,-33.7,63.599999999999994,16
748,12653.0,-0.7000000000000001,-2.7,5.5,6.800000000000001,-10.700000000000001,5.800000000000001,21.200000000000003,-96.80000000000001,58.3,16
749,12670.0,0.5,-3.2,5.6000000000000005,7.7,-10.600000000000001,5.0,24.400000000000002,-129.00000000000003,53.9,16
750,12687.0,2.0,-2.6,3.7,8.5,-9.700000000000001,2.7,41.0,-117.80000000000001,47.60000000000001,16
751,12703.0,2.2,-0.9,1.1,7.6000000000000005,-6.7,0.6000000000000001,55.400000000000006,-63.500000000000014,37.9,16
752,12720.0,1.5,1.0,0.1,6.4,-4.7,-0.1,62.800000000000004,23.6,28.900000000000002,16
753,12737.0,-1.1,4.800000000000001,-1.8,3.8000000000000003,-2.3000000000000003,-0.1,61.39999999999999,109.39999999999999,29.400000000000002,16
754,12754.0,-1.9000000000000001,5.5,-0.1,4.4,-2.7,1.1,54.0,179.0,45.400000000000006,16
755,12770.0,-1.3,5.1000000000000005,-0.6000000000000001,4.5,-3.1,-0.30000000000000004,51.50000000000001,183.80000000000004,57.00000000000001,16
756,12787.0,-1.2000000000000002,4.2,-3.5,4.800000000000001,-4.800000000000001,-2.2,38.300000000000004,141.3,48.6,16
757,12803.0,0.7000000000000001,1.7000000000000002,-4.7,7.0,-7.300000000000001,-2.1,7.400000000000001,105.60000000000002,37.0,16
758,12820.0,1.7000000000000002,0.6000000000000001,-4.2,7.6000000000000005,-8.0,-1.0,-24.900000000000002,91.10000000000001,17.7,16
759,12837.0,2.8000000000000003,-0.30000000000000004,-2.0,8.0,-7.9,0.9,-41.50000000000001,80.8,5.500000000000001,16
760,12853.0,2.8000000000000003,0.7000000000000001,-0.8,8.1,-6.9,1.0,-26.300000000000004,30.200000000000003,40.2,16
761,12871.0,3.1,1.2000000000000002,-1.0,8.4,-6.7,0.7000000000000001,-26.300000000000004,30.200000000000003,40.2,16
762,12887.0,3.9000000000000004,1.4000000000000001,-1.8,9.0,-7.0,-0.30000000000000004,-9.8,11.6,57.20000000000001,16
763,12903.0,4.4,0.9,-2.8000000000000003,9.600000000000001,-7.800000000000001,-1.0,18.6,23.099999999999998,46.300000000000004,16
764,12920.0,4.800000000000001,0.5,-3.2,10.200000000000001,-8.1,-1.0,18.6,23.099999999999998,46.300000000000004,16
765,12937.0,6.0,0.2,-2.7,11.100000000000001,-7.7,0.30000000000000004,17.200000000000003,25.1,32.5,16
766,12953.0,6.800000000000001,1.2000000000000002,-1.1,12.0,-6.6000000000000005,0.9,4.300000000000001,-44.9,13.000000000000002,16
767,12970.0,7.2,1.7000000000000002,-1.1,12.700000000000001,-6.2,0.1,4.300000000000001,-44.9,13.000000000000002,16
768,12987.0,8.700000000000001,2.2,-2.9000000000000004,14.600000000000001,-6.4,-1.9000000000000001,1.3,-67.10000000000001,0.6000000000000001,16
769,13003.0,10.3,0.7000000000000001,-4.6000000000000005,15.0,-8.6,-4.4,-45.9,-25.8,-63.599999999999994,16
770,13021.0,9.700000000000001,-0.4,-6.0,14.0,-9.4,-5.7,-45.9,-25.8,-63.599999999999994,16
771,13037.0,7.2,-2.1,-6.5,11.8,-10.9,-2.8000000000000003,-102.7,-12.100000000000001,-110.70000000000002,16
772,13053.0,4.2,-4.3,0.5,9.3,-13.200000000000001,3.7,-161.70000000000002,-104.4,-177.00000000000003,16
773,13070.0,2.7,-5.7,3.6,8.1,-14.200000000000001,5.7,-161.70000000000002,-104.4,-177.00000000000003,16
774,13088.0,0.5,-7.800000000000001,6.9,7.300000000000001,-16.3,5.5,-101.9,-144.10000000000002,-170.40000000000003,16
775,13105.0,-0.2,-10.9,4.6000000000000005,5.9,-19.5,3.3000000000000003,10.8,-68.60000000000001,-65.7,16
776,13120.0,-1.3,-12.4,3.8000000000000003,4.1000000000000005,-20.0,1.3,10.8,-68.60000000000001,-65.7,16
777,13137.0,-3.4000000000000004,-11.4,-1.6,3.8000000000000003,-15.9,-2.9000000000000004,17.200000000000003,43.1,6.500000000000001,16
778,13153.0,-4.0,-5.9,-1.3,2.2,-11.100000000000001,-0.5,-143.5,-54.1,0.2,16
779,13172.0,-4.9,-3.8000000000000003,0.7000000000000001,1.5,-9.4,0.9,-143.5,-54.1,0.2,16
780,13187.0,-6.5,-0.9,2.9000000000000004,-0.4,-6.4,3.2,-164.1,-16.3,-31.7,16
781,13203.0,-8.0,2.0,6.2,-0.30000000000000004,-3.7,6.0,-81.10000000000001,69.20000000000002,-48.2,16
782,13220.0,-7.6000000000000005,3.1,7.5,0.4,-2.8000000000000003,5.7,-81.10000000000001,69.20000000000002,-48.2,16
783,13236.0,-6.2,4.800000000000001,5.7,2.3000000000000003,-1.1,3.0,-18.5,24.599999999999998,-48.70000000000001,16
784,13253.0,-3.9000000000000004,5.9,3.2,3.5,-0.6000000000000001,1.7000000000000002,15.5,-59.00000000000001,-72.7,16
785,13272.0,-2.9000000000000004,6.300000000000001,2.1,5.300000000000001,0.4,0.1,15.5,-59.00000000000001,-72.7,16
786,13287.0,-3.0,6.800000000000001,2.1,2.5,1.1,1.5,10.600000000000001,-30.000000000000004,-95.1,16
787,13303.0,-6.9,6.4,3.7,0.1,-0.8,2.8000000000000003,29.700000000000006,12.100000000000001,-43.6,16
788,13320.0,-7.6000000000000005,4.9,4.1000000000000005,-0.1,-2.2,2.8000000000000003,29.700000000000006,12.100000000000001,-43.6,16
789,13337.0,-8.5,2.8000000000000003,4.1000000000000005,-2.0,-3.5,3.4000000000000004,47.60000000000001,0.4,3.4,16
790,13353.0,-10.100000000000001,2.0,4.800000000000001,-3.0,-4.800000000000001,4.2,79.8,-11.5,59.00000000000001,16
791,13370.0,-10.200000000000001,1.3,5.1000000000000005,-2.5,-5.9,3.6,79.8,-11.5,59.00000000000001,16
792,13386.0,-6.9,-1.1,2.2,3.5,-9.8,-6.4,89.5,-70.8,87.40000000000002,16
793,13404.0,8.5,-7.4,-28.400000000000002,40.400000000000006,-17.1,-36.4,-84.0,-205.7,30.4,16
794,13420.0,33.300000000000004,-10.700000000000001,-34.5,46.400000000000006,-18.5,-10.9,-84.0,-205.7,30.4,16
795,13437.0,22.8,-10.0,-2.2,16.8,-5.7,-4.2,-87.60000000000001,193.4,-259.1,16
796,13454.0,4.2,9.3,-2.9000000000000004,11.5,4.4,-3.9000000000000004,-18.1,47.80000000000001,-49.199999999999996,16
797,13471.0,3.0,9.600000000000001,-2.7,8.4,-1.7000000000000002,-1.1,-18.1,47.80000000000001,-49.199999999999996,16
798,13486.0,-4.2,0.1,1.7000000000000002,1.5,-7.1000000000000005,4.2,40.9,26.700000000000003,57.9,16
799,13504.0,-7.9,-3.7,9.5,0.2,-9.3,9.0,184.5,37.50000000000001,93.8,16
800,13520.0,-8.5,-6.300000000000001,10.600000000000001,0.2,-15.600000000000001,7.1000000000000005,184.5,37.50000000000001,93.8,16
801,13537.0,-7.1000000000000005,-13.0,-1.4000000000000001,6.7,-20.8,-5.0,173.4,11.6,136.7,16
802,13553.0,2.3000000000000003,-9.200000000000001,3.4000000000000004,9.700000000000001,-15.9,2.8000000000000003,-69.9,-70.0,43.00000000000001,16
803,13570.0,-2.4000000000000004,-3.4000000000000004,6.0,1.7000000000000002,-7.1000000000000005,2.1,-69.9,-70.0,43.00000000000001,16
804,13587.0,-6.7,0.5,-1.7000000000000002,-0.30000000000000004,-5.800000000000001,0.2,-8.5,72.80000000000001,11.2,16
805,13603.0,-7.4,1.2000000000000002,3.2,0.8,-6.0,4.6000000000000005,25.8,129.20000000000002,58.1,16
806,13620.0,-6.2,1.0,4.3,2.3000000000000003,-6.5,4.4,25.8,129.20000000000002,58.1,16
807,13637.0,-3.8000000000000003,0.1,3.5,3.5,-7.5,4.2,46.6,61.39999999999999,67.00000000000001,16
808,13654.0,-2.5,-1.0,4.0,5.1000000000000005,-8.9,4.7,53.0,-89.8,60.5,16
809,13670.0,-1.5,-1.6,4.3,6.0,-9.5,4.800000000000001,53.0,-89.8,60.5,16
810,13687.0,0.5,-2.5,4.0,7.7,-10.0,3.2,58.2,-144.9,63.500000000000014,16
811,13703.0,1.9000000000000001,-1.8,1.1,8.700000000000001,-7.800000000000001,-2.2,79.19999999999999,-87.89999999999999,59.5,16
812,13720.0,2.5,-0.1,-2.5,8.200000000000001,-5.5,-3.1,79.19999999999999,-87.89999999999999,59.5,16
813,13736.0,1.1,3.7,-2.1,6.1000000000000005,-3.2,0.7000000000000001,71.30000000000001,63.10000000000001,58.0,16
814,13753.0,0.1,4.5,-0.30000000000000004,4.9,-3.0,2.1,62.7,151.7,60.900000000000006,16
815,13770.0,-1.5,4.7,1.3,4.800000000000001,-3.5,2.4000000000000004,61.39999999999999,143.8,63.8,16
816,13787.0,-0.5,4.1000000000000005,-0.1,4.800000000000001,-4.0,0.7000000000000001,62.6,90.1,55.2,16
817,13803.0,-0.8,3.3000000000000003,-2.3000000000000003,5.1000000000000005,-5.6000000000000005,-1.5,43.50000000000001,16.8,11.1,16
818,13820.0,-0.4,2.2,-3.5,5.800000000000001,-6.9,-2.2,43.50000000000001,16.8,11.1,16
819,13837.0,1.1,0.0,-4.0,7.1000000000000005,-8.4,-0.5,15.5,52.900000000000006,2.9,16
820,13853.0,2.0,-0.6000000000000001,-1.1,7.2,-8.0,1.8,-30.5,106.0,20.900000000000002,16
821,13870.0,2.0,-0.1,-0.4,7.2,-7.4,1.9000000000000001,-30.5,106.0,20.900000000000002,16
822,13886.0,2.0,1.1,-1.0,7.0,-6.7,0.30000000000000004,-33.1,76.4,40.5,16
823,13903.0,2.6,1.3,-3.0,8.700000000000001,-7.4,-1.6,-27.0,81.10000000000001,59.5,16
824,13920.0,3.9000000000000004,0.8,-3.9000000000000004,10.4,-8.0,-1.7000000000000002,-27.0,81.10000000000001,59.5,16
825,13937.0,7.2,0.30000000000000004,-3.5,12.600000000000001,-7.5,-0.5,-27.099999999999998,114.70000000000002,44.6,16
826,13953.0,8.0,0.8,-2.9000000000000004,13.100000000000001,-6.800000000000001,-0.2,-33.400000000000006,108.8,24.900000000000002,16
827,13970.0,8.9,2.3000000000000003,-2.5,13.9,-5.4,-0.5,-40.5,56.50000000000001,13.000000000000002,16
828,13987.0,9.8,3.1,-3.3000000000000003,15.4,-5.800000000000001,-1.8,-37.400000000000006,1.3,4.5,16
829,14003.0,11.4,1.2000000000000002,-4.3,16.400000000000002,-7.0,-2.4000000000000004,-28.700000000000003,-53.0,-56.6,16
830,14020.0,10.8,0.2,-5.2,14.4,-8.4,-4.4,-28.700000000000003,-53.0,-56.6,16
831,14036.0,7.7,-0.9,-5.9,12.4,-9.5,-3.9000000000000004,-54.800000000000004,-63.70000000000001,-102.60000000000001,16
832,14053.0,5.1000000000000005,-2.9000000000000004,-2.8000000000000003,11.3,-10.600000000000001,-2.0,-119.39999999999999,-138.00000000000003,-168.4,16
833,14072.0,3.7,-4.6000000000000005,0.7000000000000001,9.3,-13.8,4.3,-119.39999999999999,-138.00000000000003,-168.4,16
834,14086.0,1.4000000000000001,-7.9,6.300000000000001,7.5,-16.2,6.2,-88.60000000000001,-177.9,-165.8,16
835,14103.0,0.0,-10.4,5.0,6.6000000000000005,-19.200000000000003,3.4000000000000004,11.8,-119.39999999999999,-63.4,16
836,14120.0,-0.5,-11.9,3.8000000000000003,5.7,-20.200000000000003,3.3000000000000003,11.8,-119.39999999999999,-63.4,16
837,14137.0,-2.6,-12.100000000000001,3.1,4.3,-17.7,1.0,27.2,71.5,-1.9,16
838,14155.0,-2.8000000000000003,-8.200000000000001,-0.1,3.1,-13.3,-0.5,-132.6,-4.800000000000001,-25.6,16
839,14171.0,-4.0,-6.0,-0.1,1.3,-11.200000000000001,0.7000000000000001,-132.6,-4.800000000000001,-25.6,16
840,14187.0,-7.4,-2.3000000000000003,3.2,-1.5,-7.6000000000000005,4.0,-198.4,-55.3,-69.10000000000001,16
841,14203.0,-8.8,-0.6000000000000001,5.2,-1.4000000000000001,-5.800000000000001,4.800000000000001,-184.3,-24.900000000000002,-72.30000000000001,16
842,14220.0,-7.800000000000001,2.4000000000000004,6.5,0.7000000000000001,-3.2,4.4,-110.2,5.2,-52.1,16
843,14237.0,-5.2,4.3,4.3,3.6,-1.8,1.5,-32.300000000000004,-12.4,-46.199999999999996,16
844,14253.0,-3.8000000000000003,4.800000000000001,2.9000000000000004,4.6000000000000005,-1.0,0.30000000000000004,9.700000000000001,-52.5,-59.40000000000001,16
845,14270.0,-2.3000000000000003,6.2,1.6,5.2,0.9,0.30000000000000004,18.1,-58.5,-84.80000000000001,16
846,14286.0,-3.6,8.0,2.5,2.7,2.6,2.0,17.6,-27.0,-104.10000000000001,16
847,14303.0,-5.1000000000000005,8.5,3.4000000000000004,1.8,2.0,2.7,37.400000000000006,3.4,-42.3,16
848,14320.0,-6.4,5.7,4.5,0.5,-1.8,3.1,37.400000000000006,3.4,-42.3,16
849,14336.0,-8.5,2.6,3.9000000000000004,-2.3000000000000003,-4.1000000000000005,2.8000000000000003,45.7,1.5,-0.6000000000000001,16
850,14353.0,-9.9,1.7000000000000002,3.9000000000000004,-4.0,-5.0,3.0,48.400000000000006,24.900000000000002,51.6,16
851,14370.0,-11.4,1.0,3.8000000000000003,-4.3,-5.6000000000000005,2.6,48.400000000000006,24.900000000000002,51.6,16
852,14387.0,-11.100000000000001,-0.2,2.8000000000000003,-2.4000000000000004,-8.0,-0.1,53.0,12.0,78.5,16
853,14404.0,-9.4,-1.6,0.8,1.2000000000000002,-10.600000000000001,-8.5,-17.0,-293.7,136.7,16
854,14421.0,9.9,-8.0,-32.6,43.6,-15.700000000000001,-36.6,-17.0,-293.7,136.7,16
855,14436.0,44.6,-9.9,-2.1,34.800000000000004,-13.8,-1.9000000000000001,-105.3,-123.9,-28.200000000000003,16
856,14454.0,26.8,-8.1,-0.5,16.0,-3.9000000000000004,-4.9,39.400000000000006,255.1,-331.2,16
857,14470.0,2.3000000000000003,10.600000000000001,-3.3000000000000003,8.6,4.2,-3.6,8.700000000000001,122.79999999999998,-233.0,16
858,14487.0,-2.7,3.6,0.0,2.1,-5.5,0.0,-39.699999999999996,45.7,8.600000000000001,16
859,14503.0,-6.1000000000000005,0.1,1.0,0.4,-8.5,3.0,77.20000000000002,94.2,84.6,16
860,14521.0,-8.200000000000001,-5.6000000000000005,9.0,-1.0,-14.700000000000001,8.200000000000001,77.20000000000002,94.2,84.6,16
861,14536.0,-8.5,-12.700000000000001,0.8,3.5,-22.900000000000002,-1.7000000000000002,145.7,57.800000000000004,114.2,16
862,14553.0,-3.9000000000000004,-16.3,-1.3,11.700000000000001,-20.1,5.6000000000000005,60.1,-71.5,145.8,16
863,14570.0,2.4000000000000004,-5.2,8.3,4.6000000000000005,-6.300000000000001,3.7,-12.600000000000001,-114.9,58.800000000000004,16
864,14587.0,-5.0,3.0,-1.3,1.0,-2.8000000000000003,-0.9,40.7,13.8,-22.6,16
865,14603.0,-6.4,3.8000000000000003,-0.8,0.1,-3.3000000000000003,1.6,36.6,105.0,-21.500000000000004,16
866,14620.0,-7.0,2.0,3.3000000000000003,1.4000000000000001,-6.4,4.4,17.400000000000002,104.50000000000001,21.500000000000004,16
867,14636.0,-4.1000000000000005,-1.0,4.2,4.4,-9.1,4.7,15.2,57.1,67.00000000000001,16
868,14653.0,-2.5,-2.0,4.3,5.4,-9.8,4.7,32.2,-35.699999999999996,78.9,16
869,14671.0,-0.9,-2.8000000000000003,4.0,6.2,-10.0,4.0,32.2,-35.699999999999996,78.9,16
870,14686.0,0.2,-2.5,3.0,6.7,-9.9,3.3000000000000003,45.099999999999994,-71.0,69.3,16
871,14704.0,0.8,-2.4000000000000004,1.6,8.3,-9.700000000000001,-1.5,55.60000000000001,-87.40000000000002,61.8,16
872,14720.0,2.2,-0.5,-2.8000000000000003,7.800000000000001,-6.2,-0.7000000000000001,52.5,-23.099999999999998,55.1,16
873,14736.0,0.6000000000000001,3.1,0.30000000000000004,5.800000000000001,-3.8000000000000003,2.7,42.400000000000006,71.5,60.8,16
874,14753.0,-0.30000000000000004,4.0,1.8,5.2,-3.4000000000000004,3.3000000000000003,43.300000000000004,96.0,73.8,16
875,14771.0,-1.0,4.6000000000000005,1.9000000000000001,4.6000000000000005,-3.5,2.7,57.9,63.4,78.4,16
876,14787.0,-1.0,4.1000000000000005,0.4,4.9,-4.3,1.1,76.3,29.700000000000006,69.00000000000001,16
877,14803.0,-0.6000000000000001,3.7,-0.6000000000000001,5.0,-4.800000000000001,0.30000000000000004,90.4,9.5,51.1,16
878,14820.0,-0.30000000000000004,2.3000000000000003,-2.6,5.7,-6.5,-1.9000000000000001,90.80000000000001,-7.500000000000001,33.300000000000004,16
879,14836.0,0.9,0.4,-4.7,6.800000000000001,-8.1,-2.3000000000000003,72.50000000000001,4.2,25.0,16
880,14854.0,1.4000000000000001,-0.2,-4.4,7.0,-8.0,-1.0,3.1,86.60000000000001,31.400000000000002,16
881,14871.0,1.8,0.6000000000000001,-2.1,6.7,-6.7,1.0,3.1,86.60000000000001,31.400000000000002,16
882,14886.0,1.6,1.9000000000000001,-1.0,6.6000000000000005,-6.1000000000000005,1.1,-17.9,83.60000000000001,44.8,16
883,14903.0,1.7000000000000002,2.0,-1.2000000000000002,7.1000000000000005,-6.4,0.4,-26.6,64.9,54.300000000000004,16
884,14920.0,3.3000000000000003,1.2000000000000002,-3.1,9.200000000000001,-7.6000000000000005,-1.9000000000000001,-28.0,63.0,53.10000000000001,16
885,14936.0,5.9,0.5,-4.5,11.5,-7.4,-1.8,-31.5,91.10000000000001,36.0,16
886,14954.0,7.5,1.6,-4.1000000000000005,12.5,-6.2,-2.1,-56.2,101.6,6.300000000000001,16
887,14971.0,8.0,2.2,-4.4,13.100000000000001,-5.800000000000001,-2.5,-56.2,101.6,6.300000000000001,16
888,14986.0,9.4,2.4000000000000004,-4.5,15.4,-7.0,-1.8,-72.80000000000001,68.2,1.0,16
889,15003.0,10.700000000000001,1.4000000000000001,-3.7,16.7,-8.200000000000001,-1.4000000000000001,-87.00000000000001,14.700000000000001,-14.5,16
890,15023.0,11.600000000000001,-0.6000000000000001,-3.7,15.5,-8.8,-3.0,-87.80000000000001,-47.7,-54.300000000000004,16
891,15036.0,8.6,-0.5,-4.0,13.0,-9.200000000000001,-2.5,-84.2,-73.7,-104.4,16
892,15053.0,7.2,-1.2000000000000002,-3.3000000000000003,12.100000000000001,-10.700000000000001,-0.5,-90.19999999999999,-101.80000000000001,-150.4,16
893,15072.0,4.5,-4.9,1.6,9.8,-14.0,3.7,-92.3,-157.70000000000002,-183.4,16
894,15087.0,1.7000000000000002,-7.7,5.7,8.200000000000001,-16.5,4.9,-64.80000000000001,-193.9,-184.9,16
895,15103.0,1.2000000000000002,-9.200000000000001,5.4,8.4,-18.5,3.7,-26.1,-186.8,-132.1,16
896,15120.0,1.0,-13.100000000000001,3.8000000000000003,6.6000000000000005,-21.0,4.1000000000000005,-0.6000000000000001,-71.0,-49.4,16
897,15137.0,-2.5,-12.0,3.0,3.4000000000000004,-16.8,0.2,8.2,108.39999999999999,6.0,16
898,15153.0,-3.6,-9.3,0.4,2.8000000000000003,-14.3,-0.5,-40.2,115.20000000000002,17.5,16
899,15170.0,-5.0,-4.5,0.5,1.6,-10.100000000000001,0.7000000000000001,-143.4,-49.0,-16.8,16
900,15186.0,-5.5,-2.8000000000000003,1.9000000000000001,0.8,-8.5,1.8,-188.5,-84.2,-51.4,16
901,15203.0,-7.2,0.0,4.6000000000000005,0.0,-5.800000000000001,4.5,-168.0,-38.60000000000001,-63.8,16
902,15220.0,-6.6000000000000005,2.3000000000000003,6.7,1.5,-3.6,4.0,-98.39999999999999,7.300000000000001,-54.699999999999996,16
903,15236.0,-4.9,4.1000000000000005,4.3,3.2,-1.8,1.8,-24.5,2.1,-51.300000000000004,16
904,15253.0,-4.1000000000000005,4.9,3.5,4.1000000000000005,-1.0,1.4000000000000001,17.300000000000004,-24.5,-59.300000000000004,16
905,15270.0,-2.9000000000000004,6.4,2.6,4.5,1.0,0.6000000000000001,30.799999999999997,-48.70000000000001,-77.20000000000002,16
906,15286.0,-4.0,8.0,2.4000000000000004,2.1,2.2,1.7000000000000002,34.7,-42.7,-94.10000000000001,16
907,15303.0,-5.6000000000000005,8.200000000000001,3.3000000000000003,0.9,1.4000000000000001,2.9000000000000004,38.300000000000004,-18.0,-88.60000000000001,16
908,15321.0,-7.5,5.800000000000001,5.0,-0.7000000000000001,-1.2000000000000002,3.5,51.300000000000004,-12.200000000000001,-48.9,16
909,15336.0,-9.5,3.7,4.6000000000000005,-3.1,-2.9000000000000004,3.5,68.3,-9.8,-13.100000000000001,16
910,15353.0,-10.600000000000001,3.0,4.6000000000000005,-3.9000000000000004,-3.5,4.0,76.1,1.4,14.300000000000002,16
911,15370.0,-11.600000000000001,1.8,5.5,-4.1000000000000005,-5.2,4.4,79.9,6.4,39.300000000000004,16
912,15386.0,-9.8,0.0,3.9000000000000004,-0.30000000000000004,-8.3,-0.1,91.10000000000001,-15.000000000000002,68.5,16
913,15403.0,-7.2,-1.8,0.8,3.7,-11.4,-10.4,94.0,-83.5,94.9,16
914,15420.0,14.100000000000001,-9.1,-35.2,44.400000000000006,-17.3,-32.6,14.200000000000001,-284.40000000000003,99.8,16
915,15437.0,37.4,-10.8,-30.6,46.400000000000006,-17.8,-6.2,-105.20000000000002,-98.60000000000001,-62.900000000000006,16
916,15453.0,20.6,-8.1,-2.3000000000000003,15.0,-3.1,-4.9,-11.6,259.8,-318.2,16
917,15470.0,2.9000000000000004,10.8,-3.5,8.9,4.1000000000000005,-3.9000000000000004,-13.000000000000002,112.7,-193.0,16
918,15488.0,-3.0,4.5,0.0,1.6,-4.1000000000000005,1.0,-13.3,39.8,9.4,16
919,15503.0,-6.6000000000000005,1.6,2.0,0.2,-6.9,4.4,43.70000000000001,50.0,70.2,16
920,15521.0,-7.9,-4.9,10.100000000000001,0.0,-15.200000000000001,10.8,116.69999999999999,76.3,80.8,16
921,15536.0,-7.2,-14.200000000000001,4.9,2.9000000000000004,-27.1,-6.2,175.79999999999998,54.50000000000001,109.50000000000001,16
922,15554.0,-4.5,-20.400000000000002,-5.7,12.0,-26.200000000000003,-0.4,88.20000000000002,-83.2,147.1,16
923,15571.0,2.3000000000000003,-9.600000000000001,7.800000000000001,4.3,-9.200000000000001,4.6000000000000005,-69.4,-148.3,88.10000000000001,16
924,15587.0,-5.1000000000000005,1.4000000000000001,-1.6,0.9,-3.8000000000000003,-2.3000000000000003,-2.3,35.0,10.200000000000001,16
925,15603.0,-6.300000000000001,3.2,-2.2,-0.8,-3.2,1.9000000000000001,20.8,153.4,0.4,16
926,15620.0,-8.0,3.4000000000000004,3.6,0.0,-4.7,4.0,14.400000000000002,156.3,27.700000000000003,16
927,15636.0,-5.300000000000001,1.2000000000000002,3.3000000000000003,3.0,-6.9,3.9000000000000004,19.700000000000003,90.9,62.1,16
928,15653.0,-3.8000000000000003,0.30000000000000004,3.4000000000000004,3.7,-7.9,4.1000000000000005,17.400000000000002,23.6,71.30000000000001,16
929,15670.0,-1.9000000000000001,-1.3,4.0,5.5,-9.4,4.800000000000001,14.300000000000002,-36.8,60.8,16
930,15686.0,-1.0,-2.0,4.5,6.1000000000000005,-10.100000000000001,4.9,21.200000000000003,-86.8,51.2,16
931,15703.0,0.8,-3.2,4.3,8.4,-11.0,3.7,36.7,-125.50000000000001,52.60000000000001,16
932,15720.0,2.8000000000000003,-2.4000000000000004,2.5,9.4,-7.800000000000001,-0.7000000000000001,53.10000000000001,-133.70000000000002,57.400000000000006,16
933,15736.0,2.9000000000000004,2.9000000000000004,-3.2,7.9,-3.0,-1.2000000000000002,66.1,-68.9,56.7,16
934,15753.0,1.9000000000000001,4.9,-1.8,6.7,-2.0,1.1,66.7,74.10000000000001,56.6,16
935,15771.0,-0.4,6.300000000000001,1.4000000000000001,4.800000000000001,-2.0,2.2,74.7,138.6,56.800000000000004,16
936,15786.0,-0.6000000000000001,5.5,0.30000000000000004,5.0,-2.8000000000000003,0.8,87.80000000000001,132.6,55.5,16
937,15806.0,-0.6000000000000001,5.1000000000000005,-1.0,4.6000000000000005,-3.4000000000000004,-1.2000000000000002,92.2,100.70000000000002,41.7,16
938,15820.0,-0.6000000000000001,3.1,-5.300000000000001,6.1000000000000005,-6.300000000000001,-3.6,75.8,73.2,21.500000000000004,16
939,15836.0,1.3,0.5,-4.6000000000000005,7.1000000000000005,-7.800000000000001,-0.8,32.6,90.4,4.800000000000001,16
940,15853.0,1.6,0.0,-3.0,7.300000000000001,-8.0,0.5,-14.400000000000002,94.2,-4.7,16
941,15870.0,1.9000000000000001,0.1,-0.8,7.1000000000000005,-7.300000000000001,1.5,-42.0,66.0,7.1000000000000005,16
942,15886.0,1.8,1.2000000000000002,-0.9,7.1000000000000005,-6.6000000000000005,0.4,-46.300000000000004,36.400000000000006,29.800000000000004,16
943,15903.0,1.9000000000000001,1.5,-1.7000000000000002,7.300000000000001,-6.7,-0.5,-38.0,23.0,48.6,16
944,15920.0,3.0,1.0,-3.0,9.0,-7.800000000000001,-0.8,-27.099999999999998,43.900000000000006,52.80000000000001,16
945,15936.0,4.1000000000000005,0.4,-2.9000000000000004,10.0,-8.200000000000001,-0.5,-19.799999999999997,73.10000000000001,44.4,16
946,15953.0,5.800000000000001,0.1,-2.2,11.0,-7.7,0.30000000000000004,-15.2,78.10000000000001,29.600000000000005,16
947,15973.0,6.9,1.2000000000000002,-1.6,12.8,-6.7,0.5,-13.399999999999999,50.8,22.9,16
948,15986.0,9.3,1.7000000000000002,-1.8,15.600000000000001,-7.1000000000000005,-0.4,-11.4,8.5,19.700000000000003,16
949,16003.0,10.600000000000001,1.2000000000000002,-2.5,17.0,-8.0,-1.6,-9.100000000000001,-26.5,3.1,16
950,16021.0,12.100000000000001,-0.6000000000000001,-4.9,15.9,-9.0,-4.2,-14.400000000000002,-31.5,-36.300000000000004,16
951,16036.0,9.1,-1.3,-7.1000000000000005,14.100000000000001,-9.9,-6.1000000000000005,-37.50000000000001,-15.299999999999999,-79.19999999999999,16
952,16053.0,8.3,-1.9000000000000001,-7.5,13.100000000000001,-10.3,-5.6000000000000005,-83.80000000000001,-14.800000000000002,-112.80000000000001,16
953,16070.0,5.1000000000000005,-3.2,-3.3000000000000003,9.700000000000001,-11.700000000000001,1.7000000000000002,-144.0,-58.3,-145.20000000000002,16
954,16086.0,1.2000000000000002,-5.2,4.7,6.9,-13.700000000000001,6.300000000000001,-156.9,-110.0,-160.4,16
955,16103.0,0.0,-6.4,6.4,6.9,-14.700000000000001,6.2,-105.10000000000001,-157.8,-143.2,16
956,16120.0,0.0,-8.5,5.4,6.7,-16.6,3.6,-34.60000000000001,-174.80000000000004,-94.10000000000001,16
957,16136.0,-1.2000000000000002,-9.8,3.5,4.7,-16.6,2.8000000000000003,14.700000000000001,-114.50000000000001,-43.6,16
958,16153.0,-2.3000000000000003,-9.3,3.1,4.1000000000000005,-15.5,-1.1,40.7,20.0,-3.3000000000000007,16
959,16170.0,-2.7,-6.9,-2.5,3.6,-12.600000000000001,-1.6,0.8,62.199999999999996,8.4,16
960,16186.0,-4.9,-3.6,1.4000000000000001,1.3,-9.5,1.3,-103.60000000000001,-15.8,-23.099999999999998,16
961,16204.0,-5.9,-2.3000000000000003,2.3000000000000003,0.1,-8.1,3.3000000000000003,-157.20000000000002,-29.800000000000004,-56.800000000000004,16
962,16220.0,-7.7,0.5,5.7,-0.2,-5.1000000000000005,5.4,-145.10000000000002,6.0,-64.50000000000001,16
963,16236.0,-7.5,1.7000000000000002,6.7,0.6000000000000001,-4.1000000000000005,5.9,-91.90000000000002,16.900000000000002,-57.1,16
964,16253.0,-5.800000000000001,3.7,6.2,2.6,-2.0,2.3000000000000003,-24.8,-10.4,-54.9,16
965,16273.0,-4.1000000000000005,5.4,1.9000000000000001,3.9000000000000004,-0.30000000000000004,-0.1,9.5,-53.400000000000006,-67.10000000000001,16
966,16286.0,-3.6,6.800000000000001,1.7000000000000002,3.7,1.3,0.7000000000000001,10.8,-51.70000000000001,-83.5,16
967,16303.0,-4.0,7.300000000000001,2.1,2.6,1.6,1.4000000000000001,7.200000000000001,-21.6,-91.7,16
968,16320.0,-6.5,6.7,3.3000000000000003,0.5,-0.6000000000000001,2.1,13.6,2.5,-74.7,16
969,16340.0,-7.9,3.5,3.2,-1.0,-3.4000000000000004,1.7000000000000002,29.700000000000006,7.500000000000001,-38.50000000000001,16
970,16353.0,-8.8,2.3000000000000003,2.9000000000000004,-2.0,-4.3,1.7000000000000002,45.2,2.9,-7.9,16
971,16371.0,-10.600000000000001,1.1,2.9000000000000004,-3.7,-5.300000000000001,2.1,51.6,6.4,15.8,16
972,16386.0,-11.200000000000001,0.1,3.0,-3.4000000000000004,-7.0,1.4000000000000001,53.9,12.4,41.0,16
973,16403.0,-10.600000000000001,-0.9,2.3000000000000003,-1.5,-8.9,-1.8,55.400000000000006,-15.6,76.4,16
974,16420.0,-3.1,-5.5,-11.3,20.700000000000003,-14.600000000000001,-33.2,40.6,-160.10000000000002,122.10000000000002,16
975,16436.0,14.0,-8.0,-31.0,41.0,-13.4,-26.700000000000003,-60.7,-326.00000000000006,108.50000000000001,16
976,16453.0,36.7,-6.9,-2.2,28.900000000000002,-10.9,-3.5,-38.60000000000001,95.60000000000002,-105.4,16
977,16470.0,6.800000000000001,1.9000000000000001,-2.7,10.9,2.8000000000000003,-4.1000000000000005,38.60000000000001,207.4,-275.8,16
978,16486.0,0.7000000000000001,7.800000000000001,-2.5,6.300000000000001,-3.2,-2.5,-17.300000000000004,63.2,-118.2,16
979,16503.0,-1.8,2.4000000000000004,-1.0,3.8000000000000003,-7.9,-1.6,-29.300000000000004,46.50000000000001,36.6,16
980,16520.0,-5.5,-5.9,1.2000000000000002,1.5,-14.200000000000001,3.7,18.900000000000002,87.50000000000001,54.800000000000004,16
981,16536.0,-7.1000000000000005,-9.700000000000001,5.1000000000000005,2.1,-19.700000000000003,-1.1,74.0,93.89999999999999,65.5,16
982,16553.0,-5.5,-13.3,-0.4,6.6000000000000005,-22.0,-0.8,88.00000000000001,5.1000000000000005,104.2,16
983,16571.0,4.0,-11.100000000000001,7.9,8.1,-9.8,8.5,-4.4,-79.8,96.5,16
984,16586.0,-4.7,2.0,5.300000000000001,0.6000000000000001,-2.1,0.7000000000000001,10.9,-34.900000000000006,11.3,16
985,16603.0,-6.9,4.5,1.2000000000000002,0.0,-1.3,0.6000000000000001,56.10000000000001,51.300000000000004,-8.5,16
986,16620.0,-7.300000000000001,4.800000000000001,2.6,0.9,-3.6,3.5,43.50000000000001,92.3,31.099999999999998,16
987,16637.0,-4.7,1.5,3.9000000000000004,3.9000000000000004,-7.0,3.8000000000000003,30.4,70.3,70.10000000000001,16
988,16654.0,-3.1,0.0,3.8000000000000003,5.300000000000001,-8.3,4.1000000000000005,22.700000000000003,20.599999999999998,83.89999999999999,16
989,16671.0,-0.4,-2.2,4.4,6.800000000000001,-10.200000000000001,4.2,18.5,-27.9,68.2,16
990,16686.0,0.0,-2.9000000000000004,4.3,7.0,-10.4,3.7,21.8,-76.2,49.50000000000001,16
991,16703.0,0.9,-3.1,3.0,8.4,-10.8,-1.0,30.599999999999998,-100.4,49.50000000000001,16
992,16720.0,2.8000000000000003,-2.6,-3.7,8.8,-7.7,-2.6,37.50000000000001,-44.2,57.49999999999999,16
993,16736.0,1.5,2.1,-0.9,6.9,-4.2,1.6,36.2,91.50000000000001,60.6,16
994,16753.0,0.7000000000000001,3.6,1.1,5.7,-3.2,3.1,36.8,153.20000000000002,70.8,16
995,16770.0,-1.7000000000000002,5.2,2.9000000000000004,3.3000000000000003,-2.8000000000000003,2.8000000000000003,50.3,113.1,77.5,16
996,16786.0,-2.5,5.2,1.7000000000000002,3.4000000000000004,-3.4000000000000004,1.9000000000000001,76.5,57.49999999999999,84.1,16
997,16803.0,-1.6,4.0,-0.30000000000000004,4.2,-4.4,0.5,97.00000000000001,30.599999999999998,78.4,16
998,16820.0,-1.2000000000000002,3.2,-1.3,4.4,-5.0,0.4,102.60000000000001,7.699999999999999,52.300000000000004,16
999,16836.0,-1.0,2.9000000000000004,-1.4000000000000001,4.800000000000001,-5.5,0.0,82.9,-37.50000000000001,18.200000000000003,16
1000,16853.0,0.1,1.6,-2.7,6.6000000000000005,-7.5,-1.7000000000000002,82.9,-37.50000000000001,18.200000000000003,16
1001,16870.0,2.2,-0.5,-3.9000000000000004,8.1,-8.8,-0.6000000000000001,53.2,4.5,11.5,16
1002,16886.0,2.7,-0.6000000000000001,-1.6,7.7,-7.800000000000001,1.3,-9.700000000000001,99.8,24.200000000000003,16
1003,16904.0,2.5,0.30000000000000004,-1.0,7.300000000000001,-7.0,1.4000000000000001,-9.700000000000001,99.8,24.200000000000003,16
1004,16920.0,1.9000000000000001,1.4000000000000001,-1.5,7.300000000000001,-7.0,-0.30000000000000004,-24.5,74.2,38.0,16
1005,16936.0,2.3000000000000003,1.2000000000000002,-2.6,8.200000000000001,-7.6000000000000005,-1.7000000000000002,-30.699999999999996,68.3,44.10000000000001,16
1006,16956.0,5.4,-0.4,-4.3,10.200000000000001,-8.6,-2.0,-56.10000000000001,108.7,24.0,16
1007,16973.0,5.800000000000001,-0.1,-3.1,10.9,-7.9,0.30000000000000004,-56.10000000000001,108.7,24.0,16
1008,16989.0,6.9,1.1,-1.2000000000000002,12.5,-6.7,0.7000000000000001,-70.10000000000001,4.9,19.200000000000003,16
1009,17003.0,7.800000000000001,1.7000000000000002,-1.2000000000000002,13.5,-6.4,0.2,-70.10000000000001,4.9,19.200000000000003,16
1010,17020.0,9.9,1.8,-2.1,16.2,-7.2,-0.9,-48.70000000000001,-21.6,9.5,16
1011,17036.0,12.0,0.6000000000000001,-3.6,16.3,-7.800000000000001,-4.2,-29.0,-36.8,-55.60000000000001,16
1012,17053.0,11.100000000000001,0.5,-5.7,15.100000000000001,-7.9,-6.1000000000000005,-29.0,-36.8,-55.60000000000001,16
1013,17070.0,8.6,-0.30000000000000004,-7.2,12.9,-9.200000000000001,-4.5,-65.2,-35.8,-95.80000000000001,16
1014,17086.0,6.9,-1.2000000000000002,-5.300000000000001,11.4,-10.4,-1.0,-117.1,-81.60000000000001,-138.50000000000003,16
1015,17103.0,3.4000000000000004,-4.2,2.5,8.3,-13.3,5.2,-130.9,-140.5,-170.40000000000003,16
1016,17120.0,0.4,-7.0,6.800000000000001,7.2,-15.700000000000001,5.9,-81.3,-183.5,-164.1,16
1017,17136.0,0.6000000000000001,-10.0,5.0,7.6000000000000005,-17.3,4.4,21.0,-93.89999999999999,-47.5,16
1018,17154.0,0.4,-11.600000000000001,4.2,6.1000000000000005,-19.400000000000002,3.7,21.0,-93.89999999999999,-47.5,16
1019,17170.0,-2.3000000000000003,-10.700000000000001,3.4000000000000004,3.9000000000000004,-15.700000000000001,0.1,35.5,75.9,3.7000000000000006,16
1020,17186.0,-3.0,-8.1,0.30000000000000004,3.3000000000000003,-13.3,-1.5,-8.5,105.60000000000002,14.600000000000001,16
1021,17203.0,-4.6000000000000005,-4.0,-0.6000000000000001,1.6,-10.100000000000001,0.4,-122.0,-26.400000000000006,-20.900000000000002,16
1022,17220.0,-6.5,-1.7000000000000002,2.8000000000000003,-0.4,-7.7,2.5,-183.5,-62.0,-57.400000000000006,16
1023,17236.0,-7.800000000000001,0.7000000000000001,5.2,-0.1,-5.0,4.9,-116.6,24.0,-59.699999999999996,16
1024,17253.0,-7.4,1.9000000000000001,6.5,0.8,-3.8000000000000003,4.9,-116.6,24.0,-59.699999999999996,16
1025,17270.0,-5.6000000000000005,3.9000000000000004,5.4,2.8000000000000003,-2.1,2.5,-39.8,17.0,-55.2,16
1026,17286.0,-3.8000000000000003,5.2,3.1,3.7,-1.3,1.5,28.400000000000002,-51.2,-79.6,16
1027,17303.0,-3.2,5.9,2.5,4.6000000000000005,0.4,0.6000000000000001,28.400000000000002,-51.2,-79.6,16
1028,17320.0,-3.4000000000000004,7.300000000000001,2.3000000000000003,3.2,1.8,1.0,31.099999999999998,-45.3,-96.0,16
1029,17337.0,-6.1000000000000005,7.5,3.3000000000000003,0.9,0.5,2.6,38.7,-6.0,-60.900000000000006,16
1030,17353.0,-6.1000000000000005,7.5,3.3000000000000003,0.9,0.5,2.6,38.7,-6.0,-60.900000000000006,16
1031,17370.0,-8.0,3.5,4.3,-1.5,-3.1,3.3000000000000003,52.7,-5.0,-22.700000000000003,16
1032,17387.0,-10.4,2.4000000000000004,4.9,-2.8000000000000003,-3.5,3.8000000000000003,77.20000000000002,-0.8,29.0,16
1033,17403.0,-11.100000000000001,2.1,5.300000000000001,-3.4000000000000004,-4.3,4.6000000000000005,77.20000000000002,-0.8,29.0,16
1034,17420.0,-10.200000000000001,1.0,5.0,-1.1,-6.300000000000001,2.0,92.0,-19.6,56.9,16
1035,17436.0,-8.200000000000001,-0.1,2.8000000000000003,1.8,-8.3,-2.4000000000000004,106.0,-69.9,86.1,16
1036,17453.0,0.5,-5.2,-14.5,27.200000000000003,-16.5,-41.800000000000004,80.4,-162.3,103.00000000000001,16
1037,17471.0,41.900000000000006,-13.4,-26.3,44.400000000000006,-20.3,-4.5,-89.8,-172.4,18.4,16
1038,17491.0,15.600000000000001,-8.0,-1.5,13.600000000000001,-1.2000000000000002,-3.5,-21.8,153.50000000000003,-285.1,16
1039,17503.0,5.1000000000000005,4.1000000000000005,-2.2,11.100000000000001,5.4,-4.3,-21.8,153.50000000000003,-285.1,16
1040,17521.0,0.30000000000000004,7.6000000000000005,-2.1,5.6000000000000005,-2.7,-1.5,-5.300000000000001,36.8,-42.0,16
1041,17536.0,-5.9,0.1,0.2,2.4000000000000004,-5.4,-0.8,92.7,45.8,71.5,16
1042,17553.0,-7.5,-2.2,3.2,-0.1,-10.9,8.4,92.7,45.8,71.5,16
1043,17570.0,-8.4,-7.2,11.3,0.6000000000000001,-15.600000000000001,6.9,139.9,31.9,92.10000000000001,16
1044,17586.0,-7.1000000000000005,-9.3,7.1000000000000005,1.9000000000000001,-18.6,-1.8,20.5,-127.19999999999999,130.3,16
1045,17603.0,1.6,-13.100000000000001,-4.1000000000000005,10.3,-14.8,1.9000000000000001,20.5,-127.19999999999999,130.3,16
1046,17620.0,-2.4000000000000004,-2.8000000000000003,4.6000000000000005,2.9000000000000004,-7.0,0.2,-62.0,-72.4,34.1,16
1047,17636.0,-5.1000000000000005,0.4,-1.8,2.4000000000000004,-6.300000000000001,-2.1,-6.9,160.0,0.9000000000000001,16
1048,17653.0,-6.4,1.1,0.7000000000000001,0.2,-5.0,3.6,-6.9,160.0,0.9000000000000001,16
1049,17670.0,-6.9,1.8,4.800000000000001,1.7000000000000002,-5.6000000000000005,4.7,9.0,142.50000000000003,36.0,16
1050,17686.0,-5.4,1.3,4.4,3.0,-6.1000000000000005,4.1000000000000005,25.4,71.0,70.8,16
1051,17703.0,-3.0,0.1,3.7,4.800000000000001,-8.0,4.2,26.5,-3.6000000000000005,77.20000000000002,16
1052,17720.0,-1.0,-1.6,4.0,6.4,-9.700000000000001,4.4,26.6,-55.3,68.4,16
1053,17737.0,-0.2,-2.4000000000000004,4.2,7.300000000000001,-10.4,4.4,34.400000000000006,-90.6,59.5,16
1054,17754.0,1.5,-3.0,3.8000000000000003,8.4,-9.9,2.8000000000000003,52.400000000000006,-110.9,55.900000000000006,16
1055,17770.0,2.2,-0.6000000000000001,0.4,8.5,-5.7,-1.6,75.3,-89.2,55.7,16
1056,17786.0,2.2,1.9000000000000001,-2.1,7.7,-3.9000000000000004,-1.3,88.60000000000001,-0.5,58.800000000000004,16
1057,17804.0,0.30000000000000004,4.800000000000001,-0.8,5.4,-2.6,1.2000000000000002,89.2,110.70000000000002,61.7,16
1058,17820.0,-1.1,4.9,0.30000000000000004,4.7,-3.1,1.8,89.4,135.4,61.7,16
1059,17837.0,-1.1,4.7,0.1,4.6000000000000005,-3.3000000000000003,1.3,89.30000000000001,104.9,53.400000000000006,16
1060,17853.0,-1.4000000000000001,4.1000000000000005,-1.6,4.5,-4.3,-0.9,85.30000000000001,54.1,33.7,16
1061,17874.0,-0.7000000000000001,2.2,-4.7,5.800000000000001,-6.9,-3.8000000000000003,68.3,32.300000000000004,15.100000000000001,16
1062,17886.0,0.2,0.8,-6.1000000000000005,6.5,-7.800000000000001,-3.1,31.6,64.2,2.9,16
1063,17903.0,1.1,-0.30000000000000004,-3.3000000000000003,6.5,-7.6000000000000005,1.1,-17.300000000000004,112.60000000000001,-0.1,16
1064,17920.0,0.8,1.0,-0.2,6.1000000000000005,-6.1000000000000005,2.5,-43.00000000000001,101.80000000000001,12.200000000000001,16
1065,17936.0,0.7000000000000001,1.8,0.1,6.5,-6.1000000000000005,2.3000000000000003,-43.6,63.10000000000001,30.699999999999996,16
1066,17953.0,1.9000000000000001,1.2000000000000002,-0.6000000000000001,7.9,-7.5,1.1,-30.9,35.0,44.10000000000001,16
1067,17972.0,3.6,-0.30000000000000004,-2.1,9.5,-9.0,-0.6000000000000001,-15.2,32.9,46.7,16
1068,17988.0,5.0,-1.4000000000000001,-3.7,10.4,-9.3,-0.9,-3.3000000000000007,81.0,31.2,16
1069,18003.0,5.5,-1.2000000000000002,-3.5,10.8,-8.6,0.0,-3.3000000000000007,81.0,31.2,16
1070,18020.0,6.6000000000000005,0.4,-1.6,12.200000000000001,-7.2,1.2000000000000002,-12.200000000000001,73.4,26.1,16
1071,18036.0,7.4,1.0,-1.3,12.9,-6.9,0.1,-19.700000000000003,23.800000000000004,22.4,16
1072,18053.0,8.5,1.3,-4.2,14.0,-7.4,-2.9000000000000004,-24.0,-11.8,14.400000000000002,16
1073,18072.0,9.700000000000001,0.2,-5.300000000000001,15.3,-8.8,-3.0,-37.800000000000004,9.2,0.2,16
1074,18086.0,10.200000000000001,-0.5,-5.1000000000000005,15.3,-8.9,-3.5,-63.30000000000001,19.799999999999997,-23.700000000000003,16
1075,18103.0,9.1,-0.30000000000000004,-7.1000000000000005,13.4,-8.200000000000001,-6.0,-96.30000000000001,0.7,-56.400000000000006,16
1076,18120.0,6.6000000000000005,-0.1,-5.6000000000000005,11.3,-8.5,-1.6,-138.20000000000002,-17.7,-92.8,16
1077,18136.0,5.300000000000001,-0.5,-2.4000000000000004,10.200000000000001,-9.4,1.6,-164.3,-65.0,-131.6,16
1078,18153.0,2.8000000000000003,-3.2,4.1000000000000005,8.5,-12.4,5.800000000000001,-140.4,-129.9,-161.3,16
1079,18170.0,1.0,-6.5,6.4,7.7,-15.200000000000001,5.2,-75.2,-185.4,-166.4,16
1080,18186.0,0.6000000000000001,-7.9,5.7,7.5,-16.6,4.0,-10.0,-197.5,-131.5,16
1081,18203.0,0.30000000000000004,-10.9,3.6,6.800000000000001,-18.7,3.1,27.800000000000004,-114.6,-61.199999999999996,16
1082,18220.0,-0.9,-10.100000000000001,1.0,6.4,-15.3,-2.0,37.9,48.70000000000001,3.6000000000000005,16
1083,18237.0,-0.7000000000000001,-7.9,-1.7000000000000002,5.1000000000000005,-12.9,-1.9000000000000001,-21.900000000000002,74.60000000000001,14.700000000000001,16
1084,18253.0,-3.8000000000000003,-3.8000000000000003,0.0,2.2,-9.8,0.8,-133.70000000000002,-20.900000000000002,-28.900000000000002,16
1085,18270.0,-6.5,-1.6,3.0,-0.7000000000000001,-7.2,4.0,-183.2,-32.5,-63.0,16
1086,18286.0,-8.0,-0.2,5.4,-0.7000000000000001,-5.6000000000000005,4.800000000000001,-167.79999999999998,11.6,-67.9,16
1087,18304.0,-7.2,2.3000000000000003,6.7,1.1,-3.4000000000000004,5.2,-102.5,38.2,-53.300000000000004,16
1088,18320.0,-5.1000000000000005,4.2,5.2,3.2,-1.6,1.8,-29.700000000000006,11.900000000000002,-53.9,16
1089,18336.0,-4.4,4.9,3.3000000000000003,3.4000000000000004,-0.7000000000000001,0.8,15.000000000000002,-40.800000000000004,-69.3,16
1090,18353.0,-4.0,6.300000000000001,1.8,3.6,0.8,0.5,24.400000000000002,-59.9,-84.69999999999999,16
1091,18370.0,-4.7,7.300000000000001,2.3000000000000003,2.0,1.3,1.3,22.6,-43.00000000000001,-88.3,16
1092,18386.0,-5.800000000000001,7.2,2.8000000000000003,1.1,0.30000000000000004,2.3000000000000003,24.8,-17.1,-74.2,16
1093,18403.0,-7.4,4.6000000000000005,4.2,-0.4,-2.3000000000000003,2.9000000000000004,34.60000000000001,-1.6,-44.4,16
1094,18420.0,-9.4,2.5,4.3,-2.6,-3.8000000000000003,3.2,49.699999999999996,2.1,-18.200000000000003,16
1095,18437.0,-10.4,2.0,4.4,-3.3000000000000003,-4.1000000000000005,3.3000000000000003,60.300000000000004,1.6,9.2,16
1096,18453.0,-11.0,1.6,4.2,-2.9000000000000004,-4.800000000000001,2.8000000000000003,67.10000000000001,-6.699999999999999,39.2,16
1097,18470.0,-8.8,0.5,2.6,0.8,-7.0,-1.2000000000000002,76.3,-24.3,70.7,16
1098,18488.0,-1.4000000000000001,-3.1,-9.4,19.8,-13.5,-32.4,1.3,-222.20000000000005,105.4,16
1099,18503.0,12.9,-7.0,-30.5,42.1,-16.1,-30.700000000000003,1.3,-222.20000000000005,105.4,16
1100,18521.0,40.2,-11.200000000000001,-5.1000000000000005,32.7,-13.4,-2.7,-107.8,-34.50000000000001,-56.50000000000001,16
1101,18536.0,24.400000000000002,-7.800000000000001,-1.2000000000000002,17.400000000000002,-3.0,-3.9000000000000004,-28.700000000000003,224.9,-299.70000000000005,16
1102,18553.0,4.7,9.4,-2.5,11.100000000000001,1.2000000000000002,-3.2,-12.7,79.39999999999999,-169.60000000000002,16
1103,18570.0,-0.1,0.0,-1.0,5.6000000000000005,-10.4,-1.5,6.9,17.1,19.1,16
1104,18586.0,-2.7,-4.800000000000001,-0.4,3.7,-14.5,1.1,60.5,25.200000000000003,55.60000000000001,16
1105,18603.0,-5.4,-10.600000000000001,5.7,3.1,-17.7,3.1,107.9,31.2,61.599999999999994,16
1106,18620.0,-3.2,-12.4,0.30000000000000004,6.6000000000000005,-15.4,2.2,108.50000000000001,-8.700000000000001,94.9,16
1107,18636.0,-1.2000000000000002,-9.0,3.0,4.3,-8.6,5.6000000000000005,19.200000000000003,-40.7,90.9,16
1108,18653.0,-7.800000000000001,2.5,5.2,-2.4000000000000004,-2.2,2.5,-7.400000000000001,-0.1,41.50000000000001,16
1109,18671.0,-10.5,4.5,1.9000000000000001,-2.4000000000000004,-3.4000000000000004,3.3000000000000003,12.0,83.89999999999999,50.3,16
1110,18686.0,-9.700000000000001,3.3000000000000003,3.4000000000000004,-1.1,-4.9,5.0,16.8,125.7,72.4,16
1111,18703.0,-7.0,0.6000000000000001,4.9,1.5,-7.7,4.6000000000000005,25.1,82.7,72.0,16
1112,18720.0,-4.1000000000000005,-2.1,4.2,4.1000000000000005,-10.5,4.5,31.7,23.099999999999998,60.2,16
1113,18737.0,-2.7,-3.4000000000000004,4.3,5.300000000000001,-11.5,4.5,34.800000000000004,-17.400000000000002,45.0,16
1114,18754.0,-0.5,-4.800000000000001,4.1000000000000005,7.2,-12.100000000000001,3.7,34.900000000000006,-46.199999999999996,36.7,16
1115,18771.0,1.8,-4.5,2.6,10.4,-10.8,-2.3000000000000003,30.200000000000003,-65.3,43.300000000000004,16
1116,18786.0,3.8000000000000003,-3.3000000000000003,-2.5,11.4,-8.4,-5.6000000000000005,18.8,-49.0,54.699999999999996,16
1117,18803.0,3.9000000000000004,1.6,-4.5,8.5,-4.0,-1.2000000000000002,-10.5,88.60000000000001,61.0,16
1118,18820.0,0.7000000000000001,5.1000000000000005,0.9,5.5,-1.7000000000000002,3.3000000000000003,-27.5,175.10000000000002,69.20000000000002,16
1119,18837.0,-0.6000000000000001,6.0,2.5,4.5,-1.6,3.7,-18.0,146.1,78.2,16
1120,18855.0,-1.7000000000000002,6.0,3.2,4.1000000000000005,-2.5,3.4000000000000004,13.8,69.60000000000001,86.1,16
1121,18878.0,-1.4000000000000001,4.7,0.8,4.2,-4.2,1.3,57.20000000000001,14.0,80.30000000000001,16
1122,18887.0,-1.4000000000000001,3.7,-0.1,5.0,-5.1000000000000005,1.0,93.3,-8.5,59.1,16
