,ms,accelX,accelY,accelZ,accelWithGX,accelWithGY,accelWithGZ,rotRateAlpha,rotRateBeta,rotRateGamma,interval
0,159.0,0.0,0.0,-0.9,-1.1,1.3,9.4,14.900000000000002,-1.2000000000000002,-1.2000000000000002,16
1,175.0,0.5,-0.1,-1.0,-0.7000000000000001,1.3,9.3,18.5,-8.2,2.0,16
2,194.0,0.6000000000000001,-0.1,-0.9,-0.7000000000000001,1.3,9.3,14.100000000000001,-15.399999999999999,1.4,16
3,209.0,0.8,-0.1,0.1,-0.4,1.3,9.9,8.2,-19.300000000000004,-1.5,16
4,225.0,0.7000000000000001,-0.4,0.7000000000000001,-0.2,0.9,11.0,3.2,-17.200000000000003,-4.4,16
5,242.0,0.6000000000000001,-0.4,0.8,-0.4,0.9,10.9,0.0,-12.7,-5.500000000000001,16
6,258.0,0.2,-0.4,0.5,-0.4,0.9,10.9,-3.1,-8.100000000000001,-6.0,16
7,278.0,-0.1,-0.6000000000000001,0.5,-1.0,0.5,10.600000000000001,-3.8,-2.9,-4.9,16
8,292.0,-0.2,-0.6000000000000001,0.2,-1.0,0.5,10.600000000000001,1.7,0.4,-1.7,16
9,309.0,-0.1,-0.5,-0.4,-0.9,0.6000000000000001,10.100000000000001,10.200000000000001,-4.300000000000001,2.7,16
10,325.0,0.30000000000000004,-0.2,-0.6000000000000001,-0.6000000000000001,0.8,9.8,18.6,-13.900000000000002,6.699999999999999,16
11,342.0,0.9,0.2,-0.5,0.7000000000000001,1.6,9.9,23.900000000000006,-23.6,7.1000000000000005,16
12,359.0,1.2000000000000002,0.30000000000000004,-0.4,0.7000000000000001,1.6,9.9,24.200000000000003,-27.9,3.2,16
13,375.0,1.3,0.30000000000000004,-0.2,1.0,1.7000000000000002,10.100000000000001,21.0,-24.3,-3.7000000000000006,16
14,392.0,1.2000000000000002,-0.1,-0.1,0.9,1.3,10.0,16.900000000000002,-15.5,-10.4,16
15,415.0,1.0,-0.4,-0.1,0.9,1.1,10.200000000000001,14.400000000000002,-8.600000000000001,-14.800000000000002,16
16,426.0,0.9,-0.5,0.0,0.9,1.1,10.200000000000001,14.300000000000002,-4.9,-16.900000000000002,16
17,445.0,0.6000000000000001,-0.6000000000000001,0.0,0.7000000000000001,1.0,10.3,16.200000000000003,-4.2,-17.400000000000002,16
18,459.0,0.4,-0.7000000000000001,0.0,0.4,0.9,10.200000000000001,18.0,-4.0,-17.5,16
19,498.0,0.0,-0.6000000000000001,-0.9,0.0,1.1,9.200000000000001,20.3,2.1,-12.0,16
20,508.0,0.0,-0.4,-1.2000000000000002,0.0,1.4000000000000001,8.700000000000001,20.3,2.1,-12.0,16
21,529.0,0.0,-0.1,-1.6,-0.1,1.7000000000000002,8.4,20.2,1.2000000000000002,-10.4,16
22,543.0,-0.1,0.0,-1.7000000000000002,-0.1,1.7000000000000002,8.4,19.6,-1.8000000000000003,-9.899999999999999,16
23,558.0,-0.1,0.1,-1.3,-0.1,1.9000000000000001,8.5,19.400000000000002,-3.5,-10.0,16
24,575.0,-0.2,0.1,-1.4000000000000001,-0.1,2.1,8.5,19.6,-1.4,-9.8,16
25,592.0,-0.1,0.1,-1.3,-0.1,2.1,8.5,18.3,1.1,-8.100000000000001,16
26,609.0,0.0,0.4,-1.2000000000000002,-0.1,2.4000000000000004,8.6,17.1,4.5,-7.8,16
27,625.0,-0.1,0.4,-1.4000000000000001,-0.30000000000000004,2.5,8.3,15.899999999999999,6.9,-8.8,16
28,642.0,-0.2,0.4,-1.4000000000000001,-0.30000000000000004,2.5,8.3,13.3,7.0,-9.5,16
29,658.0,-0.2,0.30000000000000004,-1.4000000000000001,-0.4,2.5,8.200000000000001,10.1,7.699999999999999,-9.2,16
30,675.0,-0.2,0.30000000000000004,-1.1,-0.4,2.5,8.3,6.4,7.400000000000001,-8.100000000000001,16
31,693.0,-0.30000000000000004,0.30000000000000004,-0.9,-0.5,2.6,8.6,4.1,8.4,-6.4,16
32,708.0,-0.2,0.4,-0.9,-0.5,2.6,8.6,3.0,9.5,-3.5,16
33,725.0,-0.2,0.6000000000000001,-0.9,-0.4,2.8000000000000003,8.6,2.6,8.100000000000001,-2.0,16
34,742.0,-0.1,0.7000000000000001,-0.5,-0.4,2.9000000000000004,9.3,2.3,5.7,-1.8000000000000003,16
35,759.0,-0.1,0.6000000000000001,-0.1,-0.4,2.9000000000000004,9.3,1.6,5.8,-2.3,16
36,775.0,-0.1,0.5,0.5,-0.5,2.8000000000000003,9.9,2.1,11.700000000000001,-2.1,16
37,792.0,-0.4,0.30000000000000004,0.6000000000000001,-0.7000000000000001,2.7,10.0,4.7,18.0,-1.0,16
38,808.0,-0.9,0.0,0.8,-1.6,2.2,10.200000000000001,9.4,18.3,1.9,16
39,825.0,-1.1,-0.2,0.7000000000000001,-1.6,2.2,10.200000000000001,16.3,15.8,8.0,16
40,842.0,-0.9,-0.30000000000000004,0.5,-1.6,2.1,10.100000000000001,23.0,9.3,15.700000000000001,16
41,858.0,-0.5,-0.2,0.4,-1.0,2.3000000000000003,9.9,26.300000000000004,4.2,20.8,16
42,875.0,0.1,-0.2,0.2,-0.5,2.4000000000000004,9.700000000000001,23.6,3.0,22.3,16
43,893.0,0.4,-0.30000000000000004,0.4,-0.2,2.4000000000000004,9.8,15.8,6.500000000000001,22.3,16
44,909.0,0.8,-0.5,0.1,0.0,2.3000000000000003,9.700000000000001,5.8,9.700000000000001,20.7,16
45,926.0,-0.2,-0.1,1.3,-0.30000000000000004,2.6,10.9,-4.1,3.7000000000000006,17.799999999999997,16
46,945.0,0.7000000000000001,-0.1,1.5,0.0,2.5,11.100000000000001,-10.0,1.9,12.4,16
47,961.0,0.4,-0.2,1.7000000000000002,0.0,2.5,11.100000000000001,-10.0,1.9,12.4,16
48,979.0,-0.2,-0.7000000000000001,1.6,-1.0,1.6,10.9,-9.5,3.6000000000000005,8.899999999999999,16
49,992.0,-0.6000000000000001,-1.0,0.9,-1.1,1.5,10.600000000000001,-8.100000000000001,6.8,10.4,16
50,1010.0,-0.5,-0.9,0.9,-1.1,1.5,10.600000000000001,-5.2,0.4,15.100000000000001,16
51,1025.0,0.0,-0.6000000000000001,1.0,-0.7000000000000001,1.8,10.700000000000001,1.1,-6.1000000000000005,18.1,16
52,1042.0,0.1,-0.7000000000000001,0.4,-0.4,1.8,9.700000000000001,8.0,-2.2,17.300000000000004,16
53,1059.0,0.1,-0.7000000000000001,-0.1,-0.4,1.8,9.700000000000001,13.200000000000003,7.400000000000001,14.600000000000001,16
54,1075.0,-0.30000000000000004,-0.6000000000000001,-1.2000000000000002,-0.7000000000000001,1.9000000000000001,8.700000000000001,12.5,6.600000000000001,12.100000000000001,16
55,1092.0,-0.1,-0.6000000000000001,-0.9,-0.4,1.8,9.1,3.3000000000000007,-5.9,11.6,16
56,1109.0,0.2,-0.7000000000000001,0.0,-0.30000000000000004,1.8,9.9,-6.600000000000001,-11.8,10.0,16
57,1125.0,0.1,-0.7000000000000001,0.4,-0.30000000000000004,1.8,9.9,-11.5,-13.900000000000002,7.300000000000001,16
58,1142.0,0.0,-0.8,1.0,-0.4,1.7000000000000002,10.5,-10.700000000000001,-14.400000000000002,5.8,16
59,1159.0,-0.2,-1.0,1.1,-0.5,1.4000000000000001,10.600000000000001,-5.9,-12.5,5.8,16
60,1175.0,-0.2,-1.0,0.9,-0.5,1.4000000000000001,10.600000000000001,0.9000000000000001,-6.0,6.500000000000001,16
61,1192.0,-0.4,-1.1,0.0,-0.7000000000000001,1.3,10.0,7.300000000000001,1.4,8.100000000000001,16
62,1208.0,-0.4,-0.9,-0.9,-0.6000000000000001,1.6,8.5,11.700000000000001,1.2000000000000002,11.5,16
63,1225.0,-0.30000000000000004,-0.8,-1.2000000000000002,-0.6000000000000001,1.6,8.5,13.700000000000001,-2.3,13.900000000000002,16
64,1242.0,0.0,-0.5,-1.7000000000000002,-0.4,1.9000000000000001,8.0,14.300000000000002,-4.4,14.400000000000002,16
65,1258.0,0.0,-0.4,-2.0,-0.2,2.2,7.5,13.000000000000002,-5.0,13.6,16
66,1275.0,0.0,-0.30000000000000004,-1.9000000000000001,-0.30000000000000004,2.2,7.7,10.600000000000001,-6.0,12.7,16
67,1294.0,-0.2,-0.30000000000000004,-1.8,-0.4,2.2,7.7,7.1000000000000005,-3.4,11.8,16
68,1311.0,-0.30000000000000004,-0.30000000000000004,-1.7000000000000002,-0.4,2.2,7.7,7.1000000000000005,-3.4,11.8,16
69,1326.0,-0.1,-0.2,-1.5,-0.2,2.5,8.1,6.500000000000001,-5.0,12.200000000000001,16
70,1342.0,0.0,-0.1,-1.4000000000000001,-0.2,2.5,8.1,6.4,-6.500000000000001,11.1,16
71,1358.0,0.0,0.0,-1.2000000000000002,-0.1,2.6,8.200000000000001,6.4,-4.9,8.4,16
72,1375.0,-0.1,-0.1,-1.2000000000000002,-0.4,2.5,8.3,5.7,-1.1,5.6,16
73,1392.0,-0.30000000000000004,-0.1,-1.1,-0.4,2.5,8.3,4.4,0.9000000000000001,3.5,16
74,1409.0,-0.5,-0.2,-0.9,-0.6000000000000001,2.5,8.5,3.2,1.3,2.1,16
75,1425.0,-0.5,-0.30000000000000004,-0.30000000000000004,-0.6000000000000001,2.4000000000000004,8.8,1.8000000000000003,-2.8,2.3,16
76,1442.0,0.1,-0.2,0.4,0.30000000000000004,2.5,10.0,1.2000000000000002,-7.1000000000000005,2.2,16
77,1458.0,0.5,-0.2,0.7000000000000001,0.30000000000000004,2.5,10.0,1.8000000000000003,-8.4,-0.5,16
78,1475.0,0.8,-0.2,0.6000000000000001,0.7000000000000001,2.5,10.0,2.3,-6.8,-6.1000000000000005,16
79,1494.0,0.6000000000000001,-0.2,0.5,0.5,2.3000000000000003,9.9,-0.4,-7.500000000000001,-13.6,16
80,1509.0,0.5,-0.5,0.8,0.4,2.0,10.4,-6.8,-9.600000000000001,-20.1,16
81,1525.0,0.5,-0.6000000000000001,1.1,0.4,2.0,10.4,-15.899999999999999,-8.700000000000001,-24.400000000000002,16
82,1542.0,0.1,-0.9,1.4000000000000001,0.2,1.7000000000000002,10.700000000000001,-25.0,-6.500000000000001,-25.8,16
83,1558.0,-0.1,-0.9,2.3000000000000003,-0.1,1.5,11.200000000000001,-31.0,-11.700000000000001,-23.2,16
84,1575.0,-0.1,-0.8,3.0,0.0,1.5,12.4,-30.1,-20.1,-20.0,16
85,1592.0,0.2,-0.5,4.2,0.2,1.7000000000000002,13.5,-22.6,-21.400000000000002,-18.200000000000003,16
86,1608.0,0.1,-0.7000000000000001,4.5,0.2,1.5,14.0,-11.6,-6.8,-17.5,16
87,1625.0,-0.1,-0.9,3.2,-0.1,1.3,12.9,-1.8000000000000003,15.6,-15.299999999999999,16
88,1642.0,-0.4,-0.9,0.9,-0.4,1.3,11.0,4.300000000000001,30.9,-11.5,16
89,1659.0,-0.5,-0.7000000000000001,-0.7000000000000001,-0.6000000000000001,1.4000000000000001,9.4,7.0,27.800000000000004,-6.300000000000001,16
90,1675.0,-0.2,-0.4,-0.4,0.0,2.0,10.0,8.2,7.300000000000001,-1.1,16
91,1692.0,0.2,-0.2,0.5,0.0,2.0,10.0,10.9,-15.2,3.4,16
92,1708.0,1.3,0.2,2.0,1.0,2.4000000000000004,11.4,16.200000000000003,-22.5,5.1000000000000005,16
93,1725.0,1.7000000000000002,0.6000000000000001,1.8,1.6,2.9000000000000004,11.100000000000001,19.700000000000003,-12.0,2.2,16
94,1743.0,1.3,0.2,0.8,1.1,2.5,9.8,19.700000000000003,4.1,-3.7000000000000006,16
95,1759.0,1.1,0.0,-0.2,1.1,2.5,9.8,18.6,21.8,-9.600000000000001,16
96,1775.0,0.7000000000000001,-0.1,-2.3000000000000003,0.6000000000000001,2.4000000000000004,8.0,16.8,31.6,-13.700000000000001,16
97,1792.0,0.6000000000000001,0.1,-3.5,0.1,2.8000000000000003,6.0,14.100000000000001,27.5,-18.700000000000003,16
98,1808.0,0.30000000000000004,0.2,-3.5,0.1,2.8000000000000003,6.0,11.3,17.300000000000004,-24.200000000000003,16
99,1825.0,-0.4,0.1,-2.9000000000000004,-0.5,2.8000000000000003,6.5,7.8,12.4,-26.200000000000003,16
100,1842.0,-0.7000000000000001,-0.4,-2.2,-1.2000000000000002,2.0,7.4,5.0,18.8,-19.300000000000004,16
101,1858.0,-0.6000000000000001,-0.6000000000000001,-2.0,-1.2000000000000002,2.0,7.4,4.300000000000001,31.5,-6.9,16
102,1876.0,-0.5,-1.0,-2.0,-1.2000000000000002,1.7000000000000002,7.5,5.0,46.6,7.500000000000001,16
103,1892.0,-0.5,-1.2000000000000002,-2.4000000000000004,-1.2000000000000002,1.6,7.2,5.9,56.800000000000004,22.6,16
104,1909.0,-0.2,-0.7000000000000001,-3.0,0.1,4.0,6.4,5.500000000000001,55.5,40.300000000000004,16
105,1925.0,1.3,1.6,-2.9000000000000004,0.1,4.0,6.4,2.8,50.0,47.3,16
106,1942.0,1.7000000000000002,2.5,-3.0,0.6000000000000001,5.1000000000000005,6.300000000000001,2.5,38.400000000000006,35.0,16
107,1958.0,1.2000000000000002,1.5,-2.2,-0.5,3.7,8.0,0.8,15.299999999999999,12.5,16
108,1975.0,0.6000000000000001,0.9,-1.1,-0.5,3.7,8.0,-8.899999999999999,10.0,0.2,16
109,1991.0,-0.1,0.2,0.6000000000000001,-1.2000000000000002,2.9000000000000004,9.5,-16.8,21.300000000000004,3.2,16
110,2008.0,0.1,0.7000000000000001,0.9,-1.1,3.2,10.100000000000001,-15.399999999999999,29.900000000000006,7.699999999999999,16
111,2030.0,0.30000000000000004,0.7000000000000001,0.8,-1.0,3.2,9.9,-8.2,27.700000000000003,8.2,16
112,2042.0,0.4,0.5,0.5,-1.0,3.2,9.9,-1.0,22.9,8.0,16
113,2058.0,0.30000000000000004,0.6000000000000001,0.1,-1.1,3.2,9.5,1.8000000000000003,15.8,8.0,16
114,2075.0,0.5,0.7000000000000001,0.5,-0.9,3.2,10.200000000000001,-0.5,5.1000000000000005,5.8,16
115,2092.0,0.5,0.5,1.0,-0.9,3.2,10.200000000000001,-6.600000000000001,0.4,1.0,16
116,2109.0,0.2,0.2,1.3,-1.1,2.9000000000000004,10.600000000000001,-15.2,2.0,-4.5,16
117,2125.0,-0.4,-0.2,1.7000000000000002,-1.6,2.4000000000000004,10.8,-29.200000000000003,7.300000000000001,-7.6,16
118,2143.0,-0.7000000000000001,-0.4,2.9000000000000004,-2.2,1.7000000000000002,12.8,-40.800000000000004,10.1,-7.300000000000001,16
119,2159.0,-0.7000000000000001,-0.6000000000000001,3.6,-2.2,1.7000000000000002,12.8,-39.0,3.3000000000000007,-5.500000000000001,16
120,2176.0,-1.0,-1.2000000000000002,4.2,-2.4000000000000004,1.2000000000000002,13.600000000000001,-24.599999999999998,-12.200000000000001,-1.4,16
121,2194.0,-1.6,-1.6,3.9000000000000004,-2.9000000000000004,0.6000000000000001,13.700000000000001,-8.5,-25.6,7.300000000000001,16
122,2209.0,-1.6,-1.5,4.1000000000000005,-2.9000000000000004,0.6000000000000001,13.700000000000001,2.0,-30.599999999999998,21.900000000000002,16
123,2227.0,-0.1,-1.6,3.3000000000000003,-1.6,0.6000000000000001,13.100000000000001,10.5,-21.0,32.400000000000006,16
124,2243.0,0.2,-1.3,1.6,-1.0,0.8,11.9,17.0,-7.1000000000000005,32.1,16
125,2259.0,0.2,-0.6000000000000001,-0.2,-0.7000000000000001,1.8,9.1,16.700000000000003,0.7,30.200000000000003,16
126,2275.0,0.5,-0.5,-0.6000000000000001,-0.7000000000000001,1.8,9.1,10.9,-1.5,27.400000000000002,16
127,2294.0,0.4,-0.5,-0.7000000000000001,-0.6000000000000001,1.9000000000000001,8.8,5.8,-7.9,21.400000000000002,16
128,2309.0,0.0,-0.8,-0.4,-1.0,1.6,9.3,3.9,-14.100000000000001,18.3,16
129,2325.0,0.0,-0.8,-0.30000000000000004,-1.0,1.6,9.3,5.300000000000001,-18.3,18.900000000000002,16
130,2342.0,0.1,-0.7000000000000001,-0.30000000000000004,-0.8,1.7000000000000002,9.3,9.5,-22.700000000000003,20.0,16
131,2358.0,0.4,-0.6000000000000001,-0.30000000000000004,-0.5,1.8,9.3,13.8,-25.7,19.9,16
132,2375.0,0.5,-0.6000000000000001,-0.7000000000000001,-0.1,2.0,8.6,17.5,-23.900000000000006,18.5,16
133,2392.0,0.5,-0.6000000000000001,-1.1,-0.1,2.0,8.6,20.400000000000002,-20.400000000000002,16.0,16
134,2408.0,0.5,-1.0,-1.6,-0.1,1.8,8.0,21.500000000000004,-17.5,14.200000000000001,16
135,2425.0,0.5,-0.7000000000000001,-2.5,-0.1,2.2,6.9,22.2,-12.600000000000001,14.600000000000001,16
136,2442.0,0.4,-0.6000000000000001,-2.5,-0.1,2.2,6.9,20.2,-10.9,14.5,16
137,2458.0,0.6000000000000001,-0.4,-2.7,0.2,2.4000000000000004,6.800000000000001,19.300000000000004,-12.299999999999999,12.299999999999999,16
138,2475.0,0.4,-0.4,-2.6,-0.1,2.5,6.7,18.200000000000003,-16.3,9.100000000000001,16
139,2492.0,0.30000000000000004,-0.30000000000000004,-2.7,-0.1,2.5,6.7,15.700000000000001,-19.300000000000004,6.4,16
140,2509.0,0.2,0.0,-2.6,0.0,2.8000000000000003,6.7,10.700000000000001,-23.3,2.8,16
141,2528.0,0.1,0.1,-1.9000000000000001,0.0,3.0,7.2,3.9,-27.9,-2.1,16
142,2543.0,-0.1,0.0,-0.7000000000000001,-0.4,2.8000000000000003,9.1,-1.1,-27.6,-6.500000000000001,16
143,2563.0,-0.5,-0.30000000000000004,0.30000000000000004,-0.5,2.6,9.8,-1.8000000000000003,-22.2,-8.899999999999999,16
144,2575.0,-0.5,-0.30000000000000004,0.6000000000000001,-0.5,2.6,9.8,0.9000000000000001,-10.5,-8.5,16
145,2592.0,-0.5,-0.1,0.0,-0.7000000000000001,2.9000000000000004,8.700000000000001,5.300000000000001,1.5,-7.8,16
146,2611.0,-0.7000000000000001,0.0,-1.2000000000000002,-0.7000000000000001,3.0,7.9,7.0,5.2,-9.5,16
147,2625.0,-0.6000000000000001,0.0,-1.5,-0.7000000000000001,3.0,7.9,1.6,1.9,-11.3,16
148,2642.0,-0.5,-0.2,-1.1,-0.6000000000000001,2.8000000000000003,8.0,-8.0,-6.0,-12.8,16
149,2658.0,-0.4,-0.30000000000000004,-0.5,-0.5,2.5,8.9,-16.1,-15.000000000000002,-13.200000000000003,16
150,2676.0,-0.1,-0.4,1.0,-0.2,2.4000000000000004,10.200000000000001,-21.6,-20.599999999999998,-13.3,16
151,2694.0,0.7000000000000001,-0.6000000000000001,2.2,0.5,2.2,11.3,-25.6,-16.6,-14.300000000000002,16
152,2710.0,0.7000000000000001,-0.4,2.3000000000000003,0.7000000000000001,2.3000000000000003,11.600000000000001,-29.0,-7.500000000000001,-15.8,16
153,2725.0,0.6000000000000001,-0.30000000000000004,2.1,0.6000000000000001,2.2,11.8,-32.5,-3.4,-14.900000000000002,16
154,2742.0,0.6000000000000001,-0.30000000000000004,2.4000000000000004,0.6000000000000001,2.2,11.8,-33.300000000000004,-11.000000000000002,-14.600000000000001,16
155,2758.0,0.2,-0.2,3.8000000000000003,0.5,2.2,12.8,-30.000000000000004,-22.4,-14.300000000000002,16
156,2775.0,0.2,-0.5,4.9,0.30000000000000004,1.6,14.4,-23.099999999999998,-21.7,-11.900000000000002,16
157,2794.0,0.1,-0.7000000000000001,4.7,0.30000000000000004,1.6,14.4,-13.6,-6.1000000000000005,-8.2,16
158,2809.0,0.0,-1.0,2.7,0.1,1.3,12.9,-4.2,14.300000000000002,-2.7,16
159,2827.0,-0.1,-0.8,0.5,0.2,1.7000000000000002,9.4,2.6,21.200000000000003,4.5,16
160,2843.0,0.5,-0.30000000000000004,-0.6000000000000001,0.9,2.2,9.0,8.100000000000001,9.700000000000001,11.6,16
161,2860.0,0.9,0.0,-0.6000000000000001,0.9,2.2,9.0,12.8,-12.200000000000001,15.000000000000002,16
162,2876.0,1.5,0.5,0.30000000000000004,1.6,2.7,9.600000000000001,15.399999999999999,-26.400000000000006,12.100000000000001,16
163,2893.0,1.6,0.6000000000000001,0.5,1.8,3.1,9.8,15.2,-22.700000000000003,4.4,16
164,2911.0,1.3,0.5,-0.1,1.4000000000000001,3.0,9.200000000000001,12.7,-9.0,-5.8,16
165,2927.0,1.0,0.4,-0.7000000000000001,1.4000000000000001,3.0,9.200000000000001,9.2,7.9,-15.899999999999999,16
166,2944.0,1.1,0.2,-1.8,1.3,2.6,7.4,6.699999999999999,20.7,-23.099999999999998,16
167,2959.0,1.2000000000000002,0.0,-2.2,1.3,2.6,7.4,7.699999999999999,23.700000000000003,-31.799999999999997,16
168,2975.0,1.3,-0.2,-2.9000000000000004,1.3,2.4000000000000004,6.7,12.0,20.3,-42.1,16
169,2992.0,0.4,-0.30000000000000004,-3.3000000000000003,0.8,2.3000000000000003,6.300000000000001,16.0,18.0,-51.0,16
170,3008.0,-0.6000000000000001,-0.2,-3.8000000000000003,-1.2000000000000002,2.5,5.5,15.8,25.1,-49.800000000000004,16
171,3026.0,-1.0,-0.1,-3.9000000000000004,-1.2000000000000002,2.5,5.5,10.700000000000001,31.7,-38.400000000000006,16
172,3042.0,-1.2000000000000002,-0.2,-4.1000000000000005,-1.6,2.5,5.300000000000001,2.3,38.2,-20.900000000000002,16
173,3059.0,-0.2,0.2,-3.3000000000000003,-0.4,3.3000000000000003,7.2,-5.1000000000000005,36.400000000000006,-5.2,16
174,3075.0,0.2,0.7000000000000001,-2.1,-0.4,3.3000000000000003,7.2,-2.1,17.9,-1.3,16
175,3093.0,1.1,1.4000000000000001,-0.6000000000000001,0.4,3.9000000000000004,8.5,8.899999999999999,4.7,-6.300000000000001,16
176,3109.0,1.0,1.2000000000000002,-1.4000000000000001,0.5,4.0,8.200000000000001,12.0,10.600000000000001,-13.000000000000002,16
177,3125.0,0.5,0.9,-1.6,-0.4,3.6,7.7,5.300000000000001,16.0,-17.300000000000004,16
178,3142.0,0.30000000000000004,0.9,-1.6,-0.4,3.6,7.7,-3.9,18.0,-18.900000000000002,16
179,3158.0,0.0,0.9,-1.2000000000000002,-0.7000000000000001,3.6,8.0,-12.5,16.200000000000003,-18.0,16
180,3175.0,-0.1,0.9,-0.2,-1.0,3.4000000000000004,9.8,-17.799999999999997,8.600000000000001,-16.3,16
181,3191.0,-0.2,0.8,0.5,-1.0,3.4000000000000004,9.8,-16.5,-3.8,-14.100000000000001,16
182,3208.0,-0.30000000000000004,0.4,2.0,-1.1,3.1,11.0,-8.3,-14.900000000000002,-10.200000000000001,16
183,3225.0,-0.1,0.4,2.0,-0.9,3.0,11.4,-0.4,-17.799999999999997,-6.0,16
184,3243.0,-0.1,0.7000000000000001,2.2,-0.7000000000000001,3.3000000000000003,11.5,-0.2,-15.2,-3.6000000000000005,16
185,3260.0,0.0,0.8,2.1,-0.7000000000000001,3.3000000000000003,11.5,-4.6,-9.100000000000001,-4.4,16
186,3275.0,-0.6000000000000001,0.6000000000000001,1.9000000000000001,-1.1,3.2,11.200000000000001,-14.200000000000001,-6.4,-7.8,16
187,3292.0,-1.4000000000000001,0.0,2.4000000000000004,-2.3000000000000003,2.1,12.3,-22.6,-8.899999999999999,-6.4,16
188,3308.0,-1.9000000000000001,-0.7000000000000001,3.4000000000000004,-2.5,1.6,13.4,-20.900000000000002,-18.1,1.6,16
189,3325.0,-2.0,-0.9,4.1000000000000005,-2.5,1.6,13.4,-5.8,-32.7,14.800000000000002,16
190,3341.0,-1.8,-1.0,4.4,-2.3000000000000003,1.4000000000000001,14.0,16.1,-40.6,28.500000000000004,16
191,3358.0,-1.5,-1.0,3.8000000000000003,-1.8,1.6,13.3,32.2,-36.1,39.1,16
192,3375.0,-1.1,-0.8,2.3000000000000003,-1.3,1.9000000000000001,12.100000000000001,39.0,-28.500000000000004,45.8,16
193,3392.0,-0.8,-0.7000000000000001,0.7000000000000001,-1.0,2.1,10.600000000000001,37.9,-22.3,48.0,16
194,3409.0,-0.6000000000000001,-0.5,-0.4,-0.30000000000000004,2.6,9.0,29.800000000000004,-22.3,47.5,16
195,3425.0,-0.4,-0.30000000000000004,-0.4,-0.30000000000000004,2.6,9.0,17.7,-25.0,44.4,16
196,3442.0,0.0,0.0,0.2,0.1,2.9000000000000004,9.5,7.6,-25.7,37.50000000000001,16
197,3458.0,-0.30000000000000004,-0.30000000000000004,0.5,0.2,2.7,9.8,2.3,-21.6,29.400000000000002,16
198,3475.0,-0.4,-0.6000000000000001,0.6000000000000001,0.0,2.2,9.9,1.5,-15.6,26.200000000000003,16
199,3492.0,-0.4,-0.7000000000000001,0.4,0.0,2.2,9.9,6.2,-10.4,26.200000000000003,16
200,3508.0,-0.30000000000000004,-1.0,-0.1,0.1,2.0,9.5,13.900000000000002,-4.300000000000001,26.5,16
201,3525.0,-0.4,-1.0,-1.1,0.1,2.0,7.800000000000001,20.900000000000002,2.5,27.5,16
202,3544.0,-0.4,-0.9,-2.1,0.1,2.2,7.2,24.3,6.9,29.500000000000004,16
203,3562.0,-0.30000000000000004,-0.9,-2.2,0.1,2.2,7.2,24.5,6.1000000000000005,31.2,16
204,3575.0,-0.1,-0.8,-2.0,0.30000000000000004,2.3000000000000003,7.2,25.0,1.8000000000000003,32.1,16
205,3592.0,0.30000000000000004,-0.8,-1.4000000000000001,1.0,2.4000000000000004,7.800000000000001,29.300000000000004,-3.4,31.2,16
206,3609.0,0.5,-0.9,-1.4000000000000001,1.0,2.4000000000000004,7.800000000000001,37.50000000000001,-6.600000000000001,28.800000000000004,16
207,3625.0,0.7000000000000001,-1.1,-1.8,1.3,2.4000000000000004,7.6000000000000005,44.5,-3.3000000000000007,25.6,16
208,3642.0,0.6000000000000001,-0.8,-2.4000000000000004,1.2000000000000002,2.9000000000000004,6.800000000000001,44.8,-0.30000000000000004,22.6,16
209,3658.0,0.5,-0.7000000000000001,-1.7000000000000002,1.3,3.0,7.5,39.9,-1.7,18.8,16
210,3675.0,0.7000000000000001,-0.8,-1.4000000000000001,1.3,3.0,7.5,34.400000000000006,-1.2000000000000002,13.6,16
211,3691.0,0.8,-0.6000000000000001,-1.1,1.3,3.1,7.5,29.500000000000004,0.7,5.7,16
212,3708.0,0.6000000000000001,-0.9,-1.4000000000000001,1.1,2.8000000000000003,7.5,22.5,5.9,-2.6,16
213,3726.0,0.4,-1.2000000000000002,-1.4000000000000001,1.1,2.8000000000000003,7.5,14.100000000000001,8.3,-9.0,16
214,3742.0,0.30000000000000004,-1.6,-1.9000000000000001,0.9,2.4000000000000004,7.1000000000000005,4.6,11.4,-10.0,16
215,3758.0,0.5,-1.5,-1.6,1.2000000000000002,2.3000000000000003,7.4,-6.9,8.5,-8.100000000000001,16
216,3779.0,0.8,-1.3,-1.2000000000000002,1.4000000000000001,2.4000000000000004,7.9,-17.1,2.3,-5.8,16
217,3792.0,0.9,-1.2000000000000002,-0.9,1.4000000000000001,2.4000000000000004,7.9,-26.700000000000003,-4.5,-4.9,16
218,3809.0,1.2000000000000002,-0.9,-0.2,1.9000000000000001,2.6,8.9,-38.0,-5.0,-7.500000000000001,16
219,3826.0,1.2000000000000002,-0.9,0.0,1.6,2.4000000000000004,9.4,-53.9,3.9,-13.3,16
220,3842.0,1.0,-0.8,0.4,1.6,2.4000000000000004,9.4,-72.0,12.600000000000001,-19.400000000000002,16
221,3859.0,0.4,-0.6000000000000001,2.4000000000000004,1.1,2.4000000000000004,10.9,-82.0,7.200000000000001,-24.1,16
222,3876.0,-0.8,-0.4,4.3,-0.5,2.4000000000000004,14.3,-78.2,-4.2,-23.900000000000006,16
223,3893.0,-1.1,-0.2,5.800000000000001,-0.5,2.3000000000000003,15.5,-66.60000000000001,-17.799999999999997,-19.0,16
224,3909.0,-1.0,-0.30000000000000004,6.300000000000001,-0.5,2.3000000000000003,15.5,-49.6,-25.1,-13.5,16
225,3929.0,-0.9,-0.4,5.6000000000000005,-0.5,1.9000000000000001,14.3,-31.799999999999997,-15.100000000000001,-11.1,16
226,3942.0,-1.0,-0.6000000000000001,3.8000000000000003,-0.30000000000000004,1.7000000000000002,12.8,-21.400000000000002,2.5,-7.9,16
227,3958.0,-0.8,-0.5,3.0,-0.30000000000000004,1.7000000000000002,12.8,-18.8,17.6,-0.30000000000000004,16
228,3975.0,-0.30000000000000004,-0.1,1.9000000000000001,0.0,2.0,11.700000000000001,-18.700000000000003,20.7,8.2,16
229,3992.0,0.2,0.4,1.5,0.7000000000000001,2.7,11.0,-14.300000000000002,14.900000000000002,13.700000000000001,16
230,4012.0,0.30000000000000004,0.5,0.8,0.6000000000000001,2.7,10.200000000000001,-5.9,10.4,14.300000000000002,16
231,4025.0,0.2,0.5,0.30000000000000004,0.6000000000000001,2.7,10.200000000000001,2.9,12.5,12.100000000000001,16
232,4042.0,0.0,0.5,-1.2000000000000002,0.2,2.7,7.800000000000001,8.2,21.0,10.600000000000001,16
233,4059.0,0.0,0.6000000000000001,-2.5,0.1,2.9000000000000004,6.800000000000001,10.8,28.400000000000002,10.200000000000001,16
234,4075.0,-0.1,0.6000000000000001,-3.0,0.1,2.9000000000000004,6.800000000000001,12.200000000000001,31.799999999999997,10.0,16
235,4092.0,0.2,0.7000000000000001,-3.3000000000000003,0.2,3.1,6.300000000000001,14.700000000000001,28.800000000000004,9.8,16
236,4108.0,0.4,0.7000000000000001,-3.5,0.4,3.1,6.0,19.200000000000003,23.400000000000002,8.3,16
237,4128.0,0.4,0.5,-3.7,0.4,3.0,5.800000000000001,22.8,17.7,6.699999999999999,16
238,4142.0,0.5,0.4,-3.7,0.4,3.0,5.7,25.1,12.600000000000001,7.1000000000000005,16
239,4158.0,0.8,0.6000000000000001,-3.6,0.7000000000000001,3.3000000000000003,6.0,26.1,5.300000000000001,7.200000000000001,16
240,4175.0,0.7000000000000001,0.6000000000000001,-3.0,0.7000000000000001,3.4000000000000004,6.5,25.200000000000003,-2.7,5.6,16
241,4191.0,0.7000000000000001,0.6000000000000001,-2.7,0.7000000000000001,3.4000000000000004,6.5,22.5,-10.8,3.8,16
242,4209.0,0.7000000000000001,0.8,-1.8,0.8,3.5,7.2,19.200000000000003,-18.700000000000003,3.1,16
243,4225.0,0.7000000000000001,1.0,-0.5,1.0,4.0,9.3,17.0,-23.5,1.1,16
244,4241.0,0.8,1.1,0.2,1.0,4.0,9.3,16.8,-23.0,-2.9,16
245,4258.0,0.9,1.1,0.5,1.1,4.1000000000000005,9.700000000000001,16.6,-15.299999999999999,-9.0,16
246,4275.0,0.6000000000000001,0.8,0.8,0.7000000000000001,3.6,10.0,12.100000000000001,-4.0,-15.5,16
247,4292.0,0.4,0.4,0.7000000000000001,0.30000000000000004,3.3000000000000003,9.8,6.500000000000001,8.600000000000001,-19.799999999999997,16
248,4308.0,0.1,0.2,0.6000000000000001,0.30000000000000004,3.3000000000000003,9.8,2.2,16.200000000000003,-22.2,16
249,4325.0,-0.5,-0.30000000000000004,0.7000000000000001,-0.2,2.9000000000000004,9.9,-1.2000000000000002,17.400000000000002,-20.5,16
250,4342.0,-0.5,-0.5,0.6000000000000001,-0.4,2.6,9.9,-4.300000000000001,17.0,-13.6,16
251,4358.0,-0.30000000000000004,-0.30000000000000004,0.6000000000000001,-0.4,2.6,9.9,-7.699999999999999,12.7,-6.4,16
252,4375.0,0.1,-0.1,0.5,-0.1,2.8000000000000003,9.8,-13.000000000000002,3.0,-2.5,16
253,4392.0,0.4,0.5,2.0,0.5,3.4000000000000004,12.3,-23.0,-11.4,-2.0,16
254,4409.0,0.2,0.5,4.1000000000000005,0.1,3.1,14.100000000000001,-30.4,-20.400000000000002,-4.300000000000001,16
255,4425.0,-0.2,0.30000000000000004,5.0,0.1,3.1,14.100000000000001,-30.9,-18.1,-7.699999999999999,16
256,4441.0,-1.1,-0.6000000000000001,5.4,-0.7000000000000001,2.4000000000000004,14.9,-23.3,-3.1,-5.8,16
257,4462.0,-1.6,-1.3,3.9000000000000004,-1.5,1.3,12.4,-11.8,16.1,3.2,16
258,4476.0,-1.2000000000000002,-1.2000000000000002,1.2000000000000002,-1.1,1.5,10.4,3.7000000000000006,18.6,28.1,16
259,4493.0,-1.0,-1.0,0.4,-1.1,1.5,10.4,3.7000000000000006,18.6,28.1,16
260,4509.0,-0.5,-0.30000000000000004,0.6000000000000001,-0.2,2.5,10.700000000000001,2.8,-1.7,34.900000000000006,16
261,4525.0,0.0,-0.2,2.0,0.1,2.4000000000000004,11.700000000000001,5.1000000000000005,-20.400000000000002,35.1,16
262,4542.0,-0.1,-0.30000000000000004,2.3000000000000003,0.1,2.4000000000000004,11.700000000000001,10.200000000000001,-23.400000000000002,31.2,16
263,4561.0,-0.5,-0.7000000000000001,1.8,-0.2,2.2,11.700000000000001,13.399999999999999,-7.500000000000001,28.500000000000004,16
264,4577.0,-0.7000000000000001,-0.8,0.0,-0.5,2.0,9.0,13.900000000000002,10.5,27.9,16
265,4594.0,-0.6000000000000001,-0.7000000000000001,-1.0,-0.5,2.1,8.6,12.600000000000001,12.0,32.9,16
266,4608.0,-0.6000000000000001,-0.7000000000000001,-1.0,-0.5,2.1,8.6,12.600000000000001,12.0,32.9,16
267,4625.0,-0.5,-0.7000000000000001,-0.7000000000000001,-0.30000000000000004,2.2,8.9,18.6,1.7,36.400000000000006,16
268,4642.0,-0.2,-0.9,-0.30000000000000004,0.0,2.1,9.200000000000001,29.600000000000005,-3.4,39.400000000000006,16
269,4658.0,-0.1,-1.2000000000000002,-1.0,0.1,1.9000000000000001,8.6,39.9,-0.2,42.0,16
270,4675.0,0.1,-1.2000000000000002,-2.3000000000000003,0.30000000000000004,1.9000000000000001,7.6000000000000005,44.300000000000004,6.9,43.4,16
271,4692.0,0.30000000000000004,-1.0,-2.9000000000000004,0.7000000000000001,2.4000000000000004,6.300000000000001,41.50000000000001,13.200000000000003,42.2,16
272,4708.0,0.5,-0.9,-3.1,0.7000000000000001,2.4000000000000004,6.300000000000001,35.8,17.7,39.2,16
273,4725.0,0.6000000000000001,-0.7000000000000001,-3.1,0.8,2.6,6.1000000000000005,31.5,16.8,35.0,16
274,4741.0,0.6000000000000001,-0.8,-3.0,0.9,2.8000000000000003,6.2,29.400000000000002,9.700000000000001,30.1,16
275,4758.0,0.6000000000000001,-0.8,-2.9000000000000004,0.9,2.8000000000000003,6.2,26.5,1.1,25.7,16
276,4775.0,0.5,-0.7000000000000001,-2.2,0.9,2.9000000000000004,6.6000000000000005,22.000000000000004,-6.8,21.400000000000002,16
277,4791.0,0.6000000000000001,-0.6000000000000001,-1.1,1.0,3.0,7.6000000000000005,18.900000000000002,-11.000000000000002,16.700000000000003,16
278,4809.0,0.5,-0.9,-0.4,0.9,2.7,8.5,18.5,-9.700000000000001,10.9,16
279,4825.0,0.4,-1.0,-0.5,0.9,2.7,8.5,16.8,-2.6,6.600000000000001,16
280,4841.0,0.4,-1.0,-0.9,0.9,2.7,8.200000000000001,11.3,3.9,4.1,16
281,4860.0,0.30000000000000004,-1.1,-0.9,0.8,2.5,8.3,3.7000000000000006,1.8000000000000003,2.3,16
282,4875.0,0.30000000000000004,-1.2000000000000002,-0.6000000000000001,0.8,2.5,8.3,-3.2,-8.2,2.5,16
283,4892.0,0.4,-1.2000000000000002,0.5,0.9,2.5,9.200000000000001,-7.500000000000001,-20.7,4.2,16
284,4909.0,1.0,-1.1,1.4000000000000001,1.9000000000000001,2.4000000000000004,10.4,-9.100000000000001,-26.400000000000006,4.2,16
285,4925.0,1.4000000000000001,-1.1,0.9,2.0,2.5,9.4,-12.200000000000001,-20.7,1.0,16
286,4942.0,1.3,-0.9,0.2,2.0,2.5,9.4,-22.1,-11.1,-4.5,16
287,4958.0,1.1,-0.6000000000000001,-0.8,1.9000000000000001,2.8000000000000003,8.5,-38.60000000000001,-11.2,-12.600000000000001,16
288,4976.0,0.7000000000000001,-0.1,1.7000000000000002,1.5,2.9000000000000004,12.4,-55.3,-28.400000000000002,-20.0,16
289,4992.0,0.6000000000000001,-0.2,3.5,1.5,2.9000000000000004,12.4,-59.300000000000004,-41.50000000000001,-24.599999999999998,16
290,5009.0,0.0,-0.8,6.1000000000000005,1.1,2.4000000000000004,14.9,-47.1,-35.2,-28.1,16
291,5025.0,-1.0,-1.9000000000000001,4.7,-0.4,0.8,12.100000000000001,-27.3,-5.6,-25.1,16
292,5041.0,-1.2000000000000002,-1.9000000000000001,1.0,-0.4,1.2000000000000002,9.4,-16.6,25.0,-12.7,16
293,5058.0,-1.1,-1.5,-0.4,-0.4,1.2000000000000002,9.4,-14.300000000000002,31.9,2.9,16
294,5076.0,-0.2,-0.4,-1.4000000000000001,0.2,2.0,8.1,-12.8,12.0,14.600000000000001,16
295,5097.0,0.9,0.4,-0.4,2.0,3.3000000000000003,9.4,-9.600000000000001,-14.200000000000001,17.9,16
296,5108.0,1.1,0.7000000000000001,0.30000000000000004,2.0,3.4000000000000004,9.600000000000001,-6.4,-24.400000000000002,13.6,16
297,5125.0,1.0,0.7000000000000001,0.1,2.0,3.4000000000000004,9.600000000000001,-5.300000000000001,-15.700000000000001,6.300000000000001,16
298,5142.0,0.8,0.6000000000000001,-0.7000000000000001,1.7000000000000002,3.3000000000000003,8.0,-5.300000000000001,0.5,-0.5,16
299,5158.0,0.8,0.6000000000000001,-1.9000000000000001,1.5,3.3000000000000003,7.2,-7.699999999999999,14.300000000000002,-6.600000000000001,16
300,5175.0,0.7000000000000001,0.6000000000000001,-2.3000000000000003,1.5,3.3000000000000003,7.2,-12.600000000000001,22.4,-11.700000000000001,16
301,5192.0,0.7000000000000001,0.6000000000000001,-2.4000000000000004,1.4000000000000001,3.3000000000000003,7.0,-15.100000000000001,22.5,-15.100000000000001,16
302,5208.0,0.7000000000000001,0.5,-2.2,1.4000000000000001,3.1,7.2,-11.2,16.5,-16.900000000000002,16
303,5227.0,0.6000000000000001,0.30000000000000004,-2.1,1.0,2.9000000000000004,6.9,-4.1,11.2,-17.300000000000004,16
304,5242.0,0.30000000000000004,0.2,-2.6,1.0,2.9000000000000004,6.9,-0.1,8.700000000000001,-16.5,16
305,5261.0,0.4,0.6000000000000001,-2.5,1.2000000000000002,3.4000000000000004,7.2,-1.2000000000000002,6.600000000000001,-14.0,16
306,5276.0,0.8,1.0,-1.9000000000000001,1.4000000000000001,3.7,7.5,-2.3,4.1,-12.8,16
307,5292.0,0.9,1.1,-1.8,1.4000000000000001,3.7,7.5,-1.6,2.9,-14.400000000000002,16
308,5308.0,0.9,1.1,-1.7000000000000002,1.4000000000000001,3.7,7.6000000000000005,-2.1,3.5,-17.799999999999997,16
309,5325.0,0.7000000000000001,1.0,-1.5,1.1,3.7,8.1,-4.2,5.0,-20.599999999999998,16
310,5341.0,0.5,1.1,-1.2000000000000002,1.1,3.7,8.1,-6.4,6.300000000000001,-22.2,16
311,5358.0,0.2,1.0,-0.30000000000000004,0.7000000000000001,3.6,8.8,-5.8,8.3,-22.4,16
312,5375.0,0.0,0.8,-0.2,0.4,3.4000000000000004,9.0,-3.6000000000000005,11.900000000000002,-20.7,16
313,5391.0,-0.5,0.30000000000000004,-0.1,-0.30000000000000004,2.8000000000000003,9.5,-4.1,11.6,-16.4,16
314,5408.0,-0.6000000000000001,0.2,0.4,-0.30000000000000004,2.8000000000000003,9.5,-4.6,5.7,-8.100000000000001,16
315,5425.0,-0.7000000000000001,0.1,1.0,-0.30000000000000004,2.7,10.100000000000001,-1.5,-5.500000000000001,1.8000000000000003,16
316,5441.0,-0.2,0.4,2.2,0.6000000000000001,3.1,12.0,2.0,-18.4,11.3,16
317,5458.0,0.30000000000000004,0.5,2.9000000000000004,0.6000000000000001,3.1,12.0,4.9,-20.7,17.0,16
318,5475.0,1.3,0.6000000000000001,2.6,1.6,3.2,12.200000000000001,4.800000000000001,-8.600000000000001,15.700000000000001,16
319,5492.0,1.2000000000000002,1.1,1.3,1.5,3.8000000000000003,11.100000000000001,-6.699999999999999,0.9000000000000001,8.5,16
320,5508.0,0.7000000000000001,1.1,2.9000000000000004,1.1,3.4000000000000004,13.200000000000001,-23.900000000000006,-6.0,-0.4,16
321,5525.0,0.4,0.8,4.2,1.1,3.4000000000000004,13.200000000000001,-32.8,-17.9,-6.300000000000001,16
322,5542.0,-0.6000000000000001,0.2,6.5,0.4,2.8000000000000003,15.3,-24.7,-18.4,-8.100000000000001,16
323,5558.0,-1.4000000000000001,-1.1,5.4,-1.0,1.0,13.3,-3.1,-0.6000000000000001,-4.1,16
324,5575.0,-1.6,-1.6,3.3000000000000003,-1.0,1.0,13.3,15.399999999999999,24.200000000000003,6.4,16
325,5591.0,-1.6,-1.4000000000000001,-0.30000000000000004,-1.2000000000000002,1.0,10.100000000000001,20.3,36.400000000000006,20.599999999999998,16
326,5608.0,-1.0,-0.7000000000000001,-2.1,-0.1,2.2,7.4,16.0,24.900000000000002,30.000000000000004,16
327,5625.0,-0.6000000000000001,-0.30000000000000004,-2.1,-0.1,2.2,7.4,9.3,1.0,31.9,16
328,5642.0,0.0,-0.30000000000000004,-0.6000000000000001,0.4,2.3000000000000003,8.6,4.4,-18.0,28.0,16
329,5659.0,-0.2,-0.30000000000000004,0.1,0.5,2.2,9.5,2.9,-19.5,21.500000000000004,16
330,5679.0,-0.6000000000000001,-0.8,-0.30000000000000004,0.0,1.7000000000000002,8.9,1.7,-11.6,16.3,16
331,5696.0,-0.6000000000000001,-0.9,-0.9,0.1,1.7000000000000002,8.5,0.6000000000000001,-6.699999999999999,17.9,16
332,5708.0,-0.4,-0.8,-1.0,0.1,1.7000000000000002,8.5,0.6000000000000001,-6.699999999999999,17.9,16
333,5725.0,0.0,-0.5,-1.0,0.9,2.2,8.5,6.1000000000000005,-16.3,18.200000000000003,16
334,5741.0,0.1,-0.4,-0.7000000000000001,1.0,2.2,8.8,13.399999999999999,-27.5,15.399999999999999,16
335,5758.0,0.1,-0.5,-0.5,1.0,2.2,8.8,20.3,-32.400000000000006,11.2,16
336,5775.0,0.2,-0.8,-0.7000000000000001,1.2000000000000002,2.0,8.8,26.200000000000003,-26.6,7.400000000000001,16
337,5791.0,0.0,-1.2000000000000002,-1.4000000000000001,0.9,1.5,7.5,29.0,-14.800000000000002,4.6,16
338,5810.0,-0.30000000000000004,-1.4000000000000001,-2.4000000000000004,0.7000000000000001,1.5,6.800000000000001,19.799999999999997,9.4,8.600000000000001,16
339,5827.0,-0.30000000000000004,-1.2000000000000002,-2.5,0.7000000000000001,1.5,6.800000000000001,19.799999999999997,9.4,8.600000000000001,16
340,5843.0,0.1,-0.7000000000000001,-2.6,1.2000000000000002,2.4000000000000004,6.800000000000001,13.5,13.6,11.5,16
341,5858.0,0.2,-0.5,-2.4000000000000004,1.2000000000000002,2.4000000000000004,6.800000000000001,11.8,7.699999999999999,10.1,16
342,5875.0,0.4,-0.30000000000000004,-1.6,1.3,2.6,7.4,12.5,-0.30000000000000004,6.8,16
343,5892.0,0.30000000000000004,-0.2,-0.9,1.4000000000000001,2.8000000000000003,8.1,13.100000000000001,-5.4,2.5,16
344,5908.0,0.30000000000000004,-0.2,-0.30000000000000004,1.3,2.8000000000000003,9.0,12.100000000000001,-4.4,-1.5,16
345,5926.0,0.30000000000000004,-0.30000000000000004,-0.1,1.3,2.8000000000000003,9.0,9.2,3.3000000000000007,-5.2,16
346,5945.0,0.1,-0.4,-0.6000000000000001,1.1,2.7,8.8,4.300000000000001,16.4,-8.700000000000001,16
347,5958.0,-0.30000000000000004,-0.8,-1.0,0.5,2.2,8.200000000000001,-2.8,24.7,-10.0,16
348,5975.0,-0.2,-0.8,-0.8,0.7000000000000001,2.2,8.6,-10.5,22.5,-7.8,16
349,5992.0,0.0,-0.7000000000000001,-0.4,0.7000000000000001,2.2,8.6,-16.4,12.0,-5.1000000000000005,16
350,6008.0,0.2,-0.6000000000000001,0.5,0.9,2.3000000000000003,9.4,-19.200000000000003,-0.6000000000000001,-4.2,16
351,6031.0,0.7000000000000001,-0.7000000000000001,1.4000000000000001,1.6,2.1,10.5,-19.5,-7.0,-3.7000000000000006,16
352,6042.0,0.8,-0.7000000000000001,1.2000000000000002,1.6,2.1,10.5,-20.5,-3.6000000000000005,-3.7000000000000006,16
353,6058.0,0.9,-0.5,0.7000000000000001,1.7000000000000002,2.1,10.200000000000001,-27.3,0.0,-5.500000000000001,16
354,6075.0,1.0,-0.2,1.0,1.8,2.5,11.5,-39.0,-5.300000000000001,-7.500000000000001,16
355,6091.0,0.9,0.0,2.3000000000000003,1.8,2.5,11.5,-47.2,-23.3,-10.1,16
356,6108.0,0.7000000000000001,0.0,5.4,1.8,2.4000000000000004,14.200000000000001,-41.199999999999996,-35.3,-12.8,16
357,6125.0,0.30000000000000004,-0.5,5.9,1.3,1.7000000000000002,15.4,-23.400000000000002,-25.4,-13.6,16
358,6143.0,-0.1,-1.4000000000000001,3.7,0.9,0.9,12.100000000000001,-8.600000000000001,3.2,-7.6,16
359,6158.0,0.0,-1.4000000000000001,2.2,0.9,0.9,12.100000000000001,-1.1,27.5,0.5,16
360,6176.0,0.2,-0.8,-0.2,1.0,1.2000000000000002,9.9,-0.5,33.300000000000004,7.699999999999999,16
361,6193.0,0.9,-0.2,-1.0,1.9000000000000001,2.2,8.5,-1.2000000000000002,19.6,12.4,16
362,6210.0,1.2000000000000002,0.1,-0.9,2.1,2.4000000000000004,8.8,-1.2000000000000002,0.9000000000000001,11.6,16
363,6226.0,1.3,0.2,-0.7000000000000001,2.1,2.4000000000000004,8.8,-2.4000000000000004,-8.700000000000001,7.200000000000001,16
364,6243.0,1.2000000000000002,0.30000000000000004,-0.6000000000000001,1.8,2.6,8.700000000000001,-4.800000000000001,-1.9,1.9,16
365,6261.0,0.9,0.4,-1.1,1.6,2.6,8.200000000000001,-5.2,10.5,-3.8,16
366,6275.0,0.8,0.4,-1.4000000000000001,1.6,2.6,8.200000000000001,-3.2,22.700000000000003,-8.3,16
367,6291.0,0.7000000000000001,0.4,-2.6,1.4000000000000001,2.6,7.300000000000001,0.4,32.6,-11.5,16
368,6308.0,0.5,0.4,-3.6,1.0,2.7,5.6000000000000005,2.0,33.800000000000004,-14.100000000000001,16
369,6325.0,0.4,0.5,-4.0,1.0,2.7,5.6000000000000005,1.0,26.700000000000003,-16.0,16
370,6341.0,0.30000000000000004,0.6000000000000001,-3.6,0.8,2.8000000000000003,5.7,-2.0,14.400000000000002,-17.5,16
371,6358.0,0.5,0.6000000000000001,-1.9000000000000001,1.1,2.8000000000000003,8.200000000000001,-3.1,4.5,-18.200000000000003,16
372,6375.0,0.8,0.6000000000000001,-0.9,1.2000000000000002,2.9000000000000004,8.700000000000001,1.5,4.1,-18.1,16
373,6395.0,0.7000000000000001,0.7000000000000001,-0.5,1.0,3.1,8.9,10.8,18.5,-16.200000000000003,16
374,6409.0,0.7000000000000001,0.9,-0.5,1.0,3.1,8.9,10.8,18.5,-16.200000000000003,16
375,6427.0,0.8,1.1,-0.9,1.0,3.6,8.3,13.3,25.200000000000003,-15.2,16
376,6442.0,0.8,1.2000000000000002,-1.1,1.0,3.6,8.3,11.900000000000002,26.799999999999997,-15.899999999999999,16
377,6458.0,0.8,1.4000000000000001,-0.7000000000000001,0.9,3.8000000000000003,8.5,8.899999999999999,24.200000000000003,-18.6,16
378,6476.0,0.7000000000000001,1.2000000000000002,-0.30000000000000004,0.4,3.3000000000000003,9.200000000000001,8.600000000000001,25.5,-22.3,16
379,6492.0,0.1,1.0,0.2,0.1,3.5,9.5,8.3,30.799999999999997,-23.5,16
380,6508.0,0.4,1.0,0.1,0.1,3.5,9.5,8.899999999999999,36.1,-21.8,16
381,6525.0,-0.2,0.9,-0.30000000000000004,-0.4,3.4000000000000004,9.0,8.899999999999999,32.8,-22.4,16
382,6542.0,-0.7000000000000001,0.4,1.4000000000000001,-1.1,2.8000000000000003,12.100000000000001,9.4,16.700000000000003,-21.8,16
383,6559.0,-0.8,0.1,3.0,-1.1,2.8000000000000003,12.100000000000001,17.7,1.9,-18.0,16
384,6575.0,-0.7000000000000001,-0.30000000000000004,4.0,-1.1,2.5,13.3,32.7,5.1000000000000005,-12.600000000000001,16
385,6592.0,-0.30000000000000004,0.0,2.2,-0.8,3.2,10.700000000000001,41.199999999999996,9.600000000000001,-9.2,16
386,6609.0,-0.6000000000000001,0.5,1.5,-1.2000000000000002,3.5,11.5,38.1,-4.9,-9.100000000000001,16
387,6627.0,-0.9,0.5,2.6,-1.2000000000000002,3.5,11.5,23.5,-22.3,-9.0,16
388,6644.0,-1.2000000000000002,-0.2,4.0,-1.5,3.1,13.0,7.8,-12.100000000000001,-3.8,16
389,6659.0,-1.1,-0.7000000000000001,4.3,-1.4000000000000001,2.1,13.4,-1.6,9.899999999999999,2.9,16
390,6675.0,-1.0,-1.5,2.2,-1.4000000000000001,1.7000000000000002,10.5,-0.1,30.9,8.700000000000001,16
391,6691.0,-0.6000000000000001,-1.1,0.1,-1.4000000000000001,1.7000000000000002,10.5,5.0,44.5,16.6,16
392,6710.0,-0.6000000000000001,-0.7000000000000001,-3.2,-2.0,2.2,5.9,-2.6,45.400000000000006,14.100000000000001,16
393,6725.0,-1.5,-0.7000000000000001,-2.0,-2.0,2.1,8.4,-12.9,16.6,11.4,16
394,6744.0,-1.2000000000000002,-0.8,-0.30000000000000004,-2.0,2.1,8.4,-17.1,-14.800000000000002,17.300000000000004,16
395,6758.0,-0.2,-0.8,1.8,-1.2000000000000002,2.0,10.700000000000001,-11.700000000000001,-16.5,21.1,16
396,6775.0,0.7000000000000001,-0.4,0.4,0.4,2.5,8.9,-5.8,4.9,17.5,16
397,6794.0,1.9000000000000001,0.1,-1.9000000000000001,0.9,2.8000000000000003,7.4,-15.6,52.7,-10.8,16
398,6808.0,1.7000000000000002,-0.1,-2.1,0.9,2.8000000000000003,7.4,-15.6,52.7,-10.8,16
399,6825.0,1.4000000000000001,-0.30000000000000004,-2.2,-0.8,0.5,6.4,-13.000000000000002,73.10000000000001,-21.900000000000002,16
400,6842.0,0.4,-2.3000000000000003,-3.0,-0.8,0.5,6.4,-11.000000000000002,71.7,-23.2,16
401,6858.0,2.7,1.3,-1.2000000000000002,1.4000000000000001,3.8000000000000003,6.9,-11.1,50.400000000000006,-26.6,16
402,6877.0,2.3000000000000003,0.1,-4.800000000000001,0.7000000000000001,2.9000000000000004,4.800000000000001,-7.6,54.9,-38.800000000000004,16
403,6896.0,1.9000000000000001,-0.4,-5.2,-0.4,2.0,3.8000000000000003,-7.9,28.0,-49.6,16
404,6908.0,1.1,-0.5,-5.4,-0.4,2.0,3.8000000000000003,-7.200000000000001,-7.8,-57.9,16
405,6925.0,0.2,-0.4,-2.0,-1.3,2.0,6.2,-5.300000000000001,-43.00000000000001,-67.00000000000001,16
406,6942.0,-0.6000000000000001,-0.8,-0.2,-2.3000000000000003,1.1,9.0,9.5,-52.300000000000004,-71.19999999999999,16
407,6958.0,-0.9,-1.4000000000000001,-0.2,-2.3000000000000003,1.1,9.0,29.700000000000006,-58.5,-64.60000000000001,16
408,6975.0,-2.5,-2.8000000000000003,2.3000000000000003,-3.4000000000000004,0.1,10.200000000000001,35.3,-54.699999999999996,-38.900000000000006,16
409,6992.0,-3.4000000000000004,-1.6,2.8000000000000003,-4.7,0.5,11.600000000000001,20.599999999999998,4.4,18.700000000000003,16
410,7008.0,0.2,-0.6000000000000001,0.2,-1.2000000000000002,2.7,8.9,20.599999999999998,38.2,57.20000000000001,16
411,7025.0,0.30000000000000004,0.1,-0.30000000000000004,-1.2000000000000002,2.7,8.9,25.900000000000002,29.300000000000004,54.0,16
412,7042.0,-0.30000000000000004,0.4,-0.2,-1.7000000000000002,3.4000000000000004,8.8,31.799999999999997,12.9,44.300000000000004,16
413,7059.0,0.5,-0.2,-0.5,-1.3,3.0,8.8,34.50000000000001,4.0,39.699999999999996,16
414,7075.0,0.4,-0.30000000000000004,-1.0,-1.1,2.8000000000000003,7.9,31.5,-4.300000000000001,32.7,16
415,7091.0,0.2,-0.30000000000000004,-1.3,-1.1,2.8000000000000003,7.9,22.8,-14.5,27.400000000000002,16
416,7108.0,0.5,-0.30000000000000004,-1.1,-0.9,2.9000000000000004,7.800000000000001,12.0,-32.1,22.5,16
417,7127.0,0.5,-0.5,-0.9,-0.6000000000000001,2.7,8.1,0.1,-50.5,16.6,16
418,7144.0,0.30000000000000004,-2.0,2.0,-0.1,1.1,11.100000000000001,-14.900000000000002,-48.0,33.1,16
419,7159.0,1.1,-2.1,1.9000000000000001,-0.1,1.1,11.100000000000001,-14.900000000000002,-48.0,33.1,16
420,7175.0,1.9000000000000001,-2.4000000000000004,2.2,2.1,0.8,10.4,-2.3,-46.800000000000004,45.2,16
421,7192.0,2.3000000000000003,-2.5,-1.1,2.3000000000000003,0.9,7.9,17.400000000000002,-44.6,53.400000000000006,16
422,7211.0,2.4000000000000004,-2.1,-1.2000000000000002,2.3000000000000003,0.9,7.9,27.6,-70.10000000000001,57.9,16
423,7226.0,1.6,-2.0,-2.2,2.2,1.4000000000000001,6.9,27.3,-101.7,56.9,16
424,7242.0,1.3,-1.6,-1.1,2.4000000000000004,1.5,8.6,14.700000000000001,-121.9,58.900000000000006,16
425,7258.0,1.5,-1.7000000000000002,-0.1,2.4000000000000004,1.5,8.6,-0.7,-121.2,61.8,16
426,7275.0,1.8,-2.2,1.7000000000000002,3.2,1.2000000000000002,10.200000000000001,-6.699999999999999,-110.30000000000001,60.5,16
427,7291.0,1.3,-2.7,1.5,3.1,0.1,10.0,-3.0,-101.20000000000002,58.0,16
428,7310.0,0.6000000000000001,-3.3000000000000003,0.9,3.0,-0.4,9.700000000000001,-3.6000000000000005,-97.2,59.300000000000004,16
429,7325.0,0.8,-3.4000000000000004,0.8,3.0,-0.4,9.700000000000001,-14.700000000000001,-87.89999999999999,65.4,16
430,7341.0,1.1,-3.2,-0.30000000000000004,4.1000000000000005,0.2,9.200000000000001,-35.3,-72.80000000000001,74.89999999999999,16
431,7358.0,0.8,-1.8,0.1,3.9000000000000004,0.8,8.4,-45.7,-79.1,73.2,16
432,7375.0,0.9,-1.5,-0.6000000000000001,3.9000000000000004,0.8,8.4,-56.300000000000004,-73.10000000000001,63.30000000000001,16
433,7391.0,1.2000000000000002,-1.0,-0.2,4.4,1.0,8.6,-77.9,-49.199999999999996,48.300000000000004,16
434,7408.0,0.4,-0.9,0.0,3.5,0.8,8.5,-92.7,-23.900000000000006,27.700000000000003,16
435,7425.0,0.0,-0.5,-0.8,3.0,0.8,7.9,-101.10000000000001,-1.2000000000000002,10.299999999999999,16
436,7441.0,-0.5,-0.5,-1.2000000000000002,3.0,0.8,7.9,-102.2,8.700000000000001,-4.6,16
437,7458.0,-1.3,-0.6000000000000001,-1.7000000000000002,1.6,0.2,7.2,-98.39999999999999,5.9,-11.6,16
438,7475.0,-1.9000000000000001,-0.7000000000000001,-1.6,1.2000000000000002,-0.1,7.5,-93.3,-4.6,-11.6,16
439,7491.0,-2.1,-0.7000000000000001,-1.4000000000000001,1.2000000000000002,-0.1,7.5,-90.19999999999999,-13.700000000000001,-7.1000000000000005,16
440,7510.0,-1.8,-0.5,-1.0,1.4000000000000001,-0.2,7.800000000000001,-90.6,-16.4,-0.9000000000000001,16
441,7531.0,-1.5,-0.1,-0.6000000000000001,2.1,-0.1,8.3,-91.30000000000001,-16.1,2.0,16
442,7542.0,-1.2000000000000002,0.0,-0.5,2.1,-0.1,8.3,-92.60000000000001,-15.8,1.4,16
443,7559.0,-1.1,0.0,0.0,2.3000000000000003,-0.30000000000000004,8.700000000000001,-97.7,-11.6,-1.4,16
444,7576.0,-1.3,0.2,1.3,1.9000000000000001,-0.5,10.8,-106.30000000000001,1.8000000000000003,-1.0,16
445,7592.0,-1.4000000000000001,0.7000000000000001,2.5,1.8,-0.30000000000000004,11.5,-110.80000000000001,17.1,1.4,16
446,7608.0,-1.3,1.0,2.7,1.8,-0.30000000000000004,11.5,-108.39999999999999,30.9,4.6,16
447,7626.0,-0.5,1.9000000000000001,2.4000000000000004,2.2,0.1,11.4,-101.7,37.7,6.2,16
448,7642.0,-0.8,1.6,1.6,2.3000000000000003,-0.30000000000000004,10.600000000000001,-94.5,31.400000000000002,2.9,16
449,7658.0,-0.6000000000000001,1.7000000000000002,1.7000000000000002,2.3000000000000003,-0.30000000000000004,10.600000000000001,-89.6,12.5,1.2000000000000002,16
450,7676.0,-0.4,1.7000000000000002,2.0,2.6,-0.4,10.8,-88.4,-11.4,-0.9000000000000001,16
451,7693.0,-0.6000000000000001,1.7000000000000002,3.4000000000000004,2.5,-0.6000000000000001,13.3,-93.7,-36.6,-1.9,16
452,7708.0,-0.8,2.0,4.7,2.5,-0.6000000000000001,13.3,-96.20000000000002,-56.50000000000001,0.6000000000000001,16
453,7725.0,-0.7000000000000001,2.2,7.300000000000001,2.6,-0.6000000000000001,15.600000000000001,-93.10000000000001,-58.800000000000004,7.699999999999999,16
454,7741.0,0.30000000000000004,2.7,9.5,3.6,-0.5,17.1,-88.9,-50.0,13.700000000000001,16
455,7758.0,0.2,3.2,10.5,3.4000000000000004,0.1,19.0,-78.80000000000001,-30.3,15.6,16
456,7775.0,-0.2,3.5,10.600000000000001,3.4000000000000004,0.1,19.0,-60.5,-10.600000000000001,20.2,16
457,7791.0,-0.7000000000000001,4.6000000000000005,9.9,2.8000000000000003,0.9,18.7,-32.2,4.1,33.800000000000004,16
458,7808.0,0.5,5.800000000000001,7.7,4.7,2.7,14.8,6.300000000000001,6.9,50.2,16
459,7825.0,2.0,5.800000000000001,4.5,5.7,2.3000000000000003,12.600000000000001,42.900000000000006,-5.7,52.60000000000001,16
460,7841.0,2.4000000000000004,5.2,3.4000000000000004,5.7,2.3000000000000003,12.600000000000001,64.2,-25.8,40.7,16
461,7858.0,2.6,3.6,2.7,6.1000000000000005,1.1,11.600000000000001,68.4,-41.4,23.800000000000004,16
462,7876.0,2.3000000000000003,2.8000000000000003,3.0,6.0,-0.1,11.8,66.1,-48.300000000000004,10.299999999999999,16
463,7891.0,1.6,1.3,4.4,5.5,-1.2000000000000002,13.100000000000001,65.10000000000001,-42.5,4.300000000000001,16
464,7908.0,0.8,0.5,5.300000000000001,4.9,-1.8,14.100000000000001,69.3,-20.599999999999998,6.699999999999999,16
465,7925.0,0.30000000000000004,0.4,4.0,3.7,-1.4000000000000001,12.0,80.10000000000001,6.4,14.300000000000002,16
466,7942.0,-0.2,0.8,1.5,3.4000000000000004,-0.9,9.9,93.49999999999999,22.6,21.500000000000004,16
467,7959.0,-0.30000000000000004,0.8,0.30000000000000004,3.4000000000000004,-0.9,9.9,105.20000000000002,24.3,27.099999999999998,16
468,7975.0,-0.6000000000000001,0.8,-1.4000000000000001,3.1,-0.6000000000000001,8.4,112.4,14.900000000000002,30.699999999999996,16
469,7991.0,-0.5,0.6000000000000001,-1.6,3.2,-0.5,8.0,115.7,3.1,32.8,16
470,8008.0,-0.30000000000000004,0.4,-1.3,3.2,-0.5,8.0,118.80000000000003,-5.0,32.1,16
471,8026.0,-0.1,-0.5,-0.5,3.4000000000000004,-0.9,8.700000000000001,122.30000000000001,-3.8,28.600000000000005,16
472,8046.0,0.0,-1.5,-0.2,3.6,-1.8,8.8,125.9,7.500000000000001,25.6,16
473,8058.0,0.1,-1.9000000000000001,-0.6000000000000001,3.6,-1.8,8.8,130.8,19.5,23.700000000000003,16
474,8075.0,0.1,-2.6,-2.3000000000000003,3.6,-2.1,7.5,132.3,25.1,22.000000000000004,16
475,8092.0,0.1,-2.9000000000000004,-3.5,3.5,-2.1,6.2,127.3,21.200000000000003,21.0,16
476,8108.0,0.2,-3.0,-3.6,3.6,-2.0,5.800000000000001,120.10000000000001,9.600000000000001,17.799999999999997,16
477,8130.0,0.2,-3.4000000000000004,-3.2,3.6,-2.0,6.1000000000000005,101.20000000000002,-6.4,4.1,16
478,8142.0,0.2,-3.6,-2.9000000000000004,3.6,-2.0,6.1000000000000005,101.20000000000002,-6.4,4.1,16
479,8158.0,0.1,-4.0,-2.3000000000000003,3.5,-2.3000000000000003,6.7,90.1,-4.0,-3.5,16
480,8175.0,0.2,-4.6000000000000005,-2.4000000000000004,3.5,-2.8000000000000003,6.6000000000000005,79.3,2.3,-10.700000000000001,16
481,8196.0,0.1,-5.4,-2.5,3.4000000000000004,-3.3000000000000003,6.6000000000000005,46.1,18.0,-20.7,16
482,8208.0,0.0,-5.7,-2.4000000000000004,3.4000000000000004,-3.3000000000000003,6.6000000000000005,46.1,18.0,-20.7,16
483,8227.0,0.2,-6.1000000000000005,-1.9000000000000001,3.6,-4.0,7.300000000000001,28.0,19.400000000000002,-20.3,16
484,8243.0,0.4,-6.2,-1.6,3.6,-4.0,7.300000000000001,15.700000000000001,11.1,-19.5,16
485,8258.0,0.4,-6.1000000000000005,-1.1,3.7,-4.0,7.800000000000001,4.800000000000001,1.9,-19.300000000000004,16
486,8275.0,0.6000000000000001,-5.800000000000001,-0.6000000000000001,4.0,-3.8000000000000003,8.5,-8.5,-1.5,-20.7,16
487,8291.0,0.8,-5.800000000000001,-0.5,4.0,-3.8000000000000003,8.5,-22.700000000000003,-4.1,-25.200000000000003,16
488,8309.0,1.2000000000000002,-6.0,-0.5,4.3,-4.0,8.5,-40.800000000000004,-4.7,-32.0,16
489,8327.0,1.0,-6.2,0.0,4.3,-4.4,8.9,-59.9,-2.6,-37.2,16
490,8343.0,0.1,-5.800000000000001,0.30000000000000004,2.7,-4.1000000000000005,9.5,-75.1,-0.5,-37.800000000000004,16
491,8359.0,-1.1,-4.5,0.4,2.7,-4.1000000000000005,9.5,-88.4,3.2,-13.8,16
492,8375.0,-1.2000000000000002,-3.8000000000000003,0.4,2.0,-3.1,9.600000000000001,-88.4,3.2,-13.8,16
493,8391.0,-0.2,-2.6,0.1,3.6,-1.8,9.1,-83.70000000000002,-7.400000000000001,0.2,16
494,8408.0,0.5,-2.3000000000000003,0.0,3.6,-1.8,9.1,-81.3,-24.3,5.6,16
495,8425.0,1.5,-2.5,0.6000000000000001,4.7,-2.1,9.5,-85.30000000000001,-40.300000000000004,5.1000000000000005,16
496,8441.0,1.7000000000000002,-2.8000000000000003,1.7000000000000002,5.2,-2.7,10.3,-91.50000000000001,-49.699999999999996,4.0,16
497,8458.0,1.5,-2.2,3.1,5.1000000000000005,-2.2,12.4,-95.30000000000001,-49.1,5.500000000000001,16
498,8475.0,1.3,-1.5,3.4000000000000004,5.1000000000000005,-2.2,12.4,-93.49999999999999,-36.7,6.500000000000001,16
499,8492.0,1.0,0.1,3.2,4.9,-1.1,12.3,-86.3,-18.3,2.3,16
500,8508.0,0.4,1.4000000000000001,1.8,3.8000000000000003,0.5,10.100000000000001,-77.4,0.8,-9.100000000000001,16
501,8525.0,-0.5,1.7000000000000002,0.1,3.0,0.5,8.700000000000001,-70.0,16.1,-22.6,16
502,8542.0,-0.9,1.7000000000000002,-0.7000000000000001,3.0,0.5,8.700000000000001,-65.10000000000001,25.8,-31.799999999999997,16
503,8558.0,-1.5,1.7000000000000002,-1.7000000000000002,1.9000000000000001,0.4,7.2,-60.00000000000001,27.400000000000002,-32.400000000000006,16
504,8575.0,-1.7000000000000002,1.7000000000000002,-2.1,1.8,0.30000000000000004,6.6000000000000005,-50.900000000000006,22.1,-27.5,16
505,8591.0,-1.7000000000000002,1.8,-2.6,1.8,0.30000000000000004,6.6000000000000005,-41.0,14.400000000000002,-21.200000000000003,16
506,8608.0,-1.4000000000000001,1.8,-2.7,2.0,0.30000000000000004,6.2,-35.2,6.1000000000000005,-16.8,16
507,8625.0,-1.2000000000000002,1.6,-2.6,2.3000000000000003,0.1,6.4,-33.400000000000006,2.8,-14.800000000000002,16
508,8642.0,-1.0,1.5,-2.5,2.5,-0.30000000000000004,6.5,-34.900000000000006,4.5,-13.700000000000001,16
509,8658.0,-0.9,1.4000000000000001,-2.3000000000000003,2.5,-0.30000000000000004,6.5,-37.400000000000006,5.6,-12.100000000000001,16
510,8675.0,-0.6000000000000001,1.2000000000000002,-2.2,2.8000000000000003,-0.6000000000000001,6.7,-39.2,6.1000000000000005,-10.4,16
511,8694.0,-0.5,1.4000000000000001,-1.9000000000000001,3.0,-0.6000000000000001,7.2,-43.1,6.699999999999999,-6.8,16
512,8708.0,-0.4,1.4000000000000001,-1.5,3.0,-0.6000000000000001,7.2,-46.300000000000004,4.7,-2.0,16
513,8725.0,-0.1,1.6,-0.2,3.2,-0.6000000000000001,8.200000000000001,-48.10000000000001,5.1000000000000005,3.2,16
514,8741.0,0.4,2.0,1.4000000000000001,3.9000000000000004,-0.1,10.4,-46.1,9.3,9.3,16
515,8762.0,0.8,2.4000000000000004,1.7000000000000002,4.1000000000000005,0.0,10.5,-39.599999999999994,13.700000000000001,13.000000000000002,16
516,8779.0,0.9,2.5,1.8,4.2,0.0,10.600000000000001,-38.50000000000001,20.400000000000002,9.5,16
517,8795.0,1.1,2.5,1.8,4.3,-0.1,10.9,-38.50000000000001,20.400000000000002,9.5,16
518,8809.0,1.0,2.4000000000000004,2.6,4.1000000000000005,-0.4,11.8,-46.300000000000004,16.8,4.5,16
519,8825.0,0.9,2.3000000000000003,3.3000000000000003,4.1000000000000005,-0.4,11.8,-54.699999999999996,8.4,0.2,16
520,8841.0,1.1,1.9000000000000001,5.1000000000000005,4.2,-0.8,13.200000000000001,-60.5,-5.300000000000001,-2.1,16
521,8859.0,0.6000000000000001,1.7000000000000002,7.6000000000000005,3.6,-1.3,17.3,-64.9,-13.700000000000001,-0.6000000000000001,16
522,8876.0,-0.30000000000000004,2.2,9.8,2.8000000000000003,-0.7000000000000001,18.6,-61.50000000000001,-12.100000000000001,8.899999999999999,16
523,8891.0,-0.6000000000000001,2.8000000000000003,10.0,2.8000000000000003,-0.7000000000000001,18.6,-43.70000000000001,-3.5,26.1,16
524,8911.0,-0.4,3.9000000000000004,9.0,3.0,0.9,17.1,-13.8,-1.1,45.3,16
525,8925.0,0.0,4.5,7.5,3.4000000000000004,1.3,15.9,16.6,-5.4,59.60000000000001,16
526,8941.0,0.4,4.6000000000000005,6.7,3.4000000000000004,1.3,15.9,43.900000000000006,-9.5,68.2,16
527,8958.0,1.2000000000000002,4.1000000000000005,4.9,4.0,1.2000000000000002,14.5,68.0,-14.200000000000001,68.80000000000001,16
528,8975.0,1.8,3.2,3.4000000000000004,5.1000000000000005,0.2,12.3,84.80000000000001,-21.500000000000004,62.300000000000004,16
529,8992.0,2.0,2.7,3.1,5.1000000000000005,0.2,12.3,94.5,-28.1,52.80000000000001,16
530,9008.0,2.2,1.6,3.2,5.4,-0.5,12.3,101.30000000000001,-30.599999999999998,41.7,16
531,9026.0,1.7000000000000002,0.6000000000000001,2.7,4.7,-1.6,11.700000000000001,106.20000000000002,-22.000000000000004,33.300000000000004,16
532,9041.0,1.1,0.1,1.7000000000000002,4.2,-1.5,10.700000000000001,108.8,-8.700000000000001,29.800000000000004,16
533,9062.0,0.8,0.1,1.0,4.2,-1.5,10.700000000000001,110.80000000000001,2.5,28.600000000000005,16
534,9075.0,0.30000000000000004,0.30000000000000004,-0.4,3.7,-1.1,9.600000000000001,114.40000000000002,5.500000000000001,27.2,16
535,9093.0,0.0,0.30000000000000004,-1.6,3.2,-0.5,7.7,118.69999999999999,1.4,24.400000000000002,16
536,9110.0,-0.1,-0.1,-2.2,3.1,-0.7000000000000001,7.300000000000001,121.30000000000001,-5.4,20.3,16
537,9125.0,-0.2,-0.5,-2.4000000000000004,3.1,-0.7000000000000001,7.300000000000001,122.50000000000001,-13.700000000000001,15.5,16
538,9141.0,-0.4,-1.3,-2.1,2.9000000000000004,-1.4000000000000001,7.7,122.50000000000001,-21.900000000000002,11.3,16
539,9158.0,-0.5,-2.2,-1.4000000000000001,2.9000000000000004,-1.4000000000000001,7.7,121.9,-24.200000000000003,8.8,16
540,9175.0,-0.4,-2.6,-1.3,3.0,-1.8,8.1,121.2,-20.7,7.1000000000000005,16
541,9191.0,-0.30000000000000004,-3.2,-1.5,3.2,-2.1,8.0,121.10000000000001,-17.1,4.0,16
542,9208.0,-0.30000000000000004,-3.7,-2.1,3.2,-2.4000000000000004,6.9,118.69999999999999,-15.6,-1.2000000000000002,16
543,9225.0,-0.30000000000000004,-3.9000000000000004,-2.4000000000000004,3.2,-2.4000000000000004,6.9,111.0,-15.2,-7.6,16
544,9241.0,-0.30000000000000004,-4.2,-2.4000000000000004,3.3000000000000003,-2.4000000000000004,6.7,99.39999999999999,-15.8,-15.100000000000001,16
545,9258.0,-0.5,-4.4,-2.3000000000000003,3.1,-2.3000000000000003,7.0,86.89999999999999,-14.300000000000002,-22.8,16
546,9275.0,-0.7000000000000001,-4.6000000000000005,-1.8,3.1,-2.3000000000000003,7.0,75.9,-11.3,-29.900000000000006,16
547,9292.0,-0.7000000000000001,-4.800000000000001,-1.8,2.9000000000000004,-2.4000000000000004,7.2,67.3,-5.7,-35.8,16
548,9308.0,-0.6000000000000001,-5.4,-2.3000000000000003,2.9000000000000004,-2.6,6.7,59.20000000000001,-2.6,-41.199999999999996,16
549,9325.0,-0.6000000000000001,-6.2,-2.8000000000000003,3.0,-3.8000000000000003,6.0,47.80000000000001,-4.800000000000001,-45.9,16
550,9341.0,-0.6000000000000001,-6.6000000000000005,-2.8000000000000003,3.0,-3.8000000000000003,6.0,30.4,-7.699999999999999,-47.60000000000001,16
551,9358.0,-0.6000000000000001,-7.2,-2.2,3.0,-4.4,6.4,9.3,-9.899999999999999,-45.6,16
552,9375.0,-0.6000000000000001,-7.300000000000001,-1.8,2.9000000000000004,-4.6000000000000005,7.0,-11.700000000000001,-8.2,-41.4,16
553,9391.0,-0.2,-6.7,-1.0,3.4000000000000004,-4.1000000000000005,7.800000000000001,-29.400000000000002,-5.7,-36.5,16
554,9408.0,0.0,-6.5,-0.9,3.4000000000000004,-4.1000000000000005,7.800000000000001,-44.00000000000001,-6.2,-35.1,16
555,9425.0,0.4,-6.300000000000001,-0.7000000000000001,3.7,-4.1000000000000005,8.0,-60.00000000000001,-8.0,-37.1,16
556,9441.0,0.4,-6.4,-0.2,3.7,-4.5,9.0,-77.80000000000001,-9.2,-40.5,16
557,9461.0,-0.4,-6.0,0.4,2.7,-4.3,9.3,-109.8,-2.1,-38.1,16
558,9475.0,-1.2000000000000002,-5.5,0.4,2.7,-4.3,9.3,-109.8,-2.1,-38.1,16
559,9493.0,-2.3000000000000003,-4.1000000000000005,0.7000000000000001,1.2000000000000002,-2.6,9.9,-120.10000000000001,4.6,-24.599999999999998,16
560,9508.0,-2.2,-3.4000000000000004,0.8,1.2000000000000002,-2.6,9.9,-120.10000000000001,-0.5,-6.4,16
561,9527.0,-1.2000000000000002,-2.9000000000000004,1.0,2.0,-2.4000000000000004,10.0,-113.60000000000001,-18.5,11.1,16
562,9546.0,0.0,-3.0,1.7000000000000002,3.2,-2.7,10.4,-107.4,-40.4,26.700000000000003,16
563,9558.0,0.8,-2.8000000000000003,2.8000000000000003,4.9,-3.0,12.200000000000001,-103.2,-56.0,40.2,16
564,9575.0,1.1,-2.5,3.4000000000000004,4.9,-3.0,12.200000000000001,-100.9,-57.800000000000004,50.8,16
565,9592.0,1.2000000000000002,-1.0,3.9000000000000004,5.2,-2.3000000000000003,12.700000000000001,-98.39999999999999,-43.800000000000004,54.800000000000004,16
566,9608.0,1.1,0.8,3.3000000000000003,5.1000000000000005,0.2,11.700000000000001,-95.80000000000001,-21.6,49.50000000000001,16
567,9625.0,0.9,2.3000000000000003,2.2,4.7,0.9,10.600000000000001,-93.49999999999999,1.8000000000000003,35.3,16
568,9641.0,0.6000000000000001,2.6,1.4000000000000001,4.7,0.9,10.600000000000001,-90.70000000000002,21.7,16.900000000000002,16
569,9658.0,-0.2,2.9000000000000004,0.0,4.0,1.0,9.3,-86.1,31.9,2.2,16
570,9675.0,-1.0,3.0,-1.0,2.6,1.0,7.7,-78.80000000000001,32.7,-4.4,16
571,9691.0,-1.2000000000000002,3.1,-1.2000000000000002,2.6,1.0,7.7,-68.7,25.900000000000002,-3.7000000000000006,16
572,9708.0,-1.0,3.4000000000000004,-1.5,2.6,1.1,7.4,-56.50000000000001,15.5,-0.5,16
573,9725.0,-0.4,3.6,-1.6,3.5,1.1,7.1000000000000005,-46.300000000000004,7.699999999999999,-1.1,16
574,9741.0,0.1,3.5,-1.8,3.5,1.1,7.1000000000000005,-41.800000000000004,7.200000000000001,-7.200000000000001,16
575,9758.0,0.2,3.3000000000000003,-1.8,3.8000000000000003,0.9,6.9,-44.5,12.5,-17.5,16
576,9775.0,0.0,2.9000000000000004,-1.6,3.7,0.5,7.0,-51.4,20.0,-27.5,16
577,9792.0,-0.1,2.5,-1.2000000000000002,3.4000000000000004,-0.30000000000000004,7.6000000000000005,-55.8,23.700000000000003,-32.400000000000006,16
578,9810.0,0.0,2.3000000000000003,-0.6000000000000001,3.5,-0.5,8.1,-51.0,15.700000000000001,-28.400000000000002,16
579,9826.0,0.1,2.3000000000000003,-0.4,3.5,-0.5,8.1,-51.0,15.700000000000001,-28.400000000000002,16
580,9841.0,0.4,2.4000000000000004,0.1,4.0,-0.6000000000000001,8.9,-45.5,10.8,-24.200000000000003,16
581,9858.0,0.6000000000000001,2.4000000000000004,0.4,4.0,-0.6000000000000001,8.9,-42.800000000000004,10.5,-21.1,16
582,9875.0,1.1,2.1,0.9,4.5,-0.8,9.3,-43.70000000000001,14.5,-20.1,16
583,9891.0,1.1,1.7000000000000002,1.4000000000000001,4.5,-1.8,10.100000000000001,-47.1,18.0,-20.7,16
584,9909.0,1.0,1.2000000000000002,1.9000000000000001,4.5,-2.2,10.600000000000001,-50.400000000000006,16.900000000000002,-18.1,16
585,9925.0,1.0,1.0,2.2,4.5,-2.2,10.600000000000001,-53.400000000000006,9.3,-11.700000000000001,16
586,9941.0,0.8,1.1,3.8000000000000003,4.3,-2.4000000000000004,11.700000000000001,-53.9,-1.5,-2.5,16
587,9958.0,1.2000000000000002,1.4000000000000001,5.1000000000000005,5.1000000000000005,-2.2,13.8,-48.2,-9.0,8.8,16
588,9975.0,1.8,1.5,6.1000000000000005,5.2,-2.3000000000000003,14.8,-40.9,-17.5,15.6,16
589,9991.0,1.6,1.4000000000000001,6.7,5.2,-2.3000000000000003,14.8,-36.7,-21.400000000000002,18.5,16
590,10008.0,1.0,1.8,7.800000000000001,4.2,-1.6,16.6,-31.6,-17.400000000000002,27.099999999999998,16
591,10026.0,0.4,3.0,8.200000000000001,3.9000000000000004,-0.4,16.3,-17.1,-9.5,41.1,16
592,10045.0,0.9,4.3,6.9,4.5,0.6000000000000001,15.0,40.5,-8.0,66.7,16
593,10059.0,1.4000000000000001,4.6000000000000005,5.9,4.5,0.6000000000000001,15.0,40.5,-8.0,66.7,16
594,10076.0,2.2,3.8000000000000003,3.8000000000000003,5.7,-0.30000000000000004,12.100000000000001,67.2,-22.000000000000004,61.199999999999996,16
595,10091.0,2.2,3.1,3.3000000000000003,5.7,-0.30000000000000004,12.100000000000001,79.6,-36.7,49.4,16
596,10108.0,2.0,1.6,3.4000000000000004,5.7,-1.4000000000000001,12.0,81.60000000000001,-47.3,39.2,16
597,10125.0,1.7000000000000002,0.6000000000000001,4.4,5.2,-2.6,13.700000000000001,81.0,-48.50000000000001,32.6,16
598,10142.0,1.1,0.4,5.0,4.800000000000001,-2.1,13.600000000000001,82.0,-35.0,30.4,16
599,10158.0,0.9,0.7000000000000001,4.5,4.800000000000001,-2.1,13.600000000000001,88.8,-13.399999999999999,29.300000000000004,16
600,10176.0,0.4,1.2000000000000002,2.7,4.4,-1.4000000000000001,12.3,98.8,2.7,23.900000000000006,16
601,10193.0,-0.1,1.3,0.7000000000000001,3.4000000000000004,-0.8,9.200000000000001,108.39999999999999,10.4,16.0,16
602,10210.0,-0.7000000000000001,0.9,-0.9,3.0,-0.9,8.3,115.39999999999999,9.600000000000001,7.9,16
603,10225.0,-0.8,0.6000000000000001,-1.2000000000000002,3.0,-0.9,8.3,119.0,1.7,2.4000000000000004,16
604,10241.0,-0.8,0.0,-1.1,3.0,-1.2000000000000002,8.4,122.10000000000002,-6.1000000000000005,0.30000000000000004,16
605,10258.0,-0.7000000000000001,-0.6000000000000001,-1.0,3.0,-1.2000000000000002,8.4,126.70000000000002,-10.1,-2.2,16
606,10275.0,-0.7000000000000001,-1.1,-1.1,3.1,-1.5,8.4,131.5,-10.600000000000001,-6.500000000000001,16
607,10291.0,-0.9,-2.1,-1.3,3.0,-2.0,8.200000000000001,135.0,-11.4,-11.3,16
608,10308.0,-1.4000000000000001,-3.3000000000000003,-1.8,2.4000000000000004,-3.1,7.300000000000001,138.8,-15.2,-12.9,16
609,10326.0,-1.6,-4.1000000000000005,-2.2,2.3000000000000003,-3.3000000000000003,7.0,140.70000000000002,-21.7,-11.1,16
610,10343.0,-1.7000000000000002,-4.4,-2.3000000000000003,2.3000000000000003,-3.3000000000000003,7.0,138.9,-27.2,-7.400000000000001,16
611,10358.0,-1.7000000000000002,-4.7,-2.5,2.4000000000000004,-3.1,6.5,131.6,-26.6,-3.0,16
612,10374.0,-1.6,-4.6000000000000005,-2.6,2.4000000000000004,-3.1,6.5,119.39999999999999,-19.9,0.1,16
613,10391.0,-1.5,-4.4,-3.0,2.6,-2.7,6.1000000000000005,106.0,-13.399999999999999,0.6000000000000001,16
614,10408.0,-1.2000000000000002,-4.4,-3.2,2.8000000000000003,-2.4000000000000004,5.7,93.3,-11.6,-1.4,16
615,10426.0,-1.0,-4.7,-3.5,3.3000000000000003,-2.7,5.4,82.39999999999999,-17.0,-6.2,16
616,10441.0,-0.8,-5.1000000000000005,-3.2,3.3000000000000003,-2.7,5.4,69.3,-26.5,-12.200000000000001,16
617,10458.0,-0.7000000000000001,-5.9,-2.1,3.5,-3.3000000000000003,6.2,51.4,-30.000000000000004,-16.8,16
618,10475.0,-0.5,-6.4,-1.4000000000000001,3.8000000000000003,-4.1000000000000005,7.5,31.400000000000002,-24.400000000000002,-18.900000000000002,16
619,10491.0,-0.5,-6.5,-1.0,3.8000000000000003,-4.1000000000000005,7.5,8.5,-12.9,-21.300000000000004,16
620,10512.0,-0.1,-6.1000000000000005,0.1,4.1000000000000005,-3.7,8.6,-28.0,11.6,-30.000000000000004,16
621,10527.0,0.0,-6.0,0.0,4.1000000000000005,-3.7,8.6,-28.0,11.6,-30.000000000000004,16
622,10541.0,0.0,-6.0,-1.0,4.1000000000000005,-4.0,7.300000000000001,-43.2,18.3,-37.2,16
623,10559.0,0.0,-6.1000000000000005,-1.4000000000000001,4.1000000000000005,-4.0,7.300000000000001,-63.0,17.1,-44.2,16
624,10575.0,-0.2,-6.6000000000000005,-1.1,3.9000000000000004,-4.6000000000000005,7.5,-86.89999999999999,10.299999999999999,-48.400000000000006,16
625,10591.0,-1.2000000000000002,-6.4,-0.1,2.1,-4.7,9.200000000000001,-108.90000000000002,7.300000000000001,-44.00000000000001,16
626,10608.0,-2.4000000000000004,-5.0,1.1,1.4000000000000001,-3.6,10.3,-124.10000000000001,7.699999999999999,-28.700000000000003,16
627,10625.0,-2.5,-4.1000000000000005,1.7000000000000002,1.4000000000000001,-3.6,10.3,-127.1,6.500000000000001,-4.5,16
628,10641.0,-1.5,-2.8000000000000003,2.4000000000000004,1.9000000000000001,-2.6,11.100000000000001,-115.50000000000003,-3.0,21.900000000000002,16
629,10658.0,-0.2,-2.4000000000000004,2.1,4.3,-2.4000000000000004,10.9,-98.39999999999999,-20.3,43.70000000000001,16
630,10675.0,0.4,-2.3000000000000003,2.0,4.3,-2.4000000000000004,10.9,-85.80000000000001,-40.5,60.5,16
631,10691.0,1.5,-1.9000000000000001,2.4000000000000004,5.4,-2.4000000000000004,11.0,-81.3,-55.7,71.6,16
632,10708.0,1.8,-0.7000000000000001,3.1,6.300000000000001,-1.0,11.9,-81.60000000000001,-55.7,74.80000000000001,16
633,10725.0,1.9000000000000001,0.9,3.3000000000000003,6.5,0.1,12.0,-83.70000000000002,-42.2,69.60000000000001,16
634,10741.0,2.0,1.7000000000000002,3.4000000000000004,6.5,0.1,12.0,-85.80000000000001,-19.1,55.5,16
635,10758.0,2.1,3.2,2.7,6.5,1.2000000000000002,11.8,-82.9,8.899999999999999,33.0,16
636,10775.0,1.3,3.7,0.5,5.1000000000000005,1.8,8.5,-77.00000000000001,33.9,7.6,16
637,10792.0,0.7000000000000001,3.6,-0.5,5.1000000000000005,1.8,8.5,-71.5,47.60000000000001,-13.8,16
638,10808.0,-0.30000000000000004,3.2,-2.1,4.1000000000000005,1.4000000000000001,7.0,-65.89999999999999,47.80000000000001,-25.8,16
639,10826.0,-0.9,2.8000000000000003,-2.7,3.0,0.6000000000000001,6.0,-59.5,39.699999999999996,-28.900000000000002,16
640,10842.0,-1.1,2.6,-2.8000000000000003,2.9000000000000004,0.4,5.9,-52.1,29.200000000000003,-27.6,16
641,10859.0,-1.1,2.5,-2.8000000000000003,2.9000000000000004,0.4,5.9,-45.6,20.2,-25.4,16
642,10875.0,-1.1,2.3000000000000003,-2.8000000000000003,2.8000000000000003,0.1,5.800000000000001,-43.2,15.000000000000002,-24.3,16
643,10891.0,-1.0,2.0,-2.3000000000000003,3.0,-0.4,6.5,-45.7,13.000000000000002,-23.800000000000004,16
644,10908.0,-0.9,2.0,-2.0,3.0,-0.4,6.5,-49.50000000000001,13.3,-22.9,16
645,10925.0,-0.5,1.8,-1.6,3.2,-0.6000000000000001,6.9,-51.0,11.900000000000002,-21.400000000000002,16
646,10941.0,-0.2,1.8,-1.3,3.9000000000000004,-0.9,7.5,-51.1,7.500000000000001,-19.799999999999997,16
647,10958.0,0.1,1.8,-1.0,3.9000000000000004,-0.9,7.5,-52.2,3.8,-17.5,16
648,10975.0,0.6000000000000001,1.7000000000000002,0.30000000000000004,4.3,-1.0,8.5,-52.2,4.1,-15.899999999999999,16
649,10991.0,1.0,1.8,0.8,4.7,-1.2000000000000002,9.1,-51.6,11.000000000000002,-15.5,16
650,11008.0,1.3,1.8,1.0,5.1000000000000005,-1.2000000000000002,9.4,-52.300000000000004,18.200000000000003,-18.0,16
651,11026.0,1.7000000000000002,1.9000000000000001,1.5,5.4,-1.2000000000000002,9.8,-54.0,21.7,-24.0,16
652,11048.0,1.4000000000000001,1.1,2.1,5.1000000000000005,-2.2,10.5,-62.4,19.9,-33.400000000000006,16
653,11062.0,1.1,0.9,2.8000000000000003,4.6000000000000005,-2.6,11.8,-62.4,19.9,-33.400000000000006,16
654,11076.0,0.7000000000000001,0.8,4.1000000000000005,4.6000000000000005,-2.8000000000000003,12.600000000000001,-69.00000000000001,20.7,-31.3,16
655,11100.0,0.9,0.7000000000000001,4.9,4.7,-2.9000000000000004,13.3,-69.20000000000002,15.399999999999999,-16.700000000000003,16
656,11108.0,0.8,0.8,5.4,4.4,-2.9000000000000004,14.100000000000001,-69.20000000000002,15.399999999999999,-16.700000000000003,16
657,11126.0,0.7000000000000001,0.9,5.9,4.4,-2.9000000000000004,14.100000000000001,-65.7,9.600000000000001,-4.1,16
658,11141.0,0.1,1.4000000000000001,7.0,3.9000000000000004,-2.7,15.0,-55.5,3.4,15.000000000000002,16
659,11158.0,-0.2,2.8000000000000003,7.4,3.5,-1.8,15.600000000000001,-34.400000000000006,-1.6,42.0,16
660,11174.0,0.8,4.4,6.6000000000000005,5.0,0.9,14.5,-3.3000000000000007,-9.899999999999999,68.60000000000001,16
661,11191.0,2.4000000000000004,5.4,5.2,6.300000000000001,1.4000000000000001,13.100000000000001,30.000000000000004,-22.2,82.60000000000001,16
662,11208.0,3.0,5.4,4.3,6.300000000000001,1.4000000000000001,13.100000000000001,56.400000000000006,-35.8,79.1,16
663,11225.0,3.3000000000000003,4.3,3.4000000000000004,6.9,-0.1,12.0,67.4,-45.5,63.70000000000001,16
664,11243.0,2.9000000000000004,3.0,3.7,6.5,-0.9,12.5,69.4,-50.0,48.0,16
665,11259.0,2.6,2.5,4.0,6.5,-0.9,12.5,71.19999999999999,-50.0,36.7,16
666,11276.0,2.0,1.9000000000000001,4.4,6.2,-1.4000000000000001,13.0,76.4,-43.6,29.900000000000006,16
667,11292.0,1.5,1.6,4.0,5.2,-1.3,12.5,83.4,-28.700000000000003,26.400000000000006,16
668,11310.0,0.8,1.7000000000000002,2.7,4.6000000000000005,-1.0,11.3,92.2,-13.3,23.2,16
669,11325.0,0.4,1.6,2.0,4.6000000000000005,-1.0,11.3,103.8,-5.300000000000001,19.5,16
670,11344.0,-0.2,1.3,0.7000000000000001,3.7,-1.0,9.200000000000001,115.9,-6.0,16.700000000000003,16
671,11360.0,-0.5,0.9,-0.30000000000000004,3.6,-1.0,8.5,126.20000000000002,-10.299999999999999,14.700000000000001,16
672,11376.0,-0.6000000000000001,0.4,-1.0,3.5,-1.1,8.1,138.50000000000003,-20.7,6.4,16
673,11391.0,-0.7000000000000001,0.1,-1.2000000000000002,3.5,-1.1,8.1,138.50000000000003,-20.7,6.4,16
674,11409.0,-0.8,-0.8,-1.4000000000000001,3.3000000000000003,-1.8,7.800000000000001,140.5,-20.8,0.6000000000000001,16
675,11425.0,-0.9,-1.3,-1.4000000000000001,3.3000000000000003,-1.8,7.800000000000001,140.70000000000002,-18.0,-4.1,16
676,11441.0,-0.8,-2.1,-1.6,3.4000000000000004,-2.2,7.6000000000000005,139.70000000000002,-14.300000000000002,-8.3,16
677,11459.0,-0.6000000000000001,-2.9000000000000004,-2.0,3.7,-2.8000000000000003,6.9,136.5,-11.700000000000001,-13.000000000000002,16
678,11475.0,-0.7000000000000001,-3.6,-2.4000000000000004,3.6,-3.0,6.5,130.0,-10.700000000000001,-18.3,16
679,11495.0,-0.9,-4.0,-2.8000000000000003,3.4000000000000004,-3.0,6.2,107.5,-8.3,-25.200000000000003,16
680,11508.0,-0.9,-4.1000000000000005,-2.9000000000000004,3.4000000000000004,-3.0,6.2,107.5,-8.3,-25.200000000000003,16
681,11525.0,-0.9,-4.1000000000000005,-2.4000000000000004,3.6,-2.7,6.7,95.69999999999999,-10.299999999999999,-28.500000000000004,16
682,11542.0,-0.6000000000000001,-4.4,-1.9000000000000001,3.9000000000000004,-2.8000000000000003,7.0,84.80000000000001,-11.700000000000001,-34.0,16
683,11558.0,-0.4,-4.7,-1.8,3.9000000000000004,-2.8000000000000003,7.0,74.30000000000001,-11.900000000000002,-41.4,16
684,11575.0,0.0,-5.5,-1.5,4.4,-3.8000000000000003,7.4,62.0,-12.200000000000001,-50.60000000000001,16
685,11592.0,0.0,-6.2,-1.0,4.3,-4.2,7.800000000000001,46.4,-11.000000000000002,-60.300000000000004,16
686,11608.0,-0.1,-6.6000000000000005,-0.7000000000000001,4.3,-4.2,7.800000000000001,29.200000000000003,-7.6,-68.4,16
687,11627.0,-0.5,-7.0,-0.2,4.0,-4.6000000000000005,8.3,11.5,-0.5,-74.10000000000001,16
688,11644.0,-0.8,-7.1000000000000005,-0.30000000000000004,3.4000000000000004,-5.0,8.3,-4.5,7.500000000000001,-77.20000000000002,16
689,11658.0,-0.7000000000000001,-7.300000000000001,-0.4,3.4000000000000004,-5.0,8.3,-18.6,9.4,-79.19999999999999,16
690,11676.0,-0.4,-7.800000000000001,-0.9,3.6,-5.5,7.9,-35.4,8.600000000000001,-79.7,16
691,11691.0,-0.4,-7.800000000000001,-0.8,3.0,-5.6000000000000005,8.0,-56.300000000000004,9.600000000000001,-77.60000000000001,16
692,11708.0,-0.9,-7.5,-0.8,3.0,-5.6000000000000005,8.0,-74.5,13.700000000000001,-73.6,16
693,11725.0,-2.3000000000000003,-6.300000000000001,-0.6000000000000001,1.7000000000000002,-4.800000000000001,8.200000000000001,-88.9,22.4,-64.0,16
694,11741.0,-2.8000000000000003,-4.9,-0.7000000000000001,0.9,-3.8000000000000003,8.3,-94.7,26.300000000000004,-47.7,16
695,11758.0,-2.0,-4.5,-1.3,2.1,-3.7,7.800000000000001,-94.10000000000001,16.1,-30.799999999999997,16
696,11774.0,-1.4000000000000001,-4.800000000000001,-1.2000000000000002,2.1,-3.7,7.800000000000001,-95.80000000000001,-6.600000000000001,-14.300000000000002,16
697,11791.0,-0.2,-5.300000000000001,-0.2,3.2,-4.5,8.4,-100.9,-35.3,4.1,16
698,11808.0,0.9,-5.1000000000000005,2.1,5.4,-4.6000000000000005,11.9,-103.00000000000001,-60.5,25.0,16
699,11824.0,1.6,-3.7,3.6,5.800000000000001,-3.4000000000000004,12.5,-99.8,-67.4,43.4,16
700,11841.0,1.6,-2.6,3.7,5.800000000000001,-3.4000000000000004,12.5,-95.69999999999999,-54.4,53.2,16
701,11858.0,1.6,-0.2,3.0,5.9,-1.6,12.100000000000001,-95.69999999999999,-29.300000000000004,47.80000000000001,16
702,11876.0,1.5,0.7000000000000001,2.3000000000000003,5.7,-0.2,11.100000000000001,-99.5,-2.6,27.9,16
703,11892.0,0.7000000000000001,1.7000000000000002,0.8,5.1000000000000005,0.4,9.8,-105.10000000000001,19.6,3.4,16
704,11910.0,-0.6000000000000001,1.7000000000000002,-0.4,3.9000000000000004,0.30000000000000004,8.700000000000001,-107.9,33.400000000000006,-14.5,16
705,11926.0,-1.6,1.7000000000000002,-1.1,2.2,-0.1,7.5,-104.3,34.50000000000001,-16.4,16
706,11942.0,-1.7000000000000002,2.0,-1.4000000000000001,2.3000000000000003,0.1,7.2,-92.3,23.900000000000006,-7.0,16
707,11958.0,-1.6,2.3000000000000003,-1.6,2.3000000000000003,0.1,7.2,-74.5,6.1000000000000005,5.4,16
708,11975.0,-1.0,2.7,-1.6,2.7,0.4,7.0,-59.40000000000001,-9.700000000000001,13.8,16
709,11991.0,-0.4,3.0,-1.6,3.8000000000000003,0.6000000000000001,7.2,-51.6,-14.800000000000002,15.8,16
710,12008.0,-0.2,3.1,-1.3,3.8000000000000003,0.6000000000000001,7.2,-51.2,-10.200000000000001,11.4,16
711,12024.0,0.0,3.1,-1.0,4.0,0.6000000000000001,7.5,-54.50000000000001,1.0,3.7000000000000006,16
712,12041.0,0.2,3.0,-1.0,4.1000000000000005,0.1,7.6000000000000005,-56.800000000000004,10.1,-4.5,16
713,12058.0,0.2,2.9000000000000004,-0.9,4.1000000000000005,0.1,7.6000000000000005,-58.400000000000006,15.100000000000001,-11.5,16
714,12076.0,0.2,2.6,-0.9,4.1000000000000005,-0.2,7.6000000000000005,-59.20000000000001,16.8,-15.299999999999999,16
715,12092.0,0.4,2.5,-0.7000000000000001,4.2,-0.5,7.5,-59.00000000000001,10.5,-15.399999999999999,16
716,12108.0,0.7000000000000001,2.0,0.7000000000000001,4.7,-1.4000000000000001,9.4,-57.800000000000004,-0.30000000000000004,-13.8,16
717,12125.0,0.7000000000000001,1.8,1.3,4.7,-1.4000000000000001,9.4,-58.3,-5.500000000000001,-11.700000000000001,16
718,12141.0,0.9,1.6,2.5,4.800000000000001,-1.7000000000000002,10.4,-61.10000000000001,-5.0,-9.100000000000001,16
719,12158.0,1.1,1.2000000000000002,3.9000000000000004,5.1000000000000005,-2.5,12.700000000000001,-65.3,-3.5,-7.500000000000001,16
720,12174.0,1.1,1.2000000000000002,4.7,5.1000000000000005,-2.5,12.700000000000001,-69.7,-1.7,-5.500000000000001,16
721,12191.0,1.3,1.1,5.7,5.2,-2.7,13.600000000000001,-72.10000000000001,-2.4000000000000004,-1.9,16
722,12208.0,1.2000000000000002,1.0,7.4,5.4,-3.0,14.700000000000001,-72.30000000000001,-9.8,1.9,16
723,12224.0,0.5,1.5,9.600000000000001,4.2,-2.3000000000000003,18.0,-66.80000000000001,-12.100000000000001,12.4,16
724,12242.0,0.0,2.1,10.100000000000001,4.2,-2.3000000000000003,18.0,-48.2,-8.5,30.699999999999996,16
725,12258.0,-0.30000000000000004,3.7,9.700000000000001,3.7,-1.1,18.0,-17.9,-3.8,53.599999999999994,16
726,12275.0,0.6000000000000001,5.0,8.1,4.9,0.9,15.4,18.6,-5.9,72.2,16
727,12291.0,1.2000000000000002,5.2,7.0,4.9,0.9,15.4,53.9,-13.100000000000001,78.60000000000001,16
728,12310.0,2.0,4.7,4.5,5.7,0.8,13.4,79.5,-22.1,73.0,16
729,12331.0,2.2,2.8000000000000003,2.7,6.2,-0.9,11.200000000000001,90.6,-36.8,48.800000000000004,16
730,12345.0,2.2,2.3000000000000003,2.6,6.2,-1.6,11.200000000000001,90.6,-36.8,48.800000000000004,16
731,12358.0,2.2,1.8,2.6,6.2,-1.6,11.200000000000001,89.5,-40.800000000000004,38.800000000000004,16
732,12375.0,1.7000000000000002,1.0,3.0,5.9,-2.2,11.5,89.10000000000001,-37.300000000000004,32.6,16
733,12391.0,0.9,0.6000000000000001,2.9000000000000004,4.6000000000000005,-2.4000000000000004,11.5,91.50000000000001,-26.200000000000003,32.0,16
734,12408.0,0.4,0.5,2.6,4.6000000000000005,-2.4000000000000004,11.5,98.60000000000001,-13.100000000000001,35.599999999999994,16
735,12425.0,-0.2,0.8,0.9,4.0,-1.9000000000000001,10.200000000000001,108.8,-6.9,40.4,16
736,12441.0,-0.30000000000000004,0.9,-0.4,3.9000000000000004,-1.2000000000000002,8.3,117.20000000000002,-13.000000000000002,44.10000000000001,16
737,12458.0,-0.1,1.0,-0.8,4.2,-0.8,8.200000000000001,123.8,-24.0,44.10000000000001,16
738,12474.0,0.0,1.0,-0.8,4.2,-0.8,8.200000000000001,128.70000000000002,-32.5,38.800000000000004,16
739,12491.0,0.0,0.7000000000000001,-0.8,4.3,-0.7000000000000001,8.3,131.10000000000002,-34.50000000000001,28.3,16
740,12508.0,-0.1,-0.1,-0.6000000000000001,4.2,-1.4000000000000001,8.3,131.9,-30.000000000000004,14.5,16
741,12525.0,-0.2,-0.6000000000000001,-0.8,4.2,-1.4000000000000001,8.3,131.4,-21.1,1.2000000000000002,16
742,12542.0,-0.4,-1.6,-1.2000000000000002,4.1000000000000005,-1.9000000000000001,8.0,128.5,-12.0,-10.200000000000001,16
743,12560.0,-0.5,-2.5,-1.6,3.8000000000000003,-2.7,7.2,124.7,-6.600000000000001,-19.1,16
744,12579.0,-0.8,-3.2,-2.1,3.5,-2.9000000000000004,6.800000000000001,120.4,-4.4,-25.5,16
745,12591.0,-1.0,-3.4000000000000004,-2.3000000000000003,3.5,-2.9000000000000004,6.800000000000001,115.3,-5.4,-29.800000000000004,16
746,12608.0,-1.6,-3.8000000000000003,-2.3000000000000003,3.0,-2.9000000000000004,6.7,109.60000000000001,-6.2,-31.9,16
747,12625.0,-1.8,-4.0,-2.4000000000000004,2.6,-2.9000000000000004,6.6000000000000005,105.60000000000002,-7.400000000000001,-31.7,16
748,12641.0,-2.1,-4.6000000000000005,-3.1,2.5,-3.2,5.6000000000000005,101.10000000000001,-11.1,-31.099999999999998,16
749,12658.0,-1.9000000000000001,-4.9,-3.2,2.5,-3.2,5.6000000000000005,91.0,-18.4,-31.400000000000002,16
750,12674.0,-1.5,-5.5,-2.7,3.4000000000000004,-3.8000000000000003,6.4,74.5,-25.1,-32.5,16
751,12691.0,-1.0,-6.1000000000000005,-1.6,3.8000000000000003,-4.2,7.2,56.50000000000001,-28.400000000000002,-34.60000000000001,16
752,12708.0,-0.8,-6.300000000000001,-1.3,3.8000000000000003,-4.2,7.2,38.800000000000004,-27.6,-37.50000000000001,16
753,12725.0,-0.6000000000000001,-6.7,-0.2,4.0,-4.5,8.0,21.0,-22.5,-41.1,16
754,12741.0,-0.2,-6.9,0.0,4.6000000000000005,-5.1000000000000005,8.5,4.300000000000001,-14.5,-46.199999999999996,16
755,12760.0,0.1,-7.300000000000001,0.0,4.7,-5.300000000000001,8.5,-16.0,-6.1000000000000005,-53.9,16
756,12777.0,0.2,-7.4,-0.1,4.7,-5.300000000000001,8.5,-41.0,5.500000000000001,-61.10000000000001,16
757,12791.0,0.0,-7.4,-0.2,4.1000000000000005,-5.6000000000000005,8.5,-64.7,13.200000000000003,-66.60000000000001,16
758,12808.0,-0.9,-7.0,-0.1,3.0,-5.300000000000001,8.8,-85.1,17.200000000000003,-69.00000000000001,16
759,12824.0,-1.6,-6.6000000000000005,0.1,3.0,-5.300000000000001,8.8,-101.4,21.7,-64.0,16
760,12842.0,-2.8000000000000003,-5.5,0.4,1.7000000000000002,-4.7,9.1,-110.6,27.0,-47.400000000000006,16
761,12864.0,-2.7,-4.6000000000000005,0.2,2.0,-3.8000000000000003,9.200000000000001,-110.6,23.099999999999998,-21.7,16
762,12875.0,-2.0,-4.4,0.30000000000000004,2.0,-3.8000000000000003,9.200000000000001,-104.80000000000001,5.1000000000000005,7.1000000000000005,16
763,12893.0,-0.4,-4.1000000000000005,1.1,3.3000000000000003,-3.9000000000000004,9.8,-95.60000000000002,-18.6,34.900000000000006,16
764,12910.0,1.0,-3.7,2.1,5.800000000000001,-3.6,11.100000000000001,-84.1,-40.5,56.7,16
765,12925.0,1.7000000000000002,-2.4000000000000004,2.4000000000000004,6.1000000000000005,-2.5,11.0,-76.1,-46.4,70.3,16
766,12941.0,1.6,-1.5,2.1,6.1000000000000005,-2.5,11.0,-75.3,-34.1,73.0,16
767,12958.0,1.2000000000000002,0.4,1.2000000000000002,5.800000000000001,-1.1,10.200000000000001,-80.50000000000001,-14.300000000000002,63.30000000000001,16
768,12976.0,0.6000000000000001,1.6,0.5,4.9,0.30000000000000004,9.1,-86.5,2.0,47.3,16
769,12992.0,0.2,2.0,0.0,4.5,0.4,8.6,-83.4,18.0,22.3,16
770,13008.0,0.1,2.2,-0.2,4.5,0.4,8.6,-83.4,18.0,22.3,16
771,13030.0,-0.2,2.8000000000000003,-0.8,4.0,1.0,7.4,-73.4,17.799999999999997,18.200000000000003,16
772,13041.0,-0.4,3.3000000000000003,-1.7000000000000002,3.8000000000000003,1.3,6.7,-60.5,12.600000000000001,15.100000000000001,16
773,13058.0,-0.5,3.6,-2.0,3.8000000000000003,1.3,6.7,-49.800000000000004,5.9,9.700000000000001,16
774,13076.0,-0.7000000000000001,3.6,-2.3000000000000003,3.6,1.4000000000000001,6.300000000000001,-45.9,2.5,0.6000000000000001,16
775,13091.0,-0.7000000000000001,3.3000000000000003,-1.9000000000000001,3.5,0.7000000000000001,6.9,-48.6,6.0,-10.600000000000001,16
776,13109.0,-0.7000000000000001,3.0,-1.5,3.5,0.7000000000000001,6.9,-52.900000000000006,14.400000000000002,-21.300000000000004,16
777,13124.0,-0.8,2.5,-1.3,3.4000000000000004,0.1,7.1000000000000005,-54.4,21.6,-29.300000000000004,16
778,13141.0,-0.9,2.0,-1.3,3.3000000000000003,-0.7000000000000001,7.2,-53.7,23.2,-32.6,16
779,13166.0,-0.6000000000000001,1.7000000000000002,-0.9,3.5,-1.0,7.7,-53.300000000000004,19.799999999999997,-32.2,16
780,13177.0,-0.5,1.6,-0.5,3.7,-1.2000000000000002,8.0,-54.0,11.700000000000001,-28.400000000000002,16
781,13192.0,-0.30000000000000004,1.5,-0.2,3.7,-1.2000000000000002,8.0,-54.0,11.700000000000001,-28.400000000000002,16
782,13208.0,0.1,1.3,0.7000000000000001,4.3,-1.8,9.3,-57.20000000000001,10.4,-26.799999999999997,16
783,13226.0,0.4,0.9,1.7000000000000002,4.4,-2.4000000000000004,10.4,-68.60000000000001,11.8,-25.900000000000002,16
784,13241.0,0.4,0.6000000000000001,2.7,4.4,-2.4000000000000004,10.4,-68.60000000000001,11.8,-25.900000000000002,16
785,13258.0,0.2,0.4,3.8000000000000003,4.2,-3.0,12.200000000000001,-70.2,16.1,-19.5,16
786,13274.0,0.2,0.5,4.0,4.2,-3.0,12.200000000000001,-67.3,17.400000000000002,-8.0,16
787,13291.0,0.1,1.0,4.5,4.1000000000000005,-2.7,12.600000000000001,-62.0,14.100000000000001,6.500000000000001,16
788,13308.0,1.0,1.6,4.800000000000001,4.5,-2.3000000000000003,12.9,-53.7,4.300000000000001,21.1,16
789,13324.0,1.3,1.6,6.300000000000001,5.300000000000001,-2.3000000000000003,14.8,-45.5,-10.299999999999999,30.000000000000004,16
790,13342.0,1.4000000000000001,1.7000000000000002,6.800000000000001,5.300000000000001,-2.3000000000000003,14.8,-38.400000000000006,-15.100000000000001,39.50000000000001,16
791,13358.0,1.3,2.4000000000000004,8.0,5.300000000000001,-2.0,15.8,-28.800000000000004,-13.6,51.50000000000001,16
792,13375.0,1.5,3.9000000000000004,7.9,5.6000000000000005,0.30000000000000004,15.600000000000001,-8.100000000000001,-7.8,65.3,16
793,13391.0,2.4000000000000004,5.1000000000000005,6.4,6.5,1.1,14.100000000000001,20.599999999999998,-5.7,75.5,16
794,13409.0,2.9000000000000004,5.300000000000001,5.300000000000001,6.5,1.1,14.100000000000001,50.0,-9.5,75.1,16
795,13425.0,3.5,4.4,3.0,7.2,0.9,12.200000000000001,69.20000000000002,-18.5,61.50000000000001,16
796,13443.0,3.0,2.8000000000000003,2.0,6.7,-1.2000000000000002,10.600000000000001,73.30000000000001,-27.2,45.9,16
797,13459.0,2.8000000000000003,2.2,2.0,6.7,-1.2000000000000002,10.600000000000001,69.7,-33.9,35.2,16
798,13474.0,2.3000000000000003,1.5,2.4000000000000004,6.4,-1.8,10.9,66.1,-37.50000000000001,28.700000000000003,16
799,13491.0,1.8,1.3,2.7,5.7,-2.0,11.4,63.900000000000006,-33.400000000000006,26.1,16
800,13508.0,1.6,1.2000000000000002,2.7,5.7,-2.0,11.4,65.8,-25.900000000000002,25.0,16
801,13524.0,1.0,1.3,2.3000000000000003,5.2,-1.8,11.200000000000001,72.9,-18.900000000000002,23.900000000000006,16
802,13543.0,0.30000000000000004,1.3,1.5,4.3,-1.3,10.0,84.6,-17.0,23.900000000000006,16
803,13559.0,-0.1,1.3,0.6000000000000001,4.0,-1.1,9.200000000000001,98.2,-20.1,24.400000000000002,16
804,13575.0,-0.30000000000000004,1.2000000000000002,0.1,4.0,-1.1,9.200000000000001,110.10000000000001,-25.1,24.1,16
805,13591.0,-0.30000000000000004,1.1,-0.30000000000000004,3.9000000000000004,-0.9,8.8,118.3,-28.700000000000003,21.400000000000002,16
806,13608.0,-0.2,0.6000000000000001,-0.6000000000000001,4.2,-1.2000000000000002,8.3,123.8,-29.1,14.5,16
807,13625.0,-0.2,0.2,-0.8,4.2,-1.2000000000000002,8.3,126.60000000000002,-26.700000000000003,5.1000000000000005,16
808,13641.0,-0.4,-0.8,-1.1,4.1000000000000005,-1.6,8.0,126.70000000000002,-22.4,-3.9,16
809,13658.0,-0.7000000000000001,-1.7000000000000002,-1.6,3.7,-2.6,7.2,125.4,-19.799999999999997,-10.5,16
810,13676.0,-1.2000000000000002,-2.7,-2.0,3.3000000000000003,-3.2,6.9,123.8,-23.5,-14.600000000000001,16
811,13691.0,-1.5,-3.3000000000000003,-2.1,3.3000000000000003,-3.2,6.9,122.50000000000001,-33.300000000000004,-14.300000000000002,16
812,13708.0,-1.8,-4.0,-1.9000000000000001,3.0,-3.6,6.800000000000001,120.10000000000001,-43.70000000000001,-9.4,16
813,13724.0,-1.6,-4.0,-1.4000000000000001,3.5,-3.2,7.4,116.80000000000001,-49.199999999999996,-4.800000000000001,16
814,13742.0,-1.5,-3.9000000000000004,-1.3,3.5,-3.2,7.4,111.0,-44.300000000000004,-6.0,16
815,13758.0,-1.4000000000000001,-3.8000000000000003,-1.3,3.6,-2.8000000000000003,7.300000000000001,99.7,-28.700000000000003,-12.299999999999999,16
816,13774.0,-1.2000000000000002,-4.0,-2.1,3.8000000000000003,-2.8000000000000003,6.0,86.00000000000001,-12.4,-23.099999999999998,16
817,13791.0,-1.2000000000000002,-4.7,-2.9000000000000004,3.8000000000000003,-3.4000000000000004,5.5,70.3,-5.7,-36.5,16
818,13808.0,-1.2000000000000002,-5.2,-3.0,3.8000000000000003,-3.4000000000000004,5.5,50.400000000000006,-7.6,-47.60000000000001,16
819,13824.0,-1.1,-6.300000000000001,-2.1,3.9000000000000004,-4.3,6.0,29.600000000000005,-13.200000000000003,-53.7,16
820,13842.0,-1.1,-7.0,-0.7000000000000001,3.8000000000000003,-5.4,8.200000000000001,12.100000000000001,-16.8,-55.7,16
821,13858.0,-1.2000000000000002,-7.2,0.0,3.8000000000000003,-5.4,8.200000000000001,-2.6,-11.4,-53.8,16
822,13879.0,-0.9,-7.0,0.0,4.1000000000000005,-5.300000000000001,8.3,-28.800000000000004,14.600000000000001,-47.900000000000006,16
823,13891.0,-0.7000000000000001,-6.9,-0.5,4.4,-5.2,7.6000000000000005,-28.800000000000004,14.600000000000001,-47.900000000000006,16
824,13911.0,-0.2,-6.6000000000000005,-1.3,4.5,-5.2,7.0,-45.9,22.4,-49.300000000000004,16
825,13926.0,-0.30000000000000004,-6.6000000000000005,-1.6,4.5,-5.2,7.0,-66.80000000000001,26.000000000000004,-53.8,16
826,13942.0,-0.9,-6.300000000000001,-1.8,4.0,-5.1000000000000005,6.800000000000001,-91.6,28.0,-58.3,16
827,13960.0,-2.0,-5.5,-1.1,2.3000000000000003,-4.3,8.200000000000001,-115.39999999999999,31.400000000000002,-56.10000000000001,16
828,13975.0,-2.2,-4.9,-0.4,2.3000000000000003,-4.3,8.200000000000001,-129.20000000000002,31.400000000000002,-44.300000000000004,16
829,13991.0,-1.6,-4.2,0.9,2.5,-3.9000000000000004,9.4,-126.70000000000002,22.9,-27.0,16
830,14008.0,-0.6000000000000001,-4.1000000000000005,1.2000000000000002,4.3,-4.4,10.0,-113.7,4.2,-7.8,16
831,14025.0,0.30000000000000004,-4.2,1.5,5.0,-4.7,10.4,-100.70000000000002,-20.400000000000002,10.299999999999999,16
832,14045.0,0.8,-3.7,2.2,5.4,-4.3,11.0,-92.2,-41.4,39.50000000000001,16
833,14060.0,0.8,-3.0,2.5,5.4,-4.3,11.0,-92.2,-41.4,39.50000000000001,16
834,14076.0,0.5,-1.0,2.7,5.1000000000000005,-1.7000000000000002,11.100000000000001,-93.2,-28.0,44.9,16
835,14092.0,0.4,0.7000000000000001,2.0,5.0,-0.7000000000000001,10.3,-91.90000000000002,9.3,32.1,16
836,14108.0,0.4,1.4000000000000001,1.4000000000000001,5.0,-0.7000000000000001,10.3,-91.90000000000002,9.3,32.1,16
837,14127.0,0.30000000000000004,2.3000000000000003,0.2,4.6000000000000005,0.4,8.3,-91.8,25.300000000000004,18.200000000000003,16
838,14141.0,-0.1,2.8000000000000003,-0.7000000000000001,4.2,0.5,7.6000000000000005,-90.19999999999999,35.0,5.6,16
839,14158.0,-0.30000000000000004,2.9000000000000004,-1.1,4.2,0.5,7.6000000000000005,-84.5,36.9,-2.5,16
840,14175.0,-0.7000000000000001,3.0,-1.8,3.7,0.5,6.9,-75.60000000000001,30.799999999999997,-6.300000000000001,16
841,14191.0,-1.0,3.0,-2.3000000000000003,3.2,0.1,6.1000000000000005,-66.9,20.400000000000002,-7.200000000000001,16
842,14208.0,-1.0,2.9000000000000004,-2.3000000000000003,3.2,0.1,6.1000000000000005,-61.50000000000001,10.600000000000001,-7.400000000000001,16
843,14225.0,-1.0,2.6,-2.0,3.2,-0.2,6.2,-60.400000000000006,5.0,-8.0,16
844,14242.0,-0.9,2.5,-1.5,3.3000000000000003,-0.7000000000000001,6.9,-63.500000000000014,6.9,-9.3,16
845,14263.0,-0.9,2.4000000000000004,-1.2000000000000002,3.3000000000000003,-0.8,7.1000000000000005,-67.9,11.8,-10.5,16
846,14275.0,-0.9,2.4000000000000004,-1.0,3.3000000000000003,-0.8,7.1000000000000005,-71.6,14.600000000000001,-11.000000000000002,16
847,14291.0,-0.8,2.4000000000000004,-0.4,3.3000000000000003,-1.0,7.4,-73.7,12.4,-9.4,16
848,14308.0,-0.6000000000000001,2.3000000000000003,0.7000000000000001,3.6,-1.4000000000000001,9.1,-72.2,7.500000000000001,-3.6000000000000005,16
849,14324.0,-0.4,2.4000000000000004,1.2000000000000002,3.6,-1.4000000000000001,9.1,-67.3,4.6,5.0,16
850,14341.0,0.5,2.9000000000000004,1.9000000000000001,4.2,-1.1,9.700000000000001,-60.900000000000006,2.0,12.200000000000001,16
851,14358.0,1.3,2.9000000000000004,2.6,5.5,-1.3,11.100000000000001,-56.2,-2.4000000000000004,12.600000000000001,16
852,14374.0,1.4000000000000001,2.8000000000000003,3.3000000000000003,5.5,-1.3,11.100000000000001,-55.900000000000006,-3.0,10.5,16
853,14391.0,1.9000000000000001,2.7,4.9,5.800000000000001,-1.5,12.4,-55.60000000000001,2.2,10.200000000000001,16
854,14408.0,2.3000000000000003,2.8000000000000003,6.4,6.2,-1.6,13.700000000000001,-50.3,7.300000000000001,9.2,16
855,14424.0,2.3000000000000003,3.2,6.9,6.6000000000000005,-1.1,14.600000000000001,-38.7,13.6,8.600000000000001,16
856,14442.0,3.0,3.2,6.4,7.0,-1.3,14.3,-12.9,9.4,-0.5,16
857,14458.0,3.0,3.0,6.300000000000001,7.0,-1.3,14.3,-12.9,9.4,-0.5,16
858,14476.0,2.5,2.4000000000000004,6.800000000000001,6.1000000000000005,-2.2,15.200000000000001,-10.0,8.0,-6.300000000000001,16
859,14492.0,1.6,2.2,7.5,5.4,-2.1,15.5,-4.5,11.6,-5.300000000000001,16
860,14509.0,1.3,2.4000000000000004,7.4,5.4,-2.1,15.5,10.700000000000001,17.7,3.0,16
861,14525.0,1.3,3.0,6.0,5.1000000000000005,-1.5,14.8,34.800000000000004,20.3,15.6,16
862,14542.0,1.5,3.1,3.9000000000000004,5.5,-0.9,11.600000000000001,59.300000000000004,15.8,24.400000000000002,16
863,14558.0,1.7000000000000002,3.0,2.9000000000000004,5.5,-0.9,11.600000000000001,77.00000000000001,5.8,27.700000000000003,16
864,14574.0,1.8,2.1,1.9000000000000001,5.7,-1.3,10.600000000000001,86.60000000000001,-10.1,25.0,16
865,14591.0,1.8,1.0,2.0,5.7,-2.7,11.0,89.10000000000001,-24.400000000000002,21.6,16
866,14608.0,1.5,0.2,2.7,5.300000000000001,-3.2,11.700000000000001,89.5,-34.400000000000006,18.0,16
867,14625.0,1.1,-0.2,3.0,5.300000000000001,-3.2,11.700000000000001,90.19999999999999,-35.8,16.0,16
868,14641.0,0.5,-0.30000000000000004,3.3000000000000003,4.800000000000001,-3.3000000000000003,12.100000000000001,91.8,-24.8,18.1,16
869,14658.0,0.0,0.0,2.4000000000000004,3.8000000000000003,-2.4000000000000004,11.0,98.2,-12.5,20.0,16
870,14675.0,-0.4,0.1,1.8,3.8000000000000003,-2.4000000000000004,11.0,106.9,-4.6,21.1,16
871,14691.0,-0.7000000000000001,0.2,0.5,3.5,-2.0,10.0,116.30000000000001,-1.0,23.2,16
872,14708.0,-0.7000000000000001,0.30000000000000004,-0.8,3.4000000000000004,-1.3,8.0,125.00000000000001,-3.4,23.900000000000006,16
873,14724.0,-0.6000000000000001,0.2,-1.3,3.4000000000000004,-1.3,8.0,131.2,-9.8,22.5,16
874,14741.0,-0.5,-0.1,-1.7000000000000002,3.6,-1.2000000000000002,7.6000000000000005,135.1,-16.6,18.200000000000003,16
875,14758.0,-0.5,-0.8,-1.8,3.7,-1.8,7.5,136.9,-21.400000000000002,10.8,16
876,14774.0,-0.5,-1.8,-1.7000000000000002,3.7,-2.3000000000000003,7.5,135.9,-22.8,2.6,16
877,14791.0,-0.6000000000000001,-2.3000000000000003,-1.7000000000000002,3.7,-2.3000000000000003,7.5,132.4,-19.6,-4.7,16
878,14808.0,-0.8,-3.2,-1.9000000000000001,3.6,-2.8000000000000003,7.4,128.0,-16.6,-11.2,16
879,14825.0,-1.0,-4.1000000000000005,-2.3000000000000003,3.3000000000000003,-3.5,6.800000000000001,121.0,-14.600000000000001,-15.8,16
880,14841.0,-1.2000000000000002,-4.4,-2.3000000000000003,3.2,-3.4000000000000004,6.6000000000000005,111.70000000000002,-12.100000000000001,-17.6,16
881,14858.0,-1.2000000000000002,-4.5,-2.4000000000000004,3.2,-3.4000000000000004,6.6000000000000005,103.00000000000001,-9.600000000000001,-18.200000000000003,16
882,14875.0,-1.3,-4.5,-2.6,3.1,-3.2,6.4,93.4,-8.0,-19.6,16
883,14892.0,-1.3,-4.6000000000000005,-2.9000000000000004,3.1,-3.0,5.9,82.39999999999999,-5.500000000000001,-21.400000000000002,16
884,14908.0,-1.3,-4.7,-3.0,3.1,-3.0,5.9,71.39999999999999,-5.500000000000001,-24.200000000000003,16
885,14924.0,-1.1,-5.2,-3.3000000000000003,3.2,-3.2,5.5,59.9,-9.4,-27.0,16
886,14942.0,-0.7000000000000001,-5.800000000000001,-2.9000000000000004,3.8000000000000003,-4.0,6.1000000000000005,45.400000000000006,-17.400000000000002,-27.9,16
887,14958.0,-0.6000000000000001,-6.1000000000000005,-2.4000000000000004,3.8000000000000003,-4.0,6.1000000000000005,30.1,-25.6,-26.1,16
888,14975.0,-0.2,-6.0,-1.0,4.2,-4.0,7.2,15.299999999999999,-30.799999999999997,-21.200000000000003,16
889,14991.0,0.7000000000000001,-5.2,0.1,5.9,-3.1,8.6,3.3000000000000007,-31.0,-18.1,16
890,15008.0,1.6,-5.300000000000001,0.4,6.5,-3.6,9.1,-8.0,-32.5,-24.7,16
891,15028.0,2.0,-6.1000000000000005,1.1,6.7,-4.4,9.700000000000001,-49.0,-23.6,-49.199999999999996,16
892,15041.0,1.9000000000000001,-6.4,1.5,6.7,-4.4,9.700000000000001,-49.0,-23.6,-49.199999999999996,16
893,15058.0,0.7000000000000001,-5.9,2.2,4.800000000000001,-3.7,10.9,-71.39999999999999,-7.300000000000001,-53.2,16
894,15074.0,-0.1,-5.0,2.4000000000000004,4.800000000000001,-3.7,10.9,-81.8,7.9,-46.7,16
895,15091.0,-1.2000000000000002,-3.0,2.2,3.6,-2.1,11.0,-75.5,14.5,-30.200000000000003,16
896,15108.0,0.0,-1.5,1.0,5.6000000000000005,-0.2,9.1,-59.9,6.1000000000000005,-14.0,16
897,15125.0,1.0,-1.3,0.30000000000000004,5.6000000000000005,-0.2,9.1,-49.6,-12.0,-11.000000000000002,16
898,15141.0,2.2,-1.7000000000000002,0.1,6.800000000000001,-0.6000000000000001,8.700000000000001,-52.300000000000004,-25.8,-19.1,16
899,15159.0,2.0,-2.5,0.9,7.1000000000000005,-1.5,9.3,-64.50000000000001,-23.900000000000006,-31.2,16
900,15174.0,0.6000000000000001,-2.9000000000000004,1.6,6.1000000000000005,-2.1,10.0,-73.6,-13.8,-40.7,16
901,15191.0,-0.1,-2.7,1.6,4.800000000000001,-2.3000000000000003,10.3,-76.89999999999999,3.3000000000000007,-41.800000000000004,16
902,15208.0,-1.3,-1.9000000000000001,0.7000000000000001,3.7,-1.7000000000000002,9.700000000000001,-74.2,21.0,-36.400000000000006,16
903,15225.0,-1.4000000000000001,-1.1,-1.0,3.1,-0.6000000000000001,7.0,-68.0,33.1,-26.700000000000003,16
904,15241.0,-1.5,-0.30000000000000004,-2.7,3.0,-0.2,5.7,-60.00000000000001,35.2,-16.900000000000002,16
905,15258.0,-1.5,0.0,-3.4000000000000004,3.0,-0.2,5.7,-52.00000000000001,26.200000000000003,-8.700000000000001,16
906,15274.0,-1.6,0.2,-4.5,2.9000000000000004,0.0,4.7,-47.7,10.9,-3.1,16
907,15291.0,-1.7000000000000002,0.1,-4.5,2.8000000000000003,-0.4,4.5,-51.300000000000004,-3.4,1.4,16
908,15308.0,-1.7000000000000002,0.1,-4.2,2.8000000000000003,-0.4,4.5,-59.699999999999996,-11.000000000000002,5.6,16
909,15324.0,-1.5,0.2,-3.5,2.9000000000000004,-0.5,5.0,-68.4,-11.900000000000002,8.4,16
910,15341.0,-1.5,0.4,-2.9000000000000004,3.0,-0.6000000000000001,6.0,-74.80000000000001,-12.100000000000001,9.0,16
911,15358.0,-1.5,0.5,-2.5,3.0,-0.6000000000000001,6.0,-80.0,-14.800000000000002,9.8,16
912,15375.0,-1.7000000000000002,0.7000000000000001,-1.5,2.9000000000000004,-0.7000000000000001,6.800000000000001,-83.2,-18.4,14.100000000000001,16
913,15392.0,-1.5,1.1,-0.5,3.0,-0.5,7.6000000000000005,-82.10000000000001,-22.5,21.8,16
914,15410.0,-0.6000000000000001,1.8,0.1,4.4,0.1,8.700000000000001,-77.9,-26.000000000000004,28.500000000000004,16
915,15426.0,0.2,2.4000000000000004,0.8,4.4,0.1,8.700000000000001,-74.5,-27.5,30.000000000000004,16
916,15444.0,0.6000000000000001,2.5,1.1,5.1000000000000005,0.4,9.1,-73.4,-26.000000000000004,24.400000000000002,16
917,15459.0,0.8,2.7,2.0,5.6000000000000005,0.4,10.200000000000001,-76.2,-17.9,14.800000000000002,16
918,15475.0,0.8,3.0,2.1,5.6000000000000005,0.30000000000000004,10.100000000000001,-78.4,-7.6,4.7,16
919,15491.0,0.8,2.8000000000000003,2.1,5.6000000000000005,0.30000000000000004,10.100000000000001,-80.4,-3.5,-6.0,16
920,15508.0,0.2,2.5,2.9000000000000004,5.300000000000001,-0.2,10.5,-84.6,-2.4000000000000004,-12.4,16
921,15524.0,0.1,2.6,4.5,5.1000000000000005,-0.30000000000000004,12.9,-84.69999999999999,-1.0,-10.1,16
922,15542.0,0.5,3.2,5.300000000000001,5.4,0.1,13.100000000000001,-57.9,1.4,-0.4,16
923,15560.0,0.7000000000000001,3.5,5.1000000000000005,5.4,0.1,13.100000000000001,-57.9,1.4,-0.4,16
924,15578.0,1.9000000000000001,3.4000000000000004,4.3,7.0,-0.4,12.3,-50.0,2.6,-3.8,16
925,15592.0,1.7000000000000002,2.3000000000000003,5.300000000000001,6.2,-1.4000000000000001,13.9,-51.800000000000004,-2.2,-14.900000000000002,16
926,15609.0,1.0,1.9000000000000001,6.5,6.2,-1.4000000000000001,13.9,-55.60000000000001,0.7,-18.900000000000002,16
927,15625.0,0.4,2.4000000000000004,8.0,5.300000000000001,-1.5,15.5,-44.4,14.5,-3.6000000000000005,16
928,15641.0,1.0,3.8000000000000003,6.5,6.2,0.5,13.600000000000001,-12.299999999999999,21.1,13.700000000000001,16
929,15658.0,1.5,4.0,5.2,6.2,0.5,13.600000000000001,20.1,13.399999999999999,20.900000000000002,16
930,15680.0,2.6,3.4000000000000004,3.3000000000000003,7.5,-0.8,11.8,35.2,-16.1,3.9,16
931,15691.0,2.4000000000000004,1.9000000000000001,4.1000000000000005,6.9,-1.9000000000000001,12.9,35.2,-16.1,3.9,16
932,15710.0,1.4000000000000001,0.8,5.6000000000000005,6.1000000000000005,-2.4000000000000004,14.100000000000001,35.1,-21.200000000000003,-4.9,16
933,15734.0,0.6000000000000001,0.7000000000000001,6.1000000000000005,5.5,-2.1,14.3,53.10000000000001,10.200000000000001,-1.9,16
934,15742.0,0.30000000000000004,1.1,5.5,5.5,-2.1,14.3,53.10000000000001,10.200000000000001,-1.9,16
935,15759.0,-0.1,1.6,3.2,4.6000000000000005,-1.0,10.8,70.4,30.3,-1.1,16
936,15780.0,-0.4,1.4000000000000001,0.2,4.0,-1.0,8.4,93.4,46.1,-4.0,16
937,15791.0,-0.8,1.1,-1.1,4.0,-1.0,8.4,93.4,46.1,-4.0,16
938,15808.0,-1.5,0.4,-2.5,2.8000000000000003,-1.7000000000000002,6.4,96.1,35.699999999999996,-2.3,16
939,15825.0,-1.7000000000000002,0.1,-2.6,2.8000000000000003,-1.7000000000000002,6.4,96.30000000000001,21.6,4.5,16
940,15842.0,-1.5,-0.6000000000000001,-1.8,2.9000000000000004,-2.0,7.0,99.7,10.0,14.0,16
941,15862.0,-1.1,-0.9,-1.9000000000000001,3.1,-2.1,7.2,107.19999999999999,3.3000000000000007,21.0,16
942,15875.0,-0.9,-1.4000000000000001,-2.8000000000000003,3.5,-2.4000000000000004,6.0,111.0,-0.4,23.0,16
943,15892.0,-0.9,-1.6,-3.1,3.5,-2.4000000000000004,6.0,106.70000000000002,-2.4000000000000004,21.500000000000004,16
944,15908.0,-0.9,-2.1,-3.0,3.5,-2.6,5.9,96.1,-2.7,19.6,16
945,15924.0,-1.0,-2.2,-2.8000000000000003,3.5,-2.5,6.300000000000001,85.69999999999999,-1.6,19.1,16
946,15946.0,-0.9,-2.3000000000000003,-2.7,3.5,-2.4000000000000004,6.2,79.7,-2.9,19.300000000000004,16
947,15963.0,-0.9,-2.3000000000000003,-2.9000000000000004,3.5,-2.2,6.0,72.2,-8.100000000000001,17.5,16
948,15976.0,-0.8,-2.3000000000000003,-3.0,3.6,-2.2,6.0,72.2,-8.100000000000001,17.5,16
949,15991.0,-0.7000000000000001,-2.5,-2.8000000000000003,3.7,-2.3000000000000003,6.0,65.2,-9.5,14.700000000000001,16
950,16008.0,-0.7000000000000001,-2.6,-2.8000000000000003,3.7,-2.3000000000000003,6.0,56.2,-7.500000000000001,10.700000000000001,16
951,16025.0,-0.7000000000000001,-2.8000000000000003,-2.8000000000000003,3.7,-2.3000000000000003,6.1000000000000005,45.9,-3.7000000000000006,5.8,16
952,16043.0,-0.7000000000000001,-3.2,-3.0,3.8000000000000003,-3.0,5.800000000000001,34.2,-2.1,0.6000000000000001,16
953,16058.0,-0.6000000000000001,-3.5,-2.9000000000000004,3.8000000000000003,-3.0,5.800000000000001,19.700000000000003,-3.6000000000000005,-3.2,16
954,16076.0,-0.2,-4.1000000000000005,-2.3000000000000003,4.2,-3.5,6.2,4.0,-7.400000000000001,-5.1000000000000005,16
955,16091.0,0.2,-4.3,-1.5,4.7,-3.9000000000000004,7.6000000000000005,-10.5,-11.900000000000002,-6.300000000000001,16
956,16108.0,0.30000000000000004,-4.2,-0.5,4.9,-3.9000000000000004,8.4,-24.599999999999998,-14.0,-7.9,16
957,16126.0,0.4,-4.1000000000000005,-0.2,4.9,-3.9000000000000004,8.4,-37.7,-12.600000000000001,-9.100000000000001,16
958,16145.0,1.0,-4.2,0.2,5.5,-4.0,8.700000000000001,-49.300000000000004,-12.7,-11.6,16
959,16160.0,1.2000000000000002,-4.1000000000000005,0.5,5.7,-4.4,9.4,-64.0,-10.0,-15.6,16
960,16175.0,1.0,-4.1000000000000005,0.8,5.7,-4.4,9.4,-80.30000000000001,-5.7,-19.400000000000002,16
961,16191.0,0.2,-3.7,2.1,5.0,-4.4,10.5,-91.2,-1.6,-19.200000000000003,16
962,16208.0,-0.7000000000000001,-2.4000000000000004,2.9000000000000004,4.0,-2.6,11.700000000000001,-90.5,5.8,-9.2,16
963,16225.0,-0.2,-0.9,3.0,4.7,-1.8,11.5,-79.9,11.1,4.6,16
964,16241.0,0.30000000000000004,-0.5,2.7,4.7,-1.8,11.5,-64.7,11.900000000000002,13.700000000000001,16
965,16258.0,1.1,-0.6000000000000001,1.6,5.5,-1.8,10.600000000000001,-51.4,6.9,16.0,16
966,16274.0,1.8,-1.1,0.9,6.4,-2.8000000000000003,9.600000000000001,-46.0,-2.1,17.300000000000004,16
967,16292.0,1.9000000000000001,-1.2000000000000002,0.9,6.4,-2.8000000000000003,9.600000000000001,-45.9,-11.4,17.300000000000004,16
968,16308.0,1.7000000000000002,-0.8,1.3,6.4,-2.7,9.8,-48.2,-15.399999999999999,17.6,16
969,16329.0,1.7000000000000002,0.4,1.9000000000000001,6.4,-0.8,10.5,-48.0,-11.4,16.900000000000002,16
970,16343.0,1.8,1.9000000000000001,1.5,6.300000000000001,0.2,9.8,-42.60000000000001,0.4,10.5,16
971,16364.0,1.4000000000000001,2.8000000000000003,0.30000000000000004,5.800000000000001,0.8,8.6,-31.2,34.300000000000004,-20.599999999999998,16
972,16374.0,1.0,2.9000000000000004,-0.7000000000000001,5.800000000000001,0.8,8.6,-31.2,34.300000000000004,-20.599999999999998,16
973,16391.0,-0.30000000000000004,2.5,-2.6,3.7,0.1,5.6000000000000005,-27.0,42.1,-35.8,16
974,16408.0,-0.9,2.2,-3.2,3.7,0.1,5.6000000000000005,-24.7,40.800000000000004,-42.5,16
975,16425.0,-1.6,1.6,-4.0,2.9000000000000004,-0.4,4.800000000000001,-23.900000000000006,33.50000000000001,-40.9,16
976,16441.0,-1.9000000000000001,1.2000000000000002,-4.0,2.5,-1.0,4.9,-23.5,22.6,-33.300000000000004,16
977,16458.0,-1.5,1.1,-3.5,2.8000000000000003,-1.1,5.2,-22.700000000000003,12.4,-23.700000000000003,16
978,16475.0,-1.3,1.1,-3.3000000000000003,2.8000000000000003,-1.1,5.2,-22.000000000000004,6.1000000000000005,-15.899999999999999,16
979,16491.0,-1.1,1.3,-3.0,3.1,-1.0,5.5,-22.9,4.0,-12.0,16
980,16508.0,-0.9,1.2000000000000002,-2.8000000000000003,3.4000000000000004,-1.1,5.9,-26.400000000000006,4.7,-10.9,16
981,16524.0,-0.8,1.2000000000000002,-2.6,3.4000000000000004,-1.1,5.9,-32.7,6.600000000000001,-10.700000000000001,16
982,16541.0,-0.8,1.1,-1.9000000000000001,3.4000000000000004,-1.3,6.4,-38.900000000000006,7.6,-9.5,16
983,16558.0,-0.8,1.1,-0.8,3.6,-1.5,8.0,-41.7,7.6,-5.500000000000001,16
984,16574.0,-0.5,1.1,-0.30000000000000004,3.6,-1.5,8.0,-39.599999999999994,6.1000000000000005,0.2,16
985,16592.0,-0.2,1.2000000000000002,0.30000000000000004,3.9000000000000004,-1.5,8.6,-35.599999999999994,3.9,5.0,16
986,16608.0,0.0,0.9,0.6000000000000001,4.1000000000000005,-1.7000000000000002,8.9,-34.0,1.5,9.100000000000001,16
987,16625.0,0.1,0.7000000000000001,1.2000000000000002,4.2,-2.1,9.600000000000001,-36.1,0.0,14.200000000000001,16
988,16641.0,0.4,0.30000000000000004,2.4000000000000004,4.4,-2.6,10.600000000000001,-37.300000000000004,-1.4,20.7,16
989,16658.0,0.4,0.30000000000000004,3.5,4.5,-2.8000000000000003,11.600000000000001,-37.50000000000001,-2.6,28.500000000000004,16
990,16677.0,1.0,0.7000000000000001,4.3,5.7,-2.5,12.8,-35.2,-3.9,38.0,16
991,16691.0,2.0,0.8,5.1000000000000005,6.1000000000000005,-2.6,13.8,-31.3,-12.100000000000001,41.900000000000006,16
992,16708.0,2.0,0.8,5.7,6.1000000000000005,-2.6,13.8,-29.500000000000004,-18.0,40.6,16
993,16725.0,1.6,1.0,6.9,5.9,-2.6,14.8,-27.9,-14.400000000000002,40.800000000000004,16
994,16741.0,0.8,1.8,7.2,4.7,-1.3,15.3,-19.1,-6.1000000000000005,46.50000000000001,16
995,16759.0,0.6000000000000001,2.5,6.9,4.7,-1.3,15.3,-1.3,1.7,58.1,16
996,16782.0,1.7000000000000002,3.7,4.3,5.7,0.1,12.600000000000001,47.900000000000006,-15.5,69.4,16
997,16791.0,2.1,3.6,3.5,6.2,-0.30000000000000004,11.8,47.900000000000006,-15.5,69.4,16
998,16810.0,2.3000000000000003,2.7,3.2,6.300000000000001,-0.9,11.8,61.39999999999999,-32.300000000000004,61.599999999999994,16
999,16825.0,2.2,2.3000000000000003,3.3000000000000003,6.300000000000001,-0.9,11.8,65.2,-40.300000000000004,49.50000000000001,16
1000,16841.0,1.7000000000000002,1.4000000000000001,3.9000000000000004,6.0,-1.5,12.4,65.89999999999999,-38.50000000000001,35.8,16
1001,16862.0,0.6000000000000001,0.7000000000000001,4.1000000000000005,4.5,-2.3000000000000003,12.600000000000001,67.60000000000001,-25.5,26.1,16
1002,16876.0,0.2,0.6000000000000001,3.8000000000000003,4.5,-2.3000000000000003,12.600000000000001,71.9,-7.0,22.700000000000003,16
1003,16891.0,-0.2,0.7000000000000001,2.4000000000000004,4.0,-2.1,11.700000000000001,80.2,7.6,22.9,16
1004,16909.0,-0.4,0.8,0.5,3.6,-1.5,8.8,91.30000000000001,9.899999999999999,24.599999999999998,16
1005,16924.0,-0.4,0.7000000000000001,-0.30000000000000004,3.6,-1.5,8.8,101.20000000000002,1.5,26.000000000000004,16
1006,16943.0,-0.5,0.6000000000000001,-1.1,3.6,-1.4000000000000001,8.1,108.2,-11.1,26.5,16
1007,16959.0,-0.5,0.30000000000000004,-1.4000000000000001,3.6,-1.3,7.800000000000001,113.00000000000001,-20.400000000000002,24.1,16
1008,16974.0,-0.5,-0.1,-1.5,3.6,-1.5,7.6000000000000005,115.39999999999999,-23.800000000000004,18.6,16
1009,16993.0,-0.6000000000000001,-0.7000000000000001,-1.8,3.6,-1.7000000000000002,7.2,113.5,-15.8,2.0,16
1010,17010.0,-0.7000000000000001,-1.0,-2.2,3.6,-1.7000000000000002,7.2,113.5,-15.8,2.0,16
1011,17024.0,-0.9,-1.6,-2.9000000000000004,3.1,-2.2,5.9,106.9,-9.0,-7.699999999999999,16
1012,17041.0,-1.2000000000000002,-1.9000000000000001,-3.3000000000000003,3.1,-2.2,5.9,97.40000000000002,-3.7000000000000006,-15.899999999999999,16
1013,17059.0,-1.5,-2.5,-3.8000000000000003,2.8000000000000003,-2.5,5.4,85.9,-3.0,-21.200000000000003,16
1014,17075.0,-1.7000000000000002,-3.1,-3.4000000000000004,2.6,-2.8000000000000003,5.4,74.0,-7.8,-22.8,16
1015,17091.0,-1.6,-3.3000000000000003,-2.9000000000000004,2.6,-3.0,6.2,65.6,-12.100000000000001,-21.300000000000004,16
1016,17108.0,-1.4000000000000001,-3.5,-2.2,2.8000000000000003,-3.0,6.7,61.0,-13.700000000000001,-20.0,16
1017,17125.0,-1.2000000000000002,-3.7,-2.2,3.0,-3.1,6.800000000000001,55.7,-10.8,-19.200000000000003,16
1018,17141.0,-1.1,-3.8000000000000003,-2.5,3.4000000000000004,-3.2,6.300000000000001,47.80000000000001,-7.8,-20.5,16
1019,17158.0,-1.0,-4.1000000000000005,-2.5,3.4000000000000004,-3.2,6.300000000000001,37.1,-8.5,-23.700000000000003,16
1020,17174.0,-0.8,-4.7,-2.0,3.5,-3.7,6.6000000000000005,21.8,-8.5,-26.5,16
1021,17193.0,-0.4,-5.300000000000001,-0.8,4.0,-4.6000000000000005,8.5,5.9,-5.1000000000000005,-28.200000000000003,16
1022,17208.0,-0.30000000000000004,-5.5,-0.30000000000000004,4.0,-4.6000000000000005,8.5,-6.8,0.9000000000000001,-30.599999999999998,16
1023,17225.0,-0.5,-5.6000000000000005,0.5,3.9000000000000004,-4.800000000000001,9.200000000000001,-15.5,8.3,-32.5,16
1024,17241.0,-0.9,-5.4,0.0,3.4000000000000004,-4.7,9.1,-21.500000000000004,18.3,-31.799999999999997,16
1025,17258.0,-0.8,-5.300000000000001,-0.5,3.4000000000000004,-4.6000000000000005,8.3,-28.700000000000003,20.5,-28.0,16
1026,17274.0,0.1,-5.4,-1.6,4.1000000000000005,-4.800000000000001,7.300000000000001,-39.8,12.299999999999999,-25.200000000000003,16
1027,17291.0,0.9,-5.300000000000001,-1.8,4.800000000000001,-4.9,7.1000000000000005,-57.3,1.0,-23.700000000000003,16
1028,17308.0,0.9,-4.800000000000001,-1.0,4.6000000000000005,-4.2,8.5,-76.80000000000001,-7.8,-24.599999999999998,16
1029,17329.0,0.0,-3.5,0.30000000000000004,4.1000000000000005,-3.3000000000000003,9.600000000000001,-91.50000000000001,-10.299999999999999,-24.1,16
1030,17341.0,-0.1,-2.8000000000000003,0.9,4.1000000000000005,-3.3000000000000003,9.600000000000001,-97.60000000000001,-9.700000000000001,-20.2,16
1031,17358.0,0.4,-2.2,1.5,4.4,-2.8000000000000003,10.200000000000001,-95.0,-10.700000000000001,-16.200000000000003,16
1032,17374.0,0.8,-2.1,1.6,5.1000000000000005,-2.9000000000000004,10.4,-89.9,-17.400000000000002,-14.400000000000002,16
1033,17391.0,1.5,-2.5,1.9000000000000001,5.9,-3.5,10.600000000000001,-86.7,-29.400000000000002,-13.6,16
1034,17408.0,1.5,-2.9000000000000004,3.0,6.0,-4.1000000000000005,11.4,-85.9,-38.900000000000006,-9.5,16
1035,17425.0,1.4000000000000001,-2.1,4.2,5.9,-2.9000000000000004,12.9,-82.8,-34.400000000000006,0.2,16
1036,17442.0,1.1,-0.2,3.7,5.6000000000000005,-1.3,11.700000000000001,-74.60000000000001,-17.6,6.0,16
1037,17458.0,0.9,0.8,2.8000000000000003,5.6000000000000005,-1.3,11.700000000000001,-65.3,2.5,2.3,16
1038,17475.0,0.2,2.0,0.9,5.0,-0.30000000000000004,10.100000000000001,-61.199999999999996,21.300000000000004,-9.600000000000001,16
1039,17496.0,-0.6000000000000001,2.3000000000000003,-0.8,3.5,0.2,7.4,-59.300000000000004,34.2,-22.4,16
1040,17508.0,-1.2000000000000002,2.4000000000000004,-1.8,3.1,0.30000000000000004,6.7,-56.2,37.9,-28.700000000000003,16
1041,17524.0,-1.3,2.5,-2.0,3.1,0.30000000000000004,6.7,-50.0,32.8,-27.5,16
1042,17542.0,-1.2000000000000002,2.7,-2.5,3.1,0.4,6.0,-39.1,20.8,-23.099999999999998,16
1043,17558.0,-1.1,2.5,-2.6,3.3000000000000003,0.1,6.1000000000000005,-28.400000000000002,6.1000000000000005,-20.8,16
1044,17574.0,-1.0,2.3000000000000003,-2.4000000000000004,3.3000000000000003,0.1,6.1000000000000005,-23.700000000000003,-1.3,-21.300000000000004,16
1045,17591.0,-1.0,2.0,-2.1,3.3000000000000003,-0.2,6.4,-26.5,4.6,-23.400000000000002,16
1046,17608.0,-1.2000000000000002,1.9000000000000001,-1.9000000000000001,3.0,-0.6000000000000001,6.7,-31.2,15.2,-26.000000000000004,16
1047,17624.0,-1.3,1.8,-1.8,3.0,-0.6000000000000001,6.7,-32.8,21.900000000000002,-26.9,16
1048,17641.0,-1.2000000000000002,1.7000000000000002,-1.7000000000000002,3.0,-0.7000000000000001,6.800000000000001,-31.9,23.0,-24.5,16
1049,17658.0,-0.9,1.7000000000000002,-1.6,3.5,-0.8,7.0,-29.1,18.700000000000003,-19.5,16
1050,17674.0,-0.6000000000000001,1.7000000000000002,-1.2000000000000002,3.6,-0.9,7.5,-27.5,12.100000000000001,-14.300000000000002,16
1051,17691.0,-0.5,1.7000000000000002,-0.9,3.6,-0.9,7.5,-28.0,7.200000000000001,-9.2,16
1052,17708.0,-0.30000000000000004,1.7000000000000002,-0.2,3.8000000000000003,-0.9,8.0,-30.1,6.1000000000000005,-4.0,16
1053,17725.0,0.1,1.7000000000000002,0.9,4.4,-1.2000000000000002,9.700000000000001,-32.300000000000004,5.500000000000001,0.7,16
1054,17747.0,0.6000000000000001,1.5,2.0,4.7,-1.4000000000000001,10.700000000000001,-31.5,7.200000000000001,11.2,16
1055,17759.0,0.9,1.3,2.5,4.7,-1.4000000000000001,10.700000000000001,-31.5,7.200000000000001,11.2,16
1056,17776.0,1.3,1.2000000000000002,3.0,5.2,-1.7000000000000002,11.600000000000001,-29.1,7.0,16.700000000000003,16
1057,17792.0,1.2000000000000002,1.4000000000000001,3.4000000000000004,5.300000000000001,-1.5,11.8,-26.6,5.500000000000001,22.3,16
1058,17808.0,1.4000000000000001,1.6,3.3000000000000003,5.300000000000001,-1.5,11.8,-23.6,3.2,28.700000000000003,16
1059,17825.0,2.1,1.6,3.3000000000000003,5.800000000000001,-1.5,11.600000000000001,-22.1,-6.699999999999999,30.699999999999996,16
1060,17841.0,2.0,1.1,4.7,5.9,-2.4000000000000004,13.8,-25.5,-16.900000000000002,29.500000000000004,16
1061,17858.0,1.8,0.9,5.6000000000000005,5.9,-2.4000000000000004,13.8,-27.0,-19.300000000000004,32.0,16
1062,17874.0,1.1,1.4000000000000001,6.800000000000001,5.300000000000001,-2.2,15.0,-20.1,-13.6,40.0,16
1063,17891.0,1.1,2.8000000000000003,6.5,5.300000000000001,0.0,14.3,-2.0,-4.1,55.1,16
1064,17908.0,1.4000000000000001,3.5,5.6000000000000005,5.300000000000001,0.0,14.3,23.2,-2.5,65.8,16
1065,17924.0,2.4000000000000004,4.0,3.7,6.1000000000000005,0.5,12.700000000000001,46.300000000000004,-12.8,66.80000000000001,16
1066,17941.0,2.8000000000000003,3.1,2.9000000000000004,6.7,0.2,11.600000000000001,59.300000000000004,-29.800000000000004,57.9,16
1067,17958.0,2.6,2.2,3.5,6.5,-1.0,12.4,63.70000000000001,-38.50000000000001,46.9,16
1068,17974.0,2.3000000000000003,1.9000000000000001,3.8000000000000003,6.5,-1.0,12.4,66.7,-36.0,34.50000000000001,16
1069,17991.0,1.3,1.4000000000000001,3.7,5.800000000000001,-1.3,12.600000000000001,70.5,-24.3,21.900000000000002,16
1070,18012.0,0.4,1.0,2.7,4.3,-1.6,11.0,74.2,-8.8,13.700000000000001,16
1071,18025.0,0.0,0.7000000000000001,1.3,4.1000000000000005,-1.6,9.9,78.60000000000001,1.9,10.299999999999999,16
1072,18041.0,0.0,0.7000000000000001,0.6000000000000001,4.1000000000000005,-1.6,9.9,84.2,4.800000000000001,10.5,16
1073,18058.0,-0.30000000000000004,0.7000000000000001,-0.4,4.0,-1.3,9.0,91.4,-0.7,11.900000000000002,16
1074,18074.0,-0.4,0.8,-1.0,3.8000000000000003,-0.7000000000000001,7.9,100.0,-9.700000000000001,13.200000000000003,16
1075,18092.0,-0.4,0.7000000000000001,-1.3,3.8000000000000003,-0.7000000000000001,7.9,107.30000000000001,-17.1,12.100000000000001,16
1076,18109.0,-0.2,0.5,-1.5,4.0,-0.6000000000000001,7.7,111.80000000000001,-19.9,6.8,16
1077,18128.0,-0.2,0.2,-1.7000000000000002,4.2,-1.1,7.0,113.2,-18.700000000000003,-2.6,16
1078,18143.0,-0.2,-1.1,-2.2,4.1000000000000005,-1.6,6.9,110.70000000000002,-15.899999999999999,-13.399999999999999,16
1079,18158.0,-0.4,-1.6,-2.1,4.1000000000000005,-1.6,6.9,104.60000000000001,-12.7,-23.5,16
1080,18174.0,-0.7000000000000001,-2.5,-2.0,3.8000000000000003,-2.2,7.0,98.39999999999999,-10.299999999999999,-30.699999999999996,16
1081,18191.0,-0.9,-3.3000000000000003,-1.7000000000000002,3.5,-3.0,7.2,94.0,-9.5,-34.400000000000006,16
1082,18208.0,-1.0,-3.6,-1.8,3.5,-3.0,7.2,89.8,-6.699999999999999,-35.4,16
1083,18225.0,-1.1,-3.8000000000000003,-2.2,3.4000000000000004,-2.9000000000000004,6.9,84.2,-3.2,-35.699999999999996,16
1084,18241.0,-1.2000000000000002,-4.1000000000000005,-2.5,3.1,-3.0,6.300000000000001,76.60000000000001,-0.5,-37.2,16
1085,18258.0,-1.4000000000000001,-4.3,-2.6,3.1,-3.0,6.300000000000001,66.80000000000001,3.5,-38.50000000000001,16
1086,18274.0,-1.5,-4.4,-2.6,2.9000000000000004,-3.0,6.300000000000001,58.0,6.9,-38.400000000000006,16
1087,18291.0,-1.4000000000000001,-4.9,-3.1,2.9000000000000004,-3.2,6.0,50.5,5.4,-38.800000000000004,16
1088,18308.0,-1.2000000000000002,-5.7,-3.1,3.2,-4.4,6.0,37.9,0.5,-39.2,16
1089,18324.0,-1.0,-6.1000000000000005,-2.7,3.2,-4.4,6.0,20.2,-3.0,-36.6,16
1090,18341.0,-0.5,-6.6000000000000005,-1.5,3.6,-4.9,6.9,3.4,-4.6,-32.300000000000004,16
1091,18357.0,-0.2,-6.5,-0.7000000000000001,4.1000000000000005,-4.800000000000001,8.1,-10.200000000000001,-3.9,-27.800000000000004,16
1092,18374.0,-0.1,-6.300000000000001,-0.7000000000000001,4.1000000000000005,-4.800000000000001,8.1,-22.9,-0.7,-23.5,16
1093,18391.0,0.4,-6.0,-0.8,4.5,-4.6000000000000005,8.0,-35.4,-0.7,-21.300000000000004,16
1094,18408.0,0.8,-5.6000000000000005,-0.8,5.1000000000000005,-4.4,8.1,-50.8,-0.9000000000000001,-21.500000000000004,16
1095,18424.0,0.8,-5.300000000000001,-0.7000000000000001,4.800000000000001,-4.3,8.200000000000001,-67.9,-0.1,-24.3,16
1096,18441.0,0.4,-5.1000000000000005,-0.6000000000000001,4.800000000000001,-4.3,8.200000000000001,-85.1,1.5,-28.900000000000002,16
1097,18458.0,-0.9,-4.2,0.1,3.6,-3.9000000000000004,8.700000000000001,-100.4,7.300000000000001,-27.6,16
1098,18475.0,-1.1,-3.0,0.6000000000000001,3.3000000000000003,-2.7,9.4,-104.50000000000001,10.1,-16.6,16
1099,18491.0,-0.8,-2.7,0.5,3.3000000000000003,-2.7,9.4,-98.60000000000001,0.9000000000000001,-3.1,16
1100,18508.0,0.1,-2.5,0.5,4.1000000000000005,-2.7,9.3,-92.10000000000001,-16.1,9.899999999999999,16
1101,18524.0,1.0,-2.3000000000000003,1.0,5.7,-3.0,10.200000000000001,-89.5,-34.0,20.400000000000002,16
1102,18541.0,1.4000000000000001,-2.2,2.1,5.800000000000001,-3.1,11.200000000000001,-91.0,-46.9,24.3,16
1103,18558.0,1.2000000000000002,-2.0,2.7,5.800000000000001,-3.1,11.200000000000001,-96.20000000000002,-45.0,24.5,16
1104,18574.0,0.8,-0.8,3.5,5.5,-2.5,11.9,-100.9,-28.400000000000002,23.900000000000006,16
1105,18591.0,0.5,0.8,2.9000000000000004,5.0,-0.5,10.700000000000001,-99.30000000000001,-7.1000000000000005,19.799999999999997,16
1106,18608.0,0.30000000000000004,2.0,1.2000000000000002,4.7,0.2,9.5,-95.0,10.8,12.100000000000001,16
1107,18629.0,0.0,2.8000000000000003,0.2,4.4,0.5,8.700000000000001,-83.00000000000001,18.5,-5.0,16
1108,18642.0,-0.30000000000000004,2.9000000000000004,-0.1,3.8000000000000003,0.5,8.1,-83.00000000000001,18.5,-5.0,16
1109,18665.0,-1.1,2.9000000000000004,-0.6000000000000001,3.2,0.4,7.9,-72.7,12.0,-9.600000000000001,16
1110,18677.0,-1.3,2.9000000000000004,-0.5,3.1,0.30000000000000004,7.9,-52.400000000000006,5.1000000000000005,-6.699999999999999,16
1111,18692.0,-1.2000000000000002,2.9000000000000004,-0.6000000000000001,3.1,0.30000000000000004,7.9,-52.400000000000006,5.1000000000000005,-6.699999999999999,16
1112,18707.0,-1.0,2.9000000000000004,-0.9,3.4000000000000004,0.2,7.4,-44.7,7.300000000000001,-5.7,16
1113,18727.0,-0.9,2.9000000000000004,-1.2000000000000002,3.5,0.1,7.1000000000000005,-40.7,11.3,-6.2,16
1114,18742.0,-0.8,3.0,-1.4000000000000001,3.5,0.1,7.1000000000000005,-38.900000000000006,15.2,-7.8,16
1115,18758.0,-0.6000000000000001,2.8000000000000003,-1.4000000000000001,3.7,-0.2,6.800000000000001,-39.400000000000006,17.799999999999997,-10.1,16
1116,18774.0,-0.5,2.6,-1.6,3.6,-0.6000000000000001,6.9,-40.6,18.6,-12.200000000000001,16
1117,18791.0,-0.6000000000000001,2.4000000000000004,-1.3,3.6,-0.6000000000000001,6.9,-42.5,15.100000000000001,-12.9,16
1118,18808.0,-0.6000000000000001,2.1,-0.30000000000000004,3.5,-0.9,7.6000000000000005,-44.00000000000001,13.200000000000003,-9.8,16
1119,18827.0,-0.30000000000000004,2.3000000000000003,0.6000000000000001,4.1000000000000005,-0.8,9.1,-41.4,13.399999999999999,-3.7000000000000006,16
1120,18841.0,0.0,2.4000000000000004,1.0,4.1000000000000005,-0.8,9.1,-34.900000000000006,12.7,1.9,16
1121,18859.0,0.6000000000000001,2.5,1.3,4.6000000000000005,-0.8,9.4,-28.0,9.8,4.5,16
1122,18875.0,0.8,2.4000000000000004,1.3,4.800000000000001,-1.0,9.5,-27.2,7.699999999999999,4.0,16
1123,18891.0,1.1,1.9000000000000001,2.3000000000000003,5.1000000000000005,-1.7000000000000002,11.100000000000001,-31.400000000000002,3.6000000000000005,4.4,16
1124,18908.0,1.0,1.7000000000000002,3.3000000000000003,5.1000000000000005,-1.7000000000000002,11.100000000000001,-35.699999999999996,-0.9000000000000001,5.6,16
1125,18924.0,1.1,1.8,4.9,5.1000000000000005,-1.8,12.600000000000001,-34.50000000000001,-1.3,9.3,16
1126,18941.0,1.8,1.8,5.300000000000001,5.9,-2.1,13.700000000000001,-28.1,-4.2,11.000000000000002,16
1127,18958.0,1.8,1.6,5.5,5.9,-2.1,13.700000000000001,-25.300000000000004,-8.100000000000001,8.4,16
1128,18974.0,1.2000000000000002,1.3,6.5,5.5,-2.4000000000000004,14.4,-26.9,-6.8,8.8,16
