,ms,accelX,accelY,accelZ,accelWithGX,accelWithGY,accelWithGZ,rotRateAlpha,rotRateBeta,rotRateGamma,interval
0,175.0,-0.1,0.0,0.1,-0.7000000000000001,2.5,9.0,-5.1000000000000005,1.5,6.0,16
1,191.0,-0.1,0.0,0.1,-0.7000000000000001,2.5,9.0,-5.1000000000000005,1.5,6.0,16
2,212.0,0.1,0.0,0.5,-0.5,2.6,9.4,-5.0,4.2,7.500000000000001,16
3,224.0,0.2,0.1,0.4,-0.4,2.6,9.4,-3.4,9.100000000000001,8.2,16
4,241.0,0.1,0.1,0.1,-0.5,2.7,9.1,-0.4,11.5,8.4,16
5,258.0,0.0,0.1,-0.2,-0.6000000000000001,2.7,8.9,2.7,7.8,8.4,16
6,274.0,0.1,0.2,0.0,-0.6000000000000001,2.8000000000000003,9.0,5.500000000000001,4.4,7.8,16
7,291.0,0.2,0.30000000000000004,0.2,-0.4,2.9000000000000004,9.200000000000001,8.4,3.5,5.300000000000001,16
8,308.0,0.4,0.4,0.2,-0.2,3.1,9.3,11.2,7.6,1.1,16
9,324.0,0.4,0.30000000000000004,-0.1,-0.2,3.1,8.9,14.0,9.4,-3.0,16
10,341.0,0.30000000000000004,0.30000000000000004,-0.2,-0.4,3.1,8.8,16.3,6.500000000000001,-5.8,16
11,359.0,0.0,0.2,-0.2,-0.6000000000000001,3.1,8.8,16.3,3.2,-5.300000000000001,16
12,375.0,-0.2,0.1,0.0,-0.8,3.0,9.0,14.0,2.5,-1.9,16
13,394.0,-0.2,0.0,0.30000000000000004,-0.9,2.9000000000000004,9.200000000000001,10.1,4.0,4.0,16
14,409.0,-0.1,0.0,0.5,-0.7000000000000001,3.0,9.5,7.200000000000001,7.699999999999999,9.3,16
15,424.0,0.1,0.2,0.9,-0.6000000000000001,3.2,9.9,7.500000000000001,10.299999999999999,12.7,16
16,441.0,0.4,0.2,0.7000000000000001,-0.30000000000000004,3.2,9.8,8.899999999999999,13.900000000000002,13.8,16
17,458.0,0.4,0.1,0.5,-0.30000000000000004,3.1,9.4,8.100000000000001,15.700000000000001,12.4,16
18,476.0,0.2,-0.1,0.1,-0.5,2.9000000000000004,9.200000000000001,3.4,12.7,11.5,16
19,491.0,0.0,-0.30000000000000004,0.4,-0.7000000000000001,2.7,9.4,-4.4,4.2,12.9,16
20,508.0,0.1,-0.4,1.4000000000000001,-0.6000000000000001,2.6,10.3,-12.4,-2.0,16.0,16
21,525.0,0.2,-0.5,1.9000000000000001,-0.5,2.5,11.3,-16.1,0.9000000000000001,18.0,16
22,541.0,0.4,-0.6000000000000001,2.5,-0.30000000000000004,2.3000000000000003,11.8,-12.7,7.8,18.1,16
23,558.0,0.4,-0.7000000000000001,1.8,-0.30000000000000004,2.2,11.4,-4.4,15.399999999999999,17.6,16
24,575.0,0.30000000000000004,-0.8,1.0,-0.5,2.1,10.200000000000001,1.4,15.899999999999999,17.0,16
25,591.0,-0.1,-0.7000000000000001,-0.1,-0.8,2.1,9.4,0.6000000000000001,6.0,17.9,16
26,610.0,-0.1,-0.7000000000000001,0.1,-0.7000000000000001,2.1,9.5,-4.4,-6.600000000000001,19.6,16
27,632.0,0.1,-0.6000000000000001,1.2000000000000002,-0.5,2.1,10.4,-10.200000000000001,-14.700000000000001,20.599999999999998,16
28,695.0,1.0,-0.5,0.7000000000000001,0.6000000000000001,2.2,11.0,12.600000000000001,13.6,15.399999999999999,16
29,709.0,0.8,-0.5,-0.5,0.30000000000000004,2.3000000000000003,9.1,23.800000000000004,25.300000000000004,12.0,16
30,730.0,0.4,-0.5,-2.9000000000000004,-0.1,2.3000000000000003,7.0,28.0,25.6,7.500000000000001,16
31,741.0,0.2,-0.5,-3.7,-0.4,2.4000000000000004,5.5,22.3,12.600000000000001,3.2,16
32,758.0,-0.2,-0.4,-4.3,-0.7000000000000001,2.5,5.2,8.3,-12.7,0.6000000000000001,16
33,774.0,-0.1,-0.30000000000000004,-2.7,-0.6000000000000001,2.6,6.5,-6.1000000000000005,-36.8,-1.0,16
34,799.0,0.30000000000000004,-0.30000000000000004,0.0,-0.1,2.5,8.8,-13.200000000000003,-48.300000000000004,-4.1,16
35,808.0,0.5,-0.30000000000000004,1.2000000000000002,0.2,2.4000000000000004,10.700000000000001,-8.899999999999999,-43.70000000000001,-9.3,16
36,826.0,-0.1,-0.4,2.0,-0.2,2.3000000000000003,11.4,0.0,-33.1,-12.5,16
37,844.0,-0.5,-0.5,1.9000000000000001,-0.5,2.3000000000000003,11.3,8.2,-23.700000000000003,-12.4,16
38,857.0,-0.5,-0.5,1.8,-0.6000000000000001,2.3000000000000003,11.0,16.0,-14.0,-11.1,16
39,874.0,-0.8,-0.5,1.1,-0.9,2.3000000000000003,10.4,24.3,-10.0,-8.5,16
40,891.0,-1.2000000000000002,-0.7000000000000001,0.1,-1.2000000000000002,2.2,9.600000000000001,31.400000000000002,-7.699999999999999,-3.5,16
41,907.0,-1.8,-1.3,-0.7000000000000001,-1.7000000000000002,1.8,8.8,35.3,-7.1000000000000005,6.1000000000000005,16
42,924.0,-2.4000000000000004,-2.0,-0.9,-2.3000000000000003,1.3,8.3,35.1,-3.6000000000000005,25.6,16
43,941.0,-1.3,-0.4,-1.8,-1.3,2.7,7.5,32.1,-7.1000000000000005,36.300000000000004,16
44,958.0,-0.5,0.0,-2.1,-0.5,3.2,7.1000000000000005,29.400000000000002,-13.399999999999999,34.2,16
45,976.0,-0.1,0.1,-2.6,-0.1,3.3000000000000003,6.6000000000000005,25.300000000000004,-20.7,29.1,16
46,991.0,-0.30000000000000004,0.2,-2.5,-0.1,3.6,6.6000000000000005,19.5,-26.300000000000004,25.8,16
47,1008.0,-0.2,0.6000000000000001,-1.8,0.1,4.0,7.1000000000000005,13.000000000000002,-26.6,22.000000000000004,16
48,1027.0,-0.4,0.4,-0.9,0.1,3.9000000000000004,8.0,4.0,-19.1,12.7,16
49,1041.0,-0.9,-0.30000000000000004,-0.30000000000000004,-0.6000000000000001,3.0,9.0,1.6,-13.6,13.6,16
50,1061.0,-1.2000000000000002,-0.4,0.9,-0.8,3.0,9.8,4.800000000000001,3.1,21.900000000000002,16
51,1074.0,-1.1,0.4,-0.4,-0.8,3.6,8.700000000000001,5.300000000000001,9.700000000000001,26.000000000000004,16
52,1091.0,-0.7000000000000001,0.7000000000000001,-0.9,0.0,4.2,7.9,-3.1,4.6,20.2,16
53,1107.0,0.7000000000000001,0.9,-1.1,1.1,4.2,7.9,-11.900000000000002,0.0,5.4,16
54,1124.0,1.1,0.6000000000000001,-0.1,1.4000000000000001,4.0,8.8,-18.5,2.9,-12.200000000000001,16
55,1141.0,0.4,0.2,0.8,0.9,3.6,9.600000000000001,-21.7,10.700000000000001,-24.599999999999998,16
56,1158.0,0.1,0.0,1.0,0.30000000000000004,3.2,10.0,-23.2,15.5,-27.3,16
57,1174.0,-0.1,-0.30000000000000004,1.1,0.0,2.8000000000000003,10.200000000000001,-25.6,16.1,-23.800000000000004,16
58,1191.0,0.0,-0.4,1.5,0.1,2.6,10.5,-28.500000000000004,13.8,-18.3,16
59,1207.0,0.2,-0.4,2.0,0.4,2.6,11.3,-28.1,10.9,-14.400000000000002,16
60,1225.0,0.5,-0.5,2.4000000000000004,0.6000000000000001,2.5,11.700000000000001,-22.700000000000003,11.3,-12.5,16
61,1241.0,0.6000000000000001,-0.5,1.8,0.7000000000000001,2.4000000000000004,11.200000000000001,-16.3,9.700000000000001,-13.100000000000001,16
62,1259.0,0.6000000000000001,-0.4,0.8,0.6000000000000001,2.4000000000000004,10.200000000000001,-13.200000000000003,-0.9000000000000001,-15.8,16
63,1279.0,0.5,-0.30000000000000004,1.1,0.6000000000000001,2.4000000000000004,10.200000000000001,-16.0,-16.900000000000002,-20.599999999999998,16
64,1292.0,0.4,-0.30000000000000004,1.7000000000000002,0.6000000000000001,2.4000000000000004,11.100000000000001,-22.5,-24.5,-26.1,16
65,1308.0,0.2,-0.30000000000000004,3.5,0.4,2.3000000000000003,12.700000000000001,-27.400000000000002,-16.8,-30.000000000000004,16
66,1324.0,-0.1,-0.5,3.8000000000000003,-0.1,1.9000000000000001,13.200000000000001,-24.200000000000003,3.3000000000000007,-29.300000000000004,16
67,1341.0,-0.5,-1.1,3.0,-0.5,1.4000000000000001,12.5,-12.9,17.7,-22.6,16
68,1358.0,-0.30000000000000004,-1.4000000000000001,1.5,-0.4,1.1,11.200000000000001,1.1,20.7,-12.9,16
69,1375.0,-0.1,-1.2000000000000002,0.4,-0.2,1.2000000000000002,10.100000000000001,12.7,8.600000000000001,-5.0,16
70,1391.0,0.0,-1.0,0.1,0.1,1.6,9.600000000000001,19.5,-11.2,1.3,16
71,1407.0,0.8,-0.6000000000000001,0.30000000000000004,0.9,2.0,9.8,19.9,-26.6,3.2,16
72,1424.0,1.2000000000000002,-0.4,0.5,1.5,2.4000000000000004,10.200000000000001,19.9,-26.6,3.2,16
73,1442.0,1.6,-0.1,1.1,1.8,2.5,10.600000000000001,10.5,-23.6,-6.4,16
74,1459.0,1.5,-0.2,1.0,1.7000000000000002,2.5,10.5,8.2,-8.8,-14.800000000000002,16
75,1476.0,0.9,-0.6000000000000001,0.0,1.1,2.2,9.700000000000001,7.8,6.4,-21.0,16
76,1491.0,0.4,-0.9,-1.4000000000000001,0.6000000000000001,1.9000000000000001,8.5,7.699999999999999,16.0,-23.400000000000002,16
77,1508.0,0.1,-1.0,-2.0,0.30000000000000004,1.7000000000000002,7.4,6.8,14.900000000000002,-22.700000000000003,16
78,1524.0,0.0,-1.0,-2.6,0.1,1.8,6.800000000000001,4.9,7.500000000000001,-21.200000000000003,16
79,1542.0,0.0,-0.8,-2.6,0.1,2.0,6.800000000000001,3.7000000000000006,1.0,-19.400000000000002,16
80,1562.0,0.2,-0.6000000000000001,-2.3000000000000003,0.2,2.1,7.0,3.4,-1.1,-18.6,16
81,1575.0,0.30000000000000004,-0.6000000000000001,-2.3000000000000003,0.30000000000000004,2.2,7.1000000000000005,3.6000000000000005,2.1,-18.8,16
82,1591.0,0.5,-0.4,-2.4000000000000004,0.5,2.3000000000000003,7.0,3.3000000000000007,5.9,-20.2,16
83,1608.0,0.4,-0.2,-2.3000000000000003,0.4,2.5,7.0,3.0,7.500000000000001,-22.6,16
84,1624.0,0.30000000000000004,-0.1,-2.2,0.30000000000000004,2.6,7.1000000000000005,3.6000000000000005,6.9,-25.300000000000004,16
85,1641.0,0.2,-0.2,-2.1,0.1,2.6,7.2,4.300000000000001,6.300000000000001,-27.2,16
86,1657.0,0.0,-0.1,-2.1,-0.1,2.7,7.1000000000000005,2.5,5.8,-28.0,16
87,1674.0,-0.1,-0.1,-2.0,-0.30000000000000004,2.7,7.300000000000001,-0.8,7.0,-27.800000000000004,16
88,1691.0,-0.4,-0.1,-1.6,-0.6000000000000001,2.7,7.6000000000000005,-3.1,11.700000000000001,-24.900000000000002,16
89,1707.0,-0.8,-0.2,-1.3,-1.0,2.6,7.9,-4.0,18.0,-18.6,16
90,1724.0,-1.2000000000000002,-0.9,-1.0,-1.6,1.9000000000000001,8.5,-4.0,18.0,-18.6,16
91,1741.0,-0.9,-0.1,0.1,-1.4000000000000001,2.8000000000000003,9.3,2.6,27.099999999999998,5.0,16
92,1759.0,-1.3,0.4,0.5,-1.8,3.2,9.700000000000001,13.6,26.799999999999997,13.900000000000002,16
93,1775.0,-0.6000000000000001,0.2,-0.4,-1.4000000000000001,3.1,8.9,19.0,23.3,17.7,16
94,1791.0,-0.5,-0.1,-1.0,-1.0,2.8000000000000003,8.0,8.899999999999999,11.4,18.8,16
95,1811.0,-0.6000000000000001,0.30000000000000004,-0.5,-1.1,3.1,8.8,-10.200000000000001,-4.800000000000001,22.9,16
96,1824.0,0.2,0.5,2.3000000000000003,-0.5,3.3000000000000003,11.3,-25.0,-1.5,27.0,16
97,1841.0,0.5,0.7000000000000001,3.2,-0.1,3.4000000000000004,12.700000000000001,-25.0,-1.5,27.0,16
98,1859.0,0.2,0.7000000000000001,3.9000000000000004,-0.5,3.3000000000000003,13.100000000000001,-28.3,25.0,21.500000000000004,16
99,1875.0,-0.30000000000000004,0.6000000000000001,2.9000000000000004,-1.0,3.2,12.3,-24.0,28.1,19.799999999999997,16
100,1891.0,-0.8,0.7000000000000001,1.9000000000000001,-1.4000000000000001,3.2,11.4,-22.9,16.0,20.1,16
101,1907.0,-0.9,0.6000000000000001,2.0,-1.6,3.0,11.700000000000001,-25.900000000000002,-4.1,22.8,16
102,1925.0,-1.0,0.4,3.5,-1.6,2.8000000000000003,13.0,-24.900000000000002,-16.5,28.600000000000005,16
103,1941.0,-0.8,0.0,4.4,-1.3,2.5,13.8,-16.3,-16.700000000000003,37.300000000000004,16
104,1957.0,-0.5,-0.2,3.9000000000000004,-0.8,2.0,13.0,-16.3,-16.700000000000003,37.300000000000004,16
105,1974.0,0.1,-0.8,2.2,-0.30000000000000004,1.6,11.600000000000001,11.3,1.0,47.3,16
106,1993.0,0.5,-0.6000000000000001,0.9,0.0,1.8,10.5,21.500000000000004,-1.6,45.3,16
107,2011.0,0.5,-0.30000000000000004,-0.2,0.1,2.2,9.5,25.5,-13.8,42.2,16
108,2024.0,0.7000000000000001,-0.30000000000000004,-0.1,0.5,2.3000000000000003,9.5,22.4,-27.0,37.9,16
109,2041.0,0.7000000000000001,-0.4,0.6000000000000001,0.5,2.2,10.200000000000001,18.1,-30.1,31.5,16
110,2057.0,0.5,-0.5,0.9,0.30000000000000004,2.2,10.5,18.1,-30.1,31.5,16
111,2074.0,0.30000000000000004,-0.7000000000000001,0.8,0.4,2.0,10.100000000000001,14.600000000000001,-12.7,22.3,16
112,2091.0,0.5,-1.2000000000000002,0.1,0.5,1.6,9.4,13.6,1.5,18.5,16
113,2107.0,0.30000000000000004,-1.5,-1.3,0.30000000000000004,1.3,8.200000000000001,13.399999999999999,10.1,15.700000000000001,16
114,2126.0,-0.1,-1.6,-2.2,0.0,1.2000000000000002,7.4,14.0,6.4,14.0,16
115,2141.0,-0.30000000000000004,-1.6,-2.5,-0.30000000000000004,1.2000000000000002,7.0,15.2,-7.300000000000001,15.5,16
116,2157.0,-0.30000000000000004,-2.4000000000000004,-2.5,-0.30000000000000004,0.5,6.9,15.2,-25.1,20.2,16
117,2174.0,-1.7000000000000002,-2.1,-1.4000000000000001,-1.1,1.3,8.3,15.2,-25.1,20.2,16
118,2191.0,-0.5,-1.6,-0.8,0.30000000000000004,1.5,8.5,22.2,-24.0,36.8,16
119,2208.0,0.6000000000000001,-1.2000000000000002,-0.8,1.0,1.8,8.4,25.6,-17.7,31.799999999999997,16
120,2224.0,0.2,-1.2000000000000002,-1.0,0.7000000000000001,1.8,8.200000000000001,26.400000000000006,-11.700000000000001,26.799999999999997,16
121,2241.0,-0.1,-1.2000000000000002,-1.8,0.4,1.9000000000000001,7.6000000000000005,24.1,-5.6,23.800000000000004,16
122,2257.0,-0.2,-1.1,-1.9000000000000001,0.30000000000000004,2.1,7.2,19.1,-4.2,21.0,16
123,2274.0,-0.2,-1.0,-1.9000000000000001,0.4,2.2,7.2,14.300000000000002,-4.1,17.799999999999997,16
124,2291.0,-0.4,-1.1,-2.1,0.2,2.1,7.1000000000000005,8.600000000000001,-3.8,14.700000000000001,16
125,2307.0,-0.5,-1.1,-2.0,0.1,2.2,7.1000000000000005,1.0,-4.2,13.3,16
126,2324.0,-0.4,-0.9,-1.9000000000000001,0.30000000000000004,2.3000000000000003,7.2,-8.2,-0.4,11.4,16
127,2341.0,0.0,-0.7000000000000001,-1.6,0.6000000000000001,2.4000000000000004,7.5,-16.200000000000003,0.5,7.0,16
128,2358.0,0.2,-0.6000000000000001,-1.0,1.0,2.4000000000000004,8.6,-16.200000000000003,0.5,7.0,16
129,2374.0,0.5,-0.9,0.0,1.1,2.1,9.1,-17.0,1.2000000000000002,-4.0,16
130,2391.0,0.4,-1.2000000000000002,-0.5,1.1,1.7000000000000002,8.700000000000001,-17.1,-3.7000000000000006,-5.8,16
131,2408.0,0.8,-1.2000000000000002,-0.1,1.4000000000000001,1.6,8.9,-21.200000000000003,-12.5,-6.300000000000001,16
132,2424.0,1.1,-1.2000000000000002,0.1,1.6,1.1,9.5,-28.600000000000005,-18.5,-8.8,16
133,2441.0,0.8,-3.0,0.5,2.0,0.1,9.700000000000001,-47.0,-15.6,-5.2,16
134,2457.0,3.1,0.5,3.3000000000000003,3.9000000000000004,2.8000000000000003,12.200000000000001,-64.50000000000001,-13.100000000000001,-23.400000000000002,16
135,2474.0,2.4000000000000004,0.5,1.7000000000000002,3.6,3.4000000000000004,11.4,-64.50000000000001,-13.100000000000001,-23.400000000000002,16
136,2491.0,2.5,1.1,3.6,2.9000000000000004,2.8000000000000003,13.100000000000001,-83.89999999999999,11.8,-70.3,16
137,2508.0,0.9,-0.9,4.4,1.4000000000000001,1.0,13.9,-82.60000000000001,24.599999999999998,-80.10000000000001,16
138,2524.0,-0.9,-2.3000000000000003,4.3,-0.30000000000000004,-0.5,13.9,-78.4,53.50000000000001,-73.9,16
139,2542.0,-1.1,-2.3000000000000003,3.9000000000000004,-1.1,-0.9,13.100000000000001,-65.2,82.7,-56.50000000000001,16
140,2558.0,-1.5,-2.0,2.4000000000000004,-1.6,-0.7000000000000001,12.0,-44.7,81.90000000000002,-34.2,16
141,2576.0,-1.1,-1.5,1.4000000000000001,-1.4000000000000001,-0.30000000000000004,11.200000000000001,-17.799999999999997,59.9,-10.700000000000001,16
142,2592.0,-0.1,-0.7000000000000001,1.5,-0.6000000000000001,0.4,11.200000000000001,10.700000000000001,23.900000000000006,8.5,16
143,2608.0,0.6000000000000001,-0.2,1.7000000000000002,0.5,1.3,11.200000000000001,28.1,-0.7,18.0,16
144,2625.0,1.8,0.8,1.1,1.5,2.3000000000000003,10.8,31.400000000000002,-10.200000000000001,16.200000000000003,16
145,2642.0,2.5,1.6,0.4,2.1,3.1,10.200000000000001,25.5,-2.9,5.8,16
146,2658.0,2.6,1.8,-0.1,2.3000000000000003,3.4000000000000004,9.4,18.900000000000002,5.7,-9.700000000000001,16
147,2674.0,2.2,1.6,-0.8,1.8,3.2,8.8,11.3,13.6,-25.1,16
148,2691.0,1.2000000000000002,1.0,-1.1,0.9,2.7,8.6,7.0,21.0,-34.0,16
149,2707.0,0.9,0.5,-1.3,0.30000000000000004,2.0,8.3,7.0,21.0,-34.0,16
150,2724.0,0.2,-0.1,-1.5,-0.4,1.6,8.0,19.300000000000004,19.400000000000002,-39.0,16
151,2741.0,-0.2,-0.4,-2.4000000000000004,-0.8,1.4000000000000001,7.2,30.5,7.8,-34.0,16
152,2757.0,-0.2,-0.5,-2.8000000000000003,-0.7000000000000001,1.4000000000000001,6.800000000000001,37.800000000000004,-5.0,-27.700000000000003,16
153,2774.0,0.0,-0.4,-2.9000000000000004,-0.5,1.7000000000000002,6.6000000000000005,39.1,-14.0,-22.000000000000004,16
154,2791.0,0.1,-0.1,-2.8000000000000003,-0.4,2.1,6.7,37.1,-18.1,-18.0,16
155,2808.0,0.2,0.30000000000000004,-2.3000000000000003,-0.2,2.5,7.1000000000000005,34.800000000000004,-20.599999999999998,-15.8,16
156,2825.0,-0.2,0.7000000000000001,-1.7000000000000002,-0.5,2.9000000000000004,7.6000000000000005,35.0,-22.6,-14.5,16
157,2841.0,-0.4,1.0,-1.3,-0.9,3.5,8.1,36.5,-23.099999999999998,-10.5,16
158,2858.0,-1.2000000000000002,1.3,-1.0,-1.5,3.8000000000000003,8.3,36.7,-22.6,-1.1,16
159,2875.0,-0.8,2.1,-0.30000000000000004,-1.3,4.4,8.8,35.4,-20.400000000000002,12.9,16
160,2891.0,-0.5,2.6,0.0,-0.8,5.1000000000000005,9.0,34.50000000000001,-2.4000000000000004,19.200000000000003,16
161,2907.0,0.2,1.8,-0.7000000000000001,0.1,4.7,8.6,35.0,-0.2,22.5,16
162,2924.0,0.5,1.0,-0.1,0.4,4.1000000000000005,9.1,41.50000000000001,-1.5,14.600000000000001,16
163,2941.0,-0.7000000000000001,0.4,-0.7000000000000001,-0.7000000000000001,3.7,8.700000000000001,46.6,-2.5,14.900000000000002,16
164,2958.0,-0.8,0.1,-1.0,-1.0,3.3000000000000003,8.4,40.9,-1.5,22.700000000000003,16
165,2974.0,-0.8,0.2,-0.1,-1.0,3.5,9.0,31.099999999999998,13.8,31.7,16
166,2991.0,-0.30000000000000004,0.5,0.4,-0.6000000000000001,3.8000000000000003,9.4,23.400000000000002,18.0,35.599999999999994,16
167,3007.0,-0.1,0.8,0.2,-0.30000000000000004,4.3,9.3,18.200000000000003,11.900000000000002,33.300000000000004,16
168,3024.0,-0.30000000000000004,1.0,0.7000000000000001,-0.4,4.4,9.8,13.100000000000001,-7.0,32.5,16
169,3041.0,-0.30000000000000004,0.5,1.2000000000000002,-0.30000000000000004,4.1000000000000005,10.200000000000001,10.700000000000001,-27.5,33.50000000000001,16
170,3058.0,-0.4,0.30000000000000004,1.2000000000000002,-0.30000000000000004,3.8000000000000003,10.4,10.700000000000001,-27.5,33.50000000000001,16
171,3074.0,-0.5,0.2,2.0,-0.2,3.8000000000000003,11.200000000000001,-0.8,-61.199999999999996,40.1,16
172,3091.0,-0.4,0.30000000000000004,3.4000000000000004,0.1,3.8000000000000003,12.4,-0.9000000000000001,-68.60000000000001,44.6,16
173,3107.0,-0.30000000000000004,0.30000000000000004,4.7,0.5,3.8000000000000003,13.600000000000001,5.7,-67.3,46.4,16
174,3124.0,-0.2,0.1,4.800000000000001,0.8,3.5,13.8,13.900000000000002,-49.699999999999996,44.9,16
175,3141.0,-0.2,-0.7000000000000001,4.0,0.8,2.9000000000000004,13.0,17.300000000000004,-20.900000000000002,42.3,16
176,3157.0,-0.7000000000000001,-1.4000000000000001,2.1,0.4,2.3000000000000003,11.4,15.2,5.6,42.800000000000004,16
177,3175.0,-0.7000000000000001,-1.5,1.0,0.5,2.1,9.700000000000001,15.2,5.6,42.800000000000004,16
178,3193.0,-0.1,-1.3,-0.2,0.9,2.2,8.8,11.2,13.700000000000001,47.3,16
179,3208.0,-0.5,-1.3,-0.5,0.6000000000000001,2.2,8.6,11.5,6.600000000000001,49.4,16
180,3225.0,0.4,-1.6,-1.6,1.5,2.2,7.800000000000001,13.6,2.8,49.50000000000001,16
181,3242.0,-0.1,-1.9000000000000001,-1.6,1.0,1.7000000000000002,7.300000000000001,15.299999999999999,-4.7,46.800000000000004,16
182,3258.0,-0.30000000000000004,-2.4000000000000004,-3.1,1.0,1.2000000000000002,5.9,13.3,-6.500000000000001,50.60000000000001,16
183,3276.0,-0.30000000000000004,-2.8000000000000003,-4.2,1.1,0.9,4.800000000000001,7.0,-14.0,56.800000000000004,16
184,3291.0,-0.2,-2.7,-4.5,1.4000000000000001,0.9,4.4,3.0,-31.799999999999997,64.2,16
185,3308.0,0.1,-2.5,-4.2,1.9000000000000001,1.1,4.800000000000001,3.0,-54.6,70.4,16
186,3325.0,0.4,-2.3000000000000003,-3.4000000000000004,2.4000000000000004,1.1,5.4,6.8,-72.2,73.9,16
187,3341.0,0.4,-2.6,-2.6,2.7,0.9,5.9,12.600000000000001,-79.8,74.60000000000001,16
188,3358.0,0.4,-2.8000000000000003,-2.6,2.9000000000000004,0.5,6.0,16.5,-76.60000000000001,73.0,16
189,3374.0,0.30000000000000004,-3.1,-2.7,3.2,0.30000000000000004,5.800000000000001,15.100000000000001,-69.80000000000001,69.00000000000001,16
190,3391.0,0.1,-3.6,-2.5,3.2,-0.2,5.9,9.4,-57.3,63.8,16
191,3408.0,-0.2,-4.0,-2.4000000000000004,3.0,-0.8,5.5,0.5,-38.1,62.199999999999996,16
192,3425.0,-0.4,-3.9000000000000004,-3.7,3.0,-0.8,4.800000000000001,-14.300000000000002,-37.800000000000004,64.10000000000001,16
193,3441.0,-0.1,-3.7,-2.4000000000000004,3.4000000000000004,-0.7000000000000001,5.800000000000001,-23.800000000000004,-47.1,67.9,16
194,3458.0,0.1,-3.5,-1.0,3.7,-0.8,7.0,-29.300000000000004,-53.7,70.7,16
195,3474.0,0.1,-3.5,-0.2,3.9000000000000004,-0.9,8.200000000000001,-34.2,-51.1,72.2,16
196,3493.0,0.1,-3.3000000000000003,0.8,4.2,-0.9,9.0,-39.8,-40.800000000000004,71.8,16
197,3508.0,0.6000000000000001,-3.1,1.2000000000000002,4.7,-1.0,9.4,-45.3,-31.400000000000002,66.4,16
198,3529.0,1.2000000000000002,-3.1,1.2000000000000002,5.300000000000001,-1.1,9.4,-51.70000000000001,-28.500000000000004,55.900000000000006,16
199,3541.0,1.4000000000000001,-3.1,1.2000000000000002,5.800000000000001,-1.4000000000000001,9.5,-60.300000000000004,-35.2,43.00000000000001,16
200,3558.0,1.4000000000000001,-3.4000000000000004,1.8,5.9,-1.9000000000000001,10.0,-72.50000000000001,-42.400000000000006,31.400000000000002,16
201,3574.0,1.3,-3.6,3.3000000000000003,5.9,-2.3000000000000003,11.200000000000001,-88.8,-40.300000000000004,23.2,16
202,3592.0,1.5,-3.6,4.3,6.300000000000001,-2.6,12.600000000000001,-103.7,-26.400000000000006,13.100000000000001,16
203,3608.0,2.4000000000000004,-3.6,4.7,7.1000000000000005,-3.0,13.0,-118.90000000000002,-6.0,-4.5,16
204,3624.0,3.1,-3.3000000000000003,4.2,7.7,-3.0,12.600000000000001,-134.8,11.6,-26.9,16
205,3641.0,3.0,-3.1,3.9000000000000004,7.300000000000001,-3.0,12.200000000000001,-150.3,22.000000000000004,-50.7,16
206,3657.0,1.2000000000000002,-2.5,3.2,5.6000000000000005,-2.8000000000000003,11.700000000000001,-164.6,29.600000000000005,-65.6,16
207,3674.0,-0.8,-1.4000000000000001,3.3000000000000003,3.8000000000000003,-2.1,11.8,-172.4,33.50000000000001,-67.2,16
208,3691.0,-0.7000000000000001,-0.1,3.6,3.7,-1.4000000000000001,12.100000000000001,-167.60000000000002,29.1,-63.10000000000001,16
209,3707.0,0.0,0.30000000000000004,3.8000000000000003,4.6000000000000005,-0.9,12.3,-156.8,16.700000000000003,-63.70000000000001,16
210,3724.0,0.8,0.5,3.5,5.300000000000001,-1.1,12.0,-147.2,1.5,-67.00000000000001,16
211,3741.0,0.7000000000000001,0.0,4.2,5.300000000000001,-1.8,12.5,-139.4,-17.400000000000002,-64.2,16
212,3758.0,0.6000000000000001,-0.2,5.0,5.2,-2.2,13.600000000000001,-130.3,-27.3,-53.400000000000006,16
213,3777.0,0.30000000000000004,0.4,5.9,5.0,-1.8,14.200000000000001,-120.7,-19.700000000000003,-40.7,16
214,3791.0,0.1,2.3000000000000003,6.0,4.9,-0.30000000000000004,14.200000000000001,-108.0,-5.2,-34.0,16
215,3808.0,0.0,3.3000000000000003,5.7,4.7,1.1,13.600000000000001,-108.0,-5.2,-34.0,16
216,3824.0,-0.4,4.5,4.3,4.2,1.8,12.3,-73.30000000000001,30.1,-56.0,16
217,3841.0,-1.3,4.4,2.0,3.4000000000000004,1.7000000000000002,10.3,-61.599999999999994,45.2,-70.3,16
218,3857.0,-2.3000000000000003,3.9000000000000004,0.0,2.4000000000000004,1.2000000000000002,8.6,-55.8,53.10000000000001,-75.7,16
219,3874.0,-2.5,3.8000000000000003,-0.6000000000000001,2.0,1.0,7.6000000000000005,-48.50000000000001,49.800000000000004,-73.6,16
220,3891.0,-2.6,3.5,-1.4000000000000001,1.9000000000000001,0.8,7.0,-35.699999999999996,34.50000000000001,-68.60000000000001,16
221,3907.0,-2.4000000000000004,3.3000000000000003,-1.4000000000000001,2.1,0.7000000000000001,7.0,-19.700000000000003,16.200000000000003,-62.199999999999996,16
222,3924.0,-2.2,3.2,-1.6,2.4000000000000004,0.6000000000000001,6.5,-19.700000000000003,16.200000000000003,-62.199999999999996,16
223,3941.0,-1.9000000000000001,3.0,-2.4000000000000004,2.6,0.5,5.9,-8.899999999999999,-3.2,-55.900000000000006,16
224,3957.0,-1.8,2.8000000000000003,-2.0,2.8000000000000003,0.30000000000000004,6.2,-14.800000000000002,-3.1,-53.0,16
225,3975.0,-1.3,2.5,-1.9000000000000001,3.2,0.1,6.300000000000001,-20.3,-3.4,-50.5,16
226,3991.0,-1.2000000000000002,2.4000000000000004,-1.8,3.3000000000000003,0.0,6.6000000000000005,-25.0,-6.9,-48.800000000000004,16
227,4009.0,-1.3,2.7,-1.1,3.4000000000000004,0.30000000000000004,7.2,-30.5,-6.2,-45.0,16
228,4027.0,-1.2000000000000002,2.8000000000000003,0.30000000000000004,3.5,0.4,8.3,-34.900000000000006,-5.300000000000001,-44.00000000000001,16
229,4041.0,-0.6000000000000001,2.9000000000000004,2.0,4.0,0.6000000000000001,9.9,-31.6,-3.0,-46.6,16
230,4058.0,-0.30000000000000004,2.5,2.4000000000000004,4.5,0.1,10.700000000000001,-26.000000000000004,3.3000000000000007,-49.300000000000004,16
231,4074.0,0.1,2.1,3.5,4.800000000000001,-0.2,11.600000000000001,-16.3,2.6,-49.300000000000004,16
232,4091.0,0.6000000000000001,2.0,3.3000000000000003,5.300000000000001,-0.30000000000000004,11.700000000000001,-4.7,-7.1000000000000005,-45.9,16
233,4107.0,0.6000000000000001,2.1,4.2,5.5,0.1,12.8,-2.4000000000000004,-13.900000000000002,-41.199999999999996,16
234,4124.0,0.9,2.7,6.300000000000001,5.9,0.7000000000000001,14.600000000000001,10.4,-6.0,-39.599999999999994,16
235,4141.0,1.7000000000000002,2.4000000000000004,7.300000000000001,6.6000000000000005,0.6000000000000001,15.600000000000001,30.000000000000004,7.400000000000001,-43.2,16
236,4158.0,2.0,1.9000000000000001,6.800000000000001,7.0,0.0,14.600000000000001,30.000000000000004,7.400000000000001,-43.2,16
237,4175.0,2.1,1.4000000000000001,4.5,6.9,-0.2,12.8,30.200000000000003,42.60000000000001,-49.699999999999996,16
238,4191.0,1.6,1.2000000000000002,3.4000000000000004,6.4,-0.30000000000000004,12.100000000000001,20.1,37.7,-49.800000000000004,16
239,4209.0,0.30000000000000004,0.30000000000000004,4.5,5.2,-1.0,12.9,16.700000000000003,28.400000000000002,-40.5,16
240,4225.0,0.30000000000000004,1.5,5.0,4.800000000000001,0.4,14.200000000000001,25.8,19.9,-28.500000000000004,16
241,4242.0,-0.4,1.7000000000000002,6.300000000000001,4.4,0.6000000000000001,15.100000000000001,51.9,28.0,-14.5,16
242,4259.0,1.2000000000000002,0.6000000000000001,5.2,5.6000000000000005,-0.1,14.3,79.19999999999999,43.00000000000001,-9.4,16
243,4274.0,1.0,-0.30000000000000004,4.1000000000000005,5.2,-1.3,12.600000000000001,79.19999999999999,43.00000000000001,-9.4,16
244,4291.0,-0.2,-2.2,1.7000000000000002,4.0,-2.6,10.600000000000001,97.10000000000001,37.9,1.1,16
245,4307.0,-0.30000000000000004,-2.1,0.6000000000000001,4.0,-2.3000000000000003,9.8,86.4,23.3,16.900000000000002,16
246,4324.0,-0.1,-2.3000000000000003,1.5,4.2,-2.2,10.600000000000001,72.50000000000001,16.0,23.2,16
247,4341.0,-0.2,-2.4000000000000004,2.0,3.9000000000000004,-2.4000000000000004,11.4,59.20000000000001,27.3,31.799999999999997,16
248,4358.0,-1.1,-3.1,3.0,3.0,-2.8000000000000003,12.3,50.1,47.2,46.199999999999996,16
249,4374.0,0.0,-1.4000000000000001,1.3,3.8000000000000003,-1.2000000000000002,10.9,47.1,64.30000000000001,57.9,16
250,4391.0,-0.4,-1.5,0.9,3.4000000000000004,-0.8,10.3,47.1,64.30000000000001,57.9,16
251,4409.0,0.30000000000000004,-0.5,0.6000000000000001,4.0,-0.1,9.9,71.30000000000001,29.1,57.400000000000006,16
252,4426.0,0.8,-1.3,-0.8,4.5,-0.6000000000000001,8.700000000000001,87.40000000000002,16.6,40.0,16
253,4444.0,0.8,-2.5,-1.6,4.5,-1.4000000000000001,8.0,100.1,0.2,17.799999999999997,16
254,4458.0,0.6000000000000001,-3.2,-1.4000000000000001,4.0,-2.2,8.1,108.2,-5.9,4.2,16
255,4474.0,-0.6000000000000001,-3.6,-2.1,3.1,-2.2,7.2,110.9,2.0,8.2,16
256,4491.0,-0.5,-3.4000000000000004,-3.5,3.1,-1.8,5.9,108.60000000000001,-4.800000000000001,15.8,16
257,4507.0,-0.5,-3.4000000000000004,-3.7,3.3000000000000003,-1.5,5.6000000000000005,107.9,-20.900000000000002,17.7,16
258,4524.0,-0.1,-3.5,-3.4000000000000004,3.6,-1.6,5.4,107.9,-24.5,11.900000000000002,16
259,4541.0,-0.1,-4.0,-3.8000000000000003,3.8000000000000003,-1.7000000000000002,5.1000000000000005,106.60000000000001,-38.0,6.4,16
260,4557.0,0.8,-3.6,-3.2,4.7,-0.7000000000000001,5.9,109.2,-29.900000000000006,-13.6,16
261,4574.0,0.8,-4.1000000000000005,-3.7,4.7,-1.1,5.0,108.10000000000001,-25.6,-31.3,16
262,4591.0,0.1,-4.1000000000000005,-3.7,4.1000000000000005,-0.9,4.800000000000001,104.80000000000001,-32.1,-37.7,16
263,4608.0,-0.9,-3.5,-2.5,3.4000000000000004,-0.1,5.6000000000000005,104.2,-50.0,-42.0,16
264,4629.0,-1.9000000000000001,-3.8000000000000003,-0.7000000000000001,2.6,0.2,6.800000000000001,107.5,-56.9,-43.6,16
265,4643.0,-2.1,-4.800000000000001,-0.2,2.3000000000000003,-0.9,7.300000000000001,103.60000000000001,-18.900000000000002,-34.800000000000004,16
266,4657.0,0.0,-5.6000000000000005,-3.3000000000000003,4.1000000000000005,-1.4000000000000001,4.6000000000000005,82.2,3.5,-20.400000000000002,16
267,4674.0,1.0,-5.4,-4.4,5.9,-0.8,2.7,82.2,3.5,-20.400000000000002,16
268,4691.0,2.7,-5.0,-5.4,6.7,-0.7000000000000001,2.7,32.8,-67.9,-20.900000000000002,16
269,4707.0,1.3,-5.1000000000000005,-1.6,5.800000000000001,-0.7000000000000001,5.9,22.1,-103.89999999999999,-17.9,16
270,4724.0,1.0,-4.0,0.7000000000000001,5.7,0.30000000000000004,7.9,20.2,-76.5,-13.6,16
271,4741.0,0.7000000000000001,-4.3,-0.8,5.5,-0.2,5.5,8.700000000000001,-37.6,-8.5,16
272,4757.0,1.5,-5.300000000000001,-3.7,6.4,-1.0,3.4000000000000004,-23.2,-20.8,3.9,16
273,4774.0,2.2,-5.2,-3.9000000000000004,7.1000000000000005,-1.1,3.3000000000000003,-56.10000000000001,-13.200000000000003,11.700000000000001,16
274,4791.0,1.0,-4.800000000000001,-2.4000000000000004,6.300000000000001,-0.9,4.4,-74.2,-28.500000000000004,18.700000000000003,16
275,4807.0,0.30000000000000004,-4.7,-0.7000000000000001,5.300000000000001,-1.0,6.7,-69.60000000000001,-53.0,35.3,16
276,4824.0,0.5,-4.2,0.30000000000000004,5.9,-0.7000000000000001,7.5,-49.4,-73.0,55.2,16
277,4841.0,1.3,-3.2,0.0,6.9,0.0,7.300000000000001,-36.1,-73.30000000000001,62.0,16
278,4858.0,1.9000000000000001,-4.0,-1.1,7.9,-1.2000000000000002,5.6000000000000005,-38.60000000000001,-71.39999999999999,66.1,16
279,4876.0,2.2,-4.7,-1.8,8.200000000000001,-1.9000000000000001,5.1000000000000005,-55.8,-68.2,71.7,16
280,4893.0,1.4000000000000001,-5.0,-1.7000000000000002,7.7,-2.6,5.1000000000000005,-67.10000000000001,-78.9,85.30000000000001,16
281,4907.0,1.5,-4.5,-0.6000000000000001,8.0,-2.6,5.9,-72.60000000000001,-90.4,98.39999999999999,16
282,4924.0,1.3,-4.3,-0.2,8.1,-2.4000000000000004,6.4,-72.60000000000001,-99.60000000000001,110.2,16
283,4941.0,1.3,-3.1,0.6000000000000001,8.4,-1.7000000000000002,7.0,-68.60000000000001,-102.7,118.69999999999999,16
284,4957.0,1.2000000000000002,-2.2,1.0,8.6,-1.3,7.4,-66.7,-89.5,122.10000000000002,16
285,4974.0,0.8,-1.7000000000000002,0.7000000000000001,8.200000000000001,-0.8,6.5,-57.1,-94.7,124.10000000000001,16
286,4997.0,0.0,0.0,-0.2,7.6000000000000005,-0.1,5.6000000000000005,-55.3,-100.9,117.9,16
287,5007.0,-0.2,0.1,0.0,7.6000000000000005,-0.1,5.6000000000000005,-63.30000000000001,-92.50000000000001,113.1,16
288,5024.0,-0.1,0.30000000000000004,0.6000000000000001,7.7,-0.30000000000000004,5.9,-76.0,-69.80000000000001,110.0,16
289,5041.0,-0.2,0.6000000000000001,0.9,7.7,-0.2,6.4,-84.9,-47.60000000000001,105.0,16
290,5058.0,-0.1,0.9,1.8,7.9,-0.30000000000000004,7.0,-80.10000000000001,-37.1,100.80000000000001,16
291,5074.0,-0.1,1.2000000000000002,2.2,7.800000000000001,-0.5,7.300000000000001,-68.60000000000001,-30.3,102.7,16
292,5092.0,-0.1,2.2,1.1,7.9,0.0,6.5,-62.7,-20.900000000000002,102.7,16
293,5108.0,-0.1,2.5,0.6000000000000001,7.9,0.30000000000000004,5.6000000000000005,-63.500000000000014,-17.200000000000003,98.9,16
294,5126.0,1.0,2.9000000000000004,0.7000000000000001,8.8,0.4,5.6000000000000005,-65.5,-15.2,91.4,16
295,5141.0,1.3,2.9000000000000004,1.0,9.1,0.1,6.2,-65.5,-15.2,91.4,16
296,5158.0,1.2000000000000002,2.7,1.8,9.0,-0.2,6.6000000000000005,-65.6,-0.9000000000000001,77.3,16
297,5175.0,1.3,2.8000000000000003,1.9000000000000001,9.3,-0.30000000000000004,6.6000000000000005,-65.6,-0.9000000000000001,77.3,16
298,5192.0,2.5,3.1,1.9000000000000001,10.0,-0.30000000000000004,6.6000000000000005,-75.5,18.200000000000003,71.39999999999999,16
299,5209.0,3.3000000000000003,3.0,2.2,10.600000000000001,-0.7000000000000001,6.800000000000001,-81.8,22.2,65.5,16
300,5225.0,3.6,2.9000000000000004,2.5,11.100000000000001,-1.0,7.2,-86.4,20.8,58.900000000000006,16
301,5241.0,3.8000000000000003,2.8000000000000003,3.3000000000000003,11.3,-1.3,7.9,-84.5,7.500000000000001,53.9,16
302,5258.0,3.2,3.2,4.6000000000000005,10.700000000000001,-1.5,8.4,-73.0,-24.3,55.5,16
303,5274.0,3.9000000000000004,3.6,5.7,11.600000000000001,-1.0,10.200000000000001,-53.0,-41.4,58.3,16
304,5291.0,5.6000000000000005,3.1,6.2,13.0,-1.5,10.5,-32.8,-45.400000000000006,56.0,16
305,5308.0,6.800000000000001,4.1000000000000005,7.2,14.100000000000001,-0.8,11.3,-10.600000000000001,-47.7,47.5,16
306,5327.0,6.5,4.6000000000000005,7.2,14.3,-0.30000000000000004,11.200000000000001,18.1,-54.0,32.5,16
307,5342.0,6.6000000000000005,4.800000000000001,6.9,14.200000000000001,0.2,11.0,44.5,-53.2,22.1,16
308,5358.0,5.9,6.0,4.7,13.8,1.3,9.0,68.2,-58.7,6.4,16
309,5374.0,4.800000000000001,5.6000000000000005,3.8000000000000003,12.600000000000001,1.0,7.7,68.2,-58.7,6.4,16
310,5391.0,5.300000000000001,5.1000000000000005,2.7,13.5,0.7000000000000001,6.7,95.60000000000002,-76.89999999999999,-15.2,16
311,5407.0,5.6000000000000005,4.0,1.8,13.8,0.1,5.9,96.0,-74.80000000000001,-32.2,16
312,5424.0,5.1000000000000005,3.3000000000000003,1.8,13.200000000000001,-0.8,5.9,96.0,-74.80000000000001,-32.2,16
313,5441.0,4.3,2.3000000000000003,2.1,12.5,-1.4000000000000001,6.2,80.9,-45.5,-53.7,16
314,5458.0,3.1,1.7000000000000002,2.2,11.700000000000001,-1.6,6.2,76.0,-30.799999999999997,-57.800000000000004,16
315,5474.0,2.7,1.5,2.0,11.4,-1.5,6.1000000000000005,75.5,-21.1,-61.599999999999994,16
316,5491.0,2.2,1.6,1.7000000000000002,11.200000000000001,-1.2000000000000002,6.0,81.0,-18.3,-67.8,16
317,5509.0,2.0,1.5,1.4000000000000001,10.8,-1.0,5.5,90.9,-21.8,-75.7,16
318,5527.0,1.6,1.0,0.9,10.600000000000001,-1.1,5.1000000000000005,100.9,-29.600000000000005,-84.0,16
319,5543.0,1.3,0.30000000000000004,1.0,10.5,-1.3,5.1000000000000005,110.10000000000001,-36.8,-93.2,16
320,5557.0,1.2000000000000002,-0.1,1.1,10.3,-1.5,5.2,117.30000000000001,-37.7,-103.10000000000001,16
321,5574.0,0.8,-0.9,1.1,10.0,-1.8,5.1000000000000005,120.7,-30.5,-113.4,16
322,5592.0,0.30000000000000004,-2.0,0.30000000000000004,9.700000000000001,-2.3000000000000003,4.4,117.0,-17.799999999999997,-121.5,16
323,5608.0,0.1,-2.6,-0.2,9.4,-2.9000000000000004,3.5,117.0,-17.799999999999997,-121.5,16
324,5624.0,-0.4,-3.9000000000000004,-1.2000000000000002,8.8,-3.5,2.7,94.0,2.9,-127.5,16
325,5641.0,-1.1,-4.800000000000001,-1.7000000000000002,8.3,-3.9000000000000004,2.3000000000000003,82.0,4.5,-123.00000000000001,16
326,5657.0,-1.3,-5.300000000000001,-1.6,8.0,-3.9000000000000004,2.3000000000000003,74.80000000000001,-3.4,-118.10000000000001,16
327,5674.0,-1.5,-5.6000000000000005,-1.3,7.6000000000000005,-4.0,2.7,71.39999999999999,-10.4,-113.2,16
328,5690.0,-2.2,-6.0,-0.8,6.9,-4.1000000000000005,3.0,69.10000000000001,-12.5,-106.20000000000002,16
329,5707.0,-3.2,-6.4,-0.6000000000000001,6.0,-4.1000000000000005,3.1,67.5,-11.6,-96.30000000000001,16
330,5724.0,-3.5,-6.5,-0.5,5.5,-4.2,3.1,68.9,-12.100000000000001,-84.5,16
331,5741.0,-3.8000000000000003,-7.4,-0.9,5.2,-4.800000000000001,2.6,69.60000000000001,-15.5,-72.50000000000001,16
332,5758.0,-3.4000000000000004,-7.0,-1.6,5.5,-4.2,1.8,66.1,-24.599999999999998,-59.5,16
333,5775.0,-3.4000000000000004,-8.3,-1.9000000000000001,5.6000000000000005,-5.0,1.4000000000000001,60.2,-40.9,-49.699999999999996,16
334,5791.0,-3.5,-8.700000000000001,-2.0,5.5,-5.7,1.1,43.800000000000004,-49.800000000000004,-34.50000000000001,16
335,5810.0,-2.7,-8.8,-0.9,6.2,-5.800000000000001,2.1,20.8,-41.900000000000006,-16.4,16
336,5824.0,-2.2,-8.700000000000001,0.30000000000000004,6.6000000000000005,-5.9,3.2,-5.4,-14.200000000000001,-0.4,16
337,5841.0,-1.8,-8.6,0.0,7.0,-5.7,3.1,-29.0,9.5,11.2,16
338,5857.0,-1.6,-8.5,-0.30000000000000004,7.300000000000001,-5.800000000000001,2.7,-55.1,24.1,20.0,16
339,5874.0,-1.2000000000000002,-8.3,-1.0,7.6000000000000005,-5.9,2.3000000000000003,-81.2,31.5,27.400000000000002,16
340,5891.0,-0.9,-8.1,-0.9,8.0,-5.800000000000001,2.7,-81.2,31.5,27.400000000000002,16
341,5908.0,-1.2000000000000002,-7.4,0.0,7.4,-5.300000000000001,3.5,-115.39999999999999,29.200000000000003,38.50000000000001,16
342,5926.0,-1.8,-6.300000000000001,0.8,7.0,-4.6000000000000005,4.5,-118.60000000000001,23.400000000000002,51.4,16
343,5941.0,-0.8,-5.6000000000000005,1.8,7.9,-4.4,5.4,-111.4,13.700000000000001,66.9,16
344,5957.0,0.1,-5.5,2.2,9.4,-4.5,6.0,-97.00000000000001,3.1,84.0,16
345,5974.0,2.1,-5.1000000000000005,2.5,11.200000000000001,-4.5,6.2,-75.60000000000001,-9.700000000000001,100.0,16
346,5991.0,3.7,-4.5,1.7000000000000002,12.600000000000001,-4.3,5.5,-53.0,-24.1,112.9,16
347,6007.0,3.9000000000000004,-3.8000000000000003,0.9,12.8,-3.5,4.0,-53.0,-24.1,112.9,16
348,6026.0,3.5,-2.1,-0.30000000000000004,12.600000000000001,-2.4000000000000004,3.1,-42.2,-48.400000000000006,125.60000000000001,16
349,6044.0,3.3000000000000003,-0.30000000000000004,-0.4,12.5,-1.2000000000000002,2.9000000000000004,-58.2,-45.0,122.30000000000001,16
350,6057.0,2.9000000000000004,1.1,0.0,12.100000000000001,-0.4,3.1,-78.5,-34.800000000000004,111.9,16
351,6074.0,2.7,1.6,0.1,11.5,0.0,3.4000000000000004,-102.0,-11.4,94.5,16
352,6091.0,1.4000000000000001,2.1,0.6000000000000001,10.4,0.2,3.7,-114.3,5.0,79.9,16
353,6107.0,0.7000000000000001,2.6,1.2000000000000002,9.8,0.30000000000000004,4.3,-114.9,13.8,67.2,16
354,6124.0,0.4,2.8000000000000003,1.7000000000000002,9.200000000000001,0.5,4.9,-114.9,13.8,67.2,16
355,6141.0,-0.4,3.0,2.2,8.4,0.30000000000000004,5.4,-83.2,17.7,43.300000000000004,16
356,6158.0,-1.3,2.8000000000000003,2.2,7.5,0.1,5.300000000000001,-61.0,20.900000000000002,38.400000000000006,16
357,6174.0,-1.6,2.9000000000000004,1.2000000000000002,7.2,0.0,4.5,-41.6,21.7,37.300000000000004,16
358,6191.0,-1.4000000000000001,3.0,1.0,7.300000000000001,0.1,4.0,-27.6,21.0,35.8,16
359,6207.0,-1.5,3.0,0.4,7.300000000000001,0.0,3.6,-18.900000000000002,20.2,33.400000000000006,16
360,6224.0,-1.0,2.8000000000000003,0.1,7.6000000000000005,-0.30000000000000004,3.4000000000000004,-15.2,20.1,32.9,16
361,6241.0,-0.8,2.8000000000000003,0.0,7.800000000000001,-0.5,3.2,-15.2,20.1,32.9,16
362,6257.0,-0.6000000000000001,2.5,-0.30000000000000004,8.0,-0.7000000000000001,3.0,-12.4,20.400000000000002,34.60000000000001,16
363,6275.0,0.2,2.7,-0.2,8.6,-0.7000000000000001,3.2,-10.700000000000001,17.9,36.1,16
364,6291.0,0.4,2.7,-0.2,8.9,-0.8,3.1,-10.700000000000001,17.9,36.1,16
365,6307.0,0.9,2.4000000000000004,-0.6000000000000001,9.5,-1.1,2.8000000000000003,-15.399999999999999,11.3,35.4,16
366,6324.0,1.9000000000000001,2.1,-0.6000000000000001,10.3,-1.6,2.8000000000000003,-23.900000000000006,4.0,35.599999999999994,16
367,6340.0,2.6,1.5,-0.1,10.9,-2.1,3.2,-32.400000000000006,-5.300000000000001,37.800000000000004,16
368,6357.0,3.1,1.3,0.5,11.8,-2.6,4.2,-32.400000000000006,-5.300000000000001,37.800000000000004,16
369,6374.0,4.2,1.4000000000000001,2.3000000000000003,12.600000000000001,-2.5,5.7,-38.7,-16.1,47.5,16
370,6391.0,4.9,2.1,3.8000000000000003,13.3,-2.0,7.0,-32.7,-8.700000000000001,49.50000000000001,16
371,6407.0,5.5,2.4000000000000004,3.9000000000000004,14.3,-1.8,7.1000000000000005,-32.7,-8.700000000000001,49.50000000000001,16
372,6426.0,6.5,2.5,4.1000000000000005,14.8,-1.9000000000000001,7.300000000000001,-22.9,0.8,40.9,16
373,6444.0,6.4,2.7,4.7,14.600000000000001,-1.7000000000000002,7.9,-17.200000000000003,6.0,38.60000000000001,16
374,6459.0,5.6000000000000005,3.6,5.4,13.9,-1.0,8.6,-0.4,9.899999999999999,40.1,16
375,6474.0,5.2,4.1000000000000005,5.300000000000001,13.4,-0.1,8.5,-0.4,9.899999999999999,40.1,16
376,6490.0,5.300000000000001,5.2,4.4,13.700000000000001,0.7000000000000001,7.7,60.7,-4.4,36.2,16
377,6507.0,6.300000000000001,5.4,3.0,14.600000000000001,1.0,6.5,91.0,-25.900000000000002,14.800000000000002,16
378,6524.0,5.9,4.0,1.8,14.4,0.0,5.5,109.60000000000001,-45.9,-14.0,16
379,6541.0,4.9,3.0,1.3,13.100000000000001,-1.4000000000000001,4.7,113.00000000000001,-52.400000000000006,-33.400000000000006,16
380,6557.0,3.0,1.3,0.7000000000000001,11.600000000000001,-2.5,4.3,106.0,-50.1,-37.300000000000004,16
381,6574.0,2.0,0.8,1.0,10.8,-2.8000000000000003,4.5,97.7,-42.7,-33.1,16
382,6591.0,1.9000000000000001,0.9,1.1,10.8,-2.5,4.800000000000001,97.7,-42.7,-33.1,16
383,6607.0,1.9000000000000001,1.3,1.2000000000000002,10.8,-1.9000000000000001,4.800000000000001,97.00000000000001,-31.7,-32.8,16
384,6624.0,1.4000000000000001,1.6,1.0,10.4,-1.4000000000000001,4.7,103.2,-30.3,-40.5,16
385,6641.0,0.4,1.3,0.5,9.600000000000001,-1.3,4.2,109.9,-32.300000000000004,-49.0,16
386,6657.0,-0.1,1.1,0.30000000000000004,9.0,-1.5,3.8000000000000003,114.9,-37.0,-55.5,16
387,6674.0,-0.6000000000000001,0.6000000000000001,-0.30000000000000004,8.700000000000001,-1.6,3.3000000000000003,116.2,-43.2,-60.00000000000001,16
388,6692.0,-0.7000000000000001,0.1,-0.2,8.6,-1.8,3.3000000000000003,115.3,-47.400000000000006,-64.2,16
389,6711.0,-0.9,-0.4,-0.2,8.5,-1.8,3.3000000000000003,115.3,-48.9,-69.80000000000001,16
390,6727.0,-1.1,-1.1,-0.4,8.3,-2.3000000000000003,2.8000000000000003,113.7,-50.60000000000001,-76.1,16
391,6741.0,-1.2000000000000002,-1.4000000000000001,-0.5,8.3,-2.3000000000000003,2.8000000000000003,108.2,-49.50000000000001,-81.90000000000002,16
392,6758.0,-1.6,-2.2,-0.8,8.1,-2.7,2.4000000000000004,98.60000000000001,-46.199999999999996,-86.89999999999999,16
393,6775.0,-1.7000000000000002,-2.5,-0.9,7.9,-3.0,2.1,86.1,-44.4,-90.30000000000001,16
394,6792.0,-1.8,-3.2,-0.8,7.800000000000001,-3.3000000000000003,2.1,71.6,-40.6,-92.0,16
395,6808.0,-2.2,-3.7,-0.9,7.5,-3.4000000000000004,1.9000000000000001,55.400000000000006,-35.2,-92.3,16
396,6825.0,-2.2,-3.7,-0.8,7.4,-3.3000000000000003,2.0,38.900000000000006,-29.900000000000006,-92.50000000000001,16
397,6843.0,-2.3000000000000003,-4.0,-0.4,7.300000000000001,-3.3000000000000003,2.2,22.8,-21.7,-93.2,16
398,6857.0,-2.4000000000000004,-4.7,-0.30000000000000004,7.300000000000001,-3.6,2.3000000000000003,8.100000000000001,-15.6,-92.7,16
399,6875.0,-1.9000000000000001,-5.6000000000000005,-0.1,7.6000000000000005,-4.2,2.4000000000000004,-5.2,-13.3,-91.7,16
400,6893.0,-1.8,-6.1000000000000005,0.0,7.7,-4.9,2.6,-18.5,-10.9,-88.8,16
401,6907.0,-1.6,-7.1000000000000005,0.4,7.9,-5.6000000000000005,2.9000000000000004,-31.6,-10.600000000000001,-82.39999999999999,16
402,6924.0,-1.5,-7.9,1.1,8.0,-6.2,3.6,-43.4,-8.2,-73.0,16
403,6941.0,-1.8,-8.0,1.4000000000000001,7.5,-6.2,4.1000000000000005,-54.300000000000004,1.1,-60.8,16
404,6958.0,-2.1,-7.9,1.5,7.300000000000001,-6.2,4.2,-64.10000000000001,6.0,-47.900000000000006,16
405,6975.0,-1.5,-8.4,1.8,7.800000000000001,-6.7,4.5,-72.80000000000001,9.0,-35.5,16
406,6994.0,-1.3,-8.9,1.7000000000000002,8.0,-7.1000000000000005,4.6000000000000005,-80.8,15.5,-22.8,16
407,7010.0,-1.3,-9.0,1.6,7.800000000000001,-7.4,4.4,-89.10000000000001,22.000000000000004,-8.4,16
408,7025.0,-2.3000000000000003,-8.5,1.4000000000000001,6.9,-7.1000000000000005,4.5,-96.9,29.0,11.900000000000002,16
409,7041.0,-2.9000000000000004,-7.7,1.4000000000000001,6.2,-5.9,4.7,-96.9,29.0,11.900000000000002,16
410,7057.0,-2.5,-6.0,1.9000000000000001,7.1000000000000005,-4.9,5.300000000000001,-86.4,21.400000000000002,57.9,16
411,7074.0,-0.5,-5.1000000000000005,2.2,8.8,-4.6000000000000005,5.5,-67.60000000000001,10.8,71.10000000000001,16
412,7090.0,1.0,-4.9,1.7000000000000002,10.100000000000001,-4.6000000000000005,5.1000000000000005,-48.10000000000001,2.8,79.6,16
413,7108.0,1.8,-4.7,0.7000000000000001,10.9,-4.800000000000001,4.2,-33.300000000000004,-3.7000000000000006,86.4,16
414,7126.0,1.8,-4.4,0.1,11.0,-4.6000000000000005,3.3000000000000003,-27.0,-6.500000000000001,92.60000000000001,16
415,7143.0,1.3,-3.3000000000000003,-1.1,10.5,-3.9000000000000004,2.2,-31.099999999999998,-8.3,97.7,16
416,7162.0,0.9,-1.9000000000000001,-1.7000000000000002,10.100000000000001,-3.0,1.6,-44.10000000000001,-8.4,101.80000000000001,16
417,7174.0,0.8,-1.1,-1.6,10.0,-2.0,1.7000000000000002,-62.199999999999996,-3.8,101.50000000000001,16
418,7191.0,0.8,0.30000000000000004,-1.3,10.0,-1.2000000000000002,2.0,-80.10000000000001,4.0,94.80000000000001,16
419,7209.0,0.7000000000000001,1.3,-0.4,9.8,-0.7000000000000001,2.7,-93.4,15.5,84.6,16
420,7227.0,-0.30000000000000004,2.0,0.1,9.0,-0.30000000000000004,3.3000000000000003,-97.2,27.099999999999998,74.10000000000001,16
421,7240.0,-0.6000000000000001,2.4000000000000004,0.2,8.3,0.0,3.5,-90.9,30.200000000000003,66.9,16
422,7257.0,-0.9,3.0,0.4,7.9,0.30000000000000004,3.6,-76.60000000000001,26.000000000000004,59.9,16
423,7275.0,-1.5,3.2,0.0,7.4,0.4,3.3000000000000003,-60.300000000000004,17.9,53.2,16
424,7291.0,-1.5,3.2,-0.4,7.300000000000001,0.2,2.8000000000000003,-49.300000000000004,10.5,48.50000000000001,16
425,7308.0,-1.3,3.3000000000000003,-0.4,7.4,0.1,2.8000000000000003,-44.4,8.700000000000001,43.00000000000001,16
426,7327.0,-1.4000000000000001,2.9000000000000004,-0.5,7.2,-0.30000000000000004,2.6,-44.4,12.299999999999999,37.9,16
427,7342.0,-1.3,2.5,-0.9,7.2,-0.8,2.3000000000000003,-48.9,17.200000000000003,35.5,16
428,7359.0,-1.2000000000000002,2.3000000000000003,-0.9,7.300000000000001,-1.3,2.4000000000000004,-55.1,20.599999999999998,35.9,16
429,7374.0,-0.9,1.8,-0.4,7.6000000000000005,-1.8,2.7,-58.7,22.000000000000004,38.50000000000001,16
430,7391.0,0.1,1.8,-0.2,8.3,-2.0,2.9000000000000004,-58.60000000000001,18.700000000000003,42.400000000000006,16
431,7408.0,0.9,1.8,0.1,9.5,-2.1,3.4000000000000004,-54.6,9.899999999999999,44.2,16
432,7428.0,2.1,1.6,0.6000000000000001,11.200000000000001,-2.7,3.8000000000000003,-50.60000000000001,1.3,44.4,16
433,7441.0,3.0,1.4000000000000001,0.9,11.200000000000001,-2.7,3.8000000000000003,-51.300000000000004,-7.0,46.4,16
434,7457.0,4.0,1.0,1.9000000000000001,12.0,-3.2,4.5,-56.7,-14.400000000000002,51.1,16
435,7475.0,4.5,1.0,2.6,12.8,-3.5,5.7,-65.6,-14.400000000000002,59.80000000000001,16
436,7496.0,5.4,1.9000000000000001,4.7,13.5,-2.9000000000000004,7.4,-69.20000000000002,-9.4,69.10000000000001,16
437,7510.0,7.0,3.3000000000000003,6.5,14.8,-1.8,8.9,-61.599999999999994,-4.0,73.2,16
438,7524.0,8.0,3.9000000000000004,7.0,16.400000000000002,-1.0,9.9,-44.4,-1.1,68.5,16
439,7541.0,9.0,5.1000000000000005,7.9,17.0,0.0,10.5,-20.599999999999998,3.6000000000000005,56.800000000000004,16
440,7557.0,8.700000000000001,6.1000000000000005,7.800000000000001,16.8,0.8,10.600000000000001,8.5,7.500000000000001,40.5,16
441,7575.0,7.4,6.5,6.7,15.8,1.3,9.9,41.4,10.1,22.000000000000004,16
442,7591.0,6.7,6.300000000000001,5.7,14.600000000000001,1.0,8.4,72.9,9.8,4.2,16
443,7607.0,5.5,5.2,2.9000000000000004,13.700000000000001,0.2,6.2,96.30000000000001,2.0,-11.3,16
444,7625.0,4.9,3.5,0.6000000000000001,13.200000000000001,-1.0,4.3,109.9,-15.000000000000002,-24.0,16
445,7642.0,4.800000000000001,2.7,0.2,13.0,-2.1,3.5,115.60000000000001,-35.699999999999996,-32.6,16
446,7658.0,3.9000000000000004,1.6,-0.6000000000000001,12.3,-2.7,2.8000000000000003,115.7,-52.1,-35.8,16
447,7675.0,3.4000000000000004,1.4000000000000001,-0.8,11.700000000000001,-2.8000000000000003,2.6,115.7,-52.1,-35.8,16
448,7692.0,2.9000000000000004,1.5,-0.2,11.600000000000001,-2.5,3.0,104.00000000000001,-68.4,-34.300000000000004,16
449,7710.0,2.9000000000000004,1.8,0.0,11.700000000000001,-1.9000000000000001,3.4000000000000004,98.7,-64.60000000000001,-39.0,16
450,7726.0,2.6,2.2,-0.2,11.600000000000001,-1.3,3.1,92.8,-56.800000000000004,-49.699999999999996,16
451,7740.0,1.5,2.4000000000000004,-0.4,10.8,-0.9,2.8000000000000003,85.20000000000002,-49.6,-63.500000000000014,16
452,7757.0,1.0,2.2,-0.4,10.0,-0.8,2.8000000000000003,77.9,-43.6,-77.00000000000001,16
453,7774.0,0.30000000000000004,2.0,0.1,9.600000000000001,-0.7000000000000001,3.3000000000000003,72.4,-35.3,-90.6,16
454,7790.0,-0.30000000000000004,1.1,0.9,9.200000000000001,-1.1,3.9000000000000004,71.9,-25.300000000000004,-104.60000000000001,16
455,7807.0,-0.5,-0.6000000000000001,1.3,9.0,-2.1,4.3,77.4,-17.1,-114.99999999999999,16
456,7824.0,-0.8,-1.4000000000000001,1.1,8.700000000000001,-3.0,4.2,87.00000000000001,-12.299999999999999,-120.60000000000001,16
457,7841.0,-1.4000000000000001,-2.7,0.8,8.200000000000001,-3.7,4.0,97.89999999999999,-14.0,-121.2,16
458,7859.0,-2.0,-3.9000000000000004,0.1,7.7,-4.4,3.3000000000000003,106.70000000000002,-19.9,-117.1,16
459,7874.0,-2.3000000000000003,-4.3,-0.30000000000000004,7.300000000000001,-4.6000000000000005,2.6,109.50000000000001,-28.400000000000002,-109.2,16
460,7891.0,-2.4000000000000004,-4.6000000000000005,-0.8,7.300000000000001,-4.5,2.2,105.4,-36.7,-100.9,16
461,7907.0,-2.3000000000000003,-4.800000000000001,-0.8,7.4,-4.4,2.0,96.9,-41.6,-95.0,16
462,7924.0,-2.3000000000000003,-4.9,-0.8,7.5,-4.3,1.8,96.9,-41.6,-95.0,16
463,7941.0,-2.2,-5.1000000000000005,-0.7000000000000001,7.5,-4.2,1.8,68.0,-41.0,-88.7,16
464,7957.0,-2.3000000000000003,-5.5,-0.8,7.4,-4.3,1.6,49.6,-37.2,-86.7,16
465,7974.0,-2.2,-6.300000000000001,-0.8,7.5,-4.7,1.5,28.0,-32.300000000000004,-83.60000000000001,16
466,7991.0,-2.2,-6.6000000000000005,-0.7000000000000001,7.4,-5.2,1.6,4.5,-25.300000000000004,-79.00000000000001,16
467,8007.0,-2.1,-7.4,-0.5,7.5,-5.7,1.7000000000000002,-18.8,-19.400000000000002,-71.7,16
468,8024.0,-1.9000000000000001,-8.1,0.1,7.7,-6.300000000000001,2.2,-41.50000000000001,-12.200000000000001,-62.300000000000004,16
469,8044.0,-2.1,-8.4,0.6000000000000001,7.5,-6.5,2.7,-61.8,-1.9,-51.1,16
470,8058.0,-2.0,-8.5,0.7000000000000001,7.6000000000000005,-6.7,3.0,-78.60000000000001,4.300000000000001,-39.300000000000004,16
471,8074.0,-1.0,-9.1,1.3,8.4,-7.300000000000001,3.7,-91.10000000000001,8.3,-29.900000000000006,16
472,8091.0,-1.0,-10.100000000000001,1.5,8.5,-8.200000000000001,4.0,-99.5,14.600000000000001,-20.7,16
473,8110.0,-2.7,-10.700000000000001,1.0,7.4,-9.1,3.7,-106.5,18.5,-3.1,16
474,8124.0,-3.7,-10.200000000000001,1.0,5.6000000000000005,-8.8,3.6,-111.50000000000001,14.200000000000001,26.9,16
475,8140.0,-4.2,-8.3,1.9000000000000001,5.1000000000000005,-7.6000000000000005,4.5,-109.39999999999999,3.1,62.800000000000004,16
476,8158.0,-3.3000000000000003,-7.6000000000000005,2.5,6.7,-6.7,5.4,-109.39999999999999,3.1,62.800000000000004,16
477,8174.0,-0.7000000000000001,-6.7,3.3000000000000003,9.0,-6.5,6.1000000000000005,-81.8,-11.2,114.00000000000001,16
478,8191.0,1.5,-5.9,3.4000000000000004,10.8,-6.2,6.2,-60.900000000000006,-8.3,126.49999999999999,16
479,8207.0,2.2,-5.5,3.0,11.9,-6.0,5.300000000000001,-60.900000000000006,-8.3,126.49999999999999,16
480,8224.0,2.5,-4.6000000000000005,1.6,11.700000000000001,-5.5,4.0,-18.8,-9.700000000000001,136.2,16
481,8241.0,1.6,-3.1,-0.2,10.9,-4.5,2.4000000000000004,-9.3,-14.400000000000002,142.0,16
482,8258.0,1.3,-1.3,-1.4000000000000001,10.600000000000001,-3.5,1.3,-8.899999999999999,-18.6,147.6,16
483,8275.0,1.7000000000000002,0.8,-1.8,10.8,-2.1,0.8,-17.200000000000003,-17.799999999999997,147.7,16
484,8291.0,1.8,1.8,-1.9000000000000001,11.0,-0.7000000000000001,0.6000000000000001,-31.799999999999997,-10.1,137.20000000000002,16
485,8307.0,1.8,3.5,-1.5,10.9,0.4,0.8,-49.300000000000004,2.7,118.69999999999999,16
486,8324.0,1.1,4.5,-1.0,10.3,1.1,1.3,-65.6,17.799999999999997,95.9,16
487,8340.0,0.7000000000000001,4.7,-0.8,9.4,1.1,1.7000000000000002,-77.20000000000002,28.500000000000004,74.5,16
488,8357.0,-0.1,4.3,-0.2,8.700000000000001,0.6000000000000001,2.2,-82.2,32.6,58.3,16
489,8374.0,-0.6000000000000001,3.9000000000000004,0.6000000000000001,8.200000000000001,0.1,2.9000000000000004,-79.5,33.0,47.2,16
490,8392.0,-1.0,3.6,0.8,7.7,-0.4,3.3000000000000003,-70.9,30.4,41.4,16
491,8407.0,-1.0,3.4000000000000004,1.2000000000000002,7.6000000000000005,-0.8,3.6,-59.80000000000001,27.700000000000003,39.400000000000006,16
492,8424.0,-0.9,3.3000000000000003,1.3,7.6000000000000005,-1.0,3.7,-59.80000000000001,27.700000000000003,39.400000000000006,16
493,8440.0,-0.6000000000000001,3.1,1.2000000000000002,7.9,-1.2000000000000002,3.6,-49.9,28.1,38.7,16
494,8457.0,-0.5,3.1,1.0,7.9,-1.4000000000000001,3.4000000000000004,-37.50000000000001,35.599999999999994,39.300000000000004,16
495,8474.0,-0.2,2.9000000000000004,0.6000000000000001,8.1,-1.6,3.1,-33.800000000000004,37.800000000000004,42.800000000000004,16
496,8491.0,0.7000000000000001,2.8000000000000003,0.2,8.8,-1.8,2.9000000000000004,-30.599999999999998,35.2,46.1,16
497,8508.0,1.9000000000000001,2.3000000000000003,0.2,9.600000000000001,-2.3000000000000003,2.8000000000000003,-28.700000000000003,26.6,48.800000000000004,16
498,8524.0,2.6,2.1,0.6000000000000001,10.700000000000001,-2.8000000000000003,3.3000000000000003,-26.300000000000004,16.4,53.599999999999994,16
499,8541.0,3.9000000000000004,1.9000000000000001,1.5,11.8,-3.1,4.0,-21.1,8.700000000000001,58.7,16
500,8558.0,5.1000000000000005,2.1,2.0,12.8,-3.1,4.5,-14.800000000000002,0.0,64.30000000000001,16
501,8574.0,5.5,2.5,2.6,13.4,-2.6,5.300000000000001,-7.400000000000001,-4.800000000000001,70.5,16
502,8590.0,6.4,3.7,3.1,14.200000000000001,-1.7000000000000002,5.7,3.3000000000000007,-10.0,74.7,16
503,8607.0,8.8,4.0,3.8000000000000003,16.2,-1.6,6.2,15.5,-23.6,73.10000000000001,16
504,8624.0,9.600000000000001,4.2,4.5,17.6,-1.4000000000000001,7.5,30.699999999999996,-32.400000000000006,67.60000000000001,16
505,8641.0,10.200000000000001,5.1000000000000005,5.9,17.8,-0.4,8.6,56.50000000000001,-32.300000000000004,59.9,16
506,8658.0,9.600000000000001,6.7,5.5,17.400000000000002,0.9,8.3,90.19999999999999,-28.800000000000004,44.8,16
507,8674.0,9.600000000000001,6.5,3.1,17.400000000000002,1.0,6.6000000000000005,118.80000000000003,-30.699999999999996,17.799999999999997,16
508,8690.0,9.600000000000001,5.6000000000000005,2.1,17.400000000000002,-0.1,4.9,132.8,-34.7,-16.900000000000002,16
509,8707.0,8.700000000000001,3.3000000000000003,0.30000000000000004,16.8,-1.8,3.5,134.4,-38.2,-48.50000000000001,16
510,8725.0,6.6000000000000005,1.1,-1.1,15.200000000000001,-3.5,2.4000000000000004,124.8,-41.199999999999996,-68.4,16
511,8740.0,5.7,0.4,-1.3,13.8,-4.3,2.0,108.0,-44.2,-75.7,16
512,8757.0,4.0,0.0,-1.1,12.600000000000001,-4.2,2.3000000000000003,92.0,-48.70000000000001,-77.00000000000001,16
513,8774.0,2.9000000000000004,0.2,-0.30000000000000004,11.8,-3.8000000000000003,2.9000000000000004,81.0,-53.300000000000004,-78.4,16
514,8790.0,2.4000000000000004,0.30000000000000004,0.2,11.100000000000001,-3.3000000000000003,3.7,81.0,-53.300000000000004,-78.4,16
515,8807.0,1.4000000000000001,0.5,1.0,10.4,-2.9000000000000004,4.2,76.80000000000001,-52.900000000000006,-87.60000000000001,16
516,8824.0,0.30000000000000004,0.5,1.2000000000000002,9.600000000000001,-2.6,4.3,80.8,-48.9,-93.8,16
517,8840.0,-0.6000000000000001,0.30000000000000004,1.0,8.9,-2.4000000000000004,4.1000000000000005,85.0,-45.400000000000006,-99.5,16
518,8858.0,-0.8,0.0,0.6000000000000001,8.700000000000001,-2.5,3.6,87.10000000000001,-44.10000000000001,-105.20000000000002,16
519,8874.0,-1.0,-0.8,0.4,8.6,-2.8000000000000003,3.4000000000000004,87.40000000000002,-45.3,-110.30000000000001,16
520,8890.0,-1.3,-1.7000000000000002,0.4,8.4,-3.2,3.3000000000000003,87.50000000000001,-46.4,-113.7,16
521,8907.0,-1.6,-2.4000000000000004,0.2,8.200000000000001,-3.4000000000000004,3.0,87.40000000000002,-49.4,-116.1,16
522,8924.0,-1.8,-2.9000000000000004,0.2,8.1,-3.8000000000000003,2.8000000000000003,84.9,-54.4,-117.4,16
523,8941.0,-2.1,-3.7,0.30000000000000004,7.800000000000001,-4.1000000000000005,2.8000000000000003,78.80000000000001,-55.900000000000006,-116.69999999999999,16
524,8957.0,-2.3000000000000003,-4.2,0.4,7.7,-4.2,2.8000000000000003,70.10000000000001,-54.4,-114.9,16
525,8974.0,-2.4000000000000004,-4.3,0.4,7.5,-4.2,2.6,58.800000000000004,-50.900000000000006,-113.3,16
526,8991.0,-2.4000000000000004,-4.7,0.5,7.5,-4.1000000000000005,2.6,44.9,-44.7,-112.4,16
527,9007.0,-2.6,-5.0,0.6000000000000001,7.300000000000001,-4.1000000000000005,2.5,30.000000000000004,-37.1,-112.30000000000001,16
528,9024.0,-2.7,-5.2,0.6000000000000001,7.1000000000000005,-4.2,2.5,30.000000000000004,-37.1,-112.30000000000001,16
529,9042.0,-2.8000000000000003,-5.9,0.9,7.1000000000000005,-4.6000000000000005,2.7,1.6,-25.8,-108.90000000000002,16
530,9058.0,-2.8000000000000003,-6.800000000000001,1.3,7.0,-5.1000000000000005,3.0,-10.1,-21.0,-104.2,16
531,9075.0,-2.6,-7.7,1.7000000000000002,7.1000000000000005,-5.7,3.4000000000000004,-19.9,-16.1,-96.9,16
532,9094.0,-2.6,-8.4,2.0,7.0,-6.1000000000000005,3.7,-26.9,-11.8,-87.60000000000001,16
533,9109.0,-2.7,-8.700000000000001,2.1,6.9,-6.5,3.8000000000000003,-32.8,-8.4,-75.3,16
534,9125.0,-2.5,-9.1,2.0,7.0,-6.800000000000001,3.8000000000000003,-40.2,-4.9,-61.599999999999994,16
535,9142.0,-2.3000000000000003,-9.600000000000001,1.9000000000000001,7.300000000000001,-7.5,3.6,-40.2,-4.9,-61.599999999999994,16
536,9157.0,-1.8,-10.5,1.6,7.7,-8.3,3.5,-65.8,3.5,-31.5,16
537,9175.0,-1.6,-10.9,1.6,7.5,-8.9,3.5,-65.8,3.5,-31.5,16
538,9192.0,-3.2,-10.100000000000001,1.2000000000000002,6.4,-8.3,3.4000000000000004,-101.0,30.599999999999998,12.9,16
539,9207.0,-3.4000000000000004,-9.200000000000001,1.4000000000000001,6.1000000000000005,-7.1000000000000005,3.8000000000000003,-109.8,34.400000000000006,41.199999999999996,16
540,9227.0,-2.3000000000000003,-7.800000000000001,2.3000000000000003,7.2,-6.300000000000001,4.800000000000001,-103.2,24.7,66.0,16
541,9240.0,-0.5,-7.1000000000000005,3.2,8.700000000000001,-6.0,5.6000000000000005,-82.3,12.4,85.80000000000001,16
542,9257.0,0.2,-6.7,3.3000000000000003,9.9,-5.800000000000001,5.800000000000001,-82.3,12.4,85.80000000000001,16
543,9274.0,1.2000000000000002,-5.9,2.7,10.700000000000001,-5.4,5.1000000000000005,-19.5,-7.1000000000000005,117.80000000000001,16
544,9292.0,1.7000000000000002,-4.9,1.4000000000000001,11.200000000000001,-5.0,4.0,7.300000000000001,-13.6,128.5,16
545,9308.0,1.2000000000000002,-3.6,-0.4,10.8,-4.3,2.4000000000000004,22.1,-15.000000000000002,135.6,16
546,9324.0,0.7000000000000001,-2.9000000000000004,-1.3,10.0,-3.5,0.9,20.1,-12.7,140.70000000000002,16
547,9344.0,0.2,-1.3,-2.4000000000000004,9.600000000000001,-2.5,0.0,1.6,-5.6,142.79999999999998,16
548,9360.0,0.2,0.0,-2.6,9.600000000000001,-1.7000000000000002,-0.2,-27.5,8.0,139.5,16
549,9374.0,0.30000000000000004,0.7000000000000001,-2.3000000000000003,9.700000000000001,-1.1,0.30000000000000004,-27.5,8.0,139.5,16
550,9391.0,0.6000000000000001,1.6,-1.7000000000000002,9.700000000000001,-0.7000000000000001,0.9,-89.0,47.900000000000006,117.7,16
551,9407.0,0.1,2.1,-1.1,9.200000000000001,-0.6000000000000001,1.5,-108.3,60.8,104.00000000000001,16
552,9424.0,-0.30000000000000004,2.4000000000000004,-0.4,8.700000000000001,-0.7000000000000001,2.1,-115.8,63.599999999999994,93.8,16
553,9441.0,-0.5,2.4000000000000004,-0.2,8.200000000000001,-0.9,2.6,-110.4,57.1,87.80000000000001,16
554,9458.0,-0.6000000000000001,2.6,0.0,8.1,-1.0,2.7,-97.89999999999999,42.7,86.00000000000001,16
555,9474.0,-0.1,2.9000000000000004,0.30000000000000004,8.4,-1.0,3.0,-84.69999999999999,28.700000000000003,84.5,16
556,9490.0,0.2,3.1,0.30000000000000004,8.8,-1.0,2.9000000000000004,-75.1,17.7,82.10000000000001,16
557,9507.0,0.9,3.4000000000000004,0.5,9.3,-1.0,3.2,-71.10000000000001,11.900000000000002,78.5,16
558,9524.0,1.4000000000000001,3.4000000000000004,1.2000000000000002,9.600000000000001,-1.1,3.7,-70.3,15.5,74.5,16
559,9541.0,1.8,3.8000000000000003,1.4000000000000001,9.9,-1.1,3.9000000000000004,-70.5,23.400000000000002,71.39999999999999,16
560,9557.0,2.0,3.9000000000000004,1.4000000000000001,10.200000000000001,-1.0,4.0,-69.80000000000001,28.3,67.8,16
561,9574.0,2.8000000000000003,4.0,1.5,10.8,-1.1,4.0,-68.4,28.0,63.8,16
562,9590.0,4.1000000000000005,3.5,2.0,11.8,-1.7000000000000002,4.3,-66.0,23.400000000000002,60.400000000000006,16
563,9607.0,4.7,3.4000000000000004,2.4000000000000004,12.700000000000001,-2.0,5.0,-60.400000000000006,18.900000000000002,57.800000000000004,16
564,9624.0,5.4,3.4000000000000004,3.0,13.3,-2.1,5.5,-49.4,11.900000000000002,57.00000000000001,16
565,9642.0,6.1000000000000005,3.8000000000000003,3.9000000000000004,13.8,-1.9000000000000001,6.2,-34.400000000000006,4.6,57.1,16
566,9657.0,6.300000000000001,4.3,4.2,14.3,-1.2000000000000002,6.6000000000000005,-34.400000000000006,4.6,57.1,16
567,9674.0,7.800000000000001,4.9,4.1000000000000005,15.700000000000001,-1.0,6.4,0.2,-9.100000000000001,48.10000000000001,16
568,9690.0,9.200000000000001,4.6000000000000005,4.0,16.8,-1.3,6.4,9.2,-11.900000000000002,36.0,16
569,9707.0,9.5,4.5,4.2,17.2,-1.4000000000000001,6.6000000000000005,14.600000000000001,-8.3,24.3,16
570,9724.0,9.1,4.9,4.5,16.5,-0.7000000000000001,6.9,23.800000000000004,1.8000000000000003,13.3,16
571,9741.0,8.200000000000001,5.9,3.7,16.0,0.1,6.2,38.50000000000001,8.3,-2.3,16
572,9757.0,8.3,5.5,2.0,16.2,-0.1,4.800000000000001,49.699999999999996,4.5,-26.700000000000003,16
573,9774.0,7.9,3.6,1.2000000000000002,16.1,-1.4000000000000001,4.1000000000000005,52.2,-3.9,-54.199999999999996,16
574,9790.0,7.2,2.5,1.3,15.200000000000001,-3.0,4.3,50.7,-9.700000000000001,-74.30000000000001,16
575,9809.0,5.4,0.8,1.9000000000000001,13.700000000000001,-4.2,4.9,52.400000000000006,-13.900000000000002,-81.10000000000001,16
576,9824.0,3.7,0.1,2.9000000000000004,12.5,-4.6000000000000005,5.800000000000001,61.599999999999994,-17.200000000000003,-77.60000000000001,16
577,9840.0,3.1,0.1,3.3000000000000003,11.600000000000001,-4.2,6.4,79.00000000000001,-19.6,-70.5,16
578,9857.0,2.5,0.5,3.3000000000000003,11.3,-3.7,6.4,101.50000000000001,-25.300000000000004,-67.10000000000001,16
579,9874.0,2.2,0.5,2.6,11.200000000000001,-3.4000000000000004,5.9,123.30000000000003,-33.1,-70.0,16
580,9890.0,1.8,0.4,2.1,10.600000000000001,-3.2,5.2,123.30000000000003,-33.1,-70.0,16
581,9907.0,0.8,0.1,1.4000000000000001,9.8,-3.1,4.6000000000000005,153.20000000000002,-50.8,-82.3,16
582,9925.0,0.1,-0.4,0.7000000000000001,9.4,-3.1,4.0,159.8,-59.1,-87.80000000000001,16
583,9943.0,0.0,-0.9,0.5,9.4,-3.2,3.8000000000000003,160.9,-64.50000000000001,-93.89999999999999,16
584,9959.0,-0.2,-1.7000000000000002,0.4,9.4,-3.4000000000000004,3.6,158.39999999999998,-64.80000000000001,-101.4,16
585,9974.0,-0.30000000000000004,-2.1,0.30000000000000004,9.3,-3.7,3.3000000000000003,152.4,-61.0,-108.8,16
586,9991.0,-0.7000000000000001,-2.8000000000000003,-0.30000000000000004,9.1,-3.8000000000000003,2.8000000000000003,142.90000000000003,-56.0,-115.3,16
587,10007.0,-1.0,-3.1,-0.6000000000000001,8.8,-3.9000000000000004,2.1,142.90000000000003,-56.0,-115.3,16
588,10024.0,-1.4000000000000001,-3.8000000000000003,-1.1,8.5,-4.1000000000000005,1.5,109.50000000000001,-48.10000000000001,-125.2,16
589,10041.0,-1.7000000000000002,-4.4,-1.4000000000000001,8.200000000000001,-4.3,1.2000000000000002,86.7,-44.6,-127.9,16
590,10057.0,-1.9000000000000001,-4.9,-1.2000000000000002,8.0,-4.3,1.2000000000000002,64.10000000000001,-41.199999999999996,-129.4,16
591,10074.0,-2.0,-5.300000000000001,-0.9,7.800000000000001,-4.5,1.5,44.4,-36.5,-130.0,16
592,10090.0,-2.4000000000000004,-5.800000000000001,-0.7000000000000001,7.4,-4.6000000000000005,1.5,27.3,-31.099999999999998,-129.10000000000002,16
593,10107.0,-2.7,-6.300000000000001,-0.7000000000000001,7.1000000000000005,-4.6000000000000005,1.5,10.5,-26.700000000000003,-126.89999999999999,16
594,10124.0,-2.6,-7.0,-0.30000000000000004,7.1000000000000005,-5.0,1.7000000000000002,-6.699999999999999,-22.1,-124.3,16
595,10141.0,-2.7,-7.5,-0.2,6.9,-5.4,2.0,-23.700000000000003,-14.900000000000002,-120.10000000000001,16
596,10157.0,-3.0,-8.3,0.1,6.6000000000000005,-5.9,2.2,-39.1,-7.6,-112.5,16
597,10174.0,-3.1,-8.700000000000001,0.2,6.300000000000001,-6.4,2.5,-51.800000000000004,-2.0,-101.0,16
598,10190.0,-3.4000000000000004,-9.4,0.6000000000000001,5.800000000000001,-6.7,2.8000000000000003,-61.300000000000004,3.9,-85.80000000000001,16
599,10209.0,-3.7,-9.5,0.7000000000000001,5.6000000000000005,-6.800000000000001,3.0,-68.4,8.899999999999999,-68.0,16
600,10226.0,-3.4000000000000004,-9.9,0.7000000000000001,5.800000000000001,-7.1000000000000005,3.1,-75.1,11.3,-50.2,16
601,10242.0,-2.9000000000000004,-10.4,0.30000000000000004,6.1000000000000005,-7.6000000000000005,2.9000000000000004,-83.30000000000001,13.8,-31.799999999999997,16
602,10260.0,-2.6,-10.600000000000001,0.2,6.5,-8.0,2.7,-94.6,14.600000000000001,-13.200000000000003,16
603,10276.0,-2.9000000000000004,-10.5,0.2,6.2,-8.1,2.9000000000000004,-107.9,15.000000000000002,8.4,16
604,10290.0,-3.6,-9.5,1.3,5.6000000000000005,-7.5,3.9000000000000004,-118.40000000000002,16.0,37.300000000000004,16
605,10307.0,-3.6,-8.700000000000001,2.1,5.800000000000001,-6.6000000000000005,5.4,-117.0,15.8,71.0,16
606,10324.0,-1.9000000000000001,-7.300000000000001,3.4000000000000004,7.300000000000001,-5.800000000000001,6.6000000000000005,-98.9,10.1,101.50000000000001,16
607,10341.0,0.7000000000000001,-6.0,4.1000000000000005,9.600000000000001,-5.2,7.2,-68.3,1.3,124.3,16
608,10359.0,2.9000000000000004,-5.300000000000001,3.6,11.600000000000001,-4.9,6.9,-30.799999999999997,-9.700000000000001,137.4,16
609,10381.0,3.2,-4.9,1.7000000000000002,12.100000000000001,-4.9,3.7,1.2000000000000002,-18.3,142.79999999999998,16
610,10394.0,2.8000000000000003,-4.5,0.6000000000000001,12.100000000000001,-4.9,3.7,15.6,-21.900000000000002,148.4,16
611,10407.0,1.6,-3.3000000000000003,-0.9,11.100000000000001,-4.3,2.3000000000000003,12.200000000000001,-24.0,156.0,16
612,10424.0,1.3,-2.6,-1.2000000000000002,10.5,-3.6,1.7000000000000002,-4.2,-24.0,163.20000000000002,16
613,10440.0,1.2000000000000002,-1.1,-0.7000000000000001,10.4,-2.8000000000000003,2.2,-26.000000000000004,-14.100000000000001,166.70000000000002,16
614,10457.0,1.4000000000000001,0.30000000000000004,-0.1,10.5,-2.0,2.7,-46.50000000000001,3.5,164.5,16
615,10474.0,1.4000000000000001,1.0,0.1,10.5,-1.3,3.1,-61.8,21.7,157.1,16
616,10490.0,1.5,2.3000000000000003,0.5,10.4,-0.7000000000000001,3.4000000000000004,-66.60000000000001,32.9,144.0,16
617,10507.0,1.2000000000000002,3.1,0.7000000000000001,10.0,-0.30000000000000004,3.6,-61.9,35.2,128.60000000000002,16
618,10524.0,0.30000000000000004,3.4000000000000004,0.6000000000000001,9.1,-0.4,3.5,-52.1,30.9,116.0,16
619,10540.0,0.1,3.4000000000000004,0.5,8.6,-0.6000000000000001,3.4000000000000004,-40.7,23.5,108.50000000000001,16
620,10557.0,0.0,3.5,0.4,8.4,-0.7000000000000001,3.3000000000000003,-29.900000000000006,16.6,103.7,16
621,10574.0,0.6000000000000001,3.6,0.1,8.700000000000001,-0.9,3.1,-22.9,12.7,99.2,16
622,10592.0,1.2000000000000002,3.9000000000000004,-0.2,9.200000000000001,-0.9,2.9000000000000004,-21.7,13.399999999999999,92.39999999999999,16
623,10607.0,1.6,4.0,-0.2,9.600000000000001,-0.9,2.8000000000000003,-26.700000000000003,17.5,83.10000000000001,16
624,10624.0,2.1,3.9000000000000004,-0.2,10.0,-1.2000000000000002,2.8000000000000003,-35.0,24.200000000000003,72.7,16
625,10643.0,2.4000000000000004,3.7,-0.1,10.100000000000001,-1.5,2.8000000000000003,-44.8,33.400000000000006,63.599999999999994,16
626,10657.0,2.6,3.7,-0.2,10.3,-1.7000000000000002,2.8000000000000003,-54.1,42.0,56.50000000000001,16
627,10674.0,3.1,3.3000000000000003,-0.2,10.700000000000001,-2.2,2.8000000000000003,-60.8,43.300000000000004,50.2,16
628,10690.0,3.9000000000000004,2.6,0.1,11.3,-2.9000000000000004,3.0,-65.2,40.1,46.4,16
629,10709.0,4.4,2.1,0.5,11.700000000000001,-3.5,3.3000000000000003,-67.7,37.400000000000006,45.9,16
630,10724.0,4.800000000000001,2.0,0.8,12.200000000000001,-3.9000000000000004,3.8000000000000003,-67.5,31.7,48.400000000000006,16
631,10740.0,5.300000000000001,2.2,1.8,12.5,-3.9000000000000004,4.6000000000000005,-63.30000000000001,27.099999999999998,51.9,16
632,10758.0,6.1000000000000005,2.4000000000000004,2.3000000000000003,13.0,-3.8000000000000003,5.0,-54.4,19.400000000000002,55.7,16
633,10774.0,7.0,2.3000000000000003,2.6,14.3,-4.1000000000000005,5.6000000000000005,-42.2,5.6,57.699999999999996,16
634,10793.0,8.1,2.4000000000000004,3.7,15.200000000000001,-4.1000000000000005,6.5,-26.200000000000003,-5.0,59.300000000000004,16
635,10807.0,8.700000000000001,3.3000000000000003,4.9,15.600000000000001,-3.4000000000000004,7.5,-1.6,-13.399999999999999,61.8,16
636,10825.0,8.9,5.5,5.2,15.8,-1.8,8.1,33.400000000000006,-18.3,62.7,16
637,10841.0,9.200000000000001,6.7,4.6000000000000005,16.2,0.2,7.4,73.0,-27.2,52.2,16
638,10859.0,9.8,8.3,2.5,16.8,1.7000000000000002,5.7,104.50000000000001,-41.0,23.800000000000004,16
639,10876.0,9.600000000000001,7.5,0.0,16.900000000000002,1.4000000000000001,3.7,119.0,-57.00000000000001,-19.5,16
640,10890.0,8.8,6.0,-0.6000000000000001,15.9,-0.5,2.5,112.30000000000001,-64.10000000000001,-59.20000000000001,16
641,10907.0,7.0,3.1,-1.3,14.600000000000001,-2.7,2.0,93.7,-62.1,-81.8,16
642,10924.0,6.1000000000000005,2.1,-1.1,13.5,-4.0,2.4000000000000004,93.7,-62.1,-81.8,16
643,10942.0,4.9,0.8,-0.4,12.8,-4.5,3.1,60.2,-52.2,-91.10000000000001,16
644,10957.0,4.1000000000000005,0.5,0.6000000000000001,12.4,-4.4,3.9000000000000004,55.5,-47.80000000000001,-90.6,16
645,10974.0,3.7,0.8,1.1,12.200000000000001,-3.9000000000000004,4.3,58.3,-45.9,-93.49999999999999,16
646,10990.0,3.4000000000000004,0.9,1.2000000000000002,11.9,-3.3000000000000003,4.2,58.3,-45.9,-93.49999999999999,16
647,11007.0,2.6,0.9,1.0,11.4,-3.1,4.1000000000000005,70.0,-45.6,-112.0,16
648,11024.0,1.8,0.4,0.9,10.9,-3.2,4.0,75.5,-47.3,-121.4,16
649,11040.0,1.1,-0.2,0.9,10.5,-3.2,3.9000000000000004,78.80000000000001,-47.7,-130.0,16
650,11057.0,0.7000000000000001,-0.5,0.8,10.100000000000001,-3.4000000000000004,3.8000000000000003,80.0,-46.50000000000001,-138.00000000000003,16
651,11074.0,0.2,-1.4000000000000001,0.8,9.8,-3.7,3.7,79.9,-45.9,-144.8,16
652,11090.0,-0.1,-2.5,0.8,9.600000000000001,-4.2,3.6,78.80000000000001,-45.7,-149.79999999999998,16
653,11107.0,-0.2,-3.1,0.7000000000000001,9.5,-4.7,3.4000000000000004,78.80000000000001,-45.7,-149.79999999999998,16
654,11124.0,-0.6000000000000001,-4.2,0.5,9.3,-5.1000000000000005,3.1,69.60000000000001,-44.4,-153.89999999999998,16
655,11140.0,-1.0,-5.1000000000000005,0.2,8.9,-5.4,2.8000000000000003,59.00000000000001,-42.400000000000006,-152.2,16
656,11157.0,-1.5,-5.6000000000000005,0.30000000000000004,8.6,-5.5,2.7,59.00000000000001,-42.400000000000006,-152.2,16
657,11174.0,-1.7000000000000002,-5.800000000000001,0.4,8.200000000000001,-5.4,2.8000000000000003,32.7,-35.1,-144.4,16
658,11190.0,-1.9000000000000001,-6.1000000000000005,0.8,8.0,-5.2,3.0,21.200000000000003,-28.900000000000002,-140.0,16
659,11207.0,-2.3000000000000003,-6.300000000000001,1.0,7.7,-5.0,3.1,12.299999999999999,-21.7,-137.1,16
660,11226.0,-2.6,-6.800000000000001,0.9,7.300000000000001,-5.1000000000000005,3.1,4.6,-16.3,-134.10000000000002,16
661,11242.0,-2.7,-7.2,0.9,7.1000000000000005,-5.5,3.1,-2.0,-14.200000000000001,-129.5,16
662,11260.0,-2.9000000000000004,-8.200000000000001,1.2000000000000002,6.800000000000001,-6.1000000000000005,3.3000000000000003,-7.300000000000001,-12.0,-121.5,16
663,11274.0,-3.2,-9.1,1.2000000000000002,6.5,-6.6000000000000005,3.3000000000000003,-11.8,-9.600000000000001,-109.9,16
664,11292.0,-3.3000000000000003,-9.600000000000001,1.1,6.1000000000000005,-7.1000000000000005,3.3000000000000003,-16.700000000000003,-8.5,-94.2,16
665,11312.0,-3.8000000000000003,-9.9,1.3,5.6000000000000005,-7.2,3.4000000000000004,-21.900000000000002,-5.1000000000000005,-75.3,16
666,11325.0,-4.1000000000000005,-9.8,1.4000000000000001,5.300000000000001,-7.0,3.5,-25.5,-2.5,-55.2,16
667,11341.0,-4.0,-10.0,1.3,5.5,-7.4,3.4000000000000004,-25.5,-2.5,-55.2,16
668,11357.0,-3.5,-10.4,1.0,5.800000000000001,-7.800000000000001,3.1,-36.300000000000004,5.500000000000001,-15.700000000000001,16
669,11374.0,-3.5,-10.5,0.1,5.7,-8.0,2.4000000000000004,-48.2,13.399999999999999,4.300000000000001,16
670,11390.0,-4.2,-10.200000000000001,-0.7000000000000001,5.1000000000000005,-8.0,1.8,-63.70000000000001,18.200000000000003,27.3,16
671,11408.0,-4.6000000000000005,-9.8,-0.8,4.6000000000000005,-7.4,1.8,-79.8,18.3,56.300000000000004,16
672,11426.0,-3.9000000000000004,-8.5,0.2,5.5,-6.7,2.8000000000000003,-87.2,13.200000000000003,86.89999999999999,16
673,11441.0,-1.4000000000000001,-7.2,1.6,7.7,-6.0,4.1000000000000005,-80.8,6.2,110.70000000000002,16
674,11458.0,-0.2,-6.7,2.0,9.700000000000001,-5.6000000000000005,4.6000000000000005,-80.8,6.2,110.70000000000002,16
675,11474.0,1.7000000000000002,-6.0,1.7000000000000002,11.200000000000001,-5.6000000000000005,4.3,-48.400000000000006,-4.7,135.9,16
676,11490.0,2.6,-5.300000000000001,1.1,12.0,-5.4,3.8000000000000003,-38.60000000000001,-7.1000000000000005,143.2,16
677,11510.0,2.1,-4.3,0.4,11.600000000000001,-5.0,3.1,-37.1,-6.4,148.8,16
678,11525.0,1.7000000000000002,-3.8000000000000003,0.1,11.0,-4.6000000000000005,2.6,-43.4,-5.6,155.70000000000002,16
679,11540.0,1.5,-2.7,0.0,10.8,-4.2,2.6,-53.2,-3.7000000000000006,163.7,16
680,11557.0,1.9000000000000001,-1.3,0.6000000000000001,11.100000000000001,-3.4000000000000004,3.1,-61.300000000000004,1.7,168.9,16
681,11574.0,2.5,0.30000000000000004,0.9,11.5,-2.6,3.4000000000000004,-64.0,10.299999999999999,168.6,16
682,11592.0,2.6,1.2000000000000002,1.0,11.600000000000001,-1.6,3.5,-62.4,19.1,162.10000000000002,16
683,11607.0,2.5,2.8000000000000003,0.6000000000000001,11.4,-0.6000000000000001,3.2,-57.60000000000001,23.6,150.9,16
684,11624.0,2.4000000000000004,4.0,-0.2,11.200000000000001,0.1,2.5,-53.10000000000001,22.1,136.2,16
685,11642.0,2.3000000000000003,4.4,-0.5,10.9,0.5,2.0,-51.300000000000004,15.899999999999999,118.3,16
686,11658.0,2.2,4.800000000000001,-0.5,10.600000000000001,0.5,2.0,-53.599999999999994,12.299999999999999,99.5,16
687,11674.0,2.0,4.800000000000001,-0.4,10.3,0.2,2.1,-53.599999999999994,12.299999999999999,99.5,16
688,11691.0,1.8,4.7,-0.30000000000000004,10.100000000000001,-0.1,2.2,-59.80000000000001,16.6,82.50000000000001,16
689,11714.0,1.7000000000000002,4.2,0.1,9.8,-1.0,2.7,-80.7,37.7,55.60000000000001,16
690,11724.0,1.7000000000000002,4.0,0.30000000000000004,9.8,-1.0,2.7,-90.19999999999999,48.300000000000004,45.2,16
691,11741.0,1.6,3.5,0.8,9.600000000000001,-1.5,3.1,-96.0,57.60000000000001,37.300000000000004,16
692,11758.0,1.6,3.4000000000000004,1.1,9.5,-1.9000000000000001,3.5,-96.5,65.7,33.6,16
693,11774.0,1.4000000000000001,3.4000000000000004,1.1,9.3,-2.0,3.5,-90.4,65.8,32.400000000000006,16
694,11791.0,1.9000000000000001,3.1,1.2000000000000002,9.600000000000001,-2.3000000000000003,3.6,-80.10000000000001,56.800000000000004,32.6,16
695,11810.0,2.3000000000000003,2.5,1.4000000000000001,9.9,-2.9000000000000004,3.8000000000000003,-67.7,44.5,34.900000000000006,16
696,11826.0,2.6,2.3000000000000003,1.6,10.4,-3.4000000000000004,4.1000000000000005,-54.699999999999996,31.6,41.50000000000001,16
697,11847.0,3.9000000000000004,2.0,2.5,11.700000000000001,-3.7,5.0,-39.8,18.1,50.0,16
698,11858.0,3.9000000000000004,2.0,2.5,11.700000000000001,-3.7,5.0,-39.8,18.1,50.0,16
699,11874.0,5.1000000000000005,2.6,2.7,12.9,-3.4000000000000004,5.2,-5.500000000000001,-7.8,65.7,16
700,11890.0,7.1000000000000005,2.7,2.8000000000000003,14.5,-3.5,5.2,8.600000000000001,-23.700000000000003,65.4,16
701,11907.0,8.4,2.7,3.5,15.600000000000001,-3.6,5.800000000000001,21.1,-34.800000000000004,63.30000000000001,16
702,11924.0,8.700000000000001,2.9000000000000004,3.8000000000000003,16.1,-3.2,6.4,36.400000000000006,-41.800000000000004,63.0,16
703,11940.0,9.1,4.2,4.4,16.5,-2.0,6.800000000000001,56.300000000000004,-45.3,61.10000000000001,16
704,11957.0,9.700000000000001,6.2,4.0,17.0,-0.4,6.5,78.3,-48.400000000000006,48.400000000000006,16
705,11974.0,10.100000000000001,7.5,2.8000000000000003,17.5,1.0,5.6000000000000005,96.1,-52.1,19.200000000000003,16
706,11991.0,10.0,7.300000000000001,2.1,17.3,0.8,4.6000000000000005,103.89999999999999,-55.60000000000001,-24.599999999999998,16
707,12007.0,8.4,4.9,1.3,16.1,-1.0,4.0,99.60000000000001,-51.70000000000001,-63.8,16
708,12024.0,6.2,2.4000000000000004,0.9,14.5,-2.9000000000000004,3.7,89.10000000000001,-42.7,-86.8,16
709,12041.0,5.2,1.4000000000000001,0.7000000000000001,13.0,-4.2,3.6,78.10000000000001,-36.400000000000006,-94.2,16
710,12059.0,3.8000000000000003,0.2,0.9,12.200000000000001,-4.800000000000001,3.8000000000000003,71.9,-37.7,-92.0,16
711,12075.0,3.2,-0.2,1.7000000000000002,11.9,-4.9,4.5,72.7,-43.00000000000001,-87.89999999999999,16
712,12092.0,2.5,0.1,2.3000000000000003,11.4,-4.4,5.1000000000000005,81.4,-46.9,-86.00000000000001,16
713,12107.0,2.0,0.4,2.3000000000000003,10.8,-3.6,5.1000000000000005,94.5,-50.60000000000001,-87.7,16
714,12124.0,1.1,0.9,1.8,10.200000000000001,-3.0,4.7,105.4,-56.2,-93.3,16
715,12140.0,0.6000000000000001,0.6000000000000001,1.3,9.9,-2.8000000000000003,4.2,110.5,-60.8,-101.50000000000001,16
716,12157.0,0.5,0.30000000000000004,1.2000000000000002,9.9,-2.9000000000000004,4.0,109.00000000000001,-60.6,-111.0,16
717,12174.0,0.1,-0.6000000000000001,1.2000000000000002,9.700000000000001,-3.4000000000000004,3.9000000000000004,104.2,-55.8,-120.00000000000001,16
718,12190.0,-0.5,-1.6,1.0,9.200000000000001,-3.8000000000000003,3.7,99.2,-51.300000000000004,-126.8,16
719,12207.0,-0.9,-2.1,1.0,8.8,-4.2,3.5,99.2,-51.300000000000004,-126.8,16
720,12224.0,-1.4000000000000001,-3.1,0.8,8.4,-4.6000000000000005,3.2,87.3,-48.300000000000004,-132.1,16
721,12240.0,-1.9000000000000001,-4.0,0.6000000000000001,8.0,-5.0,3.0,78.10000000000001,-47.7,-130.0,16
722,12257.0,-2.4000000000000004,-4.6000000000000005,0.4,7.7,-5.1000000000000005,2.7,66.80000000000001,-46.7,-125.60000000000001,16
723,12274.0,-2.6,-4.800000000000001,0.4,7.300000000000001,-5.1000000000000005,2.6,54.199999999999996,-46.0,-119.8,16
724,12291.0,-2.8000000000000003,-4.9,0.7000000000000001,7.2,-4.800000000000001,2.8000000000000003,41.900000000000006,-43.4,-114.70000000000002,16
725,12307.0,-3.0,-5.1000000000000005,1.1,7.0,-4.6000000000000005,3.0,31.7,-39.8,-111.50000000000001,16
726,12325.0,-3.3000000000000003,-5.4,1.3,6.800000000000001,-4.6000000000000005,3.1,22.4,-35.4,-108.0,16
727,12342.0,-3.4000000000000004,-5.5,1.5,6.5,-4.6000000000000005,3.2,14.300000000000002,-30.3,-103.49999999999999,16
728,12359.0,-3.5,-6.1000000000000005,1.7000000000000002,6.4,-4.9,3.3000000000000003,8.100000000000001,-26.9,-98.0,16
729,12374.0,-3.5,-6.800000000000001,1.8,6.4,-5.300000000000001,3.4000000000000004,2.6,-24.400000000000002,-90.9,16
730,12392.0,-3.5,-7.2,1.8,6.4,-5.800000000000001,3.4000000000000004,-2.9,-22.8,-81.60000000000001,16
731,12408.0,-3.4000000000000004,-8.0,2.0,6.300000000000001,-6.300000000000001,3.5,-9.600000000000001,-19.200000000000003,-69.3,16
732,12424.0,-3.6,-8.200000000000001,2.1,5.9,-6.4,3.7,-9.600000000000001,-19.200000000000003,-69.3,16
733,12440.0,-4.2,-7.800000000000001,2.4000000000000004,5.4,-5.7,4.0,-17.5,-11.5,-54.50000000000001,16
734,12457.0,-4.3,-7.1000000000000005,2.6,5.5,-5.2,4.1000000000000005,-25.8,8.100000000000001,-23.6,16
735,12474.0,-3.5,-7.4,1.7000000000000002,6.1000000000000005,-5.6000000000000005,3.4000000000000004,-26.9,13.5,-11.900000000000002,16
736,12490.0,-3.0,-7.9,0.8,6.5,-6.1000000000000005,2.7,-32.8,16.0,-0.30000000000000004,16
737,12507.0,-3.1,-8.0,0.6000000000000001,6.4,-6.300000000000001,2.5,-39.599999999999994,13.200000000000003,14.800000000000002,16
738,12524.0,-3.5,-7.800000000000001,1.1,6.1000000000000005,-6.300000000000001,3.0,-42.3,8.8,36.9,16
739,12540.0,-3.3000000000000003,-6.9,1.8,6.2,-5.800000000000001,3.6,-39.2,5.0,63.900000000000006,16
740,12557.0,-2.8000000000000003,-6.2,2.0,7.2,-5.0,4.0,-39.2,5.0,63.900000000000006,16
741,12575.0,-1.2000000000000002,-5.1000000000000005,2.4000000000000004,8.6,-4.4,4.4,-17.9,-8.4,111.70000000000002,16
742,12592.0,0.6000000000000001,-4.2,2.8000000000000003,10.200000000000001,-4.1000000000000005,4.7,-4.800000000000001,-13.000000000000002,125.60000000000001,16
743,12607.0,1.7000000000000002,-3.4000000000000004,2.7,11.100000000000001,-3.8000000000000003,4.6000000000000005,7.1000000000000005,-12.200000000000001,133.8,16
744,12625.0,1.8,-3.2,2.4000000000000004,11.4,-3.8000000000000003,4.2,16.6,-9.3,140.8,16
745,12642.0,1.6,-2.7,1.9000000000000001,11.200000000000001,-3.8000000000000003,3.8000000000000003,25.5,-7.9,151.3,16
746,12657.0,1.8,-1.8,1.3,11.3,-3.4000000000000004,3.2,34.400000000000006,-8.600000000000001,162.6,16
747,12676.0,2.4000000000000004,-0.4,0.4,11.700000000000001,-2.7,2.5,42.5,-9.4,169.9,16
748,12691.0,2.6,0.4,-0.2,12.0,-1.8,1.5,47.60000000000001,-9.899999999999999,170.1,16
749,12709.0,2.9000000000000004,2.0,-1.4000000000000001,12.100000000000001,-0.9,0.5,46.6,-10.700000000000001,163.00000000000003,16
750,12726.0,2.8000000000000003,3.4000000000000004,-1.8,12.0,0.0,0.1,39.8,-10.8,149.9,16
751,12743.0,2.7,3.9000000000000004,-1.9000000000000001,11.600000000000001,0.4,0.0,29.700000000000006,-7.9,133.8,16
752,12757.0,2.1,4.3,-1.8,11.0,0.5,0.0,19.1,-3.3000000000000007,118.50000000000001,16
753,12774.0,1.4000000000000001,4.3,-1.5,10.3,0.30000000000000004,0.4,11.900000000000002,0.9000000000000001,107.00000000000001,16
754,12793.0,1.0,4.2,-1.5,9.8,0.0,0.4,10.5,1.7,100.4,16
755,12807.0,1.0,4.2,-1.6,9.700000000000001,-0.30000000000000004,0.2,13.3,-4.9,96.60000000000001,16
756,12824.0,1.4000000000000001,4.1000000000000005,-1.8,9.9,-0.6000000000000001,0.1,17.400000000000002,-14.400000000000002,94.80000000000001,16
757,12840.0,2.1,4.4,-1.5,10.4,-0.5,0.30000000000000004,22.700000000000003,-21.900000000000002,93.4,16
758,12857.0,2.7,4.7,-1.4000000000000001,11.200000000000001,-0.2,0.30000000000000004,28.200000000000003,-25.1,87.60000000000001,16
759,12874.0,3.4000000000000004,5.300000000000001,-1.6,11.600000000000001,0.1,0.2,30.3,-23.700000000000003,76.5,16
760,12890.0,3.5,5.5,-1.9000000000000001,11.600000000000001,0.2,-0.2,28.200000000000003,-20.1,64.0,16
761,12909.0,3.5,5.300000000000001,-1.8,11.600000000000001,0.1,-0.1,23.900000000000006,-16.8,53.10000000000001,16
762,12927.0,3.6,5.2,-1.6,11.8,-0.2,0.2,22.4,-14.0,44.6,16
763,12944.0,4.0,5.0,-1.4000000000000001,12.0,-0.4,0.30000000000000004,24.7,-15.100000000000001,36.6,16
764,12957.0,4.3,4.800000000000001,-1.3,12.5,-0.8,0.6000000000000001,24.7,-15.100000000000001,36.6,16
765,12974.0,4.7,4.1000000000000005,-0.5,12.9,-1.5,1.3,38.0,-32.5,21.0,16
766,12991.0,5.4,3.4000000000000004,0.30000000000000004,13.5,-2.0,2.0,48.2,-39.9,16.200000000000003,16
767,13009.0,5.9,3.2,1.0,14.0,-2.2,2.6,60.00000000000001,-44.8,10.700000000000001,16
768,13024.0,6.5,3.3000000000000003,0.5,14.5,-2.0,2.3000000000000003,70.4,-46.50000000000001,2.1,16
769,13041.0,7.0,3.0,0.1,15.5,-2.4000000000000004,1.7000000000000002,70.7,-53.7,-13.3,16
770,13057.0,7.6000000000000005,1.5,0.5,16.1,-3.5,2.1,62.7,-57.1,-30.4,16
771,13074.0,7.4,0.7000000000000001,1.2000000000000002,15.600000000000001,-4.6000000000000005,3.0,62.7,-57.1,-30.4,16
772,13090.0,6.2,0.2,1.7000000000000002,14.5,-4.4,3.3000000000000003,52.1,-37.9,-43.900000000000006,16
773,13107.0,4.6000000000000005,1.6,1.8,13.4,-3.1,3.3000000000000003,54.1,-33.2,-48.2,16
774,13124.0,4.2,2.5,1.7000000000000002,13.200000000000001,-2.1,3.2,56.6,-36.8,-58.7,16
775,13140.0,4.2,2.3000000000000003,2.0,13.3,-2.3000000000000003,3.7,56.9,-41.1,-76.4,16
776,13157.0,3.8000000000000003,0.8,2.4000000000000004,12.9,-3.3000000000000003,3.9000000000000004,53.599999999999994,-38.7,-93.89999999999999,16
777,13174.0,2.4000000000000004,-0.9,2.9000000000000004,11.9,-4.5,4.4,48.9,-35.9,-104.2,16
778,13190.0,1.1,-2.5,4.1000000000000005,10.8,-5.6000000000000005,5.4,49.9,-34.50000000000001,-104.7,16
779,13207.0,0.5,-3.1,4.5,9.9,-6.300000000000001,6.0,57.49999999999999,-32.8,-94.5,16
780,13224.0,-0.4,-3.2,4.6000000000000005,9.4,-6.0,6.0,68.3,-33.300000000000004,-79.5,16
781,13240.0,-0.30000000000000004,-2.6,4.2,9.4,-5.300000000000001,5.7,79.1,-37.9,-68.0,16
782,13257.0,-0.4,-2.3000000000000003,4.0,9.4,-4.5,5.300000000000001,86.4,-41.300000000000004,-62.900000000000006,16
783,13274.0,-0.7000000000000001,-1.6,3.5,9.200000000000001,-3.8000000000000003,4.800000000000001,89.70000000000002,-44.00000000000001,-62.800000000000004,16
784,13291.0,-1.2000000000000002,-1.4000000000000001,3.2,8.8,-3.5,4.6000000000000005,89.9,-43.900000000000006,-64.80000000000001,16
785,13307.0,-1.5,-1.3,3.2,8.3,-3.1,4.4,89.9,-43.900000000000006,-64.80000000000001,16
786,13324.0,-2.2,-1.3,3.0,7.800000000000001,-2.9000000000000004,4.2,86.7,-37.50000000000001,-70.7,16
787,13341.0,-2.7,-1.6,2.7,7.4,-2.9000000000000004,3.9000000000000004,83.89999999999999,-33.50000000000001,-73.30000000000001,16
788,13357.0,-3.0,-2.0,2.5,7.1000000000000005,-3.0,3.7,80.2,-28.700000000000003,-74.5,16
789,13374.0,-3.2,-2.1,2.3000000000000003,6.800000000000001,-3.1,3.3000000000000003,76.2,-23.800000000000004,-75.2,16
790,13392.0,-3.6,-2.5,1.8,6.5,-3.2,2.9000000000000004,70.8,-20.5,-74.5,16
791,13410.0,-3.8000000000000003,-2.9000000000000004,1.5,6.300000000000001,-3.3000000000000003,2.6,64.10000000000001,-17.9,-72.2,16
792,13427.0,-3.7,-3.1,1.3,6.300000000000001,-3.3000000000000003,2.4000000000000004,57.00000000000001,-15.6,-69.7,16
793,13444.0,-3.6,-3.3000000000000003,1.1,6.4,-3.3000000000000003,2.2,50.2,-13.900000000000002,-67.7,16
794,13457.0,-3.5,-3.4000000000000004,1.0,6.5,-3.3000000000000003,1.9000000000000001,43.6,-12.4,-66.2,16
795,13474.0,-3.4000000000000004,-3.7,0.8,6.6000000000000005,-3.4000000000000004,1.8,36.5,-10.200000000000001,-64.7,16
796,13490.0,-3.1,-4.0,0.8,7.0,-3.7,1.7000000000000002,29.400000000000002,-7.9,-63.500000000000014,16
797,13507.0,-2.4000000000000004,-4.7,0.7000000000000001,7.5,-4.1000000000000005,1.6,22.2,-5.4,-63.0,16
798,13524.0,-2.1,-5.6000000000000005,0.4,7.800000000000001,-4.800000000000001,1.4000000000000001,14.0,-2.1,-61.9,16
799,13544.0,-2.1,-6.7,0.0,7.800000000000001,-5.6000000000000005,1.0,2.9,0.9000000000000001,-57.00000000000001,16
800,13559.0,-2.1,-7.1000000000000005,0.0,7.800000000000001,-6.2,0.9,-11.700000000000001,5.8,-46.9,16
801,13574.0,-2.2,-7.2,0.0,7.6000000000000005,-6.2,1.0,-25.900000000000002,12.4,-34.0,16
802,13591.0,-1.5,-7.2,-0.2,8.1,-6.2,0.8,-37.400000000000006,15.399999999999999,-21.8,16
803,13607.0,-0.8,-7.6000000000000005,-0.4,9.1,-6.9,0.6000000000000001,-48.6,15.5,-13.100000000000001,16
804,13624.0,-0.9,-8.4,-1.0,8.8,-7.6000000000000005,0.2,-65.3,20.5,-2.1,16
805,13641.0,-2.1,-8.4,-0.9,7.7,-7.7,0.30000000000000004,-85.0,27.800000000000004,18.200000000000003,16
806,13657.0,-2.5,-8.0,-0.6000000000000001,7.2,-7.0,1.1,-85.0,27.800000000000004,18.200000000000003,16
807,13676.0,-2.1,-6.1000000000000005,0.6000000000000001,7.9,-5.6000000000000005,2.3000000000000003,-102.60000000000001,36.8,72.7,16
808,13691.0,-0.4,-4.1000000000000005,1.7000000000000002,9.3,-4.3,3.3000000000000003,-90.70000000000002,31.9,90.19999999999999,16
809,13709.0,1.1,-3.1,2.2,10.600000000000001,-3.7,3.8000000000000003,-71.9,25.300000000000004,98.0,16
810,13724.0,1.6,-3.0,2.2,11.3,-3.8000000000000003,3.9000000000000004,-53.10000000000001,23.800000000000004,102.4,16
811,13740.0,1.7000000000000002,-3.0,1.8,11.3,-4.2,3.6,-37.6,26.400000000000006,109.50000000000001,16
812,13757.0,1.3,-2.8000000000000003,1.3,10.9,-4.4,3.2,-23.5,26.300000000000004,119.7,16
813,13774.0,0.8,-2.2,0.7000000000000001,10.4,-4.3,2.8000000000000003,-11.3,22.1,133.0,16
814,13791.0,0.8,-1.6,0.5,10.200000000000001,-3.8000000000000003,2.4000000000000004,-0.7,14.700000000000001,146.5,16
815,13808.0,1.2000000000000002,0.0,0.1,10.5,-2.8000000000000003,2.1,7.6,9.100000000000001,154.7,16
816,13824.0,1.8,1.6,-0.7000000000000001,10.9,-1.8,1.5,11.2,8.899999999999999,155.0,16
817,13840.0,2.0,2.3000000000000003,-1.2000000000000002,11.100000000000001,-1.0,0.7000000000000001,6.0,11.900000000000002,147.4,16
818,13857.0,2.0,3.3000000000000003,-1.8,10.8,-0.5,0.30000000000000004,-5.8,16.200000000000003,135.20000000000002,16
819,13874.0,1.3,4.0,-1.7000000000000002,10.100000000000001,-0.2,0.4,-18.900000000000002,19.5,123.7,16
820,13890.0,0.8,4.5,-1.1,9.4,0.0,0.9,-28.600000000000005,20.599999999999998,114.2,16
821,13907.0,0.8,4.6000000000000005,-0.7000000000000001,9.3,0.0,1.5,-31.5,19.5,106.1,16
822,13924.0,1.0,4.7,-0.2,9.3,-0.2,1.9000000000000001,-30.9,19.799999999999997,98.10000000000001,16
823,13940.0,1.2000000000000002,4.9,-0.1,9.3,-0.30000000000000004,2.0,-30.5,21.1,90.70000000000002,16
824,13957.0,1.3,4.9,-0.1,9.4,-0.30000000000000004,2.1,-30.699999999999996,22.4,83.89999999999999,16
825,13974.0,1.6,5.1000000000000005,0.0,9.5,-0.30000000000000004,2.2,-31.0,22.700000000000003,77.1,16
826,13990.0,2.0,5.2,0.4,9.8,-0.4,2.5,-30.799999999999997,22.3,69.60000000000001,16
827,14007.0,2.3000000000000003,5.300000000000001,0.6000000000000001,10.100000000000001,-0.4,2.8000000000000003,-30.799999999999997,22.3,69.60000000000001,16
828,14024.0,2.5,5.4,0.9,10.100000000000001,-0.4,3.1,-24.599999999999998,25.1,49.9,16
829,14040.0,2.5,5.2,1.1,10.100000000000001,-0.7000000000000001,3.3000000000000003,-18.8,26.200000000000003,41.0,16
830,14057.0,2.7,4.9,1.2000000000000002,10.4,-1.3,3.5,-18.8,26.200000000000003,41.0,16
831,14074.0,3.3000000000000003,4.0,1.3,10.9,-2.1,3.7,-6.4,21.400000000000002,29.400000000000002,16
832,14090.0,3.7,3.2,2.0,11.200000000000001,-2.8000000000000003,4.4,2.4000000000000004,18.200000000000003,28.800000000000004,16
833,14107.0,4.2,2.9000000000000004,2.5,11.600000000000001,-3.1,4.9,15.399999999999999,16.900000000000002,32.2,16
834,14124.0,5.1000000000000005,3.7,2.3000000000000003,12.200000000000001,-2.6,5.0,30.599999999999998,15.899999999999999,33.9,16
835,14140.0,5.800000000000001,3.9000000000000004,1.8,13.3,-2.2,4.4,42.400000000000006,10.0,25.200000000000003,16
836,14157.0,7.5,2.9000000000000004,1.3,14.8,-3.1,4.1000000000000005,46.4,-1.8000000000000003,9.700000000000001,16
837,14174.0,7.9,2.0,1.8,15.4,-4.4,4.800000000000001,46.4,-1.8000000000000003,9.700000000000001,16
838,14190.0,7.5,1.0,2.3000000000000003,14.8,-4.800000000000001,5.4,52.900000000000006,-4.9,-6.9,16
839,14207.0,6.800000000000001,1.8,2.4000000000000004,14.4,-4.0,5.4,66.7,-5.8,-5.9,16
840,14223.0,7.2,2.6,1.4000000000000001,14.8,-3.1,4.6000000000000005,81.90000000000002,-21.7,-13.000000000000002,16
841,14245.0,8.0,2.2,1.1,15.600000000000001,-3.1,4.3,89.70000000000002,-40.6,-29.900000000000006,16
842,14260.0,8.0,1.6,1.1,15.9,-3.9000000000000004,4.4,89.70000000000002,-52.1,-52.2,16
843,14276.0,6.800000000000001,0.0,1.8,15.100000000000001,-5.0,5.0,88.00000000000001,-56.7,-70.4,16
844,14292.0,5.2,-1.1,1.6,13.9,-5.7,4.9,86.00000000000001,-56.6,-80.60000000000001,16
845,14309.0,3.6,-1.3,2.1,12.700000000000001,-5.7,5.1000000000000005,82.2,-55.400000000000006,-83.89999999999999,16
846,14325.0,2.9000000000000004,-1.2000000000000002,2.4000000000000004,11.700000000000001,-5.4,5.6000000000000005,83.4,-52.900000000000006,-85.5,16
847,14341.0,1.6,-1.1,2.5,10.700000000000001,-5.0,5.7,87.7,-46.4,-86.89999999999999,16
848,14357.0,1.0,-1.1,2.4000000000000004,9.8,-4.6000000000000005,5.6000000000000005,87.7,-46.4,-86.89999999999999,16
849,14374.0,-0.4,-1.1,1.7000000000000002,8.700000000000001,-4.4,4.9,101.9,-33.400000000000006,-89.30000000000001,16
850,14390.0,-1.6,-1.2000000000000002,0.9,7.800000000000001,-4.1000000000000005,4.2,108.50000000000001,-34.900000000000006,-87.89999999999999,16
851,14408.0,-2.1,-1.4000000000000001,0.5,7.4,-3.9000000000000004,3.8000000000000003,115.9,-41.50000000000001,-85.60000000000001,16
852,14425.0,-2.3000000000000003,-1.5,0.30000000000000004,7.2,-3.8000000000000003,3.5,124.39999999999999,-51.6,-84.1,16
853,14440.0,-2.5,-2.0,0.1,7.1000000000000005,-3.9000000000000004,3.2,132.0,-61.39999999999999,-82.39999999999999,16
854,14457.0,-2.7,-2.4000000000000004,-0.30000000000000004,7.0,-4.0,2.7,135.3,-69.3,-81.3,16
855,14474.0,-2.8000000000000003,-2.6,-0.6000000000000001,6.9,-4.0,2.1,130.8,-73.4,-80.60000000000001,16
856,14490.0,-2.9000000000000004,-3.0,-0.9,6.9,-4.0,1.7000000000000002,119.0,-74.30000000000001,-80.10000000000001,16
857,14507.0,-2.9000000000000004,-3.3000000000000003,-0.9,7.0,-4.0,1.5,102.2,-71.39999999999999,-80.10000000000001,16
858,14524.0,-2.9000000000000004,-3.5,-0.9,7.0,-3.8000000000000003,1.4000000000000001,102.2,-71.39999999999999,-80.10000000000001,16
859,14540.0,-2.9000000000000004,-3.5,-0.8,7.1000000000000005,-3.7,1.3,60.2,-57.20000000000001,-83.5,16
860,14558.0,-2.9000000000000004,-3.7,-0.7000000000000001,7.1000000000000005,-3.7,1.3,37.400000000000006,-49.50000000000001,-87.00000000000001,16
861,14574.0,-2.7,-4.4,0.1,7.2,-4.0,1.9000000000000001,16.200000000000003,-40.300000000000004,-90.80000000000001,16
862,14590.0,-2.5,-4.800000000000001,0.30000000000000004,7.4,-4.5,2.2,-3.3000000000000007,-31.0,-93.3,16
863,14608.0,-2.3000000000000003,-5.9,0.9,7.6000000000000005,-5.2,2.7,-20.3,-22.2,-93.49999999999999,16
864,14624.0,-2.2,-6.9,1.6,7.7,-5.9,3.2,-34.300000000000004,-14.200000000000001,-91.2,16
865,14640.0,-2.2,-7.800000000000001,2.6,7.6000000000000005,-6.5,4.1000000000000005,-43.6,-8.899999999999999,-85.4,16
866,14657.0,-2.4000000000000004,-8.1,3.1,7.2,-6.9,5.0,-46.1,-2.5,-76.2,16
867,14674.0,-2.8000000000000003,-8.4,3.8000000000000003,6.9,-7.0,5.6000000000000005,-43.4,1.5,-64.7,16
868,14691.0,-2.2,-9.5,3.8000000000000003,7.4,-7.9,5.6000000000000005,-40.2,2.7,-52.5,16
869,14707.0,-1.9000000000000001,-10.100000000000001,3.6,7.800000000000001,-8.9,5.4,-41.800000000000004,9.3,-38.800000000000004,16
870,14724.0,-2.5,-11.0,2.9000000000000004,6.9,-9.5,4.800000000000001,-49.4,24.200000000000003,-18.900000000000002,16
871,14745.0,-4.4,-10.4,1.6,5.300000000000001,-9.200000000000001,3.9000000000000004,-60.7,37.2,12.600000000000001,16
872,14757.0,-4.7,-9.8,1.3,5.1000000000000005,-8.6,3.6,-60.7,37.2,12.600000000000001,16
873,14775.0,-3.2,-9.0,1.7000000000000002,6.7,-8.200000000000001,4.2,-62.1,21.0,89.9,16
874,14793.0,-1.2000000000000002,-8.0,2.3000000000000003,8.3,-7.800000000000001,4.7,-43.2,3.4,119.1,16
875,14808.0,0.30000000000000004,-6.9,2.4000000000000004,9.700000000000001,-7.300000000000001,4.800000000000001,-14.900000000000002,-14.0,141.6,16
876,14823.0,1.0,-6.2,2.4000000000000004,10.8,-6.6000000000000005,4.6000000000000005,15.5,-23.400000000000002,156.9,16
877,14841.0,1.6,-4.3,1.7000000000000002,11.100000000000001,-5.4,3.8000000000000003,38.2,-18.700000000000003,162.0,16
878,14857.0,0.9,-2.4000000000000004,-0.30000000000000004,10.4,-4.1000000000000005,2.1,43.900000000000006,-6.500000000000001,161.3,16
879,14874.0,0.5,-1.5,-1.2000000000000002,9.8,-3.1,0.9,43.900000000000006,-6.500000000000001,161.3,16
880,14890.0,0.30000000000000004,-0.1,-1.9000000000000001,9.700000000000001,-2.4000000000000004,0.5,10.1,24.599999999999998,151.8,16
881,14907.0,0.8,0.8,-1.8,9.9,-2.0,0.7000000000000001,-10.4,45.8,142.79999999999998,16
882,14924.0,0.8,1.2000000000000002,-1.8,9.700000000000001,-1.7000000000000002,0.7000000000000001,-10.4,45.8,142.79999999999998,16
883,14941.0,0.8,2.1,-2.2,9.5,-1.2000000000000002,0.4,-34.2,75.7,122.79999999999998,16
884,14957.0,0.5,3.1,-3.0,9.1,-0.7000000000000001,-0.1,-40.0,72.4,112.60000000000001,16
885,14974.0,0.4,3.7,-3.4000000000000004,8.8,-0.4,-0.4,-45.7,59.300000000000004,103.7,16
886,14990.0,0.5,4.0,-3.0,8.8,-0.30000000000000004,-0.2,-52.1,43.2,95.80000000000001,16
887,15007.0,0.7000000000000001,4.1000000000000005,-2.5,8.9,-0.5,0.6000000000000001,-57.9,32.2,88.8,16
888,15024.0,1.2000000000000002,4.1000000000000005,-1.1,9.3,-0.7000000000000001,1.8,-60.900000000000006,28.700000000000003,82.39999999999999,16
889,15041.0,1.6,4.2,-0.30000000000000004,9.5,-0.8,2.5,-60.1,31.7,76.60000000000001,16
890,15057.0,1.9000000000000001,4.2,-0.1,9.9,-1.0,2.9000000000000004,-55.8,32.9,71.30000000000001,16
891,15074.0,2.7,3.9000000000000004,0.2,10.4,-1.5,3.1,-48.50000000000001,30.5,66.9,16
892,15090.0,3.3000000000000003,3.5,0.5,10.9,-2.0,3.4000000000000004,-39.9,28.900000000000002,66.0,16
893,15107.0,3.6,3.4000000000000004,0.4,11.3,-2.2,3.3000000000000003,-39.9,28.900000000000002,66.0,16
894,15123.0,4.4,3.4000000000000004,0.5,11.9,-2.3000000000000003,3.5,-20.3,16.3,70.7,16
895,15140.0,5.6000000000000005,3.8000000000000003,1.0,12.8,-2.1,3.9000000000000004,-8.5,6.1000000000000005,72.9,16
896,15157.0,7.0,4.1000000000000005,1.4000000000000001,13.9,-2.0,4.3,6.0,-4.5,72.9,16
897,15174.0,7.800000000000001,4.3,1.6,15.3,-1.7000000000000002,4.7,21.500000000000004,-12.7,68.3,16
898,15191.0,9.1,5.2,2.0,16.2,-0.9,5.0,36.8,-15.299999999999999,55.0,16
899,15207.0,9.4,6.300000000000001,1.4000000000000001,16.5,0.1,4.6000000000000005,48.400000000000006,-13.8,32.300000000000004,16
900,15224.0,9.9,6.2,0.6000000000000001,17.5,-0.4,3.5,48.400000000000006,-13.8,32.300000000000004,16
901,15240.0,10.700000000000001,3.9000000000000004,0.7000000000000001,18.0,-2.2,4.0,36.1,-15.700000000000001,-30.799999999999997,16
902,15258.0,9.3,2.7,1.3,16.900000000000002,-3.0,4.6000000000000005,23.6,13.000000000000002,-49.300000000000004,16
903,15274.0,7.5,2.8000000000000003,0.4,15.3,-2.8000000000000003,4.0,19.1,33.400000000000006,-59.699999999999996,16
904,15290.0,7.2,2.6,-0.30000000000000004,15.0,-3.0,3.0,20.2,29.400000000000002,-70.7,16
905,15308.0,7.1000000000000005,1.1,-0.6000000000000001,15.100000000000001,-4.1000000000000005,2.9000000000000004,21.7,9.5,-81.90000000000002,16
906,15327.0,6.6000000000000005,-0.7000000000000001,0.30000000000000004,14.8,-5.5,3.7,26.000000000000004,-14.600000000000001,-88.8,16
907,15340.0,6.0,-1.6,1.0,14.100000000000001,-6.6000000000000005,4.9,37.50000000000001,-38.900000000000006,-86.8,16
908,15357.0,5.0,-2.6,2.5,13.5,-7.0,5.9,58.0,-62.900000000000006,-75.8,16
909,15374.0,4.3,-2.2,3.0,13.100000000000001,-6.5,6.300000000000001,78.60000000000001,-84.0,-64.7,16
910,15391.0,3.5,-1.2000000000000002,3.7,12.600000000000001,-5.4,6.9,97.60000000000001,-95.0,-59.40000000000001,16
911,15407.0,3.0,-0.4,3.4000000000000004,11.9,-3.9000000000000004,6.300000000000001,109.30000000000001,-90.6,-61.7,16
912,15426.0,1.9000000000000001,1.0,2.5,11.100000000000001,-2.4000000000000004,5.5,110.6,-79.00000000000001,-74.10000000000001,16
913,15440.0,1.3,1.4000000000000001,1.6,10.8,-1.7000000000000002,4.7,103.3,-63.599999999999994,-93.00000000000001,16
914,15457.0,1.1,1.3,1.4000000000000001,10.5,-1.6,4.2,103.3,-63.599999999999994,-93.00000000000001,16
915,15474.0,0.4,0.2,0.8,10.0,-2.2,3.7,80.7,-27.400000000000002,-137.5,16
916,15490.0,-0.5,-1.5,0.30000000000000004,9.3,-3.2,3.3000000000000003,72.60000000000001,-17.9,-152.6,16
917,15507.0,-1.5,-3.1,0.30000000000000004,8.6,-4.0,3.3000000000000003,68.9,-16.200000000000003,-160.8,16
918,15523.0,-2.0,-3.8000000000000003,0.4,7.800000000000001,-4.800000000000001,3.3000000000000003,68.80000000000001,-19.200000000000003,-161.3,16
919,15540.0,-2.6,-5.0,0.5,7.4,-5.300000000000001,3.4000000000000004,70.8,-24.400000000000002,-156.70000000000002,16
920,15557.0,-2.9000000000000004,-5.9,0.6000000000000001,7.1000000000000005,-5.6000000000000005,3.3000000000000003,72.60000000000001,-30.699999999999996,-149.50000000000003,16
921,15574.0,-3.1,-6.300000000000001,0.5,6.800000000000001,-5.800000000000001,3.2,72.60000000000001,-30.699999999999996,-149.50000000000003,16
922,15590.0,-3.3000000000000003,-6.800000000000001,0.4,6.6000000000000005,-5.800000000000001,2.9000000000000004,68.0,-37.9,-131.5,16
923,15607.0,-3.3000000000000003,-7.1000000000000005,0.2,6.6000000000000005,-5.7,2.6,59.80000000000001,-38.2,-122.39999999999999,16
924,15624.0,-3.0,-7.4,0.2,6.800000000000001,-5.7,2.5,48.10000000000001,-37.1,-114.00000000000001,16
925,15640.0,-2.7,-7.6000000000000005,0.2,7.1000000000000005,-5.800000000000001,2.4000000000000004,34.1,-33.9,-107.10000000000001,16
926,15657.0,-2.3000000000000003,-8.3,0.2,7.4,-6.1000000000000005,2.2,17.5,-29.800000000000004,-101.10000000000001,16
927,15674.0,-2.2,-8.6,0.2,7.6000000000000005,-6.6000000000000005,2.2,17.5,-29.800000000000004,-101.10000000000001,16
928,15690.0,-2.1,-9.4,0.4,7.5,-7.0,2.5,-20.900000000000002,-18.200000000000003,-85.60000000000001,16
929,15707.0,-2.2,-9.9,0.8,7.300000000000001,-7.300000000000001,2.9000000000000004,-39.50000000000001,-8.4,-73.8,16
930,15723.0,-2.5,-9.9,1.0,6.9,-7.2,3.1,-55.900000000000006,3.1,-61.199999999999996,16
931,15740.0,-2.6,-10.0,1.0,6.800000000000001,-7.300000000000001,3.1,-70.2,12.4,-49.0,16
932,15757.0,-2.6,-10.3,0.9,6.800000000000001,-7.7,3.1,-83.80000000000001,22.700000000000003,-36.5,16
933,15774.0,-2.9000000000000004,-10.5,0.30000000000000004,6.4,-7.9,2.8000000000000003,-97.10000000000001,31.7,-22.700000000000003,16
934,15790.0,-3.8000000000000003,-10.3,-0.2,5.6000000000000005,-7.9,2.4000000000000004,-109.60000000000001,35.5,-4.7,16
935,15807.0,-4.5,-9.9,-0.30000000000000004,4.4,-7.4,2.5,-118.00000000000001,32.300000000000004,20.3,16
936,15824.0,-5.0,-9.1,-0.1,4.3,-7.1000000000000005,3.0,-119.20000000000002,18.3,52.900000000000006,16
937,15841.0,-3.2,-8.9,1.6,5.9,-7.4,4.5,-110.30000000000001,6.0,86.7,16
938,15858.0,-2.1,-8.9,2.3000000000000003,7.800000000000001,-7.800000000000001,5.6000000000000005,-110.30000000000001,6.0,86.7,16
939,15874.0,0.2,-8.3,2.8000000000000003,9.9,-7.6000000000000005,5.800000000000001,-59.80000000000001,-5.4,149.79999999999998,16
940,15892.0,2.7,-7.0,2.4000000000000004,12.0,-7.0,5.4,-26.000000000000004,-15.2,168.9,16
941,15907.0,3.5,-5.2,0.9,12.8,-6.0,4.1000000000000005,2.0,-24.900000000000002,176.9,16
942,15923.0,3.4000000000000004,-4.2,-0.1,12.5,-4.800000000000001,2.4000000000000004,14.200000000000001,-32.9,178.60000000000002,16
943,15940.0,2.5,-2.2,-1.6,11.8,-3.5,1.1,5.9,-35.0,177.6,16
944,15958.0,2.2,-0.30000000000000004,-2.0,11.5,-2.5,0.7000000000000001,-16.3,-29.800000000000004,173.1,16
945,15974.0,2.3000000000000003,1.1,-1.4000000000000001,11.5,-1.7000000000000002,1.1,-44.8,-15.000000000000002,162.9,16
946,15990.0,2.2,1.6,-0.8,11.3,-1.2000000000000002,1.9000000000000001,-71.8,7.300000000000001,148.20000000000002,16
947,16007.0,1.7000000000000002,2.6,0.5,10.700000000000001,-0.8,3.1,-88.20000000000002,28.700000000000003,132.70000000000002,16
948,16023.0,0.9,3.3000000000000003,1.1,9.9,-0.5,3.6,-91.8,41.6,118.40000000000002,16
949,16040.0,0.7000000000000001,3.5,1.2000000000000002,9.4,-0.5,3.8000000000000003,-86.60000000000001,43.50000000000001,106.60000000000001,16
950,16057.0,0.7000000000000001,3.6,1.4000000000000001,9.200000000000001,-0.6000000000000001,4.0,-76.7,38.60000000000001,96.60000000000001,16
951,16074.0,0.6000000000000001,3.7,1.6,9.0,-0.8,4.2,-63.30000000000001,31.2,87.89999999999999,16
952,16090.0,0.5,3.6,1.7000000000000002,8.8,-1.1,4.4,-48.50000000000001,24.1,81.50000000000001,16
953,16107.0,0.5,3.5,1.7000000000000002,8.6,-1.4000000000000001,4.3,-34.2,19.200000000000003,78.2,16
954,16124.0,0.6000000000000001,3.3000000000000003,1.5,8.6,-1.8,4.2,-22.8,17.300000000000004,77.7,16
955,16140.0,0.9,3.3000000000000003,1.2000000000000002,8.8,-2.0,4.0,-14.300000000000002,18.5,78.3,16
956,16157.0,1.2000000000000002,3.4000000000000004,0.9,9.200000000000001,-1.9000000000000001,3.6,-8.5,20.5,78.5,16
957,16174.0,2.0,3.6,0.7000000000000001,9.700000000000001,-2.0,3.5,-3.2,20.3,77.60000000000001,16
958,16190.0,2.9000000000000004,3.4000000000000004,0.4,10.4,-2.3000000000000003,3.2,2.0,16.700000000000003,75.5,16
959,16208.0,4.1000000000000005,2.9000000000000004,0.2,11.3,-2.8000000000000003,3.1,2.0,16.700000000000003,75.5,16
960,16229.0,5.2,2.5,0.2,13.0,-3.7,3.1,7.0,11.4,73.8,16
961,16248.0,6.4,2.3000000000000003,0.2,13.8,-3.9000000000000004,3.3000000000000003,7.300000000000001,9.3,74.80000000000001,16
962,16257.0,6.800000000000001,2.3000000000000003,0.4,13.8,-3.9000000000000004,3.3000000000000003,6.9,7.699999999999999,76.3,16
963,16275.0,7.1000000000000005,2.6,0.4,14.4,-3.6,3.3000000000000003,6.4,6.2,78.10000000000001,16
964,16290.0,8.5,2.9000000000000004,0.2,15.600000000000001,-3.5,3.3000000000000003,4.300000000000001,-2.5,77.00000000000001,16
965,16307.0,10.0,3.2,1.0,16.900000000000002,-3.4000000000000004,3.9000000000000004,1.0,-8.600000000000001,71.9,16
966,16326.0,10.4,4.4,2.0,17.3,-2.6,4.800000000000001,1.1,-7.500000000000001,63.70000000000001,16
967,16340.0,10.4,4.4,2.0,17.3,-2.6,4.800000000000001,1.1,-7.500000000000001,63.70000000000001,16
968,16357.0,10.0,7.300000000000001,1.9000000000000001,16.900000000000002,0.5,5.0,22.8,-0.30000000000000004,29.300000000000004,16
969,16373.0,10.4,7.800000000000001,1.5,17.3,1.2000000000000002,4.7,37.300000000000004,-6.0,-8.100000000000001,16
970,16390.0,10.100000000000001,7.300000000000001,1.2000000000000002,17.0,0.5,4.2,50.0,-11.5,-55.3,16
971,16407.0,8.700000000000001,4.7,0.4,16.0,-1.6,3.8000000000000003,55.8,-15.000000000000002,-94.9,16
972,16423.0,7.1000000000000005,1.7000000000000002,0.4,14.9,-3.8000000000000003,3.8000000000000003,59.40000000000001,-18.3,-119.39999999999999,16
973,16448.0,5.1000000000000005,-0.4,0.4,13.5,-5.4,3.8000000000000003,63.8,-21.0,-126.70000000000002,16
974,16457.0,4.3,-1.1,0.4,12.3,-6.300000000000001,3.9000000000000004,69.00000000000001,-23.6,-118.60000000000001,16
975,16473.0,3.1,-1.3,-0.1,11.5,-6.1000000000000005,3.5,73.2,-29.1,-105.9,16
976,16490.0,2.4000000000000004,-0.7000000000000001,-0.2,11.100000000000001,-5.2,3.3000000000000003,75.7,-40.9,-97.00000000000001,16
977,16507.0,2.3000000000000003,-0.4,0.0,11.0,-4.4,3.6,78.0,-53.300000000000004,-96.0,16
978,16523.0,1.7000000000000002,-0.1,0.4,10.600000000000001,-3.9000000000000004,3.8000000000000003,81.4,-60.400000000000006,-101.6,16
979,16540.0,0.6000000000000001,-0.4,0.5,9.9,-3.8000000000000003,3.8000000000000003,83.2,-62.7,-107.9,16
980,16557.0,0.1,-0.6000000000000001,0.6000000000000001,9.200000000000001,-3.8000000000000003,3.9000000000000004,83.2,-62.7,-107.9,16
981,16574.0,-0.7000000000000001,-1.1,0.9,8.700000000000001,-3.8000000000000003,4.1000000000000005,85.9,-56.0,-114.6,16
982,16593.0,-1.2000000000000002,-1.6,1.1,8.4,-3.8000000000000003,4.2,89.70000000000002,-51.1,-116.5,16
983,16607.0,-1.6,-2.2,0.8,8.200000000000001,-3.9000000000000004,3.9000000000000004,93.7,-48.400000000000006,-118.40000000000002,16
984,16624.0,-1.6,-2.5,0.5,8.1,-4.1000000000000005,3.4000000000000004,95.9,-49.300000000000004,-120.2,16
985,16654.0,-2.0,-3.6,0.1,7.800000000000001,-4.6000000000000005,2.8000000000000003,94.6,-51.300000000000004,-122.30000000000001,16
986,16659.0,-2.2,-4.1000000000000005,0.1,7.800000000000001,-4.6000000000000005,2.8000000000000003,89.6,-53.50000000000001,-123.5,16
987,16674.0,-2.3000000000000003,-4.5,0.1,7.6000000000000005,-5.0,2.7,89.6,-53.50000000000001,-123.5,16
988,16690.0,-2.6,-5.4,0.2,7.300000000000001,-5.300000000000001,2.6,71.30000000000001,-49.6,-119.60000000000002,16
989,16708.0,-3.0,-5.9,0.1,6.9,-5.5,2.4000000000000004,58.7,-43.900000000000006,-113.60000000000001,16
990,16724.0,-3.2,-6.2,0.0,6.7,-5.5,2.2,44.2,-38.300000000000004,-106.0,16
991,16741.0,-3.1,-6.4,-0.1,6.9,-5.5,1.9000000000000001,28.0,-34.1,-98.7,16
992,16759.0,-2.6,-7.0,-0.1,7.300000000000001,-5.9,1.9000000000000001,10.0,-31.3,-92.90000000000002,16
993,16774.0,-2.3000000000000003,-7.7,0.1,7.5,-6.2,2.0,-9.600000000000001,-27.2,-87.7,16
994,16790.0,-2.4000000000000004,-8.0,0.30000000000000004,7.4,-6.7,2.3000000000000003,-30.200000000000003,-21.500000000000004,-81.60000000000001,16
995,16810.0,-2.5,-8.700000000000001,0.9,7.2,-7.1000000000000005,2.9000000000000004,-49.699999999999996,-13.5,-73.30000000000001,16
996,16823.0,-3.2,-9.200000000000001,1.6,6.6000000000000005,-7.5,3.5,-66.7,-2.3,-61.50000000000001,16
997,16840.0,-3.9000000000000004,-9.4,2.0,5.800000000000001,-7.6000000000000005,3.9000000000000004,-66.7,-2.3,-61.50000000000001,16
998,16857.0,-3.9000000000000004,-9.700000000000001,2.2,5.800000000000001,-8.1,4.4,-88.9,14.900000000000002,-25.300000000000004,16
999,16874.0,-3.5,-10.100000000000001,2.8000000000000003,6.1000000000000005,-8.5,5.0,-92.2,21.900000000000002,-4.300000000000001,16
1000,16890.0,-3.6,-9.8,2.8000000000000003,6.0,-8.5,5.2,-90.70000000000002,30.5,17.6,16
1001,16907.0,-3.8000000000000003,-9.3,2.5,5.7,-7.9,4.9,-84.9,32.8,40.300000000000004,16
1002,16924.0,-4.1000000000000005,-8.1,2.2,5.4,-7.1000000000000005,4.800000000000001,-74.89999999999999,28.600000000000005,64.50000000000001,16
1003,16941.0,-3.8000000000000003,-6.9,2.0,5.6000000000000005,-6.4,4.7,-61.0,19.300000000000004,89.4,16
1004,16959.0,-2.0,-6.5,2.3000000000000003,7.0,-6.5,5.0,-43.2,9.8,113.3,16
1005,16973.0,-0.9,-6.4,2.3000000000000003,9.0,-6.7,5.0,-21.500000000000004,2.6,134.00000000000003,16
1006,16991.0,1.6,-6.0,1.8,11.100000000000001,-6.800000000000001,4.6000000000000005,1.3,-5.4,148.20000000000002,16
1007,17007.0,3.3000000000000003,-5.2,0.8,12.5,-6.5,3.7,18.6,-9.600000000000001,155.5,16
1008,17024.0,3.4000000000000004,-4.4,0.1,12.700000000000001,-5.6000000000000005,2.4000000000000004,25.200000000000003,-10.200000000000001,156.0,16
1009,17042.0,2.7,-2.6,-1.3,11.9,-4.5,1.3,17.7,-9.700000000000001,152.4,16
1010,17059.0,2.0,-1.1,-1.8,11.200000000000001,-3.7,0.9,0.0,-6.4,148.60000000000002,16
1011,17075.0,1.6,0.5,-1.1,10.8,-2.7,1.4000000000000001,-20.1,1.4,143.3,16
1012,17091.0,1.5,1.2000000000000002,-0.7000000000000001,10.4,-1.9000000000000001,2.1,-34.7,14.400000000000002,135.0,16
1013,17107.0,1.1,2.4000000000000004,-0.1,10.0,-1.2000000000000002,2.6,-41.900000000000006,29.1,125.00000000000001,16
1014,17123.0,1.0,3.6,-0.2,9.8,-0.5,2.6,-42.400000000000006,38.900000000000006,113.1,16
1015,17141.0,1.0,4.4,-0.6000000000000001,9.600000000000001,0.1,2.3000000000000003,-38.0,39.2,98.39999999999999,16
1016,17157.0,0.9,4.6000000000000005,-0.8,9.4,0.30000000000000004,2.0,-32.6,31.9,82.0,16
1017,17178.0,0.9,4.6000000000000005,-0.9,9.3,0.1,1.9000000000000001,-29.200000000000003,25.6,66.5,16
1018,17192.0,0.8,4.5,-0.9,9.1,-0.1,2.0,-28.0,24.1,52.7,16
1019,17209.0,0.7000000000000001,4.5,-1.0,8.9,-0.30000000000000004,1.9000000000000001,-29.900000000000006,26.300000000000004,40.7,16
1020,17226.0,0.8,4.2,-1.2000000000000002,8.9,-0.6000000000000001,1.7000000000000002,-36.7,32.0,29.400000000000002,16
1021,17240.0,1.0,3.7,-1.1,9.1,-1.1,1.8,-46.800000000000004,41.300000000000004,19.1,16
1022,17257.0,1.1,3.5,-1.0,9.1,-1.5,1.9000000000000001,-57.20000000000001,53.2,9.700000000000001,16
1023,17274.0,1.0,3.0,-1.1,8.9,-2.0,1.9000000000000001,-65.89999999999999,63.4,2.8,16
1024,17290.0,0.7000000000000001,2.4000000000000004,-1.2000000000000002,8.6,-2.5,1.8,-72.30000000000001,68.80000000000001,0.0,16
1025,17307.0,0.7000000000000001,1.6,-0.9,8.5,-3.2,2.1,-74.4,67.7,1.0,16
1026,17324.0,0.7000000000000001,1.2000000000000002,-0.6000000000000001,8.6,-4.0,2.6,-70.3,61.199999999999996,7.1000000000000005,16
1027,17340.0,1.0,0.4,0.0,8.8,-4.800000000000001,3.1,-60.5,50.0,18.8,16
1028,17357.0,2.0,-0.1,0.5,9.5,-5.4,3.5,-45.0,32.8,34.0,16
1029,17373.0,2.5,-0.4,0.6000000000000001,10.3,-5.800000000000001,3.9000000000000004,-25.6,12.100000000000001,51.300000000000004,16
1030,17390.0,3.8000000000000003,-0.30000000000000004,1.1,11.4,-5.800000000000001,4.2,-5.0,-6.1000000000000005,68.3,16
1031,17407.0,5.5,0.30000000000000004,1.0,12.8,-5.5,4.1000000000000005,14.300000000000002,-24.0,80.10000000000001,16
1032,17425.0,6.300000000000001,0.30000000000000004,1.0,14.200000000000001,-5.5,4.2,14.300000000000002,-24.0,80.10000000000001,16
1033,17440.0,7.7,0.6000000000000001,1.4000000000000001,15.200000000000001,-5.300000000000001,4.5,40.300000000000004,-49.0,89.70000000000002,16
1034,17457.0,8.200000000000001,1.9000000000000001,1.8,15.5,-4.4,4.800000000000001,51.50000000000001,-48.800000000000004,92.7,16
1035,17473.0,8.5,3.7,1.4000000000000001,15.700000000000001,-2.9000000000000004,4.5,64.4,-47.900000000000006,91.7,16
1036,17492.0,9.200000000000001,5.5,0.6000000000000001,16.1,-1.4000000000000001,4.0,76.2,-52.300000000000004,80.7,16
1037,17511.0,10.3,6.800000000000001,-0.2,18.0,0.5,2.8000000000000003,81.2,-56.800000000000004,53.10000000000001,16
1038,17524.0,10.8,6.800000000000001,-0.4,18.0,0.5,2.8000000000000003,79.19999999999999,-60.1,6.300000000000001,16
1039,17542.0,9.700000000000001,4.800000000000001,-0.2,17.7,-0.7000000000000001,2.9000000000000004,71.10000000000001,-58.60000000000001,-50.0,16
1040,17560.0,7.4,1.9000000000000001,-0.30000000000000004,14.100000000000001,-4.9,2.9000000000000004,58.0,-47.60000000000001,-91.4,16
1041,17573.0,6.0,0.5,-0.30000000000000004,14.100000000000001,-4.9,2.9000000000000004,42.0,-35.0,-112.30000000000001,16
1042,17590.0,3.6,-0.9,0.0,12.200000000000001,-6.0,3.1,26.200000000000003,-20.2,-113.8,16
1043,17607.0,2.5,-1.0,0.2,10.700000000000001,-5.800000000000001,3.4000000000000004,17.9,-10.299999999999999,-104.4,16
1044,17626.0,1.3,-0.5,0.30000000000000004,9.9,-5.1000000000000005,3.5,18.0,-12.0,-94.0,16
1045,17640.0,1.0,0.2,0.5,9.700000000000001,-4.2,3.6,21.6,-19.300000000000004,-89.2,16
1046,17657.0,0.8,0.5,0.6000000000000001,9.5,-3.6,3.8000000000000003,21.6,-19.300000000000004,-89.2,16
1047,17673.0,0.1,0.7000000000000001,1.0,9.1,-3.2,4.1000000000000005,38.50000000000001,-33.1,-98.10000000000001,16
1048,17690.0,-0.7000000000000001,0.4,1.2000000000000002,8.5,-3.1,4.2,49.1,-35.4,-104.4,16
1049,17707.0,-1.6,-0.1,1.0,7.800000000000001,-3.2,4.0,58.800000000000004,-36.300000000000004,-109.10000000000001,16
1050,17723.0,-2.0,-0.4,0.8,7.300000000000001,-3.4000000000000004,3.7,66.60000000000001,-37.7,-110.9,16
1051,17740.0,-2.6,-1.1,0.4,6.9,-3.6,3.3000000000000003,72.2,-41.50000000000001,-110.30000000000001,16
1052,17757.0,-2.9000000000000004,-1.8,0.30000000000000004,6.7,-3.9000000000000004,3.1,76.1,-46.9,-107.9,16
1053,17774.0,-3.0,-2.5,0.1,6.800000000000001,-4.1000000000000005,2.9000000000000004,76.1,-46.9,-107.9,16
1054,17792.0,-3.0,-2.8000000000000003,0.0,6.800000000000001,-4.3,2.5,77.1,-58.60000000000001,-102.0,16
1055,17807.0,-3.0,-3.4000000000000004,-0.2,6.9,-4.5,2.2,70.7,-62.0,-99.10000000000001,16
1056,17824.0,-3.1,-3.6,-0.2,6.7,-4.6000000000000005,2.0,70.7,-62.0,-99.10000000000001,16
1057,17840.0,-3.3000000000000003,-4.0,-0.2,6.6000000000000005,-4.6000000000000005,1.9000000000000001,43.800000000000004,-57.400000000000006,-91.90000000000002,16
1058,17858.0,-3.5,-4.2,0.0,6.5,-4.6000000000000005,2.0,25.900000000000002,-48.6,-87.60000000000001,16
1059,17873.0,-3.5,-4.4,0.4,6.4,-4.5,2.2,7.200000000000001,-36.9,-83.60000000000001,16
1060,17891.0,-3.4000000000000004,-4.5,0.5,6.6000000000000005,-4.6000000000000005,2.3000000000000003,-11.2,-24.900000000000002,-81.50000000000001,16
1061,17907.0,-3.2,-5.1000000000000005,0.7000000000000001,6.7,-5.0,2.5,-29.900000000000006,-14.5,-80.7,16
1062,17923.0,-3.1,-6.0,1.0,6.800000000000001,-5.6000000000000005,2.8000000000000003,-48.800000000000004,-4.9,-78.80000000000001,16
1063,17940.0,-3.2,-6.5,1.3,6.6000000000000005,-6.300000000000001,3.3000000000000003,-48.800000000000004,-4.9,-78.80000000000001,16
1064,17957.0,-3.6,-7.300000000000001,2.0,6.1000000000000005,-6.7,4.0,-82.10000000000001,12.0,-68.7,16
1065,17977.0,-4.2,-7.800000000000001,3.1,5.5,-7.1000000000000005,5.1000000000000005,-91.6,21.900000000000002,-57.00000000000001,16
1066,17993.0,-4.0,-8.1,4.1000000000000005,5.7,-7.4,6.1000000000000005,-91.2,29.600000000000005,-41.4,16
1067,18008.0,-3.0,-8.4,4.9,6.4,-7.7,7.0,-80.60000000000001,34.60000000000001,-25.0,16
1068,18023.0,-2.2,-8.3,4.9,7.6000000000000005,-7.7,7.2,-60.8,42.2,-8.100000000000001,16
1069,18040.0,-0.8,-8.0,3.8000000000000003,8.700000000000001,-7.5,6.4,-39.699999999999996,59.00000000000001,7.699999999999999,16
1070,18057.0,-0.9,-7.6000000000000005,2.6,8.5,-6.9,4.4,-21.0,78.9,27.2,16
1071,18073.0,-0.9,-6.0,-1.3,8.6,-5.6000000000000005,1.1,-9.700000000000001,79.39999999999999,50.5,16
1072,18090.0,0.1,-4.4,-4.7,9.5,-4.4,-1.6,-12.7,50.900000000000006,66.7,16
1073,18107.0,1.5,-4.2,-5.0,10.700000000000001,-4.5,-1.9000000000000001,-27.700000000000003,14.600000000000001,75.1,16
1074,18124.0,1.8,-4.5,-4.1000000000000005,11.200000000000001,-5.2,-0.4,-47.7,-6.9,84.1,16
1075,18140.0,2.3000000000000003,-4.5,-1.4000000000000001,11.8,-5.5,2.0,-56.9,-14.400000000000002,96.80000000000001,16
1076,18157.0,2.9000000000000004,-3.9000000000000004,1.1,12.200000000000001,-5.300000000000001,4.0,-50.5,-14.900000000000002,107.00000000000001,16
1077,18174.0,2.7,-3.3000000000000003,1.7000000000000002,11.8,-4.6000000000000005,4.7,-50.5,-14.900000000000002,107.00000000000001,16
1078,18190.0,1.7000000000000002,-2.0,1.4000000000000001,10.8,-3.9000000000000004,4.2,-17.799999999999997,-3.7000000000000006,118.90000000000002,16
1079,18207.0,1.0,-0.6000000000000001,0.5,10.200000000000001,-3.0,3.4000000000000004,-10.600000000000001,0.0,122.10000000000002,16
1080,18223.0,0.8,0.7000000000000001,0.4,9.9,-2.2,3.4000000000000004,-7.8,6.500000000000001,121.0,16
1081,18240.0,0.5,1.3,0.4,9.4,-1.5,3.3000000000000003,-4.7,15.8,116.4,16
1082,18257.0,-0.2,2.2,0.0,8.6,-1.0,3.0,0.8,20.599999999999998,111.10000000000002,16
1083,18274.0,-0.8,3.0,-0.5,8.0,-0.6000000000000001,2.6,8.3,18.5,105.80000000000001,16
1084,18291.0,-0.8,3.7,-0.9,7.800000000000001,-0.2,2.3000000000000003,17.200000000000003,8.8,98.60000000000001,16
1085,18307.0,-0.8,3.8000000000000003,-1.0,7.7,-0.1,2.2,25.7,-3.5,88.10000000000001,16
1086,18324.0,-0.9,3.7,-1.1,7.6000000000000005,-0.4,2.1,28.800000000000004,-9.8,77.60000000000001,16
1087,18340.0,-1.0,3.4000000000000004,-1.2000000000000002,7.4,-0.8,2.0,25.1,-7.1000000000000005,69.7,16
1088,18357.0,-1.0,3.4000000000000004,-1.3,7.300000000000001,-1.0,1.8,15.8,0.7,63.900000000000006,16
1089,18373.0,-0.8,3.2,-1.5,7.5,-1.2000000000000002,1.7000000000000002,2.8,9.4,59.1,16
1090,18390.0,-0.30000000000000004,3.2,-1.5,7.800000000000001,-1.4000000000000001,1.7000000000000002,-11.1,16.900000000000002,54.0,16
1091,18407.0,0.5,3.2,-1.2000000000000002,8.4,-1.4000000000000001,2.0,-23.700000000000003,23.5,47.3,16
1092,18424.0,0.7000000000000001,3.3000000000000003,-1.0,8.700000000000001,-1.5,2.2,-33.800000000000004,30.3,38.60000000000001,16
1093,18440.0,0.9,3.0,-0.8,8.8,-1.8,2.4000000000000004,-42.1,36.8,31.9,16
1094,18457.0,1.3,2.8000000000000003,-0.8,9.1,-2.1,2.5,-48.9,42.60000000000001,26.9,16
1095,18473.0,1.7000000000000002,2.6,-1.0,9.5,-2.6,2.3000000000000003,-55.1,44.300000000000004,22.4,16
1096,18491.0,2.2,1.8,-1.0,9.9,-3.4000000000000004,2.3000000000000003,-62.6,43.800000000000004,20.3,16
1097,18507.0,2.6,1.0,-0.7000000000000001,10.200000000000001,-4.2,2.5,-69.60000000000001,40.1,22.4,16
1098,18526.0,3.1,0.6000000000000001,0.4,10.5,-4.7,3.4000000000000004,-72.30000000000001,34.400000000000006,29.500000000000004,16
1099,18540.0,3.1,0.8,0.9,10.700000000000001,-4.6000000000000005,4.2,-67.60000000000001,28.500000000000004,40.2,16
1100,18559.0,4.0,1.4000000000000001,1.5,11.4,-4.2,4.6000000000000005,-56.400000000000006,14.5,51.1,16
1101,18575.0,6.4,1.2000000000000002,2.1,13.5,-4.6000000000000005,5.1000000000000005,-42.2,-8.2,57.400000000000006,16
1102,18591.0,7.9,1.0,3.5,14.9,-4.9,6.1000000000000005,-25.7,-27.099999999999998,61.300000000000004,16
1103,18609.0,8.1,1.3,4.2,15.4,-4.7,7.2,-1.0,-37.2,68.1,16
1104,18623.0,8.4,3.1,4.7,15.600000000000001,-3.2,7.7,34.1,-43.300000000000004,75.2,16
1105,18641.0,9.700000000000001,5.1000000000000005,3.4000000000000004,16.7,-1.5,6.7,72.50000000000001,-55.5,71.30000000000001,16
1106,18657.0,10.600000000000001,5.800000000000001,2.5,18.2,-0.4,5.300000000000001,101.7,-73.2,44.00000000000001,16
1107,18674.0,11.600000000000001,5.4,1.1,19.1,-0.6000000000000001,4.2,115.20000000000002,-86.89999999999999,-3.1,16
1108,18690.0,10.0,2.9000000000000004,0.9,18.1,-2.5,4.0,114.40000000000002,-86.4,-48.6,16
1109,18707.0,8.8,1.8,0.9,16.2,-4.2,4.0,105.9,-74.0,-77.3,16
1110,18723.0,6.0,0.2,0.7000000000000001,14.100000000000001,-5.1000000000000005,3.8000000000000003,94.5,-55.400000000000006,-87.60000000000001,16
1111,18740.0,3.7,0.30000000000000004,0.1,12.3,-4.7,3.3000000000000003,81.90000000000002,-38.2,-88.7,16
1112,18757.0,2.5,0.9,-0.4,11.3,-3.8000000000000003,2.9000000000000004,71.0,-29.700000000000006,-90.19999999999999,16
1113,18774.0,2.2,1.1,-0.30000000000000004,10.9,-3.2,2.9000000000000004,63.599999999999994,-27.5,-97.8,16
1114,18790.0,1.5,0.9,-0.1,10.5,-3.1,3.1,60.00000000000001,-26.200000000000003,-109.00000000000001,16
1115,18807.0,0.5,0.0,0.30000000000000004,9.8,-3.5,3.4000000000000004,60.6,-24.900000000000002,-118.69999999999999,16
1116,18823.0,-0.2,-0.4,0.5,8.8,-3.8000000000000003,3.7,67.00000000000001,-23.700000000000003,-123.5,16
1117,18842.0,-1.5,-1.1,0.5,7.800000000000001,-4.0,3.7,78.10000000000001,-26.5,-122.30000000000001,16
1118,18857.0,-2.3000000000000003,-1.7000000000000002,0.1,7.2,-4.1000000000000005,3.3000000000000003,89.70000000000002,-34.800000000000004,-117.4,16
1119,18874.0,-2.5,-2.0,0.0,7.1000000000000005,-4.1000000000000005,3.0,89.70000000000002,-34.800000000000004,-117.4,16
1120,18890.0,-2.4000000000000004,-2.5,-0.2,7.4,-4.2,2.7,106.0,-60.1,-107.6,16
1121,18907.0,-2.1,-3.1,-0.6000000000000001,7.6000000000000005,-4.4,2.3000000000000003,105.10000000000001,-68.3,-105.60000000000002,16
