,ms,accelX,accelY,accelZ,accelWithGX,accelWithGY,accelWithGZ,rotRateAlpha,rotRateBeta,rotRateGamma,interval
0,1.0,-0.4419908665290102,0.3416387237355113,-1.0485744024306536,-0.27159285361217333,-4.391115774591267,-9.635913494110106,0.5372581978015601,-11.276326423441938,-6.398201476237424,0.01666666753590107
1,57.0,0.10454309167731553,-0.002982230681180954,-0.23557401198148725,0.1690904876819579,-2.6276357374995944,-9.684246440124511,0.9779714582415785,1.4776672441460652,0.6417324511809579,0.01666666753590107
2,58.0,0.09571788885528221,-0.01586655443459749,-0.23429449356496332,0.16220713050954508,-2.6412524671807884,-9.682750064086914,1.1902475477866394,1.387897854441176,0.641555079705949,0.01666666753590107
3,76.0,0.13668753956006838,-0.011515373487770557,-0.28437691359519957,0.20545240256269462,-2.6399057287469505,-9.731980835723876,1.243607440182012,0.7492107071346918,1.4453117842740686,0.01666666753590107
4,94.0,0.08202476033647545,-0.055012569908797736,-0.1828729338854551,0.15098429652783088,-2.6864430235162375,-9.629629299274086,0.934407657941591,0.6001495124619798,1.7672664111809595,0.01666666753590107
5,109.0,-0.009949311481136829,-0.07686433623284102,-0.17799743680357932,0.05835866546630859,-2.7106843153253197,-9.624092123413085,1.007746280546074,-0.3104513076841202,2.4975884436093927,0.01666666753590107
6,126.0,0.003834431630303152,-0.06792787332236766,-0.1575771645873785,0.0694318664108403,-2.7042501906245944,-9.602993221282958,1.0704415474329732,-0.39452786811793594,2.6922296250477156,0.01666666753590107
7,142.0,-0.06218484072491992,-0.04825695816874504,-0.01144552312195301,0.002394174260692671,-2.6864430235162375,-9.456348369598388,0.7644005142402712,0.28223656995516444,2.377433463277821,0.01666666753590107
8,158.0,0.005996989092207514,-0.0012909165933728218,-0.0781961693584919,0.07152672893139533,-2.6411031218379732,-9.522637828063964,0.4250483283002999,1.2649519947817136,2.2924409371237093,0.01666666753590107
9,175.0,-0.009927570006786846,0.006827215671539306,-0.06732464673221111,0.05895719304846134,-2.6336209493890403,-9.511564645385741,0.23460341765287732,2.0314314478506073,2.1065889284867234,0.01666666753590107
10,192.0,0.02342799353166483,0.04112812920212745,0.0059212067425251005,0.09651623615873978,-2.600551331219077,-9.437942944335937,0.5359621694065503,2.4765410022385868,1.9768245123231785,0.01666666753590107
11,209.0,0.09628513081660493,0.0881105373904109,-0.037038229539990426,0.17567452854765578,-2.5561086706414815,-9.480140748596192,0.80218693499778,2.2758666293290273,2.7876379762426846,0.01666666753590107
12,225.0,0.07784989493777975,0.049827276225388045,-0.036971009522676464,0.15981292428281157,-2.596211256188154,-9.479542198181152,0.11319298985491898,1.991723289337092,3.2062713695301674,0.01666666753590107
13,242.0,0.013018581124953925,-0.02441986324638128,0.0495440753698349,0.09711482310639694,-2.6692346990838645,-9.393350938415526,-0.9603252376340274,1.5508757729912006,3.0407660675438266,0.01666666753590107
14,259.0,-0.02956549163968302,-0.04270750734806061,-0.07255085694789887,0.0556651520660147,-2.6821035330072043,-9.516951599121093,-2.178381260296139,1.399419102910518,3.001117673185549,0.01666666753590107
15,276.0,-0.04801875636554323,-0.0286649534702301,-0.10209317777454853,0.03845688243256882,-2.6623513693109153,-9.548076220703125,-2.098837304108994,1.256215329059621,3.336948256278144,0.01666666753590107
16,292.0,-0.02551623451518826,0.029598142667114732,-0.18718086021244526,0.06269812857587821,-2.5984561125054952,-9.634716977801919,-1.7707276095428635,1.5856220125161133,3.8498877789832853,0.01666666753590107
17,309.0,-0.06552461157292128,0.03635024727582931,-0.23013678936362264,0.02588725978466682,-2.586784379412234,-9.67900912399292,-1.2594470757540948,2.221840046437638,3.36726191647513,0.01666666753590107
18,326.0,-0.052914072392741214,0.02894640076011419,-0.23646891499459743,0.041898492520116265,-2.5926205382198093,-9.685742816162108,-0.5697211797921317,2.1826881214546554,2.7938611323502127,0.01666666753590107
19,342.0,0.00704462128188461,0.05183510891646147,-0.23776596906781194,0.10369887767182663,-2.570025260052085,-9.686939916992188,0.11896855512839945,0.9726896943007488,2.650369956945646,0.01666666753590107
20,359.0,-0.03618803331828676,0.05878185931444168,-0.17124796254336833,0.05835864719999954,-2.5644883764520285,-9.620051908111572,0.7433115047650635,-0.09775905684736445,2.0628652590714753,0.01666666753590107
21,376.0,-0.09586938048941082,0.029788404542207717,-0.13738251782059668,-0.003740930960839614,-2.595014447619021,-9.585784896850585,0.7039285806499171,-0.7436177960606563,1.2532186902829836,0.01666666753590107
22,392.0,-0.0993570216757711,-0.028148528380692005,-0.17624971635341644,-0.009576797507470473,-2.6539716635003683,-9.624391398620604,0.7196878547775464,-0.23762172093578826,0.37873777809776227,0.01666666753590107
23,409.0,0.008827394779119641,-0.0021519173368811607,-0.15808160697817802,0.09756371765136718,-2.6304782674491403,-9.605537060546874,1.1770296376387839,0.05915194617239629,0.993700850291589,0.01666666753590107
24,426.0,-0.013070146915409713,-0.023887363804876802,-0.08901157788336277,0.07616554031372069,-2.6545702139154077,-9.535805937194823,1.1292919514256838,0.7831952738454423,1.2382642045386523,0.01666666753590107
25,443.0,0.018978558108443393,-0.07023410443812608,-0.027395956447720526,0.10968438182221725,-2.702603884722292,-9.473706916156411,0.8791018019629995,0.7461484345089989,1.3318202938080788,0.01666666753590107
26,459.0,0.04137837763614952,-0.10668810434937477,-0.03479717261493206,0.13153147197114304,-2.739863355797529,-9.4808883520931,-0.2071256199827689,0.32946140501113175,1.7540920434890628,0.01666666753590107
27,476.0,0.0031843108582310375,-0.11960983750373125,-0.03855623288750648,0.0915782317672856,-2.7518349486202,-9.484929151916504,-0.37285132897197487,-0.21892421148501057,2.0103635159122915,0.01666666753590107
28,493.0,-0.028016755227185785,-0.08239566687494516,-0.057525137251615524,0.05716155550307594,-2.713527429796755,-9.504232402801513,-0.02965790867581185,-1.0586639534263438,2.1249935135355575,0.01666666753590107
29,509.0,-0.08836087715597822,-0.0639309126406908,0.008988193097710609,-0.00793083866504021,-2.6960198301568625,-9.437494031524658,0.20656831923517818,-0.3478201264069062,1.3893575939328546,0.01666666753590107
30,526.0,-0.06555454092030413,-0.054910278578102586,-0.019953239226341245,0.01376667781220749,-2.6877897619500755,-9.466224451446532,0.27042285065112825,0.043056738795393464,1.7191332143262334,0.01666666753590107
31,542.0,-0.008844702106947079,-0.0198158765822649,-0.07531506096422672,0.07107787091904319,-2.6542709387078878,-9.521142036548257,0.20575352569196326,0.7673976866254375,2.265974807863556,0.01666666753590107
32,559.0,-0.07383687817044556,-0.014932780715823173,-0.062059273549914355,0.007032939977245405,-2.651727099443972,-9.507225154876709,0.395188288713738,1.0423167494215646,2.2789299691717777,0.01666666753590107
33,576.0,-0.08421879064887762,-0.01933481506705284,-0.032818566018342966,-0.0028431327377445993,-2.6569644155755636,-9.477747131457924,-0.5274801416744522,0.49402272682940923,1.7667840290708274,0.01666666753590107
34,592.0,-0.13378433806500398,-0.06185410636663437,0.08116203342676162,-0.053869519087206566,-2.696468450707197,-9.364620518493652,-2.665625397900281,0.028333492307064067,0.9451201693245213,0.01666666753590107
35,608.0,-0.11831327662086114,-0.0317062208622694,-0.1098234797656536,-0.03935469892197288,-2.6557676070064304,-9.558550852966308,-3.442458030368739,-0.008052446185901244,1.032988845449443,0.01666666753590107
36,626.0,-0.08182076219697483,-0.011978899346292019,-0.20317571720182895,-0.004040187902050092,-2.6289821836724876,-9.653870006561279,-2.1836381580795217,-0.1893808685603551,1.306042519550216,0.01666666753590107
37,643.0,-0.12553052365644835,-0.007462590965628624,-0.28219898503422736,-0.05027820289724041,-2.6213503736197947,-9.733776486968994,-0.24634798129156713,-0.8814026152179417,1.3817227231012499,0.01666666753590107
38,659.0,-0.1846533692951314,-0.0373377970084548,-0.2563514270722866,-0.11537060619851108,-2.6553181096732614,-9.706841718292235,1.4711075945002083,-1.3021250858960964,0.2642014554517458,0.01666666753590107
39,676.0,-0.15731107926340773,-0.02697188581675291,-0.19336743989288807,-0.09217679588205646,-2.6488839849725365,-9.642796823883057,1.1321946751012335,-1.6137858706718378,0.030329988617970528,0.01666666753590107
40,693.0,-0.09716260777087882,0.01511807415485382,-0.21673896313011645,-0.03696046986235305,-2.6086311773002144,-9.6656913772583,-0.1898679197451152,-1.2419802543339624,0.147219524876468,0.01666666753590107
41,709.0,-0.09958351477487012,0.006924538566172122,-0.22327567142248153,-0.044891303960816004,-2.614617265972495,-9.67287398223877,-0.9224705149848186,-1.5919664044814088,0.5049959593395636,0.01666666753590107
42,726.0,-0.06360046597677282,0.03420797455012798,-0.25628888323009014,-0.01436518256147392,-2.584539815355837,-9.706692080688477,-0.963683129384735,-2.3147235755172297,0.579924842081896,0.01666666753590107
43,742.0,-0.08839127229424193,0.04538052594959736,-0.3557183947533369,-0.046088391091162334,-2.5721198942437766,-9.80650094691813,0.21980004984393248,-2.4514528636434836,-0.2556125192508812,0.01666666753590107
44,759.0,0.03107039576031966,0.061839201058447354,-0.40367373962700365,0.06509232338616856,-2.560897366222739,-9.853037657165526,3.223509699778222,-2.9616632988883818,-2.3060979003691497,0.01666666753590107
45,776.0,0.09452911746213212,0.05038841723948717,-0.32051556394696235,0.12389991536348825,-2.5816967008844016,-9.767295310211182,4.1722710002605945,-2.1089105524742933,-3.4486301735009035,0.01666666753590107
46,792.0,0.21566536081554366,0.04882160631418228,-0.18014438570439814,0.24256256711102323,-2.5939672766536472,-9.623942485809325,4.68710248536583,-1.5908289645411902,-3.331000228728121,0.01666666753590107
47,808.0,0.30591119320159776,0.0292293093547225,-0.056175476208329196,0.33204586100922895,-2.62718653242737,-9.496151972198486,3.7888369868607725,-0.3504530576102403,-2.6854235549832093,0.01666666753590107
48,826.0,0.26951953620314595,-0.006718786861002445,0.0025157822132110593,0.29732993922025197,-2.6704320921748876,-9.43539910507202,2.5643138422717167,0.332359432931627,-2.4071827790946343,0.01666666753590107
49,842.0,0.3549440493799746,-0.030378479389846322,0.04171382013559341,0.38471830894910963,-2.6988629446282983,-9.394847314453125,2.652299698829586,-0.08886420287687734,-2.5330407539397553,0.01666666753590107
50,859.0,0.3326367213081568,-0.0018625790014863014,0.10906243226528167,0.3651157577404054,-2.680308174023032,-9.324667278289795,4.173681007437379,-0.18825396738858236,-2.0234303081247607,0.01666666753590107
51,876.0,0.3159998035555705,-0.019591712437570095,0.14897884759008884,0.3500023049617419,-2.7081404760614034,-9.281870923614502,4.201940488241484,-0.026342972411681365,-0.646553497517929,0.01666666753590107
52,892.0,0.20683613940551876,-0.11753010862022638,0.22803718673586845,0.24510639495849607,-2.812138610674441,-9.201066617584228,1.6832986268457615,0.4185220558679263,1.2560568473265354,0.01666666753590107
53,909.0,0.057228300596354524,-0.18630349285602568,0.19636486814320087,0.09965860300480853,-2.8785777067437768,-9.233388339996337,-3.282469813684476,1.2087139247031211,3.9587550179377646,0.01666666753590107
54,926.0,0.020010741567239164,-0.16871844406574962,0.15726912155151365,0.0644938300533453,-2.8505954748407003,-9.27543650665283,-4.784483480570463,0.7935597657458193,4.810482595646117,0.01666666753590107
55,942.0,-0.04462768915514462,-0.1195440787911415,-0.0025502690047025677,0.0029927703415043652,-2.788196886333823,-9.438990992084145,-2.8476309428174917,0.7070199883012883,3.9410848916681185,0.01666666753590107
56,959.0,-0.05233477010086644,-0.034434769043326374,-0.09405658631324768,-0.001496394303906709,-2.7006585958734153,-9.531166586956381,-0.5313342893570435,0.5517648259075797,2.50198153590618,0.01666666753590107
57,976.0,-0.07104006422588136,-0.020613748961687085,-0.11088497151732445,-0.017657209844188764,-2.6880893294185397,-9.547627307891846,0.15100826549362845,1.5341714781588767,1.2320230124628473,0.01666666753590107
58,992.0,-0.08439075881545431,-0.04661123678833246,-0.14482581956386564,-0.02409169073794037,-2.7196622792899605,-9.579949030303954,0.6479698546362076,2.538552503156544,0.30084944909325745,0.01666666753590107
59,1009.0,-0.11567923832284285,-0.06421235993057489,-0.09401040908396244,-0.047734386466210706,-2.740462490734458,-9.528174419403076,-0.38145352534478283,3.6660348813389976,0.6719048118394892,0.01666666753590107
60,1025.0,-0.027233541560778392,-0.040945173850655554,-0.10144318943321705,0.04833297341386787,-2.716819164818525,-9.535656299591064,-0.30676786136992634,3.531040461261927,0.7860861514116502,0.01666666753590107
61,1042.0,-0.0729713291159831,-0.10624357545226812,-0.18647066611647606,0.010773907470703125,-2.781462901903689,-9.62080009613037,-0.48436067719648573,4.336020516743419,0.4747706113541118,0.01666666753590107
62,1059.0,0.08573646520283072,-0.13070873914510012,-0.19352000010609627,0.17806873020781203,-2.805703901451826,-9.62783306350708,0.8530827299283648,1.9015775988976176,0.16092064422767557,0.01666666753590107
63,1076.0,0.06635834985016845,-0.11320523115843534,-0.17017945652902125,0.16190786900175735,-2.791788188824057,-9.603442134094237,1.9680118607465695,1.3668792279309312,0.3789687238690733,0.01666666753590107
64,1092.0,0.0728202941395808,-0.0765422646716237,-0.10577566567957401,0.16759413447724655,-2.762309288622439,-9.537003622546791,1.600077254120799,-0.208125895850632,1.9740898753342346,0.01666666753590107
65,1109.0,5.445186728611588e-05,-0.10497399390786885,-0.07269348028898238,0.09157824090044013,-2.7923864469781514,-9.503484799304603,-0.6166013037384248,-0.6514202207449747,3.077563071367036,0.01666666753590107
66,1126.0,-0.08295859798733145,-0.1310191202685237,-0.08953764758408068,0.003890605097217485,-2.8146824499383567,-9.521440727233886,-2.3041032716880947,-1.2180839837490265,3.7158167151046357,0.01666666753590107
67,1142.0,-0.12782860799836926,-0.08572627260237932,-0.12836626767218112,-0.04938040924072265,-2.7630577689021822,-9.562142155456542,-1.4778938143274392,-2.0513512676781263,3.2547985829226387,0.01666666753590107
68,1159.0,-0.1415360390371643,-0.028114626111090182,-0.1270990242153406,-0.06943181161191314,-2.7048484487786886,-9.561095276752114,0.3239999483981925,-2.0467641553202283,2.5572044691193794,0.01666666753590107
69,1175.0,-0.1396726015191525,-0.015064005880057811,-0.10387363145053385,-0.07227498088227585,-2.694972659191489,-9.537003038024901,1.8365273041292391,-0.8630330882494569,1.3882284782856869,0.01666666753590107
70,1192.0,-0.09176684967456385,0.011883330017328261,-0.00384030881524086,-0.0252887413356686,-2.674621652819216,-9.435099829864502,1.0555945304463636,0.8874358066891785,1.3392487648607023,0.01666666753590107
71,1209.0,-0.06992598377044777,0.0010667524486780166,0.06756079357564448,-0.001945261449413374,-2.686891936327517,-9.363273780059814,-0.7911062337299037,1.8014568440621623,1.6032097496288962,0.01666666753590107
72,1226.0,-0.10121686986405402,-0.013299626556038856,0.07328326287567614,-0.029927525318530386,-2.6973668608516452,-9.35863501434326,-2.3183322632765235,2.4492053045197264,1.824040651109398,0.01666666753590107
73,1242.0,-0.10243451115866191,0.01324585054218769,-0.01476210032403469,-0.02753330995864235,-2.66250129917562,-9.44901612701416,-2.3634731969445495,1.6895222098401126,1.7642389298313514,0.01666666753590107
74,1259.0,-0.021280893933796324,0.04084697417318821,-0.10230302113294601,0.052822078693774525,-2.6301792845025656,-9.53790086364746,-1.163107684397888,0.2906625954721536,0.8522399486178087,0.01666666753590107
75,1276.0,-0.03847822204811964,0.042408232140541076,-0.08794014925956725,0.03576336903227493,-2.6270368948236107,-9.523984566497802,-0.11478315661127579,0.5046518351992714,-0.08345946885056096,0.01666666753590107
76,1292.0,0.027715210430766454,0.06212561678439378,-0.1626321098893881,0.10354920353544875,-2.6078835738033055,-9.598504093170165,0.23669929855229274,0.850847123635655,-0.3821163738593914,0.01666666753590107
77,1308.0,0.0004695902731269598,0.049742812812328334,-0.13877309539616106,0.07766191635131836,-2.62105139067322,-9.574412438964844,-0.12327220129552895,1.5933640319403226,-0.06501651734849849,0.01666666753590107
78,1326.0,-0.08601635072329081,0.007581833431124687,-0.044975452280044556,-0.0050876602615229785,-2.6616031812921164,-9.481038574218749,-1.0394782722128955,1.665430531811891,-0.2915880861046904,0.01666666753590107
79,1342.0,-0.08381423756913281,-0.018572014001011848,-0.025759879678487776,-0.0010474266937002539,-2.6816546201959253,-9.463530974578857,-1.994512567839396,0.16534111064199608,-0.026319973884085465,0.01666666753590107
80,1359.0,-0.20166549530196934,-0.012237550282478332,-0.14934066663980483,-0.11806410589907318,-2.6693840444266796,-9.588777648925781,-1.912947729431573,0.9777660189579492,-0.5649415414770036,0.01666666753590107
81,1376.0,-0.17382099136915058,-0.0037409400939941405,-0.23775544767379758,-0.08693942038496025,-2.6559172446101904,-9.67856021118164,-1.5695030862400006,1.2061901698048012,-1.3438111177828593,0.01666666753590107
82,1393.0,-0.0948822326155845,0.01694236697256565,-0.29286884760856624,-0.0013467658333014697,-2.6319752280086277,-9.734525259509683,0.16926151916366441,1.6859922826996854,-1.9325465303681015,0.01666666753590107
83,1409.0,-0.06428307794607244,0.05774959365725517,-0.22329788325428962,0.032620979353319854,-2.5932185041129587,-9.664344638824462,1.331656155824587,0.8048786698609998,-2.357800724838854,0.01666666753590107
84,1426.0,-0.07106485617384314,0.06132452953457832,-0.14573124397099016,0.02873039252241142,-2.593069158770144,-9.585785481372476,1.0790730922748708,0.7547499371907193,-2.5520703012976456,0.01666666753590107
85,1442.0,-0.01489219297710806,0.04033025682270527,-0.056423898011446,0.08678978278120048,-2.614617265972495,-9.496302194324135,-0.4084653226865965,-0.12613550464100556,-1.829342798896032,0.01666666753590107
86,1459.0,0.08720039114239625,-0.010003507620096205,-0.1843289779126644,0.1879448211891111,-2.6622017317071553,-9.624989949035644,-1.088059913675315,-0.13214156211854752,-1.128162835778516,0.01666666753590107
87,1476.0,0.14645469940733163,-0.020422610303759574,-0.2095516819745302,0.2464531699249521,-2.670282162310183,-9.650877254486083,-0.10125874172441585,-0.8834843288109147,-1.2251934636230692,0.01666666753590107
88,1492.0,0.3006905907427892,0.004994739547371864,-0.20908055733144282,0.3951929206626955,-2.64978151833415,-9.649081603240965,3.494665861950201,-2.0072246171018473,-1.1887333802250124,0.01666666753590107
89,1509.0,0.37586350328996776,-0.06563742429763078,-0.02666121243238449,0.466420438318653,-2.729538945659995,-9.464129524993895,4.103801768925802,-2.039030246745658,-1.8746869306918656,0.01666666753590107
90,1526.0,0.46264969674143935,-0.13782880028337238,0.010952186647057533,0.5472246895499993,-2.8091458585992455,-9.424475559997559,1.773687962939535,-3.371512855459817,-0.5052007582929582,0.01666666753590107
91,1542.0,0.7569639573853463,-0.12934125018417836,-0.24142566061913967,0.8286930998539319,-2.8034596296563743,-9.676166009521484,0.8334524460886308,-4.62337810107008,2.9309161351225117,0.01666666753590107
92,1559.0,0.6985431864682584,-0.19279402391910552,-0.23849837499558924,0.7556698944202391,-2.8685516950309276,-9.67287398223877,0.8923454854028012,-6.127461742161404,4.77898347074131,0.01666666753590107
93,1576.0,0.701248353773728,-0.20754910998046397,-0.1349894852042198,0.7389105079153203,-2.8869574125543234,-9.568426934814452,2.586879720072381,-7.603078008565761,5.681006853950343,0.01666666753590107
94,1592.0,0.317591420128569,-0.3310533245742321,-0.0661485886901617,0.3302502337386424,-3.0222298063531516,-9.496302194324135,4.077954198672358,-5.789923184889482,5.157686724367252,0.01666666753590107
95,1609.0,0.22465132542354985,-0.3289782718658447,-0.05256313093006611,0.22670099666739188,-3.030759149767458,-9.479691835784912,3.765677096045729,-3.560645489332524,5.62983934555684,0.01666666753590107
96,1626.0,0.21535549114877356,-0.3278986599355936,-0.05897767414748668,0.20799628863402758,-3.037941754747927,-9.483732051086426,2.5786459270279307,-2.91907813663041,6.681602673487355,0.01666666753590107
97,1643.0,0.39554428225047883,-0.21417583464384077,-0.040513212174177166,0.37768531873951433,-2.930202972301841,-9.463530974578857,1.1674461351813155,-2.0289815443726886,10.515647401803973,0.01666666753590107
98,1659.0,0.5957023321315645,-0.012477788779139519,-0.12753858467638493,0.5711667267011594,-2.7323817678704856,-9.549422959136962,1.2560431869481954,-0.48689462401770756,13.865951666117253,0.01666666753590107
99,1676.0,0.5882936998428776,0.009310264658927916,-0.006589315262436867,0.5545569458339595,-2.7139760503470898,-9.427468312072753,0.8382728520953673,0.215681098928871,16.25328036595513,0.01666666753590107
100,1692.0,0.7738625582814216,0.08381956219822168,0.15552198562324046,0.7254431715260027,-2.6431977560296653,-9.26421368637085,0.21241881648633043,-0.4126381147022247,17.837049262772055,0.01666666753590107
101,1709.0,0.8146604326158762,0.094384210832417,0.2712567352592945,0.7580640960803954,-2.6358655134454367,-9.14749693996012,-0.24137008072752364,1.3149546357566133,18.78668802911936,0.01666666753590107
102,1726.0,0.898320639533922,0.09550590833872556,0.21359189727604388,0.8364742369831306,-2.634818342480063,-9.205106832885741,-0.6163862595012752,3.8238972016440944,20.80762830640483,0.01666666753590107
103,1742.0,1.0946472214933485,0.07797112843096256,0.08352057925164699,1.0375871444702147,-2.6494825353875755,-9.336040320697427,-1.7068016279448928,7.850568205593881,23.77792389718705,0.01666666753590107
104,1759.0,1.2906906756624579,0.08467150285243988,-0.10138181463479995,1.2448352439437993,-2.6366137014642357,-9.522787465667724,-1.275009555056263,12.458814876331443,27.530020015841856,0.01666666753590107
105,1776.0,1.3788590807199477,0.07959463797956705,-0.16141045913994312,1.3473370025192386,-2.6399057287469505,-9.58339069519043,0.07710219023929225,15.656323540043308,29.79854440525653,0.01666666753590107
106,1792.0,1.4714206061698496,0.05076514159739017,-0.12784370510280132,1.468693140838426,-2.6723770887628198,-9.548824408721924,2.2469151649846357,19.587671143275927,33.019227900822244,0.01666666753590107
107,1809.0,1.6694631982669232,0.05297843373268842,-0.23821488187909126,1.691653105937573,-2.6776144048944115,-9.657012980762124,3.4121368996523485,20.68841589217872,36.92682010612156,0.01666666753590107
108,1826.0,1.6686863686755298,0.08103285408914089,-0.25697160479724407,1.714847044118191,-2.6602564428582784,-9.672574707031249,5.069169607158003,21.259793659648842,40.98692019030351,0.01666666753590107
109,1842.0,1.7371223376505076,0.15620324588567017,-0.12770517341494558,1.811812174821901,-2.606536543108523,-9.536853400421142,6.80623484281987,21.863167448285893,47.28076534064642,0.01666666753590107
110,1859.0,1.8738064979434013,0.3015668255880475,-0.020324410626292227,1.9650410217063965,-2.4781474790826437,-9.424325922393798,5.879504530948785,20.714473063862318,52.91462980205851,0.01666666753590107
111,1876.0,1.875920129096508,0.3426218895539641,0.01017068088054657,1.9746178466133306,-2.4495669890254734,-9.390059495654702,2.6576421874210054,18.61219206375117,58.784514865334984,0.01666666753590107
112,1892.0,1.804815817695111,0.421825190128386,0.13663959049880503,1.9014450309753417,-2.370857024925947,-9.26346549835205,-3.4685967374355546,17.308515564418126,65.22358691290529,0.01666666753590107
113,1909.0,1.7232427192494273,0.4415788151293993,0.056256724750995635,1.813757532169437,-2.3392840750545263,-9.34741219406128,-7.375642954488092,17.89632505948401,68.92152646163106,0.01666666753590107
114,1926.0,1.8052130003191529,0.5010340436607599,-0.08249532785713672,1.8888754813926758,-2.260873970684409,-9.491812481689452,-8.892927643697758,18.689496144777372,73.22026994031867,0.01666666753590107
115,1942.0,1.9619938999623059,0.6279331613898277,-0.39487259353399273,2.037166561347735,-2.107345496965945,-9.812036953735351,-8.533390754656518,20.79268897514272,78.11991297161649,0.01666666753590107
116,1959.0,2.0815819640256463,0.7511658655658364,-0.33446693241000175,2.152088158836844,-1.9657886160701512,-9.756970315551758,-7.339634197183784,21.15684734093112,80.42400215603942,0.01666666753590107
117,1976.0,2.0028134016066788,0.7267647070199251,-0.23150983128249644,2.067542885313113,-1.9752157851070165,-9.658359719195962,-5.840717594199575,20.72362039470826,80.41016419278097,0.01666666753590107
118,1992.0,1.7555720404461026,0.6131210844442248,0.11650865661799907,1.8131590228535932,-2.0750234822928904,-9.31434228363037,-3.51046537016091,20.632831812713157,78.99033178887541,0.01666666753590107
119,2009.0,1.4745460447140037,0.44583822613954543,0.1755582269579172,1.5294461124253458,-2.2367823164790868,-9.25688144378662,-2.043429102014558,22.3453770961415,78.41067412458393,0.01666666753590107
120,2026.0,1.2823337662056087,0.36389205659776924,0.1904758101046085,1.3412020571279106,-2.3145938704341646,-9.243114784240722,-2.4501931206284393,25.70673004521092,79.09268900377721,0.01666666753590107
121,2043.0,0.9809534031003713,0.2507186818823218,0.166552498203516,1.0544964950891678,-2.4188912802547216,-9.269451002502441,-4.213082661211891,28.665825833301614,81.36300973294361,0.01666666753590107
122,2059.0,0.7267936408534645,0.2362587793752551,0.15384499232172966,0.8173208474641666,-2.4221833075374364,-9.285162950897217,-6.069329575248602,31.390282425287566,83.87378044165112,0.01666666753590107
123,2076.0,0.5863709150867537,0.24537439824491739,0.10251987875401973,0.6983590620730071,-2.3983909285396336,-9.34037922668457,-7.530572989205138,34.10759805449627,86.22902091276828,0.01666666753590107
124,2093.0,0.43750736443940547,0.24018559743016957,0.05171206705868244,0.5891235930620692,-2.3787878179252147,-9.39754020679891,-9.940326907635459,38.52752616453282,90.49043740764176,0.01666666753590107
125,2109.0,0.44976292530260975,0.33076749337017536,-0.36469431289136406,0.6353615760912187,-2.2658120116084812,-9.819519418445228,-11.552789429155606,39.97786560836626,94.25738918774134,0.01666666753590107
126,2126.0,0.41706495345663275,0.3517006835445761,-0.3975631477922201,0.6383543646990322,-2.2194243544429537,-9.858574248504638,-13.011670878319785,40.570459650945736,96.77925895385013,0.01666666753590107
127,2142.0,0.3852461755979806,0.5033803145259619,-0.4159808480143547,0.6495772032473236,-2.032078074535727,-9.885509017181397,-13.305625998497856,37.62218117495305,97.875818504339,0.01666666753590107
128,2159.0,0.49722694299537684,0.7010895830154419,-0.35499300308823584,0.7866452300249599,-1.808818769726157,-9.830592016601562,-13.07479634040269,35.01123549678354,98.86174948084117,0.01666666753590107
129,2175.0,0.5254484635470434,0.7724053452104329,-0.3862415433108806,0.8328833043856546,-1.7142478041499851,-9.867402867126465,-11.724332191481414,31.885672630694007,99.23029282807671,0.01666666753590107
130,2192.0,0.2955192890521139,0.7309475456625223,-0.34547932481169696,0.61875189340543,-1.7293612021297216,-9.832986218261718,-10.610417984085192,28.877496810774897,97.59061712535595,0.01666666753590107
131,2209.0,0.015147263716720044,0.6349228741466999,-0.3259446032583713,0.3453639913363382,-1.807920797973126,-9.817723182678222,-10.44978815650577,26.528521330673932,95.01232316651368,0.01666666753590107
132,2225.0,-0.1629186352131888,0.570270369233191,-0.2721457930535078,0.17163476990386842,-1.8541589636653661,-9.76849241104126,-10.745893932498749,24.65096721463454,91.44766792925154,0.01666666753590107
133,2242.0,-0.37874406369496133,0.457476641485095,-0.24795593917071818,-0.040252077019959684,-1.9424451498836277,-9.750386260986328,-9.916062660608988,23.51085667045038,87.27122581784218,0.01666666753590107
134,2259.0,-0.5429032004885375,0.3277373318940401,-0.17804361403286456,-0.19931684981659054,-2.0564690039485694,-9.684246440124511,-9.03187332820968,23.7749971611277,84.47970018330129,0.01666666753590107
135,2275.0,-0.6568878915868699,0.24499387449473142,-0.15568448270857332,-0.30585878716092557,-2.1247037512630222,-9.66524246444702,-8.794049556404422,23.781757340858718,81.9433230953954,0.01666666753590107
136,2292.0,-0.7897741939667612,0.08774155794754623,-0.18064532096385955,-0.42467108107879753,-2.2628194056637585,-9.694421797180174,-8.7446058170027,24.12974352623982,77.22733702069006,0.01666666753590107
137,2309.0,-0.8636207167483866,-0.03899827756658196,-0.0997808091789484,-0.4861720996914431,-2.374598549541831,-9.616759880828857,-9.333844529152408,22.68365246007014,73.31276436205899,0.01666666753590107
138,2325.0,-0.814060493961349,-0.05330488920807838,-0.10322364310920237,-0.4270651731410995,-2.372653260692954,-9.623792848205566,-9.293075129996602,19.91559535551741,69.89018388972228,0.01666666753590107
139,2342.0,-0.7011650594044476,-0.08494885848909615,-0.06649813278019427,-0.30974936485867943,-2.3891132509760555,-9.590573300170897,-8.579421107020526,16.839993615659225,66.75129532456205,0.01666666753590107
140,2359.0,-0.7470452785044908,-0.22168679479584097,0.040863925307989116,-0.3562865500301122,-2.507027974999696,-9.487772266387939,-8.662352410149175,14.527853345752142,62.77908269952524,0.01666666753590107
141,2375.0,-0.7773099222563207,-0.2866867979727685,0.004784311667084693,-0.3886083820400759,-2.554912008202821,-9.528024781799315,-10.152922521967628,13.228658304288274,60.57392880522994,0.01666666753590107
142,2392.0,-0.7294616179537028,-0.43062253682911394,-0.22743162205815315,-0.3443155782619491,-2.6708810049861667,-9.766996035003661,-11.272031942001293,12.765545865352022,58.234110901258674,0.01666666753590107
143,2408.0,-0.6690240273214876,-0.49822132432758803,-0.25893326025903224,-0.28520872477684167,-2.7172688082821668,-9.803507610321045,-10.032110135928443,12.777371484126254,55.88429360034251,0.01666666753590107
144,2426.0,-0.6210923555843532,-0.519999148632586,-0.3064087126612663,-0.23747429264485834,-2.7231046748287975,-9.854683086284995,-7.069278234361755,12.298242251586322,53.39226151562292,0.01666666753590107
145,2442.0,-0.40715661330670117,-0.5762682944737374,-0.19377660521566867,-0.02454001902732998,-2.7693425482600924,-9.744400172314048,-3.209043786002958,10.389279510648628,49.6941956083975,0.01666666753590107
146,2459.0,-0.2725104251148179,-0.6553465073637664,0.10065934557914734,0.10624324665870517,-2.846705043273419,-9.450511918529868,-2.5075404561169243,9.127922863412985,47.55589560569829,0.01666666753590107
147,2475.0,-0.22214893241487443,-0.6860558261431753,0.2715104177594185,0.15143380299415438,-2.8745379298336804,-9.280524185180663,-3.6474939059501748,8.102425454822578,46.360718368878196,0.01666666753590107
148,2492.0,-0.0347326194787398,-0.7511817937873303,0.3733370535522699,0.32636012525670227,-2.9290058714717624,-9.18161314457357,-6.264712685985518,5.763635067434573,45.92101128068028,0.01666666753590107
149,2509.0,-0.060529835492931304,-0.9020780193060636,0.3236012550026178,0.2885018480380997,-3.0669718882687387,-9.234735078430175,-7.251546101231776,5.169062831316732,44.29339427693917,0.01666666753590107
150,2525.0,-0.04662354828063398,-0.9712631992131471,0.2813461675971746,0.29044713688697665,-3.1217391051143406,-9.280673822784424,-6.93715804326479,4.622383454772197,41.6765165794755,0.01666666753590107
151,2542.0,0.0858341899562627,-1.048449460876733,0.07904840227365494,0.4071645043522119,-3.1859337832577523,-9.4864255279541,-3.5238664147558865,4.9721450624506796,37.37107268521212,0.01666666753590107
152,2559.0,0.24169896113518624,-0.9982105351105331,-0.015197569131851196,0.5585977228244766,-3.1335606219418346,-9.581295768737792,-0.4448253011246305,7.573638185695714,36.42576084370401,0.01666666753590107
153,2575.0,0.39441571661196645,-0.9370084629118443,-0.11046820740997791,0.711677028003335,-3.07744637440145,-9.675417236980795,1.9373921226974025,9.096388733788682,36.69488054228627,0.01666666753590107
154,2592.0,0.3643866351816803,-1.0391709065303205,0.024334230789542197,0.6857896860202773,-3.1904229113705456,-9.53805050125122,1.5511255017827292,8.675464665808308,35.7145742265656,0.01666666753590107
155,2609.0,0.37170963501352816,-1.0636560900978744,0.20250410155057905,0.6923737771183252,-3.2185547808773816,-9.35908392715454,-1.2383591868567978,6.741493187224612,34.99001409903231,0.01666666753590107
156,2625.0,0.3670201620230451,-0.9777492002315818,0.27140345025360585,0.6818991813877597,-3.1292211314328013,-9.291148455047606,-3.551585456841914,4.3060744061011444,34.497799931589924,0.01666666753590107
157,2642.0,0.22137665113443508,-0.7720762593865395,0.30288229210078715,0.5256775413288735,-2.9101516795285045,-9.263016585540772,-6.699610467234093,5.481614849057454,33.69021202450596,0.01666666753590107
158,2659.0,0.18495209651337935,-0.6958797394126653,-0.05962357083559036,0.48766960824020206,-2.81707708998993,-9.629329439544676,-8.617373906917349,8.13837615551894,32.221472051048515,0.01666666753590107
159,2675.0,0.27288554203752424,-0.7287984048046171,-0.35251638384163375,0.582090899679996,-2.832340271703899,-9.925911170196533,-7.1006202649156505,10.892892410042117,31.579304495473085,0.01666666753590107
160,2692.0,0.4806252792192623,-0.5714198315292597,-0.9043915569454432,0.8092408187199384,-2.667289994756877,-10.478822116088866,1.0992397594078624,13.877130124467625,32.467290559277274,0.01666666753590107
161,2709.0,0.6758019970238208,-0.31801044925823807,-0.8165601287573575,1.0230729179600253,-2.4286178706295787,-10.38709426498413,8.583760838464423,15.325303544560517,33.70217510083724,0.01666666753590107
162,2725.0,0.5811793377930298,-0.23806948205903172,-0.8185311365693807,0.9448124146610498,-2.3837267356321212,-10.38065984802246,16.71502676705738,13.221075940535915,34.08029437328914,0.01666666753590107
163,2742.0,0.46262529295254495,-0.0406140422001481,-0.34695290449559685,0.8441063803959638,-2.2569835391171273,-9.892242709350585,22.065016613732695,12.997429080126663,32.165512311178595,0.01666666753590107
164,2759.0,-0.09866857362072914,0.019564532169699667,-0.18613631959557533,0.2992757920414209,-2.2526440486080945,-9.717615625762939,19.05726085044754,16.677523905872132,30.753353624805538,0.01666666753590107
165,2775.0,-0.31224034142419693,0.03563829961419105,-0.21795126152932642,0.12240418092999607,-2.2756882395870983,-9.738415252685547,8.903131946317757,27.731387652952172,30.301557101776705,0.01666666753590107
166,2792.0,-0.28853666362315417,-0.039314796169847246,-0.8792284741163253,0.2255044899204746,-2.3627773249752817,-10.392780493927,-2.7144332893789573,33.44199270478394,30.334758651332134,0.01666666753590107
167,2809.0,0.08934135782700031,0.12296586993336676,-1.5344418566197155,0.6706763611057773,-2.196679730932414,-11.04505080871582,-3.136710161701819,35.12069952351675,27.784811685092716,0.01666666753590107
168,2825.0,-0.023917978138849137,0.14264204578399658,-1.4586568400561808,0.6292267813969403,-2.1766281458981336,-10.964695415496825,0.32732673077166474,34.38382114981534,23.464580431276254,0.01666666753590107
169,2842.0,0.310015358851105,0.3412921022549271,-1.2755050892293454,1.0516536637455225,-2.0033479468747974,-10.768819792175293,12.816073897284484,29.039778690359814,19.699829679636707,0.01666666753590107
170,2858.0,0.3102844581160694,0.38132089191302654,-0.7872446024239063,1.1077678382206708,-2.009932001440227,-10.264391429901123,21.231062468905186,25.604492358619588,19.399823865627653,0.01666666753590107
171,2875.0,0.26040589009486137,0.45915655739605427,-0.475886158400774,1.103727622919157,-1.993920777837932,-9.933243412780762,24.282773914593957,21.56597908730947,22.065549368487957,0.01666666753590107
172,2892.0,0.2386811842165887,0.355516734701395,0.17664017697572706,1.123629424219206,-2.1757304664060473,-9.256282893371582,15.912317322588093,18.691674975122606,35.834334763472604,0.01666666753590107
173,2909.0,0.20005166689716278,0.24586919602453708,0.7419236977070569,1.1038771874576807,-2.3154916960567236,-8.681075359997152,1.389479043234034,17.17415549816022,38.847558093188354,0.01666666753590107
174,2925.0,-0.7534947469048202,0.40456075159460303,0.5920026008307934,0.16175883418619633,-2.154332289068401,-8.830563910675048,-10.64888219439612,14.826843169122156,41.32025391236764,0.01666666753590107
175,2942.0,-0.09547544013522564,0.6345774217098951,0.029517770907282827,0.8209125518132001,-1.8917182944700122,-9.401730644226074,-16.32176667276285,8.872912628108683,47.861112854044066,0.01666666753590107
176,2959.0,0.005587444743514061,0.7086401445254683,0.07482289353311061,0.9087498252201824,-1.787720159856975,-9.36566798171997,-16.61215728796782,6.493144093908363,50.349135617720854,0.01666666753590107
177,2975.0,-0.048001595168188214,0.7515323607906699,0.31723873423337934,0.834230225482583,-1.719335774938762,-9.131933460125326,-13.909154320164877,4.0158033192066505,52.05505391010699,0.01666666753590107
178,2992.0,-0.007834931409358977,0.8359577799275517,0.6157669227778911,0.8391682664066553,-1.608154889214784,-8.843581797680258,-12.526797456687873,2.341119268451567,55.64990882878435,0.01666666753590107
179,3009.0,-0.26053689606338737,0.7369197519399225,0.6362509078800678,0.5554554427433759,-1.6870141986571252,-8.831012823486327,-14.410273346737664,2.2552245169967793,58.98487163444813,0.01666666753590107
180,3025.0,-0.29421529378145933,0.6733265468209981,0.6489367864519358,0.48766960824020206,-1.7238249030515551,-8.828020071411132,-17.677765836232773,0.5098190867497976,61.40266297798427,0.01666666753590107
181,3042.0,-0.4420541044909507,0.4952056297682225,0.8821616049587726,0.28625739357955754,-1.8510168662473558,-8.61179373397827,-22.787208373171286,-2.3057365406733736,61.62974627731968,0.01666666753590107
182,3059.0,-0.3114266869537532,0.5140529535792767,0.9566443067520857,0.369605538873747,-1.78607429234609,-8.552088330078124,-22.998449048726854,-5.317837584931127,61.70566382994438,0.01666666753590107
183,3075.0,-0.17252017443627118,0.5212140773802996,0.95066815495193,0.45594643624313175,-1.7345989566527307,-8.572289406585693,-21.06497617395257,-6.958477624985338,63.792894508219405,0.01666666753590107
184,3092.0,-0.3071609558006748,0.4734472408160567,1.0849918697237968,0.25034436867721377,-1.7298105533324182,-8.454674250030518,-19.03783237735344,-5.247960053966842,65.7626937440944,0.01666666753590107
185,3109.0,-0.1520286636147648,0.42148675195425744,1.3142436929464338,0.3541928656864911,-1.7438764880858362,-8.236951536560058,-19.146565573845457,-5.369847341026658,68.61256285452554,0.01666666753590107
186,3125.0,0.06086114980652928,0.39222134837284683,1.3968600168347358,0.5104145605443046,-1.7323545387268064,-8.166322587585448,-20.702687572449463,-8.683864944713777,72.590184989385,0.01666666753590107
187,3142.0,-0.01668473894968629,0.30864903893396256,1.6013532463759184,0.3446160955784842,-1.7504605426512658,-7.979874133300781,-25.315722205795204,-11.200070776453332,75.48126746126799,0.01666666753590107
188,3159.0,-0.22687588787153362,0.08964549187272787,1.727215422272682,0.06599087737780064,-1.9068316924497484,-7.869590634807944,-29.76549653495742,-10.938309752928117,74.17682427320062,0.01666666753590107
189,3175.0,-0.37335820593815294,-0.14867095068469643,1.6492326034039257,-0.14035937820691616,-2.0696375514708456,-7.964610513195395,-34.09311805345584,-6.277070632628186,69.7451584830754,0.01666666753590107
190,3192.0,-0.5486993195466697,-0.3564100302793085,1.322039461389184,-0.36017705466262995,-2.1670516315184534,-8.314163955578207,-33.329998092963244,3.828963494460951,62.77098209516961,0.01666666753590107
191,3209.0,-0.7130320958741009,-0.10089008559510111,0.7168225741982459,-0.5250776392069645,-1.8363526733398436,-8.933215306854247,-28.588950346645827,17.031247450156044,62.29849009895563,0.01666666753590107
192,3225.0,-1.1709173181600867,-0.37983284531235695,1.0765694938153028,-0.9696509782435372,-2.0413558982297775,-8.586205119213462,-33.659510324186755,14.673834978882823,63.078531853116935,0.01666666753590107
193,3242.0,-0.5177413232358172,-0.7727427604712546,1.2747832046955823,-0.3233661676051095,-2.3068132995605466,-8.409184418487548,-43.55717160139808,2.0128095774088024,60.46679045790912,0.01666666753590107
194,3259.0,-1.267034782525897,-1.1118404214218258,0.37938802415430545,-1.0896604460567236,-2.535010499163717,-9.321823579296469,-44.98305555290828,4.110713066592209,54.36621234032089,0.01666666753590107
195,3275.0,-1.640638378059864,-1.0145043750464915,-0.18661913467645644,-1.4624076804896815,-2.3321019084654746,-9.902716757091879,-38.992590330024406,10.440347981299167,47.580443305575315,0.01666666753590107
196,3292.0,-1.6969133691199123,-1.1052994753457606,-1.1441033993840217,-1.4912876832163893,-2.314744019494578,-10.873715167888998,-26.657598245608835,17.486047548872392,40.96254666025032,0.01666666753590107
197,3309.0,-1.8256037541799246,-1.1619035522297023,-1.407913325768709,-1.577628580585774,-2.3163900331359355,-11.143212492260336,-18.36934127271678,25.078079434002948,36.446668052753424,0.01666666753590107
198,3325.0,-1.9281547587245702,-1.208114537654072,-1.5829472365915775,-1.6207242652675136,-2.328510752105713,-11.320533052715659,-10.338829172117975,28.70442664739594,33.01471997597004,0.01666666753590107
199,3342.0,-1.6227458707556128,-1.1150617215558887,-2.129038565596938,-1.2342102616908028,-2.223764502539113,-11.865064292797445,1.7632065040496216,28.624653452984777,29.779628196350178,0.01666666753590107
200,3359.0,-1.993800512459129,-1.109711884960532,-1.9876298610001801,-1.5312409051539375,-2.234538410009816,-11.718569663238524,8.040121322987368,32.83175286848374,25.867799566218164,0.01666666753590107
201,3375.0,-1.9202759881734848,-1.1275099189143627,-2.002230048760772,-1.3901326448084785,-2.2747909254211933,-11.727099006652832,5.531546093211186,26.233945517055037,22.46017720816378,0.01666666753590107
202,3392.0,-1.4595271931499243,-1.5019691814295946,-2.138672655382752,-0.864006939586997,-2.6587609436035153,-11.858629875835776,-1.0809096661096638,18.151065502316097,18.724497449179104,0.01666666753590107
203,3408.0,-1.8136770234122872,-1.6503355962097643,-2.7578502633869646,-1.1840817009638995,-2.80271231842041,-12.476184851074217,-3.875215827972985,14.430220914208686,12.257658121311753,0.01666666753590107
204,3425.0,-1.9066046056956052,-1.5962645449347792,-3.0813737769782543,-1.2451337702326475,-2.7383681488037106,-12.798803524780272,-5.002189783949096,13.504901890174855,9.199061844939607,0.01666666753590107
205,3442.0,-1.2847342514760791,-1.586017730078101,-3.8456431620061395,-0.597801642498374,-2.7213093889098614,-13.562104357036947,0.5738412246046773,4.040838950722509,7.09174998361792,0.01666666753590107
206,3459.0,-1.1432111997846512,-1.3717296672314405,-4.007523576745391,-0.4478646904658526,-2.518251452868804,-13.722067539978026,7.926254385560439,4.3595739972093845,5.7983900581393595,0.01666666753590107
207,3476.0,-1.1426941901732235,-1.1956768616896123,-3.805391815638542,-0.44023309960886836,-2.375646670355275,-13.51541800918579,17.4969331628621,2.276017106934179,5.306980572358568,0.01666666753590107
208,3492.0,-0.9854615281745791,-0.6772486887007951,-2.9042922859758136,-0.2820662255000323,-1.9400515327453611,-12.603825727081299,31.873207535458732,-1.1607316323403698,4.0988878747048005,0.01666666753590107
209,3509.0,-0.8525402275465428,-0.24882088543698191,-1.9451281053572893,-0.1545750601619482,-1.6065093139648436,-11.63222818134725,41.557865948308624,-1.5725106106306275,2.274293337942397,0.01666666753590107
210,3526.0,-0.8334214663829654,-0.0549022414021194,-1.3861743721693753,-0.13901267630569636,-1.5236100814819336,-11.05732109222412,46.23851262424832,-1.1513209123245618,-1.8921359295871327,0.01666666753590107
211,3542.0,-0.8728987596381456,0.1382284671254456,-0.9538386016815901,-0.17791852634847163,-1.4896421992979942,-10.599429440197348,45.789663327846355,-0.9266060878055554,5.243653619695149,0.01666666753590107
212,3559.0,0.3122259475726634,0.2932558010995388,-0.06057984864711761,0.988057682147622,-1.4456488899230957,-9.688136433300375,40.98825549228624,-11.528742040635283,9.25137767888732,0.01666666753590107
213,3576.0,0.14517945530712603,0.5676251154214144,0.30431963142752644,0.7823060500431805,-1.2719196319580077,-9.307159678649901,38.01597914664472,-14.143517747381878,11.473636928185266,0.01666666753590107
214,3592.0,0.17920823736544697,0.8944389027297496,0.884686155000329,0.7538749053288251,-1.0711061138428748,-8.705766149139404,35.02107438428295,-18.017074266273372,15.094161405310823,0.01666666753590107
215,3609.0,0.4573299630234018,1.1255632418259978,1.4603788415431975,0.9766853338597342,-0.9241619869507849,-8.115595439910889,29.77620285648142,-18.645408981232233,17.971861829062473,0.01666666753590107
216,3626.0,0.45978838902618735,1.1473100864708423,1.6347341224521397,0.9241624984074384,-0.9702502227783203,-7.92929662322998,22.156758007117013,-16.32089411609638,19.510870788701013,0.01666666753590107
217,3643.0,0.5016217438882217,1.1693190891832113,1.5264035115927457,0.9044103347111493,-1.0099043339051306,-8.026561065673828,13.539097232254525,-11.406281871458832,19.77357181701075,0.01666666753590107
218,3659.0,0.633337358520925,1.0449268397085367,1.08821200081408,1.002273364102654,-1.1632825854979454,-8.45946206882894,8.243921361215854,-6.993214259556731,19.304459056888643,0.01666666753590107
219,3676.0,0.893645706525445,1.0693696454390882,0.881174347487092,1.235408787292987,-1.1577461402893066,-8.66311884754598,5.951563453579243,-6.332554820577139,20.574218544350693,0.01666666753590107
220,3692.0,1.1780814376357942,1.224400340414047,0.5979635550618171,1.48365753539782,-1.0262146865844726,-8.942043925476074,6.462314754429041,-6.0176024182299805,21.05065838990493,0.01666666753590107
221,3709.0,0.9773601278487593,1.233305093012005,1.0866571725875138,1.2506717680775559,-1.0335469291687012,-8.450484397125244,4.6091269113668485,-10.19436469475668,19.94484564063799,0.01666666753590107
222,3726.0,0.873770208710432,1.0078941631264984,1.502786489161849,1.108216787564568,-1.2639889850892125,-8.034192583465575,-2.206004893177198,-11.374307194633063,17.54281495861166,0.01666666753590107
223,3743.0,0.38801169478856024,0.6879483618915081,2.2394705326497553,0.5708681159306317,-1.556380716705322,-7.305158177947997,-14.901920608478937,-12.26718623520392,13.975168952266696,0.01666666753590107
224,3759.0,0.15527498859222977,0.5745777110382915,1.876727353826165,0.296881699979119,-1.6246154640197752,-7.679102549743652,-20.847065818672483,-15.132772464688905,10.32779927038205,0.01666666753590107
225,3776.0,0.04028234429406002,0.45944691864475606,1.607133583343029,0.13766728957872837,-1.6846202892579136,-7.961767983245849,-23.019779729504805,-16.159901434717302,7.187555766445219,0.01666666753590107
226,3792.0,-0.24442186502674593,0.1602019601330161,1.5772393803387879,-0.20679847199296345,-1.9045875667847691,-8.009502378845214,-24.313788096067693,-16.844341031065937,1.5340837529167242,0.01666666753590107
227,3809.0,-0.5573575135050342,-0.11969079378545283,1.819848697784543,-0.5597936072325362,-2.1232079597473144,-7.7799582946777335,-24.303611114204372,-14.941402516976195,-3.707340877231473,0.01666666753590107
228,3826.0,-0.847575298615545,-0.3838872352696955,1.8284376624315977,-0.8768756387963076,-2.3279122016906735,-7.783549012646079,-22.590782377925475,-9.14007803881467,-11.405697890284797,0.01666666753590107
229,3843.0,-1.2665296094827354,-0.6843209651745855,1.2156097157150507,-1.297357360160176,-2.5638905566893517,-8.409183833965658,-17.638686908896545,1.8649300054625024,-10.792965034937538,0.01666666753590107
230,3859.0,-0.39065464704539626,-1.0217749505713583,1.1595920604169367,-0.41389690874661317,-2.856731639508158,-8.473827863311767,-18.04632113629937,-0.6939946574715153,-10.050242580627534,0.01666666753590107
231,3876.0,-0.7820554362829775,-1.1716796808347105,0.978370985391736,-0.8028050272185122,-2.9629743381775913,-8.663268485149741,-15.868646800582324,-0.3545629638607368,-11.547327839140534,0.01666666753590107
232,3892.0,-0.7231904287297278,-1.3261676472350954,0.7353232765287161,-0.7344206754079845,-3.0769980461120605,-8.913762418365478,-8.134678461857023,1.0355932819573332,-12.813358897089405,0.01666666753590107
233,3909.0,-0.7214306525155901,-1.5193049316339193,0.8139718658298254,-0.7243949037258527,-3.2547673732481894,-8.837895568737387,-4.522320329657863,0.8094931563364309,-15.449935713893034,0.01666666753590107
234,3926.0,-0.7565183325096965,-1.664405184224993,0.852706962415576,-0.7487858648193243,-3.3907882473267614,-8.800786027526854,-2.926923462665816,1.5351789310614534,-18.764670914329827,0.01666666753590107
235,3942.0,-0.6261496389739215,-1.6889648943334816,0.5405921470671892,-0.600046128922957,-3.408295846966654,-9.114127169799804,-0.8425549538181422,1.2147429540278325,-21.75403468572743,0.01666666753590107
236,3959.0,-0.24125739138014612,-1.5677693950735032,0.019165888240933418,-0.20485319912710692,-3.2899323562622067,-9.635015083965659,3.555028512513835,-0.6234607346558217,-21.567252917589677,0.01666666753590107
237,3975.0,-0.12641016516834497,-1.55140526638031,-0.15526830312311649,-0.0846941941748606,-3.2857425033569334,-9.80724855041504,5.791417715657246,-3.072038515545553,-20.94590036350986,0.01666666753590107
238,3992.0,-0.244167506673187,-1.7512315270237624,-0.3625812662601471,-0.2054517221426824,-3.502567391204834,-10.011503879547119,3.982523649362586,-5.768528897974887,-21.56591761560694,0.01666666753590107
239,4008.0,-0.40718952919561413,-1.68400697966516,-0.8229168043076992,-0.37573932207116156,-3.4448072761535644,-10.470143135070801,4.163502318026768,-7.654603248117045,-21.73378317483834,0.01666666753590107
240,4026.0,-0.3216439834550023,-1.6280211808100342,-1.259988955667615,-0.301219815948396,-3.40275910949707,-10.90469073638916,7.547610896089734,-7.833070114713954,-22.18243268820709,0.01666666753590107
241,4042.0,-0.28902831959761677,-1.5369984092347322,-1.741893351444602,-0.27682889909364167,-3.3515830490112304,-11.379191577911376,15.969935090879028,-7.431600133037067,-24.81533742455819,0.01666666753590107
242,4059.0,-0.5539190269563347,-1.6430146056719124,-1.6156781243264675,-0.5490196843496349,-3.501220652770996,-11.244667372131348,17.62445450221353,-7.030022575880753,-28.189712129280245,0.01666666753590107
243,4076.0,-0.8729057008355855,-1.8170017839208243,-1.4600859960764645,-0.86325860657937,-3.7137061962403353,-11.081562384033202,12.58397297023005,-1.2799616556479338,-32.153013064997474,0.01666666753590107
244,4092.0,-0.6312383404150604,-1.7977435412213205,-2.4218431157976386,-0.5994475739413406,-3.7312136497497557,-12.035951020812988,10.379674557128297,2.0111901822452745,-32.16402674503412,0.01666666753590107
245,4109.0,-0.3356356108631938,-1.3160013502687216,-3.443252447926998,-0.27204048321524166,-3.279607361602783,-13.051092524719238,14.983170831298116,10.924072223603225,-30.62118946436579,0.01666666753590107
246,4126.0,-0.41508061123900114,-0.9745021811343729,-3.516017824408412,-0.30062122443416156,-2.9837738189697265,-13.113940318298338,21.642489158844658,15.832663656487405,-29.54949863264494,0.01666666753590107
247,4143.0,0.027425438270531594,-0.542157204426825,-3.0430694730252026,0.21502993072252718,-2.6337714637756346,-12.62223115234375,28.860400847282353,15.785750502173173,-27.09400805998492,0.01666666753590107
248,4159.0,-0.1962895013520494,-0.17171178066283463,-2.2227806791335345,0.04653797062272206,-2.339883209991455,-11.783662020874022,32.79457614883136,15.143666616415077,-28.872872772706796,0.01666666753590107
249,4176.0,-0.16391146390913053,-0.004441635709255934,-1.7018419115632772,0.1303350287281908,-2.249053038378805,-11.243619908905028,29.270727876765456,13.0500240980567,-33.48786425524975,0.01666666753590107
250,4192.0,-0.5654851807832717,0.3543570432722568,-1.194071837645769,-0.19946626822464167,-1.973869485064596,-10.71330365665853,24.717957710014026,11.712883086885181,-42.2162859390141,0.01666666753590107
251,4209.0,-0.5392351064350456,0.6779739342354237,-1.1929682603180407,-0.11282605911511927,-1.7045217982970178,-10.696244969829916,22.672462902662364,14.335209567759224,-47.76851256437162,0.01666666753590107
252,4226.0,-0.6142423435591161,0.9655644030496477,-1.113318969541788,-0.11896120086926966,-1.4661492416381836,-10.600776178631186,22.55299606388967,16.18448670063476,-51.12005223915102,0.01666666753590107
253,4243.0,-0.3547957634830847,1.5509224512994289,-1.0248901599824427,0.23747553475387392,-0.9564838554933667,-10.487052184295655,29.555423821749926,15.955420938892752,-50.07510842821994,0.01666666753590107
254,4259.0,-0.39543146952576935,1.8679706313967703,-0.42325054675638674,0.2672534179020673,-0.7079352111265063,-9.862315188598632,31.246356679097058,14.284680682053116,-48.16135772467407,0.01666666753590107
255,4276.0,-0.5658857244081795,1.9311177001833915,0.021835399711132047,0.1610107922978699,-0.7053916641235352,-9.395745140075682,24.57996227557038,12.535108089360486,-46.689113864172405,0.01666666753590107
256,4292.0,-0.6464250958919525,1.9589646152690052,0.2529290514081716,0.15786832955367863,-0.7348699798032641,-9.14210940170288,18.953173890138423,8.049688710467263,-44.38308490602519,0.01666666753590107
257,4309.0,-0.4312188952870667,2.1727926593884823,-0.19399930805563925,0.41928522332198914,-0.558597174835205,-9.574113163757323,19.67870561208115,4.615908862325848,-42.626981798712386,0.01666666753590107
258,4325.0,-0.43991497357040643,2.315255841474235,-0.11769640509784221,0.4469681800175458,-0.45415012741088867,-9.483283138275146,18.715244250401028,0.34141500979102096,-41.3974999367859,0.01666666753590107
259,4343.0,-0.5933361144568771,2.239074226808548,0.34894670866131783,0.32650990899093446,-0.565630142211914,-9.002946430206299,9.68464816756614,-4.17418644143596,-40.369539391226056,0.01666666753590107
260,4359.0,-0.6058391838077455,2.2792960548207164,0.30592297497093673,0.32920345892384645,-0.5306149429321289,-9.042899670410156,2.8613912126741288,-7.22255707084695,-38.93686623168086,0.01666666753590107
261,4376.0,-0.5139527080751956,2.256125314852595,0.19274492408037183,0.4264678283024579,-0.5446808776855468,-9.158269678387045,-2.396833334954773,-11.479789221080155,-36.77059318923586,0.01666666753590107
262,4392.0,-0.36624694916084405,2.2828142920747396,0.32938276101350783,0.5565029059696942,-0.49320524973124263,-9.030779024505614,-5.278595586828464,-20.637763209293905,-35.243127249294645,0.01666666753590107
263,4409.0,-0.3549065669137984,2.241165353868902,1.0088286674976348,0.5331594397831708,-0.5104138664245605,-8.361898935699463,-8.01757145344257,-28.477145272574596,-33.98756089492788,0.01666666753590107
264,4426.0,-0.61372453023009,2.0062179493531582,1.3034867366105318,0.22131474661305545,-0.7137710776731372,-8.081328428649902,-11.877927777989369,-34.17675030474806,-34.802904481814394,0.01666666753590107
265,4443.0,-0.7120803481072187,1.6931684835031628,1.608252358239889,0.034417306451871986,-0.9720455817624926,-7.799710458374023,-15.602872187146081,-38.90109994609209,-34.90054203599973,0.01666666753590107
266,4459.0,-0.9780595813550055,1.2100655255913735,1.4024679198443888,-0.30481106820628046,-1.407191733495891,-8.024466139221191,-18.048173825111732,-40.03194363111984,-36.075915139321374,0.01666666753590107
267,4476.0,-0.9194110660966485,1.0315344203025103,1.331015379527211,-0.3202237779261544,-1.5333362334653735,-8.115296164703368,-18.982468571488607,-40.1228090527431,-37.913546799662036,0.01666666753590107
268,4493.0,-0.6870207256525754,0.6897822993203997,1.1414590223550796,-0.1867470719050616,-1.808669424383342,-8.328380112457275,-16.86280815503436,-39.781644518795545,-36.98178946856182,0.01666666753590107
269,4509.0,-0.38993838853482155,0.6121314888849854,1.1691875717580318,0.03621299422960728,-1.8415899894714354,-8.315960191345214,-16.180287841842496,-38.24312391768267,-33.50166806756234,0.01666666753590107
270,4525.0,-0.4958589425778016,0.43363823138847946,1.2465320927232504,-0.1418557907771319,-1.974468035479635,-8.253262035369872,-18.48335591298451,-36.32316457218125,-32.80808284791506,0.01666666753590107
271,4542.0,-1.2975532549083233,0.3245151549771428,1.230098259794712,-1.0238198456034995,-2.018012578173727,-8.288726147460936,-17.639716559913925,-30.668249467747177,-35.80099319503919,0.01666666753590107
272,4559.0,0.5759051967823877,0.0763956958077848,0.8887918367534875,0.7924814253651536,-2.224213196154684,-8.641721254730225,-14.392820505860989,-32.26213899736677,-31.535697152717137,0.01666666753590107
273,4576.0,0.5170580536793917,-0.20106062474399805,0.6842682120740413,0.6682822325108573,-2.466177201434225,-8.856002303314208,-13.532635873299693,-34.46323234420049,-31.250618717139144,0.01666666753590107
274,4593.0,0.5043747323907911,-0.33221360052525994,0.4948889650344848,0.5678753775551681,-2.5522186774656177,-9.056965605163574,-13.11549658389315,-31.680999182025403,-29.009213593824008,0.01666666753590107
275,4609.0,0.4227739056879654,-0.7068772265061736,0.27909634284377094,0.4248218026738352,-2.890848574773967,-9.281272373199462,-15.34864913114362,-30.408504203800764,-27.294617546097363,0.01666666753590107
276,4626.0,0.5927370160525665,-0.7626866458810866,-0.206571789380908,0.5190935278626392,-2.896085890905559,-9.778069217681884,-14.264340378704818,-26.754090035560896,-25.129770305641607,0.01666666753590107
277,4643.0,0.7122456216715276,-0.8468618896491825,-0.33508886370062824,0.5855326010990888,-2.9465137633725997,-9.913491249084473,-13.371677342866464,-25.917875098118113,-23.196464770501986,0.01666666753590107
278,4659.0,0.7955155871629714,-1.0277762368127703,-0.5064548996657133,0.6186024567310698,-3.0957026004515584,-10.090961447143554,-12.372787789961487,-24.25701044104467,-24.19530992717736,0.01666666753590107
279,4676.0,0.71858454236947,-1.1300690288126467,-0.7604594713509082,0.4975456900883466,-3.1738134296141562,-10.34923595123291,-7.016906478240212,-22.036626932447536,-27.090283899339973,0.01666666753590107
280,4692.0,1.006142789414525,-1.2321630833700299,-1.317675420960784,0.7380133558629081,-3.273621419060975,-10.905737615093589,3.8738732689142545,-17.569824941684477,-27.617410578724876,0.01666666753590107
281,4709.0,1.0053940168738364,-1.1403308951079845,-1.57915661213696,0.71122822478991,-3.2008976897642016,-11.162366690063475,9.588601193683774,-14.543202488364452,-26.097071941182566,0.01666666753590107
282,4726.0,0.580083907239139,-1.5905676484674214,-1.5663713648438453,0.26351251434069123,-3.692307580511272,-11.139921049499511,11.758366170341942,-10.363366626711246,-26.2178962800528,0.01666666753590107
283,4742.0,0.20370101971756666,-1.5548729424908756,-1.4339122749000788,-0.11985898995921015,-3.684526425115764,-11.001057353210449,9.367443083453347,-6.595243469169006,-26.57305074896783,0.01666666753590107
284,4759.0,0.9717330086819826,-2.0234845798440277,-1.4414970309406518,0.6470336562443524,-4.175487256921082,-11.003601192474365,6.593110315713846,-2.39498107302923,-18.44908373127668,0.01666666753590107
285,4776.0,0.3635509150099009,-1.707439000917971,-1.5896762525856494,0.03905607216842472,-3.871573429815471,-11.149048943328857,1.8889018350151316,-5.106178133402071,-24.949465264384315,0.01666666753590107
286,4792.0,0.26091208605132993,-1.070615115455538,-2.2276778035253284,-0.05192359091751277,-3.244142957250774,-11.78530803451538,2.7689580491929346,-2.708704681656021,-16.51327493180625,0.01666666753590107
287,4809.0,0.3140209046980366,-0.6071471246011555,-2.0686749900490042,-0.0011964432429522275,-2.785204426519573,-11.625195798492431,-1.1863598894884329,-4.164479888851726,-10.833730165225113,0.01666666753590107
288,4826.0,0.3318222996527329,-0.3868237271130085,-1.6514537865847347,0.008529964468814433,-2.555660342352092,-11.209801810455321,-3.2984236414817447,-6.400097707505749,-7.4955187508373395,0.01666666753590107
289,4842.0,0.31343784411307424,-0.10932502872422337,-1.6664689848870038,-0.027083712160773574,-2.2750898353025315,-11.224915208435059,1.1293434980095762,-10.203358346346295,-5.774628683790532,0.01666666753590107
290,4859.0,0.47972296008467674,0.29587621273100373,-1.362355105164647,0.11252820867970585,-1.8824406169064343,-10.91696043537557,8.751278911821803,-13.267393160845064,-3.682873858964018,0.01666666753590107
291,4876.0,0.6967053765818476,0.7421409937195479,-0.8161807740509509,0.27877554992418735,-1.4823096644528209,-10.358063985332846,18.147139851090632,-17.56185923356495,4.638961604548287,0.01666666753590107
292,4892.0,0.7102863773625344,0.9512430322304367,-0.4570049323201179,0.24046828682906923,-1.3211501113340258,-9.9851676612854,20.411958862880578,-20.552322665418924,10.387374741643841,0.01666666753590107
293,4909.0,0.1657390263961628,1.1739162077151237,0.26655717926621436,-0.3657136094691232,-1.1474208533689378,-9.246557033649086,19.745518522542213,-22.884318295243233,13.570240333548844,0.01666666753590107
294,4926.0,0.2200775329682976,1.2993465680658816,0.8363432721138,-0.4047689875178039,-1.0736495147153735,-8.658331028747558,12.165594855262796,-26.06061239139304,17.0932792281981,0.01666666753590107
295,4943.0,0.14667853475846349,1.2449839864984154,1.0265244831860065,-0.5557533297114073,-1.1457748397275804,-8.458265552520752,4.544948319491293,-27.646498646852667,16.875893089936813,0.01666666753590107
296,4959.0,-0.006177081199735403,1.0796240590803325,1.0099188008219002,-0.7820054596614092,-1.3115733046934008,-8.469039459991455,-1.3291775442078129,-22.351370587138188,13.439272309987496,0.01666666753590107
297,4975.0,-0.043625279780104755,1.2575124825514852,1.0766700315803288,-0.8717878757867962,-1.1225808650143443,-8.400655075073242,-5.60169939306321,-13.992697778997888,19.689104575092493,0.01666666753590107
298,4993.0,1.5311381388992071,-0.27266894014477727,0.8856897790849209,0.640150253406167,-2.605938723345846,-8.597578746142982,-17.956883224212635,-14.152189526306856,21.678253736886138,0.01666666753590107
299,5009.0,-0.9180820094499736,1.6894089848391711,0.5437362903118134,-1.853859542327374,-0.596155774987489,-8.946832328796386,-15.178770373654357,-12.35059309025353,16.926764338875067,0.01666666753590107
300,5026.0,0.023787337496504187,1.114121956487745,0.5435796384453773,-0.9701000006526708,-1.1240773871824146,-8.952368920135498,-11.531094187030707,-14.386680165797149,18.482288695926695,0.01666666753590107
301,5042.0,-0.3339591290183365,1.0250997110798954,1.1052467222452163,-1.3768148615412412,-1.1794433005735276,-8.393322832489012,-12.11222290331467,-17.213157585868288,11.99385999386658,0.01666666753590107
302,5059.0,-0.931784152392298,0.7557980554111301,1.7297697829306125,-2.0226507593683896,-1.41587086064443,-7.770980038452148,-13.942538577280606,-20.074941961306514,2.8041890187055065,0.01666666753590107
303,5076.0,-0.5834867744851857,0.2158326619401574,1.6834236268192528,-1.7491132196955381,-1.896357060186565,-7.821856823730468,-21.621204581843607,-24.88709880707293,-5.211036905087399,0.01666666753590107
304,5093.0,-0.4823173604920506,0.12649258275479078,1.4554548291444778,-1.7054190393976867,-1.9298758834287524,-8.054842572784423,-24.68844958525228,-23.586164628691648,-8.280769378014426,0.01666666753590107
305,5109.0,-0.5430069531239569,-0.08772270711660385,0.8988380144715309,-1.820041443877667,-2.0860975417539476,-8.616731774902343,-23.829408155603314,-23.345214337793816,-11.214219513319012,0.01666666753590107
306,5126.0,-0.47891120531037445,-0.12652297789305447,0.8206155416280031,-1.8170486918024717,-2.0572176303587852,-8.700528833007812,-20.05750961099735,-18.162994427701523,-11.987029804696569,0.01666666753590107
307,5143.0,-0.38679201680049297,-0.24168738029524683,0.9124871851176023,-1.7634784296564756,-2.13083933140859,-8.611494458770752,-17.500696597094777,-17.86813857632666,-14.464465775159837,0.01666666753590107
308,5158.0,-0.4975105457097292,-0.3694314244158566,1.4711474883168936,-1.9089261805109679,-2.2201728347226974,-8.055292070117593,-18.73239656295422,-16.551167113774188,-18.482712167655237,0.01666666753590107
309,5176.0,-0.23131533162370324,-0.5496592506200075,1.5108786102026701,-1.689108540587872,-2.34631733469218,-8.01892954788208,-19.391265638597627,-19.637785948763604,-22.63318931493479,0.01666666753590107
310,5192.0,-0.1587526381075382,-0.7423392927706242,1.2882558497309684,-1.6554400797419249,-2.5032870349057017,-8.24218885269165,-16.843827059330895,-20.024734948265042,-25.88308382203336,0.01666666753590107
311,5208.0,0.05798179497793317,-0.93110420730412,0.81405662150383,-1.473031986889243,-2.6647461554929612,-8.715941506195067,-13.364773729162874,-17.56839060195877,-26.297678012200425,0.01666666753590107
312,5226.0,0.39081206609681246,-0.9962072324641048,0.6461053624182939,-1.1837823526911437,-2.7041008452817796,-8.88144069595337,-11.113534840990209,-17.79052372169322,-23.41585898437926,0.01666666753590107
313,5242.0,0.4049266622975468,-1.031915236313641,0.764933986416459,-1.204432195879519,-2.7205609816953538,-8.760233652386068,-11.806543763426273,-18.944171700812348,-22.906834013842182,0.01666666753590107
314,5259.0,0.5109960502266884,-1.114740965168923,0.8268570663660764,-1.1379933920711278,-2.7846058761045334,-8.694842604064942,-11.93263332437294,-19.85703160602643,-24.348715975935846,0.01666666753590107
315,5276.0,0.7614202792070806,-1.2062931674458086,0.5990975275278091,-0.9397235670894384,-2.850147146551311,-8.917952271270751,-13.016023416368377,-19.329939077587373,-24.85023627612237,0.01666666753590107
316,5292.0,0.8673034969143569,-1.3078640749119221,0.31815234194695946,-0.8692441095881164,-2.9279585543759166,-9.196577489471435,-14.555758083606229,-16.786559338234923,-22.54992760140504,0.01666666753590107
317,5309.0,1.029095210456848,-1.2702170658238232,-0.517528082343936,-0.7345702662043273,-2.8613699668332933,-10.032153868865967,-16.406462726018297,-13.249335848226842,-19.61297870169812,0.01666666753590107
318,5326.0,1.3295828625060617,-1.475050048713386,-1.1733224796056747,-0.4525033831171691,-3.0259713309690355,-10.691157875823974,-13.861055274256,-6.6489086923646195,-14.062303383055841,0.01666666753590107
319,5342.0,1.5324578431956468,-1.060307802583277,-1.3867144703954457,-0.2615658007197082,-2.587233876745403,-10.906187112426757,-9.561979677620004,-6.295661553775315,-9.43788453191098,0.01666666753590107
320,5359.0,1.6396144418396055,-1.154051815816015,-1.4958061287552118,-0.17013722482249138,-2.6689360083982345,-11.014225462341308,-3.369131040430186,-9.636380928248952,-8.853438051237683,0.01666666753590107
321,5375.0,1.5870084946811198,-1.2418386742100118,-1.377497144716978,-0.24989406762644648,-2.7629084235593675,-10.889726976013183,4.021585501225889,-14.589261869032434,-11.557340896463772,0.01666666753590107
322,5392.0,0.8937139494560659,-1.6974201495982706,-1.0698925002694128,-0.9677057989925145,-3.2448909991391,-10.57309380645752,5.557065814384469,-2.0760635324254673,-16.510438695753404,0.01666666753590107
323,5409.0,0.6224475695855916,-1.8244744578890502,-2.096686448046565,-1.21804936395213,-3.3930323729917404,-11.60050559387207,5.21215961743222,13.582733603314443,-14.319798953444383,0.01666666753590107
324,5426.0,0.9472672604672611,-1.509723448818177,-3.0366560988515614,-0.8168710944026708,-3.106476361791789,-12.550256049457191,8.701952139409617,27.421928857131817,-6.68257853676502,0.01666666753590107
325,5442.0,1.1306170180842279,-1.2851336260572075,-3.108693161058426,-0.5576986185602844,-2.9104511008664966,-12.631209408569335,12.50892712049818,31.059370005284205,-1.969024863177847,0.01666666753590107
326,5459.0,1.3073425352558492,-1.0441590702064334,-2.667827462634444,-0.3088512835077941,-2.703651786340028,-12.196961082458495,14.45778243505698,25.611640151586005,1.8809956776074304,0.01666666753590107
327,5476.0,0.8600253226049244,-1.1026986451976,-2.1521505611151457,-0.6869855082087218,-2.8067522414609787,-11.684901786914468,12.514464696367769,18.011611822484657,0.7251783130140317,0.01666666753590107
328,5492.0,0.4686474393188953,-1.1873187101237475,-2.120657106220722,-1.030702937914431,-2.919129789623618,-11.656021144866942,9.223205709881956,21.23187184632183,-2.0358994587848533,0.01666666753590107
329,5509.0,0.07698080221936106,-0.8277779806032777,-2.8681057048290968,-1.3584095824092626,-2.5815476478025317,-12.409296842193603,8.631567893786281,29.258867253271728,-0.8965304170124622,0.01666666753590107
330,5526.0,0.6269758606649934,0.16980463186725972,-2.8916683667242524,-0.7006025301508605,-1.6168338702328502,-12.442366752624512,12.348066774034272,35.54988129020367,7.991479277039475,0.01666666753590107
331,5542.0,0.4610533309280872,0.6546062103904783,-2.4755922416418787,-0.7815564737848937,-1.1628333804257214,-12.031910220989584,15.510703906938636,35.89803310767215,13.373232918449935,0.01666666753590107
332,5559.0,0.3428806866206229,1.1822476904697716,-1.6254606826722622,-0.8215097870539874,-0.6753142135068774,-11.183914505004882,20.343966037240392,32.06409083219308,16.210086249643968,0.01666666753590107
333,5576.0,0.10891213707439601,1.5719447810620069,-1.0528156932622195,-0.9668079003047197,-0.35853140634745356,-10.607211180114746,28.222003556128772,27.37421315559011,16.606107447910478,0.01666666753590107
334,5592.0,-0.2010292797576636,1.6497259398788213,-0.6106938572973013,-1.217450813537091,-0.35254590219706294,-10.15680199279785,32.006915318650904,27.662529100834686,16.021330556836084,0.01666666753590107
335,5609.0,-0.445473849806562,1.6663631864249706,0.18629647859334944,-1.3979137636713683,-0.4128497103817761,-9.349956033325196,33.1676308360137,31.117378801905122,17.73189337785783,0.01666666753590107
336,5626.0,-0.6241840379893779,1.7552951232008636,0.4766320083320141,-1.4766232163142412,-0.4296092681333422,-9.045443509674072,33.58283462056419,37.126732912938664,22.126799089870044,0.01666666753590107
337,5642.0,-0.5049622499551624,1.8710756116747855,0.8009738525688648,-1.2777549139827489,-0.3887582023069262,-8.710404914855957,30.173248583123428,37.850883229121756,27.10698200431336,0.01666666753590107
338,5659.0,-0.4672133148625493,1.9502660527676343,1.4589187058627604,-1.166424390655011,-0.3693051676876843,-8.0437693901062,21.206588193561736,34.422708831854806,31.238727357794154,0.01666666753590107
339,5676.0,-0.3640336570255458,1.9768900019295512,1.9680033695101737,-0.9931441185664385,-0.37229791976287957,-7.532308060455322,1.647430208584557,24.831099793615287,34.99731898634964,0.01666666753590107
340,5692.0,-0.3804728602489456,2.0450509533554313,1.874970865547657,-0.9783300323268398,-0.29029665903300045,-7.630769603729248,-7.63142414739496,18.194426958261925,36.112050255125325,0.01666666753590107
341,5709.0,-0.2782147742362693,2.0773225530155,1.4575772281259298,-0.8619119400691241,-0.2256530680783093,-8.05693749923706,-13.719263108407475,11.486949820651269,35.43094720618624,0.01666666753590107
342,5726.0,-0.46135351945105935,1.8124150406524537,1.5104484020918607,-1.044619454259798,-0.4315544108517468,-8.01818135986328,-17.075056283492508,4.605422814402586,31.642466669822777,0.01666666753590107
343,5743.0,-0.4502309812057763,1.6780884032711385,1.6898451842993496,-1.0449187659999355,-0.5172969039365649,-7.849390142822265,-17.976892263386187,0.949572812333135,29.821565557854058,0.01666666753590107
344,5759.0,-0.5646830340875313,1.5038291300825775,1.9092080661922692,-1.1743552201868965,-0.6426930697567761,-7.640196188244223,-17.024007449635832,0.6565805353846251,28.485411509017606,0.01666666753590107
345,5775.0,-0.7515101489588618,1.370107911248505,1.865910776257515,-1.3724755171626806,-0.7323262866698205,-7.692569934082031,-14.725865652432688,2.4115395860114566,25.749953189826055,0.01666666753590107
346,5792.0,-1.017464613091573,0.9969706180520355,1.7596569716721773,-1.641972695403546,-1.0555433646604417,-7.809436902618407,-12.184957587786137,5.7974726783564625,20.11875933237944,0.01666666753590107
347,5809.0,-0.9396992363657802,0.6322267669305205,1.68960202319324,-1.5541354950617998,-1.3875892074033618,-7.887098818969726,-11.562671859110969,9.70096805081424,16.414544547353717,0.01666666753590107
348,5826.0,-0.7980527044251561,0.4342043408386409,1.5249217486023903,-1.3851946769496426,-1.5447086913511157,-8.062025177764893,-11.657705403675234,13.222643468950432,14.560151602789839,0.01666666753590107
349,5842.0,-0.7111867602683604,0.31708573562875386,1.487224762892723,-1.2714700250269844,-1.6294037212096153,-8.10796392211914,-12.504544700371971,13.943306119788586,14.488593418402909,0.01666666753590107
350,5859.0,-0.5234647058513016,0.06629778790250421,1.2950690368771551,-1.0589846276881172,-1.8448818706236778,-8.308627948760986,-14.023082729294336,11.517169138860343,16.028439076214774,0.01666666753590107
351,5875.0,-0.4993841575618833,-0.08937412758544087,1.199305062124133,-1.0190314240168779,-1.9601028255186974,-8.413224633789062,-16.59633856985007,7.4910620524039055,17.80985827968623,0.01666666753590107
352,5892.0,-0.578807128768973,-0.5753149392716587,0.9200035520970821,-1.0978904411982744,-2.379237753649801,-8.705317236328124,-20.615250905789544,-0.15375380143677525,17.49987355929979,0.01666666753590107
353,5908.0,-0.7595743590794504,-1.0679178391955793,0.32082068437337874,-1.290922913515754,-2.818124845477193,-9.31374373321533,-19.85637249277152,-3.194219073852857,15.46303772426841,0.01666666753590107
354,5925.0,-0.7853961980782449,-1.2778064980395138,-0.005987257716059685,-1.332971080172248,-2.980331861822307,-9.648183777618408,-15.387347275433621,-4.427175794519586,13.03366579499452,0.01666666753590107
355,5942.0,-0.8484446287959814,-1.6492441477112472,-0.6772106947779655,-1.418563789522834,-3.3131260387144983,-10.324845021820067,-5.6407996647405945,-4.4921155256007745,12.456276607281138,0.01666666753590107
356,5958.0,-0.7781720920436084,-1.7006278595983981,-0.8207663482755422,-1.3631978761317207,-3.3587655078612264,-10.468497121429444,2.5850712140462084,-2.1522564270510753,14.147018219331509,0.01666666753590107
357,5975.0,-0.9039134180396795,-1.7700412953034041,-0.7886480394810438,-1.4957768295954912,-3.4382229293271895,-10.434230110168457,5.729327881007245,1.9493061070440203,16.05793866324006,0.01666666753590107
358,5992.0,-1.0176156389348208,-1.827068127644062,-0.7714736173182726,-1.606957569188997,-3.5049614467345176,-10.415525409698486,1.626914134586837,4.326587171725985,15.76788272730442,0.01666666753590107
359,6008.0,-1.025933458490297,-1.8418499555818735,-1.2635182988375424,-1.612045174651593,-3.520224336187541,-10.907683488464356,0.8034532413977299,3.1723438989320103,12.313196097000418,0.01666666753590107
360,6025.0,-0.9558927577324211,-1.671363332799822,-1.6254215197056532,-1.5357300332667305,-3.353228770391643,-11.269357576751709,2.7596410308348025,3.8504119960020837,7.694672552882925,0.01666666753590107
361,6043.0,-0.8249751981422304,-1.5424718722097575,-1.8069114748001098,-1.3985123871516436,-3.233219558306783,-11.449670889282226,5.499855296122796,3.1201202725380925,7.971735761469907,0.01666666753590107
362,6059.0,-0.7069177046470344,-1.3842561174578965,-2.1246125658482313,-1.277455456112139,-3.0922607894346115,-11.764508407592773,8.915735352883724,2.603586789669055,8.651091135755117,0.01666666753590107
363,6076.0,-1.1899300616659223,-1.2853025528833268,-1.9687685086637734,-1.7501606829218566,-3.020584377233684,-11.604396171569823,6.673051703533322,8.573203927328523,6.771614321464368,0.01666666753590107
364,6092.0,-1.28773036455214,-1.2012525429300964,-2.1993945428490638,-1.8179465904902665,-2.948608835955709,-11.834538806152343,3.81218171967023,17.216178237028725,4.9850238110175615,0.01666666753590107
365,6109.0,-0.6124035838246346,-0.9094951636947691,-2.8810341599851843,-1.0983393174769356,-2.6674397784911092,-12.516587004089354,5.844492127489653,18.603471619728357,4.7498945488398725,0.01666666753590107
366,6126.0,-0.018620200524292887,-0.28195070936158295,-2.594099963122606,-0.4442733514430001,-2.067991537829488,-12.227337516021727,11.727948776646937,18.8578346946088,6.683714055714535,0.01666666753590107
367,6143.0,0.16658862896282225,0.027954905504733323,-2.337238832962513,-0.22041545968577264,-1.7943042144224046,-11.965322071838377,17.068207311302277,14.045250962019258,7.856111757878993,0.01666666753590107
368,6159.0,0.34706337913274765,0.26063728769794103,-1.5597048926919699,-0.01645940576121211,-1.603815544836223,-11.180622477722167,16.097295920784966,7.7912172768010555,9.176360857459423,0.01666666753590107
369,6177.0,0.3894715016754344,0.6385606461271643,-1.2121914317041635,0.031274953305535015,-1.2723683986388146,-10.824185705566405,12.589410654583027,-0.43184393963763945,11.710116860271325,0.01666666753590107
370,6193.0,0.4410840173497796,0.8212887647144496,-1.0432155057460069,0.06688873953297735,-1.1177926078245044,-10.648960071563721,10.94176668242179,-7.185720153105779,13.04930436687291,0.01666666753590107
371,6209.0,0.5321501896753907,1.1250986930541693,-0.6781798320710659,0.1265940703678876,-0.8397659400388598,-10.277409901428221,10.789607996960477,-12.017033971946788,14.220753526516383,0.01666666753590107
372,6226.0,0.44996889620348807,1.267988576119393,-0.2826777084618807,-0.014214878237433731,-0.7360672267638146,-9.871143807220458,13.990001561823025,-16.404859339110637,14.213066148605533,0.01666666753590107
373,6242.0,0.48766087694447485,1.3622814554065465,0.012688216659426689,-0.02543769851941615,-0.6775589236937463,-9.565733457946777,15.967920185073874,-16.807705603905283,13.857118523973135,0.01666666753590107
374,6259.0,0.5208803519139066,1.4345615325890482,0.5370908609479665,-0.041149610381573436,-0.6443393756590783,-9.030180474090576,16.63340088383385,-15.752536999786694,14.74481601228489,0.01666666753590107
375,6276.0,0.30690679837651547,1.2575590981721878,1.1252665969669817,-0.31019802194163204,-0.8680474471494555,-8.428338031768797,11.799122762893054,-9.896557347886723,15.21865184821806,0.01666666753590107
376,6292.0,0.24166392635442316,1.1775946039669214,1.377404205736518,-0.4020755106501281,-0.9642644263669848,-8.170811715698242,2.99770087105325,-4.447308203985022,16.589868673158772,0.01666666753590107
377,6309.0,0.26210421844534576,1.0988267722003162,1.55364281617403,-0.39758645560257133,-1.0369884479247033,-7.994837893676757,-5.216848969184257,-0.6033907573882682,17.80261827916602,0.01666666753590107
378,6325.0,0.20750570923015474,0.9956836469814181,1.8240905731379984,-0.4629780153803527,-1.1034275439940393,-7.731774986267089,-13.999773001204375,0.07385406176298095,16.330031201658564,0.01666666753590107
379,6342.0,0.30024069155082106,0.9194847889199852,1.8626421298503875,-0.38322124564163385,-1.1370960048399865,-7.701548190307617,-17.72469606601993,-3.319157321037553,14.071097251612233,0.01666666753590107
380,6359.0,0.1530426629628986,0.7934301591910421,2.0257102930694817,-0.5473735508356243,-1.2138602416992186,-7.547720733642578,-19.54900885747907,-4.37134967022531,10.592063558238076,0.01666666753590107
381,6376.0,0.09787862881943583,0.5963977670498192,2.050105314135551,-0.625634090667218,-1.3407527835570274,-7.536049585071206,-21.001716669407205,-5.488346427371325,7.151293011481152,0.01666666753590107
382,6393.0,0.04996047415100038,0.4300637339025736,1.9867863959133625,-0.6895293474726378,-1.4522326522275804,-7.6090721511840815,-21.905251658856926,-4.489841926380807,4.461046275726856,0.01666666753590107
383,6409.0,0.003746054660528898,0.10467091930806637,1.6896815181702374,-0.7469901873163879,-1.7215806312561035,-7.91612851409912,-21.876554619059117,-2.919819425598768,3.178191181191776,0.01666666753590107
384,6425.0,-0.004462824627757072,-0.15778730020672083,1.4102560895025729,-0.7628518463801592,-1.9128173427306114,-8.208221116638184,-20.10167873681253,-1.3269162179840097,2.2988980272103103,0.01666666753590107
385,6442.0,-0.02757840034253895,-0.29001579626500607,1.396225226062536,-0.7903850924067198,-1.9963152717590331,-8.230666757202147,-18.187400401153273,-2.071232881134976,0.08514759279261193,0.01666666753590107
386,6459.0,-0.19820961922705171,-0.5919133151121437,1.5238129105776548,-0.9681545656733215,-2.2559362220212815,-8.109909210968016,-15.67162657887872,-4.167286669713778,-3.4717644511065595,0.01666666753590107
387,6476.0,-0.2877154834333807,-0.8582293790988623,1.5168711286157368,-1.073349874181673,-2.47560437047109,-8.123526232910155,-13.541585982433348,-6.932019179688002,-8.449247946723839,0.01666666753590107
388,6492.0,-0.344386926465109,-1.0466644771561027,1.3835440236657857,-1.146522589354962,-2.6315267535887656,-8.26089355316162,-13.961507720153024,-9.155576591815075,-9.776532994923029,0.01666666753590107
389,6509.0,-0.20387999301366508,-1.173833790128678,0.9678922614753246,-1.0257650431208312,-2.725199893542379,-8.680327756500244,-14.007924831978784,-9.32133930655576,-9.989136293218015,0.01666666753590107
390,6525.0,-0.33765966403670605,-1.4025626123905182,0.5449982730716466,-1.184829815917462,-2.911947769165039,-9.107692752838135,-12.486472873601764,-9.421238507130013,-11.152056254135434,0.01666666753590107
391,6542.0,-0.1882539693366736,-1.4706012526109813,0.3572872515052557,-1.0559917660150677,-2.954145281164348,-9.297582872009277,-9.779736353643765,-10.262004911880965,-12.606488688828996,0.01666666753590107
392,6559.0,-0.13397373229041695,-1.4874914510048924,0.01630056193768978,-1.026962070885673,-2.9547439777098594,-9.638756608581543,-4.832315722214886,-13.798450614097309,-12.89495148314073,0.01666666753590107
393,6576.0,-0.10840119187757372,-1.464266204370558,-0.1868295625567436,-1.0473127119317651,-2.929903989355266,-9.83777462158203,0.6138234444586396,-17.431231865688453,-14.888420739584406,0.01666666753590107
394,6592.0,-0.05796192123368382,-1.4076801015347242,-0.3007721680790186,-1.0351922121576964,-2.8802244510374964,-9.9468604347229,1.5339895176505192,-17.47540611414551,-16.56796937913242,0.01666666753590107
395,6609.0,0.1731482432067394,-1.2351723481886088,-0.9485510166674852,-0.8417108635615557,-2.7165209125243126,-10.589404305267333,2.402860123123663,-16.72521057910987,-15.40276984257951,0.01666666753590107
396,6626.0,0.42421252365633844,-1.0238362670153378,-1.7449714437156916,-0.6304225670527667,-2.5252840549193323,-11.378443389892578,6.326319711638564,-11.533185078690376,-12.698306921841478,0.01666666753590107
397,6642.0,0.5719247123114765,-0.9446211298726499,-1.8906828139424323,-0.5051758196406066,-2.468122490283102,-11.5182049118042,9.112571159479735,-10.96925819383109,-10.724749374375682,0.01666666753590107
398,6659.0,0.8477879184529185,-0.7882258685462177,-1.8925176281541585,-0.2543831226740032,-2.342875815936178,-11.512219407653808,13.49700875281526,-12.641590738520986,-10.327678888297928,0.01666666753590107
399,6676.0,0.3860542040452361,-0.8804650301739573,-1.385436121022701,-0.7532748936090617,-2.4881739291869103,-10.992079096984863,12.852786164073303,-9.728970118863998,-12.845608489029265,0.01666666753590107
400,6692.0,0.03974164327979088,-0.9357457494996487,-1.4960194792449473,-1.1079160875849425,-2.5730184505186973,-11.09667578201294,7.589755724589652,-0.922924402399507,-14.816341753273262,0.01666666753590107
401,6709.0,0.29826478836797177,-0.9659881814196706,-2.7411358599513767,-0.83108644756414,-2.621052121325582,-12.34091245727539,2.887773245230126,9.662196481990662,-13.81969250241605,0.01666666753590107
402,6726.0,0.44757820167466994,-0.6818880389392376,-3.029713147845864,-0.6265319893550128,-2.3350945144101978,-12.636147449493407,-4.591016664782559,20.28820437285641,-14.001546289067639,0.01666666753590107
403,6742.0,0.36084837805293496,-0.501016069612652,-3.2132600354701277,-0.6512221939753741,-2.153883522387594,-12.826486481475829,2.1087421456225703,22.27753794975764,-14.685234564607574,0.01666666753590107
404,6759.0,0.8777451767560094,-0.1659051402106881,-3.3728310042232272,-0.07766118569895625,-1.839644554492086,-12.988244731140137,11.343722461303393,17.51276724890548,-14.75337082422033,0.01666666753590107
405,6776.0,0.48749205971620974,-0.048828620576858515,-2.4052730892688037,-0.40671427636668084,-1.781135959161073,-12.016198857116699,19.111209099606885,13.242473215658272,-17.57585087607972,0.01666666753590107
406,6792.0,0.3008538550131023,0.05832461706623435,-2.045476485291123,-0.5541072430048137,-1.7290622191831468,-11.649885418590902,21.52435591450741,11.81466229702848,-19.147643036187027,0.01666666753590107
407,6809.0,0.07329027713835239,0.2605895030334592,-1.940951111933589,-0.740555770354718,-1.5887021468564868,-11.53720888748169,24.148628999294907,14.080668054186713,-19.43995293454877,0.01666666753590107
408,6826.0,0.0254150848288089,0.7101641392223537,-1.2757710466891525,-0.7245446198176592,-1.2244843654356896,-10.860398590198159,23.707216071351784,16.17776067184959,-16.63838692192796,0.01666666753590107
409,6842.0,0.037130803194269535,0.95566640163064,-0.925852278125286,-0.6655874039363116,-1.041327792303264,-10.501267756652831,23.190932317274278,15.008449361416334,-14.10203117836322,0.01666666753590107
410,6859.0,-0.17840294886454938,1.2275355696998536,-0.012516951745748519,-0.8382691256098449,-0.8258494967587292,-9.579050620159506,19.739371352289204,13.931734925560939,-11.725662370822276,0.01666666753590107
411,6876.0,-0.4318902186773717,1.3670679590307175,0.20050795929729937,-1.034892973482795,-0.7450453368589282,-9.356989000701903,14.22510862588591,16.25552579064477,-8.575961616205914,0.01666666753590107
412,6892.0,-0.4274525284908712,1.510325798625499,0.09520458730459212,-0.9834176377894356,-0.6365580741330981,-9.457395832824707,13.14692228426438,18.20011992093513,-5.6183198046347895,0.01666666753590107
413,6909.0,-0.439935614499636,1.607827118565142,0.08830196830928325,-0.945559324038215,-0.5713162250243127,-9.459790034484863,11.703771614532384,20.270090711177534,-2.296166378429128,0.01666666753590107
414,6926.0,-0.3551925077157095,1.758850769855827,0.314695479491353,-0.7930785692743957,-0.45310237192362546,-9.229197902569174,7.88629863268951,20.60181763123942,4.153485418722121,0.01666666753590107
415,6942.0,-0.3298158917337656,1.80288718772009,0.42101825765967366,-0.7230481707148253,-0.4228757220946252,-9.121609049987793,3.2281141010524568,17.434021997964404,8.45020673452858,0.01666666753590107
416,6959.0,-0.2368947391912341,1.8079741355955599,0.8414671909987926,-0.5995971841456368,-0.4173389846250415,-8.702474121856689,-2.5594140353158785,11.485667452634598,10.98823587443997,0.01666666753590107
417,6975.0,-0.34196726157013324,1.7044531169749795,1.1467401776283979,-0.6928214478205889,-0.5033806067869067,-8.40170253829956,-6.715784355188684,0.9493669461626825,11.188239181263576,0.01666666753590107
418,6992.0,-0.4217245427655056,1.5968213020347057,1.413659760466218,-0.7848485376002267,-0.5922654895506799,-8.138639630889893,-7.537973499170846,-5.715244884712325,10.167837947567644,0.01666666753590107
419,7009.0,-0.6183320240255444,1.322794955931604,1.8416046025186776,-1.007958131740801,-0.8460507193967699,-7.714266802105307,-7.98715064465298,-10.534321138994788,9.519555665137762,0.01666666753590107
420,7026.0,-0.7916609575614333,1.1169067649006843,2.006135824027657,-1.228823271422833,-1.021875049944967,-7.554454425811767,-9.11829400423056,-13.08990215752582,9.895258758170776,0.01666666753590107
421,7042.0,-0.9370847430184484,0.9566616962783038,2.0292934122532604,-1.4119797714900224,-1.1580451232358813,-7.5348518997192375,-9.288153978699608,-12.668454726300292,8.209951415378795,0.01666666753590107
422,7059.0,-1.1109056247897446,0.7068135136201977,2.12625565688014,-1.6184797012111172,-1.3832497168943285,-7.441627672576904,-9.685127134581688,-10.49937874497465,5.102002326498254,0.01666666753590107
423,7076.0,-1.0366083625659346,0.5323053802371025,2.120575273156166,-1.5768804108332841,-1.5218142841063438,-7.453299990192055,-11.273403956250819,-8.328892329585397,1.3396762920140628,0.01666666753590107
424,7092.0,-0.8784747331395745,0.44378158587068317,1.9924743784219026,-1.4399619303278623,-1.5807712077267466,-7.586476873016357,-12.284176330764327,-8.553455289117077,0.49931382891949483,0.01666666753590107
425,7109.0,-0.6138174692105501,0.28568638875856994,1.8559686434358358,-1.1990453882746397,-1.7051203487120568,-7.728632596588135,-14.460505972988523,-10.217396092637964,2.0177418277631975,0.01666666753590107
426,7126.0,-0.38596937530599534,-0.007468582314997911,1.480783331668377,-1.0161883095454425,-1.9436425429746507,-8.112153775024414,-17.648858768117986,-15.713458072450464,4.960614422471228,0.01666666753590107
427,7142.0,-0.3617622049622237,-0.20203852986544368,1.2395569930136203,-1.0371375010065733,-2.092083192034811,-8.359504734039307,-18.344651846414475,-17.348318491806378,5.3298040763569885,0.01666666753590107
428,7159.0,-0.33403204812407494,-0.6827519622921944,0.6162544140338897,-1.0579370548639446,-2.527229343768209,-8.988132307434082,-16.830504775354786,-19.276065960508898,5.927828973100271,0.01666666753590107
429,7176.0,-0.2207634694058448,-0.9700186059795319,-0.08952186549305916,-1.0133451950740069,-2.7650034961424765,-9.69786346206665,-10.283995559687467,-19.03012621642237,8.088728364215763,0.01666666753590107
430,7192.0,-0.150104563684389,-1.0709219894476234,-0.33919396093189713,-0.995089261284843,-2.849548596136272,-9.946111662182211,-1.2984153326814274,-19.511951666137165,9.676619280196789,0.01666666753590107
431,7209.0,-0.17308358047269284,-1.1982722119450568,-0.42076749776899813,-1.0718533520136029,-2.9797331652767953,-10.022277202495932,4.710565465825293,-18.743176309011798,10.412309200982618,0.01666666753590107
432,7226.0,-0.3878025090172887,-1.3283487906664608,-0.42549920246601103,-1.3464384279780088,-3.1233855571471154,-10.018686484527587,4.759509320757135,-12.713146361586977,10.82081854637285,0.01666666753590107
433,7242.0,-0.2912708378273994,-1.2800260737851261,-0.8274310668617486,-1.2791015793513505,-3.0816366656981407,-10.416423235321044,2.6427310306892213,-6.636440608921585,11.22535784430801,0.01666666753590107
434,7259.0,-0.22605872626975176,-1.1658071355395019,-1.316698100361228,-1.2310677624139934,-2.968809912463277,-10.90364327316284,1.1831627206266322,-3.1691027607274274,10.569250726410232,0.01666666753590107
435,7276.0,-0.2717990254424512,-1.1680636822946369,-1.226836627650261,-1.2907733124446124,-2.9731492568418383,-10.811916006579995,1.9764616585235217,-3.734808056091856,3.1713895934389122,0.01666666753590107
436,7292.0,-0.35808234740570183,-1.1450881726376712,-1.1831886245816945,-1.3868405809931457,-2.9607293357297775,-10.765228489685057,7.026876846881139,-4.319052192410992,-3.820828312272643,0.01666666753590107
437,7308.0,-0.43317470552995796,-1.0967373987056315,-1.3301584704369305,-1.4713858271174132,-2.940079492541402,-10.905887837219238,13.508427975333875,-4.552006039338032,-7.471439772692106,0.01666666753590107
438,7326.0,-0.7884774321544915,-0.949266617590934,-1.5481611698925495,-1.8116617380671203,-2.8437128757201133,-11.11553012008667,13.834544748766243,14.129625996383718,-6.923328190855983,0.01666666753590107
439,7342.0,-0.913945128840953,-0.9570143091082572,-2.131593510776758,-1.875407284203544,-2.8805235801145432,-11.699565687561034,7.363466434745251,31.280490549474194,-2.262779346549048,0.01666666753590107
440,7359.0,-0.02104731807336211,-0.5632433932058513,-3.349414472800493,-0.8958796030573546,-2.4971521854124963,-12.923601286315916,1.8142583261140588,38.466594046947144,4.894379089881853,0.01666666753590107
441,7376.0,0.2558734342969954,-0.19845190355032682,-3.430318147552013,-0.4849748161982745,-2.1324853450499472,-13.015778050231933,1.0467689655433552,40.24651743899037,8.694090591674932,0.01666666753590107
442,7392.0,0.6472135428559035,0.1690989678159356,-3.355507528978586,-0.018703969817608593,-1.774402413122356,-12.944550550842285,8.70060744591677,21.96480749332485,10.50030338183354,0.01666666753590107
443,7409.0,1.3498843306481838,0.8572278008408843,-2.4378730441004035,0.7097318122196942,-1.1201868094846605,-12.021735448455809,19.960162339851742,3.597400444803655,10.13678278495889,0.01666666753590107
444,7426.0,1.3928408443212508,0.8122074865058064,-1.1549790136635303,0.7226006461430341,-1.244685441943258,-10.720037933349609,26.77404614076838,-15.070308677181847,14.163985263003466,0.01666666753590107
445,7442.0,1.1333839985795318,0.973495780570805,-0.9551713115900754,0.40656610006764526,-1.1457748397275804,-10.50246485748291,25.296003449661377,-22.024600676866438,17.700956036012258,0.01666666753590107
446,7459.0,0.7525324046786874,0.9258978708326816,-1.0419605372488498,-0.042646059484407306,-1.2502220332823692,-10.570998880004883,23.526053841353658,-23.430919551499137,21.437214653529097,0.01666666753590107
447,7475.0,0.6422160268295556,1.0775530980251729,-0.6333961029708385,-0.240616536193341,-1.1643300487242638,-10.139444030761718,20.265581078778034,-17.371380625538926,24.78141358249803,0.01666666753590107
448,7492.0,0.6575172755315899,1.2862158683359621,-0.395907197278738,-0.2777266619257629,-1.0004768726073205,-9.886257205200195,20.828415987143764,-12.949810708780626,26.051417249222908,0.01666666753590107
449,7509.0,0.7866573771204799,1.3470209040410817,0.3917220205485821,-0.19198424190618096,-0.9840167361937463,-9.083451461029052,19.467924266747264,-9.632061687372566,26.48048290269394,0.01666666753590107
450,7526.0,0.7689352579470723,1.415579476482421,1.3274930506199598,-0.25782478756047783,-0.959027110235393,-8.131755716595054,11.434826939547609,-6.481610038834327,26.273849189733543,0.01666666753590107
451,7542.0,0.7565543536711484,1.406823338574916,1.4810843604415653,-0.29987295421697197,-0.9783303611204027,-7.972242615509033,2.9189054609104557,-4.177288201092792,25.778462399421688,0.01666666753590107
452,7559.0,0.6410397495917975,1.3321173494197427,1.553354062360525,-0.4394848385248333,-1.0446198195859788,-7.899369102478027,-3.6512086750850155,-2.6775938103168473,24.008533281681483,0.01666666753590107
453,7575.0,0.3753000241883099,1.2321546078026293,1.7465303635954856,-0.7311285282526164,-1.1158473189756273,-7.710376224407553,-7.823001562103709,-2.091702317747269,20.977437054455102,0.01666666753590107
454,7593.0,0.21392843575403092,1.1372352671802044,1.941105425712466,-0.9082995972346514,-1.1836332996092735,-7.52063632736206,-9.72177451457339,-1.5720795616609762,16.81580108561904,0.01666666753590107
455,7609.0,-0.06333944955356419,1.0416494254730642,2.4031004214048384,-1.1970999532952904,-1.2481269606992602,-7.064840186309814,-11.818861155820745,-0.6336482286071602,12.65447674416386,0.01666666753590107
456,7626.0,-0.251400453601405,0.9431868592858313,2.540961662653088,-1.3913297091059387,-1.2982557040892542,-6.937797860717773,-14.850482453839572,2.0961942343436104,7.504357015623336,0.01666666753590107
457,7643.0,-0.34792642570286986,0.8563628545746207,2.508741062527895,-1.4817108948420732,-1.344344086047262,-6.980294940185546,-16.630948845921814,5.617152696060364,3.7807560192990013,0.01666666753590107
458,7659.0,-0.38708683502860364,0.7321037299603224,2.46965934446156,-1.5037075495295225,-1.424100928851217,-7.031620638275146,-18.757179904357614,9.02056253494414,-0.19354397558118366,0.01666666753590107
459,7675.0,-0.4660190635766834,0.5385071574866771,2.5401222892194983,-1.5445586153559385,-1.5523402091428637,-6.980145302581787,-21.45052156957957,12.570551648510975,-5.4995419611946215,0.01666666753590107
460,7692.0,-0.42197672742828723,0.4880534199260175,2.571872933745384,-1.462706919164583,-1.5481505023680626,-6.964433354187011,-23.523137350578065,14.780039297834644,-7.853362606738062,0.01666666753590107
461,7709.0,-0.3701065471984446,0.3430849770210683,2.383072363376617,-1.3666393583551049,-1.6349401664182543,-7.170185059356689,-25.036811431037734,16.763118129003438,-9.965964022685101,0.01666666753590107
462,7726.0,-0.38891843436993656,0.02369710192978382,2.05989956291914,-1.3172591683100907,-1.8712180888853966,-7.517045024871826,-26.814376700270014,19.176394717498194,-13.79127379282692,0.01666666753590107
463,7742.0,-0.39883061044476925,-0.16830957100391386,1.8071604811251163,-1.2717691906366497,-1.9991580939695237,-7.7874395903438325,-26.749355006918783,19.42895803753234,-16.10746436491182,0.01666666753590107
464,7759.0,-0.2897330338008702,-0.40891967745646834,1.3460703253179789,-1.1079160875849425,-2.1779753227233885,-8.264933768463134,-25.4067395991275,17.508349824059774,-18.403779086511985,0.01666666753590107
465,7776.0,-0.3221378313865512,-0.5455724196977914,1.0343985775619744,-1.079484942870587,-2.239925144549459,-8.595034322357177,-22.07579123714839,10.41075533294644,-22.880797332726093,0.01666666753590107
466,7792.0,-0.3407666170760989,-0.8779147611692547,0.7329097856462001,-1.0702074114374815,-2.5240868079587817,-8.90702872619629,-20.054779242876638,3.9487641587293285,-25.67352166546632,0.01666666753590107
467,7809.0,-0.35112010717764497,-1.095885750312358,0.336344416719675,-1.0607802424006163,-2.7012578769408164,-9.311948081970215,-15.892685651366184,3.0719563398321013,-29.29140627447767,0.01666666753590107
468,7826.0,-0.38239012857973576,-1.3608897087872027,-0.20198446159064767,-1.0643715448908506,-2.9297544978819787,-9.858274973297119,-10.548766989089364,3.1044575815541955,-30.796855099629347,0.01666666753590107
469,7842.0,-0.2681343654550612,-1.4733274627044797,-0.49156069739460945,-0.930146614318341,-3.022230537005514,-10.152462502288818,-10.742769974727114,1.3387940236723677,-27.850951821920535,0.01666666753590107
470,7859.0,0.07935352270007133,-1.6787443829618394,-0.8880535856068134,-0.5681732508234679,-3.1958100112363694,-10.554987071880698,-17.11453306934789,3.1319004278656606,-22.26751635469794,0.01666666753590107
471,7876.0,0.23345760434940455,-1.5019925623051822,-2.0122581063002345,-0.3951921078119427,-2.9658170142576097,-11.688641557964681,-15.297699335029911,1.432674013318841,-15.551387928729817,0.01666666753590107
472,7892.0,0.6665098525434732,-1.3999176508396862,-2.661394799238443,0.04324599813893437,-2.838176284381002,-12.341959920501708,-5.456650080754234,-2.4884838014457658,-10.88129816392602,0.01666666753590107
473,7909.0,0.4898734018947929,-1.3357406544834374,-2.567111418431997,-0.13856376349441707,-2.773682477160543,-12.247388954925537,3.618795158605074,-5.762791112185253,-8.097710062974329,0.01666666753590107
474,7926.0,0.3305619608607143,-2.065894273289293,-1.6432202112466097,-0.3389283687982708,-3.529202592413127,-11.316942334747313,8.11879485694216,-20.972942789981232,-12.967489799673558,0.01666666753590107
475,7942.0,-0.21666947809047996,-2.368820112270862,-1.3539783219635486,-0.9350847283076494,-3.851372499438375,-11.021258429718017,4.501849825828512,-20.1135752187994,-19.26032920466119,0.01666666753590107
476,7958.0,-0.9234755390565842,-3.1238708564460276,-2.3769606024980545,-1.6721995644282548,-4.616170292254537,-12.04044014892578,-0.4737258592153643,-9.032925177341863,-23.548315135406025,0.01666666753590107
477,7976.0,-0.36952772439718246,-2.478438278722763,-4.160667142799497,-1.1119563759516924,-3.9643487441465255,-13.825616761779784,-5.055973681681538,4.041986849389894,-20.85606800799856,0.01666666753590107
478,7992.0,-0.05445318246036768,-2.0013656870163974,-4.656726320657134,-0.7722790154170245,-3.4896984111510214,-14.323161794281004,5.563472104939118,7.723673536098799,-20.317890082536575,0.01666666753590107
479,8009.0,-0.04858282912224531,-2.055870161272585,-4.356182700636983,-0.7390593943171203,-3.580528290502727,-14.018948545837402,19.486553607708473,6.4324979904941735,-24.335914493883948,0.01666666753590107
480,8026.0,0.15262801774740217,-1.5095213503748177,-3.1508506333082913,-0.5120591494135558,-3.129819827978313,-12.799850988006591,32.25998748777821,-0.3869457178089871,-26.542712756221928,0.01666666753590107
481,8042.0,0.20308774665743112,-1.177973958673328,-2.78271933170557,-0.4547480202388018,-2.889202707263082,-12.416479447174071,35.393138694035635,-2.420437828396102,-24.497702892301334,0.01666666753590107
482,8059.0,0.2615854552682489,-0.3537864037774503,-2.5687539249420164,-0.38486725928299126,-2.187103070422262,-12.18080022125244,34.219910270113374,2.559779450436474,-18.695069579140103,0.01666666753590107
483,8075.0,0.3537357695687562,0.3539775424353778,-2.3875480474859474,-0.27039434627629816,-1.5658074473507702,-11.98417640991211,32.36311651405624,8.70389874332307,-16.776259412966542,0.01666666753590107
484,8092.0,0.42906580890640617,0.639668168977648,-2.1692121705532075,-0.16130867926590145,-1.3636471908017993,-11.750890801128744,32.7680989205138,11.441279760765978,-15.001281077882405,0.01666666753590107
485,8109.0,0.5532285604741424,1.1858540443986654,-1.4218594335347414,0.012420615231804549,-0.9322419791623949,-10.981753517803549,33.74142136780813,11.201388149189498,-12.334015367364263,0.01666666753590107
486,8126.0,0.6655408613808452,1.6181978520624338,-0.45695115630626676,0.15637199004869906,-0.5828380282528698,-9.999832146453857,31.376201990313586,9.666399609651158,-8.10469137007973,0.01666666753590107
487,8142.0,0.622488632248342,1.7038120425924659,-0.22280805391073225,0.14036080297902226,-0.5722139045163989,-9.74948843536377,27.994174058626534,9.04524598483092,-4.373791889740413,0.01666666753590107
488,8159.0,0.6533239154949784,1.771875232732296,-0.13766191928386687,0.20126330770924686,-0.5882252742491663,-9.645340663146973,22.69254878146408,7.965273548741429,2.9625390572060244,0.01666666753590107
489,8176.0,0.786809206681326,1.9168140111513434,0.26234803713858124,0.3482073980687186,-0.4945519881650805,-9.233089064788818,19.19027366189166,5.837176141114924,8.379586847378878,0.01666666753590107
490,8192.0,0.7661429238148033,1.9302993695378303,0.7021212641507387,0.3327946883488446,-0.5211876277647912,-8.783278427886962,13.659282094663714,3.880648816570907,13.074471906417115,0.01666666753590107
491,8209.0,0.7715154106333851,1.9973811474248766,1.3041098369449375,0.3333932387638837,-0.476895043182373,-8.175151206207275,1.3493032302057844,2.0212510508927033,19.89246321234587,0.01666666753590107
492,8225.0,0.7946452340692282,1.9990622323796152,1.5354998412400482,0.34521460946090515,-0.46552200077474115,-7.9457567596435545,-6.799636880081637,0.36649663836207136,24.19049293626521,0.01666666753590107
493,8242.0,0.8600687233552337,2.0173169971249996,1.655500431627035,0.39250009224899113,-0.41958354868143793,-7.832032180786133,-12.586087767551815,-1.9026836626563364,27.21493997433458,0.01666666753590107
494,8259.0,0.8137025473691523,1.9699474893152713,2.1865911753773686,0.3085533600071445,-0.40970761296376584,-7.313537883758545,-19.099305787430847,-6.2836271873445755,29.24637825237436,0.01666666753590107
495,8276.0,0.7614317504491657,1.7760349827602504,2.7610978670060633,0.2166759078312665,-0.5461769614621996,-6.751050131225585,-23.96487300495947,-11.18109565716539,28.287260891006365,0.01666666753590107
496,8292.0,0.6243335294626653,1.6619387941114603,3.016240502810478,0.030975678098015484,-0.5921158519469201,-6.509385401153564,-27.00132580804243,-14.545002243210751,24.700713189907038,0.01666666753590107
497,8309.0,0.44477929167114194,1.2643733082316815,3.1395085705608126,-0.22161256051585076,-0.8952816371642053,-6.40314270248413,-26.718173485810382,-18.637158112714857,18.48371108282135,0.01666666753590107
498,8326.0,0.3628380905654281,1.1884024137072264,3.0250065775901076,-0.35748357779495415,-0.9020151832029223,-6.5291375648498535,-25.905181191545644,-16.631718949750734,16.380588261895,0.01666666753590107
499,8342.0,0.30282829689122737,1.0879206166520714,2.917190345993638,-0.4650729418329894,-0.9362821944639086,-6.647500909423828,-24.623183712638223,-14.659641845787537,15.580269383635216,0.01666666753590107
500,8359.0,0.1343217420104891,0.7853256170600652,2.821817416384816,-0.6853395676326006,-1.1474209994994102,-6.757484548187255,-28.616638225993768,-9.262157424944892,14.111909339450351,0.01666666753590107
501,8376.0,-0.2596885356057435,0.34720848669186233,2.6661726811647415,-1.1020802210383116,-1.5059526981078086,-6.92687431564331,-32.61338830562384,-3.7549327815944755,11.241218397334427,0.01666666753590107
502,8393.0,-0.2197473511658609,0.1269774436622858,2.3637778803199527,-1.0696088610224426,-1.6400279910765587,-7.244854223632812,-33.322495130159986,1.6592516652122622,9.590873939130097,0.01666666753590107
503,8409.0,-0.07173720247745513,-0.0895525528922677,1.563212608551979,-0.9096461895380169,-1.751657351220399,-8.065167567443847,-26.20698846794829,8.45614899910649,10.258294411614354,0.01666666753590107
504,8426.0,0.09344685691706836,-0.414162838806957,1.1797457906514406,-0.7214020840082317,-2.015169317571819,-8.460959029388427,-20.995557546323145,13.196132089687028,12.577325488620335,0.01666666753590107
505,8442.0,0.01817636574693024,-0.6402024219848215,1.0845704294413328,-0.7688372774653136,-2.1875519832335413,-8.56720172805786,-19.528323629577688,12.777246833173901,16.075155862590368,0.01666666753590107
506,8459.0,-0.16446480520926415,-0.9360590532325208,0.5129921924799681,-0.916080679564923,-2.4220339621946216,-9.151237295532226,-12.578093031128315,12.34672122676778,17.34102726486739,0.01666666753590107
507,8476.0,-0.37944793764799833,-1.7440365009531378,-0.12862521086931228,-1.1142008669428527,-3.1970071120664474,-9.79916811981201,-12.519763215616406,6.364657563449845,18.696319503758215,0.01666666753590107
508,8492.0,-0.42898368358090516,-1.9576647847168147,-0.05678454801738262,-1.158643235259503,-3.369688906805217,-9.733776486968994,-16.05208006847948,3.391131720077032,16.18571442713807,0.01666666753590107
509,8509.0,-1.0101891421958804,-2.198952644300461,-0.8565203832238912,-1.7268172898005694,-3.5576338832579553,-10.542118822479248,-12.157137373523028,11.169306750657947,16.16864066176033,0.01666666753590107
510,8526.0,-0.6227296744626015,-2.3789029687374827,-1.8562573972493408,-1.3094779398493468,-3.710114601489156,-11.547833157348633,-7.828318864372564,15.485527829657968,17.93355642064975,0.01666666753590107
511,8543.0,-0.6808817845061421,-2.1985155680574477,-2.100674056378007,-1.3346170572809875,-3.507355648394674,-11.797578318023682,-7.74457562250633,15.274393022034536,18.96891576862801,0.01666666753590107
512,8559.0,-0.8439427873320877,-2.1567902036145328,-2.588921099179983,-1.451184787142463,-3.4410661899290975,-12.292130598449706,-1.962035231779397,16.496790270244425,18.27403110549113,0.01666666753590107
513,8577.0,-0.7053636070728302,-1.734883911073953,-3.1005040093839167,-1.2755102403284981,-3.0223801746092733,-12.805537216949462,5.524137045509015,18.827563296207302,19.551269650094344,0.01666666753590107
514,8592.0,-0.9854055602036416,-1.5950155677869915,-2.931334022158384,-1.5058025125147774,-2.8905495918273925,-12.638092738342284,1.4349952104195873,25.72674762212094,19.085799088347144,0.01666666753590107
515,8609.0,-1.0534161433734,-1.3693091620862483,-3.7399908304452896,-1.4870977755121886,-2.6451437755309044,-13.453617678833007,-9.680438209716474,29.24354713896339,18.776961839741265,0.01666666753590107
516,8626.0,-0.4190901026086882,-0.8365249122910201,-4.846193245980143,-0.7809578868372365,-2.0860975417539476,-14.566172678264975,-8.207696599179044,32.1232607609729,17.67888427970936,0.01666666753590107
517,8643.0,-0.35063820541221646,-0.483047720593214,-5.079761178836226,-0.6392511491419747,-1.7188868621274829,-14.803946830639243,-0.6182279559779457,28.670497682693902,16.790100791319574,0.01666666753590107
518,8659.0,0.30452764815501865,0.16494973918199538,-4.70274222190082,0.08589267867784947,-1.0926536365233361,-14.425962828063964,14.105341258789737,16.613084486147645,14.628994786981691,0.01666666753590107
519,8676.0,0.5350810554955154,0.5103182970955967,-3.7931191940426823,0.34222191218463704,-0.7969697314940393,-13.510330330657958,25.50713825728481,7.149889834493538,12.188109720088097,0.01666666753590107
520,8693.0,0.591432034401223,0.6885359525211155,-3.409514428976178,0.39908421987965703,-0.6980594215393066,-13.115735969543456,37.30665034096056,-3.922116175682524,10.979491524755062,0.01666666753590107
521,8709.0,0.774868082062155,0.9578547054551542,-2.4500351910591123,0.5412398886525072,-0.5776008582517504,-12.132915603527426,50.07812054164392,-16.30451019982481,12.218431491134723,0.01666666753590107
522,8726.0,0.8520053900174797,1.0661126894697546,-0.9525327797800301,0.5635359281453304,-0.6000466449461876,-10.612298858642578,53.077724474154664,-22.42535861132235,15.895757528945397,0.01666666753590107
523,8742.0,0.9081789665296673,1.1948474981933832,-0.35227672986686226,0.5487217871068045,-0.6051343234740197,-9.98561657409668,53.819073206667845,-26.51740690534703,21.290409982603425,0.01666666753590107
524,8759.0,0.950652226730436,1.2822016642585397,0.6133288819760084,0.483928704678826,-0.6866869636535644,-8.98229644088745,47.89418804509985,-26.51366054658728,29.66513032019867,0.01666666753590107
525,8776.0,0.9646424658991396,1.2103411276623606,1.6501771907776592,0.41374874158073216,-0.8656532454892992,-7.918372493633627,40.253907703672326,-27.022892130346747,34.07575912768026,0.01666666753590107
526,8792.0,0.8424167468085885,1.3347325003542005,2.0615677883923054,0.20515395847223697,-0.8222583403989672,-7.483675839233398,28.53836425810542,-26.090351035039273,35.89849756053571,0.01666666753590107
527,8809.0,0.7205673867497593,1.2689736416339874,2.6759856346487996,-0.027831790581718086,-0.9448116840086876,-6.848164351543784,10.455863609772496,-23.710774599909364,36.91419791653538,0.01666666753590107
528,8826.0,0.6414606053523719,1.3233612115122377,2.861085012412071,-0.184951274529472,-0.8922887389585376,-6.656179305920005,-2.8043087604593935,-21.586720664271503,37.06794888984695,0.01666666753590107
529,8843.0,0.7205917905386537,1.3433167888261377,2.778213836979866,-0.17941482932083308,-0.8453026775084436,-6.738630210113525,-11.473223701740482,-20.549122721792774,36.84279170385748,0.01666666753590107
530,8859.0,0.455011493480578,1.1118076881960033,2.8320371971040963,-0.5360011660151184,-1.0133457065306604,-6.690147626495361,-19.25116138324774,-18.477459752183496,31.71196042953307,0.01666666753590107
531,8875.0,0.11740633611008525,0.9286996303804218,3.059905457013845,-0.9328400911860167,-1.1357492664061486,-6.469281938824057,-23.41483104090917,-16.189756191579427,24.93794615034909,0.01666666753590107
532,8893.0,-0.060421516280248756,0.7328720839843154,3.130821406236291,-1.1586431621942668,-1.2633901424132288,-6.407481608471274,-26.284108133866905,-13.008878184722898,17.152683090956995,0.01666666753590107
533,8909.0,-0.16961444305740295,0.5837834924094378,2.886790531554818,-1.3070836651239544,-1.3180078677855431,-6.666205609893798,-26.388541726276397,-4.596372386865496,10.323436487049705,0.01666666753590107
534,8926.0,-0.15041531013399362,0.5296273931995034,2.4486866990596057,-1.2966090328607707,-1.3061866432189941,-7.116166468921303,-24.381886789640014,1.0245768271563374,7.395553809692325,0.01666666753590107
535,8942.0,-0.11463424104824661,0.4149330925270915,2.363760344663262,-1.2539623157892374,-1.3590087173461913,-7.213579964447021,-24.057282049335157,7.10755504135733,4.4207643813230595,0.01666666753590107
536,8959.0,-0.30720234725698825,0.23866247951611874,2.423866146057844,-1.4125783219050616,-1.452382582092285,-7.172429623413086,-25.43965428073779,12.800814400905029,-1.535605497719462,0.01666666753590107
537,8976.0,-0.29344211745187637,0.10495908859968185,2.3967893385618924,-1.3628984913263469,-1.5212155875608324,-7.214777065277099,-26.704603607476862,14.593711737276697,-4.520619612554531,0.01666666753590107
538,8992.0,-0.21798976690880953,0.08303644899651408,2.2522604561179875,-1.2467797108087688,-1.4785690166197716,-7.374440388488769,-25.919859268072003,15.412116956458672,-8.641896847358634,0.01666666753590107
539,9009.0,-0.35641061480119823,-0.2408541443414986,2.0090169324219227,-1.3287811176691204,-1.7157447647094726,-7.637204020690917,-28.62263683963233,14.476474955268014,-12.822876765697817,0.01666666753590107
540,9026.0,-0.3555565552551299,-0.5302263820059597,1.447623404866457,-1.2888280235957355,-1.9333178405761717,-8.213159157562256,-30.804231703932963,12.053294592476739,-14.951847583764438,0.01666666753590107
541,9042.0,-0.3279987593092024,-0.7092386949405074,1.1359031417936085,-1.2282246479425578,-2.039410755511373,-8.538321086010336,-29.509282478811905,9.765978645108067,-17.720633811011066,0.01666666753590107
542,9059.0,-0.47059660062529146,-1.0406740045696496,0.6173498080551624,-1.3346170572809875,-2.2846669342041013,-9.07163009033203,-24.333559786167587,6.328951895789957,-21.873954024532637,0.01666666753590107
543,9076.0,-0.41453181824982166,-1.3137652617797255,0.02968319060206413,-1.258900429778546,-2.5100211654663083,-9.667037531170248,-17.21774918053783,3.6062416977974134,-24.247233025247795,0.01666666753590107
544,9092.0,-0.48570261901617046,-1.442156663893163,-0.19215689505934713,-1.3136677927546203,-2.6101286493163554,-9.893739085388184,-9.62946194661973,3.410837669606165,-26.692164125450976,0.01666666753590107
545,9109.0,-0.5776509810037911,-1.703690169778466,-0.5689093100130558,-1.3801068888239563,-2.8592753326416016,-10.274117874145507,-3.4868965217693115,5.594477748676391,-28.60163230038725,0.01666666753590107
546,9126.0,-0.4271368136052042,-1.816506401619315,-1.3334750476390123,-1.2036841539911924,-2.971503316265717,-11.040860955810546,-1.8174258263416523,8.296615416888857,-26.726147731666373,0.01666666753590107
547,9143.0,-0.17809804763384163,-1.7494417209975421,-1.8839549669921396,-0.9238618349604308,-2.9080570453368124,-11.5933229888916,1.3086459955627545,9.394167052354668,-21.739103892201783,0.01666666753590107
548,9158.0,0.35337774991132315,-1.558757090447843,-2.7604133918732403,-0.3724471920404583,-2.727743805871531,-12.470049709320067,2.2146591697424274,0.19685689747311752,-17.456792141109933,0.01666666753590107
549,9176.0,0.7481010711677372,-1.5543933422803877,-2.550755911436677,0.016760142273455857,-2.745700245257467,-12.25726445225179,11.512355563042776,-9.638783447289505,-13.218407897891378,0.01666666753590107
550,9192.0,0.6857249867536127,-1.6637003969565034,-2.3271125757455824,-0.07945683694407343,-2.8921954593382773,-12.026374214172362,12.772014908269671,-18.581090797365515,-13.240670045717389,0.01666666753590107
551,9208.0,-0.4516621830526739,-1.8721648682162164,-1.8921786054581402,-1.252466012816876,-3.119644617053121,-11.586140383911133,-0.6723137694160437,-11.29229711326872,-15.641128076687322,0.01666666753590107
552,9226.0,-0.22804420099854467,-1.953164258427173,-4.093599685698748,-1.0452179316096006,-3.174262415490672,-13.789554099273682,-14.875294823546936,-3.4479422453854363,-13.279616638138448,0.01666666753590107
553,9242.0,0.17539024997986852,-1.573378905518353,-5.005890471461415,-0.6395504608821123,-2.761861252593994,-14.706084422302245,-10.712083642333539,2.9023546318910456,-10.962679867886722,0.01666666753590107
554,9259.0,0.313079422596842,-1.0978470404479652,-5.102385098576545,-0.4860222063593566,-2.2834697603087872,-14.804246690368652,6.7557089453215236,1.4859388166743621,-12.564508638642806,0.01666666753590107
555,9276.0,0.3110492319434881,-0.8906247512690723,-3.590425122877955,-0.4878177845392376,-2.10764542976059,-13.288417764282226,14.35273754071677,-5.079677853196068,-17.70251331914302,0.01666666753590107
556,9292.0,0.1711322272092104,-0.7397904850706458,-2.7436580719053745,-0.6359590122614055,-1.999756644384563,-12.435483422851561,15.630706915561175,-4.70640246552617,-21.817792794082205,0.01666666753590107
557,9309.0,-0.24570925622247158,-0.1854685033366084,-2.7939649483412503,-1.0474624956659973,-1.512836027880758,-12.477232314300537,20.99450911228555,2.9254308528887565,-24.48164341001534,0.01666666753590107
558,9326.0,0.04768332299925387,0.45150662716478107,-3.2324364451050758,-0.7264898356013,-0.9410707439146936,-12.9087871635437,26.42373598352218,11.921095427317496,-23.085233432321036,0.01666666753590107
559,9343.0,-0.005126987624913454,0.716000882551819,-2.816429878127575,-0.7324754128169267,-0.7546222896300255,-12.484863832092284,31.061248307305956,17.712360744378888,-23.50580745310645,0.01666666753590107
560,9359.0,-0.1347759885840118,1.0582372799195348,-1.2591273704022168,-0.7881406014155596,-0.5261256686888635,-10.914866093444823,32.834563491327195,16.62454554357493,-24.619037787812026,0.01666666753590107
561,9376.0,0.0725861839896068,1.423566529713571,-0.35138182685375213,-0.5315120013697072,-0.2495952308103442,-9.995342433819173,34.12871358431536,14.924745393137828,-22.864106057941875,0.01666666753590107
562,9393.0,0.04897803898490965,1.6562933355703948,-0.13843056556880473,-0.5071211084894836,-0.10684081069305539,-9.769240014538168,34.41586839740104,15.34393459306902,-19.847290048722698,0.01666666753590107
563,9409.0,0.026659495399333533,1.8422532756857573,0.31949498872756954,-0.46641968026682734,-0.03381795231923461,-9.293393019104004,30.200859622843204,15.991159903724844,-15.06906216765832,0.01666666753590107
564,9426.0,-0.10998122761063277,1.8840793240241704,0.986795114865899,-0.5545563019465655,-0.06075272099599242,-8.614786486053466,22.75238806878256,17.484476605363287,-11.45595442219775,0.01666666753590107
565,9442.0,-0.10392174490857868,1.9406221722401678,1.2213602420657872,-0.49933998962659387,-0.05222337758168578,-8.372523205566406,14.725138237286082,17.39068786277526,-7.578447492645049,0.01666666753590107
566,9459.0,0.013749233487062156,2.043198749617487,1.50666362285614,-0.32426395669505,0.016759703882038592,-8.08237589187622,4.8750073927352275,14.52400453415484,-1.905353412848165,0.01666666753590107
567,9476.0,0.16879877929296344,2.217021531084925,1.9551333665430544,-0.1393119515132159,0.18585005000010132,-7.633911993408202,-0.7582596939287538,8.58640582922051,2.307933086821768,0.01666666753590107
568,9492.0,0.12696131451139225,2.196422541300952,2.2455606662184,-0.17268110061902553,0.17238281179219483,-7.345261055755615,-4.7148484213217134,-0.6013079765782374,3.416224767870601,0.01666666753590107
569,9509.0,-0.24175240835547446,1.9992605314306913,2.9185715712189673,-0.5621877832056954,0.0031425358094274995,-6.677428430175781,-12.24813086119323,-10.296636532293867,0.47225800887404623,0.01666666753590107
570,9526.0,-0.6437382679607718,1.7014511586800216,2.9968676938205956,-0.9946404215388,-0.2566283443175256,-6.605901655578613,-17.645481239573414,-13.717953419634124,-2.061988006649952,0.01666666753590107
571,9542.0,-0.7055942009583115,1.502707140315324,2.837535794520378,-1.0895106257898732,-0.4065650771543383,-6.7737944624751805,-20.97783320542696,-12.960095266123373,-4.272238929613371,0.01666666753590107
572,9559.0,-0.767211283698678,1.2043984397403895,2.2527099534511565,-1.1830341281397267,-0.6361093074522912,-7.370699448394775,-19.43325422652028,-8.145114990908803,-5.5851127055506575,0.01666666753590107
573,9576.0,-0.6152865919150412,1.0353246063657104,1.7857056051641702,-1.045517133751884,-0.7613558356687427,-7.845349927520751,-15.656033257003582,-5.219169099067945,-5.401549237172449,0.01666666753590107
574,9592.0,-0.5310552340455353,0.909315277083218,1.7229472434341906,-0.9684539139460772,-0.8551786132261157,-7.913734312438964,-10.142696875006473,-3.088386359880567,-5.203184748862823,0.01666666753590107
575,9609.0,-0.1983147966345772,0.7444771815821528,1.4559049109995363,-0.64224390121717,-0.9991301341734826,-8.18427910003662,-3.727384921124522,-2.668312650451858,-3.807271240543814,0.01666666753590107
576,9626.0,0.012577742022275924,0.5784396471634506,1.354792560955882,-0.43903599877879024,-1.1571474437437952,-8.28648158340454,-3.39306530394238,-4.870957090557409,-2.4129513007355334,0.01666666753590107
577,9642.0,0.13028233042657375,0.45377764083668587,1.2714239573955535,-0.33758173996228724,-1.2717698482237756,-8.370877191925048,-4.9239162429475725,-8.748191666316957,-1.6674944228799984,0.01666666753590107
578,9659.0,0.18741437670737504,0.11549801827073096,1.0549135423243046,-0.3173806269221008,-1.5860088161192833,-8.589797006225586,-9.856511095009294,-13.636227644893983,-0.4256047752742444,0.01666666753590107
