,ms,accelX,accelY,accelZ,accelWithGX,accelWithGY,accelWithGZ,rotRateAlpha,rotRateBeta,rotRateGamma,interval
0,0.0,-0.1,0.0,0.2,-0.7000000000000001,4.0,9.0,-6.000000000000001,-9.5,-4.1000000000000005,16
1,13.0,-0.1,-0.2,0.0,-0.8,3.8000000000000003,8.8,-0.30000000000000004,-10.1,1.3,16
2,30.0,0.0,-0.1,-0.1,-0.8,3.8000000000000003,8.8,-0.30000000000000004,-10.1,1.3,16
3,46.0,0.2,0.0,-0.1,-0.6000000000000001,3.9000000000000004,8.700000000000001,-2.1,-6.8,5.4,16
4,64.0,0.4,0.1,0.1,-0.30000000000000004,4.0,8.9,-4.0,-3.8,6.7,16
5,80.0,0.4,0.1,0.0,-0.2,4.0,8.9,-2.6,-1.6,4.7,16
6,97.0,0.1,0.0,-0.4,-0.4,4.0,8.4,-2.8,0.6000000000000001,1.6,16
7,113.0,-0.1,0.1,-0.30000000000000004,-0.6000000000000001,4.0,8.6,-8.0,3.2,2.5,16
8,130.0,-0.1,0.1,-0.1,-0.6000000000000001,4.0,8.6,-8.0,3.2,2.5,16
9,147.0,0.2,0.2,0.5,-0.30000000000000004,4.2,9.3,-4.3999999999999995,6.4,4.7,16
10,163.0,0.2,0.30000000000000004,0.30000000000000004,-0.30000000000000004,4.3,9.1,1.4,3.9,2.9,16
11,180.0,0.2,0.30000000000000004,0.0,-0.30000000000000004,4.3,9.1,1.4,3.9,2.9,16
12,197.0,0.2,0.30000000000000004,-0.2,-0.30000000000000004,4.3,8.8,-3.3000000000000003,1.6,-3.2,16
13,213.0,0.2,0.30000000000000004,-0.1,-0.30000000000000004,4.3,8.8,-3.3000000000000003,1.6,-3.2,16
14,230.0,0.1,0.2,0.30000000000000004,-0.30000000000000004,4.2,9.1,-6.3,3.6,-4.7,16
15,247.0,0.1,0.1,0.2,-0.5,4.1000000000000005,9.1,-4.5,5.8,-6.1000000000000005,16
16,263.0,0.0,0.1,0.1,-0.5,4.1000000000000005,9.1,-4.5,5.8,-6.1000000000000005,16
17,280.0,0.0,-0.1,0.2,-0.5,3.9000000000000004,9.1,-4.0,4.7,-5.8,16
18,297.0,-0.1,0.0,0.1,-0.5,3.8000000000000003,9.0,-2.0,-1.0,-4.3999999999999995,16
19,314.0,0.0,-0.1,0.1,-0.5,3.8000000000000003,9.0,-2.0,-1.0,-4.3999999999999995,16
20,330.0,0.0,-0.1,0.0,-0.5,3.8000000000000003,9.0,-1.3,-1.8,-3.9,16
21,347.0,0.0,-0.1,-0.1,-0.5,3.8000000000000003,8.9,-3.2,-2.1,-3.5,16
22,363.0,0.0,-0.1,0.0,-0.5,3.8000000000000003,8.9,-3.2,-2.1,-3.5,16
23,380.0,-0.1,0.0,-0.2,-0.6000000000000001,3.9000000000000004,8.9,-3.4,-10.1,-2.1,16
24,397.0,0.0,0.0,0.1,-0.5,3.9000000000000004,9.200000000000001,-3.0000000000000004,-12.000000000000002,-1.6,16
25,413.0,0.0,-0.1,0.2,-0.5,3.9000000000000004,9.200000000000001,-3.0000000000000004,-12.000000000000002,-1.6,16
26,430.0,-0.1,0.0,0.1,-0.6000000000000001,3.9000000000000004,8.9,1.7,-9.700000000000001,-0.4,16
27,447.0,-0.2,0.0,-0.1,-0.6000000000000001,3.9000000000000004,8.9,-0.9,-8.3,0.7,16
28,463.0,-0.1,0.0,0.0,-0.6000000000000001,3.9000000000000004,8.9,-0.9,-8.3,0.7,16
29,480.0,0.0,0.0,0.0,-0.4,3.9000000000000004,9.0,-6.4,-0.6000000000000001,-2.1999999999999997,16
30,497.0,-0.1,0.0,0.1,-0.4,3.9000000000000004,9.0,-7.9,2.1,-2.8,16
31,513.0,-0.2,-0.1,0.2,-0.6000000000000001,3.8000000000000003,9.200000000000001,-7.9,2.1,-2.8,16
32,530.0,-0.4,-0.1,0.30000000000000004,-0.9,3.7,9.4,-5.9,-1.4,-1.0999999999999999,16
33,547.0,-0.4,-0.1,0.4,-0.9,3.7,9.4,-5.9,-1.4,-1.0999999999999999,16
34,563.0,-0.1,-0.1,0.7000000000000001,-0.7000000000000001,3.7,9.700000000000001,-3.2,-1.8,1.8,16
35,580.0,0.0,-0.1,0.30000000000000004,-0.5,3.8000000000000003,9.1,9.3,0.1,5.2,16
36,597.0,-0.1,0.0,-0.1,-0.5,3.8000000000000003,9.1,9.3,0.1,5.2,16
37,613.0,0.0,0.0,-0.4,-0.5,3.8000000000000003,8.700000000000001,8.799999999999999,-3.7000000000000006,4.5,16
38,630.0,0.1,0.0,-0.4,-0.30000000000000004,3.9000000000000004,8.8,0.6000000000000001,-3.3000000000000003,1.5000000000000002,16
39,647.0,0.1,0.0,-0.2,-0.30000000000000004,3.9000000000000004,8.8,0.6000000000000001,-3.3000000000000003,1.5000000000000002,16
40,663.0,0.0,0.0,0.1,-0.4,3.7,9.1,-3.0000000000000004,3.3000000000000003,-3.6,16
41,680.0,0.0,-0.1,0.0,-0.4,3.7,9.1,-1.8,5.4,-1.3,16
42,697.0,0.0,-0.1,0.1,-0.4,3.7,9.1,-1.8,5.4,-1.3,16
43,713.0,0.1,-0.2,-0.1,-0.4,3.7,8.700000000000001,3.1,2.1,0.0,16
44,730.0,0.0,0.0,-0.5,-0.5,3.8000000000000003,8.5,3.1,2.1,0.0,16
45,747.0,0.0,0.0,-0.5,-0.5,3.8000000000000003,8.5,2.8,-0.5,1.6,16
46,763.0,0.0,0.0,-0.30000000000000004,-0.30000000000000004,3.8000000000000003,8.700000000000001,1.8,-1.5000000000000002,1.9,16
47,780.0,0.1,0.0,-0.2,-0.30000000000000004,3.8000000000000003,8.700000000000001,1.8,-1.5000000000000002,1.9,16
48,797.0,0.1,0.1,-0.1,-0.30000000000000004,3.9000000000000004,8.9,1.9,-0.6000000000000001,1.8,16
49,813.0,0.1,0.0,0.0,-0.2,3.9000000000000004,8.9,0.8,-6.3,3.2,16
50,830.0,0.2,0.1,0.0,-0.2,3.9000000000000004,8.9,0.8,-6.3,3.2,16
51,847.0,0.4,0.1,0.0,0.0,3.9000000000000004,9.0,-1.6,-6.3,3.0000000000000004,16
52,864.0,0.30000000000000004,0.1,0.1,-0.1,3.9000000000000004,9.0,-1.0999999999999999,2.3000000000000003,-2.8,16
53,880.0,0.2,0.1,0.0,-0.1,3.9000000000000004,9.0,-1.0999999999999999,2.3000000000000003,-2.8,16
54,897.0,0.0,0.1,-0.30000000000000004,-0.30000000000000004,3.9000000000000004,8.700000000000001,-0.6000000000000001,3.0000000000000004,-4.1000000000000005,16
55,913.0,-0.1,0.0,0.1,-0.30000000000000004,3.8000000000000003,9.1,-3.8,-3.7000000000000006,-2.1,16
56,930.0,0.0,0.0,0.2,-0.30000000000000004,3.8000000000000003,9.1,-3.8,-3.7000000000000006,-2.1,16
57,947.0,0.1,0.0,0.1,-0.1,3.8000000000000003,9.0,-1.6,-0.30000000000000004,-2.4000000000000004,16
58,963.0,0.2,0.0,0.0,-0.1,3.8000000000000003,9.0,-4.300000000000001,2.5,-4.6000000000000005,16
59,980.0,0.2,0.0,0.0,-0.1,3.8000000000000003,9.0,-4.300000000000001,2.5,-4.6000000000000005,16
60,997.0,0.0,0.0,0.1,-0.4,3.8000000000000003,9.0,-7.400000000000001,6.000000000000001,-7.699999999999999,16
61,1013.0,-0.2,0.0,0.1,-0.6000000000000001,3.7,9.1,-7.400000000000001,6.000000000000001,-7.699999999999999,16
62,1030.0,-0.2,0.0,0.1,-0.6000000000000001,3.7,9.1,-8.0,4.800000000000001,-7.0,16
63,1047.0,-0.1,0.0,0.1,-0.5,3.8000000000000003,9.1,-6.3,2.5,-3.2,16
64,1063.0,-0.1,0.1,0.1,-0.5,3.8000000000000003,9.1,-6.3,2.5,-3.2,16
65,1080.0,-0.1,0.2,0.0,-0.5,3.8000000000000003,9.0,-7.1000000000000005,0.5,-4.1000000000000005,16
66,1097.0,-0.30000000000000004,0.1,-0.1,-0.7000000000000001,3.7,9.200000000000001,-11.000000000000002,-5.0,-6.6000000000000005,16
67,1114.0,-0.2,0.0,0.1,-0.7000000000000001,3.7,9.200000000000001,-11.000000000000002,-5.0,-6.6000000000000005,16
68,1130.0,0.0,-0.1,0.30000000000000004,-0.5,3.6,9.4,-9.700000000000001,-5.0,-4.7,16
69,1147.0,-0.1,0.0,0.2,-0.4,3.5,9.3,-5.7,-1.2000000000000002,-2.1,16
70,1164.0,0.0,-0.2,0.2,-0.4,3.5,9.3,-5.7,-1.2000000000000002,-2.1,16
71,1180.0,-0.1,0.1,0.2,-0.5,3.6,9.3,-5.1,-2.9,-3.2,16
72,1197.0,-0.1,0.1,0.4,-0.5,3.7,9.5,0.6000000000000001,-8.799999999999999,-4.1000000000000005,16
73,1213.0,-0.1,0.1,0.30000000000000004,-0.5,3.7,9.5,0.6000000000000001,-8.799999999999999,-4.1000000000000005,16
74,1230.0,-0.2,0.0,0.0,-0.7000000000000001,3.6,8.9,9.1,-6.2,-2.1,16
75,1247.0,-0.30000000000000004,0.0,-0.2,-0.7000000000000001,3.6,8.9,9.1,-6.2,-2.1,16
76,1263.0,-0.30000000000000004,0.2,-0.30000000000000004,-0.7000000000000001,3.8000000000000003,8.8,7.6,-4.2,2.5,16
77,1280.0,-0.1,0.2,-0.2,-0.30000000000000004,4.0,8.8,7.400000000000001,-1.6,7.300000000000001,16
78,1297.0,0.1,0.30000000000000004,-0.4,-0.30000000000000004,4.0,8.8,7.400000000000001,-1.6,7.300000000000001,16
79,1313.0,0.1,0.30000000000000004,-0.5,-0.30000000000000004,4.1000000000000005,8.6,8.3,2.1,4.9,16
80,1330.0,0.0,0.5,-0.6000000000000001,-0.7000000000000001,4.4,8.3,7.6,9.9,-1.2000000000000002,16
81,1347.0,-0.30000000000000004,0.6000000000000001,-0.7000000000000001,-1.0,4.4,8.200000000000001,7.6,9.9,-1.2000000000000002,16
82,1363.0,-0.6000000000000001,0.5,-0.8,-1.0,4.4,8.200000000000001,7.400000000000001,6.5,-2.6,16
83,1380.0,-0.5,0.5,-0.5,-0.8,4.4,8.8,-2.0,-0.4,2.8,16
84,1397.0,-0.30000000000000004,0.4,-0.1,-0.8,4.4,8.8,-2.0,-0.4,2.8,16
85,1413.0,0.1,0.4,0.4,-0.5,4.3,9.200000000000001,-3.6,4.2,2.3000000000000003,16
86,1430.0,-0.1,0.4,0.1,-0.8,4.4,8.9,0.0,11.4,-1.6,16
87,1447.0,-0.2,0.4,-0.1,-0.8,4.4,8.9,0.0,11.4,-1.6,16
88,1463.0,-0.30000000000000004,0.2,0.1,-0.9,4.3,9.0,-1.0,5.7,0.1,16
89,1480.0,0.0,0.2,0.0,-0.6000000000000001,4.2,8.9,1.2000000000000002,4.0,8.4,16
90,1497.0,0.0,0.2,-0.1,-0.6000000000000001,4.2,8.9,1.2000000000000002,4.0,8.4,16
91,1513.0,0.0,0.30000000000000004,-0.4,-0.5,4.3,8.3,1.3,8.700000000000001,14.600000000000001,16
92,1530.0,0.2,0.30000000000000004,-0.8,-0.4,4.4,8.1,0.1,6.8,17.200000000000003,16
93,1547.0,0.2,0.4,-0.8,-0.4,4.4,8.1,0.1,6.8,17.200000000000003,16
94,1563.0,0.2,0.5,-0.8,-0.30000000000000004,4.7,8.1,-1.8,-4.2,18.5,16
95,1580.0,0.2,0.6000000000000001,-0.7000000000000001,-0.30000000000000004,4.7,8.1,-1.8,-4.2,18.5,16
96,1597.0,0.2,0.7000000000000001,-0.30000000000000004,-0.30000000000000004,4.800000000000001,8.3,-3.9,-9.9,18.0,16
97,1613.0,0.2,0.6000000000000001,0.1,-0.1,4.7,9.0,-5.9,-5.7,15.299999999999999,16
98,1630.0,0.30000000000000004,0.6000000000000001,0.2,-0.1,4.7,9.0,-5.9,-5.7,15.299999999999999,16
99,1647.0,0.30000000000000004,0.6000000000000001,0.30000000000000004,0.0,4.800000000000001,9.1,-5.1,-0.5,13.700000000000001,16
100,1664.0,-0.30000000000000004,0.6000000000000001,0.2,-0.7000000000000001,4.7,9.0,0.9,-1.4,13.0,16
101,1681.0,-0.4,0.5,0.1,-0.7000000000000001,4.7,9.0,0.9,-1.4,13.0,16
102,1697.0,-0.4,0.4,0.0,-0.8,4.7,8.9,4.0,-6.4,17.599999999999998,16
103,1714.0,-0.30000000000000004,0.6000000000000001,-0.2,-0.4,4.9,8.5,8.200000000000001,-10.9,27.900000000000002,16
104,1730.0,-0.1,0.6000000000000001,-0.30000000000000004,-0.4,4.9,8.5,8.200000000000001,-10.9,27.900000000000002,16
105,1748.0,0.1,0.5,-0.2,-0.1,4.9,8.5,6.1000000000000005,-13.6,29.300000000000004,16
106,1764.0,0.30000000000000004,0.4,0.0,0.2,4.800000000000001,8.6,2.9,-11.5,26.700000000000003,16
107,1780.0,0.2,0.30000000000000004,-0.2,0.2,4.800000000000001,8.6,2.9,-11.5,26.700000000000003,16
108,1797.0,-0.1,0.2,-0.6000000000000001,-0.1,4.6000000000000005,8.200000000000001,-4.2,-8.3,26.3,16
109,1814.0,-0.30000000000000004,0.1,-0.30000000000000004,-0.2,4.6000000000000005,8.5,-4.2,-8.3,26.3,16
110,1831.0,-0.30000000000000004,0.2,-0.1,-0.2,4.6000000000000005,8.5,-7.2,-9.8,30.000000000000004,16
111,1847.0,-0.30000000000000004,0.30000000000000004,-0.2,-0.1,4.800000000000001,8.5,-3.7000000000000006,-11.1,36.7,16
112,1864.0,-0.4,0.4,-0.2,-0.1,4.800000000000001,8.5,-4.5,-14.3,39.699999999999996,16
113,1881.0,-0.2,0.5,0.1,0.0,4.9,8.700000000000001,-4.5,-14.3,39.699999999999996,16
114,1897.0,-0.2,0.5,0.6000000000000001,0.1,5.0,9.4,-1.0,-14.3,49.7,16
115,1914.0,-0.4,0.6000000000000001,0.7000000000000001,0.1,5.0,9.4,-1.0,-14.3,49.7,16
116,1930.0,-0.7000000000000001,0.8,0.1,0.0,5.2,9.1,7.500000000000001,-12.9,56.6,16
117,1947.0,-0.8,1.0,-0.30000000000000004,0.4,5.7,8.1,7.300000000000001,-8.5,66.5,16
118,1965.0,-0.30000000000000004,1.0,-0.6000000000000001,0.4,5.7,8.1,7.300000000000001,-8.5,66.5,16
119,1980.0,0.30000000000000004,0.9,0.9,1.0,5.6000000000000005,9.0,-8.799999999999999,-19.700000000000003,62.7,16
120,1997.0,0.7000000000000001,0.30000000000000004,3.5,1.6,4.5,12.600000000000001,-16.900000000000002,-16.8,37.1,16
121,2014.0,0.4,-0.1,4.0,1.6,4.5,12.600000000000001,-16.900000000000002,-16.8,37.1,16
122,2030.0,-0.7000000000000001,-0.7000000000000001,2.3000000000000003,0.7000000000000001,4.0,11.8,5.300000000000001,9.600000000000001,26.1,16
123,2047.0,-1.1,-0.7000000000000001,1.2000000000000002,0.0,3.8000000000000003,10.0,22.6,27.1,26.6,16
124,2064.0,-1.3,-0.8,0.1,-0.30000000000000004,3.9000000000000004,9.0,22.6,27.1,26.6,16
125,2080.0,-0.9,-1.0,0.1,0.5,3.5,8.8,27.900000000000002,14.600000000000001,35.9,16
126,2097.0,-0.5,-1.2000000000000002,0.1,0.5,3.5,8.8,27.900000000000002,14.600000000000001,35.9,16
127,2114.0,-0.2,-1.3,-0.5,0.8,3.4000000000000004,8.3,34.300000000000004,9.4,33.2,16
128,2130.0,-0.1,-1.6,-0.7000000000000001,1.1,3.3000000000000003,8.0,25.5,10.1,26.1,16
129,2147.0,0.0,-1.5,-0.6000000000000001,1.1,3.3000000000000003,8.0,25.5,10.1,26.1,16
130,2164.0,0.4,-1.4000000000000001,-0.30000000000000004,1.4000000000000001,3.5,8.200000000000001,16.900000000000002,16.2,23.1,16
131,2180.0,0.30000000000000004,-1.2000000000000002,-0.30000000000000004,1.1,3.7,8.200000000000001,9.5,24.400000000000002,8.3,16
132,2197.0,0.0,-1.2000000000000002,-0.30000000000000004,1.1,3.7,8.200000000000001,9.5,24.400000000000002,8.3,16
133,2213.0,-0.5,-1.2000000000000002,-0.30000000000000004,0.6000000000000001,3.7,8.200000000000001,10.1,21.0,3.5,16
134,2230.0,-0.4,-1.2000000000000002,-0.1,0.4,3.8000000000000003,8.3,11.8,21.8,7.9,16
135,2247.0,-0.5,-1.1,-0.2,0.4,3.8000000000000003,8.3,11.8,21.8,7.9,16
136,2263.0,-0.5,-1.0,-0.6000000000000001,0.30000000000000004,3.9000000000000004,8.0,12.200000000000001,25.3,10.1,16
137,2281.0,-0.7000000000000001,-1.0,-0.8,0.1,4.0,7.7,5.300000000000001,25.2,16.6,16
138,2297.0,-0.7000000000000001,-0.9,-0.7000000000000001,0.1,4.0,7.7,5.300000000000001,25.2,16.6,16
139,2314.0,-0.4,-1.0,-0.6000000000000001,0.2,4.0,7.9,4.2,20.6,19.9,16
140,2330.0,-0.30000000000000004,-1.1,-0.6000000000000001,0.4,3.8000000000000003,7.800000000000001,6.4,16.2,22.000000000000004,16
141,2347.0,-0.2,-1.2000000000000002,-0.6000000000000001,0.4,3.8000000000000003,7.800000000000001,8.3,13.700000000000001,25.0,16
142,2363.0,-0.1,-1.1,-0.8,0.6000000000000001,3.9000000000000004,7.800000000000001,5.6,14.600000000000001,29.700000000000003,16
143,2381.0,0.0,-1.0,-0.4,0.7000000000000001,4.0,8.0,5.6,14.600000000000001,29.700000000000003,16
144,2397.0,0.0,-1.0,-0.30000000000000004,0.7000000000000001,4.0,8.0,3.5,14.4,31.099999999999998,16
145,2413.0,0.1,-0.8,-0.6000000000000001,0.9,4.3,7.6000000000000005,6.5,20.2,31.900000000000002,16
146,2430.0,0.2,-0.6000000000000001,-0.7000000000000001,0.9,4.3,7.6000000000000005,6.5,20.2,31.900000000000002,16
147,2447.0,0.2,-0.4,-0.8,0.9,4.4,7.5,5.2,20.3,30.9,16
148,2463.0,0.1,-0.2,-0.6000000000000001,0.8,4.7,7.7,6.2,15.299999999999999,28.700000000000003,16
149,2481.0,0.1,-0.2,-0.5,0.8,4.7,7.7,6.2,15.299999999999999,28.700000000000003,16
150,2497.0,-0.1,0.0,-0.2,0.7000000000000001,4.800000000000001,7.9,8.5,14.0,28.500000000000004,16
151,2514.0,-0.2,0.2,0.0,0.6000000000000001,5.1000000000000005,8.4,8.1,10.8,31.6,16
152,2531.0,-0.2,0.2,0.2,0.6000000000000001,5.1000000000000005,8.4,8.1,10.8,31.6,16
153,2547.0,0.1,0.30000000000000004,0.8,0.8,5.2,8.8,6.1000000000000005,9.3,34.50000000000001,16
154,2564.0,0.4,0.30000000000000004,1.3,1.2000000000000002,5.2,9.5,11.4,6.6000000000000005,33.6,16
155,2580.0,0.4,0.2,1.3,1.2000000000000002,5.2,9.5,11.4,6.6000000000000005,33.6,16
156,2597.0,0.5,0.30000000000000004,1.0,1.3,5.2,9.3,13.9,11.9,30.4,16
157,2614.0,0.30000000000000004,0.30000000000000004,0.6000000000000001,1.2000000000000002,5.4,8.8,12.8,26.1,26.1,16
158,2630.0,-0.30000000000000004,0.4,0.4,0.6000000000000001,5.5,8.5,5.500000000000001,40.6,22.1,16
159,2647.0,-1.0,0.7000000000000001,0.9,-0.5,5.7,9.700000000000001,-12.4,27.8,24.000000000000004,16
160,2663.0,-1.0,0.6000000000000001,2.7,-0.5,5.7,9.700000000000001,-12.4,27.8,24.000000000000004,16
161,2681.0,-0.5,0.2,4.2,0.0,5.300000000000001,11.9,-23.0,-0.1,31.2,16
162,2697.0,0.5,-0.5,5.4,1.5,4.2,13.3,6.000000000000001,-10.700000000000001,33.2,16
163,2714.0,0.6000000000000001,-0.7000000000000001,4.9,1.5,4.2,13.3,6.000000000000001,-10.700000000000001,33.2,16
164,2730.0,0.4,-0.8,1.6,1.4000000000000001,4.1000000000000005,10.8,22.900000000000002,14.4,30.299999999999997,16
165,2747.0,-0.1,-0.7000000000000001,-0.7000000000000001,0.5,4.3,7.300000000000001,9.0,31.900000000000002,19.3,16
166,2763.0,-0.30000000000000004,-0.7000000000000001,-1.0,0.5,4.3,7.300000000000001,9.0,31.900000000000002,19.3,16
167,2781.0,-0.7000000000000001,-0.8,-0.30000000000000004,0.2,4.2,7.7,-4.7,13.5,15.5,16
168,2797.0,-0.9,-1.1,1.1,-0.1,3.7,9.700000000000001,-7.1000000000000005,-16.2,12.700000000000001,16
169,2814.0,-0.9,-1.3,1.5,-0.1,3.7,9.700000000000001,-7.1000000000000005,-16.2,12.700000000000001,16
170,2831.0,-0.8,-1.4000000000000001,1.2000000000000002,0.1,3.5,9.700000000000001,-2.3000000000000003,-8.0,17.400000000000002,16
171,2847.0,-0.5,-1.2000000000000002,0.2,0.4,3.7,8.3,-3.1,17.3,17.1,16
172,2864.0,-0.4,-1.1,-0.2,0.4,3.7,8.3,-3.1,17.3,17.1,16
173,2881.0,-0.7000000000000001,-1.1,-0.4,0.30000000000000004,3.8000000000000003,8.0,-8.4,14.4,9.600000000000001,16
174,2897.0,-0.9,-1.3,-0.4,-0.1,3.5,8.0,-10.9,7.400000000000001,4.3999999999999995,16
175,2914.0,-1.2000000000000002,-1.4000000000000001,0.0,-0.30000000000000004,3.4000000000000004,8.3,-8.1,1.5000000000000002,3.7000000000000006,16
176,2930.0,-1.7000000000000002,-1.7000000000000002,-0.30000000000000004,-0.9,3.0,7.7,6.8,13.100000000000001,12.200000000000001,16
177,2947.0,-1.7000000000000002,-1.7000000000000002,-0.8,-0.9,3.0,7.7,6.8,13.100000000000001,12.200000000000001,16
178,2964.0,-1.2000000000000002,-1.4000000000000001,-1.3,-0.6000000000000001,3.2,7.2,6.1000000000000005,15.399999999999999,21.200000000000003,16
179,2981.0,-0.8,-1.2000000000000002,-1.4000000000000001,0.2,3.6,7.0,0.2,6.7,26.9,16
180,2997.0,-0.6000000000000001,-1.1,-1.3,0.2,3.6,7.0,0.2,6.7,26.9,16
181,3014.0,-0.30000000000000004,-1.0,-1.3,0.4,3.7,7.0,0.0,5.0,25.900000000000002,16
182,3030.0,-0.2,-0.8,-1.6,0.6000000000000001,4.0,6.800000000000001,0.0,8.5,19.400000000000002,16
183,3048.0,-0.2,-0.7000000000000001,-1.6,0.6000000000000001,4.0,6.800000000000001,0.0,8.5,19.400000000000002,16
184,3063.0,-0.4,-0.5,-1.5,0.5,4.1000000000000005,6.800000000000001,-2.5,9.600000000000001,16.3,16
185,3081.0,-0.6000000000000001,-0.4,-1.3,0.2,4.3,7.0,-4.3999999999999995,10.600000000000001,13.9,16
186,3097.0,-0.6000000000000001,-0.30000000000000004,-1.3,0.2,4.3,7.0,-4.3999999999999995,10.600000000000001,13.9,16
187,3114.0,-0.7000000000000001,-0.1,-1.2000000000000002,0.1,4.4,7.1000000000000005,-5.2,8.200000000000001,13.9,16
188,3130.0,-0.7000000000000001,-0.1,-0.7000000000000001,0.2,4.5,8.0,-10.700000000000001,-2.9,14.3,16
189,3147.0,-0.5,-0.1,-0.30000000000000004,0.2,4.5,8.0,-10.700000000000001,-2.9,14.3,16
190,3163.0,-0.5,-0.30000000000000004,0.1,0.4,4.1000000000000005,8.6,-17.0,-3.0000000000000004,17.7,16
191,3181.0,-0.4,-0.5,0.30000000000000004,0.6000000000000001,4.0,8.700000000000001,-23.400000000000002,-1.8,20.6,16
192,3197.0,-0.30000000000000004,-0.5,0.2,0.6000000000000001,4.0,8.700000000000001,-23.400000000000002,-1.8,20.6,16
193,3214.0,-0.30000000000000004,-0.30000000000000004,0.6000000000000001,0.6000000000000001,4.0,9.3,-37.0,2.5,23.5,16
194,3230.0,-0.30000000000000004,-0.30000000000000004,0.8,0.6000000000000001,4.0,9.3,-37.0,2.5,23.5,16
195,3247.0,-0.7000000000000001,-0.2,0.6000000000000001,0.4,3.9000000000000004,9.200000000000001,-35.6,6.4,23.700000000000003,16
196,3263.0,-1.2000000000000002,-0.1,0.0,-0.2,4.0,8.6,-37.300000000000004,-7.8,37.300000000000004,16
197,3281.0,-1.2000000000000002,0.30000000000000004,0.30000000000000004,-0.2,4.0,8.6,-37.300000000000004,-7.8,37.300000000000004,16
198,3297.0,-0.8,0.7000000000000001,1.5,0.1,4.4,9.600000000000001,-49.9,-30.599999999999998,51.2,16
199,3313.0,0.5,1.1,4.7,2.5,4.6000000000000005,14.3,-50.9,-42.900000000000006,67.3,16
200,3331.0,1.1,1.0,5.6000000000000005,2.5,4.6000000000000005,14.3,-50.9,-42.900000000000006,67.3,16
201,3347.0,1.9000000000000001,0.6000000000000001,4.9,3.5,4.1000000000000005,14.200000000000001,-28.200000000000003,-17.3,55.5,16
202,3363.0,0.6000000000000001,0.6000000000000001,2.1,1.7000000000000002,3.7,10.5,-7.9,42.900000000000006,21.400000000000002,16
203,3380.0,0.0,0.30000000000000004,1.3,1.7000000000000002,3.7,10.5,-7.9,42.900000000000006,21.400000000000002,16
204,3397.0,-1.0,0.2,0.4,0.8,3.4000000000000004,9.600000000000001,-9.600000000000001,47.800000000000004,15.6,16
205,3413.0,-1.4000000000000001,0.2,0.1,0.1,3.4000000000000004,9.4,-8.5,19.0,24.9,16
206,3430.0,-1.2000000000000002,0.1,0.4,0.1,3.4000000000000004,9.4,-8.5,19.0,24.9,16
207,3447.0,0.0,0.1,1.8,2.1,3.3000000000000003,11.200000000000001,-1.7,-8.4,32.800000000000004,16
208,3463.0,1.1,0.1,1.8,2.6,3.3000000000000003,10.3,8.3,8.9,23.2,16
209,3480.0,1.3,0.2,1.0,2.6,3.3000000000000003,10.3,8.3,8.9,23.2,16
210,3497.0,0.9,0.1,-0.7000000000000001,1.9000000000000001,3.2,7.800000000000001,5.1,50.7,-6.5,16
211,3513.0,0.6000000000000001,0.0,-1.3,1.9000000000000001,3.2,7.800000000000001,5.1,50.7,-6.5,16
212,3530.0,0.1,-0.4,-2.3000000000000003,1.2000000000000002,2.9000000000000004,7.0,4.5,64.2,-16.3,16
213,3547.0,-0.5,-0.5,-2.7,0.0,2.8000000000000003,6.4,8.5,56.1,-18.400000000000002,16
214,3565.0,-0.7000000000000001,-0.4,-2.5,-0.1,2.9000000000000004,6.7,9.700000000000001,36.3,-13.9,16
215,3580.0,-0.5,-0.4,-2.2,-0.1,2.9000000000000004,6.7,9.700000000000001,36.3,-13.9,16
216,3597.0,0.0,-0.7000000000000001,-1.5,0.6000000000000001,2.7,7.7,12.3,11.700000000000001,-5.8,16
217,3614.0,0.2,-0.6000000000000001,-1.2000000000000002,0.6000000000000001,2.7,7.7,12.3,11.700000000000001,-5.8,16
218,3630.0,0.6000000000000001,-0.6000000000000001,-0.6000000000000001,1.0,2.8000000000000003,8.200000000000001,14.100000000000001,13.5,-2.3000000000000003,16
219,3647.0,1.0,-0.6000000000000001,-0.1,1.4000000000000001,2.9000000000000004,9.0,17.1,15.7,-1.0999999999999999,16
220,3664.0,1.0,-0.6000000000000001,0.0,1.4000000000000001,2.9000000000000004,9.0,17.1,15.7,-1.0999999999999999,16
221,3680.0,1.0,-0.6000000000000001,0.5,1.3,2.9000000000000004,9.3,13.9,15.5,1.5000000000000002,16
222,3697.0,0.8,-0.5,0.9,1.0,3.1,9.700000000000001,17.0,18.0,16.5,16
223,3713.0,0.7000000000000001,-0.4,0.7000000000000001,1.0,3.1,9.700000000000001,17.0,18.0,16.5,16
224,3730.0,0.8,0.0,0.30000000000000004,1.3,4.0,8.9,26.200000000000003,12.5,41.6,16
225,3747.0,1.3,0.8,-0.30000000000000004,1.3,4.0,8.9,26.200000000000003,12.5,41.6,16
226,3765.0,1.4000000000000001,1.2000000000000002,-0.4,1.7000000000000002,4.800000000000001,8.5,22.1,5.4,45.3,16
227,3780.0,1.8,1.6,0.2,2.1,5.2,9.600000000000001,0.4,-14.100000000000001,25.6,16
228,3797.0,1.7000000000000002,1.4000000000000001,0.8,2.1,5.2,9.600000000000001,0.4,-14.100000000000001,25.6,16
229,3814.0,0.8,0.9,1.9000000000000001,1.5,4.800000000000001,10.600000000000001,-4.3999999999999995,-16.900000000000002,14.200000000000001,16
230,3830.0,0.4,0.7000000000000001,2.4000000000000004,1.2000000000000002,4.6000000000000005,10.8,5.0,0.8,21.5,16
231,3847.0,0.7000000000000001,0.8,1.9000000000000001,1.2000000000000002,4.6000000000000005,10.8,5.0,0.8,21.5,16
232,3863.0,0.7000000000000001,1.0,0.9,1.3,4.800000000000001,9.9,5.500000000000001,4.2,19.500000000000004,16
233,3880.0,0.6000000000000001,0.1,2.2,1.1,3.3000000000000003,11.8,-14.0,-36.3,-8.1,16
234,3897.0,0.30000000000000004,-0.6000000000000001,3.1,1.1,3.3000000000000003,11.8,-14.0,-36.3,-8.1,16
235,3913.0,-0.6000000000000001,-1.6,3.3000000000000003,0.5,2.4000000000000004,12.4,-6.000000000000001,-44.3,-13.9,16
236,3930.0,-1.7000000000000002,-1.9000000000000001,1.8,-1.0,2.0,10.100000000000001,12.3,-18.7,-7.500000000000001,16
237,3947.0,-2.0,-1.8,0.9,-1.0,2.0,10.100000000000001,12.3,-18.7,-7.500000000000001,16
238,3963.0,-2.0,-1.3,-0.5,-1.2000000000000002,2.3000000000000003,8.8,4.300000000000001,-9.700000000000001,2.6,16
239,3980.0,-1.0,-0.8,0.2,0.4,3.0,9.8,-33.800000000000004,-31.4,8.0,16
240,3997.0,-0.6000000000000001,-0.7000000000000001,1.1,0.4,3.0,9.8,-33.800000000000004,-31.4,8.0,16
241,4014.0,-0.30000000000000004,-0.7000000000000001,2.1,0.7000000000000001,2.8000000000000003,10.9,-32.7,-35.9,-11.4,16
242,4031.0,-0.7000000000000001,-0.8,1.3,0.5,2.5,10.0,-24.9,-17.0,-21.8,16
243,4047.0,-0.9,-1.0,0.6000000000000001,0.5,2.5,10.0,-24.9,-17.0,-21.8,16
244,4063.0,-1.3,-1.0,-1.1,-0.2,2.2,7.2,-17.7,28.3,-32.9,16
245,4081.0,-1.4000000000000001,-1.1,-2.0,-0.2,2.2,7.2,-17.7,28.3,-32.9,16
246,4097.0,-1.6,-1.1,-2.9000000000000004,-0.5,2.2,6.4,-20.3,30.599999999999998,-34.800000000000004,16
247,4113.0,-2.0,-1.0,-1.9000000000000001,-1.0,2.0,7.9,-37.5,-11.2,-32.2,16
248,4131.0,-1.9000000000000001,-1.1,-1.1,-1.0,2.0,7.9,-37.5,-11.2,-32.2,16
249,4147.0,-1.9000000000000001,-1.5,-0.30000000000000004,-1.0,1.6,8.8,-30.4,-17.3,-26.8,16
250,4163.0,-2.0,-1.4000000000000001,-0.7000000000000001,-1.0,1.6,8.200000000000001,-10.4,8.600000000000001,-11.1,16
251,4181.0,-1.9000000000000001,-1.3,-1.1,-1.0,1.6,8.200000000000001,-10.4,8.600000000000001,-11.1,16
252,4199.0,-1.4000000000000001,-1.7000000000000002,-1.1,-0.7000000000000001,1.3,8.0,-6.3,16.5,-4.3999999999999995,16
253,4213.0,-1.8,-1.8,-0.7000000000000001,-1.4000000000000001,1.3,8.6,4.5,20.3,6.2,16
254,4230.0,-2.2,-1.5,-0.5,-1.4000000000000001,1.3,8.6,4.5,20.3,6.2,16
255,4247.0,-1.2000000000000002,-0.9,-1.6,-0.8,1.8,7.800000000000001,9.3,36.6,20.5,16
256,4264.0,-1.1,-0.30000000000000004,-1.2000000000000002,-0.5,2.8000000000000003,8.200000000000001,-6.8,58.00000000000001,23.2,16
257,4281.0,-0.7000000000000001,0.0,-0.9,-0.5,2.8000000000000003,8.200000000000001,-6.8,58.00000000000001,23.2,16
258,4297.0,0.7000000000000001,-0.1,-0.5,1.0,2.8000000000000003,8.9,-6.3,65.0,11.700000000000001,16
259,4313.0,1.1,0.30000000000000004,0.1,1.0,2.8000000000000003,8.9,-6.3,65.0,11.700000000000001,16
260,4330.0,0.9,0.7000000000000001,0.7000000000000001,0.8,3.3000000000000003,9.700000000000001,-9.0,64.30000000000001,-2.4000000000000004,16
261,4347.0,-0.9,2.4000000000000004,1.1,-0.6000000000000001,3.8000000000000003,11.4,-17.400000000000002,73.50000000000001,2.8,16
262,4364.0,0.0,0.9,2.2,-0.6000000000000001,3.8000000000000003,11.4,-17.400000000000002,73.50000000000001,2.8,16
263,4381.0,-1.1,0.0,3.9000000000000004,-1.5,2.7,12.8,-25.900000000000002,47.7,6.9,16
264,4397.0,0.30000000000000004,-0.30000000000000004,4.1000000000000005,-0.2,2.8000000000000003,13.3,18.900000000000002,69.10000000000001,44.6,16
265,4414.0,0.8,0.2,4.0,-0.2,2.8000000000000003,13.3,18.900000000000002,69.10000000000001,44.6,16
266,4430.0,1.7000000000000002,1.8,3.7,0.5,4.2,13.0,40.9,57.00000000000001,43.7,16
267,4447.0,0.8,3.9000000000000004,3.8000000000000003,-0.8,6.5,13.0,29.1,-8.9,-11.6,16
268,4465.0,0.2,3.4000000000000004,3.7,-0.8,6.5,13.0,29.1,-8.9,-11.6,16
269,4480.0,-1.1,1.0,2.8000000000000003,-1.7000000000000002,4.6000000000000005,12.3,16.3,-7.500000000000001,-36.0,16
270,4497.0,-0.8,-2.4000000000000004,1.2000000000000002,-1.8,0.30000000000000004,9.600000000000001,33.0,38.6,-38.1,16
271,4513.0,-0.30000000000000004,-3.0,0.0,-1.8,0.30000000000000004,9.600000000000001,33.0,38.6,-38.1,16
272,4530.0,-1.0,-2.7,-1.9000000000000001,-2.2,0.4,7.6000000000000005,43.300000000000004,44.00000000000001,-31.7,16
273,4547.0,-1.3,-1.8,-1.8,-2.9000000000000004,1.6,7.300000000000001,46.2,47.0,-17.7,16
274,4563.0,-1.2000000000000002,-0.2,-1.3,-2.8000000000000003,3.1,7.7,32.800000000000004,1.4,-3.9,16
275,4580.0,-0.4,-0.30000000000000004,-0.9,-1.3,2.9000000000000004,8.700000000000001,-0.30000000000000004,-93.3,-0.2,16
276,4597.0,0.30000000000000004,-1.0,0.1,-1.3,2.9000000000000004,8.700000000000001,-0.30000000000000004,-97.8,-7.400000000000001,16
277,4613.0,0.30000000000000004,-1.2000000000000002,0.2,-0.7000000000000001,2.4000000000000004,9.200000000000001,-0.30000000000000004,-97.8,-7.400000000000001,16
278,4630.0,-0.1,-1.4000000000000001,-0.6000000000000001,-1.0,2.1,8.0,22.6,-51.900000000000006,0.4,16
279,4648.0,-0.4,-1.4000000000000001,-1.2000000000000002,-1.0,2.1,8.0,22.6,-51.900000000000006,0.4,16
280,4664.0,-0.30000000000000004,-0.9,-2.2,-0.9,2.5,7.0,32.4,-39.2,9.700000000000001,16
281,4680.0,0.1,-0.4,-2.8000000000000003,-0.1,3.5,6.1000000000000005,36.1,-39.300000000000004,3.9,16
282,4697.0,0.30000000000000004,-0.2,-2.9000000000000004,-0.1,3.5,6.1000000000000005,36.1,-39.300000000000004,3.9,16
283,4714.0,0.5,-0.6000000000000001,-2.5,0.2,3.4000000000000004,6.300000000000001,28.3,-37.7,-5.7,16
284,4730.0,1.1,-1.1,-2.1,0.9,2.9000000000000004,6.9,8.700000000000001,-24.7,-11.3,16
285,4747.0,1.0,-1.1,-1.9000000000000001,0.9,2.9000000000000004,6.9,8.700000000000001,-24.7,-11.3,16
286,4763.0,0.8,-0.7000000000000001,-1.3,0.7000000000000001,3.1,7.4,3.3000000000000003,-14.800000000000002,-10.9,16
287,4780.0,1.0,-0.5,-0.6000000000000001,1.1,3.6,8.4,5.2,-33.5,-11.700000000000001,16
288,4797.0,1.1,-0.30000000000000004,-0.30000000000000004,1.1,3.6,8.4,5.2,-33.5,-11.700000000000001,16
289,4814.0,0.9,-0.1,0.5,1.1,3.9000000000000004,9.0,10.2,-41.1,-16.1,16
290,4830.0,0.5,-0.1,0.7000000000000001,0.8,4.0,9.4,22.000000000000004,-37.1,-15.8,16
291,4847.0,0.5,-0.1,0.6000000000000001,0.8,4.0,9.4,22.000000000000004,-37.1,-15.8,16
292,4864.0,0.4,0.0,0.2,0.8,4.5,9.0,18.7,-6.6000000000000005,-12.8,16
293,4881.0,0.5,0.6000000000000001,0.5,0.9,5.0,9.4,18.7,-6.6000000000000005,-12.8,16
294,4897.0,0.5,0.8,0.8,0.9,5.0,9.4,7.6,0.30000000000000004,-16.900000000000002,16
295,4914.0,0.2,0.9,2.1,0.2,5.2,11.200000000000001,-12.3,-9.9,-29.200000000000003,16
296,4930.0,-0.1,1.0,2.5,0.2,5.2,11.200000000000001,-12.3,-9.9,-29.200000000000003,16
297,4947.0,-0.4,1.0,2.5,-0.1,5.2,11.4,-5.4,-2.9,-27.6,16
298,4963.0,-0.4,0.7000000000000001,1.9000000000000001,-0.30000000000000004,4.7,10.3,19.500000000000004,32.2,-24.200000000000003,16
299,4980.0,-0.5,0.4,1.5,-0.30000000000000004,4.7,10.3,19.500000000000004,32.2,-24.200000000000003,16
300,4997.0,-1.3,0.2,1.5,-1.0,4.5,10.200000000000001,22.4,34.6,-27.6,16
301,5013.0,-2.3000000000000003,-0.2,1.8,-2.5,3.9000000000000004,10.4,20.5,-8.1,-32.4,16
302,5031.0,-2.4000000000000004,-0.6000000000000001,1.7000000000000002,-2.5,3.9000000000000004,10.4,20.5,-8.1,-32.4,16
303,5047.0,-2.4000000000000004,-1.2000000000000002,1.2000000000000002,-2.5,3.4000000000000004,10.100000000000001,20.3,-23.900000000000002,-31.900000000000002,16
304,5063.0,-2.5,-1.1,0.8,-2.6,3.4000000000000004,9.600000000000001,-4.9,-29.800000000000004,-18.400000000000002,16
305,5081.0,-2.5,-1.1,0.9,-2.6,3.4000000000000004,9.600000000000001,-4.9,-29.800000000000004,-18.400000000000002,16
306,5097.0,-2.1,-1.3,1.1,-2.3000000000000003,3.2,9.8,-20.7,-31.0,-8.5,16
307,5113.0,-1.6,-1.3,0.5,-1.6,3.1,9.0,-20.6,-21.6,3.0000000000000004,16
308,5130.0,-1.6,-1.2000000000000002,0.1,-1.6,3.1,9.0,-20.6,-21.6,3.0000000000000004,16
309,5147.0,-1.5,-1.2000000000000002,-1.1,-1.3,3.0,7.2,-7.699999999999999,-4.800000000000001,7.699999999999999,16
310,5164.0,-1.5,-1.2000000000000002,-1.7000000000000002,-1.3,3.0,7.2,-7.699999999999999,-4.800000000000001,7.699999999999999,16
311,5180.0,-1.4000000000000001,-1.3,-2.9000000000000004,-1.3,2.9000000000000004,6.1000000000000005,-4.1000000000000005,8.200000000000001,7.400000000000001,16
312,5197.0,-1.3,-1.2000000000000002,-3.6,-1.4000000000000001,3.0,5.5,-17.400000000000002,31.8,5.8,16
313,5214.0,-1.4000000000000001,-1.1,-3.2,-1.4000000000000001,3.0,5.5,-17.400000000000002,31.8,5.8,16
314,5230.0,-1.9000000000000001,-1.0,-1.6,-1.9000000000000001,3.0,6.800000000000001,-30.299999999999997,26.3,6.000000000000001,16
315,5246.0,-2.3000000000000003,-1.4000000000000001,0.1,-2.6,2.3000000000000003,9.200000000000001,-20.5,13.4,29.500000000000004,16
316,5263.0,-2.5,-1.6,0.4,-2.6,2.3000000000000003,9.200000000000001,-20.5,13.4,29.500000000000004,16
317,5280.0,-2.1,-1.8,-0.2,-2.4000000000000004,2.2,8.9,1.8,13.5,47.800000000000004,16
318,5297.0,-0.9,-1.7000000000000002,-1.6,-1.6,2.1,7.9,25.6,7.0,66.60000000000001,16
319,5314.0,-0.4,-1.5,-2.2,-0.6000000000000001,2.4000000000000004,6.7,25.6,7.0,66.60000000000001,16
320,5331.0,0.4,-1.2000000000000002,-2.4000000000000004,0.1,2.7,6.2,13.9,4.300000000000001,61.199999999999996,16
321,5347.0,0.8,-1.1,-1.4000000000000001,0.8,2.9000000000000004,7.6000000000000005,-18.7,11.8,27.5,16
322,5363.0,0.8,-1.0,-1.1,0.8,2.9000000000000004,7.6000000000000005,-18.7,11.8,27.5,16
323,5381.0,0.1,-0.9,0.0,0.30000000000000004,2.9000000000000004,8.4,-34.50000000000001,25.2,9.3,16
324,5397.0,-0.5,-0.6000000000000001,1.2000000000000002,-0.9,3.0,10.600000000000001,-69.4,37.5,-6.2,16
325,5414.0,-0.8,-0.5,2.0,-0.9,3.0,10.600000000000001,-69.4,37.5,-6.2,16
326,5430.0,-1.3,0.0,3.2,-1.7000000000000002,3.6,12.3,-64.4,39.00000000000001,16.2,16
327,5447.0,-1.3,0.5,3.2,-1.7000000000000002,3.6,12.3,-64.4,39.00000000000001,16.2,16
328,5464.0,-0.4,2.2,3.5,-1.1,4.9,12.5,-58.00000000000001,39.1,41.5,16
329,5480.0,1.3,3.6,5.4,1.7000000000000002,6.9,15.9,-59.00000000000001,-11.000000000000002,63.4,16
330,5498.0,2.2,4.1000000000000005,6.7,1.7000000000000002,6.9,15.9,-59.00000000000001,-11.000000000000002,63.4,16
331,5513.0,2.5,3.4000000000000004,7.800000000000001,2.3000000000000003,6.4,17.2,-39.1,-35.199999999999996,42.400000000000006,16
332,5530.0,0.8,1.7000000000000002,5.6000000000000005,-0.1,3.7,13.5,29.200000000000003,13.8,-12.100000000000001,16
333,5547.0,0.0,0.8,3.7,-0.1,3.7,13.5,29.200000000000003,13.8,-12.100000000000001,16
334,5563.0,-0.7000000000000001,-0.4,0.0,-0.9,2.7,10.3,43.50000000000001,61.4,-13.700000000000001,16
335,5580.0,-0.7000000000000001,-0.5,-1.6,-1.2000000000000002,2.5,7.800000000000001,33.6,75.0,15.2,16
336,5597.0,-0.2,-0.6000000000000001,-1.5,-1.2000000000000002,2.5,7.800000000000001,33.6,75.0,15.2,16
337,5614.0,1.4000000000000001,-1.1,-0.5,0.1,2.2,8.5,27.0,24.5,24.6,16
338,5630.0,1.9000000000000001,-1.1,0.8,1.3,2.0,10.600000000000001,20.8,-73.7,10.3,16
339,5649.0,1.9000000000000001,-1.3,1.4000000000000001,1.3,2.0,10.600000000000001,20.8,-73.7,10.3,16
340,5663.0,1.8,-2.2,1.9000000000000001,1.5,1.4000000000000001,11.200000000000001,20.3,-80.9,-1.5000000000000002,16
341,5680.0,0.6000000000000001,-2.1,0.6000000000000001,0.4,1.4000000000000001,9.1,28.500000000000004,6.9,3.1,16
342,5697.0,0.5,-1.9000000000000001,-0.6000000000000001,0.4,1.4000000000000001,9.1,28.500000000000004,6.9,3.1,16
343,5713.0,0.9,-1.4000000000000001,-3.2,0.5,2.5,5.0,28.200000000000003,64.9,13.0,16
344,5730.0,1.0,-1.1,-4.2,0.5,2.5,5.0,20.5,58.400000000000006,9.3,16
345,5747.0,1.1,-0.8,-5.1000000000000005,0.5,2.8000000000000003,4.1000000000000005,20.5,58.400000000000006,9.3,16
346,5763.0,0.8,-1.1,-4.7,-0.1,2.2,4.5,8.9,7.0,-2.8,16
347,5781.0,0.6000000000000001,-1.5,-4.4,-0.1,2.2,4.5,8.9,7.0,-2.8,16
348,5797.0,0.5,-1.9000000000000001,-3.7,-0.2,1.8,5.1000000000000005,9.3,-16.400000000000002,4.0,16
349,5814.0,0.7000000000000001,-1.8,-3.4000000000000004,0.6000000000000001,2.0,5.6000000000000005,20.6,-37.7,33.300000000000004,16
350,5831.0,1.1,-1.7000000000000002,-3.3000000000000003,0.6000000000000001,2.0,5.6000000000000005,20.6,-37.7,33.300000000000004,16
351,5847.0,2.1,-0.8,-3.0,1.5,2.8000000000000003,5.800000000000001,22.5,-46.2,39.300000000000004,16
352,5864.0,2.9000000000000004,0.0,-2.3000000000000003,3.0,4.0,6.7,15.100000000000001,-50.800000000000004,8.799999999999999,16
353,5880.0,3.0,0.2,-2.1,3.0,4.0,6.7,15.100000000000001,-50.800000000000004,8.799999999999999,16
354,5897.0,2.5,0.4,-1.2000000000000002,2.9000000000000004,4.3,7.2,4.6000000000000005,-37.6,-18.3,16
355,5913.0,1.0,0.6000000000000001,1.0,0.7000000000000001,4.5,10.700000000000001,-31.099999999999998,2.7,-59.7,16
356,5930.0,0.30000000000000004,0.8,2.3000000000000003,0.7000000000000001,4.5,10.700000000000001,-31.099999999999998,2.7,-59.7,16
357,5947.0,-0.7000000000000001,0.8,4.2,-0.30000000000000004,4.5,12.600000000000001,-33.800000000000004,19.0,-66.5,16
358,5963.0,-1.9000000000000001,1.1,4.5,-2.4000000000000004,5.0,13.3,-9.8,42.400000000000006,-55.900000000000006,16
359,5980.0,-2.1,1.5,4.3,-2.4000000000000004,5.0,13.3,-9.8,42.400000000000006,-55.900000000000006,16
360,5997.0,-1.7000000000000002,2.2,3.8000000000000003,-1.9000000000000001,6.1000000000000005,12.700000000000001,-8.9,37.2,-25.2,16
361,6014.0,-1.3,2.5,3.7,-1.4000000000000001,5.9,13.200000000000001,-8.9,37.2,-25.2,16
362,6030.0,-0.6000000000000001,2.1,4.3,-1.4000000000000001,5.9,13.200000000000001,-12.100000000000001,21.200000000000003,-24.9,16
363,6047.0,-1.4000000000000001,0.4,4.7,-2.6,3.2,13.600000000000001,2.4000000000000004,-7.2,-46.300000000000004,16
364,6064.0,-1.8,-0.5,4.5,-2.6,3.2,13.600000000000001,2.4000000000000004,-7.2,-46.300000000000004,16
365,6080.0,-2.7,-1.5,2.9000000000000004,-3.4000000000000004,2.3000000000000003,12.4,14.3,6.6000000000000005,-45.0,16
366,6097.0,-2.7,-1.7000000000000002,1.1,-3.6,2.2,9.600000000000001,14.200000000000001,41.300000000000004,-16.5,16
367,6114.0,-2.4000000000000004,-1.5,0.4,-3.6,2.2,9.600000000000001,14.200000000000001,41.300000000000004,-16.5,16
368,6130.0,-1.7000000000000002,-1.2000000000000002,-0.4,-3.1,2.4000000000000004,8.8,1.5000000000000002,30.9,-7.500000000000001,16
369,6146.0,-1.3,-1.2000000000000002,-0.1,-2.5,2.2,9.1,-29.000000000000004,-24.1,-5.9,16
370,6163.0,-1.2000000000000002,-1.3,0.0,-2.5,2.2,9.1,-29.000000000000004,-24.1,-5.9,16
371,6180.0,-1.3,-1.7000000000000002,-0.2,-2.4000000000000004,1.8,9.1,-33.6,-34.0,-4.5,16
372,6197.0,-1.6,-2.1,-1.2000000000000002,-2.7,1.1,7.6000000000000005,-23.1,-18.2,10.5,16
373,6213.0,-1.6,-2.2,-1.8,-2.7,1.1,7.6000000000000005,-23.1,-18.2,10.5,16
374,6230.0,-1.1,-2.1,-2.6,-2.3000000000000003,1.0,6.800000000000001,-17.200000000000003,-7.699999999999999,25.3,16
375,6247.0,-0.6000000000000001,-1.8,-2.5,-1.5,1.4000000000000001,6.6000000000000005,1.3,-8.700000000000001,33.800000000000004,16
376,6263.0,-0.5,-1.8,-2.6,-1.5,1.4000000000000001,6.6000000000000005,1.3,-8.700000000000001,33.800000000000004,16
377,6280.0,-0.8,-1.8,-3.0,-1.9000000000000001,1.3,6.0,12.4,-4.9,34.0,16
378,6297.0,-1.1,-1.9000000000000001,-3.2,-1.9000000000000001,1.3,6.0,12.4,-4.9,34.0,16
379,6314.0,-1.1,-1.7000000000000002,-3.2,-2.0,1.5,5.9,6.2,4.6000000000000005,43.400000000000006,16
380,6330.0,-0.7000000000000001,-1.2000000000000002,-2.7,-1.3,2.3000000000000003,6.800000000000001,-3.5,7.400000000000001,56.900000000000006,16
381,6347.0,-0.5,-0.9,-2.3000000000000003,-1.3,2.3000000000000003,6.800000000000001,-3.5,7.400000000000001,56.900000000000006,16
382,6363.0,-0.30000000000000004,-0.30000000000000004,-1.7000000000000002,-1.1,2.8000000000000003,7.2,-3.8,4.300000000000001,55.900000000000006,16
383,6380.0,0.2,0.1,-1.2000000000000002,-0.5,3.5,8.200000000000001,-0.6000000000000001,-3.8,38.400000000000006,16
384,6397.0,0.2,0.2,-0.8,-0.5,3.5,8.200000000000001,-0.6000000000000001,-3.8,38.400000000000006,16
385,6414.0,-0.4,0.5,-0.1,-0.8,3.7,8.8,2.4000000000000004,-7.0,23.900000000000002,16
386,6430.0,-0.7000000000000001,0.7000000000000001,-0.1,-1.3,4.1000000000000005,8.8,4.0,6.000000000000001,6.2,16
387,6447.0,-0.7000000000000001,0.9,-0.30000000000000004,-1.3,4.1000000000000005,8.8,4.0,6.000000000000001,6.2,16
388,6463.0,-0.9,1.4000000000000001,-0.1,-1.4000000000000001,4.5,8.8,-8.799999999999999,13.3,-1.7,16
389,6480.0,-1.3,1.8,1.7000000000000002,-2.3000000000000003,4.9,11.700000000000001,-45.7,1.6,-15.299999999999999,16
390,6497.0,-1.7000000000000002,1.8,2.9000000000000004,-2.3000000000000003,4.9,11.700000000000001,-45.7,1.6,-15.299999999999999,16
391,6513.0,-1.9000000000000001,1.6,4.800000000000001,-2.7,4.6000000000000005,13.4,-48.2,-4.300000000000001,-6.8,16
392,6530.0,-1.8,1.9000000000000001,5.300000000000001,-2.1,4.9,14.3,-10.8,-1.6,52.1,16
393,6550.0,0.0,2.1,4.3,-2.1,4.9,14.3,11.000000000000002,-6.1000000000000005,82.8,16
394,6563.0,1.4000000000000001,2.4000000000000004,4.0,2.0,5.7,13.100000000000001,19.8,-34.900000000000006,80.5,16
395,6580.0,2.5,2.7,3.7,2.0,5.7,13.100000000000001,19.8,-34.900000000000006,80.5,16
396,6597.0,2.6,1.9000000000000001,3.4000000000000004,2.5,5.300000000000001,12.8,18.8,-55.7,42.300000000000004,16
397,6613.0,1.0,-0.30000000000000004,2.6,0.2,1.9000000000000001,11.100000000000001,24.200000000000003,5.6,-20.7,16
398,6630.0,0.2,-1.4000000000000001,1.6,0.2,1.9000000000000001,11.100000000000001,24.200000000000003,5.6,-20.7,16
399,6647.0,-0.9,-3.0,-1.3,-0.9,0.6000000000000001,8.700000000000001,33.1,59.80000000000001,-21.1,16
400,6663.0,-1.0,-3.0,-2.8000000000000003,-1.6,0.8,6.2,22.1,75.9,17.0,16
401,6681.0,-0.9,-2.5,-3.0,-1.6,0.8,6.2,22.1,75.9,17.0,16
402,6697.0,0.4,-1.6,-1.9000000000000001,-0.7000000000000001,1.6,6.800000000000001,3.0000000000000004,30.299999999999997,27.400000000000002,16
403,6713.0,1.0,-1.4000000000000001,0.5,0.30000000000000004,1.7000000000000002,10.200000000000001,-25.6,-45.4,-2.1,16
404,6730.0,0.8,-1.7000000000000002,1.1,0.30000000000000004,1.7000000000000002,10.200000000000001,-25.6,-45.4,-2.1,16
405,6747.0,-0.2,-2.0,0.9,-0.4,1.3,10.4,-18.5,-20.7,-13.8,16
406,6763.0,-1.3,-1.7000000000000002,-1.0,-2.2,1.5,7.7,-7.6,60.20000000000001,-0.2,16
407,6781.0,-1.5,-1.6,-1.7000000000000002,-2.2,1.5,7.7,-7.6,60.20000000000001,-0.2,16
408,6797.0,-1.0,-1.0,-2.3000000000000003,-2.1,1.8,7.1000000000000005,-12.200000000000001,66.7,13.200000000000001,16
409,6814.0,-0.30000000000000004,-0.4,-1.7000000000000002,-1.7000000000000002,2.4000000000000004,7.0,-15.2,52.1,21.5,16
410,6830.0,-0.1,-0.4,-1.2000000000000002,-1.3,2.6,7.800000000000001,-13.4,24.6,24.7,16
411,6847.0,0.2,-0.7000000000000001,-0.8,-0.6000000000000001,2.3000000000000003,8.200000000000001,12.100000000000001,4.3999999999999995,39.699999999999996,16
412,6863.0,0.9,-0.7000000000000001,-1.4000000000000001,-0.6000000000000001,2.3000000000000003,8.200000000000001,12.100000000000001,4.3999999999999995,39.699999999999996,16
413,6880.0,1.2000000000000002,-0.6000000000000001,-1.6,0.0,2.4000000000000004,7.7,19.1,9.200000000000001,45.5,16
414,6897.0,2.1,-0.4,-1.7000000000000002,1.4000000000000001,2.9000000000000004,7.5,9.3,14.200000000000001,35.6,16
415,6914.0,2.5,-0.30000000000000004,-1.6,1.4000000000000001,2.9000000000000004,7.5,9.3,14.200000000000001,35.6,16
416,6930.0,2.5,-0.1,-1.6,1.5,3.0,7.5,1.9,21.1,16.8,16
417,6947.0,1.6,-0.1,-1.2000000000000002,0.1,2.9000000000000004,8.200000000000001,-12.8,31.099999999999998,-13.6,16
418,6964.0,1.2000000000000002,-0.30000000000000004,-0.9,0.1,2.9000000000000004,8.200000000000001,-12.8,31.099999999999998,-13.6,16
419,6980.0,0.7000000000000001,-0.5,-0.1,-0.4,2.6,8.8,-16.6,27.2,-14.3,16
420,6997.0,0.30000000000000004,-0.2,0.6000000000000001,-1.1,2.8000000000000003,9.700000000000001,-13.4,20.8,-6.1000000000000005,16
421,7014.0,0.30000000000000004,-0.2,0.6000000000000001,-1.1,2.8000000000000003,9.700000000000001,-13.4,20.8,-6.1000000000000005,16
422,7030.0,0.6000000000000001,0.2,0.8,-1.0,3.0,9.8,-11.6,19.6,0.2,16
423,7047.0,0.6000000000000001,0.8,1.9000000000000001,-0.9,3.9000000000000004,11.5,-11.1,-1.8,10.0,16
424,7064.0,0.6000000000000001,1.0,2.6,-0.9,3.9000000000000004,11.5,-11.1,-1.8,10.0,16
425,7080.0,0.6000000000000001,1.3,3.4000000000000004,-0.7000000000000001,4.3,12.4,14.800000000000002,-15.000000000000002,28.0,16
426,7097.0,0.7000000000000001,1.4000000000000001,3.2,-0.7000000000000001,4.3,12.4,14.800000000000002,-15.000000000000002,28.0,16
427,7114.0,1.5,1.6,2.0,0.0,4.6000000000000005,11.4,36.6,-1.3,40.8,16
428,7130.0,2.0,1.5,0.0,0.6000000000000001,4.7,8.4,50.4,22.8,17.1,16
429,7147.0,1.9000000000000001,1.3,-0.7000000000000001,0.6000000000000001,4.7,8.4,50.4,22.8,17.1,16
430,7163.0,1.4000000000000001,0.6000000000000001,-0.4,0.2,4.2,8.4,29.000000000000004,10.4,-8.5,16
431,7180.0,1.1,-0.6000000000000001,2.1,-0.30000000000000004,2.5,12.4,-18.1,-57.2,-46.0,16
432,7197.0,0.9,-1.0,3.5,-0.30000000000000004,2.5,12.4,-18.1,-57.2,-46.0,16
433,7214.0,0.5,-1.5,5.6000000000000005,-0.5,2.0,14.4,-18.5,-64.30000000000001,-55.7,16
434,7230.0,0.1,-1.9000000000000001,4.9,-0.9,1.3,13.4,6.2,-31.8,-57.699999999999996,16
435,7247.0,0.0,-2.0,3.9000000000000004,-0.9,1.3,13.4,6.2,-31.8,-57.699999999999996,16
436,7264.0,-0.30000000000000004,-1.6,1.9000000000000001,-1.2000000000000002,1.5,11.700000000000001,4.6000000000000005,-14.200000000000001,-51.5,16
437,7280.0,-0.5,-1.3,0.4,-1.5,1.9000000000000001,9.200000000000001,-6.7,7.6,-38.900000000000006,16
438,7298.0,-0.5,-1.4000000000000001,-0.30000000000000004,-1.5,1.9000000000000001,9.200000000000001,-6.7,7.6,-38.900000000000006,16
439,7314.0,-0.6000000000000001,-1.5,-1.6,-1.7000000000000002,1.7000000000000002,8.0,-2.1999999999999997,15.2,-33.7,16
440,7330.0,-0.8,-1.4000000000000001,-2.6,-2.0,1.8,6.4,6.4,5.9,-16.1,16
441,7347.0,-0.8,-1.4000000000000001,-2.9000000000000004,-2.0,1.8,6.4,6.4,5.9,-16.1,16
442,7364.0,-0.8,-1.2000000000000002,-3.1,-1.8,1.9000000000000001,6.1000000000000005,5.6,-21.8,2.0,16
443,7380.0,-0.5,-1.4000000000000001,-2.9000000000000004,-1.8,1.9000000000000001,6.1000000000000005,5.6,-21.8,2.0,16
444,7397.0,-0.4,-1.4000000000000001,-2.7,-1.5,1.8,6.4,2.0,-26.9,9.200000000000001,16
445,7413.0,-0.1,-1.1,-2.5,-1.0,2.2,6.5,-2.7,-12.3,16.700000000000003,16
446,7430.0,0.0,-0.9,-2.6,-1.0,2.2,6.5,-2.7,-12.3,16.700000000000003,16
447,7451.0,0.1,-0.5,-2.6,-0.9,2.6,6.5,-8.0,-17.400000000000002,8.3,16
448,7463.0,-0.1,0.0,-2.5,-1.1,3.2,6.9,-13.4,-23.8,2.8,16
449,7480.0,-0.30000000000000004,0.0,-2.2,-1.1,3.2,6.9,-13.4,-23.8,2.8,16
450,7497.0,-0.4,0.2,-1.1,-1.1,3.2,7.800000000000001,-18.2,-27.6,0.8,16
451,7513.0,-0.2,0.4,-0.30000000000000004,-0.9,3.4000000000000004,8.8,-11.700000000000001,-5.9,-7.400000000000001,16
452,7530.0,-0.1,0.5,-0.4,-0.9,3.4000000000000004,8.8,-11.700000000000001,-5.9,-7.400000000000001,16
453,7547.0,-0.6000000000000001,0.4,-1.0,-1.1,3.4000000000000004,8.3,-5.4,6.1000000000000005,-11.9,16
454,7563.0,-0.9,0.5,-1.0,-1.7000000000000002,3.5,8.3,-5.500000000000001,-5.300000000000001,-14.200000000000001,16
455,7580.0,-1.0,0.5,-0.8,-1.7000000000000002,3.5,8.3,-5.500000000000001,-5.300000000000001,-14.200000000000001,16
456,7597.0,-1.0,0.5,0.2,-1.7000000000000002,3.5,9.1,-10.700000000000001,-17.200000000000003,-13.5,16
457,7613.0,-0.9,0.4,1.5,-1.5,3.3000000000000003,11.100000000000001,-13.200000000000001,-29.500000000000004,-12.6,16
458,7630.0,-0.9,0.5,2.0,-1.5,3.3000000000000003,11.100000000000001,-13.200000000000001,-29.500000000000004,-12.6,16
459,7647.0,-0.9,1.0,2.7,-1.5,4.3,12.200000000000001,-7.8,-22.7,0.5,16
460,7663.0,-1.0,1.5,2.9000000000000004,-1.5,4.3,12.200000000000001,-7.8,-22.7,0.5,16
461,7680.0,-1.0,2.3000000000000003,3.4000000000000004,-1.4000000000000001,5.0,12.600000000000001,-3.5,-27.5,12.4,16
462,7697.0,-0.1,2.7,3.6,0.6000000000000001,5.9,13.100000000000001,13.100000000000001,-49.0,34.50000000000001,16
463,7713.0,0.9,3.0,3.8000000000000003,0.6000000000000001,5.9,13.100000000000001,13.100000000000001,-49.0,34.50000000000001,16
464,7730.0,2.0,2.9000000000000004,3.7,1.9000000000000001,6.0,13.200000000000001,18.6,-53.1,20.7,16
465,7747.0,1.0,1.3,2.5,0.5,3.7,10.8,33.0,2.0,-22.6,16
466,7764.0,0.30000000000000004,0.4,1.3,0.5,3.7,10.8,33.0,2.0,-22.6,16
467,7780.0,-0.6000000000000001,-0.7000000000000001,-0.9,-0.4,2.8000000000000003,8.9,34.6,37.1,-26.0,16
468,7797.0,-1.1,-1.0,-1.6,-1.4000000000000001,2.3000000000000003,8.0,16.2,33.6,-6.9,16
469,7814.0,-1.1,-1.0,-1.1,-1.4000000000000001,2.3000000000000003,8.0,16.2,33.6,-6.9,16
470,7830.0,-0.30000000000000004,-1.2000000000000002,0.2,-0.8,2.2,9.1,9.1,-2.4000000000000004,4.6000000000000005,16
471,7847.0,0.5,-1.2000000000000002,0.6000000000000001,0.4,2.3000000000000003,9.600000000000001,15.100000000000001,-21.6,12.100000000000001,16
472,7865.0,0.6000000000000001,-1.1,0.30000000000000004,0.4,2.3000000000000003,9.600000000000001,15.100000000000001,-21.6,12.100000000000001,16
473,7880.0,0.4,-0.5,-0.9,0.30000000000000004,2.7,8.700000000000001,13.0,-1.5000000000000002,7.699999999999999,16
474,7897.0,0.1,-0.2,-2.1,-0.30000000000000004,3.1,6.9,-9.1,33.5,-6.3,16
475,7913.0,-0.1,-0.30000000000000004,-2.4000000000000004,-0.30000000000000004,3.1,6.9,-9.1,33.5,-6.3,16
476,7930.0,-0.2,-0.6000000000000001,-2.6,-0.7000000000000001,2.7,6.800000000000001,-15.8,23.8,-13.4,16
477,7947.0,-0.30000000000000004,-0.8,-2.1,-0.9,2.5,7.300000000000001,-15.8,23.8,-13.4,16
478,7964.0,-0.4,-0.9,-1.7000000000000002,-0.9,2.5,7.300000000000001,-11.4,13.200000000000001,-13.4,16
479,7980.0,-0.6000000000000001,-1.2000000000000002,-1.4000000000000001,-1.1,2.1,7.6000000000000005,5.4,13.4,3.2,16
480,7998.0,-0.5,-1.2000000000000002,-1.6,-1.1,2.1,7.6000000000000005,5.4,13.4,3.2,16
481,8013.0,0.0,-0.8,-1.9000000000000001,-0.7000000000000001,2.4000000000000004,7.300000000000001,7.699999999999999,17.5,14.100000000000001,16
482,8030.0,0.7000000000000001,-0.4,-1.9000000000000001,0.2,3.1,7.2,1.7,10.600000000000001,20.6,16
483,8047.0,0.8,-0.2,-1.9000000000000001,0.2,3.1,7.2,1.7,10.600000000000001,20.6,16
484,8063.0,0.8,0.1,-1.6,0.2,3.3000000000000003,7.4,0.8,7.6,16.1,16
485,8080.0,0.6000000000000001,0.1,-1.1,-0.1,3.5,8.1,-1.0999999999999999,12.700000000000001,15.399999999999999,16
486,8098.0,0.5,0.1,-1.0,-0.1,3.5,8.1,-1.0999999999999999,12.700000000000001,15.399999999999999,16
487,8113.0,0.6000000000000001,0.4,-0.6000000000000001,-0.1,3.7,8.4,0.0,17.1,22.4,16
488,8130.0,1.3,1.0,-0.1,0.8,4.5,9.0,3.1,5.6,23.0,16
489,8147.0,1.6,1.2000000000000002,-0.1,0.8,4.5,9.0,3.1,5.6,23.0,16
490,8163.0,1.5,1.2000000000000002,0.6000000000000001,1.0,4.6000000000000005,9.4,0.1,-3.6,10.8,16
491,8180.0,0.8,1.2000000000000002,1.9000000000000001,-0.1,4.5,11.5,-15.5,-3.7000000000000006,-8.799999999999999,16
492,8197.0,0.4,1.1,2.6,-0.1,4.5,11.5,-15.5,-3.7000000000000006,-8.799999999999999,16
493,8213.0,0.1,1.3,3.4000000000000004,-0.2,4.800000000000001,12.3,-6.7,24.9,10.3,16
494,8230.0,1.0,1.5,2.6,0.5,4.7,11.600000000000001,4.3999999999999995,22.7,9.4,16
495,8247.0,1.3,1.3,2.3000000000000003,0.5,4.7,11.600000000000001,4.3999999999999995,22.7,9.4,16
496,8263.0,0.8,0.6000000000000001,2.4000000000000004,-0.30000000000000004,3.4000000000000004,11.9,-0.4,-23.2,-25.1,16
497,8280.0,0.4,0.0,2.7,-0.30000000000000004,3.4000000000000004,11.9,-0.4,-23.2,-25.1,16
498,8297.0,-0.4,-1.1,3.1,-0.9,2.4000000000000004,12.3,-2.5,-21.3,-32.0,16
499,8314.0,-0.9,-2.0,1.9000000000000001,-1.7000000000000002,1.2000000000000002,10.3,11.5,23.8,-20.0,16
500,8331.0,-0.9,-2.2,0.9,-1.7000000000000002,1.2000000000000002,10.3,11.5,23.8,-20.0,16
501,8350.0,-0.7000000000000001,-1.7000000000000002,-0.7000000000000001,-1.6,1.5,8.9,11.8,27.6,-8.5,16
502,8363.0,0.30000000000000004,-1.0,-0.7000000000000001,-0.30000000000000004,2.5,9.200000000000001,-17.3,-22.900000000000002,-9.9,16
503,8381.0,0.6000000000000001,-0.8,0.1,-0.30000000000000004,2.5,9.200000000000001,-17.3,-22.900000000000002,-9.9,16
504,8397.0,0.9,-0.8,1.7000000000000002,0.1,2.4000000000000004,10.600000000000001,-33.400000000000006,-38.800000000000004,-23.1,16
505,8413.0,0.2,-1.0,1.7000000000000002,-1.0,2.0,10.4,-28.700000000000003,5.1,-43.0,16
506,8430.0,-0.4,-1.0,0.8,-1.0,2.0,10.4,-28.700000000000003,5.1,-43.0,16
507,8447.0,-1.2000000000000002,-0.9,-1.3,-1.9000000000000001,2.0,8.6,-23.900000000000002,32.800000000000004,-40.8,16
508,8463.0,-1.2000000000000002,-1.0,-2.4000000000000004,-2.3000000000000003,1.8,7.0,-30.000000000000004,33.0,-19.8,16
509,8480.0,-1.1,-0.9,-2.4000000000000004,-2.3000000000000003,1.8,7.0,-30.000000000000004,33.0,-19.8,16
510,8497.0,-0.4,-0.6000000000000001,-1.4000000000000001,-1.4000000000000001,1.9000000000000001,8.5,-22.5,-15.6,-7.6,16
511,8514.0,-0.2,-0.7000000000000001,-0.9,-1.4000000000000001,1.9000000000000001,8.5,-22.5,-15.6,-7.6,16
512,8530.0,-0.4,-1.1,-0.6000000000000001,-1.5,1.5,8.8,-13.100000000000001,-21.700000000000003,-2.5,16
513,8547.0,-0.8,-1.2000000000000002,-1.1,-2.0,1.5,7.6000000000000005,8.600000000000001,3.2,22.900000000000002,16
514,8563.0,-0.9,-1.0,-1.8,-2.0,1.5,7.6000000000000005,8.600000000000001,3.2,22.900000000000002,16
515,8580.0,-0.30000000000000004,-0.5,-2.6,-1.5,2.0,6.9,10.3,6.5,36.9,16
516,8597.0,0.2,0.1,-2.4000000000000004,-0.5,2.9000000000000004,7.2,0.4,-17.400000000000002,40.9,16
517,8614.0,0.5,0.30000000000000004,-2.1,-0.5,2.9000000000000004,7.2,0.4,-17.400000000000002,40.9,16
518,8630.0,0.9,0.5,-0.9,0.0,3.0,8.1,-2.4000000000000004,-25.400000000000002,31.0,16
519,8647.0,0.8,0.4,-0.1,-0.2,3.1,9.200000000000001,-1.2000000000000002,-12.000000000000002,6.000000000000001,16
520,8663.0,0.4,0.4,-0.1,-0.2,3.1,9.200000000000001,-1.2000000000000002,-12.000000000000002,6.000000000000001,16
521,8680.0,-0.5,0.4,-0.6000000000000001,-0.9,3.1,8.9,-1.6,0.9,-1.3,16
522,8697.0,-0.9,0.4,-0.2,-1.6,2.9000000000000004,9.5,-17.200000000000003,-4.0,1.2000000000000002,16
523,8713.0,-0.8,0.4,0.30000000000000004,-1.6,2.9000000000000004,9.5,-17.200000000000003,-4.0,1.2000000000000002,16
524,8730.0,-0.5,0.30000000000000004,1.6,-1.3,2.8000000000000003,10.5,-19.500000000000004,-15.7,7.9,16
525,8746.0,-0.2,0.8,2.5,-0.7000000000000001,3.3000000000000003,11.8,-13.6,-26.1,15.2,16
526,8763.0,-0.2,0.9,2.4000000000000004,-0.7000000000000001,3.3000000000000003,11.8,-0.2,-32.800000000000004,22.7,16
527,8780.0,-0.1,1.4000000000000001,1.7000000000000002,-0.30000000000000004,4.3,10.700000000000001,20.2,-32.9,42.0,16
528,8797.0,0.0,1.7000000000000002,1.3,-0.30000000000000004,4.3,10.700000000000001,20.2,-32.9,42.0,16
529,8814.0,1.0,2.1,1.0,0.6000000000000001,4.7,10.4,14.100000000000001,-32.7,48.400000000000006,16
530,8830.0,2.9000000000000004,2.6,2.2,3.2,5.1000000000000005,12.200000000000001,-18.900000000000002,-53.6,4.6000000000000005,16
531,8847.0,3.0,2.4000000000000004,2.7,3.2,5.1000000000000005,12.200000000000001,-18.900000000000002,-53.6,4.6000000000000005,16
532,8864.0,1.2000000000000002,0.6000000000000001,3.3000000000000003,2.0,3.6,12.700000000000001,-27.2,-29.800000000000004,-36.5,16
533,8880.0,-1.2000000000000002,-1.2000000000000002,1.3,-1.8,0.9,9.4,3.1,67.5,-58.00000000000001,16
534,8897.0,-2.0,-1.6,-0.30000000000000004,-1.8,0.9,9.4,3.1,67.5,-58.00000000000001,16
535,8913.0,-3.1,-1.3,-2.9000000000000004,-3.2,1.0,7.1000000000000005,18.7,91.4,-36.4,16
536,8930.0,-2.4000000000000004,-1.0,-3.6,-2.1,1.8,6.300000000000001,20.8,18.1,23.400000000000002,16
537,8948.0,-1.3,-0.9,-3.0,-2.1,1.8,6.300000000000001,20.8,18.1,23.400000000000002,16
538,8964.0,0.4,-0.30000000000000004,-0.30000000000000004,-0.5,2.2,8.3,10.600000000000001,-52.1,28.6,16
539,8980.0,1.5,-0.4,1.8,1.7000000000000002,2.0,11.4,-3.3000000000000003,-97.10000000000001,9.3,16
540,8997.0,1.6,-0.8,2.0,1.7000000000000002,2.0,11.4,-3.3000000000000003,-97.10000000000001,9.3,16
541,9014.0,0.5,-0.9,0.9,1.2000000000000002,1.8,10.9,-2.1999999999999997,-56.900000000000006,-2.9,16
542,9030.0,-0.30000000000000004,-0.6000000000000001,-0.2,-0.5,2.5,7.800000000000001,-7.0,-3.0000000000000004,-2.0,16
543,9047.0,-0.8,0.0,-1.8,-0.5,2.5,7.800000000000001,-23.400000000000002,30.5,10.0,16
544,9064.0,-0.4,0.5,-1.4000000000000001,0.1,2.8000000000000003,8.700000000000001,-42.800000000000004,3.9,15.000000000000002,16
545,9080.0,0.1,0.30000000000000004,0.1,0.4,2.5,10.200000000000001,-24.200000000000003,-17.9,10.5,16
546,9097.0,0.2,0.1,1.0,0.4,2.5,10.200000000000001,-24.200000000000003,-17.9,10.5,16
547,9113.0,-0.2,-0.30000000000000004,1.0,0.2,1.9000000000000001,9.600000000000001,44.6,-27.7,18.400000000000002,16
548,9130.0,-0.1,-0.5,0.0,0.2,1.9000000000000001,9.600000000000001,44.6,-27.7,18.400000000000002,16
549,9147.0,-0.2,-0.1,-2.2,0.30000000000000004,2.3000000000000003,7.7,59.60000000000001,-15.5,26.500000000000004,16
550,9163.0,0.0,0.30000000000000004,-2.9000000000000004,0.9,3.0,6.7,30.7,-4.0,35.6,16
551,9181.0,0.4,0.2,-2.6,0.9,3.0,6.7,30.7,-4.0,35.6,16
552,9197.0,1.1,0.30000000000000004,-1.6,1.5,3.1,7.5,19.0,-1.6,32.300000000000004,16
553,9213.0,1.3,0.4,-0.6000000000000001,1.9000000000000001,3.4000000000000004,8.9,28.0,-2.6,13.200000000000001,16
554,9230.0,1.3,0.4,-0.2,1.9000000000000001,3.4000000000000004,8.9,28.0,-2.6,13.200000000000001,16
555,9249.0,1.2000000000000002,0.30000000000000004,-0.4,1.9000000000000001,3.4000000000000004,8.9,36.5,-4.7,5.4,16
556,9263.0,0.7000000000000001,0.4,-1.1,1.3,3.8000000000000003,7.9,25.5,3.8,-3.2,16
557,9280.0,0.6000000000000001,0.6000000000000001,-1.3,1.3,3.8000000000000003,7.9,25.5,3.8,-3.2,16
558,9297.0,0.7000000000000001,0.9,-0.6000000000000001,1.3,4.1000000000000005,8.1,5.6,3.6,-7.699999999999999,16
559,9313.0,0.5,1.0,1.3,1.0,4.2,11.100000000000001,-27.1,8.700000000000001,-14.700000000000001,16
560,9330.0,0.30000000000000004,1.0,2.2,1.0,4.2,11.100000000000001,-27.1,8.700000000000001,-14.700000000000001,16
561,9347.0,0.1,1.4000000000000001,2.9000000000000004,1.0,4.6000000000000005,11.9,-7.500000000000001,24.7,6.7,16
562,9363.0,0.5,1.5,2.7,1.0,4.6000000000000005,11.9,-7.500000000000001,24.7,6.7,16
563,9381.0,1.2000000000000002,1.3,1.5,1.5,4.5,11.0,9.4,26.1,7.500000000000001,16
564,9397.0,0.4,0.7000000000000001,0.8,0.4,3.5,10.0,6.5,1.4,-22.8,16
565,9413.0,-0.1,0.2,0.7000000000000001,0.4,3.5,10.0,6.5,1.4,-22.8,16
566,9430.0,-1.0,-0.8,1.3,-0.5,2.7,10.4,-3.8,-1.2000000000000002,-29.700000000000003,16
567,9447.0,-1.8,-1.6,1.7000000000000002,-1.7000000000000002,1.5,10.9,-2.8,11.6,-13.700000000000001,16
568,9464.0,-2.0,-1.7000000000000002,1.6,-1.7000000000000002,1.5,10.9,-2.8,11.6,-13.700000000000001,16
569,9480.0,-1.6,-1.5,0.7000000000000001,-1.6,1.6,10.200000000000001,2.1,16.700000000000003,3.6,16
570,9497.0,-0.30000000000000004,-1.1,0.4,0.30000000000000004,2.1,10.100000000000001,-14.500000000000002,-7.0,18.6,16
571,9514.0,0.2,-1.0,0.8,0.30000000000000004,2.1,10.100000000000001,-14.500000000000002,-7.0,18.6,16
572,9530.0,0.7000000000000001,-1.0,1.7000000000000002,0.9,2.1,10.8,-25.700000000000003,-19.6,13.200000000000001,16
573,9547.0,0.30000000000000004,-1.3,1.3,0.30000000000000004,1.7000000000000002,10.200000000000001,-18.8,-5.6,-2.6,16
574,9565.0,-0.2,-1.2000000000000002,0.6000000000000001,0.30000000000000004,1.7000000000000002,10.200000000000001,-18.8,-5.6,-2.6,16
575,9580.0,-1.1,-0.8,-1.0,-0.6000000000000001,1.9000000000000001,8.8,-18.400000000000002,12.700000000000001,-1.0999999999999999,16
576,9597.0,-1.3,-0.6000000000000001,-1.6,-1.0,2.2,7.9,-31.099999999999998,25.5,13.200000000000001,16
577,9614.0,-1.1,-0.5,-1.5,-1.0,2.2,7.9,-31.099999999999998,25.5,13.200000000000001,16
578,9630.0,-0.9,-0.2,-0.8,-0.9,2.4000000000000004,8.700000000000001,-21.0,18.6,23.2,16
579,9647.0,-0.9,-0.2,-0.9,-0.9,2.4000000000000004,8.700000000000001,-21.0,18.6,23.2,16
580,9663.0,-0.9,-0.2,-1.4000000000000001,-0.9,2.3000000000000003,8.200000000000001,-6.2,18.7,29.600000000000005,16
581,9680.0,-1.4000000000000001,-0.2,-2.6,-1.5,2.3000000000000003,6.6000000000000005,6.1000000000000005,21.3,47.2,16
582,9697.0,-1.4000000000000001,-0.2,-2.9000000000000004,-1.5,2.3000000000000003,6.6000000000000005,6.1000000000000005,21.3,47.2,16
583,9713.0,-1.4000000000000001,0.30000000000000004,-2.8000000000000003,-1.5,2.7,6.5,-0.5,18.8,59.20000000000001,16
584,9730.0,-0.6000000000000001,0.7000000000000001,-1.9000000000000001,-0.5,3.4000000000000004,7.9,-6.3,7.500000000000001,69.4,16
585,9747.0,-0.5,0.9,-1.5,-0.5,3.4000000000000004,7.9,-6.3,7.500000000000001,69.4,16
586,9763.0,-0.30000000000000004,1.1,-0.8,-0.30000000000000004,3.6,8.5,-1.2000000000000002,1.2000000000000002,64.10000000000001,16
587,9780.0,-0.7000000000000001,1.1,-0.5,-0.9,3.6,9.0,0.7,5.1,56.5,16
588,9797.0,-1.1,1.1,-0.30000000000000004,-0.9,3.6,9.0,0.7,5.1,56.5,16
589,9813.0,-1.4000000000000001,0.9,0.4,-1.3,3.5,9.5,-4.800000000000001,11.6,57.5,16
590,9830.0,-1.0,0.7000000000000001,1.0,-0.9,3.1,10.600000000000001,-13.9,16.6,62.0,16
591,9846.0,-0.9,0.6000000000000001,1.3,-0.9,3.1,10.600000000000001,-13.9,16.6,62.0,16
592,9863.0,-1.0,0.4,1.7000000000000002,-0.9,2.9000000000000004,11.0,-12.5,13.8,63.2,16
593,9880.0,-1.3,0.2,2.0,-1.1,2.5,11.600000000000001,0.5,-5.1,69.3,16
594,9897.0,-1.2000000000000002,0.0,2.2,-1.1,2.5,11.600000000000001,0.5,-5.1,69.3,16
595,9913.0,-1.0,-0.30000000000000004,2.5,-0.30000000000000004,1.9000000000000001,11.8,11.4,-4.2,86.60000000000001,16
596,9931.0,0.2,-0.7000000000000001,2.0,-0.30000000000000004,1.9000000000000001,11.8,11.4,-4.2,86.60000000000001,16
597,9946.0,1.0,-0.4,1.8,1.0,2.0,11.3,9.0,-3.0000000000000004,90.5,16
598,9963.0,2.2,0.30000000000000004,2.7,2.7,2.5,12.8,-29.500000000000004,-6.3,48.2,16
599,9981.0,2.2,0.1,3.3000000000000003,2.7,2.5,12.8,-33.400000000000006,19.6,22.000000000000004,16
600,9997.0,0.7000000000000001,-1.0,3.6,1.6,1.5,13.200000000000001,-33.400000000000006,19.6,22.000000000000004,16
601,10013.0,-0.7000000000000001,-2.2,1.8,-0.8,-0.2,10.200000000000001,13.200000000000001,76.2,31.099999999999998,16
602,10031.0,-1.0,-2.4000000000000004,0.4,-0.8,-0.2,10.200000000000001,13.200000000000001,76.2,31.099999999999998,16
603,10047.0,-0.7000000000000001,-2.3000000000000003,-1.5,-0.9,-0.1,8.5,37.4,63.800000000000004,58.5,16
604,10063.0,1.1,-1.6,-2.1,2.1,1.3,7.6000000000000005,50.0,-28.700000000000003,83.10000000000001,16
605,10080.0,2.2,-1.1,-1.8,2.1,1.3,7.6000000000000005,50.0,-28.700000000000003,83.10000000000001,16
606,10097.0,3.2,-0.4,-0.6000000000000001,3.4000000000000004,2.1,8.5,35.199999999999996,-57.699999999999996,61.900000000000006,16
607,10113.0,2.8000000000000003,-0.8,0.5,3.6,2.2,9.4,0.6000000000000001,-22.3,5.500000000000001,16
608,10130.0,2.2,-1.2000000000000002,0.8,3.0,1.6,10.200000000000001,0.6000000000000001,-22.3,5.500000000000001,16
609,10147.0,1.1,-1.5,0.1,2.0,1.2000000000000002,9.9,-5.6,14.0,-9.0,16
610,10163.0,0.7000000000000001,-1.5,-0.6000000000000001,1.1,1.1,8.700000000000001,-14.900000000000002,50.300000000000004,1.9,16
611,10180.0,0.8,-1.5,-0.8,1.1,1.1,8.700000000000001,-14.900000000000002,50.300000000000004,1.9,16
612,10197.0,1.2000000000000002,-1.3,-1.3,1.7000000000000002,1.3,8.0,4.9,18.7,11.700000000000001,16
613,10214.0,1.9000000000000001,-1.1,-1.5,1.7000000000000002,1.3,8.0,4.9,18.7,11.700000000000001,16
614,10230.0,2.4000000000000004,-1.0,-1.5,2.4000000000000004,1.5,7.9,13.5,3.3000000000000003,9.700000000000001,16
615,10247.0,2.8000000000000003,-0.7000000000000001,-1.6,2.9000000000000004,2.1,7.6000000000000005,18.5,14.3,-7.400000000000001,16
616,10263.0,2.6,-0.6000000000000001,-1.8,2.9000000000000004,2.1,7.6000000000000005,18.5,14.3,-7.400000000000001,16
617,10280.0,2.0,-0.5,-2.6,2.4000000000000004,2.2,7.0,15.9,28.700000000000003,-17.400000000000002,16
618,10297.0,1.7000000000000002,-0.4,-2.9000000000000004,1.6,2.4000000000000004,6.6000000000000005,5.0,40.0,-23.6,16
619,10313.0,1.6,-0.2,-2.7,1.6,2.4000000000000004,6.6000000000000005,5.0,40.0,-23.6,16
620,10330.0,1.6,0.30000000000000004,-2.1,1.5,2.9000000000000004,7.1000000000000005,2.1999999999999997,30.4,-22.1,16
621,10346.0,1.4000000000000001,0.6000000000000001,-1.3,1.2000000000000002,3.4000000000000004,8.200000000000001,13.3,1.8,-19.0,16
622,10363.0,1.4000000000000001,0.6000000000000001,-1.1,1.2000000000000002,3.4000000000000004,8.200000000000001,13.3,1.8,-19.0,16
623,10380.0,1.3,0.9,-1.2000000000000002,1.2000000000000002,3.6,8.200000000000001,23.0,-5.2,-17.0,16
624,10397.0,1.3,1.3,-1.6,1.1,4.3,7.7,18.6,-6.2,-22.5,16
625,10414.0,1.3,1.3,-1.5,1.1,4.3,7.7,18.6,-6.2,-22.5,16
626,10430.0,1.0,1.3,-0.4,1.0,4.3,8.3,0.9,-6.8,-33.1,16
627,10446.0,-0.1,1.1,1.8,0.30000000000000004,4.2,9.9,-17.599999999999998,-7.9,-45.0,16
628,10463.0,-0.8,1.0,2.8000000000000003,-0.8,4.0,11.700000000000001,-24.400000000000002,-8.0,-47.300000000000004,16
629,10480.0,-1.5,0.9,3.8000000000000003,-1.6,3.8000000000000003,12.8,-1.0,15.7,-8.700000000000001,16
630,10497.0,-0.8,1.3,2.9000000000000004,-1.6,3.8000000000000003,12.8,-1.0,15.7,-8.700000000000001,16
631,10513.0,-0.30000000000000004,1.7000000000000002,2.4000000000000004,-0.9,4.4,11.9,11.700000000000001,22.2,11.9,16
632,10530.0,0.1,2.0,2.7,-0.4,4.5,12.9,-6.000000000000001,-26.700000000000003,-2.0,16
633,10547.0,0.0,1.5,3.6,-0.4,4.5,12.9,-6.000000000000001,-26.700000000000003,-2.0,16
634,10563.0,-1.2000000000000002,-0.2,5.2,-1.1,3.1,14.3,-15.7,-39.1,-16.400000000000002,16
635,10580.0,-2.6,-1.7000000000000002,4.4,-3.2,0.8,12.8,14.500000000000002,15.2,5.1,16
636,10597.0,-3.1,-2.1,3.1,-3.2,0.8,12.8,14.500000000000002,15.2,5.1,16
637,10614.0,-3.5,-1.8,0.30000000000000004,-3.8000000000000003,1.0,10.5,31.8,44.3,35.3,16
638,10630.0,-2.9000000000000004,-1.2000000000000002,-1.5,-2.8000000000000003,2.1,7.5,33.5,17.7,84.4,16
639,10648.0,-2.2,-1.0,-2.0,-2.8000000000000003,2.1,7.5,33.5,17.7,84.4,16
640,10663.0,-0.7000000000000001,-0.4,-1.7000000000000002,-1.5,2.6,7.4,24.7,-15.2,90.2,16
641,10680.0,-0.2,-0.4,-0.6000000000000001,-0.2,2.9000000000000004,9.0,2.9,-46.2,68.0,16
642,10697.0,-0.2,-0.4,-0.2,-0.2,2.9000000000000004,9.0,2.9,-46.2,68.0,16
643,10713.0,-0.2,-0.2,0.8,0.0,3.0,9.8,-7.2,-38.6,58.400000000000006,16
644,10730.0,-0.30000000000000004,-0.30000000000000004,1.0,0.1,2.8000000000000003,10.0,-9.700000000000001,-7.6,45.1,16
645,10747.0,-0.2,-0.4,0.5,0.1,2.8000000000000003,10.0,-9.700000000000001,-7.6,45.1,16
646,10763.0,-0.2,-0.4,-1.1,0.0,2.7,7.6000000000000005,-1.5000000000000002,14.600000000000001,33.400000000000006,16
647,10780.0,-0.30000000000000004,-0.5,-2.2,0.1,2.7,6.9,-1.5000000000000002,14.600000000000001,33.400000000000006,16
648,10797.0,-0.30000000000000004,-0.5,-2.4000000000000004,0.1,2.7,6.9,-4.6000000000000005,12.3,29.1,16
649,10813.0,-0.1,-0.6000000000000001,-2.3000000000000003,0.4,2.4000000000000004,7.4,-9.4,-0.6000000000000001,21.5,16
650,10830.0,0.0,-0.7000000000000001,-1.9000000000000001,0.4,2.4000000000000004,7.4,-9.4,-0.6000000000000001,21.5,16
651,10846.0,0.2,-0.8,-1.5,0.6000000000000001,2.3000000000000003,7.800000000000001,-1.3,-2.7,19.9,16
652,10863.0,0.1,-0.6000000000000001,-2.4000000000000004,0.4,2.5,6.4,23.0,5.500000000000001,12.8,16
653,10881.0,0.0,-0.6000000000000001,-2.9000000000000004,0.4,2.5,6.4,23.0,5.500000000000001,12.8,16
654,10897.0,0.0,-0.4,-3.4000000000000004,0.5,2.8000000000000003,5.9,19.400000000000002,6.5,9.700000000000001,16
655,10913.0,0.1,-0.1,-2.9000000000000004,0.5,3.1,6.7,-3.6,2.1999999999999997,-4.2,16
656,10930.0,0.1,0.0,-2.3000000000000003,0.5,3.1,6.7,-3.6,2.1999999999999997,-4.2,16
657,10947.0,-0.1,-0.2,-1.2000000000000002,0.4,3.0,7.6000000000000005,-9.5,0.7,-13.8,16
658,10963.0,-0.5,-0.30000000000000004,-0.4,-0.4,2.8000000000000003,8.9,-4.1000000000000005,11.2,-24.200000000000003,16
659,10980.0,-0.8,-0.4,-0.2,-0.4,2.8000000000000003,8.9,-4.1000000000000005,11.2,-24.200000000000003,16
660,10997.0,-0.9,-0.4,-0.2,-0.6000000000000001,2.8000000000000003,9.0,-1.3,11.9,-21.1,16
661,11013.0,-0.8,-0.30000000000000004,-0.4,-0.5,2.9000000000000004,8.9,-7.300000000000001,0.1,-9.1,16
662,11030.0,-0.7000000000000001,-0.2,-0.30000000000000004,-0.5,2.9000000000000004,8.9,-7.300000000000001,0.1,-9.1,16
663,11047.0,-0.2,0.2,0.5,0.2,3.4000000000000004,10.3,-22.5,-10.1,-6.5,16
664,11063.0,0.0,0.30000000000000004,1.2000000000000002,0.2,3.4000000000000004,10.3,-19.9,-11.1,-6.9,16
665,11080.0,0.1,0.2,2.0,0.30000000000000004,3.2,11.100000000000001,-19.9,-11.1,-6.9,16
666,11097.0,0.2,-0.30000000000000004,1.5,0.8,2.7,10.5,-6.000000000000001,-31.0,-1.0999999999999999,16
667,11113.0,0.4,-0.2,1.2000000000000002,0.8,2.7,10.5,-6.000000000000001,-31.0,-1.0999999999999999,16
668,11130.0,1.2000000000000002,0.5,2.0,1.4000000000000001,3.2,11.0,-22.7,-41.5,-0.6000000000000001,16
669,11146.0,1.6,0.7000000000000001,3.9000000000000004,2.0,3.3000000000000003,13.700000000000001,-49.8,-17.5,-23.5,16
670,11163.0,1.3,0.6000000000000001,4.4,2.0,3.3000000000000003,13.700000000000001,-49.8,-17.5,-23.5,16
671,11180.0,-0.30000000000000004,0.30000000000000004,3.6,0.8,2.9000000000000004,13.4,-38.400000000000006,15.399999999999999,-31.8,16
672,11197.0,-1.1,0.1,1.7000000000000002,-0.7000000000000001,2.4000000000000004,10.700000000000001,-2.0,43.7,-5.8,16
673,11213.0,-1.0,-0.1,1.0,-0.7000000000000001,2.4000000000000004,10.700000000000001,-2.0,43.7,-5.8,16
674,11230.0,0.0,0.1,0.2,-0.2,2.5,9.9,14.700000000000001,24.8,14.500000000000002,16
675,11246.0,1.5,0.4,-0.2,1.1,2.8000000000000003,9.4,31.8,-35.0,18.8,16
676,11263.0,2.1,0.5,-0.1,2.3000000000000003,3.1,9.3,31.8,-35.0,18.8,16
677,11280.0,2.4000000000000004,0.30000000000000004,0.7000000000000001,2.9000000000000004,2.8000000000000003,10.5,14.200000000000001,-52.400000000000006,-13.8,16
678,11297.0,2.1,-0.30000000000000004,1.1,2.9000000000000004,2.8000000000000003,10.5,14.200000000000001,-52.400000000000006,-13.8,16
679,11313.0,2.0,-0.7000000000000001,1.0,2.8000000000000003,2.2,10.4,10.0,-29.400000000000002,-28.500000000000004,16
680,11330.0,1.1,-0.8,-0.5,1.3,2.2,8.1,7.6,30.4,-43.2,16
681,11346.0,0.6000000000000001,-0.6000000000000001,-1.3,1.3,2.2,8.1,7.6,30.4,-43.2,16
682,11363.0,0.4,-0.2,-2.2,1.0,2.5,7.300000000000001,1.4,34.0,-41.7,16
683,11380.0,0.5,0.1,-2.0,1.0,3.0,7.4,1.0999999999999999,8.5,-38.300000000000004,16
684,11397.0,0.6000000000000001,0.1,-1.9000000000000001,1.0,3.0,7.4,1.0999999999999999,8.5,-38.300000000000004,16
685,11413.0,0.5,0.30000000000000004,-2.0,0.9,3.1,7.4,11.1,-1.0999999999999999,-39.300000000000004,16
686,11430.0,0.4,0.4,-2.3000000000000003,0.7000000000000001,3.4000000000000004,6.9,17.599999999999998,-9.9,-35.3,16
687,11447.0,0.4,0.4,-2.4000000000000004,0.7000000000000001,3.4000000000000004,6.9,17.599999999999998,-9.9,-35.3,16
688,11463.0,0.5,0.5,-2.2,0.8,3.5,7.0,12.000000000000002,-5.9,-32.1,16
689,11480.0,0.6000000000000001,0.2,-2.0,1.1,3.2,7.5,1.9,0.1,-22.6,16
690,11498.0,0.9,0.1,-1.7000000000000002,1.1,3.2,7.5,1.9,0.1,-22.6,16
691,11513.0,1.2000000000000002,0.2,-1.0,1.4000000000000001,3.2,8.0,6.000000000000001,-3.8,-17.200000000000003,16
692,11530.0,1.0,0.30000000000000004,-0.6000000000000001,1.3,3.6,8.6,28.900000000000002,-17.0,-13.0,16
693,11547.0,1.0,0.4,-0.6000000000000001,1.3,3.6,8.6,28.900000000000002,-17.0,-13.0,16
694,11563.0,0.9,0.6000000000000001,-0.9,1.4000000000000001,4.2,8.200000000000001,34.2,-13.200000000000001,-12.000000000000002,16
695,11580.0,1.0,0.9,-0.7000000000000001,1.4000000000000001,4.2,8.200000000000001,19.500000000000004,-10.8,-16.1,16
696,11597.0,1.1,1.0,-0.2,1.5,4.5,8.700000000000001,19.500000000000004,-10.8,-16.1,16
697,11613.0,1.0,1.1,1.4000000000000001,1.4000000000000001,4.6000000000000005,10.9,-0.6000000000000001,-5.300000000000001,-31.3,16
698,11630.0,0.9,1.0,1.9000000000000001,1.4000000000000001,4.6000000000000005,10.9,-0.6000000000000001,-5.300000000000001,-31.3,16
699,11647.0,0.4,1.0,1.7000000000000002,1.0,4.6000000000000005,10.9,6.4,6.7,-37.300000000000004,16
700,11663.0,0.0,1.1,0.4,0.30000000000000004,4.800000000000001,9.4,2.9,9.600000000000001,-39.2,16
701,11680.0,0.0,1.2000000000000002,0.4,0.30000000000000004,4.800000000000001,9.4,2.9,9.600000000000001,-39.2,16
702,11697.0,0.5,0.8,2.2,0.6000000000000001,4.6000000000000005,10.700000000000001,-16.5,-12.4,-41.2,16
703,11713.0,0.7000000000000001,-0.30000000000000004,4.6000000000000005,0.8,2.7,14.200000000000001,-26.1,-45.4,-44.00000000000001,16
704,11730.0,0.30000000000000004,-0.9,5.1000000000000005,0.8,2.7,14.200000000000001,-26.1,-45.4,-44.00000000000001,16
705,11747.0,-0.30000000000000004,-1.9000000000000001,3.5,0.2,1.8,13.4,1.7,-35.4,-40.1,16
706,11763.0,-1.1,-2.4000000000000004,0.0,-1.1,1.3,8.200000000000001,32.5,13.0,-20.7,16
707,11780.0,-1.6,-2.3000000000000003,-1.3,-1.1,1.3,8.200000000000001,32.5,13.0,-20.7,16
708,11797.0,-1.4000000000000001,-1.3,-1.9000000000000001,-1.3,2.0,7.2,15.399999999999999,4.3999999999999995,-3.8,16
709,11813.0,0.4,-0.7000000000000001,-0.2,1.4000000000000001,3.0,9.700000000000001,-23.8,-52.0,1.9,16
710,11830.0,1.1,-0.5,0.8,1.4000000000000001,3.0,9.700000000000001,-23.8,-52.0,1.9,16
711,11847.0,1.0,-0.6000000000000001,1.8,1.4000000000000001,2.4000000000000004,10.700000000000001,-33.7,-32.2,-34.400000000000006,16
712,11863.0,-0.2,-1.2000000000000002,1.0,1.4000000000000001,2.4000000000000004,10.700000000000001,-33.7,-32.2,-34.400000000000006,16
713,11880.0,-1.0,-1.1,0.30000000000000004,0.0,2.1,9.8,-37.6,-9.200000000000001,-42.300000000000004,16
714,11897.0,-1.8,-1.1,-0.8,-1.2000000000000002,1.8,8.200000000000001,-54.5,7.500000000000001,-32.300000000000004,16
715,11913.0,-1.8,-1.2000000000000002,-1.1,-1.2000000000000002,1.8,8.200000000000001,-54.5,7.500000000000001,-32.300000000000004,16
716,11930.0,-1.4000000000000001,-1.3,-1.0,-1.0,1.5,8.3,-55.800000000000004,2.7,-25.2,16
717,11949.0,-0.8,-1.1,-0.30000000000000004,-0.30000000000000004,1.5,9.1,-28.500000000000004,-18.3,-16.6,16
718,11963.0,-0.8,-1.1,-0.30000000000000004,-0.30000000000000004,1.5,9.1,-28.500000000000004,-18.3,-16.6,16
719,11980.0,-1.3,-1.0,-0.9,-0.6000000000000001,1.6,8.700000000000001,-6.8,-17.200000000000003,-12.9,16
720,11997.0,-1.8,-0.8,-2.2,-1.0,1.9000000000000001,6.800000000000001,8.799999999999999,1.9,10.5,16
721,12013.0,-1.5,-0.7000000000000001,-2.6,-1.0,1.9000000000000001,6.800000000000001,8.799999999999999,1.9,10.5,16
722,12030.0,-0.6000000000000001,-0.2,-2.9000000000000004,-0.30000000000000004,2.2,6.5,7.400000000000001,11.4,22.900000000000002,16
723,12047.0,0.1,0.6000000000000001,-3.0,0.9,3.5,6.5,7.699999999999999,0.6000000000000001,20.3,16
724,12063.0,0.4,0.9,-2.7,0.9,3.5,6.5,7.699999999999999,0.6000000000000001,20.3,16
725,12080.0,0.6000000000000001,1.5,-1.9000000000000001,1.2000000000000002,4.0,7.2,5.7,-11.700000000000001,9.8,16
726,12097.0,0.6000000000000001,1.8,-1.3,1.2000000000000002,4.6000000000000005,8.200000000000001,-0.1,-11.6,-16.400000000000002,16
727,12113.0,0.4,1.9000000000000001,-1.0,1.2000000000000002,4.6000000000000005,8.200000000000001,-0.1,-11.6,-16.400000000000002,16
728,12130.0,-0.4,1.7000000000000002,-0.7000000000000001,0.0,4.3,8.9,-19.500000000000004,5.300000000000001,-31.0,16
729,12147.0,-0.9,1.6,0.1,-0.30000000000000004,4.3,9.700000000000001,-27.8,5.1,-26.200000000000003,16
730,12163.0,-1.0,1.8,0.6000000000000001,-0.30000000000000004,4.3,9.700000000000001,-27.8,5.1,-26.200000000000003,16
731,12180.0,-0.9,2.0,2.0,-0.1,4.5,12.200000000000001,-26.700000000000003,-26.400000000000002,-3.1,16
732,12197.0,-0.8,2.0,2.8000000000000003,-0.1,4.5,12.200000000000001,-26.700000000000003,-26.400000000000002,-3.1,16
733,12213.0,-0.5,2.3000000000000003,4.1000000000000005,0.2,4.7,13.200000000000001,-12.5,-41.7,12.6,16
734,12230.0,0.2,2.6,4.2,1.7000000000000002,5.300000000000001,13.4,22.4,-41.9,44.5,16
735,12247.0,0.7000000000000001,2.7,3.9000000000000004,1.7000000000000002,5.300000000000001,13.4,22.4,-41.9,44.5,16
736,12263.0,1.9000000000000001,3.0,2.8000000000000003,2.8000000000000003,5.6000000000000005,12.5,33.2,-38.2,49.1,16
737,12280.0,2.4000000000000004,3.1,2.4000000000000004,3.7,5.4,11.8,19.0,-48.400000000000006,-1.3,16
738,12297.0,2.1,2.5,2.5,3.7,5.4,11.8,19.0,-48.400000000000006,-1.3,16
739,12313.0,0.7000000000000001,0.1,2.2,2.7,3.7,11.700000000000001,9.4,-32.0,-35.6,16
740,12330.0,-1.3,-1.6,0.7000000000000001,-0.5,1.0,9.200000000000001,23.0,52.900000000000006,-63.10000000000001,16
741,12347.0,-2.1,-2.1,-0.4,-0.5,1.0,9.200000000000001,23.0,52.900000000000006,-63.10000000000001,16
742,12363.0,-3.1,-2.0,-2.1,-1.8,0.9,7.7,30.299999999999997,80.6,-52.0,16
743,12380.0,-2.7,-1.6,-2.6,-1.4000000000000001,1.6,6.800000000000001,26.700000000000003,45.1,-1.4,16
744,12397.0,-1.8,-1.6,-2.5,-1.4000000000000001,1.6,6.800000000000001,26.700000000000003,45.1,-1.4,16
745,12414.0,-0.30000000000000004,-1.2000000000000002,-1.3,1.1,2.5,9.1,0.4,-49.3,14.900000000000002,16
746,12430.0,1.1,-0.7000000000000001,1.2000000000000002,1.1,2.5,9.1,0.4,-49.3,14.900000000000002,16
747,12447.0,1.7000000000000002,-1.0,2.1,2.4000000000000004,2.3000000000000003,11.0,-8.799999999999999,-65.3,10.600000000000001,16
748,12463.0,2.0,-1.7000000000000002,2.0,2.6,1.5,10.3,11.9,-7.0,-21.900000000000002,16
749,12480.0,1.4000000000000001,-1.7000000000000002,1.0,2.6,1.5,10.3,11.9,-7.0,-21.900000000000002,16
750,12497.0,0.0,-1.3,-1.5,1.3,1.8,8.200000000000001,11.6,37.7,-29.500000000000004,16
751,12513.0,-0.7000000000000001,-1.0,-2.5,-0.30000000000000004,2.4000000000000004,6.6000000000000005,-16.900000000000002,60.20000000000001,-28.3,16
752,12530.0,-1.0,-0.8,-2.6,-0.30000000000000004,2.4000000000000004,6.6000000000000005,-16.900000000000002,60.20000000000001,-28.3,16
753,12547.0,-1.1,-0.7000000000000001,-2.0,-0.6000000000000001,2.5,7.1000000000000005,-23.700000000000003,49.5,-22.6,16
754,12563.0,-0.7000000000000001,-0.8,-1.2000000000000002,-0.30000000000000004,2.3000000000000003,8.200000000000001,-8.200000000000001,21.8,-2.8,16
755,12581.0,-0.5,-0.8,-1.0,-0.30000000000000004,2.3000000000000003,8.200000000000001,-8.200000000000001,21.8,-2.8,16
756,12597.0,-0.30000000000000004,-0.6000000000000001,-1.3,-0.1,2.4000000000000004,8.0,10.600000000000001,13.4,9.5,16
757,12613.0,0.1,-0.6000000000000001,-1.9000000000000001,0.7000000000000001,2.7,7.2,33.900000000000006,-2.1,25.5,16
758,12630.0,0.5,-0.6000000000000001,-2.0,0.7000000000000001,2.7,7.2,33.900000000000006,-2.1,25.5,16
759,12647.0,1.2000000000000002,-0.4,-2.0,1.3,2.8000000000000003,7.2,31.8,-2.5,27.8,16
760,12663.0,1.2000000000000002,0.0,-2.0,1.7000000000000002,3.2,7.1000000000000005,25.8,3.7000000000000006,24.000000000000004,16
761,12680.0,1.1,0.1,-1.8,1.5,3.5,7.2,17.7,12.4,16.400000000000002,16
762,12697.0,0.8,0.4,-1.2000000000000002,0.9,3.8000000000000003,8.3,2.3000000000000003,19.1,5.500000000000001,16
763,12713.0,0.6000000000000001,0.4,-0.7000000000000001,0.9,3.8000000000000003,8.3,2.3000000000000003,19.1,5.500000000000001,16
764,12730.0,0.6000000000000001,0.4,0.1,0.8,3.9000000000000004,9.0,1.5000000000000002,15.7,3.9,16
765,12746.0,0.2,0.5,0.5,0.1,4.1000000000000005,9.8,-0.2,6.2,-2.7,16
766,12763.0,-0.2,0.6000000000000001,0.8,0.1,4.1000000000000005,9.8,-0.2,6.2,-2.7,16
767,12780.0,-0.6000000000000001,0.7000000000000001,1.6,-0.30000000000000004,4.2,10.5,-7.6,5.2,2.7,16
768,12797.0,-0.7000000000000001,1.1,2.3000000000000003,-0.30000000000000004,5.0,11.5,-1.8,14.600000000000001,36.9,16
769,12813.0,-0.4,1.6,2.4000000000000004,-0.30000000000000004,5.0,11.5,-1.8,14.600000000000001,36.9,16
770,12830.0,1.0,2.9000000000000004,2.6,0.7000000000000001,6.1000000000000005,11.5,8.4,6.2,56.6,16
771,12846.0,2.8000000000000003,2.8000000000000003,3.5,3.3000000000000003,5.800000000000001,13.200000000000001,12.8,-44.1,44.6,16
772,12863.0,2.8000000000000003,2.1,4.2,3.3000000000000003,5.800000000000001,13.200000000000001,12.8,-44.1,44.6,16
773,12880.0,1.9000000000000001,0.0,3.7,2.9000000000000004,4.2,13.200000000000001,23.3,-59.1,19.9,16
774,12897.0,0.4,-1.0,0.7000000000000001,0.6000000000000001,2.6,8.700000000000001,40.6,4.0,-14.700000000000001,16
775,12913.0,-0.4,-1.3,-0.8,0.6000000000000001,2.6,8.700000000000001,40.6,4.0,-14.700000000000001,16
776,12930.0,-1.3,-1.7000000000000002,-2.6,-0.4,2.2,6.800000000000001,19.1,38.300000000000004,-17.0,16
777,12946.0,-1.8,-1.1,-2.5,-1.2000000000000002,3.0,7.0,-31.8,36.7,3.9,16
778,12963.0,-1.5,-0.7000000000000001,-1.7000000000000002,-1.2000000000000002,3.0,7.0,-31.8,36.7,3.9,16
779,12980.0,-0.1,0.0,0.8,0.8,3.6,11.200000000000001,-54.2,-40.2,-11.000000000000002,16
780,12997.0,0.30000000000000004,0.1,2.1,0.8,3.6,11.200000000000001,-54.2,-40.2,-11.000000000000002,16
781,13013.0,0.4,-0.6000000000000001,3.2,1.0,3.0,12.200000000000001,-47.400000000000006,-44.4,-23.700000000000003,16
782,13030.0,-0.6000000000000001,-1.3,1.7000000000000002,-0.7000000000000001,2.0,9.600000000000001,-16.5,14.100000000000001,-35.0,16
783,13047.0,-1.7000000000000002,-1.0,-1.1,-0.7000000000000001,2.0,9.600000000000001,-16.5,14.100000000000001,-35.0,16
784,13063.0,-1.8,-0.8,-2.1,-1.3,2.3000000000000003,7.7,-19.8,43.7,-27.3,16
785,13080.0,-2.1,-0.5,-3.2,-1.8,2.5,6.4,-42.1,48.9,-13.3,16
786,13097.0,-1.9000000000000001,-0.5,-2.9000000000000004,-1.8,2.5,6.4,-42.1,48.9,-13.3,16
787,13113.0,-1.4000000000000001,-0.6000000000000001,-1.1,-1.5,2.3000000000000003,7.800000000000001,-46.4,30.4,-12.000000000000002,16
788,13130.0,-1.3,-0.8,-0.2,-1.4000000000000001,1.8,9.1,-20.0,0.6000000000000001,-0.7,16
789,13147.0,-1.4000000000000001,-1.0,-0.30000000000000004,-1.4000000000000001,1.8,9.1,-20.0,0.6000000000000001,-0.7,16
790,13163.0,-1.6,-0.7000000000000001,-1.2000000000000002,-1.6,1.9000000000000001,8.5,-1.7,-1.5000000000000002,9.600000000000001,16
791,13180.0,-1.3,-0.30000000000000004,-1.6,-1.3,2.5,7.9,6.3,-6.6000000000000005,26.500000000000004,16
792,13197.0,-1.2000000000000002,-0.1,-1.4000000000000001,-1.3,2.5,7.9,6.3,-6.6000000000000005,26.500000000000004,16
793,13213.0,-1.0,0.4,-0.5,-1.1,3.0,8.5,4.800000000000001,-8.4,28.700000000000003,16
794,13230.0,-0.6000000000000001,0.5,0.0,-0.4,3.2,9.4,17.5,-6.8,29.800000000000004,16
795,13246.0,-0.4,0.5,0.1,-0.4,3.2,9.4,17.5,-6.8,29.800000000000004,16
796,13263.0,-0.2,0.5,0.2,0.2,3.7,9.8,31.7,-7.0,25.3,16
797,13280.0,0.0,0.7000000000000001,0.5,0.2,3.7,9.8,31.7,-7.0,25.3,16
798,13297.0,0.30000000000000004,0.7000000000000001,1.1,0.5,3.8000000000000003,10.200000000000001,31.5,-9.600000000000001,15.299999999999999,16
799,13313.0,0.4,0.7000000000000001,1.7000000000000002,0.7000000000000001,3.8000000000000003,11.100000000000001,25.700000000000003,-16.1,3.1,16
800,13330.0,0.4,0.6000000000000001,1.8,0.7000000000000001,3.8000000000000003,11.100000000000001,25.700000000000003,-16.1,3.1,16
801,13347.0,0.2,0.8,1.7000000000000002,0.6000000000000001,4.0,11.0,28.700000000000003,-12.4,5.8,16
802,13363.0,-0.1,1.3,0.8,0.4,5.1000000000000005,9.4,37.5,9.600000000000001,28.3,16
803,13381.0,0.1,1.7000000000000002,0.1,0.4,5.1000000000000005,9.4,37.5,9.600000000000001,28.3,16
804,13397.0,1.3,2.4000000000000004,-0.1,1.3,5.7,8.9,23.2,7.400000000000001,39.9,16
805,13413.0,2.8000000000000003,3.2,2.6,3.6,6.2,12.9,-19.400000000000002,-50.1,8.9,16
806,13430.0,3.0,2.5,4.0,3.6,6.2,12.9,-19.400000000000002,-50.1,8.9,16
807,13447.0,2.1,-0.6000000000000001,4.1000000000000005,3.3000000000000003,3.8000000000000003,13.600000000000001,-6.2,-43.2,-29.700000000000003,16
808,13463.0,-0.8,-2.1,1.0,-0.8,1.4000000000000001,9.1,42.800000000000004,42.400000000000006,-56.800000000000004,16
809,13481.0,-1.7000000000000002,-2.4000000000000004,-0.5,-0.8,1.4000000000000001,9.1,42.800000000000004,42.400000000000006,-56.800000000000004,16
810,13497.0,-2.1,-2.2,-2.0,-1.6,1.4000000000000001,7.4,41.6,57.9,-27.8,16
811,13513.0,-1.2000000000000002,-1.4000000000000001,-1.5,-0.2,2.6,7.9,26.3,-9.4,24.7,16
812,13530.0,-0.1,-1.3,-1.0,-0.2,2.6,7.9,26.3,-9.4,24.7,16
813,13546.0,1.4000000000000001,-0.7000000000000001,-0.1,2.2,3.4000000000000004,9.1,10.4,-54.0,8.4,16
814,13563.0,1.7000000000000002,-0.7000000000000001,0.30000000000000004,2.2,3.4000000000000004,9.1,10.4,-54.0,8.4,16
815,13580.0,1.6,-0.8,0.4,2.3000000000000003,3.2,9.4,-0.7,-29.300000000000004,-5.500000000000001,16
816,13597.0,0.5,-0.7000000000000001,-0.5,0.6000000000000001,3.4000000000000004,7.9,-6.6000000000000005,40.4,-26.200000000000003,16
817,13614.0,0.0,-0.5,-1.2000000000000002,0.6000000000000001,3.4000000000000004,7.9,-6.6000000000000005,40.4,-26.200000000000003,16
818,13630.0,-0.7000000000000001,-0.5,-1.9000000000000001,-0.2,3.5,7.1000000000000005,-9.8,50.0,-29.500000000000004,16
819,13646.0,-0.7000000000000001,-0.2,-1.6,-0.4,3.7,7.6000000000000005,-3.6,22.3,-16.8,16
820,13664.0,-0.5,-0.2,-1.4000000000000001,-0.4,3.7,7.6000000000000005,-3.6,22.3,-16.8,16
821,13680.0,0.1,-0.30000000000000004,-1.2000000000000002,0.0,3.6,7.7,7.9,9.3,-10.4,16
822,13697.0,0.8,-0.5,-1.6,1.1,3.4000000000000004,7.1000000000000005,27.0,7.1000000000000005,-4.1000000000000005,16
823,13714.0,1.0,-0.6000000000000001,-1.9000000000000001,1.1,3.4000000000000004,7.1000000000000005,27.0,7.1000000000000005,-4.1000000000000005,16
824,13730.0,1.2000000000000002,-0.5,-2.2,1.2000000000000002,3.5,6.7,29.200000000000003,11.8,-4.6000000000000005,16
825,13746.0,1.4000000000000001,-0.4,-1.9000000000000001,1.5,3.8000000000000003,7.1000000000000005,20.8,6.6000000000000005,-3.8,16
826,13763.0,1.5,-0.4,-1.6,1.5,3.8000000000000003,7.1000000000000005,20.8,6.6000000000000005,-3.8,16
827,13780.0,1.5,0.0,-1.4000000000000001,1.6,4.1000000000000005,7.300000000000001,21.1,5.8,-5.2,16
828,13797.0,1.3,0.4,-1.2000000000000002,1.3,4.800000000000001,7.5,15.000000000000002,11.5,-12.000000000000002,16
829,13813.0,1.4000000000000001,0.4,-1.1,1.3,4.800000000000001,7.5,15.000000000000002,11.5,-12.000000000000002,16
830,13830.0,1.3,0.9,-0.8,0.8,5.4,8.0,5.6,22.2,-29.1,16
831,13847.0,0.6000000000000001,1.0,-0.5,0.8,5.4,8.0,5.6,22.2,-29.1,16
832,13863.0,0.30000000000000004,0.9,-0.2,0.1,5.300000000000001,8.3,-4.3999999999999995,19.200000000000003,-41.1,16
833,13880.0,-0.6000000000000001,0.8,1.0,-1.5,5.1000000000000005,10.3,-27.5,14.200000000000001,-49.3,16
834,13897.0,-1.1,0.8,1.7000000000000002,-1.5,5.1000000000000005,10.3,-27.5,14.200000000000001,-49.3,16
835,13913.0,-1.9000000000000001,1.2000000000000002,2.9000000000000004,-2.4000000000000004,5.300000000000001,11.4,-29.300000000000004,15.8,-36.2,16
836,13930.0,-1.8,1.7000000000000002,3.3000000000000003,-2.1,6.1000000000000005,11.700000000000001,0.4,23.900000000000002,15.9,16
837,13947.0,-1.2000000000000002,2.0,2.9000000000000004,-2.1,6.1000000000000005,11.700000000000001,0.4,23.900000000000002,15.9,16
838,13963.0,0.1,2.6,1.8,-1.0,6.7,10.8,19.8,12.3,32.800000000000004,16
839,13980.0,1.5,1.6,1.6,1.2000000000000002,5.4,10.5,20.2,-45.7,21.5,16
840,13997.0,1.8,0.8,1.8,1.2000000000000002,5.4,10.5,20.2,-45.7,21.5,16
841,14014.0,1.6,-0.4,1.6,1.4000000000000001,4.4,10.5,17.3,-51.1,10.0,16
842,14030.0,1.1,-0.7000000000000001,1.2000000000000002,-0.30000000000000004,3.6,8.9,16.0,-34.7,-2.3000000000000003,16
843,14047.0,-0.30000000000000004,-0.9,0.0,-0.30000000000000004,3.6,8.9,7.6,-9.5,-11.700000000000001,16
844,14064.0,-1.3,-0.8,-0.5,-1.3,3.7,8.3,-9.1,11.9,-11.2,16
845,14080.0,-0.9,-0.7000000000000001,0.30000000000000004,-1.0,3.7,9.600000000000001,-30.7,5.6,2.8,16
846,14097.0,-0.6000000000000001,-0.7000000000000001,1.0,-1.0,3.7,9.600000000000001,-30.7,5.6,2.8,16
847,14113.0,0.0,-0.7000000000000001,2.1,0.1,3.4000000000000004,11.0,-5.300000000000001,-39.2,8.1,16
848,14131.0,0.4,-0.9,2.1,0.1,3.4000000000000004,11.0,-5.300000000000001,-39.2,8.1,16
849,14147.0,0.8,-1.1,1.0,0.7000000000000001,3.2,10.100000000000001,13.9,-51.300000000000004,7.2,16
850,14163.0,0.8,-1.3,-0.8,0.7000000000000001,2.9000000000000004,7.2,11.700000000000001,-31.900000000000002,-2.6,16
851,14181.0,0.6000000000000001,-1.4000000000000001,-1.7000000000000002,0.7000000000000001,2.9000000000000004,7.2,11.700000000000001,-31.900000000000002,-2.6,16
852,14197.0,0.30000000000000004,-1.6,-3.0,0.6000000000000001,2.7,6.1000000000000005,-4.300000000000001,-9.4,-7.400000000000001,16
853,14213.0,-0.1,-1.6,-3.7,-0.2,2.7,5.300000000000001,-33.6,14.0,-22.1,16
854,14230.0,-0.30000000000000004,-1.4000000000000001,-3.5,-0.2,2.7,5.300000000000001,-33.6,14.0,-22.1,16
855,14246.0,-0.5,-1.2000000000000002,-2.3000000000000003,-0.4,2.8000000000000003,6.300000000000001,-41.0,9.3,-26.700000000000003,16
856,14263.0,-0.7000000000000001,-1.2000000000000002,-1.6,-0.8,2.7,7.300000000000001,-25.5,-3.9,-23.2,16
857,14280.0,-0.8,-1.2000000000000002,-1.6,-0.8,2.7,7.300000000000001,-25.5,-3.9,-23.2,16
858,14297.0,-1.0,-0.9,-2.0,-1.0,2.8000000000000003,7.1000000000000005,-14.800000000000002,-3.3000000000000003,-14.200000000000001,16
859,14313.0,-0.9,-0.7000000000000001,-2.1,-1.0,3.1,6.800000000000001,-9.1,-5.6,-3.7000000000000006,16
860,14330.0,-0.6000000000000001,-0.4,-1.6,-0.6000000000000001,3.3000000000000003,7.2,-6.6000000000000005,-11.2,3.8,16
861,14346.0,0.0,0.1,-0.6000000000000001,-0.1,3.7,8.0,-4.6000000000000005,-15.6,7.300000000000001,16
862,14363.0,-0.1,0.5,-0.1,-0.1,4.3,8.8,3.9,-6.9,8.9,16
863,14380.0,-0.30000000000000004,0.6000000000000001,-0.2,-0.1,4.3,8.8,3.9,-6.9,8.9,16
864,14397.0,-0.5,0.8,-0.2,-0.30000000000000004,4.7,8.700000000000001,13.100000000000001,-7.9,15.6,16
865,14415.0,-0.30000000000000004,1.0,-0.1,0.1,4.9,8.9,12.5,-17.1,19.3,16
866,14430.0,0.0,1.1,0.2,0.1,4.9,8.9,12.5,-17.1,19.3,16
867,14446.0,0.8,1.2000000000000002,1.0,1.3,5.1000000000000005,10.100000000000001,1.0,-28.200000000000003,16.1,16
868,14463.0,1.0,1.2000000000000002,1.3,1.3,5.1000000000000005,10.100000000000001,1.0,-28.200000000000003,16.1,16
869,14480.0,0.6000000000000001,1.2000000000000002,1.4000000000000001,1.2000000000000002,5.1000000000000005,10.3,-1.9,-18.0,10.3,16
870,14497.0,-0.30000000000000004,1.4000000000000001,1.1,-0.1,5.4,9.600000000000001,6.2,7.0,13.9,16
871,14513.0,-0.6000000000000001,1.5,0.7000000000000001,-0.1,5.4,9.600000000000001,6.2,7.0,13.9,16
872,14530.0,-0.30000000000000004,1.7000000000000002,0.4,0.0,5.6000000000000005,9.3,13.100000000000001,3.6,21.400000000000002,16
873,14546.0,1.0,2.2,1.4000000000000001,1.1,6.0,9.5,11.2,-27.400000000000002,23.6,16
874,14563.0,1.6,2.3000000000000003,2.9000000000000004,2.2,6.300000000000001,11.4,-6.6000000000000005,-66.4,11.3,16
875,14580.0,2.1,0.8,5.0,3.0,5.300000000000001,13.5,-17.400000000000002,-69.4,-12.100000000000001,16
876,14597.0,0.6000000000000001,-1.2000000000000002,3.6,0.8,2.5,11.3,6.3,22.5,-45.3,16
877,14614.0,-0.4,-1.6,1.9000000000000001,0.8,2.5,11.3,6.3,22.5,-45.3,16
878,14630.0,-1.9000000000000001,-1.1,-0.8,-0.8,2.6,8.8,13.9,60.7,-34.2,16
879,14646.0,-2.0,-0.2,-1.5,-1.0,3.7,7.800000000000001,8.5,56.900000000000006,-16.8,16
880,14663.0,-1.2000000000000002,-0.30000000000000004,-0.9,-1.0,3.7,7.800000000000001,-5.9,12.100000000000001,0.30000000000000004,16
881,14680.0,0.8,-0.9,0.6000000000000001,2.0,3.2,10.200000000000001,-10.2,-54.2,2.3000000000000003,16
882,14697.0,1.3,-0.8,1.3,2.0,3.2,10.200000000000001,-10.2,-54.2,2.3000000000000003,16
883,14713.0,1.7000000000000002,-0.8,1.3,2.5,3.2,10.4,-5.1,-41.300000000000004,-6.9,16
884,14731.0,1.0,-0.8,0.2,1.2000000000000002,3.1,8.5,-8.200000000000001,24.200000000000003,-27.7,16
885,14747.0,0.30000000000000004,-0.8,-0.6000000000000001,1.2000000000000002,3.1,8.5,-8.200000000000001,24.200000000000003,-27.7,16
886,14763.0,-0.4,-0.7000000000000001,-1.6,0.4,3.1,7.6000000000000005,-18.0,45.4,-27.6,16
887,14780.0,-0.7000000000000001,-0.6000000000000001,-1.8,-0.4,3.1,7.300000000000001,-23.3,32.800000000000004,-19.6,16
888,14797.0,-0.7000000000000001,-0.7000000000000001,-1.7000000000000002,-0.4,3.1,7.300000000000001,-23.3,32.800000000000004,-19.6,16
889,14813.0,-0.7000000000000001,-0.8,-1.4000000000000001,-0.4,2.9000000000000004,7.6000000000000005,-11.5,15.9,-13.3,16
890,14830.0,-0.5,-0.8,-1.5,-0.1,3.0,7.300000000000001,20.5,3.0000000000000004,2.0,16
891,14847.0,-0.30000000000000004,-0.7000000000000001,-1.8,-0.1,3.0,7.300000000000001,20.5,3.0000000000000004,2.0,16
892,14864.0,0.30000000000000004,-0.5,-1.8,0.4,3.2,7.1000000000000005,24.7,3.4,10.0,16
893,14880.0,1.1,-0.30000000000000004,-1.8,1.5,3.6,7.1000000000000005,21.1,5.1,8.0,16
894,14897.0,1.3,-0.2,-1.8,1.5,3.6,7.1000000000000005,21.1,5.1,8.0,16
895,14913.0,1.2000000000000002,-0.1,-1.8,1.6,3.8000000000000003,7.1000000000000005,17.200000000000003,8.700000000000001,-2.7,16
896,14930.0,0.6000000000000001,-0.2,-1.8,0.5,3.8000000000000003,7.0,11.6,28.400000000000002,-19.0,16
897,14947.0,0.2,-0.2,-1.9000000000000001,0.5,3.8000000000000003,7.0,11.6,28.400000000000002,-19.0,16
898,14963.0,-0.4,0.0,-1.9000000000000001,-0.6000000000000001,4.1000000000000005,6.9,11.2,33.6,-11.9,16
899,14980.0,-0.5,0.0,-1.9000000000000001,-0.6000000000000001,4.1000000000000005,6.9,11.2,33.6,-11.9,16
900,14996.0,-0.30000000000000004,0.4,-1.5,-0.5,4.4,7.1000000000000005,10.0,23.900000000000002,-3.2,16
901,15013.0,0.30000000000000004,1.0,-0.8,0.4,5.2,8.4,-3.5,-4.7,-0.4,16
902,15030.0,0.6000000000000001,1.1,-0.30000000000000004,0.4,5.2,8.4,-3.5,-4.7,-0.4,16
903,15046.0,0.8,1.1,1.3,0.7000000000000001,5.2,9.700000000000001,-16.700000000000003,-14.100000000000001,-9.200000000000001,16
904,15063.0,0.30000000000000004,0.8,2.3000000000000003,-0.4,4.9,11.3,-28.3,3.0000000000000004,-13.5,16
905,15080.0,-0.30000000000000004,0.9,2.5,-0.4,4.9,11.3,-28.3,3.0000000000000004,-13.5,16
906,15097.0,-1.1,1.8,2.1,-1.2000000000000002,5.5,11.100000000000001,-26.1,20.2,2.6,16
907,15113.0,-0.1,2.5,2.7,0.30000000000000004,6.1000000000000005,12.3,-26.1,3.3000000000000003,29.200000000000003,16
908,15130.0,0.7000000000000001,2.3000000000000003,3.5,0.30000000000000004,6.1000000000000005,12.3,-26.1,3.3000000000000003,29.200000000000003,16
909,15147.0,1.5,0.9,4.800000000000001,1.3,5.1000000000000005,13.600000000000001,-15.9,-16.700000000000003,24.000000000000004,16
910,15163.0,0.7000000000000001,-0.4,3.9000000000000004,0.4,3.1,12.0,31.099999999999998,-7.2,14.200000000000001,16
911,15180.0,0.2,-0.9,2.6,0.4,3.1,12.0,31.099999999999998,-7.2,14.200000000000001,16
912,15198.0,-0.6000000000000001,-1.3,-0.4,-0.4,2.7,9.5,48.400000000000006,20.5,19.400000000000002,16
913,15213.0,-1.0,-1.3,-1.7000000000000002,-1.1,2.8000000000000003,7.2,51.0,40.8,24.400000000000002,16
914,15230.0,-1.4000000000000001,-0.5,-2.9000000000000004,-1.6,3.5,6.1000000000000005,33.1,37.900000000000006,32.1,16
915,15246.0,-0.8,0.30000000000000004,-1.7000000000000002,-0.30000000000000004,4.5,8.3,-17.3,-20.1,31.8,16
916,15263.0,0.5,0.1,0.7000000000000001,-0.30000000000000004,4.5,8.3,-20.8,-50.2,16.2,16
917,15280.0,0.8,-0.1,1.6,0.7000000000000001,4.1000000000000005,10.100000000000001,-20.8,-50.2,16.2,16
918,15297.0,1.2000000000000002,-0.5,1.8,1.2000000000000002,3.5,10.4,-13.100000000000001,-38.5,-8.700000000000001,16
919,15313.0,0.9,-0.6000000000000001,1.4000000000000001,1.2000000000000002,3.5,10.4,-13.100000000000001,-38.5,-8.700000000000001,16
920,15330.0,0.0,-0.6000000000000001,0.0,0.5,3.4000000000000004,9.3,-17.7,-9.700000000000001,-15.299999999999999,16
921,15346.0,-0.8,-0.8,-1.5,-0.9,3.0,7.0,-33.0,32.0,-13.9,16
922,15363.0,-1.1,-0.9,-2.1,-0.9,3.0,7.0,-33.0,32.0,-13.9,16
923,15380.0,-1.4000000000000001,-0.7000000000000001,-2.8000000000000003,-1.4000000000000001,2.9000000000000004,6.300000000000001,-35.199999999999996,27.7,-9.8,16
924,15397.0,-1.0,-0.5,-1.5,-0.9,3.0,8.200000000000001,-30.799999999999997,-2.9,-1.9,16
925,15414.0,-0.8,-0.6000000000000001,-0.7000000000000001,-0.9,3.0,8.200000000000001,-30.799999999999997,-2.9,-1.9,16
926,15430.0,-0.30000000000000004,-0.9,0.2,-0.5,2.7,9.200000000000001,-14.200000000000001,-8.799999999999999,4.2,16
927,15447.0,-0.6000000000000001,-0.8,-0.9,-0.8,3.1,7.7,21.5,8.700000000000001,12.000000000000002,16
928,15463.0,-1.0,-0.4,-1.5,-0.8,3.1,7.7,21.5,8.700000000000001,12.000000000000002,16
929,15480.0,-1.0,-0.30000000000000004,-2.1,-1.1,3.2,7.1000000000000005,9.600000000000001,8.4,15.399999999999999,16
930,15497.0,-1.3,-0.5,-1.5,-1.4000000000000001,3.2,7.7,7.699999999999999,8.9,14.4,16
931,15513.0,-1.4000000000000001,-0.5,-1.2000000000000002,-1.4000000000000001,3.2,7.7,7.699999999999999,8.9,14.4,16
932,15530.0,-1.6,-0.30000000000000004,-0.4,-1.4000000000000001,3.5,8.9,15.100000000000001,5.2,16.400000000000002,16
933,15546.0,-1.3,-0.2,0.0,-1.4000000000000001,3.5,8.9,15.100000000000001,5.2,16.400000000000002,16
934,15563.0,-0.1,-0.30000000000000004,0.7000000000000001,-0.5,3.5,9.5,12.700000000000001,5.4,10.9,16
935,15580.0,-0.4,0.30000000000000004,0.8,-0.4,4.2,9.600000000000001,-26.8,21.5,-17.1,16
936,15597.0,-0.2,0.5,0.6000000000000001,-0.4,4.2,9.600000000000001,-26.8,21.5,-17.1,16
937,15613.0,-0.2,1.5,1.8,-0.30000000000000004,4.7,10.5,-62.50000000000001,43.2,-18.1,16
938,15630.0,-1.2000000000000002,1.0,3.1,-1.7000000000000002,3.5,12.0,-90.6,75.9,8.799999999999999,16
939,15647.0,-1.0,0.30000000000000004,2.7,-1.7000000000000002,3.5,12.0,-90.6,75.9,8.799999999999999,16
940,15663.0,-0.30000000000000004,-0.6000000000000001,-0.8,-1.3,2.4000000000000004,9.3,-94.60000000000001,65.3,20.3,16
941,15680.0,-0.30000000000000004,0.30000000000000004,3.1,-1.3,3.2,14.8,-95.4,44.8,6.3,16
942,15697.0,-0.2,1.1,6.1000000000000005,-1.3,3.2,14.8,-95.4,44.8,6.3,16
943,15713.0,-1.6,0.5,5.7,-2.4000000000000004,3.1,16.0,-55.2,-9.5,-4.9,16
944,15730.0,-1.2000000000000002,-1.5,2.3000000000000003,-1.8,0.5,10.9,19.6,11.3,28.200000000000003,16
945,15747.0,-0.5,-1.7000000000000002,0.9,-1.8,0.5,10.9,19.6,11.3,28.200000000000003,16
946,15763.0,1.1,-0.5,-1.1,0.5,2.7,8.0,52.900000000000006,51.2,48.800000000000004,16
947,15780.0,2.3000000000000003,1.0,-0.9,1.2000000000000002,4.0,9.1,42.2,46.300000000000004,37.7,16
948,15796.0,2.6,1.7000000000000002,0.0,1.2000000000000002,4.0,9.1,42.2,46.300000000000004,37.7,16
949,15813.0,3.0,2.2,1.5,1.1,4.7,10.9,-14.4,13.9,-13.700000000000001,16
950,15830.0,2.6,2.0,1.5,1.1,4.7,10.9,-14.4,13.9,-13.700000000000001,16
951,15846.0,1.0,0.9,-0.2,-0.2,3.7,9.8,-36.800000000000004,-3.8,-29.600000000000005,16
952,15863.0,-0.30000000000000004,-0.1,-1.8,-2.4000000000000004,2.0,8.1,-58.60000000000001,-9.1,-6.2,16
953,15880.0,-1.1,-0.2,-1.4000000000000001,-2.4000000000000004,2.0,8.1,-58.60000000000001,-9.1,-6.2,16
954,15897.0,-2.4000000000000004,-0.1,0.0,-3.5,2.3000000000000003,9.700000000000001,-14.0,-45.7,48.2,16
955,15913.0,-0.1,-1.5,-1.9000000000000001,-0.6000000000000001,1.2000000000000002,7.1000000000000005,59.60000000000001,27.400000000000002,164.0,16
956,15930.0,0.6000000000000001,-1.3,-2.5,-0.6000000000000001,1.2000000000000002,7.1000000000000005,59.60000000000001,27.400000000000002,164.0,16
957,15946.0,1.3,-2.3000000000000003,-4.0,0.0,1.0,5.9,77.5,34.50000000000001,157.8,16
958,15963.0,3.4000000000000004,-0.30000000000000004,-5.4,2.0,3.1,4.2,-4.800000000000001,-14.0,5.9,16
959,15979.0,2.8000000000000003,0.2,-4.9,2.0,3.1,4.2,-4.800000000000001,-14.0,5.9,16
960,15996.0,2.2,-0.30000000000000004,-3.5,1.4000000000000001,2.8000000000000003,5.4,-19.9,-22.3,-27.400000000000002,16
961,16013.0,1.4000000000000001,-1.5,-4.5,0.0,1.1,4.9,-36.4,-16.2,-39.1,16
962,16029.0,0.6000000000000001,-1.7000000000000002,-4.3,0.0,1.1,4.9,-36.4,-16.2,-39.1,16
963,16046.0,0.8,-0.9,-1.5,1.2000000000000002,2.1,8.5,-40.5,-22.6,-26.400000000000002,16
964,16063.0,2.5,0.2,-0.1,1.8,2.8000000000000003,9.3,-10.0,-51.5,-26.400000000000002,16
965,16079.0,2.4000000000000004,0.5,0.0,1.8,2.8000000000000003,9.3,-10.0,-51.5,-26.400000000000002,16
966,16096.0,1.6,0.9,-0.1,0.6000000000000001,3.5,9.1,25.2,-45.1,-76.9,16
967,16113.0,0.2,1.0,0.30000000000000004,-0.8,3.5,10.200000000000001,8.600000000000001,-51.800000000000004,-94.0,16
968,16129.0,-0.9,1.0,1.3,-0.8,3.5,10.200000000000001,8.600000000000001,-51.800000000000004,-94.0,16
969,16146.0,-2.9000000000000004,1.8,4.4,-3.7,5.300000000000001,15.0,11.000000000000002,-27.3,-22.3,16
970,16163.0,-3.5,2.9000000000000004,5.800000000000001,-3.7,5.300000000000001,15.0,11.000000000000002,-27.3,-22.3,16
971,16180.0,-0.4,1.7000000000000002,7.300000000000001,-1.9000000000000001,5.0,16.6,29.600000000000005,20.1,48.9,16
972,16196.0,1.0,2.3000000000000003,5.4,0.1,5.800000000000001,14.3,84.0,-11.8,57.5,16
973,16213.0,0.2,2.8000000000000003,4.800000000000001,0.1,5.800000000000001,14.3,84.0,-11.8,57.5,16
974,16229.0,-0.5,0.30000000000000004,4.7,-0.6000000000000001,4.4,14.0,82.10000000000001,-57.6,47.5,16
975,16246.0,-0.9,-1.6,3.4000000000000004,-0.8,2.2,11.4,92.10000000000001,-74.30000000000001,42.900000000000006,16
976,16263.0,-1.3,-1.5,1.8,-0.8,2.2,11.4,92.10000000000001,-74.30000000000001,42.900000000000006,16
977,16279.0,-2.8000000000000003,-1.8,-1.4000000000000001,-1.8,2.3000000000000003,8.5,95.7,-75.4,41.0,16
978,16296.0,-2.7,-1.0,-2.5,-0.8,3.5,6.4,56.7,-80.6,58.7,16
979,16313.0,-1.6,-0.7000000000000001,-2.3000000000000003,-0.8,3.5,6.4,56.7,-80.6,58.7,16
980,16330.0,1.0,-0.7000000000000001,-0.4,3.3000000000000003,3.5,9.1,-0.7,-93.7,32.2,16
981,16346.0,1.6,-1.3,1.0,3.3000000000000003,2.8000000000000003,9.8,-22.4,-71.30000000000001,7.8,16
982,16363.0,1.2000000000000002,-1.7000000000000002,1.3,3.3000000000000003,2.8000000000000003,9.8,-22.4,-71.30000000000001,7.8,16
983,16379.0,0.1,-2.1,1.2000000000000002,1.5,1.9000000000000001,9.1,-49.5,13.6,-15.9,16
984,16396.0,-1.1,-2.0,-0.8,0.6000000000000001,2.1,7.7,-56.5,39.00000000000001,-16.0,16
985,16413.0,-1.5,-1.7000000000000002,-1.4000000000000001,0.6000000000000001,2.1,7.7,-56.5,39.00000000000001,-16.0,16
986,16429.0,-2.0,-1.8,-1.6,-0.6000000000000001,1.5,7.0,-63.2,26.200000000000003,-1.0,16
987,16447.0,-2.4000000000000004,-2.1,-2.0,-0.6000000000000001,1.5,7.0,-63.2,26.200000000000003,-1.0,16
988,16463.0,-2.6,-2.2,-2.1,-1.0,1.2000000000000002,6.9,-59.5,25.0,15.6,16
989,16480.0,-2.6,-1.7000000000000002,-2.2,-0.9,1.7000000000000002,7.1000000000000005,-39.300000000000004,-13.9,48.800000000000004,16
990,16497.0,-2.5,-1.4000000000000001,-2.0,-0.9,1.7000000000000002,7.1000000000000005,-39.300000000000004,-13.9,48.800000000000004,16
991,16513.0,-1.5,-0.8,-0.4,0.0,2.0,8.200000000000001,-25.5,-59.80000000000001,62.4,16
992,16530.0,-0.30000000000000004,-0.4,0.2,2.6,2.5,8.9,20.5,-112.80000000000001,67.5,16
993,16547.0,0.30000000000000004,-0.4,-0.1,2.6,2.5,8.9,20.5,-112.80000000000001,67.5,16
994,16563.0,0.2,0.30000000000000004,-0.7000000000000001,3.1,2.9000000000000004,8.3,25.6,-73.2,63.2,16
995,16580.0,-0.1,0.6000000000000001,-0.6000000000000001,2.8000000000000003,3.5,8.5,-1.3,18.400000000000002,57.5,16
996,16597.0,0.0,0.7000000000000001,-0.2,2.8000000000000003,3.5,8.5,-1.3,18.400000000000002,57.5,16
997,16613.0,-0.5,0.7000000000000001,0.2,2.1,3.5,8.9,2.7,14.700000000000001,47.1,16
998,16630.0,-0.9,0.6000000000000001,-0.2,2.1,3.5,8.9,2.7,14.700000000000001,47.1,16
999,16647.0,-0.8,0.6000000000000001,-0.2,2.0,3.4000000000000004,8.6,10.0,-4.2,46.300000000000004,16
1000,16663.0,0.30000000000000004,0.5,0.0,3.6,3.4000000000000004,9.0,13.200000000000001,-17.7,40.7,16
1001,16680.0,0.7000000000000001,0.6000000000000001,0.1,3.6,3.4000000000000004,9.0,13.200000000000001,-17.7,40.7,16
1002,16697.0,0.5,0.8,-0.2,3.6,3.5,8.700000000000001,10.5,-14.0,30.799999999999997,16
1003,16713.0,0.5,0.6000000000000001,0.1,3.6,3.2,9.3,-5.8,-1.5000000000000002,19.6,16
1004,16730.0,0.5,0.5,0.5,3.6,3.2,9.3,-5.8,-1.5000000000000002,19.6,16
1005,16746.0,0.6000000000000001,0.5,0.6000000000000001,3.7,3.2,9.4,-5.0,5.0,17.7,16
1006,16763.0,1.3,0.7000000000000001,0.1,4.6000000000000005,3.4000000000000004,8.8,-6.5,-13.4,5.1,16
1007,16780.0,1.4000000000000001,0.7000000000000001,0.0,4.6000000000000005,3.4000000000000004,8.8,-6.5,-13.4,5.1,16
1008,16797.0,1.9000000000000001,0.1,1.3,5.0,3.0,9.600000000000001,-20.6,-22.7,-3.1,16
1009,16813.0,2.3000000000000003,-0.6000000000000001,2.6,5.4,1.6,11.4,-24.3,13.200000000000001,-15.5,16
1010,16830.0,2.1,-1.1,2.6,5.4,1.6,11.4,-24.3,13.200000000000001,-15.5,16
1011,16846.0,0.4,-1.4000000000000001,0.5,4.1000000000000005,1.2000000000000002,10.200000000000001,-5.300000000000001,50.7,-15.100000000000001,16
1012,16863.0,-0.1,-1.0,-1.7000000000000002,3.1,1.9000000000000001,6.9,21.3,44.1,3.9,16
1013,16880.0,0.30000000000000004,-0.5,-2.3000000000000003,3.1,1.9000000000000001,6.9,21.3,44.1,3.9,16
1014,16896.0,1.3,-0.2,-2.1,4.800000000000001,2.4000000000000004,7.6000000000000005,6.5,-41.5,-3.8,16
1015,16913.0,1.9000000000000001,-0.30000000000000004,-1.2000000000000002,4.800000000000001,2.4000000000000004,7.6000000000000005,6.5,-41.5,-3.8,16
1016,16930.0,2.7,-0.30000000000000004,0.30000000000000004,5.7,2.3000000000000003,8.9,-6.5,-49.7,-14.0,16
1017,16946.0,2.9000000000000004,-0.8,1.4000000000000001,5.5,1.8,10.100000000000001,-19.200000000000003,6.1000000000000005,-39.8,16
1018,16963.0,2.2,-0.8,1.2000000000000002,5.5,1.8,10.100000000000001,-19.200000000000003,6.1000000000000005,-39.8,16
1019,16980.0,1.0,-0.8,0.4,4.3,1.8,9.5,-16.700000000000003,34.300000000000004,-43.0,16
1020,16997.0,0.4,-0.6000000000000001,-0.7000000000000001,3.1,2.2,7.6000000000000005,8.799999999999999,17.3,-41.5,16
1021,17013.0,0.2,-0.5,-1.5,3.1,2.2,7.6000000000000005,8.799999999999999,17.3,-41.5,16
1022,17030.0,0.5,-0.1,-2.7,3.2,2.5,6.5,17.1,-0.30000000000000004,-38.0,16
1023,17047.0,1.0,0.2,-3.0,4.0,3.3000000000000003,6.0,11.4,-13.4,-41.7,16
1024,17063.0,1.1,0.5,-2.8000000000000003,4.0,3.3000000000000003,6.0,11.4,-13.4,-41.7,16
1025,17079.0,1.1,0.7000000000000001,-2.6,4.0,3.6,6.2,5.4,-11.700000000000001,-48.400000000000006,16
1026,17096.0,0.9,0.9,-2.1,3.8000000000000003,4.0,7.0,-10.3,0.8,-57.6,16
1027,17113.0,1.0,1.0,-1.7000000000000002,3.8000000000000003,4.0,7.0,-10.3,0.8,-57.6,16
1028,17130.0,1.0,1.1,-0.5,3.7,4.1000000000000005,7.9,-14.100000000000001,4.5,-60.1,16
1029,17146.0,0.9,1.2000000000000002,-0.1,3.6,4.4,8.6,2.1,-1.5000000000000002,-62.1,16
1030,17163.0,0.9,1.3,-0.30000000000000004,3.6,4.4,8.6,2.1,-1.5000000000000002,-62.1,16
1031,17180.0,0.9,1.4000000000000001,-0.6000000000000001,3.6,4.7,8.200000000000001,8.0,-1.9,-59.80000000000001,16
1032,17198.0,1.4000000000000001,1.5,-0.30000000000000004,3.6,4.7,8.200000000000001,6.000000000000001,-5.0,-59.300000000000004,16
1033,17213.0,1.7000000000000002,1.4000000000000001,0.1,4.1000000000000005,4.800000000000001,8.700000000000001,6.000000000000001,-5.0,-59.300000000000004,16
1034,17230.0,1.5,1.2000000000000002,0.7000000000000001,3.7,4.5,9.700000000000001,9.4,-14.4,-64.2,16
1035,17246.0,1.2000000000000002,1.0,1.0,3.7,4.5,9.700000000000001,9.4,-14.4,-64.2,16
1036,17263.0,1.1,1.0,1.9000000000000001,3.7,4.5,10.3,14.200000000000001,-15.9,-59.9,16
1037,17279.0,0.7000000000000001,1.3,2.2,3.2,5.300000000000001,10.9,39.400000000000006,-20.2,-38.900000000000006,16
1038,17297.0,0.7000000000000001,1.6,2.3000000000000003,3.2,5.300000000000001,10.9,39.400000000000006,-20.2,-38.900000000000006,16
1039,17313.0,1.0,2.0,1.3,3.5,5.800000000000001,10.200000000000001,55.0,-41.1,-27.2,16
1040,17330.0,2.2,2.3000000000000003,0.6000000000000001,5.5,6.2,9.1,45.7,-91.60000000000001,-27.7,16
1041,17347.0,2.8000000000000003,1.9000000000000001,0.7000000000000001,5.5,6.2,9.1,45.7,-91.60000000000001,-27.7,16
1042,17363.0,2.6,-0.1,2.6,5.800000000000001,4.800000000000001,10.200000000000001,23.5,-79.7,-41.9,16
1043,17380.0,1.1,-1.4000000000000001,2.0,3.5,2.9000000000000004,9.4,17.3,-7.500000000000001,-58.5,16
1044,17397.0,0.1,-1.8,0.9,3.5,2.9000000000000004,9.4,17.3,-7.500000000000001,-58.5,16
1045,17413.0,-1.7000000000000002,-2.0,-0.6000000000000001,1.8,2.6,8.0,12.5,22.5,-54.9,16
1046,17430.0,-2.2,-2.0,-0.9,0.6000000000000001,2.7,7.300000000000001,9.1,-5.6,-35.199999999999996,16
1047,17446.0,-2.4000000000000004,-1.5,-1.0,0.30000000000000004,3.1,7.2,9.1,-5.6,-35.199999999999996,16
1048,17463.0,-1.2000000000000002,-1.4000000000000001,-1.0,2.2,3.4000000000000004,7.2,4.6000000000000005,-69.5,-26.0,16
1049,17480.0,-0.7000000000000001,-1.4000000000000001,-0.9,2.2,3.4000000000000004,7.2,4.6000000000000005,-69.5,-26.0,16
1050,17497.0,-0.1,-1.3,-0.9,2.8000000000000003,3.4000000000000004,7.1000000000000005,-9.0,-70.2,-28.8,16
1051,17513.0,-0.1,-1.5,-0.6000000000000001,2.9000000000000004,3.2,7.9,-48.300000000000004,-25.900000000000002,-35.199999999999996,16
1052,17530.0,-0.2,-1.5,-0.1,2.9000000000000004,3.2,7.9,-48.300000000000004,-25.900000000000002,-35.199999999999996,16
1053,17546.0,-0.7000000000000001,-1.7000000000000002,0.2,2.6,2.9000000000000004,8.3,-55.0,-5.7,-40.6,16
1054,17563.0,-1.8,-1.7000000000000002,-0.8,0.7000000000000001,2.8000000000000003,6.9,-45.7,16.6,-40.9,16
1055,17580.0,-2.3000000000000003,-1.6,-1.4000000000000001,0.7000000000000001,2.8000000000000003,6.9,-45.7,16.6,-40.9,16
1056,17597.0,-2.7,-1.2000000000000002,-2.2,0.1,3.0,6.2,-42.5,15.8,-32.300000000000004,16
1057,17613.0,-2.1,-0.8,-1.6,0.7000000000000001,3.5,7.0,-39.50000000000001,-4.5,-15.5,16
1058,17630.0,-2.0,-0.6000000000000001,-1.3,0.7000000000000001,3.5,7.0,-39.50000000000001,-4.5,-15.5,16
1059,17646.0,-2.0,-0.30000000000000004,-0.6000000000000001,0.8,3.7,7.6000000000000005,-34.6,-12.000000000000002,-9.9,16
1060,17663.0,-1.8,-0.1,-0.1,1.1,3.9000000000000004,8.5,-22.7,-6.2,7.400000000000001,16
1061,17680.0,-1.6,0.0,0.2,1.1,3.9000000000000004,8.5,-22.7,-6.2,7.400000000000001,16
1062,17697.0,-1.3,0.4,0.4,1.4000000000000001,4.2,8.8,-12.9,-2.9,13.0,16
1063,17714.0,-1.2000000000000002,0.8,-0.2,1.7000000000000002,4.6000000000000005,8.1,4.3999999999999995,-9.200000000000001,14.600000000000001,16
1064,17730.0,-1.1,0.8,-0.4,1.7000000000000002,4.6000000000000005,8.1,4.3999999999999995,-9.200000000000001,14.600000000000001,16
1065,17746.0,-1.0,0.9,-0.5,1.8,4.7,7.7,6.6000000000000005,-3.1,12.5,16
1066,17763.0,-1.0,0.8,-0.7000000000000001,2.0,4.7,7.6000000000000005,7.1000000000000005,-2.0,11.2,16
1067,17779.0,-0.7000000000000001,0.8,-0.8,2.0,4.7,7.6000000000000005,7.1000000000000005,-2.0,11.2,16
1068,17796.0,-0.5,1.0,-0.9,2.4000000000000004,5.0,7.5,2.1999999999999997,-3.6,3.2,16
1069,17813.0,-0.5,1.1,-0.8,2.4000000000000004,5.0,7.5,2.1999999999999997,-3.6,3.2,16
1070,17829.0,-0.5,1.4000000000000001,-0.1,2.4000000000000004,5.2,8.1,-5.300000000000001,-5.2,0.4,16
1071,17846.0,-0.5,1.6,0.9,2.5,5.5,10.0,-12.000000000000002,-6.3,3.3000000000000003,16
1072,17863.0,-0.4,1.7000000000000002,1.7000000000000002,2.5,5.5,10.0,-12.000000000000002,-6.3,3.3000000000000003,16
1073,17880.0,-0.30000000000000004,2.0,2.5,2.6,5.800000000000001,10.8,-2.9,-2.3000000000000003,8.3,16
1074,17897.0,0.0,2.9000000000000004,1.7000000000000002,3.6,7.2,9.9,18.2,-21.400000000000002,20.2,16
1075,17913.0,0.8,3.3000000000000003,1.5,3.6,7.2,9.9,18.2,-21.400000000000002,20.2,16
1076,17930.0,2.3000000000000003,3.2,2.7,5.1000000000000005,7.300000000000001,10.600000000000001,8.0,-49.9,11.700000000000001,16
1077,17946.0,2.4000000000000004,1.3,4.6000000000000005,5.300000000000001,4.6000000000000005,13.5,-7.9,-24.3,-19.1,16
1078,17963.0,1.7000000000000002,0.30000000000000004,5.4,5.300000000000001,4.6000000000000005,13.5,-7.9,-24.3,-19.1,16
1079,17980.0,-0.5,-1.0,3.7,3.5,3.4000000000000004,12.9,10.0,20.7,-22.2,16
1080,17997.0,-1.8,-1.6,1.5,1.4000000000000001,2.4000000000000004,9.600000000000001,36.6,37.5,7.0,16
1081,18013.0,-1.6,-1.8,1.0,1.4000000000000001,2.4000000000000004,9.600000000000001,36.6,37.5,7.0,16
1082,18030.0,-0.5,-1.6,0.6000000000000001,3.1,2.8000000000000003,8.5,46.800000000000004,-38.7,30.200000000000003,16
1083,18046.0,-0.1,-1.5,0.2,3.1,2.8000000000000003,8.5,46.800000000000004,-38.7,30.200000000000003,16
1084,18063.0,0.2,-1.3,-0.1,3.5,3.0,8.1,39.9,-48.9,34.2,16
1085,18080.0,0.1,-1.1,-0.7000000000000001,3.5,3.3000000000000003,7.300000000000001,17.400000000000002,-12.4,34.50000000000001,16
1086,18097.0,-0.1,-1.1,-0.7000000000000001,3.5,3.3000000000000003,7.300000000000001,17.400000000000002,-12.4,34.50000000000001,16
1087,18113.0,-0.1,-1.0,-1.1,3.5,3.3000000000000003,7.0,10.1,10.0,29.800000000000004,16
1088,18129.0,-0.8,-0.7000000000000001,-1.6,2.4000000000000004,3.7,6.2,5.300000000000001,16.5,13.100000000000001,16
1089,18146.0,-1.2000000000000002,-0.6000000000000001,-1.8,2.4000000000000004,3.7,6.2,5.300000000000001,16.5,13.100000000000001,16
1090,18163.0,-1.5,-0.6000000000000001,-1.3,2.1,3.8000000000000003,6.5,1.4,10.2,13.200000000000001,16
1091,18180.0,-1.6,-0.7000000000000001,-1.4000000000000001,2.0,3.7,6.5,10.4,10.4,21.200000000000003,16
1092,18197.0,-1.5,-0.6000000000000001,-1.6,2.0,3.7,6.5,10.4,10.4,21.200000000000003,16
1093,18213.0,-0.7000000000000001,-0.5,-1.6,2.5,3.8000000000000003,6.300000000000001,17.200000000000003,10.9,24.5,16
1094,18230.0,-0.2,-0.30000000000000004,-1.8,3.2,4.0,6.4,32.0,-1.0999999999999999,18.900000000000002,16
1095,18247.0,-0.2,-0.2,-2.1,3.3000000000000003,4.2,5.9,32.0,-1.0999999999999999,18.900000000000002,16
1096,18263.0,-0.1,-0.30000000000000004,-2.4000000000000004,3.4000000000000004,4.3,5.5,31.6,1.3,16.700000000000003,16
1097,18280.0,-0.30000000000000004,-0.5,-2.3000000000000003,3.2,4.1000000000000005,5.4,28.500000000000004,29.700000000000003,16.2,16
1098,18297.0,-0.4,-0.4,-2.4000000000000004,3.2,4.1000000000000005,5.4,28.500000000000004,29.700000000000003,16.2,16
1099,18313.0,-0.5,0.0,-2.3000000000000003,3.1,4.9,5.5,30.7,17.0,26.6,16
1100,18330.0,-0.30000000000000004,0.30000000000000004,-2.2,3.1,4.9,5.5,30.7,17.0,26.6,16
1101,18346.0,0.8,0.8,-1.5,4.0,5.4,5.9,26.0,-2.1,30.000000000000004,16
1102,18363.0,1.4000000000000001,1.2000000000000002,-0.6000000000000001,5.2,5.9,7.800000000000001,5.0,-28.6,20.2,16
1103,18380.0,1.5,1.2000000000000002,0.30000000000000004,5.2,5.9,7.800000000000001,5.0,-28.6,20.2,16
1104,18397.0,2.0,1.1,3.0,5.6000000000000005,5.800000000000001,10.0,-4.0,-24.400000000000002,19.500000000000004,16
1105,18413.0,2.2,1.6,4.800000000000001,6.1000000000000005,6.7,12.100000000000001,25.0,10.0,32.2,16
1106,18430.0,2.2,2.1,4.5,6.1000000000000005,6.7,12.100000000000001,25.0,10.0,32.2,16
1107,18446.0,2.5,3.1,2.0,6.300000000000001,7.6000000000000005,10.3,50.4,15.299999999999999,39.6,16
1108,18463.0,2.6,3.1,-0.4,6.4,7.4,6.800000000000001,50.1,-36.800000000000004,18.6,16
1109,18480.0,2.3000000000000003,2.2,-0.6000000000000001,6.4,7.4,6.800000000000001,50.1,-36.800000000000004,18.6,16
1110,18496.0,1.7000000000000002,0.4,0.7000000000000001,6.1000000000000005,5.9,7.6000000000000005,33.900000000000006,-66.7,1.8,16
1111,18513.0,1.2000000000000002,-1.3,1.7000000000000002,5.300000000000001,3.3000000000000003,9.0,18.400000000000002,-42.2,-17.0,16
1112,18529.0,0.6000000000000001,-2.0,2.0,5.300000000000001,3.3000000000000003,9.0,18.400000000000002,-42.2,-17.0,16
1113,18546.0,-0.9,-2.0,0.9,4.0,3.1,8.4,20.1,-4.2,-15.8,16
1114,18563.0,-1.1,-1.0,-0.6000000000000001,3.6,4.4,6.1000000000000005,17.9,-26.6,-9.600000000000001,16
1115,18579.0,-0.7000000000000001,-0.8,-0.9,3.6,4.4,6.1000000000000005,17.9,-26.6,-9.600000000000001,16
1116,18596.0,0.4,-0.7000000000000001,0.2,6.2,4.3,8.5,-12.3,-116.80000000000001,-12.5,16
1117,18613.0,2.1,-1.5,3.3000000000000003,7.4,3.5,10.0,-17.8,-94.80000000000001,-14.800000000000002,16
1118,18630.0,2.6,-2.0,3.5,7.4,3.5,10.0,-17.8,-94.80000000000001,-14.800000000000002,16
1119,18647.0,0.9,-1.1,1.8,5.2,4.1000000000000005,7.300000000000001,-25.900000000000002,2.8,-24.9,16
1120,18663.0,-0.8,-1.4000000000000001,-0.2,5.2,4.1000000000000005,7.300000000000001,-37.300000000000004,22.3,-25.3,16
1121,18680.0,-1.6,-1.6,-1.1,3.7,3.7,6.0,-37.300000000000004,22.3,-25.3,16
1122,18696.0,-2.9000000000000004,-1.7000000000000002,-2.0,1.9000000000000001,2.9000000000000004,4.3,-56.1,-0.30000000000000004,-16.5,16
1123,18714.0,-3.0,-2.3000000000000003,-2.6,1.9000000000000001,2.9000000000000004,4.3,-56.1,-0.30000000000000004,-16.5,16
1124,18730.0,-3.0,-2.1,-1.7000000000000002,1.8,2.7,4.9,-65.89999999999999,-13.5,-4.9,16
1125,18747.0,-2.9000000000000004,-1.7000000000000002,-1.2000000000000002,2.0,3.1,5.800000000000001,-59.300000000000004,-12.3,8.799999999999999,16
1126,18763.0,-2.0,-1.9000000000000001,-1.1,2.7,2.9000000000000004,5.9,-33.900000000000006,1.2000000000000002,18.900000000000002,16
1127,18780.0,-1.6,-1.4000000000000001,-1.8,3.1,3.1,5.4,-12.9,4.0,22.5,16
1128,18796.0,-1.2000000000000002,-0.9,-2.7,3.8000000000000003,3.9000000000000004,4.1000000000000005,5.1,0.2,21.6,16
1129,18813.0,-1.1,-0.6000000000000001,-3.0,3.8000000000000003,3.9000000000000004,4.1000000000000005,5.1,0.2,21.6,16
1130,18830.0,-1.1,0.0,-3.0,3.7,4.4,3.9000000000000004,-1.0999999999999999,1.5000000000000002,18.8,16
1131,18846.0,-0.8,0.2,-2.5,4.1000000000000005,5.0,5.4,-11.8,4.1000000000000005,16.0,16
1132,18863.0,-0.8,0.6000000000000001,-1.4000000000000001,4.1000000000000005,5.0,5.4,-15.399999999999999,5.1,10.1,16
1133,18880.0,-0.7000000000000001,0.7000000000000001,-0.5,4.7,5.300000000000001,7.5,-15.100000000000001,-10.2,9.9,16
1134,18896.0,0.4,1.0,1.6,5.800000000000001,5.300000000000001,9.1,-13.4,-26.0,13.9,16
1135,18913.0,1.1,1.0,2.4000000000000004,5.800000000000001,5.300000000000001,9.1,-13.4,-26.0,13.9,16
1136,18929.0,2.6,1.2000000000000002,3.0,8.0,5.5,9.9,-3.7000000000000006,-27.900000000000002,8.200000000000001,16
1137,18946.0,2.8000000000000003,1.3,2.9000000000000004,8.0,5.5,9.9,-3.7000000000000006,-27.900000000000002,8.200000000000001,16
1138,18963.0,1.7000000000000002,1.6,1.8,7.300000000000001,5.800000000000001,9.1,-1.3,-9.0,1.8,16
1139,18979.0,0.4,2.2,0.7000000000000001,5.5,6.7,7.6000000000000005,-5.4,24.8,16.0,16
1140,18997.0,0.30000000000000004,2.5,0.6000000000000001,5.5,6.7,7.6000000000000005,-5.4,24.8,16.0,16
1141,19013.0,2.7,3.5,1.9000000000000001,7.1000000000000005,7.5,8.5,-9.0,3.8,32.2,16
1142,19030.0,5.0,2.9000000000000004,3.4000000000000004,10.3,6.0,10.200000000000001,-4.300000000000001,-67.2,-13.5,16
1143,19046.0,4.7,1.6,3.2,10.3,6.0,10.200000000000001,-4.300000000000001,-67.2,-13.5,16
1144,19063.0,1.1,-0.5,1.1,7.9,4.2,8.8,1.5000000000000002,-27.900000000000002,-48.50000000000001,16
1145,19080.0,-2.4000000000000004,-1.6,-1.3,2.1,2.7,5.5,-16.6,95.7,-43.2,16
1146,19096.0,-3.4000000000000004,-1.7000000000000002,-1.7000000000000002,2.1,2.7,5.5,-16.6,95.7,-43.2,16
1147,19113.0,-3.4000000000000004,-1.6,-1.7000000000000002,1.5,2.7,5.5,-21.1,99.2,-24.6,16
1148,19130.0,-1.9000000000000001,-1.2000000000000002,-0.5,3.7,3.1,7.4,-9.600000000000001,-15.6,4.6000000000000005,16
1149,19146.0,-0.6000000000000001,-1.1,0.2,3.7,3.1,7.4,-9.600000000000001,-15.6,4.6000000000000005,16
1150,19163.0,1.5,-1.0,1.1,7.0,3.4000000000000004,8.200000000000001,3.7000000000000006,-68.7,3.1,16
1151,19180.0,2.0,-0.6000000000000001,0.30000000000000004,7.0,3.4000000000000004,8.200000000000001,3.7000000000000006,-68.7,3.1,16
1152,19197.0,1.3,-0.30000000000000004,-0.7000000000000001,6.7,3.8000000000000003,6.800000000000001,-0.4,-28.6,-7.400000000000001,16
1153,19213.0,-0.30000000000000004,-0.1,-2.3000000000000003,4.1000000000000005,4.0,4.800000000000001,-39.699999999999996,72.8,-18.1,16
1154,19232.0,-1.3,-0.30000000000000004,-2.4000000000000004,3.4000000000000004,3.8000000000000003,5.1000000000000005,-49.6,84.0,-22.2,16
1155,19246.0,-1.3,-0.4,-2.3000000000000003,3.4000000000000004,3.8000000000000003,5.1000000000000005,-49.6,84.0,-22.2,16
1156,19263.0,-2.4000000000000004,-0.4,-1.6,2.0,3.5,6.0,-22.2,35.7,-23.0,16
1157,19280.0,-2.3000000000000003,-0.6000000000000001,-1.7000000000000002,2.0,3.5,6.0,-22.2,35.7,-23.0,16
1158,19296.0,-1.8,-0.6000000000000001,-1.9000000000000001,2.3000000000000003,3.4000000000000004,5.800000000000001,-0.1,8.799999999999999,-13.700000000000001,16
1159,19313.0,-0.5,-0.2,-2.2,4.1000000000000005,4.1000000000000005,5.2,28.0,-12.100000000000001,2.3000000000000003,16
1160,19329.0,-0.1,0.0,-2.5,4.1000000000000005,4.1000000000000005,5.2,28.0,-12.100000000000001,2.3000000000000003,16
1161,19346.0,0.6000000000000001,0.5,-2.8000000000000003,4.7,4.5,4.9,28.500000000000004,-10.5,1.4,16
1162,19363.0,0.9,0.7000000000000001,-2.7,5.300000000000001,4.9,5.0,10.600000000000001,3.7000000000000006,-11.000000000000002,16
1163,19380.0,1.0,0.6000000000000001,-2.4000000000000004,5.300000000000001,4.9,5.0,10.600000000000001,3.7000000000000006,-11.000000000000002,16
1164,19397.0,1.0,0.8,-1.2000000000000002,5.4,5.1000000000000005,5.800000000000001,1.7,11.700000000000001,-16.8,16
1165,19413.0,0.8,1.0,-1.0,5.1000000000000005,5.300000000000001,6.4,-0.5,16.8,-19.700000000000003,16
1166,19430.0,0.7000000000000001,1.3,-0.7000000000000001,4.9,5.6000000000000005,6.7,-3.6,12.3,-21.5,16
1167,19446.0,0.9,1.2000000000000002,1.0,5.2,5.5,9.600000000000001,-22.000000000000004,1.0999999999999999,-27.6,16
1168,19463.0,1.3,1.0,3.0,5.2,5.5,9.600000000000001,-22.000000000000004,1.0999999999999999,-27.6,16
1169,19480.0,1.3,1.1,3.6,5.4,5.4,10.9,-22.000000000000004,3.1,-28.200000000000003,16
1170,19496.0,1.0,1.3,3.4000000000000004,4.5,5.800000000000001,10.200000000000001,-6.5,34.7,-25.5,16
1171,19513.0,0.5,1.5,2.4000000000000004,4.5,5.800000000000001,10.200000000000001,-6.5,34.7,-25.5,16
1172,19530.0,0.0,1.9000000000000001,0.8,3.8000000000000003,6.2,8.8,-6.3,47.2,-20.3,16
1173,19546.0,1.1,1.5,3.1,5.2,5.2,12.0,-12.6,-7.9,-18.900000000000002,16
1174,19563.0,1.6,0.6000000000000001,4.3,5.2,5.2,12.0,-12.6,-7.9,-18.900000000000002,16
1175,19580.0,1.6,-0.9,4.4,5.4,3.9000000000000004,12.4,7.1000000000000005,-20.3,-24.7,16
1176,19596.0,0.1,-1.6,2.0,3.3000000000000003,3.0,8.9,27.8,40.8,-18.1,16
1177,19614.0,-0.4,-1.6,0.7000000000000001,3.3000000000000003,3.0,8.9,27.8,40.8,-18.1,16
1178,19630.0,-1.4000000000000001,-1.3,-0.7000000000000001,2.4000000000000004,3.2,7.5,22.6,53.00000000000001,-11.1,16
1179,19646.0,-1.5,-0.8,-1.2000000000000002,2.0,3.9000000000000004,7.0,0.4,1.8,4.9,16
1180,19663.0,-1.2000000000000002,-0.8,-0.8,2.0,3.9000000000000004,7.0,0.4,1.8,4.9,16
1181,19680.0,0.6000000000000001,-1.0,1.3,3.4000000000000004,3.7,8.5,-13.6,-38.0,11.3,16
1182,19697.0,1.5,-1.4000000000000001,2.4000000000000004,5.2,3.0,10.0,-15.399999999999999,-51.2,7.400000000000001,16
1183,19713.0,1.4000000000000001,-1.6,2.0,5.2,3.0,10.0,-15.399999999999999,-51.2,7.400000000000001,16
1184,19730.0,0.1,-1.4000000000000001,0.0,3.4000000000000004,3.1,6.9,-17.8,13.3,9.4,16
1185,19747.0,-0.4,-1.3,-1.0,2.8000000000000003,3.1,6.1000000000000005,-17.8,13.3,9.4,16
1186,19763.0,-1.0,-1.3,-2.0,2.8000000000000003,3.1,6.1000000000000005,-23.2,28.0,11.2,16
1187,19780.0,-1.2000000000000002,-1.2000000000000002,-2.0,2.4000000000000004,3.1,5.9,-15.100000000000001,5.4,10.700000000000001,16
