,ms,accelX,accelY,accelZ,accelWithGX,accelWithGY,accelWithGZ,rotRateAlpha,rotRateBeta,rotRateGamma,interval
0,2.0,0.2575404907263815,0.24025895492732524,0.20840894168019294,2.519748194232583,-2.606386905504763,-8.89924757080078,2.4191048742908916,1.1564754639921,7.384559766449543,0.01666666753590107
1,53.0,-0.2557983232341707,-0.21348756011873482,-0.0775555333673954,1.4475949094243348,-3.3593653734505176,-9.208398275646568,-1.6383506460217885,10.081374582864452,-1.1026561346533381,0.01666666753590107
2,59.0,-0.16461846140101552,-0.2193207963168621,-0.16567337728142736,1.5475525364749132,-3.3638542093023656,-9.29533772343099,-2.5137930674152478,11.368560444220146,-1.2768963948144791,0.01666666753590107
3,76.0,0.2016308258473873,-0.0019087562307715416,-0.4873690909236669,1.953668993078917,-3.1365546891912817,-9.612868718609214,-3.2335934068706877,12.943604628146025,-0.441061600087689,0.01666666753590107
4,91.0,0.3517091591119766,0.13587620491087435,-0.47983869541883467,2.1297925988346336,-2.9948481706917285,-9.60164589832723,-0.025637795400517218,10.436631504617033,1.1166339033463577,0.01666666753590107
5,110.0,0.37162601185068483,0.266654794421792,-0.1636889254659414,2.1670525083012877,-2.8716964227974415,-9.279476721954346,5.001849982037887,7.673642400428456,0.7030419900791377,0.01666666753590107
6,126.0,0.11495938134938478,0.15912848568260668,0.22263737351894378,1.9247892278142271,-3.003976064521074,-8.881739386638998,8.386373494092933,3.5999626195160563,-1.3564627625598387,0.01666666753590107
7,142.0,-0.03539338494241238,-0.09605068273991346,0.32742870433628557,1.7787427804142235,-3.2763165033638475,-8.770109734234213,6.17645938483296,0.15831284598605297,-2.8529019278660375,0.01666666753590107
8,159.0,-0.1605988504961133,-0.21500322537869213,0.26132395478785037,1.654244440216571,-3.40246100333333,-8.833556078228353,1.6723396950441818,-0.972119266783347,-2.4616514032913703,0.01666666753590107
9,175.0,-0.1538594592384994,-0.22689415418058634,-0.012471359038352966,1.6627737836308776,-3.4127859979927537,-9.107542530712484,-0.04405090484560056,0.602657365826138,0.5529220093633679,0.01666666753590107
10,192.0,-0.1549206587292254,-0.17931728723049162,-0.127775316041708,1.6675620408207177,-3.365949428015947,-9.221417331695555,1.2841351146742233,4.102733698094341,2.996708572632894,0.01666666753590107
11,209.0,-0.05942994795963168,-0.010363865365087986,-0.1700257272720337,1.7729070599980652,-3.203442990332842,-9.259424698528647,3.702594322645137,4.825821919861496,4.139947556900332,0.01666666753590107
12,225.0,-0.02987593669518828,0.02214110465943813,-0.009022095367312431,1.8103164609380065,-3.1893770555794236,-9.090334206280112,4.741848585997597,3.2189804305848573,3.8198353735220523,0.01666666753590107
13,242.0,-0.03170446729660034,0.008279460306465626,0.06451426548659801,1.8097179105229675,-3.215862911444902,-9.012073739513754,3.186912905875059,1.1090923072856058,3.845186474400201,0.01666666753590107
14,259.0,0.035207945372909305,0.011739537632465363,0.10144202038943767,1.8683757050663232,-3.2213995027840134,-8.973616875347494,0.6250842919658749,-2.406120898122109,4.416429772521041,0.01666666753590107
15,275.0,0.05807838722020387,0.01864770958572626,0.011463058778643608,1.8682262135930359,-3.2175089250862596,-9.067140377697347,-0.39873080901544744,-6.0910892772837935,5.622096899245807,0.01666666753590107
16,292.0,0.029221126048266887,0.03787555714696646,-0.047746086037158963,1.8189952958256006,-3.199402775031328,-9.12998817127645,-0.31979884845010575,-6.220339935155707,6.3310765115086545,0.01666666753590107
17,309.0,-0.07467676306068897,0.024412848983705042,-0.13254852179288865,1.6952451436467468,-3.2152643610298632,-9.217825444683433,0.48283759837242574,-6.109621714936154,6.218835159104189,0.01666666753590107
18,326.0,-0.12925488707497715,0.02922229509204626,-0.12522329347133634,1.615637792316079,-3.2169103746712207,-9.213037041363119,1.2841628623177264,-6.125153991995586,5.911667891750375,0.01666666753590107
19,342.0,-0.15781827986687422,0.013479074776172637,-0.0662444502800703,1.5695494103580712,-3.2386078272163865,-9.15527751083374,1.5965219272143958,-5.348132462107895,5.260443505335509,0.01666666753590107
20,359.0,-0.21339827440008519,-0.016462766762077807,0.029151860204339027,1.5013148091740904,-3.2737726640999316,-9.060406685528159,1.2875773165724982,-4.548419336250129,4.342932668183472,0.01666666753590107
21,375.0,-0.1779316780909896,-0.043138007719814776,0.11415829409956932,1.517325886645913,-3.3047479403391478,-8.977507453045249,0.5733832284043163,-5.50403067613979,3.4505242703351127,0.01666666753590107
22,392.0,-0.16508914765268562,-0.05900134728401899,0.10616729534566402,1.5149318311162292,-3.3224048853218555,-8.987682810100912,0.3265943263853131,-4.908103074358524,2.7228606755976954,0.01666666753590107
23,409.0,-0.100370884026587,-0.052204234489798544,0.00019464578926563263,1.5641623104922473,-3.316119813703,-9.096319710430503,0.16599308688282818,-5.399437428058445,2.603578678819416,0.01666666753590107
24,426.0,-0.08610138952508568,-0.09025894759595393,8.592471778392792e-05,1.5569798516422508,-3.3574200846016407,-9.099162824901939,0.821523787507468,-4.649137305751137,2.097730173133217,0.01666666753590107
25,442.0,-0.08723010129407048,-0.10735270573794842,0.0006032265901565551,1.5447095681339502,-3.376573405621946,-9.099910428398847,0.15526479402765545,-2.564339882367927,1.311465796472912,0.01666666753590107
26,459.0,-0.025062837325036523,-0.09437953465729951,-0.09938625690340995,1.5985791054874658,-3.3649019647896288,-9.200916395458579,-0.05185799782991025,-2.327233493868931,1.198840672814456,0.01666666753590107
27,475.0,0.09446355967894196,-0.10504618236124515,-0.20678689343631265,1.706766946875304,-3.3773215936407444,-9.309702933391929,-0.10247606286141195,-2.0895497409416572,1.9275244203374382,0.01666666753590107
28,491.0,0.1190431435316801,-0.12109189275503159,-0.1999228528857231,1.725771214813739,-3.394081297522783,-9.303567791637779,-0.4962727939132524,-0.6130891991228632,2.5185323649255906,0.01666666753590107
29,509.0,0.199545397875458,-0.09434738595336675,-0.2442985857069492,1.8011884209781883,-3.367146528846025,-9.348907985576986,-1.348818927104948,-1.771879350191657,2.880198992327405,0.01666666753590107
30,526.0,0.26193054237887264,-0.038791502948105336,-0.2863894224613905,1.8489228165775535,-3.309685689002275,-9.394248179516195,-0.9244131701951582,-4.562228271204602,2.6883763311387705,0.01666666753590107
31,542.0,0.24972017236426472,-0.0139534142896533,-0.2879711386948824,1.8225864521853625,-3.2864915681585667,-9.39768925988078,1.21853445606913,-5.11385868112375,2.8727886639647644,0.01666666753590107
32,558.0,0.1788593143299222,-0.011559797151386737,-0.274998844397068,1.737592439380288,-3.2909809885323047,-9.384671372875571,3.145185359244747,-4.844235682977027,3.0713971180938064,0.01666666753590107
33,576.0,0.12476707413643598,-0.058987611019611356,-0.27744857563674447,1.6686095040470361,-3.3509856676399705,-9.38512028568685,3.221731716159903,-3.806199754617768,3.631955225588396,0.01666666753590107
34,592.0,0.1482353357464075,-0.04334112907648086,-0.244291571444273,1.6784855858951806,-3.3435037874519824,-9.351302187237144,2.259305128139039,-5.456819554823015,4.253245454192035,0.01666666753590107
35,608.0,0.10366890265867114,-0.10848083298504352,-0.11062602832019329,1.6171341683536766,-3.41503056204915,-9.21812530441284,1.6503837317920584,-6.104549872590597,5.037766958675223,0.01666666753590107
36,626.0,0.05611950823739171,-0.13177169220149515,0.008595394387841224,1.5477023202091456,-3.4430127939522266,-9.100808838543296,0.05305782994737141,-4.969935069367357,5.342660626809068,0.01666666753590107
37,642.0,0.07661591442972421,-0.11696984438896178,-0.014879589223861693,1.5503959432072936,-3.4295454096138474,-9.126696143993735,-0.5331713968003654,-6.717410793984793,5.654881380375045,0.01666666753590107
38,659.0,0.11977715689465403,-0.058874213773012156,-0.07022036817371845,1.5717941205449402,-3.371934932166338,-9.185354084667562,-0.5430132725075306,-8.00761816027457,6.560551657714042,0.01666666753590107
39,676.0,0.1246517771936953,-0.008569383163750171,-0.015596213060617446,1.5442606553226708,-3.323302710944414,-9.135225487408041,-0.252361402566808,-8.209352920052773,7.216500400600441,0.01666666753590107
40,692.0,0.08814692387804389,-0.01265109951943159,-0.024661563047766684,1.4827596001774073,-3.329587490302324,-9.147346133312583,-0.35885285626803376,-8.698973323157844,6.616219833883761,0.01666666753590107
41,709.0,-0.009755670338869094,-0.06646627633720636,0.015703765088319777,1.3590094479985535,-3.3848037660896777,-9.11038564518392,-1.1044821430392588,-10.12654433139304,6.171835773651685,0.01666666753590107
42,726.0,-0.028000644342601296,-0.06815554459840059,-0.04408931709527969,1.303194329535216,-3.3855516618475314,-9.176076553234457,-1.7276439501971868,-10.916576090989135,6.083804880533975,0.01666666753590107
43,742.0,-0.0199421333104372,-0.0759016286805272,-0.05734568903148174,1.2819459359318017,-3.3919863710701463,-9.194033065685629,-1.2742900373158845,-10.73965028582371,6.51173757637643,0.01666666753590107
44,759.0,-0.08399740298315882,-0.06692892541289329,-0.06270049406290054,1.192313011279702,-3.3825592020332813,-9.203160959514975,-0.9244975870644314,-10.105891546890213,5.924503524748121,0.01666666753590107
45,776.0,-0.1733918427042663,-0.11433014353513717,-0.010587444987893104,1.0712561898380517,-3.4290964968025683,-9.155726423645019,-1.3134784611222443,-8.047846266938652,4.05283532422599,0.01666666753590107
46,792.0,-0.19044906822815535,-0.1250643035173416,-0.03350304115116596,1.0354928025394678,-3.4377754778206344,-9.181912419781089,-1.733468820898738,-5.987851821752697,3.0294166410207928,0.01666666753590107
47,809.0,-0.08783544677607714,-0.07056055991351604,-0.1423141290038824,1.1240781909000128,-3.3810625337347386,-9.293391850060225,-1.3617405777975544,-5.252453891553887,3.024123671300856,0.01666666753590107
48,826.0,-0.008054565509408713,0.010015782579779624,-0.16747545826733112,1.1846814204227178,-3.301305983191728,-9.320776116070151,0.66440830569943,-4.513171291264632,3.439673234178078,0.01666666753590107
49,842.0,-0.02078450241871178,0.00021948796957731246,-0.1861807432591915,1.159093463245034,-3.3161201059639454,-9.339331178936362,2.2867603541683743,-4.360087968944429,3.174335325961892,0.01666666753590107
50,859.0,-0.003041632718220353,-0.00480623123794794,-0.10888649117648601,1.1608891144901514,-3.329437852698564,-9.261070712170005,2.5829030558715527,-5.991328814927057,2.423526568004829,0.01666666753590107
51,876.0,0.005703033947199582,-0.020901918253302572,0.05677694923281669,1.1453267306338994,-3.3530805940926074,-9.095721744537354,1.00566510056163,-5.717993182079609,1.9821857839348154,0.01666666753590107
52,892.0,0.005102437705546617,0.01039630632996559,-0.005173018723726272,1.1294652907658367,-3.3245001040354367,-9.158568953594564,0.9250543542034932,-5.8825930571141,2.0644208346549457,0.01666666753590107
53,908.0,0.02011792826876044,-0.02738046661764383,-0.07925123136937617,1.128567392078042,-3.3631063135445114,-9.234285581097007,-0.337546561399855,-5.555233616139613,2.6503464781703743,0.01666666753590107
54,925.0,0.015889277723059057,-0.03270136937946081,-0.18124679398834703,1.1094138518620282,-3.3674458040535447,-9.338433353313803,-0.777443560873204,-5.047326662192302,3.275035793103152,0.01666666753590107
55,941.0,0.01642842610105872,-0.05276859037429094,-0.1979278796762228,1.091307555676624,-3.3855516618475314,-9.358035879406332,-0.37769841540515675,-4.998901047863734,2.4768707723094514,0.01666666753590107
56,959.0,0.08685746858939528,0.004983341370522976,-0.25780513301193714,1.1487685416508466,-3.3291385774910447,-9.418938384136556,1.0286582920722431,-4.687408136331188,2.974673528596787,0.01666666753590107
57,976.0,0.04845430737175047,0.019028525596857068,-0.22578853102624416,1.0957966107241808,-3.3213571298345923,-9.386317386516929,2.078302553812762,-2.492134751000549,3.312576006885423,0.01666666753590107
58,992.0,0.01928871090300381,-0.002376666003465652,-0.23635434870421884,1.0591355439335106,-3.3490403787910936,-9.395445280346275,2.391797137658946,-2.2220479403205,2.3740949948775656,0.01666666753590107
59,1009.0,-0.00714183457866311,-0.03150485307127237,-0.19439093772172927,1.025616647626087,-3.3834570276558398,-9.352349650463461,2.0034432536225992,-2.9149200455297533,1.856589277268859,0.01666666753590107
60,1025.0,0.011526552468910812,0.005221534040570259,-0.15179624309837816,1.0325000504642725,-3.3529309564888474,-9.30880510776937,1.9347582309987164,-3.0570513729592528,2.257773671661075,0.01666666753590107
61,1042.0,0.025187048226594923,0.025475802040100096,-0.15169219820201396,1.0378868580691516,-3.33856574652791,-9.307458369335532,2.634820177526466,-2.4533236951458326,2.7874309361334686,0.01666666753590107
62,1059.0,-0.015963804263994096,-0.019494097281992435,-0.04243862727880478,0.9901526086002588,-3.390340357428789,-9.196427267345786,2.669961073919358,-1.6935274754580902,2.694230443587706,0.01666666753590107
63,1076.0,-0.08748013053238392,-0.015297230114042758,0.0776554866105318,0.9129396050602198,-3.392884196692705,-9.074472620281577,1.5616011977005304,-0.28025965707726885,1.8107723683164136,0.01666666753590107
64,1092.0,-0.0992901030525565,0.003942015624046325,0.08545300861895083,0.9006692484866827,-3.3765739901438354,-9.06564400165975,0.8921872171131274,0.8989739171880342,1.1844917260287287,0.01666666753590107
65,1109.0,-0.15830379836149513,0.013043898229300976,0.10188041180670261,0.8462012337833642,-3.368643197144568,-9.048286039623617,0.6103946894952931,3.375531994899546,0.932322529254033,0.01666666753590107
66,1126.0,-0.13402787363044916,0.033789164616167544,0.06104512807130813,0.8837601992618292,-3.348741103583574,-9.087342038726806,0.32456914861597785,4.799837745824652,1.3377529534324695,0.01666666753590107
67,1142.0,-0.12837569308765232,0.0307847221031785,0.06424947707057,0.8981254092227667,-3.352182768470049,-9.083001963695883,-0.07323943811917237,3.7803765169132424,0.6754021888596531,0.01666666753590107
68,1159.0,-0.18301219622567294,0.005821838021278381,0.10605565166473388,0.8521868109989911,-3.3771722482979296,-9.04020560902059,-0.7215243752514864,4.743037892686826,-0.667020319448431,0.01666666753590107
69,1176.0,-0.1662502273213118,0.018397534216940403,0.027476035946607587,0.8824134608279913,-3.3613106622993945,-9.118466660308837,-1.2774027893084121,3.8157846444574117,-2.002590333749994,0.01666666753590107
70,1192.0,-0.12071217272244393,0.05290449171364307,-0.007263269001245499,0.9358341584354638,-3.3236019861519335,-9.153481275066733,-0.9115779640842349,2.504682448836097,-2.34116067647341,0.01666666753590107
71,1209.0,-0.16487791605480015,0.03349748819321394,0.04567629402577877,0.8960305558353662,-3.340511035376787,-9.100958476147055,-0.6201538558804778,1.9353900234969426,-3.3688349944183487,0.01666666753590107
72,1226.0,-0.2978491933044046,-0.08516337802261113,-0.00036415713727474213,0.7752729365359992,-3.4555826449289917,-9.146897220501303,-1.1653032700509298,4.365059492886552,-5.216638087093632,0.01666666753590107
73,1242.0,-0.27025749508887525,-0.0728650374636054,-0.10209200873076915,0.8170218279849737,-3.4386733034431933,-9.248651375579833,-1.4602836656564422,4.656945919519754,-5.767674697441812,0.01666666753590107
74,1259.0,-0.1926669634733349,-0.033111996006965634,-0.2615752992004156,0.9074030137211084,-3.394679847937822,-9.408164476665855,-0.6787742745972295,5.6660248340059205,-5.841970080138626,0.01666666753590107
75,1276.0,-0.1738522998228669,0.051795361427962774,-0.25221535018086433,0.9527431345950812,-3.3056454737007614,-9.397091293987632,-0.05807761878093411,8.022183538679622,-6.468128952960014,0.01666666753590107
76,1292.0,-0.1578877649065107,0.06363952847868204,-0.222584766548872,0.9900030440617352,-3.291878814154863,-9.36551834411621,0.1926712321517294,6.002580270924184,-7.569480308038469,0.01666666753590107
77,1309.0,-0.09925875806622207,0.06795622263401746,-0.16186638621389865,1.0621282229434699,-3.2870901185736057,-9.303268516430258,0.5390967459879101,4.592679388958635,-8.39414112672653,0.01666666753590107
78,1326.0,-0.05750694400779902,0.04133826482146978,-0.23690146119296548,1.1227313794009386,-3.3134263368353247,-9.375991807335614,1.3991434407444847,4.07129817932618,-9.218070261399752,0.01666666753590107
79,1342.0,-0.03705613052286207,0.056689855471253395,-0.22277298259735107,1.1569984637271613,-3.2983132311165333,-9.35998116825521,1.2104465515964828,2.841184524901469,-8.865056203015875,0.01666666753590107
80,1359.0,-0.032956513184309005,0.06822218009382486,-0.19969488934874532,1.1701666459232567,-3.2858933100044725,-9.336039151653647,1.1520206865493707,1.288327997050965,-8.469090500036371,0.01666666753590107
81,1376.0,-0.08458630878701806,0.03807254102379083,-0.14236732049584389,1.1273702912479637,-3.315671193152666,-9.277680486187338,1.523705707359713,0.9303737909064638,-9.33343386402856,0.01666666753590107
82,1392.0,-0.25163974224999547,-0.1596679993867874,-0.12375263639688491,0.9801270352788269,-3.512145366889238,-9.256880859264731,0.5114031570287116,6.07986556893017,-10.354362729837876,0.01666666753590107
83,1409.0,-0.10450155409052968,-0.14134703753739594,-0.46188218296766276,1.1529583214908838,-3.489849363929033,-9.592966917309164,-0.3538027851504556,8.560756761339821,-9.190808415101293,0.01666666753590107
84,1426.0,0.1476236335888505,-0.01618394982069731,-0.622730916571617,1.441309983935952,-3.361460299903154,-9.749936763653158,1.3414199112431202,9.140477604881115,-6.542564781421636,0.01666666753590107
85,1442.0,0.1759368510119617,0.04563011679649353,-0.5096978271096945,1.4972745938725769,-3.3045980104744435,-9.631124506267904,4.796711226732079,9.383660513863896,-6.21279086857555,0.01666666753590107
86,1459.0,0.20942104133218525,0.06303688641041517,-0.15152327137589452,1.5529397824712097,-3.298462868720293,-9.265559840282798,5.562748104887096,6.142358384741202,-5.755958361694302,0.01666666753590107
87,1476.0,0.21005977762714026,-0.015762801799178123,0.06392389837801456,1.567753759112954,-3.391088545447588,-9.042899085888266,4.209606094924354,-0.07096795999310679,-5.604609480536459,0.01666666753590107
88,1492.0,0.1476426305502653,-0.11024988848417996,0.200467627286911,1.504906111664325,-3.491196394623816,-8.904334664806724,1.9934803555010778,-3.2582085548657678,-5.1410321618498225,0.01666666753590107
89,1509.0,-0.005624708013981581,-0.23600422009229657,0.21261808380782604,1.3464397431522608,-3.6173406023323533,-8.892812569317222,0.44492700691024023,-4.03688000232484,-3.5596568194501645,0.01666666753590107
90,1526.0,-0.05969824350699782,-0.24347265627682207,0.1592448055386543,1.2820955735355615,-3.622727556067705,-8.948477757915853,-0.20794944485033556,-4.233156160295734,-0.6799210526867041,0.01666666753590107
91,1542.0,-0.08918371957987546,-0.22698066342025994,0.18540216010212898,1.2437883469730615,-3.605369594031572,-8.923937190899252,-0.2003942017514569,-3.3135499491723843,0.5407711028299153,0.01666666753590107
92,1558.0,-0.2544350720569491,-0.2814972665056586,0.31240240011811254,1.072004231726378,-3.6589395639166233,-8.798241019219159,-0.8653416388280682,-2.7266053268101547,0.6301113111950043,0.01666666753590107
93,1576.0,-0.2465283905856311,-0.2670753579214215,0.3375871102571487,1.072004523987323,-3.6414322565376755,-8.775347050365806,-1.942683171426635,-2.6052081058232868,0.12532730116312263,0.01666666753590107
94,1592.0,-0.22328063985854385,-0.290944601547718,0.32237843520939347,1.0901103817813098,-3.6602863023504613,-8.793153925213216,-3.4366585594331633,-1.6914481097426446,0.18809876734794967,0.01666666753590107
95,1609.0,-0.12061229254454374,-0.2550602182179689,0.15235387698113917,1.1894698968082666,-3.6180887903511523,-8.965985357555747,-4.932170526559533,-1.1474672982504994,0.4448017689885057,0.01666666753590107
96,1625.0,0.029149960508197546,-0.19613456651866434,-0.031821956196427345,1.3323738083988428,-3.546711653357744,-9.155726423645019,-4.990253601487676,-1.8215935223958295,0.7755634445824522,0.01666666753590107
97,1642.0,0.09363792250975966,-0.1493532338604331,-0.10297639034986496,1.38998413971588,-3.4917943605169652,-9.230843916210532,-3.7058664101443965,-2.1226072161942846,0.04375317796689676,0.01666666753590107
98,1659.0,0.14333850361555814,-0.08133855903744697,-0.1268301441460848,1.4315835396915673,-3.4217642542183397,-9.2565821685791,-2.2345832584381777,-1.979311768398121,-0.9875425809811762,0.01666666753590107
99,1676.0,0.15841931449994445,-0.0512561399847269,-0.13239245444834233,1.4411602002017199,-3.390190427564084,-9.26346432930827,-1.6678620791564154,-1.1531228016049757,-2.382126657011266,0.01666666753590107
100,1692.0,0.19814882895052432,-0.02352057631909847,-0.16403905407786368,1.4794677190251648,-3.359515011054277,-9.296385186657309,-1.6512431616887164,-1.583232726967078,-2.9235038857691666,0.01666666753590107
101,1708.0,0.26444164841696616,-0.008885024984180926,-0.185040341052413,1.5451584809452295,-3.343204512244463,-9.318082639202474,-1.069134313258856,-1.1051559838895628,-2.749174192818581,0.01666666753590107
102,1725.0,0.25757512364834545,-0.002444470542669296,-0.1337351012289524,1.5406693528324364,-3.334675168830156,-9.267206438446044,-0.01987348926699669,-0.8627170319177851,-3.201094513026121,0.01666666753590107
103,1742.0,0.23053894042372702,-0.03190232795625925,-0.09663198975920677,1.5150813225895166,-3.3640041391670703,-9.229946675109863,0.4172077513808013,-1.448650252674324,-3.3244441008985546,0.01666666753590107
104,1758.0,0.22135493249297142,-0.012835223914682864,-0.008615852653980254,1.506103212494403,-3.345598713904619,-9.141659904369712,0.8525867941615983,-2.0131337979509665,-2.765300909779216,0.01666666753590107
105,1776.0,0.17034151522293686,-0.022332535578310487,0.059438861918449395,1.4537299050480126,-3.3565222589790817,-9.073276103973388,0.8819209625429222,-1.6969455582508586,-1.8168934984732144,0.01666666753590107
106,1792.0,0.1307078623622656,-0.0404486225053668,0.08976151946783065,1.4136270272403955,-3.3753765970528122,-9.042749448284507,0.3285732402951921,-1.0431434157545476,-1.467981609016164,0.01666666753590107
107,1809.0,0.04287058895528316,-0.10690350066572427,0.11978022563457488,1.3287825059086085,-3.4400200418770313,-9.012971565136313,-0.7605648294127801,-0.4890524301869027,-0.9727783800382532,0.01666666753590107
108,1826.0,-0.015336685341596603,-0.17131138316839933,0.1639203961342573,1.2744642018742858,-3.498827620154619,-8.970324848064779,-2.573406745047708,0.47803490816884897,-0.46993841259888647,0.01666666753590107
109,1842.0,-0.016139380026608703,-0.18995090944766999,0.1650841792166233,1.2783546334415674,-3.509152614814043,-8.971521948894857,-4.410388897086987,2.1154944279473624,0.6356556105320563,0.01666666753590107
110,1859.0,0.029697511388361453,-0.1717290240585804,0.08716624227762222,1.332224170795083,-3.4798236444771287,-9.05232625492513,-5.659168177852874,3.0242927184828137,2.1193438798748994,0.01666666753590107
111,1876.0,0.09952917250543832,-0.11896452533751725,-0.0668108519911766,1.4119808674685657,-3.410690779279172,-9.210792477306724,-6.1046309810869905,4.255574975585832,3.883234043171757,0.01666666753590107
112,1892.0,0.15998203377202153,-0.06156213768273592,-0.1508586699873209,1.4787193848758935,-3.342306686621904,-9.297881562694906,-5.303659819761473,3.8776063941824894,4.9945894909501645,0.01666666753590107
113,1908.0,0.24409970213398335,0.013454232595860958,-0.2044628344029188,1.566856079620868,-3.260754192572832,-9.35324747608602,-4.118049543534449,3.460649812336245,5.320033490749285,0.01666666753590107
114,1925.0,0.28008739970773455,0.04678893144279718,-0.12691606886386872,1.6036666378848254,-3.2194539216741918,-9.278428674206138,-4.6189820205655305,0.8867782942598591,4.916744971205882,0.01666666753590107
115,1942.0,0.2532664666689932,0.049699265931546686,-0.10566519104242324,1.5731407128483057,-3.208381031256914,-9.260621799358725,-4.661825235908082,-0.46419192899023143,4.445328302899364,0.01666666753590107
116,1959.0,0.22275354724451898,0.05219780474901199,-0.21883447410464285,1.5382750050418077,-3.1985046571478244,-9.377039855083822,-4.399938707656868,-0.5513195295902066,4.604873837948046,0.01666666753590107
117,1976.0,0.24373832147568464,0.03246083862185478,-0.27821488383412357,1.5553338380008934,-3.2079321184456346,-9.440635836681723,-3.6137288657882167,0.15014954262827124,5.953078474914516,0.01666666753590107
118,1992.0,0.22429975377321243,-0.001050970357656479,-0.28045243362784383,1.5328881974369286,-3.235016524726152,-9.445573877605796,-3.4379511727335883,0.5050453714893405,6.58759749928,0.01666666753590107
119,2009.0,0.16994447872936724,-0.03906593597531319,-0.17114333312511443,1.4757266328006982,-3.2667396967232225,-9.338882266125083,-3.6008424332585185,0.05306631432298104,6.43692224552905,0.01666666753590107
120,2026.0,0.09368716847896576,-0.07896861503571272,-0.04873626611828804,1.3935755883365868,-3.296667217475176,-9.220818196758627,-4.234890601458095,-0.5746079133390113,5.548951976537317,0.01666666753590107
121,2042.0,0.05454202978760004,-0.1110986142680049,-0.016001871252059936,1.3497317704349756,-3.3192624956429,-9.192087776836752,-4.8430203361915884,-0.10815633899184281,4.465006931671818,0.01666666753590107
122,2059.0,-0.00916588775217533,-0.12972557332664728,-0.10088964720368385,1.284938688006997,-3.326444808362424,-9.281122151073813,-5.255831420098458,0.7072428232229601,4.218394413952044,0.01666666753590107
123,2075.0,-0.03919438466057181,-0.1301052202939987,-0.21710487383306026,1.256806818500161,-3.31297771628499,-9.401879697307944,-4.191660626653792,2.5661479615072764,3.7492590288283107,0.01666666753590107
124,2092.0,-0.041268998977541924,-0.125427291610837,-0.24602877050042152,1.2608470338016748,-3.301605258399248,-9.432256130871176,-2.2580165702634334,4.3547126100676286,3.2685545839110444,0.01666666753590107
125,2109.0,-0.010641659393161534,-0.09672785134911537,-0.26435645435154437,1.300949911609292,-3.2713784624397753,-9.44976373051107,-0.22958480275807822,4.951749263815374,3.2565082646492574,0.01666666753590107
126,2125.0,0.03340513373464346,-0.08867460101395845,-0.25034838726520536,1.3546696652285755,-3.2655423036321998,-9.433602284783124,0.8403182803083745,4.968855472591672,3.2545283635636,0.01666666753590107
127,2142.0,0.050262160511314866,-0.09362228654921054,-0.17809505195915698,1.3808563920170067,-3.276166865760088,-9.358035879406332,1.1012010909167138,3.2959299821044556,3.3406288744671344,0.01666666753590107
128,2159.0,0.010713701716065406,-0.11138707582056522,-0.12782616944611072,1.344344816699624,-3.297864318305254,-9.305961993297934,0.9075061041218495,2.4875956634102523,2.9936593200553063,0.01666666753590107
129,2176.0,-0.0353543681062758,-0.12188976513445376,-0.17926058860719202,1.3008004201360046,-3.3119302530586716,-9.355791315349936,0.4343242588017061,1.8588464413461367,3.29491591245612,0.01666666753590107
130,2192.0,-0.036453269258886575,-0.10709580836743116,-0.22926702079176903,1.301099695343524,-3.2992110567390918,-9.40487244938314,0.2875737224612947,2.2536719296210705,4.026867371888424,0.01666666753590107
131,2209.0,-0.04061448059156537,-0.08143880454152821,-0.30850656172335145,1.2991542603641748,-3.2758678828135133,-9.482983863067627,0.5020470785262635,2.7992095973571556,5.119799665041191,0.01666666753590107
132,2226.0,0.0014482991121709345,-0.03675035250931978,-0.39773090557456015,1.344344816699624,-3.237710001593828,-9.569473813518881,1.8895859211491908,2.7436082289752552,6.299111653079818,0.01666666753590107
133,2242.0,0.004834872810542583,-0.02345481760650873,-0.35779870815873144,1.3471879311710595,-3.2311259470283984,-9.527276593780517,1.8297430052927124,0.8974370179030755,6.2739240498549265,0.01666666753590107
134,2259.0,0.08217574051395059,0.033795594356954096,-0.3614385259658098,1.4176672425419092,-3.1811472796335813,-9.529371520233154,2.329544659129334,-1.335427380741786,6.637647844857384,0.01666666753590107
135,2276.0,0.020218173772841692,0.011623217776417732,-0.37582887036800383,1.3418011235661804,-3.2146658106148243,-9.541791441345215,2.735681154113221,-2.613773803372718,6.699096922385873,0.01666666753590107
136,2292.0,0.04126198471486568,0.021355507239699364,-0.3728454706430435,1.3486843072086572,-3.2149650858223437,-9.537302313232422,3.830388869563368,-4.138419302073542,6.974065397331777,0.01666666753590107
137,2308.0,0.09589505378678441,0.13517828577458857,-0.41901042496860025,1.3856447953373192,-3.1135107904732227,-9.581594459423423,5.1269628259332425,-5.047554619755851,7.26443466819559,0.01666666753590107
138,2325.0,0.015641951898485423,0.10426906050890683,-0.3581710486024618,1.280898326575011,-3.1672303979620335,-9.516053188976645,7.202412281663643,-5.3847644741739655,7.073172722849131,0.01666666753590107
139,2342.0,0.01695741841122508,0.09933744932562112,-0.28294015879034995,1.2627923226505517,-3.1922201700508595,-9.43629634617269,7.675139919403981,-6.283194324105926,6.639625184622103,0.01666666753590107
140,2359.0,0.007514394218102097,0.034679683715105054,-0.1567395447194576,1.2321166138797999,-3.275867590552568,-9.306111630901693,6.7829887208665545,-6.864218453118224,6.247993236670973,0.01666666753590107
141,2376.0,0.0529397822227329,0.07736819410175085,-0.16055004291832445,1.2463321862369776,-3.256265356720984,-9.305662718090414,6.436395894076135,-8.46580176395101,6.38461238799686,0.01666666753590107
142,2392.0,0.04108830864839256,0.07453823137283325,-0.1301613343954086,1.2096708271853625,-3.276017228156328,-9.272293532451986,6.446185262704056,-7.708168152909224,5.884157170434033,0.01666666753590107
143,2409.0,-0.09610869653746486,0.0685384064361453,-0.03618541210293769,1.0521025034915654,-3.296367942267656,-9.175627640423178,5.005930593180147,-6.057785701777634,4.303678717249762,0.01666666753590107
144,2426.0,-0.2956152967724949,-0.1649248970016837,-0.12991525067985057,0.8358761660587042,-3.545364914923906,-9.265709477886556,5.055916051960416,-3.058443024002643,2.3901009028672555,0.01666666753590107
145,2442.0,-0.20791969685852527,-0.005534837773442268,-0.09019114305675029,0.9168301827579736,-3.3981215128242965,-9.222314572796225,5.2495843583288355,-0.9997742758459055,2.4711803709571845,0.01666666753590107
146,2459.0,-0.04457454332895577,0.05223667545467615,-0.18755144709050653,1.0763438683658837,-3.3535292146429416,-9.315239524731039,6.381298465588935,-1.5338472576167126,2.803852845332295,0.01666666753590107
147,2476.0,-0.08091098127514124,0.012979016299545764,-0.11959843932688236,1.0332482384830712,-3.4141327364265917,-9.240121447643638,7.232565859301957,-0.968444731731586,1.932086773259595,0.01666666753590107
148,2492.0,-0.09785108322538436,-0.0034708909809589386,-0.09881284092962742,1.0117004235416651,-3.4472026468575,-9.213635591778159,6.9074480010357036,-1.5989092917727268,0.43628921884855415,0.01666666753590107
149,2509.0,-0.07645794738903641,-0.009338613970577716,-0.11475509094893932,1.0239706339847297,-3.4684514788523315,-9.224858412060142,6.50749304069409,-3.0442631243988734,-0.5688656452377346,0.01666666753590107
150,2526.0,0.026570173148065805,0.08176905940920114,-0.15736439861953258,1.1142021090518683,-3.395428035956621,-9.262118175396322,6.525496138685774,-3.8485546114346634,-0.31032446893679894,0.01666666753590107
151,2542.0,0.021024594784900544,0.07864829704016446,-0.14386661914288998,1.1004353764407335,-3.4135341860115527,-9.24386238773763,7.194546465060728,-3.114635203747749,-0.6247988647637625,0.01666666753590107
152,2559.0,-0.056378743695467706,0.07738719106316566,-0.06536299127042293,1.0170873772770166,-3.429994322425127,-9.160214967235921,7.053570506818018,-1.911495033572476,-1.0493287923782288,0.01666666753590107
153,2576.0,-0.0021457798570394516,0.10939297939389943,0.007000818672776222,1.0646720622073857,-3.4175744013130664,-9.081056674847007,6.181865052674202,-2.491719603565059,-0.9805171978112892,0.01666666753590107
154,2592.0,0.017670754312351346,0.1184849251270294,0.05857026239037513,1.0778401713382453,-3.4210163584604856,-9.025391486248374,5.222713967247182,-3.365531317294178,-0.4509546488527765,0.01666666753590107
155,2609.0,-0.024081790398433802,0.09981500370949506,0.21052432639896868,1.0286093997012824,-3.4482501100838183,-8.870965479168296,4.124363199648479,-3.5494849602287233,-0.8664549063019275,0.01666666753590107
156,2625.0,-0.09095781658031046,0.10249708240032196,0.25087679505348204,0.9527431345950812,-3.454085976630449,-8.828318762096762,3.0249012456491795,-3.4769462168090723,-1.7432475173560809,0.01666666753590107
157,2642.0,-0.06573438186608255,0.13803805911988018,0.20196517236828804,0.9701010966312139,-3.424607368689775,-8.875753882488608,3.5571620928558176,-4.1702001722816116,-2.262280742739637,0.01666666753590107
158,2659.0,-0.055505979448929425,0.1455126327842474,0.07371113289892674,0.972495225226134,-3.4240085260137914,-9.00219765766561,4.302722063879138,-4.616565841146638,-2.387952168043052,0.01666666753590107
159,2676.0,-0.1080081739719957,0.06374971085488795,0.07813128742873668,0.9094978671085089,-3.5176819582283496,-8.994267449188232,3.9779247976170518,-3.8201145575043767,-2.5727230858004715,0.01666666753590107
160,2692.0,-0.1455058377172798,0.04728431374430656,0.09952128145992756,0.8683475991398095,-3.5401273065313696,-8.970923398479819,2.1130801695191743,-1.979411873358144,-3.2095767542016307,0.01666666753590107
161,2709.0,-0.1725648903608322,0.001316051034629345,0.12164134333133697,0.8400660189639776,-3.5872634439766404,-8.948477757915853,0.021802083892599706,-1.8231924269918471,-3.7191895478941523,0.01666666753590107
162,2726.0,-0.05644062995053827,0.04779343231022358,0.08483107732832432,0.9540900191593915,-3.5368355715095996,-8.987084259685874,-1.1852511576870695,-1.729071673177131,-2.760538346937013,0.01666666753590107
163,2742.0,-0.060427434564381835,0.025857202573120592,0.11300678597688674,0.9490021214358508,-3.5540438959419727,-8.960897679027914,-1.8672106483150521,-1.0334362228400786,-2.28956350649243,0.01666666753590107
164,2759.0,-0.13383286251500248,-0.021146832925081252,0.1847030719220638,0.8750811451785266,-3.5935482233345506,-8.892214018902182,-3.6101310636429127,-1.0433391433629509,-2.6037722719937033,0.01666666753590107
165,2776.0,-0.1431404237601906,-0.042513153819739816,0.1418921041995287,0.8625116595279425,-3.5983366266548633,-8.941894287872314,-6.066731968929882,-2.604397447746171,-3.5109567168943276,0.01666666753590107
166,2792.0,-0.13320793554969132,-0.04512392084002494,0.1078542255192995,0.8683475260745733,-3.584270691901445,-8.9828944067806,-7.402027975251851,-2.539109377017312,-3.3037279237024944,0.01666666753590107
167,2809.0,-0.10486951062008738,-0.007148994971811771,0.07006313178539275,0.8925888178836554,-3.528006952887773,-9.02823460071981,-7.698966180549924,-2.677053798485593,-3.331304812476421,0.01666666753590107
168,2826.0,-0.09336962696239352,0.058527592292428016,-0.001616203024983406,0.8988736703068018,-3.438972578650713,-9.109488404083251,-6.7735135409404545,-2.5067703522880054,-3.493477835921442,0.01666666753590107
169,2842.0,-0.10658880869336426,0.05978139174580574,-0.019459902751445768,0.8828623736392706,-3.424158455878496,-9.132831285747885,-4.648362933053987,-1.7284489520238961,-3.9098265309315554,0.01666666753590107
170,2859.0,-0.17022541456259785,0.05135317061841488,-0.0031517420291900635,0.8194159565798937,-3.424307801221311,-9.119663176617026,-3.513811095637158,0.23718819068647756,-4.515462819731171,0.01666666753590107
171,2876.0,-0.15020027914382517,0.030151392635703086,0.052848962134122844,0.8448544953495264,-3.4340345377266406,-9.067439652904868,-4.13611923587054,0.45397465968297995,-5.057556578021688,0.01666666753590107
172,2892.0,-0.15799407482519745,-0.02785451387017965,0.08071312061548233,0.843208481708169,-3.479524369269609,-9.043647273907064,-5.77832125481057,1.5278842890278799,-5.660751501079848,0.01666666753590107
173,2909.0,-0.09251045284979045,-0.0010173603489995002,-0.039000469523668285,0.9165309075504541,-3.436129464179277,-9.168744895172118,-6.970187130543679,2.231189935081151,-5.9316376573362,0.01666666753590107
174,2925.0,0.02560308168157935,0.02384177109748125,-0.2288841589540243,1.0464163476139305,-3.3865994173347946,-9.36656522282064,-7.044099595760149,2.6234237934528877,-5.703093551292049,0.01666666753590107
175,2942.0,0.09151289317980409,0.034790158352255816,-0.28247897101938724,1.1215343516360967,-3.3584675478279586,-9.425522438701988,-6.180360703509507,2.475718604773835,-5.461546472615487,0.01666666753590107
176,2958.0,0.16418554987646639,0.008033668851852416,-0.29394962858259677,1.2011416299015283,-3.37043855612874,-9.441683299908041,-5.689668387591566,1.5639756489324619,-5.585143014515099,0.01666666753590107
177,2976.0,0.27880656611695886,0.06709522189050912,-0.2830845356971025,1.320702075305581,-3.294572291022539,-9.43644598377645,-4.461633671995477,-1.3196479362117641,-5.668939617234224,0.01666666753590107
178,2992.0,0.2832902874022722,0.0373202613517642,-0.26398762103915213,1.3241436671268194,-3.3146234376654027,-9.421033310589193,-2.783457900470637,-2.7419023892300447,-6.101822492677646,0.01666666753590107
179,3009.0,0.23559074392057955,-0.015605857671797275,-0.18011106795668602,1.2741647074710576,-3.360263199073076,-9.34007936695516,-2.0613303874989266,-3.2338836899104133,-6.2542121239102695,0.01666666753590107
180,3026.0,0.21433986609913408,-0.10308072750717401,-0.1186947684854269,1.2493248652469366,-3.438822941046953,-9.28231925190389,-2.0539493008836702,-3.64356142453554,-5.784967455759816,0.01666666753590107
181,3042.0,0.18220818636640906,-0.15138883134126663,-0.12086802087128162,1.2149082894474268,-3.4798239367380734,-9.287406930431723,-2.572031956033831,-2.7847889335851432,-4.8305138329344715,0.01666666753590107
182,3059.0,0.20665508375018835,-0.15213321996778248,-0.10661503911316395,1.2392991457950324,-3.47264103949666,-9.27603505706787,-2.5516918661289445,-1.7514788558012981,-3.8184595172911178,0.01666666753590107
183,3075.0,0.20037476137168705,-0.16178952158540486,-0.07147650571465491,1.2366056689273566,-3.473389227515459,-9.243712750133872,-2.1292768959188018,0.5962014496783008,-2.2719599745671912,0.01666666753590107
184,3092.0,0.1856810501087457,-0.18294453781694173,-0.03883095817565918,1.2268793708134442,-3.488352987891435,-9.2127377661556,-2.5810480191816594,1.3025209167028398,-1.5848046309715331,0.01666666753590107
185,3109.0,0.2231727955698967,-0.1578878379717469,-0.01617255164384842,1.2692267396122217,-3.4561811953440307,-9.192087776836752,-3.282872154515272,0.4501790488560098,-1.0014513007305552,0.01666666753590107
186,3125.0,0.23166516797468065,-0.15338409681171178,-0.03529226265549659,1.2801503577519207,-3.441217142707109,-9.214683055004476,-3.5112474268208764,0.0799973233335182,-0.23890587654103,0.01666666753590107
187,3142.0,0.20492014971636235,-0.15815759482383726,-0.045070729348063464,1.2551608048588037,-3.437625840216875,-9.227253198242186,-3.9042419975114235,0.571812978586301,0.09304099695647236,0.01666666753590107
188,3159.0,0.19150559154376387,-0.1517605872631073,-0.12717033588588236,1.2448357371341436,-3.422961062787473,-9.311947497448324,-3.901800631769967,0.7832081871718418,0.49492697984249545,0.01666666753590107
189,3176.0,0.1569466846641153,-0.13860650665760038,-0.23812603455185888,1.216105463342741,-3.3988697008430955,-9.426120989117026,-3.6709492024468218,2.3762044561140416,1.1322767440929795,0.01666666753590107
190,3192.0,0.17693835620470344,-0.0932911548987031,-0.3087579061359167,1.2416933474551886,-3.347094797681272,-9.498395951732993,-2.1775582225011525,2.467248743316196,1.9183440057627064,0.01666666753590107
191,3209.0,0.19182123336419463,-0.056466568109393114,-0.33500235446095467,1.2620440615665167,-3.3086385180369016,-9.524582532390951,-0.5342145481135261,2.4692482811957173,2.3836948257560184,0.01666666753590107
192,3226.0,0.18072079735286534,-0.040351299610733984,-0.2527911042422056,1.2566571808964013,-3.2942730158150195,-9.441084749493003,0.36429288849853736,1.5184125241963646,2.5608511498059316,0.01666666753590107
193,3242.0,0.1696742834858596,-0.0353989379003644,-0.203265149050951,1.2457336358219384,-3.2909809885323047,-9.39095615223348,0.12802367842054385,0.1368615163197172,2.7430671499269432,0.01666666753590107
194,3259.0,0.14345285071022806,-0.031822248457372186,-0.1847743835926056,1.2168535782963037,-3.288886062079668,-9.37225145176351,0.10310608111127952,-1.0035802920391894,2.8790229191296937,0.01666666753590107
195,3276.0,0.07843531187660992,-0.055119537414610384,-0.2076835500150919,1.1465238314639776,-3.3131270616278052,-9.395444695824384,-0.3072083818909657,-0.5931316531723504,3.2590215608204107,0.01666666753590107
196,3292.0,0.06262428702153265,-0.037726504065096374,-0.23757015423476693,1.1269213053714484,-3.295170841437578,-9.425971351513265,-0.6608150925874744,-0.4992026249020705,3.720049724842751,0.01666666753590107
197,3309.0,0.04172273409441113,-0.024413141244649886,-0.29257483309805393,1.1025304490238428,-3.2815538194954392,-9.48148690250814,-0.15258382471650644,-0.30358947552834326,3.8574829493403393,0.01666666753590107
198,3326.0,0.06103774848245084,0.05873597434610128,-0.2825625576496124,1.1183919619571416,-3.202096251899004,-9.470563357433676,1.785700131255472,0.16914010988312478,3.9782163613172465,0.01666666753590107
199,3342.0,0.07658033165968954,0.07276157708913088,-0.2412748539716005,1.130362970257923,-3.194315096503496,-9.427467727550864,2.5358084746574914,-0.8217257583356593,3.661709237160264,0.01666666753590107
200,3359.0,0.014440247958526014,0.05683861629217863,-0.04700491228103638,1.0631758323002607,-3.21720964987874,-9.231292829021811,2.2570912930743083,-1.3021182557069264,2.9434473978153695,0.01666666753590107
201,3375.0,-0.024571838937699795,0.04557867887020111,0.009276946911215781,1.0163391161929816,-3.2342683367073533,-9.17383198917806,0.8370300778315423,-1.6734000819128263,2.713019867107588,0.01666666753590107
202,3392.0,-0.05035926421023905,0.03393792543709278,-0.006148001235723495,0.9853642052799463,-3.2475860834419725,-9.189244662365317,0.37686980140104315,-0.9615608615435651,2.4989474378108136,0.01666666753590107
203,3409.0,-0.055249520469829436,0.08610767313539981,-0.059002808588743204,0.9781816733647137,-3.1958114725410938,-9.242216374096273,0.5243686169815411,0.397675037860578,3.013707846259998,0.01666666753590107
204,3426.0,-0.08196304761134088,0.08858867629617452,-0.05993453648090362,0.9531920474063604,-3.1958114725410938,-9.242066736492514,1.0930900278339122,1.9303036669993987,2.806438498819968,0.01666666753590107
205,3442.0,-0.08887932980582118,0.0871627351462841,-0.033248774129152295,0.9490022675663232,-3.2000010331854223,-9.214084504589438,0.9642074531252393,1.8298900678032792,2.7451010521957264,0.01666666753590107
206,3459.0,-0.07888597825355827,0.09776713126897811,0.06666238343119621,0.9599258126407861,-3.1913223444283005,-9.113378397259115,0.43930506753223214,1.0626630291853862,2.337950914450327,0.01666666753590107
207,3476.0,-0.09754209034144878,0.08254559673964977,0.04179623772203922,0.9406224886905401,-3.205986537335813,-9.138517514690756,-0.7390680362997816,0.4995728424994264,1.9080238033702286,0.01666666753590107
208,3492.0,-0.07802687720619142,0.08492460083067417,-0.002920271360874176,0.9582796528689562,-3.2011981340155002,-9.184306621441245,-0.9938845183472389,-0.12882852016469465,1.3288681579827524,0.01666666753590107
209,3509.0,-0.1061469101447612,0.07570318349897862,-0.08210662080049515,0.9283522051822394,-3.2068843629583714,-9.264961289867758,-1.114193177935136,0.7702365907209298,0.7894754727047103,0.01666666753590107
210,3526.0,-0.09408215914592147,0.061657707011699675,-0.1394564014852047,0.9421187916629016,-3.216311531995237,-9.323768283623457,-1.4241813134161647,1.373489143500211,0.1627826711892974,0.01666666753590107
211,3542.0,-0.07805639556162058,0.035652035878598685,-0.1630535501718521,0.9611229865361004,-3.238308552008867,-9.348459072765708,-1.6840409830311773,1.733610974210839,0.34037612734609146,0.01666666753590107
212,3559.0,0.043208150346577164,0.056574704658985134,-0.2539449504524469,1.0838258216191083,-3.2133190721809863,-9.440636421203612,-1.3750506954992052,1.107664904470779,0.7798750548568756,0.01666666753590107
213,3576.0,0.11952895428724586,0.07228957566320895,-0.24401392354667184,1.15774665174596,-3.1961107477486133,-9.431507942852377,0.4500799043913388,-0.1260069583463918,0.9290350738291413,0.01666666753590107
214,3592.0,0.11447649320326744,0.019705401945114134,-0.2623544668793678,1.1510130326420067,-3.250728473120928,-9.44931481769979,1.0455841411657694,-0.5189776233748442,0.8387955216494319,0.01666666753590107
215,3609.0,0.16951931211985646,0.03262187440246343,-0.15251462050080297,1.1984482260990887,-3.2393560152351855,-9.339780091747642,1.1950340162909374,-3.302972760912385,0.24496099932280496,0.01666666753590107
216,3626.0,0.0869116099294275,-0.0595826543033123,-0.13977555043697357,1.103577912250161,-3.334076618415117,-9.32750980823934,0.8148701693996706,-3.567239396645937,0.1957379604086387,0.01666666753590107
217,3642.0,0.09731244630403817,-0.08034662539064884,-0.13860066143870353,1.106121678448841,-3.3560736384287475,-9.326761620220541,0.5651553584145368,-3.082656471497161,0.5143029458573523,0.01666666753590107
218,3659.0,0.08458835461363196,-0.11330459987968206,-0.14853461095392703,1.0871177758365869,-3.3894425318062305,-9.337236252483725,0.5245516980678092,-2.2284845398395907,1.1861321453682954,0.01666666753590107
219,3675.0,0.09537234508693218,-0.10415712456703186,-0.14733867916762827,1.0923550189029425,-3.3824095644295213,-9.335889514049887,1.0222065380709315,-0.7870879480638207,2.1796399360941257,0.01666666753590107
220,3692.0,0.0955419295001775,-0.09915215588659047,-0.10396715495288371,1.0899608172427862,-3.380763550788164,-9.291596783336997,1.2079108438671156,-0.5678441050699946,2.4462188043051385,0.01666666753590107
221,3709.0,0.10885953010432421,-0.07852262483388185,-0.01841770022213459,1.099088711072132,-3.3644530519783493,-9.204956610760092,1.57702248418595,-1.9451695737279313,2.5157127774588446,0.01666666753590107
222,3725.0,0.08262604156471788,-0.08597235631793737,0.09024784168004989,1.0643728600651026,-3.376873265351355,-9.095421884807944,0.7458946502926506,-2.2281931895828073,1.9468523615846933,0.01666666753590107
223,3742.0,0.06353899071365594,-0.08487637777477502,0.09674714057147503,1.0390840319644659,-3.3770226106941696,-9.089137105450034,-0.25474255058577727,-2.0469349100494787,1.9116147753263628,0.01666666753590107
224,3759.0,0.07222074821069836,-0.07359364399909973,0.03028232553899288,1.0432739579349755,-3.3650516023933887,-9.156324389538169,-0.9933289251469406,-1.04313551834832,2.6796505510306674,0.01666666753590107
225,3776.0,0.06663922175131738,-0.030194062733650207,-0.07465513575077057,1.0350438897281884,-3.3204595964729786,-9.261968537792562,-0.5881327551126944,0.15223134960273677,2.9661823227979913,0.01666666753590107
226,3792.0,0.03748224698044359,-0.044219957737624646,-0.06992109296619892,1.0061638322025537,-3.334974444037676,-9.25703049686849,-0.2141157049484687,1.0750375176924511,3.1518832134995907,0.01666666753590107
227,3809.0,0.06103796767815947,-0.0006026420682668685,-0.0277151053994894,1.0310036013614385,-3.2926267099127173,-9.214234142193197,-0.4580732000718107,0.5626246666053413,3.0773502682857075,0.01666666753590107
228,3826.0,0.023606939428299663,-0.008158464275300502,0.059870823594927784,0.9919481867801397,-3.3001088823616502,-9.126845781597494,-1.28640444502596,-0.1744983932869998,2.9529661201974284,0.01666666753590107
229,3842.0,0.00910363617092371,-0.01601210038512945,0.10655775596797466,0.975188775159046,-3.3044480806097387,-9.081655225262045,-2.528047885656476,-0.35134124900660646,2.6011127670856298,0.01666666753590107
230,3859.0,0.017043196998536587,0.036795068433880807,-0.007712181812524795,0.9792290635257959,-3.2459397775396703,-9.198372556194663,-2.660051750094139,-1.9970474217951169,2.610435975302697,0.01666666753590107
231,3876.0,-0.05834712115898728,0.017851590771973132,-0.07264262688457965,0.8966291062504053,-3.259407454138994,-9.266008753094077,-1.5170194857707995,-0.5744316090810604,1.7458720175446583,0.01666666753590107
232,3892.0,-0.08589256907999515,0.019448504574596882,-0.09403320543766021,0.8689461495548486,-3.2544694132149217,-9.288604031261801,-1.7878856850681701,0.4197942052812676,1.2429308245673578,0.01666666753590107
233,3909.0,-0.05763341993167996,0.005600888746976852,-0.15826397780776022,0.8976764964114874,-3.264495132666826,-9.354145886230468,-2.0437140489689942,0.2346398364349752,1.3212685053140554,0.01666666753590107
234,3926.0,-0.0698331954870373,0.027644085989892483,-0.1481874049514532,0.8888478777896612,-3.2371111589178443,-9.345615958294271,-2.017835102534051,2.548726710255513,1.4718116375932486,0.01666666753590107
235,3942.0,-0.040074455430731175,0.048856093105673785,-0.1611725587308407,0.9231148890506475,-3.211523420935869,-9.35968189304769,-1.7314947895068986,1.7521493882787231,1.3214744782062136,0.01666666753590107
236,3959.0,0.033592107674106954,0.07713263178020716,-0.19958850636482237,0.997035938373208,-3.180099524146318,-9.399186220440267,-0.9183234162198571,0.340299421120061,1.0781731081300159,0.01666666753590107
237,3975.0,0.031792657036706806,0.08161445336937904,-0.16879530869424342,0.9923971726566553,-3.1723183687508105,-9.369857834625243,-1.1418574717860974,-0.6181062932333549,0.8593523099779076,0.01666666753590107
238,3992.0,0.058054933279380196,0.07257189973592758,-0.16734218727648256,1.0136456393253057,-3.178303872901201,-9.370006887707113,-1.4178694715711324,-2.1940392555249817,1.0450913003284708,0.01666666753590107
239,4009.0,0.045758492416515945,0.046774026134610173,-0.14920271947383879,0.9937438380252569,-3.2003006006538866,-9.353995664104819,-1.683891252477966,-2.337136200948392,1.0206619548231566,0.01666666753590107
240,4026.0,0.0025699235532432793,0.017103402753174304,-0.14632044203579425,0.9431661818239837,-3.2239433420479298,-9.353995664104819,-1.8546390448174088,-1.4796516275433653,0.7576958831571103,0.01666666753590107
241,4042.0,-0.0018355448640882967,0.0023977087914943693,-0.1494640007585287,0.9358341584354638,-3.2339690614998338,-9.359083342632651,-1.787391670292108,-0.7896204007811616,0.812150580171242,0.01666666753590107
242,4058.0,0.021590996496006844,0.0008189151674509048,-0.16417933933138845,0.9569330605655908,-3.2308269640818237,-9.375693116649984,-1.6490096898301223,-0.9789513769440638,1.0553147061338046,0.01666666753590107
243,4076.0,0.0023068887028843163,-0.010555588544905185,-0.06636018561422824,0.9350858973514288,-3.2366625383675096,-9.280075272369384,-2.026847750587294,-0.686394684637701,0.7948166272748074,0.01666666753590107
244,4092.0,-0.013080284716933965,-0.03044569940716028,-0.01087561427950859,0.9180272105228156,-3.2502795603096484,-9.226953923034667,-3.1321320139672064,-0.8715659688743598,-0.07708023224832773,0.01666666753590107
245,4109.0,-0.019478899712860584,-0.06466653343886136,-0.01813128449618816,0.910096417523548,-3.2757176606878637,-9.237427970775961,-3.5475951322627455,-0.7456695742151576,-0.8773098378012231,0.01666666753590107
246,4126.0,-0.0002671995688229799,-0.057552317519485946,-0.05673661722242832,0.9301478564273565,-3.2571628900825975,-9.279925050243735,-2.991920823468127,0.567180296060034,-1.184598020847687,0.01666666753590107
247,4142.0,0.04990209502726793,-0.04282996468394994,-0.10772095452845096,0.98297000361979,-3.23636326315999,-9.332747708892821,-1.8177259277783098,0.6222143318540002,-1.2215255453170666,0.01666666753590107
248,4159.0,0.05699322233200073,-0.0927463804975152,-0.09458791671097277,0.9931453606754541,-3.282451645117998,-9.32062647846639,-1.4869765785413809,1.4202641999271624,-1.316023133474897,0.01666666753590107
249,4175.0,0.09967596056498587,-0.13338497261703014,-0.04422258808612823,1.0413285960208625,-3.3173172067940233,-9.271694982036948,-2.3411971752967875,0.9961041163840815,-1.3526619757301381,0.01666666753590107
250,4192.0,0.12332988094016908,-0.14368717092275618,-0.05248714308440685,1.0678144518863408,-3.322105610114336,-9.281571063885092,-2.20937708563648,0.8995435976534956,-1.363320485929943,0.01666666753590107
251,4209.0,0.11773761389106512,-0.15662819329947233,-0.059191024637222284,1.0670664099980145,-3.3300364031136036,-9.28950185688436,-2.188348854172715,2.659044083748151,-0.8431731392988812,0.01666666753590107
252,4225.0,0.11887903901115059,-0.13839812460392711,-0.0987695863097906,1.0752963320743292,-3.30684257453084,-9.330054232025146,-1.991738870706136,2.481305059184671,-0.14111747122457563,0.01666666753590107
253,4242.0,0.1628456065095961,-0.12458937948197125,-0.12262860080301762,1.1269214515019208,-3.288287511664629,-9.354744436645507,-1.844834094820444,2.6982288790165136,0.4701830187485375,0.01666666753590107
254,4259.0,0.14894845245182514,-0.1225698563531041,-0.06261866099834441,1.1201875401370227,-3.2827509203255176,-9.295188085827231,-2.332688040251421,2.672899335922933,0.9331499426389566,0.01666666753590107
255,4275.0,0.1528339886482805,-0.10288345136940479,-0.012459084078669547,1.1293155070316045,-3.255666221784055,-9.247004777416587,-3.333872323274111,0.9318604242679993,1.5422650388819301,0.01666666753590107
256,4292.0,0.10324461283199489,-0.10975655200928448,-0.0009767360776662827,1.081581038367003,-3.254618758557737,-9.238026521191001,-4.168055492882227,1.3967804087350717,1.6816846744892286,0.01666666753590107
257,4309.0,0.05605389565527439,-0.07039572474062443,-0.08090075214207172,1.037887004199624,-3.2067350176155567,-9.32047684086263,-4.171029613378945,1.3226747772311376,1.5842243850571993,0.01666666753590107
258,4326.0,0.031124402386322615,-0.02342822186052799,-0.1775491085141897,1.0170873042117803,-3.15047098634094,-9.419835625237226,-2.4997335498955997,1.5143238022044658,1.257860977762771,0.01666666753590107
259,4342.0,-0.005785670729354024,-0.017708967430889604,-0.1733399663865566,0.9856634804874658,-3.1407448343574997,-9.416394544872642,-1.758896014353109,2.968045470337524,0.4317143794868208,0.01666666753590107
260,4359.0,0.01404562261775136,-0.016936814014613628,-0.16637831068038939,1.0145435380131005,-3.136854256659746,-9.409511215099691,-1.8105012951837287,3.008572824664618,0.1812871477547429,0.01666666753590107
261,4375.0,0.06737082396149635,-0.012362345705926418,-0.14344868599176405,1.0770920563846826,-3.127427087622881,-9.387215212139486,-1.7203833523877574,2.4852008283325167,0.15220510940332774,0.01666666753590107
262,4392.0,0.043020738015696405,-0.015459434938430786,-0.09585340660214424,1.0589859063297509,-3.1271278124153614,-9.34007995147705,-1.4173122775452476,2.542023093028557,-0.225366840780478,0.01666666753590107
263,4409.0,0.04069390250332653,-0.014608078806102275,-0.06156418350934982,1.062577135754749,-3.1229379595100877,-9.306261268505454,-1.0984177888299338,1.8680488405922595,-0.5329862346408345,0.01666666753590107
264,4426.0,0.011112272579595446,-0.05942512565404176,-0.07402502115368842,1.0395330178409814,-3.1639386629402635,-9.319279740032552,-1.1401121450097476,2.7422951251073204,-1.143578039126706,0.01666666753590107
265,4442.0,0.0014465455465018748,-0.06332651700675487,-0.09273264423310756,1.0380365687381476,-3.164237938147783,-9.338283715710043,-1.558051420322828,3.2626364384386397,-0.7489009473836611,0.01666666753590107
266,4459.0,0.02759776263013482,-0.08683364932239056,-0.09235095143914222,1.0711064791690557,-3.183391551429033,-9.338582990917564,-1.5852884004638403,2.174379623216158,-0.49829063456531514,0.01666666753590107
267,4476.0,-0.027882497855648395,-0.09456541261821985,-0.050127428215742106,1.0236715049076826,-3.186085028296709,-9.297133959197998,-1.3786217104963583,2.5983700192470462,-1.3052918390717494,0.01666666753590107
268,4492.0,-0.05644976310506463,-0.12180530172139406,-0.05774257939457893,1.0028717318546025,-3.2092788568794726,-9.305213805279136,-1.6612629424794194,2.578570581503649,-1.78273700309445,0.01666666753590107
269,4509.0,-0.02587203481607139,-0.12368746220618486,-0.08686287541687487,1.0405804810672998,-3.206734725354612,-9.334991688427328,-1.7027110916839956,2.414049680531436,-1.8488139606724459,0.01666666753590107
270,4526.0,-0.008440788348019123,-0.10616758760660887,-0.14813304441571234,1.0693109009891748,-3.184139739447832,-9.396642381176353,-1.2655983014319259,3.661428345630647,-1.353000390259171,0.01666666753590107
271,4542.0,0.019368278945237398,-0.09939356342703104,-0.18174013046324253,1.1062713891178368,-3.1748619157537816,-9.43001156681478,-0.773122452366966,3.1015131296916856,-1.1022125992441105,0.01666666753590107
272,4559.0,0.009229016116261481,-0.13510726636499165,-0.13849603202044963,1.1040268981266765,-3.209578132086992,-9.386167748913168,-0.681981795464491,3.234951333855051,-1.3147522914024516,0.01666666753590107
273,4576.0,0.01697692682929337,-0.12970190019011496,-0.1159369942098856,1.1212350764285772,-3.2017969766914844,-9.363273195537925,-0.9873427979479534,2.3519660357403707,-1.5154249567647187,0.01666666753590107
274,4592.0,0.01188771393150091,-0.14002864841520785,-0.13128887712061404,1.1222826127201317,-3.209278564618528,-9.37883550632894,-1.4718739630694249,2.230766036465787,-1.713921566546102,0.01666666753590107
275,4609.0,-0.005353416791930794,-0.13019669796973465,-0.1905804395228624,1.111209430041909,-3.1964100229561327,-9.438391272625326,-1.1253479440668246,2.3234568261447373,-1.1970126367161256,0.01666666753590107
276,4626.0,0.02215060314014554,-0.10787994448244571,-0.25311668293476103,1.1459252810489386,-3.171420543128252,-9.500939790996908,-0.3622180851360137,1.656836979897251,-0.7980602734394758,0.01666666753590107
277,4642.0,0.023948007950931785,-0.08013210585713386,-0.283451030921936,1.1513122347842901,-3.144485774451494,-9.530568036541343,0.8449368222086254,0.698380919579133,-0.8206527249448797,0.01666666753590107
278,4659.0,-0.00817687671482563,-0.0847317086070776,-0.21842998495697974,1.1209358012210577,-3.1522669298470016,-9.464278578075765,1.3254665103326744,0.07777547080064098,-1.2674453339938856,0.01666666753590107
279,4675.0,-0.03006283756941557,-0.06947247241586446,-0.15773381645381448,1.0983405961185693,-3.14059519675374,-9.402478247722982,0.8045531152975135,-1.447981641187603,-1.587134045643625,0.01666666753590107
280,4692.0,-0.03706197574175894,-0.051610360249876974,-0.14848492659330367,1.0881652390629053,-3.1244343355476856,-9.393051078686117,0.985463962317671,-2.1873151477305157,-1.9870328703679974,0.01666666753590107
281,4709.0,-0.041062443554773925,-0.0029033202260732647,-0.1865554217904806,1.0803840106021612,-3.078645228797197,-9.430610701751709,2.0384959978865163,-2.320741399062834,-2.3320489906772015,0.01666666753590107
282,4726.0,-0.026040450185537335,0.01361614515930414,-0.16502864963710306,1.091307555676624,-3.0699665400400757,-9.406967375835777,3.3473617334414745,-1.7540867074037736,-2.9688226177990247,0.01666666753590107
283,4742.0,-0.043348435600101945,0.0035281741261482236,-0.11473346363902091,1.0727525658756494,-3.0871745722115036,-9.354444576916098,3.0908763907198598,-1.4724812095753215,-3.441447162371577,0.01666666753590107
284,4759.0,-0.04077171697989106,-0.029044892698526382,0.006829553759098053,1.0742487957827747,-3.12488295609802,-9.231292829021811,1.824564654684785,-1.460136816589287,-3.5345409332115585,0.01666666753590107
285,4776.0,0.025320246152207255,-0.010214812283217906,0.032660745108127595,1.1391916619449853,-3.107525286322832,-9.205106248363853,0.5074861502614151,-1.2527384426069672,-3.263918593011898,0.01666666753590107
286,4792.0,0.053040612248703836,0.030744682353734967,0.021043957072496414,1.1665752703677863,-3.066524582892656,-9.216777981457113,0.6833089865975891,-0.902742367340883,-3.3016011735496815,0.01666666753590107
287,4809.0,0.07741400600485503,0.07010550962239503,0.004138414978981018,1.1917143877994267,-3.0277684435188768,-9.233388339996337,1.3384834635085436,-0.03382109573791974,-3.356101387371329,0.01666666753590107
288,4826.0,0.07156060380153358,0.03458879056125879,-0.01172609362900257,1.1888712733279914,-3.0662253076851367,-9.247902603039146,1.3034723407098814,-0.03228587731982715,-3.650073156135501,0.01666666753590107
289,4842.0,0.07540566185712815,0.006029927814006805,-0.013869535398483275,1.1959042407047002,-3.096452103644609,-9.249099703869224,0.8163725975736619,0.3417899231434312,-3.653792621025396,0.01666666753590107
290,4859.0,0.11496975661292672,-0.006439677658677101,-0.003709375911951065,1.238999943652749,-3.109470575171709,-9.23832579639852,0.20214527815970568,0.4688803736077692,-2.9705039115519054,0.01666666753590107
291,4876.0,0.14289587441459298,0.006069383041560649,-0.019503157371282578,1.2714713767338544,-3.0955542780220506,-9.254037744793296,-0.08642229018667878,0.23418861706293126,-2.3138042747436285,0.01666666753590107
292,4892.0,0.12932466437555848,0.009306465266644954,-0.031190088033676146,1.2602484103213996,-3.0906162370979784,-9.266008753094077,-0.4418668153578101,-0.31253355488562207,-2.38132282912332,0.01666666753590107
293,4909.0,0.09876702902652322,-0.009132570004463195,-0.04945815065205097,1.23196697627604,-3.106028910285234,-9.285013313293456,-1.019706155226178,-0.38094873167643656,-2.433135576949979,0.01666666753590107
294,4926.0,0.10555128233917056,0.0019546411991119383,-0.10929039580225944,1.2418431311894207,-3.090167324286699,-9.346065455627441,-1.1472522540133496,-0.16820565462730241,-2.7340952695653087,0.01666666753590107
295,4942.0,0.10557144834436476,0.01450549521446228,-0.12524608982503413,1.2451350854068994,-3.074904288703203,-9.362525007519125,-0.46820503865358415,0.5708796972692421,-2.4464839010222996,0.01666666753590107
296,4959.0,0.09667159111723303,0.013520868091285228,-0.1330471189647913,1.2422920440007001,-3.0741561006844043,-9.370156525310874,-0.20007761181125622,0.9273249652156993,-2.2385219297117476,0.01666666753590107
297,4979.0,0.11667363792136311,0.013652093255519866,-0.11545476365089416,1.2672814507633448,-3.073707187873125,-9.352050375255942,0.6598761016591562,-0.11133168326481116,-1.9097535487775343,0.01666666753590107
298,4992.0,0.07214571021310985,-0.005026888251304626,-0.06155424663722515,1.2252332110416144,-3.0927111635506153,-9.297731925091147,0.19411106804527983,0.2009504352819898,-2.562157636928108,0.01666666753590107
299,5009.0,0.05197013347297907,-0.03512392035126686,-0.04119242660999298,1.2086235100895166,-3.1214415834724902,-9.277381210979819,-0.35545393002145326,-0.4458534046772761,-2.852779624791212,0.01666666753590107
300,5026.0,0.05080028597600758,-0.049666240444779394,-0.06375614059567451,1.210868001080677,-3.133711574719846,-9.300275764355064,-0.13688258051639585,0.7582318929243977,-2.565056838787367,0.01666666753590107
301,5042.0,0.06701616530492902,-0.03297492562383413,-0.12138532274365424,1.2325655997563152,-3.115904992133379,-9.357586966595052,0.1155809413826318,1.3426997179388513,-1.5857204099288438,0.01666666753590107
302,5059.0,0.1331760791067034,-0.027529811960458755,-0.1606400592893362,1.304092301288247,-3.110817021344602,-9.396043830761313,0.8844408220989809,1.1592585526354686,-0.8330346839713493,0.01666666753590107
303,5076.0,0.11741985317878424,-0.042779988062381744,-0.07883972795903682,1.2930191186100244,-3.1275764329656957,-9.313144598278402,-0.028514065433246277,0.8266019264336667,-0.04009481125356157,0.01666666753590107
304,5092.0,0.11492328712269663,-0.06453618505746125,-0.02455284197628498,1.2909241921573877,-3.148376352149248,-9.259126007843017,-1.0379972951017662,-0.6793701018806073,0.04290196564158392,0.01666666753590107
305,5109.0,0.09181779441051184,-0.020600304958224295,-0.004682604858279228,1.2654857264529913,-3.1013901445686813,-9.240570360454916,-1.6426429930283184,-1.5883808753322695,-0.09480057108054402,0.01666666753590107
306,5126.0,0.0881166748702526,0.010700842234492301,-0.07532850496768952,1.258303267602995,-3.06428001883626,-9.313593511089682,-1.5818104467941287,-1.2984050873976725,0.2582882458582337,0.01666666753590107
307,5142.0,0.09158880796022713,0.028627544069290158,-0.10295125590860843,1.2586025428105145,-3.0433307543098924,-9.342623206219077,-0.8297688930527312,-1.4496386023915657,0.6887730312118935,0.01666666753590107
308,5159.0,0.03886237622722983,0.01199585048109293,-0.0814285754084587,1.2053315558720379,-3.0584441522896286,-9.32167394169271,-0.7152669614764027,0.030769161777474414,0.8152531402408674,0.01666666753590107
309,5176.0,0.019246771457418797,0.004121463844180107,-0.036574119159579276,1.1866268554020671,-3.06428001883626,-9.277381795501709,-1.127028063880942,-0.22556371564721833,0.6593813398311534,0.01666666753590107
310,5192.0,0.009601941081881523,-0.0072474869102239605,-0.021144494837522506,1.1771995402347295,-3.072360157178342,-9.263016001018881,-1.8253817160642478,0.2783438690563596,0.5316322563595853,0.01666666753590107
311,5209.0,0.01435198515318334,0.011924538810551166,-0.03418926984965801,1.1824368563663215,-3.0490169832527636,-9.277381210979819,-1.844278928506969,-0.5632038453026172,0.759891522171005,0.01666666753590107
312,5226.0,-0.009125263480842112,-0.007164192540943622,0.009608955344557761,1.157447522668913,-3.0620354547798634,-9.235781957134604,-2.1181018526630147,-0.16988817567979986,0.5033973215478104,0.01666666753590107
313,5242.0,-0.03399550084322691,-0.00284165316671133,-0.001991466078162193,1.1323082591067999,-3.0521593729317185,-9.249249341472982,-2.4999574520343293,-0.2076790787489515,-0.12226791002348583,0.01666666753590107
314,5259.0,-0.014661124167591333,-0.007526596112549305,-0.050072483158111566,1.1511626702457665,-3.0508126344978805,-9.299377938732505,-2.3640473597216536,-0.49574975083321754,-0.16686936546878645,0.01666666753590107
315,5276.0,-0.045730070039629936,-0.011652151609957218,-0.013806991556286811,1.1212351494938135,-3.0484184328377246,-9.265110927471518,-1.9029032959268346,1.3044566350023037,-0.4937552822347209,0.01666666753590107
316,5292.0,-0.03691029231138527,-0.012396832497417926,-0.06822656400799751,1.1338047082096339,-3.044378217536211,-9.32062647846639,-1.8074943044016305,1.008327380234054,-0.1693682008488062,0.01666666753590107
317,5309.0,0.03189282947555184,-0.026988252429664135,-0.07582417953014374,1.2047329323917626,-3.0553017626106738,-9.329155821880697,-1.4576827509648425,0.8873318597477474,-0.053186896510300855,0.01666666753590107
318,5326.0,0.060415963322296734,-0.01796498801857233,-0.03952010948359966,1.237653205218911,-3.041086190253496,-9.293990984997153,-1.994781079651142,1.568016346156759,0.3799705205212438,0.01666666753590107
319,5342.0,0.07728321923203765,-0.033491350713372225,-0.0007639701098203659,1.2553104424625634,-3.05126154730916,-9.256880859264731,-2.593958570816864,-0.2869332054636209,0.6076448980241282,0.01666666753590107
320,5359.0,0.014804989617690443,-0.0709106885254383,0.08666764510571956,1.1905173600345849,-3.0816379808723924,-9.172036922454833,-3.4905498192016218,-0.23360372875439603,0.25895104101198935,0.01666666753590107
321,5376.0,0.01466536195129156,-0.06361147142797709,-0.07889408849477768,1.1911159835148601,-3.0599402360662817,-9.342174293407798,-5.21148769757262,0.08843807644590523,0.9262901915564423,0.01666666753590107
322,5392.0,0.07747384643331169,-0.03695698099732399,-0.16619827793836592,1.252317690387368,-3.022531127387285,-9.433154541015625,-4.007785104007878,-0.5568154306336868,1.5109565189436496,0.01666666753590107
323,5409.0,0.04360620975345373,-0.013589549413323401,-0.19176292730569838,1.2183499543339014,-2.9921546938240526,-9.46098655079305,-2.4868959959071493,0.6486899593459678,1.3449562416858942,0.01666666753590107
324,5426.0,0.0008116086438298225,-0.04859510408192873,-0.11622048732638358,1.1786959893375635,-3.021334026557207,-9.386915936931967,-2.2898473862298085,0.4932335198151554,0.8252005103541976,0.01666666753590107
325,5442.0,0.018879180254042147,-0.04873334350883961,-0.10624562127888203,1.195455400958657,-3.0165453309759496,-9.37868586872518,-2.694004833901684,-1.0753953555719364,0.8637030337574999,0.01666666753590107
326,5459.0,0.04344838884323835,-0.0660682169303298,-0.11539923407137394,1.2168535052310674,-3.0286659768804904,-9.389908689007163,-2.9782760264971455,-0.735536348251209,1.3866675666169275,0.01666666753590107
327,5476.0,0.04387070590853691,-0.06743424458652734,-0.14663082315921783,1.2132622758060694,-3.0216333017647266,-9.424325337871908,-2.6819738825655297,-1.2912467289823817,1.9768987906304025,0.01666666753590107
328,5492.0,0.01974953334778547,-0.06322422567605972,-0.14674655849337576,1.1849806956302373,-3.011906565259397,-9.426719539532066,-2.436298381422518,-0.891776231824163,1.9029619928650143,0.01666666753590107
329,5509.0,-0.028930034147202965,-0.0488905798971653,-0.1545353126734495,1.1338047082096339,-2.992453969031572,-9.43644598377645,-2.4052871881565445,-0.3465898652630841,1.7105796830512618,0.01666666753590107
330,5526.0,0.015898776203766465,-0.018815759629011154,-0.18909400035738944,1.1746557009708136,-2.956840219336748,-9.473256834301353,-1.5585755306199205,-0.5977140164143413,1.8581591535609043,0.01666666753590107
331,5542.0,0.0005400982260704041,-0.025009061311185358,-0.16444237418174742,1.1577467248111963,-2.959982316754758,-9.44976373051107,-1.5719641954970265,0.17072850239112297,1.8132500194378356,0.01666666753590107
332,5559.0,-0.0025539953317493197,-0.041004795083403586,-0.12399053680598734,1.1537065825749189,-2.9724025301277637,-9.4105592628479,-1.9123268225473367,-0.26725977937432477,1.5509208095510403,0.01666666753590107
333,5576.0,0.007430807587876916,-0.04174509205669164,-0.1371510471522808,1.1602905640751122,-2.9668659387886525,-9.426120989117026,-2.3821243091337387,-0.5606249152824084,1.632988734079917,0.01666666753590107
334,5592.0,0.039324879172444344,-0.023092998556792733,-0.14315759409070014,1.1885719981204719,-2.943522180341184,-9.434051782116294,-1.9437205064068308,-0.9967823328243226,1.9445533625987492,0.01666666753590107
335,5609.0,0.025991788738220927,-0.014007774825394153,-0.130231477022171,1.171064398480579,-2.930653638678789,-9.42282896183431,-1.5108493703510448,-1.1853400568679853,1.6768835851112387,0.01666666753590107
336,5626.0,-0.01838935091048479,-0.019013620288670062,-0.12311959919035434,1.121534424701333,-2.9317011019051074,-9.41759164570272,-1.2173056623487624,-1.1625027857695187,0.9410972946250895,0.01666666753590107
337,5642.0,-0.028550606375560162,-0.03221241681873798,-0.12922960650324822,1.108815228381753,-2.9424750093758103,-9.424774250683187,-1.107711328412794,-0.4305950021953056,0.7122458834291414,0.01666666753590107
338,5659.0,0.006824439192563295,-0.029141046549379823,-0.07558569459915161,1.1426332537662238,-2.9373870385870338,-9.371952176555991,-0.9201960619912043,-0.31514703605807753,1.0310783134725434,0.01666666753590107
339,5676.0,-0.0026635201208293434,-0.05478928254693746,-0.007335165193676948,1.1314105065494775,-2.9598329714119433,-9.304914530071615,-1.447087099849743,-0.494584883414613,1.3882849340680454,0.01666666753590107
340,5692.0,-0.009775617148354648,-0.06134995623677968,0.05666705911755562,1.1225818879276512,-2.9619278978645798,-9.242515649303794,-2.53397414197852,-0.2618072340238183,1.0825736709462082,0.01666666753590107
341,5709.0,-0.03410129930526018,-0.054762979061901564,0.058224225431680675,1.0965447987429797,-2.948609858869016,-9.243263252800702,-3.1914086644528084,-0.31217619725381285,0.9627218869807614,0.01666666753590107
342,5726.0,-0.056705199170857666,-0.06086918698251247,-0.043535774865746495,1.0735008269596844,-2.9438214555487034,-9.348459657287597,-3.602533758851743,0.803113813012492,0.8169594068729011,0.01666666753590107
343,5742.0,-0.01877374711818993,-0.028451895241439342,-0.09360884254574775,1.113304429559782,-2.9037188700020313,-9.400682596477866,-3.063128747216683,1.131355949215497,0.9699257088427151,0.01666666753590107
344,5759.0,-0.01239354456178844,-0.014561024793982505,-0.15394202295541762,1.1225818879276512,-2.8844156191170214,-9.462333289226889,-2.3096192897731145,1.7871024544694403,0.7667243793836623,0.01666666753590107
345,5776.0,0.004005143988132477,-0.00021568857729434965,-0.12899287513792515,1.1424837622929365,-2.8654116434395314,-9.438391857147217,-1.6069436219490716,0.7827586753470903,0.16031270403069153,0.01666666753590107
346,5792.0,0.0008953414045274257,-0.013251403500139713,-0.10069675498008727,1.1409873131901025,-2.8748388124763964,-9.411008175659179,-1.9305653486219747,0.7074719547252728,-0.18594480316016268,0.01666666753590107
347,5809.0,0.0023688480231910942,-0.026028759747743605,-0.09518646712601184,1.1430822396427391,-2.8830688806831835,-9.406817738232016,-2.6400521024306953,0.37553623364602456,-0.3372036111983263,0.01666666753590107
348,5826.0,0.03090637572146952,-0.018746493785083293,-0.14224983159601687,1.1715133843570946,-2.86630946906209,-9.456796697887778,-2.977799193915714,-0.3150462640873934,-0.020600650949551817,0.01666666753590107
349,5842.0,0.02942110559977591,-0.02629997790455818,-0.15348258875012397,1.1683709216129035,-2.8672072946846483,-9.470264666748045,-2.485906258807732,-0.7521024384745459,-0.04269791374012979,0.01666666753590107
350,5859.0,-0.016139380026608703,-0.008133914355933665,-0.08880874878764151,1.120187686267495,-2.843115640479326,-9.407715563854575,-2.3634697818499646,-1.1347165090088491,-0.3055610523209497,0.01666666753590107
351,5876.0,-0.08433153030835092,-0.03507043659836054,-0.0466202968776226,1.0471645356327295,-2.861670703345537,-9.368660149273277,-2.8073172453453723,-1.6382259950694358,-1.169544177195273,0.01666666753590107
352,5892.0,-0.1106895950756967,-0.04746902266144752,-0.07691665094196797,1.0190326661258935,-2.8666087442696093,-9.401430784496664,-2.9404162879277647,-0.8546466298048861,-1.670351683108885,0.01666666753590107
353,5909.0,-0.0805685245130211,-0.02797609442323446,-0.151546652251482,1.0497083748966456,-2.8398236131966113,-9.478194875225425,-2.5638250568592373,-0.014762066508807403,-1.6141901324933379,0.01666666753590107
354,5926.0,-0.030685937903821466,0.0028311317726969717,-0.1442664321154356,1.1035779853153973,-2.8021149370491503,-9.472508646282552,-1.3669118847729003,0.9134654441726856,-1.5114287624917324,0.01666666753590107
355,5942.0,-0.06889028861373662,-0.03021569004356861,-0.06829904472231864,1.0699093783389777,-2.830994994574785,-9.39724093159139,-1.9123724994374112,1.6381967533220516,-2.3077674547343947,0.01666666753590107
356,5959.0,-0.04364807613380253,-0.038302258126437665,-0.009837503403425216,1.0990887841373682,-2.8326410082161426,-9.340229004558921,-3.0410804696890588,0.7061746456697935,-2.526151227501328,0.01666666753590107
357,5976.0,0.040729412208124996,-0.03381985201537609,-0.08013736655414104,1.1828857691776007,-2.8167794222176075,-9.414000343212484,-3.327897188410819,-0.7969836115106997,-2.5343115960122007,0.01666666753590107
358,5992.0,0.055569838465377684,-0.015600012452900408,-0.09282090703845024,1.1972509791385382,-2.7905928415596484,-9.429113741192221,-2.7332641209206825,-0.6107146411692259,-2.5629362784934897,0.01666666753590107
359,6009.0,0.05430244887806475,-0.03219897281527519,-0.07591010424792766,1.195156198816374,-2.800468923407793,-9.414299618420005,-2.2293788677340394,-0.7804684809018734,-2.6682885313463514,0.01666666753590107
360,6026.0,0.020084610521048308,-0.057307110586762425,-0.049859132668375966,1.1601409995365888,-2.818275798255205,-9.390507239422202,-1.9741652208585163,-0.43135245950208945,-2.9352944998239012,0.01666666753590107
361,6042.0,0.012790873316302895,-0.07361497904807329,-0.048315994879603384,1.1544547705937176,-2.829199343329668,-9.390357601818442,-1.8733689176254649,0.2079802207222403,-2.947594389858625,0.01666666753590107
362,6059.0,0.039151056975498796,-0.11186141533404588,-0.03844342016279697,1.1845318558841944,-2.862867804175615,-9.381379345592856,-1.717485324467262,0.9857512571496346,-2.367485933081932,0.01666666753590107
363,6075.0,0.09638890171833336,-0.1597691216737032,-0.07023439669907093,1.2491753737736493,-2.9053648836433887,-9.413851290130614,-0.9980382338579586,1.7457453388798956,-1.3210042623705405,0.01666666753590107
364,6092.0,0.14325155598446726,-0.18828414527922868,-0.07005319491326809,1.2997527377139777,-2.9317011019051074,-9.413850705608725,-0.683920875497687,0.5994652128845092,0.2862753195083311,0.01666666753590107
365,6109.0,0.23434447018653154,-0.1314323772445321,0.0322942498832941,1.3884879098087548,-2.8748388124763964,-9.311797859844566,-0.10889063768847207,-2.1301795481063013,2.094414116291176,0.01666666753590107
366,6125.0,0.20003055104389786,-0.1285179511025548,0.18459668893814085,1.3447937295109034,-2.8728935236275195,-9.160364604839682,-0.4365578373820061,-3.7795475027027323,2.8614277114975057,0.01666666753590107
367,6142.0,-0.09826156372241675,-0.24522972907721996,0.5282511364102364,1.0324999773990362,-2.9828768701300024,-8.820387969097494,-5.6672538411697,-3.1615470774015124,2.6709330952156156,0.01666666753590107
368,6158.0,-0.26899397795908153,-0.26422756727486846,0.3953139075607061,0.85532912761271,-2.984223900824785,-8.959252249908447,-10.380495887375991,-1.1749748179156678,3.4766123913133877,0.01666666753590107
369,6175.0,-0.16762604571916162,-0.13106325167119504,0.013406009539961815,0.9566337122928351,-2.8164798547491428,-9.351152549633383,-11.965682048445693,2.5476106146564503,6.327967067889006,0.01666666753590107
370,6192.0,-0.11902590013593435,-0.04506254604160785,-0.09292612097859382,1.0108025248538701,-2.705897665570676,-9.463829665264488,-10.361601022810797,4.167549631996823,7.49690101037062,0.01666666753590107
371,6209.0,-0.055356707171350716,0.07512713717669248,-0.09534487255811691,1.0803840836673975,-2.5679317949041724,-9.470563357433676,-8.154999128411458,2.46431304263356,6.929185931842916,0.01666666753590107
372,6225.0,-0.012001841830462217,0.10730360589921474,0.03982230730056763,1.1165963107120245,-2.5173545770943164,-9.341426105388999,-7.472082664247733,-2.9638282554118645,3.551503708015285,0.01666666753590107
373,6242.0,0.017878624909371137,0.09824936182796955,0.07070084516704082,1.1299141305118798,-2.5107705225288868,-9.316885538372397,-8.148269684531703,-6.299480910181821,1.288240485252224,0.01666666753590107
374,6259.0,0.05392667436823249,0.022696108193695545,-0.15881342838406562,1.1469727442752569,-2.5677824495613573,-9.553761865124105,-9.530197099864642,-7.331234772051961,0.3459645294280577,0.01666666753590107
375,6276.0,0.12970942590944468,0.004535597603023052,-0.24945991399288175,1.1971013415347784,-2.5550632532417774,-9.655814710888267,-9.347438313148025,-7.193010526271121,0.05167747806458093,0.01666666753590107
376,6292.0,0.15256788505800067,0.01617635103613138,-0.2925315784782171,1.2041343819767236,-2.522292325757444,-9.706392220959067,-7.843545917353461,-5.405260164325881,0.25572588438284755,0.01666666753590107
377,6309.0,0.11489435328915715,-0.0011538462102413177,-0.24393852022290227,1.1552027394168078,-2.522142395892739,-9.663745503887533,-6.63775243212905,-4.588024615039271,-0.29034664586218767,0.01666666753590107
378,6326.0,0.06562237285897135,-0.06595452742278575,-0.08162906641662121,1.0945997290898113,-2.565388247901201,-9.508421671184896,-6.649266850409222,-4.410982269771132,-2.4895614772307466,0.01666666753590107
379,6342.0,0.0542717614788562,-0.08275193296670913,-0.03767126674652099,1.0745481440555305,-2.564939335089922,-9.469965391540526,-6.615881739519846,-4.772452529234309,-3.7364754760229855,0.01666666753590107
380,6359.0,0.057679377965256566,-0.0918991160184145,-0.04822480946481228,1.0720044509220867,-2.5568589044868943,-9.485676755413413,-6.056571208765842,-4.116629717960732,-4.562678209916177,0.01666666753590107
381,6375.0,0.07613967522010207,-0.100811029009521,-0.16207447600662708,1.0856214728642255,-2.5463841260932383,-9.605088147735595,-4.658404591794374,-2.7260559234687918,-4.689294549202581,0.01666666753590107
382,6392.0,0.0645743251107633,-0.13207564358413218,-0.17510756058096885,1.0723036530643701,-2.5656873769782482,-9.62139806202352,-4.255772197298116,-1.5204942377893376,-4.782338801171079,0.01666666753590107
383,6409.0,0.01897796445339918,-0.15674977385252714,-0.15875556071698665,1.0284598351627587,-2.578406573297828,-9.607930677685141,-4.883658254205871,-0.34719004145597254,-5.44222514811399,0.01666666753590107
384,6425.0,-0.0012291764687746762,-0.170678784353286,-0.24667174457907676,1.0140946252018213,-2.574366504126787,-9.699808166393638,-4.8965118164501895,0.6980012571108154,-6.224177220808785,0.01666666753590107
385,6442.0,0.04954765556640923,-0.15225728473886846,-0.3724503338456154,1.0715554650455712,-2.5439899244330824,-9.827898539733885,-3.394465919609056,1.349470356397038,-6.101062634132481,0.01666666753590107
386,6459.0,0.20221629758514462,-0.06984554351195693,-0.5367459930330515,1.230620164776966,-2.4552549715340137,-9.993097869762778,-0.9218552643509885,0.48701303175027205,-5.3924292270831895,0.01666666753590107
387,6476.0,0.19351452021338045,-0.08341375787630677,-0.41754619763493533,1.2258318345218897,-2.4673756174385546,-9.873836699566244,0.4456990850907161,-0.8844520812389408,-5.376120016005668,0.01666666753590107
388,6492.0,0.13621844247728584,-0.1216422201141715,-0.35632395943105216,1.1685206322818993,-2.5049345098517835,-9.81278514175415,-0.08661134768847062,-1.7382530482472147,-6.219569831326788,0.01666666753590107
389,6509.0,0.11095606399215757,-0.125900023689121,-0.4258844023913145,1.1418851388126612,-2.507328857642412,-9.88296459339559,-0.28707375795013507,-2.241950257788271,-6.030050437992329,0.01666666753590107
390,6526.0,0.17815028927773235,-0.01927607061713934,-0.5621522369682789,1.2066782212406397,-2.4015350717842576,-10.019285034942627,2.3246905290635707,-1.5541757148556687,-4.993748523908606,0.01666666753590107
391,6542.0,0.16373707545660435,0.018613515055179594,-0.5691337664186954,1.1926122864872217,-2.3704104502022263,-10.02452176655233,4.371725757516484,-0.9220243115329463,-4.866225477009883,0.01666666753590107
392,6559.0,0.09307466260381042,0.007705167549848556,-0.45300855616033076,1.1225818879276512,-2.391658843805641,-9.905709509167075,5.118139929072878,-1.4669918719167467,-5.410201379303563,0.01666666753590107
393,6576.0,0.11746800316944718,0.0961387994147837,-0.30697745245993135,1.14263332683146,-2.3192343897163865,-9.756072489929199,5.590901717759066,-3.053382067271075,-6.173269686490564,0.01666666753590107
394,6592.0,0.08270049504041671,0.02064502088278532,-0.3338759807795286,1.1062713891178368,-2.4075205759346483,-9.779864868927001,5.9125071512446405,-2.1590443544255984,-6.478774656555125,0.01666666753590107
395,6609.0,0.12091617086194455,0.09360752737149595,-0.2310059734135866,1.142333905493468,-2.3479646635077893,-9.673771223339438,6.549650248911878,-3.043626636145593,-6.551989161815785,0.01666666753590107
396,6626.0,0.11189721729978919,0.08026245423853397,-0.16899755326807497,1.1290163048893214,-2.3807354448616502,-9.607183074188232,6.874153390152831,-3.139817897774175,-6.366097452704248,0.01666666753590107
397,6642.0,0.08274849890060722,0.0528702971830964,-0.08985913462340832,1.097143422223255,-2.42248404404968,-9.524582532390951,6.175359297489765,-2.643033906890229,-6.44517652914101,0.01666666753590107
398,6659.0,0.005820522847026586,-0.03984831852465868,0.03243219704926014,1.018134913568571,-2.5255843530401587,-9.399784770855307,3.8134666490078386,-2.722333897257958,-6.100724966655389,0.01666666753590107
399,6676.0,0.023576032833382485,-0.02492050624489784,-0.05769347955584526,1.033397876086831,-2.517504214698076,-9.488370816802979,2.8004319877751764,-1.7424999318070817,-5.805879360564279,0.01666666753590107
400,6692.0,0.036777386646717786,-0.01008475616276264,-0.13190671675801277,1.047314100171253,-2.5068796525701877,-9.561393382915854,2.3571571929529918,-0.9988423819110219,-5.310133131547352,0.01666666753590107
401,6709.0,0.05313610851243138,0.020728022991120813,-0.06584814443886279,1.0657195984989405,-2.4794962633430955,-9.49420609882772,2.3956600365214116,-0.6083803172986683,-5.112707794248603,0.01666666753590107
402,6726.0,0.049427463252842425,0.036949674473702905,-0.05457797788381576,1.0648216267459094,-2.4687220636114477,-9.481187627300619,2.1802864561877495,-0.9760611397080906,-4.832059163234187,0.01666666753590107
403,6742.0,0.03169686851203441,0.03482493740469217,-0.04579319840371608,1.0473142463017255,-2.4748574976265427,-9.471311545452474,1.8142243886116203,-1.3767514126025384,-4.881437162065148,0.01666666753590107
404,6759.0,0.02440123161114752,0.02050298206359148,-0.05115735578536987,1.0399818575870245,-2.4919161844551563,-9.475950895690918,1.3163759554342107,-1.1672177507309431,-4.877912357566598,0.01666666753590107
405,6776.0,0.0623856559600681,0.05854337438344955,-0.1663654511988163,1.0781395926762372,-2.4560031595528122,-9.590572715649008,1.3833363552926654,-1.4843666992264957,-4.309027182256705,0.01666666753590107
406,6792.0,0.08620565361715853,0.08470891225337981,-0.21492694527208803,1.1008845084477215,-2.432809330970049,-9.638456748852134,2.766168984134042,-2.2156698242961776,-3.8167861209444647,0.01666666753590107
407,6809.0,0.09781162799783051,0.10690759231895208,-0.2160918973982334,1.1113591407109051,-2.4170973825752733,-9.638007836040854,3.9428317125483496,-0.7257410032077644,-4.093195338918418,0.01666666753590107
408,6826.0,0.0885102772977203,0.12098580203205346,-0.0897246945887804,1.1031289994388818,-2.41290752967,-9.508871168518066,3.361750167258341,-1.7488422960599674,-4.103758226469843,0.01666666753590107
409,6842.0,0.07883315208777784,0.05656593683063984,-0.1323369248688221,1.090858715930581,-2.483236911176145,-9.550170562633872,2.6630322738932035,-2.750374385121799,-4.259396039539631,0.01666666753590107
410,6859.0,0.08634944600202142,0.11042933670431375,-0.0986082582682371,1.094749293628335,-2.432809330970049,-9.515903551372885,2.310462818135611,-2.8158344912403783,-4.093319562983948,0.01666666753590107
411,6876.0,0.061302902224659915,0.14296265604048966,-0.10564882442951201,1.063325323773548,-2.403929273444414,-9.522637828063964,2.238538791741261,-4.360551568034343,-4.064012928802716,0.01666666753590107
412,6892.0,0.03763904497735202,0.17639497004300356,-0.06768354317247867,1.0327991795413196,-2.3744503732427953,-9.484330016979575,2.5752009503653053,-3.846585382519584,-4.636131344910963,0.01666666753590107
413,6909.0,-0.08923194263577461,0.19352584532499312,-0.015157821643352507,0.9020160599857568,-2.359935525678098,-9.431507942852377,1.9627438639057857,-3.2134217238175244,-5.83367140029706,0.01666666753590107
414,6925.0,-0.11929792201034724,0.1893281013742089,-0.06102642337083816,0.8692454978276044,-2.365472409278154,-9.477297634124755,1.0696086912410545,-2.5414903382732956,-7.025972700589758,0.01666666753590107
415,6942.0,-0.11986936522275209,0.21489216621965168,-0.1348152976810932,0.8705923093266784,-2.3403332918465134,-9.5507696975708,1.5330167493023212,-0.56884451433999,-7.943581721711115,0.01666666753590107
416,6959.0,-0.04270034695491194,0.2586778241932392,-0.30927754609584807,0.9551374823857098,-2.298584400397539,-9.723899820598959,3.6366851315886297,0.8344910617292959,-8.703362573473225,0.01666666753590107
417,6976.0,0.08907302574701606,0.2946267971917987,-0.32037469417154785,1.0981909585148095,-2.273146007758379,-9.730933372497558,6.243099833017482,0.781832971271142,-9.363778686963634,0.01666666753590107
418,6992.0,0.12846424815393984,0.28658611407727,-0.2755710913270712,1.1441297028690576,-2.294244909888506,-9.681852238464355,7.167502331042062,-0.09021249822729373,-9.540140147748888,0.01666666753590107
419,7009.0,0.1908449356779456,0.21993074490875003,-0.07537760480642318,1.2078753220707177,-2.3729542894661426,-9.478195459747313,6.462654983227073,-2.1837741215326876,-8.9208426268356,0.01666666753590107
420,7025.0,0.18373028136715291,0.10544453402906656,0.07650222492218017,1.1944079377323389,-2.4980513262093065,-9.324068143352866,3.8725763867455982,-4.651288388452867,-8.194279546328202,0.01666666753590107
421,7042.0,0.15195187205150723,0.07667261305302381,0.09840659821629523,1.1544547705937176,-2.529774205945432,-9.302221637725829,2.107421357791819,-5.58181500484201,-7.177008246819427,0.01666666753590107
422,7059.0,0.06982150504924356,0.021546645897626875,0.07359189043343067,1.0637743827152997,-2.58214736726135,-9.32870690906942,1.3937679751459788,-5.309323327243883,-6.563528339531699,0.01666666753590107
423,7076.0,0.0013075024019926786,0.000983165818452835,0.01799625993967056,0.9885067410893738,-2.6007024301275607,-9.385569783020019,1.4648288363839683,-3.4666620863531485,-5.158211368272874,0.01666666753590107
424,7092.0,-0.04458857185430824,-0.027746669581532477,0.00881342105269432,0.9409218369632959,-2.6297324175179004,-9.394846729931235,0.8955049281416082,-2.085162838503805,-3.9080553775024063,0.01666666753590107
425,7109.0,-0.1307958329066634,-0.08384206629097461,0.05343932924270629,0.8562269532352685,-2.6840502831608055,-9.350553999218343,-0.3722113722632564,-1.7716500052459325,-3.235888563875224,0.01666666753590107
426,7126.0,-0.17942608136720956,-0.10886457160562277,0.019621230792999267,0.8077443696171045,-2.7030548433601855,-9.386018695831298,-2.1673443149276332,-1.5111459499714115,-3.0999191342941335,0.01666666753590107
427,7142.0,-0.15413301548287273,-0.09573825578987598,-0.05164192443192005,0.8319856614261865,-2.6828534745916723,-9.459340537151693,-2.8280088765491027,-1.596392900672106,-2.963599870961492,0.01666666753590107
428,7159.0,-0.08127762263044715,-0.00502542694658041,-0.23991350249052046,0.9030635232120752,-2.585289756940305,-9.649679569134115,-2.17531407847198,-1.9376708797929036,-2.7960280098643993,0.01666666753590107
429,7176.0,-0.07062851058319211,0.02153378641605377,-0.31082302197217937,0.9093483025699853,-2.5543147729620337,-9.722253806957601,-0.5686455317195604,-1.8284322493023046,-3.5038578024691573,0.01666666753590107
430,7192.0,-0.056589683032408356,0.025014906530082225,-0.3180862909734249,0.9202718476444482,-2.550125212317705,-9.730034962353109,0.039546248345631696,-1.9995498323522805,-3.9735876274940938,0.01666666753590107
431,7209.0,0.035807080309838056,0.07869009035527706,-0.35501463039815423,1.007211295428872,-2.4973031381905075,-9.767294725689291,0.2932193807384127,-2.7416349446353565,-4.16348225434608,0.01666666753590107
432,7226.0,0.10470810951329768,0.12808306681662798,-0.3584983808606863,1.0681138001590966,-2.45106511862874,-9.770736390575767,2.4666015828923373,-3.3651462653797184,-4.868551583309095,0.01666666753590107
433,7242.0,0.10318827953487635,0.13364917651116848,-0.34579087497889993,1.0621284421391783,-2.4521122895941136,-9.756670455822348,4.01478177903891,-3.00157124043512,-5.390728509979856,0.01666666753590107
434,7259.0,0.13927330000326035,0.12277560805827378,-0.3117547498643398,1.0937018304020165,-2.4720143831551074,-9.720607793316244,4.658458379534088,-3.1242062197656413,-5.376766749542704,0.01666666753590107
435,7276.0,0.15600582361742854,0.10659721119552851,-0.20297639523744582,1.1035779853153973,-2.5020912492498755,-9.60867886570394,5.176647329503208,-3.4928567155937937,-4.716158536981887,0.01666666753590107
436,7292.0,0.12165822140090167,0.08211538862884044,-0.13346622115969656,1.0651210480839013,-2.538004274152219,-9.536403903087972,5.3795620044605315,-2.3791089940585897,-4.738879161255935,0.01666666753590107
437,7309.0,0.07511866160929202,0.05487170013338327,-0.03548164774775505,1.0172370148807763,-2.5760122255071995,-9.43554815815389,4.950498058536793,-1.6835959535180687,-4.514064338498611,0.01666666753590107
438,7326.0,0.04733575167059898,0.0263034850358963,0.027461422899365425,0.9891051453739405,-2.61716285880208,-9.369109062084554,4.083852493907487,-0.8853588955729658,-3.529999924630558,0.01666666753590107
439,7342.0,0.025796485361829397,0.016060323441028593,0.050391632109880444,0.9702509534306824,-2.6348198037847874,-9.343820891571044,3.0852854539973813,1.0222533888997696,-2.722695256953734,0.01666666753590107
440,7359.0,-0.014997078123688697,-0.019565116691589356,0.067673606300354,0.9367319840580225,-2.67447406104207,-9.324666693767904,1.8353465351764733,2.388037118520854,-2.0246208954744582,0.01666666753590107
441,7375.0,0.02078084915690124,0.0206719088897109,0.008329436928033828,0.9816234113164245,-2.634969733649492,-9.382875721630453,-0.024707715734631888,1.5649741372117532,-0.469958156114456,0.01666666753590107
442,7392.0,0.006640387862548232,0.023816636656224726,-0.0007709843724966049,0.9717471833378076,-2.6301813303291794,-9.3920036154598,-0.6985816097468549,1.5173819126836332,-0.08032494563005402,0.01666666753590107
443,7409.0,-0.033599998719617725,0.028025194261968134,-0.03177811705470085,0.9364327819157391,-2.6226994501411913,-9.42342751224935,-1.5897184184708284,1.88413671085199,-0.10280459229244693,0.01666666753590107
444,7426.0,-0.011992197219282389,0.0639464024707675,-0.09230535873174667,0.9620208121586591,-2.580800921088457,-9.485227842602134,-1.977020666818405,0.1255979474089844,-0.4494693495125632,0.01666666753590107
445,7442.0,0.007690189176425337,0.07893295920044183,-0.12031798577308654,0.9811744254399091,-2.5623954958260056,-9.514257537731527,-0.8174685227703316,-0.35793766428010493,-0.477699428486725,0.01666666753590107
446,7459.0,-0.01670892354287207,0.07219371407330036,-0.1528711788535118,0.9575316840458661,-2.568081432507932,-9.547028172954917,-0.14687525399383028,0.8045989522701466,-0.8707505616813366,0.01666666753590107
447,7476.0,-0.07158624969944358,0.020080664998292922,-0.20184183824956417,0.9096476508427411,-2.6188088724434375,-9.595660394176841,-0.5084483531607406,2.1546783694420792,-1.6328540512872207,0.01666666753590107
448,7492.0,-0.05174238913170993,0.01961976948827505,-0.22144144173264502,0.9361335067082196,-2.617312204144895,-9.6151138671875,-0.5145877860900829,2.6782866476307805,-2.039038571038709,0.01666666753590107
449,7509.0,-0.0001606704544275999,0.029169688121974468,-0.32733459631204603,0.9955397084660828,-2.6062390214666724,-9.720608377838134,0.3349365753632639,3.0992085811770407,-1.886737945708707,0.01666666753590107
450,7526.0,0.0007881547030061483,0.02983867342472076,-0.264912919190526,1.0064631804753095,-2.6086335153877735,-9.656263623699544,2.246801613089684,2.3368489061164284,-1.9010811295223222,0.01666666753590107
451,7542.0,-0.02144574280641973,0.029021219561994074,-0.19315350488126276,0.9906015944767743,-2.6141701067268848,-9.582492285045982,2.258148051404956,1.8241685037129243,-2.529864075645465,0.01666666753590107
452,7559.0,-0.09233100462965667,-0.04719225154668093,-0.10389058258533478,0.9241624984074384,-2.693178761512041,-9.491962119293213,0.9729003629479615,1.1119035704593008,-3.4228694747159656,0.01666666753590107
453,7576.0,-0.10339688078425824,-0.0425488096550107,-0.17815350414812564,0.9175784438420087,-2.68749253256917,-9.566032148632406,-0.13720870870905072,0.2979504339969837,-4.020719347861767,0.01666666753590107
454,7592.0,-0.11728906640596687,-0.04550619815587997,-0.21633330493867395,0.906505261163786,-2.6894378214180468,-9.604190322113036,0.7165448471814297,0.20104162897958003,-4.543438420797897,0.01666666753590107
455,7609.0,-0.15193711287379263,-0.016601590710878373,-0.2692436418712139,0.8759791169315576,-2.6619045023262498,-9.656263623699544,2.064517311076972,0.7850461483888099,-4.942648036746333,0.01666666753590107
456,7626.0,-0.2129190395157784,-0.054126434724032876,-0.23398411244153974,0.8230074782658368,-2.706047595435381,-9.618255672344565,3.016366710837837,1.5318420634867849,-6.1162640739039915,0.01666666753590107
457,7642.0,-0.22244484662152825,-0.07160188565999269,-0.23008009074032304,0.8215111752934754,-2.7287922189459204,-9.611970892986655,2.8954986160682337,1.6249807641649001,-6.961032542621746,0.01666666753590107
458,7659.0,-0.19644779718630015,-0.08745996452718972,-0.24369594363868236,0.855628548950702,-2.749891413336992,-9.623193713268638,3.062246585596694,1.6004904805655848,-7.423114476766973,0.01666666753590107
459,7676.0,-0.1603451679959893,-0.03700608083605766,-0.25013036060035226,0.902016133050993,-2.709039762988686,-9.625737552532554,4.822265952624858,1.117154278383748,-8.389580267908253,0.01666666753590107
460,7692.0,-0.17668072818182406,-0.019193068508803843,-0.21242986775934694,0.8936363541752099,-2.701707812665403,-9.58413829868734,5.764007312744338,0.8348955369942075,-9.59471335921729,0.01666666753590107
461,7709.0,-0.19116298865117132,-0.05869418103098869,-0.07949497699737548,0.8845085334111005,-2.752435252600908,-9.447369528850912,5.787028038455044,-0.8269283347707992,-10.512018863807404,0.01666666753590107
462,7726.0,-0.21118162126392126,-0.11058686535358428,0.0362678296893835,0.867599484186247,-2.8167794222176075,-9.32766003036499,4.342521149285979,-1.977411695148388,-11.221030065695162,0.01666666753590107
463,7742.0,-0.21429719600118696,-0.11727321124970912,0.06704115361571311,0.865953616675362,-2.8287504305183884,-9.295188085827231,2.7390906991695267,-2.226176149343538,-11.44318111467618,0.01666666753590107
464,7759.0,-0.2645261848952621,-0.18961276353448628,-0.0008954875349998473,0.8165730613041668,-2.9028210443794724,-9.362525007519125,1.9258279721023361,-1.699793747134754,-11.91000917652092,0.01666666753590107
465,7776.0,-0.20819778314754367,-0.1569236691147089,-0.10814531742036342,0.8774755660343915,-2.8722946809515357,-9.468618653106688,2.8759743068823407,-0.9822660464039299,-12.33601575901743,0.01666666753590107
466,7792.0,-0.2062152310281992,-0.14109920025616884,-0.10928396606147289,0.8851071568913758,-2.8612217905342576,-9.46772024296224,3.6876853003474688,-0.26888947318246037,-12.393537904659986,0.01666666753590107
467,7809.0,-0.22384550719968974,-0.18340192619562148,0.007955927440524101,0.8726873088445514,-2.909405098944902,-9.348159797558187,3.120214827969415,0.021907671680257226,-13.199314104066607,0.01666666753590107
468,7826.0,-0.20590733412280676,-0.22780776189416646,0.04131809881627559,0.8990234540410339,-2.956092031317949,-9.313145182800293,0.4426603979620009,-0.273290116039932,-13.823959663100014,0.01666666753590107
469,7842.0,-0.16785020986385643,-0.20958587650507687,-0.017671850290894506,0.943016909546405,-2.9345442163765427,-9.37240108936727,-0.48346362789853975,-0.7212978050701124,-14.121136925019039,0.01666666753590107
470,7859.0,-0.09868673033192753,-0.12323650356829166,-0.1412561443835497,1.0158904225774108,-2.8461083925545214,-9.496151972198486,1.0976979509244378,-0.7473292568226177,-14.270260445167926,0.01666666753590107
471,7876.0,-0.06954670669585467,-0.09055091627985239,-0.21905834598839283,1.0531501128483562,-2.818275798255205,-9.571568739971518,4.2724822551025525,0.2760733114050064,-14.977206368605403,0.01666666753590107
472,7892.0,-0.06829393015578389,-0.096081370139122,-0.23122166199088096,1.0642233685918152,-2.8321918031439184,-9.580098083385824,5.234652284142718,0.041910681077432926,-15.304153863795573,0.01666666753590107
473,7909.0,0.010176672229915857,-0.11720569897145032,-0.14073475085794926,1.148618977112323,-2.863765629798174,-9.485826977539062,5.131872878172835,-0.9693643526703046,-15.303394005250409,0.01666666753590107
474,7926.0,0.03265022371411323,-0.09732815532982349,-0.06316752705276012,1.1792946128178388,-2.8555355615913864,-9.40382498615682,4.922928853725683,-0.8627271704798344,-14.758244164193133,0.01666666753590107
475,7942.0,0.021851254867389796,-0.11336217528581619,-0.06963467724025249,1.1760027316655963,-2.879178010724485,-9.407117597961426,4.677062107285911,-0.9392989271609663,-14.339874586962344,0.01666666753590107
476,7959.0,0.031202143797650933,-0.10860855101794004,-0.06734568952023982,1.1914152587223796,-2.880824316626787,-9.402178972515463,4.212432085693447,-1.1468643206128342,-13.941818846096815,0.01666666753590107
477,7975.0,0.0592383709102869,-0.0963210241138935,-0.10759586684405803,1.2273283566899598,-2.875287725287676,-9.439438735851645,3.375402648192139,-1.162603851224894,-13.084333845804967,0.01666666753590107
478,7992.0,0.08311747834347188,-0.06987579251974821,-0.09533552020788193,1.2568069646306335,-2.8525425172552463,-9.425373385620116,2.853097442031029,-1.8550460814032594,-12.098512152329516,0.01666666753590107
479,8009.0,0.14039207490012048,-0.00452390716522932,-0.15605916123986244,1.3169613544072956,-2.790891824506223,-9.484629292187094,2.8526455823287504,-2.9947882222590625,-11.497464896878503,0.01666666753590107
480,8026.0,0.1165196894686669,0.031021453468501565,-0.16800737318694592,1.2940668010320513,-2.7618624216377734,-9.494505374035239,3.570135396854022,-2.841510879877749,-11.383746516066022,0.01666666753590107
481,8041.0,0.10666552719138563,0.039000469523668285,-0.19966390968859193,1.285238109344989,-2.760216115735471,-9.524133619579672,4.421759027620943,-3.114752384180697,-11.288221197881516,0.01666666753590107
482,8059.0,0.15750271111167966,0.09775660987496375,-0.23489830467700956,1.3367133719731121,-2.7088901253849267,-9.55705389240682,4.396826275829458,-3.58016062045172,-11.006574932361454,0.01666666753590107
483,8075.0,0.18674020377285777,0.11403905163407325,-0.2194862160116434,1.3646958230718969,-2.7030548433601855,-9.53864846714437,4.995566634888299,-4.134073594214121,-10.848853057821167,0.01666666753590107
484,8092.0,0.18453268379122018,0.12938333576023578,-0.21610358783602712,1.360655461639911,-2.697069339209795,-9.532663547515869,5.685349146715179,-4.39190469764564,-10.477356507543234,0.01666666753590107
485,8109.0,0.18621771426871417,0.134711252784729,-0.17869243333041668,1.3609548099126667,-2.702157017737627,-9.492260809978843,5.980316842437704,-4.120420472950089,-10.394012831743447,0.01666666753590107
486,8126.0,0.2035716577168554,0.12637626289874315,-0.13691314674317837,1.3754695844121276,-2.724303090833127,-9.446621340832113,5.740378700197502,-4.6526872965722506,-10.294002640595181,0.01666666753590107
487,8142.0,0.2230135864201933,0.13345774559229612,-0.1257668988287449,1.3916305917486547,-2.727595118115842,-9.432705043682455,5.909582549619405,-4.582388428313541,-9.854627670345662,0.01666666753590107
488,8159.0,0.22810499127507208,0.12628916913717986,-0.08948679417967796,1.3944735600896179,-2.744204892133176,-9.393799266704917,5.720297090264019,-4.535009967362101,-9.377211107740111,0.01666666753590107
489,8176.0,0.19904826200827955,0.09208353267461061,-0.027735563665628432,1.3623015483465044,-2.7899942911446094,-9.328856546673178,4.866525151559718,-4.204609811546489,-9.124558995246755,0.01666666753590107
490,8192.0,0.18996354973353444,0.10164601852893829,-0.003000350859761238,1.351078654999286,-2.7878990724310277,-9.30207141560018,4.4045174957217155,-4.134287037625684,-8.905524220074554,0.01666666753590107
491,8209.0,0.19067593578658998,0.09457008879333734,0.04519932416379451,1.350330466980487,-2.8003192858040333,-9.252391731151938,4.230269124710935,-4.688538105752001,-8.692438539669435,0.01666666753590107
492,8225.0,0.19875921593382953,0.10596505077183246,0.044590252354741094,1.3582613330449909,-2.797176896125078,-9.25044644230306,4.487713468680702,-3.0422266608091517,-8.100661558469422,0.01666666753590107
493,8242.0,0.20715273107402024,0.08577829505056142,0.015022797086834907,1.3669403140630572,-2.824710215216875,-9.277680486187338,4.2595228249260995,-3.154488503781127,-7.471018862284503,0.01666666753590107
494,8259.0,0.2036471341058612,0.055009647299349304,0.055739422878623004,1.3648453876104205,-2.861072152930498,-9.235033769115805,3.6775373467881223,-3.0428400971739835,-6.950999421617821,0.01666666753590107
495,8276.0,0.1967984372548759,0.04771159924566745,0.079441785505414,1.3582613330449909,-2.873791349250078,-9.209595376476646,2.489640024406202,-3.187864223160395,-6.697876026071733,0.01666666753590107
496,8292.0,0.19236549630872904,0.039813539472222326,0.07513035204708576,1.3527247417058794,-2.8844156191170214,-9.21318667896688,1.8186411731270913,-2.908442037988819,-6.718359763392602,0.01666666753590107
497,8309.0,0.19154950375072657,0.035491584619879724,0.004953823015093803,1.3546699574895202,-2.8890540925726294,-9.28291838684082,1.337650287151508,-2.0712394978807342,-6.286959892772718,0.01666666753590107
498,8326.0,0.240444979018718,0.0728501321554184,-0.03633680327236652,1.4076416692204772,-2.8519439668402073,-9.323619230541587,1.2002831233897981,-1.1568581680290322,-5.701067546429495,0.01666666753590107
499,8343.0,0.21542240063883364,0.06908610344678164,-0.03127309014201164,1.387440592712909,-2.857181282971799,-9.317484088787436,1.5682177300155686,0.09205420804417742,-5.47919440077033,0.01666666753590107
500,8359.0,0.24636399380415677,0.08299567859470844,-0.031527357164025306,1.4261968051519245,-2.845210274671018,-9.316137934875488,1.8495744595478445,0.1263254425968701,-5.061896736352408,0.01666666753590107
501,8376.0,0.2516772977814078,0.07066635837554931,-0.0028957214415073393,1.4375691899724303,-2.860622947858274,-9.285760916790366,1.5273790684727104,-0.8230770685742641,-4.905264276984737,0.01666666753590107
502,8392.0,0.24203049464449286,0.05624883370548486,0.026369536009430882,1.4311347730107604,-2.8767841013252733,-9.255534120830893,1.3586983688525485,-0.7067827993101891,-4.598835523834931,0.01666666753590107
503,8409.0,0.27405396476238963,0.05446341159343719,0.01870119333863258,1.46734714618586,-2.8788787355169654,-9.262567088207602,1.0745837369994684,-1.280853742386561,-3.8653970041542687,0.01666666753590107
504,8426.0,0.2256450309023261,0.003725450263917446,0.056521513167023654,1.4203610116705299,-2.9291572626411915,-9.224708774456381,0.20932390035888163,-1.5712547095969915,-3.3224366656128055,0.01666666753590107
505,8442.0,0.18677929367423057,-0.028312779031693935,0.0838116711527109,1.3838493632879107,-2.958635870581865,-9.197924227905274,-0.8272279025989278,-0.18602559149143924,-3.238418295189067,0.01666666753590107
506,8459.0,0.21947649833522737,-0.012801321645081043,-0.016616788280010224,1.4220068791814147,-2.9385841394171117,-9.299078663524984,-0.9457582584033886,-0.17136189571493587,-1.8815760302434699,0.01666666753590107
507,8476.0,0.26959983489774164,0.035306291180849075,-0.0773936208039522,1.4772231549687682,-2.8884552498966456,-9.35983153065145,0.46950357500867995,0.7378019433432433,-0.42433019794209653,0.01666666753590107
508,8492.0,0.23316198240369557,0.025519933442771432,-0.03231763075888157,1.4457992581792174,-2.8993790872320533,-9.313743148693442,0.7000455113850591,1.2472758920965437,-0.05834523679839431,0.01666666753590107
509,8509.0,0.19662680701501667,-0.03434299910664558,0.06348141530752181,1.414824274200946,-2.9596830415472386,-9.217077256664632,-0.4640159982582507,0.2459111960302301,-0.00929124506618586,0.01666666753590107
510,8526.0,0.21414602402746677,-0.04628390453010797,0.028869536131620407,1.4336786853399126,-2.9683617303043603,-9.252541368755697,-1.5777121198487096,-0.7605542639639078,0.6136880146140029,0.01666666753590107
511,8542.0,0.21415442652963101,-0.04235182577818632,-0.0019224924951791761,1.432331946906075,-2.960132246619463,-9.284863091167807,-1.78379952439721,-1.1152834468813992,1.3639169535435554,0.01666666753590107
512,8559.0,0.2271586503356695,-0.014942717587947844,-0.08449673080742359,1.4452008538946508,-2.9284087823614477,-9.368809786877035,-1.3434156071412333,-1.2493929305741303,2.346094634375098,0.01666666753590107
513,8576.0,0.1576831822451204,-0.030241993528604506,-0.09906418534219265,1.3735242955632507,-2.940978633338213,-9.384522319793701,-1.0562146902786596,-0.7049441444021334,3.0438029404035434,0.01666666753590107
514,8592.0,0.12834310599230228,-0.024990356610715386,-0.10595569842159748,1.341651632092893,-2.9339456659615037,-9.392302890667318,-1.5745535842444018,-0.8725995685948531,3.3099465974983797,0.01666666753590107
515,8609.0,0.12945055577754974,-0.0363683674544096,-0.13179273498952387,1.3406040227361022,-2.9436721102058887,-9.418938968658447,-1.3235984535946759,-1.4615923939344402,3.767685598548536,0.01666666753590107
516,8625.0,0.10185023586414754,-0.028989655379950997,-0.12617372606396673,1.309030561408028,-2.935292112134397,-9.414149980816244,-0.8384036395458024,-0.8095643930750401,4.066046190741264,0.01666666753590107
517,8642.0,0.06434636157378554,-0.02883621838390827,-0.08455576751828194,1.2689276836004106,-2.9342449411690232,-9.37314927738607,-1.1210726725332198,-0.5908723013001042,4.412431550535644,0.01666666753590107
518,8659.0,-0.005765577789396047,-0.05586509508490562,-0.025278818163275717,1.1966526479192077,-2.9592338364750144,-9.31479061191976,-1.664132902591294,-0.746908719940986,4.1996169432632104,0.01666666753590107
519,8675.0,-0.013437939048185944,-0.05944412261545658,-0.021665303841233254,1.1858787404485047,-2.959234128735959,-9.312695685467123,-2.073924829441607,-0.17133716295962104,4.085079793523974,0.01666666753590107
520,8692.0,-0.0019211773209273815,-0.012900105844438075,-0.10181962153017521,1.194707432135567,-2.908357343457639,-9.394547454723716,-1.3475976039039852,-0.38975540683752175,3.809114537846071,0.01666666753590107
521,8709.0,-0.02750979208573699,-0.010172726707160473,-0.09079729225635529,1.1668747647710145,-2.9043171281561255,-9.38422304458618,-0.6639030317834077,-0.04035686640210792,3.4208513672596386,0.01666666753590107
522,8725.0,-0.02576258309222758,-0.002927577884495258,-0.10099252305626868,1.1670244754400103,-2.896835247968137,-9.394697092327474,-0.5632245493135388,0.11918234538550612,3.053859113295918,0.01666666753590107
523,8742.0,-0.01261558981463313,-0.006184533853828907,-0.10979483819305896,1.1764516444768756,-2.900576480323076,-9.40382498615682,-0.3389823952294386,-0.6691599295667903,2.901110683688457,0.01666666753590107
524,8759.0,-0.03876512639783323,-8.621697872877121e-05,-0.13254910631477831,1.1463744861211627,-2.895638147138059,-9.426720124053954,0.2612678358423724,-0.5994272199572509,2.640017524598022,0.01666666753590107
525,8776.0,-0.05402348580621182,-0.02768821739256382,-0.10257949998676777,1.127520074982196,-2.926014872962236,-9.396343105968832,0.7440639995125286,0.1287893266182464,2.6352455702457105,0.01666666753590107
526,8792.0,-0.06531447595357895,-0.03038783174008131,-0.07621756276190281,1.1148008055973797,-2.930653346417844,-9.369557974895834,0.2006334718158189,0.35764868858127524,2.408180840487103,0.01666666753590107
527,8809.0,-0.09300444691181182,-0.0743178666204214,-0.03169920659959316,1.0850229955144226,-2.973748976300657,-9.325564519390463,-1.1350202389835031,-0.539721334770996,2.3261963723321473,0.01666666753590107
528,8826.0,-0.08751425199769437,-0.06435644457638263,-0.06376841555535794,1.0847237933721392,-2.9590847833931444,-9.35983153065145,-2.2769361942643687,-0.911641890385998,2.532910553458702,0.01666666753590107
529,8842.0,-0.09116123019792138,-0.06622633010149001,-0.09028934273421764,1.0782893764104693,-2.9559423937141895,-9.388262675365805,-2.221974088900099,0.4469854284909264,2.7448246429777523,0.01666666753590107
530,8859.0,-0.07812427316606044,-0.035306583441793916,-0.13781506401896476,1.0902603847112506,-2.9209271944344044,-9.437194756317139,-1.8719832429975984,1.0149022910838374,2.913419111459643,0.01666666753590107
531,8875.0,-0.0739681763999164,-0.04296206663101911,-0.12509119152426718,1.094599875220284,-2.925116462817788,-9.425522438701988,-1.4161775056476733,1.6222704597248745,2.892130479033771,0.01666666753590107
532,8892.0,-0.06403685723319649,-0.03799216926395893,-0.12642916212975977,1.105972333106026,-2.9180840799629686,-9.427318089947104,-1.4803663428069838,1.5632726730564794,2.6898930600213364,0.01666666753590107
533,8909.0,-0.05752506418637931,-0.05369768791794777,-0.09658464348614215,1.1131548650212586,-2.931850447247922,-9.39798911961019,-1.696598712707069,1.9482519100343112,2.8108341524376943,0.01666666753590107
534,8926.0,-0.007781447656452656,-0.028620237545669076,-0.09580606032907962,1.1631338246770202,-2.9022224939644334,-9.398588254547118,-2.32150702058011,0.9679204079910817,3.148450189668013,0.01666666753590107
535,8942.0,0.0004544657692313194,-0.030023382341861724,-0.09775134917795658,1.1697179523076862,-2.8984812616094944,-9.402328610119223,-2.6468528364099124,0.4617308197332054,3.185946007220679,0.01666666753590107
536,8959.0,-0.0071906421564519405,-0.020396891340613364,-0.10714520046710968,1.158944044836983,-2.8832185182869434,-9.413850705608725,-2.7567772605818632,0.011977990689660292,2.7077354351241136,0.01666666753590107
537,8976.0,0.00012881401143968103,-0.03172726365029812,-0.12892740868628025,1.1623857097234576,-2.8866601831734178,-9.438540910229086,-2.5601474268780087,-0.15969491875634917,2.171303690212125,0.01666666753590107
538,8992.0,0.004233838177472353,-0.022078853078186512,-0.14650748904049396,1.1646302007146179,-2.872144751086831,-9.457844161114096,-2.170098161823618,0.34515643267188056,1.8002306116627336,0.01666666753590107
539,9009.0,-0.012355989030376076,-0.004484159676730632,-0.19448796835541723,1.146973109601438,-2.850896503613889,-9.50707493275106,-1.4559064748938162,0.03486079193585584,2.05550893189196,0.01666666753590107
540,9026.0,-0.01455970961973071,-0.0012096680507063865,-0.2179658745765686,1.1418852849431336,-2.8458085328251124,-9.531465277642011,-0.23161022065125145,-0.37245699226911244,1.1683343799385346,0.01666666753590107
541,9042.0,-0.03139079823754728,-0.0048185061976313585,-0.2236509344756603,1.1240784831609576,-2.85029795319885,-9.537002453503012,0.631029971638371,-0.25541329650661365,0.23307134752510528,0.01666666753590107
542,9059.0,-0.01953903240226209,-0.007057809557020664,-0.1848041942089796,1.1348523175664245,-2.854637443707883,-9.497647763714193,1.0248745807154678,-1.0838588137272285,-0.5058813226107265,0.01666666753590107
543,9076.0,-0.04026997800283134,-0.024200959798693654,-0.12425240261256694,1.1095636355962604,-2.873791056989133,-9.437045118713378,0.6815416751498483,-1.9076731158450306,-1.249287062641995,0.01666666753590107
544,9092.0,-0.08951806610077619,-0.07912292881458997,-0.10769231295585632,1.0579385161686687,-2.928857402911782,-9.420734035381674,0.10622731747941667,-0.9050959011184813,-1.7248560590770579,0.01666666753590107
545,9109.0,-0.06763137459382415,-0.06010813948214054,-0.24382804558575152,1.079785752448067,-2.9092554613411425,-9.55705389240682,0.3267678291984873,-0.4094495369377395,-1.624455906815867,0.01666666753590107
546,9126.0,-0.039886531643196936,-0.014868191047012804,-0.27561726855635643,1.1080672595586627,-2.8664588144049046,-9.588029460906982,2.1206183504853415,-0.10587003988888682,-1.4028720837010769,0.01666666753590107
547,9142.0,-0.05832388641387224,-0.023171032229065892,-0.20800912870764732,1.0913078479375689,-2.8805250414192676,-9.518447390636801,3.1296556435062537,0.5169019929191008,-2.168979291460205,0.01666666753590107
548,9159.0,-0.11731566215194761,-0.07030249349921941,-0.04533902489542961,1.0351936003971844,-2.9342446489080785,-9.35339711368978,2.8004778781086626,0.5930280797568894,-2.7056308830861036,0.01666666753590107
549,9176.0,-0.13338847974836826,-0.10050327823460102,-0.044615386795997615,1.0220254912663251,-2.9701573815494773,-9.350553999218343,1.3502152739033926,0.016397656691187448,-3.018481081272779,0.01666666753590107
550,9192.0,-0.11741963398307562,-0.10633417634516953,-0.09013152182400226,1.0393835994329303,-2.97793882920593,-9.395295642742514,1.0963934915146711,-0.04371587873072614,-2.680525455574664,0.01666666753590107
551,9209.0,-0.14782507444508372,-0.10615063647180795,-0.09847031110227107,1.0109524547185749,-2.9797347727119923,-9.402777522930503,1.7038460770249813,0.7152673883632259,-2.287165256320109,0.01666666753590107
552,9226.0,-0.18013159928806124,-0.11201865172237158,-0.06772036805152892,0.9829702228154986,-2.9899101297676562,-9.370156525310874,1.782720781395171,1.1468828901896402,-1.8841757709963058,0.01666666753590107
553,9242.0,-0.21028774116411805,-0.10216653527170419,-0.011215806019306182,0.9555865413274616,-2.9834754205450413,-9.312246772655843,1.5675279876311032,0.6941182412068103,-2.31744818066583,0.01666666753590107
554,9259.0,-0.24439795442819595,-0.09493716854006051,0.048688335323333734,0.9231151813115924,-2.979285567639768,-9.251195214843749,0.8746415817132753,1.0707967172698136,-3.0975996447406797,0.01666666753590107
555,9275.0,-0.39458661619946356,-0.10226268912255763,-0.0003916296660900116,0.7785651830144226,-2.9872163606390356,-9.299377938732505,0.12402923171548964,0.5861264937657089,-5.863748138307212,0.01666666753590107
556,9292.0,-0.48433454553335903,-0.08007862210422753,-0.02391805120408535,0.6923739232487977,-2.9641724619209766,-9.322721404919028,0.6634356440729379,0.4643330150852745,-6.2943736362299445,0.01666666753590107
557,9309.0,-0.28964783973544833,-0.14369535422921179,-0.2606394796550274,0.8904941106267273,-3.0292642350345846,-9.558550268444419,1.0608019093582637,1.0406133642755868,-5.832445808227867,0.01666666753590107
558,9326.0,-0.404293186699599,-0.08433131111264228,-0.28919805014133454,0.7833535863347351,-2.9706065866217015,-9.585933949932455,0.6753801508274092,2.3659647218877233,-6.9923621934577715,0.01666666753590107
559,9342.0,-0.37875513307824726,-0.059792205400764936,-0.3951917424857616,0.8183687856145203,-2.949058771680295,-9.689782446941733,3.4137936474129,2.2486741521393254,-8.127125980182281,0.01666666753590107
560,9359.0,-0.2906594279307872,0.007158931843936443,-0.4353694390952587,0.9141369250860064,-2.893094307874143,-9.725545834240316,6.876593048346995,2.426027057571288,-9.665730251112498,0.01666666753590107
561,9376.0,-0.2508649584852159,0.032904198475182056,-0.2836176196604967,0.9672583474859595,-2.8908500360786915,-9.56468541019857,9.698787512921712,0.2695797224950283,-12.092291557542927,0.01666666753590107
562,9392.0,-0.20053952347934245,0.0508794156268239,-0.10808920331895351,1.0181349866338074,-2.8953388719305395,-9.381977896007895,10.816917654583126,-3.558449156627542,-12.87661840163477,0.01666666753590107
563,9409.0,-0.29165713373124597,-0.13102759583592413,0.02864624876976013,0.9247611949529498,-3.0970506540596485,-9.239224206542968,8.082982467576489,-4.747098867035222,-14.542302610941304,0.01666666753590107
564,9426.0,-0.38472595111615954,-0.16712416061162946,0.6086877781718969,0.817770162134245,-3.1419416429266334,-8.658180806621909,2.0766417506273913,-11.575787529864686,-18.57190590047914,0.01666666753590107
565,9442.0,-0.501582032932341,-0.23919980126321314,0.6568728401482105,0.6860891438908875,-3.206435742408037,-8.614336988720297,-2.806413099053992,-11.984397620545174,-21.03787398332596,0.01666666753590107
566,9459.0,-0.6138834471188486,-0.22745178806334732,0.5250526326298713,0.5627878314580768,-3.1760590165838596,-8.753500544738769,-6.141221158244395,-10.43975033974679,-22.9142772124902,0.01666666753590107
567,9476.0,-0.5967025221500546,-0.21355916405022143,0.27016075671613216,0.577152968353778,-3.129372084210813,-9.019106122368573,-7.899738737428803,-5.747441969572942,-24.199312418030985,0.01666666753590107
568,9492.0,-0.6266632145192473,-0.1859364131093025,0.2165139222025871,0.5579993550725281,-3.0746044289737937,-9.079859574016929,-7.957493109503138,-0.7015893475808935,-25.262499664235172,0.01666666753590107
569,9509.0,-0.7305559890616685,-0.22683073355555533,0.17294307602345943,0.47869149814508855,-3.0879224679693578,-9.128791070446372,-7.922612187185529,4.151697189820047,-28.06920027156454,0.01666666753590107
570,9526.0,-0.8225283895120025,-0.2891363830819726,0.202571321567893,0.44038419851735233,-3.110218470929563,-9.10425050342977,-9.037807908824776,9.840869108036317,-32.90280732641938,0.01666666753590107
571,9542.0,-0.8363559854649006,-0.3128445909276604,0.17473288204967974,0.47869157121032474,-3.098546737836301,-9.13552476261556,-10.262860393074508,11.940885900437609,-35.89445750364165,0.01666666753590107
572,9559.0,-0.7120413312710822,-0.24772943693846464,0.008054711639881133,0.6612494477972388,-2.9949975160345432,-9.305214389801025,-10.254437062280589,14.023909182183907,-38.52443208883881,0.01666666753590107
573,9576.0,-0.6226897077783942,-0.19981267050951718,-0.18534955313205717,0.837073486084491,-2.897733073590696,-9.49989232777059,-7.718457832893848,15.496741292727839,-40.920435128922605,0.01666666753590107
