,ms,accelX,accelY,accelZ,accelWithGX,accelWithGY,accelWithGZ,rotRateAlpha,rotRateBeta,rotRateGamma,interval
0,247.0,0.0,0.0,0.1,0.5,2.3000000000000003,9.9,-8.899999999999999,2.3,0.6000000000000001,16
1,263.0,0.0,-0.2,0.2,0.5,2.0,10.100000000000001,-7.500000000000001,-6.1000000000000005,4.300000000000001,16
2,280.0,0.1,-0.2,-0.30000000000000004,0.6000000000000001,1.9000000000000001,9.600000000000001,-3.6000000000000005,-13.100000000000001,7.8,16
3,297.0,0.1,-0.2,-0.5,0.7000000000000001,1.8,9.3,-3.0,-14.700000000000001,9.100000000000001,16
4,313.0,0.0,-0.30000000000000004,-0.6000000000000001,0.7000000000000001,1.6,9.0,-3.4,-14.800000000000002,9.4,16
5,330.0,-0.2,-0.2,-0.6000000000000001,0.5,1.7000000000000002,9.0,-2.8,-11.3,8.4,16
6,347.0,-0.4,-0.2,-0.4,0.30000000000000004,1.7000000000000002,9.1,-2.6,-8.600000000000001,8.4,16
7,363.0,-0.7000000000000001,-0.2,0.0,-0.1,1.6,9.5,-3.4,-5.300000000000001,9.2,16
8,386.0,-0.8,-0.30000000000000004,0.4,-0.30000000000000004,1.5,9.9,-1.3,-7.8,7.0,16
9,397.0,-0.9,-0.30000000000000004,0.4,-0.4,1.5,10.0,1.0,-9.899999999999999,5.4,16
10,413.0,-0.9,0.0,0.2,-0.4,1.8,9.700000000000001,6.9,-13.5,3.4,16
11,430.0,-0.6000000000000001,0.1,-0.4,-0.2,1.9000000000000001,9.1,10.299999999999999,-13.399999999999999,5.7,16
12,446.0,-0.30000000000000004,0.2,-0.7000000000000001,0.1,2.0,8.8,9.700000000000001,-12.100000000000001,7.300000000000001,16
13,463.0,0.2,0.2,-0.9,0.6000000000000001,2.0,8.5,0.7,-4.6,9.3,16
14,480.0,0.6000000000000001,0.1,-0.30000000000000004,1.1,1.9000000000000001,9.1,-12.0,0.2,9.0,16
15,496.0,0.8,0.1,0.2,1.3,1.9000000000000001,9.600000000000001,-14.800000000000002,0.2,8.4,16
16,513.0,0.9,0.30000000000000004,0.7000000000000001,1.5,2.1,10.100000000000001,-14.0,1.9,8.8,16
17,530.0,1.1,0.4,0.7000000000000001,1.9000000000000001,2.2,10.200000000000001,-12.7,3.0,10.299999999999999,16
18,547.0,1.4000000000000001,0.4,0.7000000000000001,2.1,2.1,10.3,-13.6,4.9,9.100000000000001,16
19,563.0,1.2000000000000002,0.2,1.0,1.9000000000000001,1.9000000000000001,10.600000000000001,-16.0,6.4,3.5,16
20,580.0,0.7000000000000001,0.0,1.4000000000000001,1.5,1.7000000000000002,11.100000000000001,-12.8,6.1000000000000005,-2.7,16
21,596.0,0.5,-0.1,1.5,1.3,1.6,11.200000000000001,-7.8,4.7,-5.500000000000001,16
22,613.0,0.2,-0.1,1.1,0.9,1.6,10.9,6.699999999999999,3.1,-10.5,16
23,630.0,-0.2,0.1,0.2,0.6000000000000001,1.8,10.0,17.9,3.4,-12.5,16
24,646.0,-0.30000000000000004,0.1,-0.30000000000000004,0.5,1.9000000000000001,9.5,19.400000000000002,3.7000000000000006,-12.100000000000001,16
25,663.0,-0.30000000000000004,0.0,-0.9,0.4,1.8,8.9,14.700000000000001,3.0,-10.4,16
26,680.0,-0.5,-0.1,-0.9,0.2,1.7000000000000002,8.8,6.4,4.1,-9.100000000000001,16
27,696.0,-0.6000000000000001,-0.30000000000000004,-0.7000000000000001,0.1,1.6,9.0,3.4,3.8,-7.9,16
28,715.0,-0.5,-0.4,-0.5,0.1,1.4000000000000001,9.1,3.8,1.9,-4.7,16
29,730.0,-0.4,-0.4,-0.7000000000000001,0.2,1.5,8.9,5.300000000000001,2.0,-3.3000000000000007,16
30,747.0,-0.30000000000000004,-0.4,-0.8,0.4,1.5,8.9,4.4,2.1,-2.9,16
31,763.0,-0.1,-0.30000000000000004,-0.6000000000000001,0.5,1.6,9.0,1.9,2.0,-3.0,16
32,780.0,0.1,-0.1,-0.7000000000000001,0.7000000000000001,1.7000000000000002,8.9,3.1,3.6000000000000005,-5.1000000000000005,16
33,796.0,0.2,0.0,-0.7000000000000001,0.7000000000000001,2.0,9.0,3.3000000000000007,5.0,-6.500000000000001,16
34,813.0,0.0,0.30000000000000004,-0.5,0.6000000000000001,2.1,9.0,2.1,9.4,-8.5,16
35,832.0,0.2,0.30000000000000004,-0.4,0.7000000000000001,2.2,9.1,0.2,8.5,-7.0,16
36,847.0,0.2,0.4,-0.4,0.7000000000000001,2.3000000000000003,9.200000000000001,-1.3,9.0,-7.1000000000000005,16
37,863.0,0.2,0.4,-0.2,0.7000000000000001,2.3000000000000003,9.3,-5.500000000000001,7.9,-7.200000000000001,16
38,880.0,0.2,0.4,0.30000000000000004,0.6000000000000001,2.3000000000000003,9.8,-8.899999999999999,6.300000000000001,-5.4,16
39,896.0,0.2,0.30000000000000004,0.5,0.7000000000000001,2.2,10.200000000000001,-9.100000000000001,4.9,-4.300000000000001,16
40,913.0,0.30000000000000004,0.2,0.7000000000000001,0.7000000000000001,2.1,10.3,-6.4,0.9000000000000001,-3.0,16
41,930.0,0.4,0.1,0.7000000000000001,0.8,2.0,10.3,-0.9000000000000001,-2.2,-1.9,16
42,946.0,0.4,0.1,0.5,0.9,2.0,9.9,1.8000000000000003,-2.8,-1.8000000000000003,16
43,968.0,0.30000000000000004,0.1,0.1,0.8,2.0,9.700000000000001,2.0,-2.3,-2.8,16
44,988.0,0.1,0.1,0.1,0.6000000000000001,2.0,9.700000000000001,0.5,-3.6000000000000005,-2.7,16
45,999.0,0.1,0.1,0.1,0.6000000000000001,2.0,9.700000000000001,0.1,-4.800000000000001,-2.3,16
46,1013.0,0.1,0.0,0.0,0.6000000000000001,1.9000000000000001,9.600000000000001,-0.2,-6.1000000000000005,-1.9,16
47,1030.0,0.1,0.0,-0.1,0.6000000000000001,1.9000000000000001,9.5,-1.4,-6.9,-2.9,16
48,1046.0,-0.1,0.0,0.0,0.5,1.9000000000000001,9.5,-1.4,-4.4,-2.9,16
49,1063.0,-0.1,0.1,0.0,0.4,1.9000000000000001,9.600000000000001,-0.5,-3.0,-2.4000000000000004,16
50,1080.0,-0.2,0.1,-0.1,0.4,1.9000000000000001,9.5,0.9000000000000001,-2.0,-1.4,16
51,1096.0,-0.1,0.1,-0.2,0.4,1.9000000000000001,9.4,-0.9000000000000001,-4.2,-1.1,16
52,1113.0,-0.1,0.1,-0.2,0.4,2.0,9.4,-2.3,-5.0,-1.3,16
53,1130.0,-0.1,0.0,0.0,0.5,1.9000000000000001,9.600000000000001,-4.300000000000001,-5.500000000000001,-0.6000000000000001,16
54,1147.0,0.0,0.1,0.0,0.6000000000000001,1.9000000000000001,9.600000000000001,-2.7,-4.2,-0.6000000000000001,16
55,1163.0,0.0,0.1,-0.1,0.6000000000000001,2.0,9.5,-2.1,-3.3000000000000007,-0.2,16
56,1180.0,0.1,0.1,0.0,0.7000000000000001,1.9000000000000001,9.5,-2.5,-2.9,0.5,16
57,1197.0,0.0,0.0,0.1,0.7000000000000001,1.8,9.700000000000001,-3.1,-3.1,-0.5,16
58,1226.0,0.0,0.0,0.2,0.7000000000000001,1.8,9.8,-0.6000000000000001,-2.9,-1.1,16
59,1230.0,0.1,0.0,0.1,0.7000000000000001,1.9000000000000001,9.700000000000001,0.9000000000000001,-1.7,-1.3,16
60,1247.0,0.0,0.2,-0.1,0.6000000000000001,2.0,9.5,1.5,-0.2,-1.4,16
61,1263.0,0.0,0.2,-0.1,0.6000000000000001,2.0,9.5,0.6000000000000001,-0.2,-1.3,16
62,1282.0,-0.2,0.1,0.2,0.4,1.9000000000000001,9.8,-0.9000000000000001,-1.0,-0.9000000000000001,16
63,1296.0,-0.1,0.0,0.1,0.6000000000000001,1.9000000000000001,9.700000000000001,3.0,-3.4,-0.30000000000000004,16
64,1313.0,0.0,0.1,-0.1,0.6000000000000001,2.0,9.5,4.9,-1.6,0.2,16
65,1330.0,0.1,0.1,-0.4,0.7000000000000001,2.0,9.200000000000001,4.2,2.1,1.1,16
66,1346.0,-0.1,0.1,-0.30000000000000004,0.6000000000000001,2.0,9.3,0.8,3.3000000000000007,0.1,16
67,1363.0,-0.1,0.0,-0.2,0.5,1.9000000000000001,9.3,-0.5,2.2,0.1,16
68,1380.0,-0.1,0.0,-0.2,0.5,1.9000000000000001,9.4,-0.8,-1.0,0.9000000000000001,16
69,1396.0,0.1,0.0,-0.5,0.8,1.9000000000000001,9.1,-1.1,-1.7,2.3,16
70,1413.0,0.30000000000000004,0.0,-0.6000000000000001,0.9,1.9000000000000001,9.0,-2.9,-0.8,2.8,16
71,1430.0,0.30000000000000004,-0.1,-0.30000000000000004,0.9,1.8,9.200000000000001,-7.0,1.5,2.5,16
72,1446.0,0.30000000000000004,-0.2,0.1,0.9,1.7000000000000002,9.700000000000001,-5.6,2.6,1.4,16
73,1463.0,0.30000000000000004,-0.2,0.2,0.9,1.6,9.700000000000001,-2.5,3.4,0.7,16
74,1480.0,0.30000000000000004,-0.1,0.0,0.9,1.7000000000000002,9.600000000000001,2.4000000000000004,4.9,-0.30000000000000004,16
75,1496.0,0.30000000000000004,-0.1,-0.1,0.9,1.8,9.5,1.5,6.600000000000001,-1.9,16
76,1513.0,0.2,-0.1,-0.1,0.7000000000000001,1.9000000000000001,9.600000000000001,0.2,5.500000000000001,-2.9,16
77,1530.0,0.0,0.1,0.1,0.6000000000000001,1.9000000000000001,9.700000000000001,-3.0,4.800000000000001,-3.4,16
78,1546.0,0.0,0.0,0.2,0.6000000000000001,1.7000000000000002,10.0,-4.7,2.4000000000000004,-2.1,16
79,1563.0,0.0,-0.1,0.5,0.5,1.7000000000000002,10.100000000000001,-3.6000000000000005,0.7,-2.4000000000000004,16
80,1580.0,0.0,-0.1,0.4,0.6000000000000001,1.7000000000000002,10.0,0.2,-1.7,-2.6,16
81,1596.0,-0.1,-0.1,0.1,0.5,1.7000000000000002,9.700000000000001,0.9000000000000001,-0.5,-3.0,16
82,1613.0,-0.2,-0.2,0.1,0.2,1.6,9.8,0.0,0.30000000000000004,-3.4,16
83,1630.0,-0.5,-0.2,0.30000000000000004,0.0,1.6,9.9,1.1,2.2,-5.2,16
84,1646.0,-0.8,-0.1,0.0,-0.2,1.7000000000000002,9.700000000000001,5.1000000000000005,2.9,-5.4,16
85,1663.0,-0.9,0.0,-0.2,-0.4,1.9000000000000001,9.4,6.8,6.4,-4.4,16
86,1680.0,-0.9,0.1,-0.2,-0.4,2.0,9.4,6.8,7.1000000000000005,-3.3000000000000007,16
87,1696.0,-0.9,0.30000000000000004,-0.30000000000000004,-0.4,2.2,9.3,5.8,8.899999999999999,0.8,16
88,1713.0,-0.5,0.4,-0.5,-0.1,2.3000000000000003,9.1,0.0,5.0,6.1000000000000005,16
89,1730.0,-0.30000000000000004,0.30000000000000004,-0.4,0.1,2.2,9.1,-3.9,2.0,8.100000000000001,16
90,1746.0,0.1,0.1,-0.2,0.5,2.0,9.4,-11.1,-3.1,11.2,16
91,1763.0,0.4,-0.1,0.0,0.9,1.8,9.600000000000001,-12.8,-6.1000000000000005,12.9,16
92,1780.0,0.6000000000000001,-0.1,0.0,1.1,1.7000000000000002,9.600000000000001,-12.200000000000001,-5.300000000000001,12.5,16
93,1796.0,0.7000000000000001,-0.2,0.0,1.2000000000000002,1.6,9.600000000000001,-10.299999999999999,-1.4,9.899999999999999,16
94,1813.0,0.7000000000000001,-0.30000000000000004,0.2,1.2000000000000002,1.5,9.8,-7.699999999999999,1.7,6.2,16
95,1830.0,0.6000000000000001,-0.30000000000000004,0.30000000000000004,1.1,1.4000000000000001,10.0,-6.2,3.1,3.9,16
96,1846.0,0.30000000000000004,-0.30000000000000004,0.6000000000000001,0.8,1.4000000000000001,10.200000000000001,-2.6,4.9,-1.4,16
97,1863.0,0.0,-0.2,0.6000000000000001,0.5,1.5,10.3,4.300000000000001,3.2,-5.0,16
98,1880.0,0.0,-0.1,0.5,0.5,1.6,10.100000000000001,7.400000000000001,2.4000000000000004,-5.6,16
99,1896.0,0.0,0.1,0.0,0.5,1.8,9.600000000000001,8.700000000000001,0.6000000000000001,-5.2,16
100,1913.0,0.1,0.1,-0.30000000000000004,0.6000000000000001,1.9000000000000001,9.3,3.2,-2.4000000000000004,-3.3000000000000007,16
101,1930.0,0.2,0.1,-0.2,0.7000000000000001,1.9000000000000001,9.4,0.0,-4.800000000000001,-2.4000000000000004,16
102,1946.0,0.2,0.0,-0.1,0.7000000000000001,1.8,9.5,-3.0,-6.9,-0.7,16
103,1969.0,0.30000000000000004,-0.1,-0.1,0.8,1.7000000000000002,9.600000000000001,-0.9000000000000001,-7.200000000000001,2.2,16
104,1980.0,0.30000000000000004,-0.1,-0.2,0.9,1.7000000000000002,9.4,-0.1,-6.0,2.8,16
105,1996.0,0.2,-0.1,-0.4,0.8,1.6,9.200000000000001,-2.6,-4.6,2.3,16
106,2013.0,0.1,-0.30000000000000004,-0.2,0.7000000000000001,1.4000000000000001,9.5,-6.4,-5.0,1.0,16
107,2032.0,0.0,-0.4,0.0,0.6000000000000001,1.3,9.600000000000001,-5.0,-4.9,-1.8000000000000003,16
108,2046.0,0.1,-0.30000000000000004,-0.1,0.7000000000000001,1.4000000000000001,9.5,-3.1,-3.9,-3.8,16
109,2064.0,0.0,-0.1,-0.30000000000000004,0.6000000000000001,1.6,9.3,-1.5,1.7,-7.1000000000000005,16
110,2080.0,-0.1,0.0,-0.2,0.5,1.7000000000000002,9.4,-1.9,4.2,-7.9,16
111,2097.0,-0.1,0.1,0.0,0.4,1.8,9.600000000000001,-2.1,5.0,-8.4,16
112,2113.0,-0.1,0.2,0.1,0.4,1.9000000000000001,9.700000000000001,-1.7,3.7000000000000006,-8.0,16
113,2130.0,-0.1,0.2,0.1,0.5,1.9000000000000001,9.700000000000001,-1.5,2.2,-7.1000000000000005,16
114,2146.0,0.2,0.2,0.0,0.7000000000000001,1.9000000000000001,9.600000000000001,-2.6,0.9000000000000001,-5.0,16
115,2163.0,0.30000000000000004,0.1,0.0,0.9,1.8,9.600000000000001,-5.2,0.2,-4.5,16
116,2181.0,0.4,0.1,0.1,0.9,1.6,9.8,-6.2,-0.2,-4.7,16
117,2196.0,0.4,-0.1,0.2,0.9,1.5,9.9,-6.4,-0.6000000000000001,-5.0,16
118,2214.0,0.2,-0.2,0.5,0.8,1.4000000000000001,10.100000000000001,-3.9,0.2,-6.0,16
119,2231.0,0.2,-0.30000000000000004,0.5,0.7000000000000001,1.3,10.100000000000001,-1.9,0.2,-6.300000000000001,16
120,2249.0,0.2,-0.30000000000000004,0.4,0.7000000000000001,1.3,10.100000000000001,2.4000000000000004,-1.2000000000000002,-8.3,16
121,2264.0,0.1,-0.1,0.1,0.6000000000000001,1.5,9.8,3.9,-3.2,-10.5,16
122,2280.0,0.1,0.0,0.0,0.7000000000000001,1.6,9.700000000000001,3.4,-4.7,-10.9,16
123,2296.0,0.30000000000000004,0.1,-0.2,0.8,1.7000000000000002,9.4,1.3,-5.6,-11.3,16
124,2313.0,0.30000000000000004,0.1,-0.2,0.9,1.7000000000000002,9.4,-2.2,-3.1,-11.5,16
125,2330.0,0.30000000000000004,0.0,-0.1,0.9,1.6,9.5,-3.4,-2.3,-11.900000000000002,16
126,2346.0,0.30000000000000004,0.0,0.1,0.9,1.6,9.8,-2.5,-1.8000000000000003,-13.399999999999999,16
127,2363.0,0.2,0.1,0.1,0.7000000000000001,1.7000000000000002,9.8,0.8,-0.1,-13.8,16
128,2381.0,0.1,0.1,0.1,0.7000000000000001,1.7000000000000002,9.8,3.1,0.1,-13.000000000000002,16
129,2397.0,0.1,0.1,0.0,0.7000000000000001,1.7000000000000002,9.700000000000001,3.1,-0.5,-12.9,16
130,2413.0,0.0,0.0,0.0,0.6000000000000001,1.6,9.600000000000001,0.8,-2.2,-13.399999999999999,16
131,2430.0,0.0,-0.1,0.1,0.5,1.6,9.700000000000001,-0.1,-3.8,-13.8,16
132,2447.0,-0.1,-0.1,0.0,0.5,1.6,9.700000000000001,0.4,-3.4,-13.8,16
133,2463.0,-0.2,-0.1,0.1,0.30000000000000004,1.5,9.700000000000001,1.4,-2.1,-12.299999999999999,16
134,2481.0,-0.30000000000000004,-0.2,-0.1,0.30000000000000004,1.5,9.600000000000001,2.6,-4.2,-11.2,16
135,2496.0,-0.30000000000000004,-0.2,-0.1,0.30000000000000004,1.5,9.5,3.0,-4.7,-11.000000000000002,16
136,2513.0,-0.1,-0.1,-0.4,0.5,1.6,9.200000000000001,2.0,-4.4,-11.3,16
137,2530.0,-0.1,-0.1,-0.4,0.4,1.7000000000000002,9.3,0.9000000000000001,-3.4,-12.0,16
138,2546.0,-0.2,0.0,-0.2,0.30000000000000004,1.7000000000000002,9.4,-1.5,0.30000000000000004,-12.0,16
139,2563.0,-0.30000000000000004,0.0,-0.1,0.1,1.7000000000000002,9.600000000000001,-1.1,1.6,-11.5,16
140,2580.0,-0.6000000000000001,0.1,0.1,-0.1,1.8,9.8,2.0,1.1,-9.700000000000001,16
141,2597.0,-0.6000000000000001,0.1,0.1,-0.1,1.8,9.700000000000001,3.5,1.1,-8.5,16
142,2613.0,-0.4,0.2,-0.1,0.1,1.9000000000000001,9.5,2.7,-0.4,-6.300000000000001,16
143,2630.0,-0.2,0.2,-0.30000000000000004,0.30000000000000004,1.9000000000000001,9.4,-1.1,-2.7,-5.0,16
144,2646.0,-0.2,0.1,-0.30000000000000004,0.30000000000000004,1.8,9.4,-2.9,-2.5,-4.7,16
145,2664.0,-0.2,0.1,-0.1,0.30000000000000004,1.8,9.5,-4.0,0.2,-4.300000000000001,16
146,2680.0,-0.30000000000000004,0.1,0.2,0.2,1.8,9.8,-1.9,3.1,-2.5,16
147,2696.0,-0.30000000000000004,0.0,0.2,0.2,1.7000000000000002,9.8,0.2,2.8,-1.7,16
148,2713.0,0.0,0.1,-0.1,0.5,1.8,9.600000000000001,1.4,1.9,-1.9,16
149,2730.0,0.1,0.1,-0.2,0.6000000000000001,1.8,9.4,-1.2000000000000002,3.8,-3.1,16
150,2746.0,0.0,0.1,-0.1,0.5,1.8,9.5,-1.9,4.4,-3.6000000000000005,16
151,2763.0,-0.1,0.1,0.0,0.30000000000000004,1.8,9.700000000000001,-1.9,7.200000000000001,-3.2,16
152,2781.0,-0.2,0.1,0.30000000000000004,0.2,1.8,9.9,0.0,8.5,-2.2,16
153,2796.0,-0.30000000000000004,0.1,0.30000000000000004,0.1,1.8,9.9,1.7,8.2,-2.0,16
154,2813.0,-0.2,0.2,0.0,0.1,2.0,9.600000000000001,4.300000000000001,5.300000000000001,-0.5,16
155,2830.0,-0.1,0.2,-0.4,0.30000000000000004,1.9000000000000001,9.200000000000001,1.7,4.7,0.9000000000000001,16
156,2846.0,0.0,0.2,-0.4,0.30000000000000004,1.9000000000000001,9.200000000000001,-1.3,4.7,1.2000000000000002,16
157,2864.0,0.0,0.0,-0.1,0.4,1.7000000000000002,9.5,-4.7,3.7000000000000006,1.0,16
158,2880.0,0.0,0.0,0.0,0.4,1.7000000000000002,9.600000000000001,-2.5,5.6,0.5,16
159,2897.0,0.0,0.0,0.0,0.4,1.7000000000000002,9.600000000000001,-0.6000000000000001,6.8,0.4,16
160,2913.0,0.0,0.1,-0.2,0.30000000000000004,1.8,9.5,2.2,10.200000000000001,0.30000000000000004,16
161,2930.0,-0.1,0.1,-0.2,0.2,1.8,9.5,0.9000000000000001,10.1,-0.30000000000000004,16
162,2946.0,-0.1,0.2,-0.1,0.1,1.9000000000000001,9.5,-0.4,8.899999999999999,-0.5,16
163,2963.0,-0.1,0.2,0.1,0.1,1.9000000000000001,9.700000000000001,-2.6,5.8,0.30000000000000004,16
164,2980.0,0.0,0.2,0.1,0.2,1.9000000000000001,9.8,-1.9,4.4,2.0,16
165,2998.0,0.0,0.2,0.1,0.30000000000000004,1.9000000000000001,9.700000000000001,-0.30000000000000004,5.2,2.6,16
166,3013.0,0.1,0.2,0.0,0.30000000000000004,1.9000000000000001,9.600000000000001,-0.7,5.2,2.8,16
167,3030.0,0.2,0.2,0.0,0.4,1.9000000000000001,9.600000000000001,-3.0,4.300000000000001,3.1,16
168,3047.0,0.2,0.1,0.0,0.4,1.7000000000000002,9.700000000000001,-4.4,3.2,3.1,16
169,3063.0,0.2,-0.1,0.2,0.4,1.6,9.8,-3.9,2.6,2.6,16
170,3080.0,0.2,-0.1,0.2,0.4,1.5,9.9,-1.2000000000000002,2.7,1.5,16
171,3096.0,0.2,-0.1,0.2,0.30000000000000004,1.6,9.8,0.2,3.4,0.8,16
172,3113.0,0.1,-0.1,0.1,0.2,1.6,9.700000000000001,2.6,3.1,0.0,16
173,3130.0,0.0,0.0,0.0,0.2,1.7000000000000002,9.700000000000001,3.0,1.6,0.0,16
174,3146.0,0.0,0.0,0.0,0.2,1.7000000000000002,9.600000000000001,2.8,0.6000000000000001,-0.4,16
175,3163.0,-0.1,0.1,-0.1,0.0,1.8,9.5,2.6,1.7,-1.1,16
176,3180.0,-0.2,0.1,-0.1,-0.1,1.8,9.5,2.1,2.2,0.0,16
177,3197.0,-0.30000000000000004,0.1,-0.2,-0.2,1.8,9.5,1.8000000000000003,1.7,0.9000000000000001,16
178,3213.0,-0.30000000000000004,0.1,-0.2,-0.2,1.9000000000000001,9.4,1.3,1.6,1.4,16
179,3230.0,-0.30000000000000004,0.2,-0.1,-0.2,1.9000000000000001,9.5,-0.30000000000000004,1.4,2.3,16
180,3246.0,-0.30000000000000004,0.2,-0.1,-0.2,1.9000000000000001,9.600000000000001,-0.4,2.1,3.4,16
181,3263.0,-0.30000000000000004,0.2,0.0,-0.2,1.9000000000000001,9.600000000000001,0.0,2.8,4.2,16
182,3280.0,-0.2,0.2,0.0,-0.1,1.9000000000000001,9.600000000000001,0.1,3.2,5.1000000000000005,16
183,3297.0,-0.1,0.2,0.1,-0.1,2.0,9.700000000000001,-2.4000000000000004,4.2,5.6,16
184,3313.0,-0.2,0.2,0.2,-0.1,1.9000000000000001,9.9,-4.0,3.9,6.1000000000000005,16
185,3331.0,-0.2,0.0,0.6000000000000001,-0.1,1.7000000000000002,10.3,-3.3000000000000007,1.4,7.0,16
186,3346.0,-0.1,-0.1,0.5,0.0,1.7000000000000002,10.100000000000001,2.1,-1.0,7.0,16
187,3363.0,0.0,-0.1,0.2,0.0,1.7000000000000002,9.9,3.8,-1.9,6.9,16
188,3380.0,0.2,-0.1,0.0,0.2,1.6,9.600000000000001,3.7000000000000006,-3.0,6.500000000000001,16
189,3396.0,0.30000000000000004,-0.2,-0.2,0.4,1.6,9.4,2.0,-2.9,5.300000000000001,16
190,3418.0,0.4,-0.2,-0.1,0.5,1.5,9.5,0.9000000000000001,-2.3,4.2,16
191,3430.0,0.4,-0.2,-0.1,0.5,1.5,9.600000000000001,1.3,-2.0,3.8,16
192,3447.0,0.4,-0.2,0.0,0.5,1.6,9.600000000000001,2.7,0.2,3.3000000000000007,16
193,3463.0,0.4,-0.2,0.0,0.5,1.5,9.600000000000001,2.2,1.1,2.8,16
194,3480.0,0.2,-0.30000000000000004,0.2,0.30000000000000004,1.5,9.8,1.3,0.8,0.1,16
195,3496.0,-0.1,-0.2,0.30000000000000004,0.0,1.6,10.0,2.5,1.5,-1.3,16
196,3513.0,-0.2,-0.2,0.4,-0.1,1.6,10.0,3.2,2.2,-1.3,16
197,3530.0,-0.30000000000000004,-0.2,0.4,-0.2,1.6,10.100000000000001,5.6,0.4,-2.2,16
198,3546.0,-0.30000000000000004,-0.1,0.1,-0.2,1.7000000000000002,9.8,7.400000000000001,0.2,-3.6000000000000005,16
199,3563.0,-0.30000000000000004,0.0,0.0,-0.2,1.8,9.700000000000001,7.8,0.2,-4.0,16
200,3580.0,-0.30000000000000004,0.0,-0.2,-0.2,1.8,9.5,7.699999999999999,-0.5,-3.5,16
201,3596.0,-0.2,0.0,-0.4,-0.1,1.9000000000000001,9.200000000000001,7.699999999999999,-1.1,-3.2,16
202,3613.0,-0.1,0.1,-0.5,0.0,2.0,9.1,6.8,-0.30000000000000004,-2.8,16
203,3630.0,0.0,0.0,-0.5,0.1,2.0,9.1,4.800000000000001,1.1,-1.6,16
204,3646.0,0.1,0.1,-0.4,0.1,2.0,9.200000000000001,4.5,5.0,-1.2000000000000002,16
205,3665.0,-0.1,0.2,-0.4,-0.1,2.2,9.200000000000001,2.6,5.300000000000001,0.2,16
206,3680.0,-0.1,0.30000000000000004,-0.30000000000000004,0.0,2.2,9.3,0.9000000000000001,4.1,1.1,16
207,3696.0,-0.1,0.2,-0.1,0.0,2.2,9.5,-0.9000000000000001,3.1,2.4000000000000004,16
208,3716.0,0.0,0.2,-0.1,0.0,2.2,9.5,-2.2,3.9,3.0,16
209,3730.0,0.0,0.2,-0.1,0.0,2.1,9.5,-2.9,4.4,3.0,16
210,3746.0,0.0,0.2,0.2,0.0,2.1,9.8,-3.4,5.6,2.4000000000000004,16
211,3763.0,-0.1,0.2,0.30000000000000004,-0.1,2.1,9.9,-3.0,6.0,2.4000000000000004,16
212,3780.0,-0.1,0.1,0.4,-0.2,2.0,10.0,-0.4,4.5,2.9,16
213,3797.0,-0.1,0.1,0.4,-0.1,2.0,10.0,0.7,1.9,3.6000000000000005,16
214,3817.0,0.1,0.0,0.30000000000000004,0.0,2.0,9.9,0.5,-0.30000000000000004,4.1,16
215,3830.0,0.1,0.0,0.2,0.1,1.9000000000000001,9.8,0.0,-0.8,3.8,16
216,3846.0,0.1,-0.1,0.2,0.1,1.9000000000000001,9.9,-0.1,-0.6000000000000001,3.1,16
217,3863.0,0.1,-0.1,0.2,0.1,1.8,9.8,1.0,-0.5,3.1,16
218,3880.0,0.1,-0.1,0.0,0.1,1.8,9.600000000000001,3.7000000000000006,-1.0,3.6000000000000005,16
219,3896.0,0.2,-0.2,-0.2,0.2,1.8,9.4,3.2,-3.5,4.0,16
220,3913.0,0.30000000000000004,-0.2,-0.4,0.4,1.7000000000000002,9.1,1.9,-4.0,3.4,16
221,3930.0,0.4,-0.30000000000000004,-0.5,0.4,1.7000000000000002,9.1,-1.7,-3.3000000000000007,1.4,16
222,3946.0,0.30000000000000004,-0.4,-0.30000000000000004,0.4,1.6,9.3,-2.3,-0.7,-1.0,16
223,3963.0,0.30000000000000004,-0.30000000000000004,-0.30000000000000004,0.2,1.7000000000000002,9.200000000000001,-1.2000000000000002,0.30000000000000004,-1.8000000000000003,16
224,3980.0,0.1,-0.30000000000000004,-0.4,0.2,1.7000000000000002,9.200000000000001,-0.5,2.7,-2.1,16
225,3996.0,0.1,-0.2,-0.2,0.1,1.7000000000000002,9.4,-2.2,2.7,-3.3000000000000007,16
226,4015.0,0.0,-0.2,0.0,0.0,1.7000000000000002,9.600000000000001,-2.5,3.1,-5.0,16
227,4031.0,0.0,-0.1,0.1,-0.1,1.8,9.700000000000001,-2.0,3.6000000000000005,-5.4,16
228,4046.0,-0.1,0.0,0.2,-0.1,1.9000000000000001,9.8,-1.6,3.1,-5.2,16
229,4063.0,-0.1,0.1,0.30000000000000004,-0.1,2.0,9.9,-1.7,2.0,-4.9,16
230,4081.0,-0.1,0.2,0.30000000000000004,-0.1,2.1,9.9,-1.8000000000000003,1.2000000000000002,-4.6,16
231,4096.0,0.0,0.2,0.4,0.0,2.1,10.0,-1.5,-0.2,-3.7000000000000006,16
232,4113.0,0.0,0.30000000000000004,0.30000000000000004,0.0,2.1,10.0,0.2,-1.7,-2.9,16
233,4130.0,0.0,0.30000000000000004,0.2,0.0,2.2,9.8,1.1,-1.1,-2.2,16
234,4146.0,0.0,0.30000000000000004,0.0,0.0,2.2,9.600000000000001,0.30000000000000004,-1.7,-1.0,16
235,4163.0,-0.1,0.1,0.1,-0.1,2.0,9.700000000000001,-1.5,-3.0,-0.8,16
236,4180.0,-0.1,0.1,0.1,-0.1,2.0,9.700000000000001,-1.9,-4.0,-0.7,16
237,4197.0,0.0,-0.1,0.0,0.0,1.8,9.700000000000001,-0.8,-5.500000000000001,-0.30000000000000004,16
238,4225.0,0.2,-0.1,-0.30000000000000004,0.2,1.8,9.4,1.0,-1.8000000000000003,-0.8,16
239,4230.0,0.2,-0.1,-0.30000000000000004,0.2,1.8,9.4,1.0,-1.8000000000000003,-0.8,16
240,4246.0,0.2,-0.1,-0.30000000000000004,0.1,1.8,9.4,-0.4,1.7,-1.6,16
241,4263.0,-0.1,-0.2,0.2,-0.1,1.6,9.8,-1.9,1.7,-2.4000000000000004,16
242,4279.0,-0.1,-0.30000000000000004,0.4,-0.1,1.6,10.0,-1.1,0.1,-3.0,16
243,4296.0,-0.1,-0.2,0.30000000000000004,-0.1,1.7000000000000002,9.9,2.8,-2.4000000000000004,-3.4,16
244,4316.0,-0.1,0.0,-0.1,-0.1,1.8,9.600000000000001,3.3000000000000007,-2.7,-2.7,16
245,4330.0,-0.1,0.0,-0.1,-0.1,1.9000000000000001,9.5,2.4000000000000004,-2.8,-2.1,16
246,4347.0,0.0,-0.1,-0.1,0.0,1.8,9.5,1.9,-3.8,-1.8000000000000003,16
247,4364.0,0.0,0.0,-0.2,0.0,1.9000000000000001,9.4,1.7,-3.1,-2.1,16
248,4380.0,0.0,0.0,-0.2,0.1,1.9000000000000001,9.4,1.3,-2.7,-1.9,16
249,4396.0,0.0,0.0,-0.2,0.1,1.9000000000000001,9.4,1.3,0.0,-1.5,16
250,4419.0,-0.1,0.0,-0.1,-0.1,1.9000000000000001,9.600000000000001,1.2000000000000002,1.2000000000000002,-2.2,16
251,4430.0,-0.2,0.1,-0.1,-0.1,2.0,9.600000000000001,1.3,0.30000000000000004,-2.2,16
252,4446.0,-0.2,0.1,0.0,-0.2,2.0,9.600000000000001,0.4,-0.6000000000000001,-0.7,16
253,4463.0,0.0,0.0,0.1,0.0,1.9000000000000001,9.700000000000001,-0.5,-2.5,0.0,16
254,4480.0,0.1,0.0,0.0,0.1,2.0,9.600000000000001,-0.5,-2.7,-0.7,16
255,4496.0,0.1,0.0,0.1,0.1,2.0,9.700000000000001,-0.5,-2.3,-1.1,16
256,4515.0,0.1,0.0,0.0,0.1,1.9000000000000001,9.600000000000001,0.8,-1.5,-1.0,16
257,4530.0,0.1,-0.1,0.0,0.2,1.9000000000000001,9.600000000000001,1.6,-1.1,-0.8,16
258,4546.0,0.1,-0.1,-0.1,0.2,1.8,9.5,1.6,-0.30000000000000004,-0.8,16
259,4563.0,0.1,-0.1,-0.1,0.1,1.9000000000000001,9.5,0.6000000000000001,-0.8,-2.1,16
260,4580.0,0.0,0.0,-0.1,0.0,2.0,9.5,0.1,-0.6000000000000001,-2.6,16
261,4597.0,0.0,0.1,-0.1,0.0,2.0,9.5,-0.30000000000000004,0.0,-1.9,16
262,4618.0,0.0,0.0,0.0,0.0,2.0,9.600000000000001,-1.4,0.4,-0.7,16
263,4630.0,0.0,0.0,0.1,0.1,1.9000000000000001,9.8,-1.7,0.1,-0.5,16
264,4647.0,0.0,0.0,0.2,0.1,1.9000000000000001,9.8,-0.30000000000000004,-1.0,-1.7,16
265,4663.0,0.1,0.0,0.1,0.2,1.9000000000000001,9.700000000000001,1.4,-1.5,-2.4000000000000004,16
266,4680.0,0.1,0.0,0.0,0.2,2.0,9.600000000000001,1.9,-1.3,-2.7,16
267,4698.0,0.1,0.1,0.0,0.1,2.1,9.600000000000001,1.9,-0.7,-3.3000000000000007,16
268,4718.0,0.0,0.1,0.0,0.1,2.0,9.600000000000001,0.6000000000000001,-0.5,-3.0,16
269,4730.0,0.0,0.1,0.1,0.1,2.0,9.700000000000001,0.0,-1.0,-2.9,16
270,4746.0,0.0,0.0,0.1,0.1,1.9000000000000001,9.700000000000001,0.30000000000000004,-2.5,-2.3,16
271,4763.0,0.0,-0.1,-0.1,0.1,1.9000000000000001,9.600000000000001,0.5,-2.0,-2.7,16
272,4780.0,0.0,-0.1,0.0,0.1,1.8,9.600000000000001,0.4,-2.0,-3.0,16
273,4797.0,0.0,-0.1,0.0,0.1,1.9000000000000001,9.600000000000001,1.1,-1.7,-3.5,16
274,4816.0,0.0,-0.1,-0.2,0.1,1.9000000000000001,9.4,1.7,-0.6000000000000001,-3.6000000000000005,16
275,4830.0,0.1,-0.1,-0.2,0.2,1.9000000000000001,9.5,0.1,-0.6000000000000001,-4.5,16
276,4846.0,0.0,0.0,-0.1,0.1,1.9000000000000001,9.5,-0.2,-0.4,-4.9,16
277,4863.0,-0.2,0.0,0.1,-0.1,2.0,9.700000000000001,0.0,1.1,-5.2,16
278,4880.0,-0.2,0.1,0.2,-0.1,2.0,9.8,0.9000000000000001,-0.6000000000000001,-4.1,16
279,4896.0,-0.2,0.1,0.1,-0.1,2.1,9.700000000000001,1.7,-1.6,-3.5,16
280,4917.0,-0.1,0.1,-0.1,0.0,2.0,9.5,1.3,-3.0,-2.7,16
281,4930.0,0.0,0.0,-0.1,0.1,1.9000000000000001,9.5,-0.9000000000000001,-2.8,-2.7,16
282,4946.0,0.0,-0.1,-0.1,0.1,1.9000000000000001,9.5,-1.0,-1.9,-3.2,16
283,4963.0,-0.1,-0.1,0.0,0.0,1.9000000000000001,9.600000000000001,0.8,0.5,-3.5,16
284,4980.0,-0.1,0.0,-0.1,-0.1,1.9000000000000001,9.5,2.3,2.1,-2.6,16
285,4996.0,-0.1,0.0,-0.1,-0.1,1.9000000000000001,9.5,1.7,2.1,-2.3,16
286,5015.0,-0.1,0.0,-0.1,-0.1,1.9000000000000001,9.5,-1.4,-0.7,-2.5,16
287,5030.0,-0.1,0.0,0.0,-0.1,2.0,9.600000000000001,-2.3,-1.4,-2.1,16
288,5046.0,-0.1,0.0,0.1,0.0,2.0,9.700000000000001,-1.7,-0.7,-1.3,16
289,5063.0,-0.1,0.1,0.1,0.0,2.0,9.700000000000001,0.8,1.4,0.6000000000000001,16
290,5080.0,0.1,0.0,0.0,0.1,2.0,9.5,1.3,1.5,0.2,16
291,5096.0,0.0,0.1,-0.1,0.1,2.0,9.5,0.5,0.9000000000000001,-0.8,16
292,5117.0,-0.1,0.1,0.1,0.0,2.1,9.700000000000001,-1.5,0.4,-0.6000000000000001,16
293,5132.0,0.0,0.0,0.2,0.0,2.0,9.8,0.2,0.5,1.1,16
294,5147.0,0.0,0.0,0.2,0.1,2.0,9.8,2.0,0.8,1.5,16
295,5163.0,0.1,0.0,-0.1,0.1,2.0,9.5,3.3000000000000007,1.6,1.3,16
296,5181.0,0.0,0.1,-0.1,0.0,2.1,9.5,0.8,0.9000000000000001,0.6000000000000001,16
297,5196.0,0.0,0.1,-0.1,0.0,2.1,9.5,-0.6000000000000001,0.6000000000000001,0.7,16
298,5217.0,0.0,0.0,0.0,0.0,1.9000000000000001,9.700000000000001,-1.4,0.1,2.1,16
299,5230.0,0.1,-0.1,0.1,0.1,1.9000000000000001,9.700000000000001,-0.5,0.4,2.7,16
300,5246.0,0.1,-0.1,0.0,0.1,1.9000000000000001,9.600000000000001,0.2,0.5,2.2,16
301,5263.0,0.1,-0.1,0.0,0.1,1.9000000000000001,9.600000000000001,0.8,0.9000000000000001,1.4,16
302,5281.0,0.1,0.0,0.0,0.1,1.9000000000000001,9.600000000000001,0.30000000000000004,0.4,1.4,16
303,5297.0,0.1,-0.1,0.0,0.2,1.9000000000000001,9.600000000000001,0.1,0.1,1.4,16
304,5317.0,0.1,-0.1,0.0,0.2,1.9000000000000001,9.600000000000001,0.30000000000000004,0.0,0.8,16
305,5330.0,0.1,0.0,0.0,0.2,2.0,9.600000000000001,1.4,1.1,-0.2,16
306,5347.0,0.1,0.0,0.0,0.1,2.1,9.600000000000001,1.6,2.5,-0.2,16
307,5364.0,0.0,0.1,0.0,0.1,2.1,9.600000000000001,1.3,2.7,0.1,16
308,5380.0,0.0,0.1,0.0,0.0,2.1,9.600000000000001,-0.2,1.3,1.1,16
309,5396.0,0.0,0.1,0.1,0.0,2.0,9.700000000000001,0.0,0.1,1.2000000000000002,16
310,5415.0,0.0,0.0,0.0,0.0,2.0,9.700000000000001,0.6000000000000001,-0.30000000000000004,1.2000000000000002,16
311,5430.0,0.0,0.0,-0.1,0.1,2.0,9.5,1.2000000000000002,-0.6000000000000001,1.7,16
312,5447.0,0.1,0.0,-0.2,0.2,2.1,9.4,0.1,1.0,1.7,16
313,5463.0,0.1,0.0,-0.1,0.2,2.0,9.5,-1.0,1.6,1.4,16
314,5480.0,0.0,0.0,0.1,0.1,2.0,9.700000000000001,-1.7,1.4,0.9000000000000001,16
315,5496.0,0.0,0.0,0.1,0.0,2.0,9.700000000000001,-1.1,1.8000000000000003,0.9000000000000001,16
316,5520.0,0.0,0.0,0.1,0.0,2.0,9.700000000000001,0.0,0.9000000000000001,1.6,16
317,5531.0,0.0,0.0,0.1,0.0,2.0,9.700000000000001,0.5,0.9000000000000001,1.6,16
318,5546.0,0.0,0.0,0.1,0.0,2.0,9.600000000000001,0.5,0.8,1.5,16
319,5563.0,0.0,0.0,0.1,0.0,2.0,9.700000000000001,0.8,-0.5,1.5,16
320,5580.0,0.0,0.0,0.0,0.0,2.0,9.600000000000001,1.1,-0.2,2.0,16
321,5597.0,0.0,0.0,-0.1,0.1,2.0,9.5,0.2,-0.5,2.5,16
322,5618.0,0.1,0.0,-0.1,0.1,2.0,9.5,-0.7,-1.6,2.1,16
323,5630.0,0.1,-0.1,-0.1,0.1,2.0,9.5,-0.8,-1.1,2.1,16
324,5646.0,0.1,0.0,0.0,0.1,2.0,9.600000000000001,-0.5,0.2,1.7,16
325,5670.0,0.0,0.0,0.1,0.0,2.0,9.700000000000001,0.2,0.9000000000000001,1.1,16
326,5680.0,0.0,0.0,0.1,0.0,2.0,9.700000000000001,0.9000000000000001,0.9000000000000001,1.2000000000000002,16
327,5696.0,0.0,0.0,0.1,0.1,2.0,9.600000000000001,1.4,0.8,1.4,16
328,5714.0,0.1,0.0,-0.1,0.1,2.0,9.5,0.30000000000000004,-0.30000000000000004,1.1,16
329,5730.0,0.0,0.0,0.1,0.1,2.0,9.700000000000001,-1.9,0.2,0.4,16
330,5746.0,-0.1,0.0,0.30000000000000004,0.0,2.0,9.9,-0.6000000000000001,0.30000000000000004,0.7,16
331,5763.0,-0.1,0.0,0.30000000000000004,0.0,2.0,9.9,1.3,-0.1,1.1,16
332,5780.0,0.0,0.0,0.0,0.1,2.0,9.600000000000001,3.4,-1.4,2.0,16
333,5797.0,0.1,0.0,-0.2,0.1,2.0,9.4,1.7,-1.7,1.5,16
334,5816.0,0.1,0.0,-0.1,0.1,2.0,9.5,-0.5,-1.1,0.7,16
335,5833.0,0.0,-0.1,0.0,0.1,2.0,9.600000000000001,-0.6000000000000001,-0.30000000000000004,0.5,16
336,5846.0,-0.1,0.0,0.0,0.0,2.0,9.600000000000001,1.2000000000000002,1.1,0.30000000000000004,16
337,5863.0,-0.1,0.0,0.0,-0.1,2.0,9.600000000000001,1.8000000000000003,2.0,0.30000000000000004,16
338,5880.0,-0.2,0.0,0.0,-0.1,2.0,9.600000000000001,1.7,1.6,0.9000000000000001,16
339,5897.0,-0.2,0.1,0.0,-0.1,2.1,9.600000000000001,1.3,-0.1,1.8000000000000003,16
340,5917.0,-0.1,0.1,-0.30000000000000004,0.0,2.1,9.3,0.4,-1.6,2.8,16
341,5930.0,0.0,0.0,-0.30000000000000004,0.0,2.1,9.200000000000001,-0.30000000000000004,-1.3,3.0,16
342,5946.0,0.1,0.0,-0.5,0.1,2.1,9.1,-2.0,-0.5,3.1,16
343,5963.0,0.1,0.0,-0.4,0.2,2.0,9.200000000000001,-2.8,0.7,3.5,16
344,5979.0,0.2,-0.1,-0.30000000000000004,0.30000000000000004,1.9000000000000001,9.3,-3.4,2.0,3.6000000000000005,16
345,5998.0,0.2,-0.1,-0.30000000000000004,0.2,1.9000000000000001,9.3,-2.8,3.3000000000000007,3.1,16
346,6016.0,0.2,0.0,-0.30000000000000004,0.2,2.0,9.3,-3.8,5.0,3.2,16
347,6031.0,0.1,-0.1,-0.2,0.2,1.9000000000000001,9.4,-5.4,5.6,3.1,16
348,6046.0,0.1,-0.1,0.2,0.2,1.9000000000000001,9.700000000000001,-7.400000000000001,2.7,2.7,16
349,6063.0,0.2,-0.1,0.2,0.2,1.9000000000000001,9.8,-6.9,1.1,2.3,16
350,6080.0,0.2,0.0,0.2,0.30000000000000004,1.9000000000000001,9.8,-5.6,2.1,2.5,16
351,6096.0,0.30000000000000004,0.0,0.4,0.30000000000000004,1.9000000000000001,10.0,-5.4,2.4000000000000004,2.2,16
352,6117.0,0.2,-0.1,0.5,0.2,1.8,10.100000000000001,-4.0,1.7,0.9000000000000001,16
353,6130.0,0.1,-0.1,0.6000000000000001,0.2,1.8,10.200000000000001,-2.9,-0.30000000000000004,0.30000000000000004,16
354,6146.0,0.2,-0.1,0.4,0.2,1.8,10.0,-0.6000000000000001,-1.9,-0.8,16
355,6164.0,0.2,-0.2,0.30000000000000004,0.2,1.7000000000000002,9.9,-0.8,-1.4,-1.4,16
356,6180.0,0.2,-0.2,0.4,0.2,1.7000000000000002,10.0,-1.3,-1.8000000000000003,-2.1,16
357,6198.0,0.0,-0.2,0.4,0.0,1.7000000000000002,10.0,-0.30000000000000004,-2.3,-3.2,16
358,6232.0,0.0,-0.2,0.0,0.0,1.7000000000000002,9.600000000000001,2.6,-3.8,-3.5,16
359,6246.0,-0.1,-0.1,-0.1,-0.1,1.7000000000000002,9.600000000000001,3.5,-1.0,-4.300000000000001,16
360,6263.0,-0.30000000000000004,-0.1,-0.1,-0.30000000000000004,1.8,9.600000000000001,4.5,0.5,-4.7,16
361,6280.0,-0.4,-0.1,-0.1,-0.30000000000000004,1.8,9.5,5.2,0.7,-4.800000000000001,16
362,6296.0,-0.4,0.1,-0.4,-0.4,2.0,9.200000000000001,5.300000000000001,0.2,-4.7,16
363,6314.0,-0.4,0.1,-0.5,-0.5,2.1,9.200000000000001,2.7,2.9,-3.8,16
364,6330.0,-0.6000000000000001,0.1,-0.2,-0.6000000000000001,2.1,9.4,1.0,4.7,-2.7,16
365,6347.0,-0.8,0.1,0.30000000000000004,-0.8,2.0,9.9,2.0,5.8,-1.3,16
366,6363.0,-0.9,0.2,0.2,-0.9,2.2,9.9,5.300000000000001,4.1,0.9000000000000001,16
367,6380.0,-0.9,0.30000000000000004,0.1,-0.9,2.3000000000000003,9.8,5.6,2.2,2.3,16
368,6396.0,-0.7000000000000001,0.30000000000000004,-0.1,-0.7000000000000001,2.3000000000000003,9.5,2.8,-1.0,5.1000000000000005,16
369,6418.0,-0.4,0.30000000000000004,-0.1,-0.4,2.3000000000000003,9.5,-0.1,-3.0,6.1000000000000005,16
370,6435.0,-0.2,0.4,-0.2,-0.2,2.4000000000000004,9.4,-0.7,-2.3,7.699999999999999,16
371,6446.0,0.0,0.4,-0.2,0.0,2.4000000000000004,9.4,-0.6000000000000001,-0.9000000000000001,8.899999999999999,16
372,6463.0,0.2,0.30000000000000004,-0.2,0.2,2.3000000000000003,9.4,-1.3,2.0,9.8,16
373,6480.0,0.30000000000000004,0.2,-0.1,0.30000000000000004,2.2,9.600000000000001,-1.7,2.2,9.5,16
374,6496.0,0.30000000000000004,0.1,0.2,0.30000000000000004,2.0,9.8,-1.6,2.0,8.100000000000001,16
375,6514.0,0.30000000000000004,0.0,0.30000000000000004,0.30000000000000004,2.0,9.9,0.5,1.0,7.6,16
376,6535.0,0.4,-0.1,0.2,0.4,1.9000000000000001,9.8,2.1,0.2,7.300000000000001,16
377,6548.0,0.4,-0.1,0.1,0.4,1.9000000000000001,9.8,2.2,0.2,6.8,16
378,6563.0,0.30000000000000004,-0.2,0.2,0.30000000000000004,1.8,9.8,1.3,-0.6000000000000001,5.8,16
379,6580.0,0.30000000000000004,-0.2,0.2,0.4,1.7000000000000002,9.8,1.3,-1.7,5.1000000000000005,16
380,6596.0,0.4,-0.2,0.0,0.5,1.7000000000000002,9.600000000000001,2.0,-2.4000000000000004,2.9,16
381,6615.0,0.5,-0.2,-0.1,0.5,1.7000000000000002,9.4,1.9,-1.7,0.2,16
382,6630.0,0.4,-0.2,-0.2,0.5,1.8,9.4,1.4,-0.6000000000000001,-1.3,16
383,6646.0,0.2,-0.2,-0.1,0.30000000000000004,1.8,9.5,0.9000000000000001,1.1,-3.0,16
384,6663.0,0.2,-0.2,0.0,0.2,1.8,9.600000000000001,1.7,0.1,-3.5,16
385,6680.0,0.2,-0.2,-0.1,0.2,1.8,9.5,2.2,-1.4,-3.6000000000000005,16
386,6697.0,0.30000000000000004,-0.2,-0.4,0.4,1.8,9.200000000000001,0.9000000000000001,-1.9,-4.300000000000001,16
387,6716.0,0.2,-0.2,-0.30000000000000004,0.30000000000000004,1.8,9.3,-2.5,0.2,-5.500000000000001,16
388,6730.0,0.2,-0.2,-0.1,0.2,1.8,9.5,-3.0,1.0,-6.2,16
389,6746.0,-0.1,-0.1,0.1,-0.1,1.8,9.700000000000001,-0.6000000000000001,3.2,-7.0,16
390,6763.0,-0.2,-0.1,0.1,-0.2,1.9000000000000001,9.700000000000001,1.7,1.7,-6.500000000000001,16
391,6780.0,-0.2,0.0,0.0,-0.2,2.0,9.600000000000001,1.6,1.1,-6.1000000000000005,16
392,6797.0,-0.1,0.0,0.0,-0.1,2.0,9.600000000000001,-0.9000000000000001,-1.4,-5.500000000000001,16
393,6818.0,-0.1,0.0,0.0,-0.1,2.0,9.600000000000001,-2.3,-3.4,-5.500000000000001,16
394,6830.0,-0.1,0.1,-0.1,-0.1,2.0,9.5,-2.4000000000000004,-3.3000000000000007,-5.300000000000001,16
395,6846.0,0.0,0.1,-0.1,0.0,2.0,9.5,-2.0,-1.3,-4.2,16
396,6863.0,-0.1,0.1,0.1,-0.1,2.1,9.700000000000001,-1.7,1.7,-3.8,16
397,6880.0,-0.2,0.1,0.30000000000000004,-0.2,2.1,9.9,-0.1,0.9000000000000001,-3.1,16
398,6896.0,-0.2,0.1,0.2,-0.2,2.1,9.9,0.5,-0.8,-2.6,16
399,6916.0,0.0,0.1,0.1,0.0,2.1,9.700000000000001,-0.6000000000000001,-3.5,-2.2,16
400,6930.0,0.1,0.0,0.1,0.1,2.0,9.700000000000001,-3.3000000000000007,-3.8,-3.0,16
401,6947.0,0.2,0.1,0.2,0.2,2.0,9.9,-3.2,-3.9,-3.5,16
402,6963.0,0.2,0.0,0.2,0.2,1.9000000000000001,9.9,-0.5,-2.4000000000000004,-3.9,16
403,6980.0,0.1,-0.1,0.1,0.2,1.9000000000000001,9.700000000000001,1.6,-1.2000000000000002,-4.800000000000001,16
404,6997.0,0.1,-0.1,0.0,0.1,1.9000000000000001,9.700000000000001,1.8000000000000003,-1.6,-5.8,16
405,7015.0,-0.1,0.0,0.0,-0.1,2.0,9.700000000000001,2.1,-3.3000000000000007,-7.200000000000001,16
406,7030.0,0.0,0.1,-0.30000000000000004,0.0,2.1,9.3,3.1,-5.500000000000001,-6.500000000000001,16
407,7046.0,0.1,0.1,-0.5,0.1,2.1,9.1,2.6,-5.500000000000001,-6.1000000000000005,16
408,7064.0,0.2,0.1,-0.7000000000000001,0.2,2.1,8.9,-0.8,-3.9,-6.4,16
409,7080.0,0.0,0.1,-0.5,0.1,2.1,9.1,-4.5,0.4,-6.500000000000001,16
410,7096.0,0.0,0.1,-0.4,0.1,2.0,9.3,-5.300000000000001,1.2000000000000002,-5.8,16
411,7116.0,0.1,0.1,-0.2,0.2,2.0,9.4,-4.5,0.2,-5.300000000000001,16
412,7130.0,0.30000000000000004,0.0,-0.4,0.30000000000000004,2.0,9.200000000000001,-6.600000000000001,0.0,-6.1000000000000005,16
413,7146.0,0.30000000000000004,0.0,-0.30000000000000004,0.30000000000000004,1.9000000000000001,9.3,-8.8,1.2000000000000002,-7.300000000000001,16
414,7163.0,0.0,-0.1,0.2,0.0,1.8,9.9,-10.1,4.300000000000001,-8.8,16
415,7179.0,-0.2,-0.2,0.6000000000000001,-0.2,1.7000000000000002,10.3,-3.0,6.2,-8.8,16
416,7196.0,-0.30000000000000004,-0.2,0.5,-0.30000000000000004,1.7000000000000002,10.200000000000001,0.6000000000000001,6.699999999999999,-9.0,16
417,7216.0,-0.5,0.0,0.2,-0.5,1.9000000000000001,9.9,3.0,5.2,-9.4,16
418,7230.0,-0.7000000000000001,0.2,0.1,-0.7000000000000001,2.1,9.8,2.1,3.6000000000000005,-9.0,16
419,7246.0,-0.5,0.2,-0.1,-0.6000000000000001,2.1,9.600000000000001,-0.2,-1.7,-5.8,16
420,7263.0,-0.2,0.30000000000000004,-0.4,-0.30000000000000004,2.2,9.3,-3.5,-4.2,-3.5,16
421,7280.0,-0.2,0.2,-0.1,-0.2,2.1,9.5,-6.1000000000000005,-2.1,-2.1,16
422,7296.0,-0.2,0.2,-0.1,-0.2,2.1,9.700000000000001,-5.0,0.0,-1.5,16
423,7314.0,-0.2,0.1,0.0,-0.30000000000000004,2.0,9.700000000000001,-0.9000000000000001,2.4000000000000004,0.6000000000000001,16
424,7330.0,-0.1,0.1,-0.2,-0.2,1.9000000000000001,9.5,-1.3,-0.2,0.9000000000000001,16
425,7346.0,0.0,0.0,-0.2,-0.1,1.9000000000000001,9.5,-2.7,-2.0,0.30000000000000004,16
426,7364.0,0.1,0.1,-0.2,0.1,1.9000000000000001,9.5,-5.1000000000000005,-2.7,-0.8,16
427,7379.0,0.30000000000000004,0.0,-0.1,0.2,1.9000000000000001,9.600000000000001,-5.4,-0.8,-1.2000000000000002,16
428,7396.0,0.30000000000000004,0.1,0.0,0.30000000000000004,1.9000000000000001,9.600000000000001,-4.7,0.2,-1.0,16
429,7419.0,0.4,0.0,0.0,0.4,1.8,9.700000000000001,-5.0,0.9000000000000001,-1.6,16
430,7430.0,0.4,-0.1,0.2,0.4,1.7000000000000002,9.8,-5.6,-0.9000000000000001,-2.5,16
431,7446.0,0.4,-0.1,0.30000000000000004,0.4,1.7000000000000002,10.0,-5.2,-2.2,-3.6000000000000005,16
432,7463.0,0.30000000000000004,-0.1,0.2,0.30000000000000004,1.7000000000000002,9.9,-1.2000000000000002,-2.5,-4.7,16
433,7480.0,0.30000000000000004,0.0,-0.1,0.30000000000000004,1.8,9.600000000000001,1.6,0.7,-5.0,16
434,7497.0,0.1,0.0,0.0,0.0,1.8,9.600000000000001,-0.9000000000000001,3.8,-5.2,16
435,7518.0,-0.1,0.0,0.30000000000000004,-0.1,1.7000000000000002,10.0,-3.7000000000000006,0.2,-5.0,16
436,7533.0,0.0,-0.1,0.30000000000000004,0.0,1.7000000000000002,10.0,-3.6000000000000005,-2.9,-4.6,16
437,7546.0,0.1,-0.1,0.2,0.1,1.6,9.9,-3.1,-4.9,-4.4,16
438,7563.0,0.30000000000000004,-0.2,0.0,0.30000000000000004,1.6,9.700000000000001,-2.8,-4.4,-5.500000000000001,16
439,7580.0,0.2,-0.1,0.0,0.2,1.6,9.700000000000001,-1.2000000000000002,-1.1,-7.400000000000001,16
440,7597.0,0.0,-0.1,0.0,0.0,1.6,9.700000000000001,1.1,1.9,-7.400000000000001,16
441,7616.0,-0.1,-0.1,0.1,-0.1,1.6,9.8,1.7,1.7,-7.500000000000001,16
442,7631.0,-0.2,-0.1,0.1,-0.30000000000000004,1.6,9.8,3.2,-0.30000000000000004,-8.3,16
443,7646.0,-0.30000000000000004,0.0,0.1,-0.30000000000000004,1.8,9.600000000000001,4.1,-1.4,-8.2,16
444,7663.0,-0.2,0.0,-0.30000000000000004,-0.30000000000000004,1.8,9.4,4.1,-2.1,-6.600000000000001,16
445,7682.0,-0.30000000000000004,0.1,-0.4,-0.30000000000000004,1.9000000000000001,9.3,1.3,0.9000000000000001,-5.2,16
446,7696.0,-0.30000000000000004,0.1,-0.2,-0.5,1.8,9.600000000000001,-0.2,2.3,-4.4,16
447,7716.0,-0.5,0.1,0.1,-0.5,1.8,9.700000000000001,-0.6000000000000001,1.9,-2.5,16
448,7731.0,-0.30000000000000004,0.0,0.0,-0.4,1.8,9.700000000000001,0.8,-0.4,-0.7,16
449,7747.0,-0.1,0.0,-0.2,-0.2,1.8,9.4,0.4,-0.1,-0.2,16
450,7763.0,-0.1,0.1,-0.2,-0.2,1.8,9.5,-0.2,0.9000000000000001,-0.4,16
451,7780.0,-0.2,0.1,0.0,-0.30000000000000004,1.8,9.700000000000001,-0.30000000000000004,4.2,0.1,16
452,7796.0,-0.2,0.0,0.1,-0.30000000000000004,1.8,9.8,1.4,3.9,1.5,16
453,7816.0,-0.2,0.0,0.1,-0.30000000000000004,1.8,9.8,2.0,3.7000000000000006,1.7,16
454,7830.0,-0.2,0.1,0.1,-0.30000000000000004,1.9000000000000001,9.8,1.9,1.6,1.7,16
455,7846.0,-0.2,0.1,0.1,-0.30000000000000004,1.9000000000000001,9.8,1.9,1.4,2.6,16
456,7863.0,-0.2,0.1,0.1,-0.30000000000000004,1.9000000000000001,9.8,2.7,1.4,3.3000000000000007,16
457,7880.0,-0.1,0.1,-0.1,-0.2,1.9000000000000001,9.600000000000001,3.4,0.8,4.5,16
458,7896.0,0.0,0.1,-0.1,-0.2,2.0,9.5,2.8,0.8,4.5,16
459,7914.0,-0.1,0.2,-0.2,-0.2,2.0,9.5,2.1,1.1,4.800000000000001,16
460,7930.0,-0.1,0.2,-0.1,-0.30000000000000004,2.1,9.600000000000001,1.0,1.6,6.500000000000001,16
461,7946.0,0.0,0.1,-0.1,-0.2,2.0,9.5,0.30000000000000004,1.4,8.2,16
462,7963.0,0.0,0.1,-0.1,-0.1,2.0,9.600000000000001,-0.30000000000000004,0.8,8.3,16
463,7979.0,0.1,0.0,0.0,-0.1,1.9000000000000001,9.700000000000001,-0.6000000000000001,0.5,8.3,16
464,7996.0,0.1,0.0,0.1,0.0,1.9000000000000001,9.700000000000001,-0.30000000000000004,0.30000000000000004,8.3,16
465,8013.0,0.2,-0.1,0.0,0.1,1.8,9.700000000000001,-0.30000000000000004,0.8,8.100000000000001,16
466,8035.0,0.2,-0.1,0.1,0.1,1.7000000000000002,9.700000000000001,0.0,0.0,7.200000000000001,16
467,8046.0,0.2,-0.2,0.0,0.1,1.7000000000000002,9.700000000000001,1.1,1.2000000000000002,5.9,16
468,8063.0,0.2,-0.2,0.0,0.1,1.6,9.700000000000001,1.6,1.3,5.4,16
469,8079.0,0.30000000000000004,-0.30000000000000004,-0.1,0.2,1.6,9.600000000000001,1.5,1.1,4.2,16
470,8097.0,0.30000000000000004,-0.30000000000000004,-0.1,0.2,1.6,9.700000000000001,0.5,0.9000000000000001,3.7000000000000006,16
471,8116.0,0.30000000000000004,-0.30000000000000004,0.1,0.2,1.6,9.8,0.8,1.2000000000000002,0.30000000000000004,16
472,8130.0,0.2,-0.2,0.1,0.1,1.6,9.8,2.1,2.4000000000000004,-0.5,16
473,8148.0,0.1,-0.1,0.1,0.0,1.8,9.700000000000001,3.6000000000000005,3.0,-0.5,16
474,8163.0,0.1,-0.1,0.0,0.0,1.8,9.700000000000001,3.3000000000000007,2.3,-0.30000000000000004,16
475,8179.0,0.1,0.0,0.0,0.0,1.8,9.600000000000001,1.7,-1.4,-1.2000000000000002,16
476,8197.0,0.1,0.0,-0.1,0.0,1.9000000000000001,9.600000000000001,1.0,-1.7,-2.2,16
477,8220.0,0.1,0.1,0.0,0.0,2.0,9.600000000000001,1.7,0.8,-1.8000000000000003,16
478,8230.0,0.1,0.1,0.0,0.0,2.0,9.600000000000001,1.9,1.7,-1.5,16
479,8246.0,0.0,0.1,0.0,-0.1,2.0,9.700000000000001,1.9,1.7,-1.8000000000000003,16
480,8263.0,-0.1,0.0,0.0,-0.2,1.9000000000000001,9.700000000000001,2.0,1.0,-1.9,16
481,8279.0,-0.1,0.1,0.0,-0.2,2.0,9.600000000000001,2.5,-0.1,-1.9,16
482,8296.0,-0.1,0.1,-0.1,-0.2,2.0,9.600000000000001,1.9,0.0,-1.4,16
483,8323.0,0.0,0.1,-0.2,-0.1,2.0,9.5,1.3,0.4,-0.7,16
484,8330.0,0.0,0.1,-0.2,-0.1,2.0,9.4,0.6000000000000001,0.5,-0.4,16
485,8346.0,0.0,-0.1,-0.1,-0.1,1.9000000000000001,9.600000000000001,-1.5,0.0,-0.30000000000000004,16
486,8363.0,0.1,-0.1,0.1,0.0,1.8,9.8,-1.4,-0.7,-0.30000000000000004,16
487,8380.0,0.1,-0.1,0.0,0.0,1.8,9.700000000000001,1.0,-0.2,-0.4,16
488,8396.0,0.1,0.0,-0.1,0.0,1.9000000000000001,9.5,1.2000000000000002,0.5,-0.8,16
489,8413.0,0.1,-0.1,-0.1,0.0,1.9000000000000001,9.600000000000001,-0.9000000000000001,0.5,-1.6,16
490,8430.0,0.0,-0.1,0.1,-0.1,1.9000000000000001,9.8,-1.3,-0.1,-1.9,16
491,8446.0,0.0,-0.1,0.2,-0.1,1.8,9.8,0.30000000000000004,-0.2,-2.2,16
492,8463.0,0.0,0.0,0.1,-0.1,1.9000000000000001,9.8,3.2,0.5,-2.3,16
493,8480.0,-0.1,0.0,0.0,-0.2,2.0,9.700000000000001,4.1,0.7,-2.2,16
494,8496.0,-0.1,0.1,-0.2,-0.2,2.0,9.4,2.8,-0.6000000000000001,-1.8000000000000003,16
495,8514.0,0.0,0.1,-0.30000000000000004,-0.1,2.0,9.4,-0.6000000000000001,-2.1,-1.7,16
496,8530.0,0.0,0.1,-0.2,-0.1,2.0,9.4,-2.0,-2.0,-1.8000000000000003,16
497,8546.0,0.0,0.0,-0.1,-0.1,1.9000000000000001,9.600000000000001,-1.9,0.7,-1.7,16
498,8563.0,-0.1,0.0,0.1,-0.30000000000000004,1.9000000000000001,9.700000000000001,0.9000000000000001,3.5,-1.8000000000000003,16
499,8580.0,-0.2,0.0,0.0,-0.30000000000000004,2.0,9.600000000000001,1.7,3.9,-1.4,16
500,8598.0,-0.1,0.1,0.0,-0.30000000000000004,2.0,9.600000000000001,0.8,1.9,-0.8,16
501,8623.0,-0.1,0.1,0.0,-0.30000000000000004,2.0,9.700000000000001,-1.9,-0.2,-0.8,16
502,8630.0,-0.1,0.1,0.1,-0.30000000000000004,2.0,9.700000000000001,-1.9,-0.2,-0.8,16
503,8646.0,-0.1,0.0,0.2,-0.30000000000000004,2.0,9.8,0.5,1.6,0.2,16
504,8663.0,-0.1,0.1,0.1,-0.30000000000000004,2.0,9.8,2.9,2.1,1.3,16
505,8680.0,-0.2,0.0,0.0,-0.30000000000000004,2.0,9.700000000000001,2.7,1.7,1.7,16
506,8696.0,-0.1,0.1,0.0,-0.30000000000000004,2.1,9.700000000000001,1.1,-1.7,1.9,16
507,8713.0,-0.1,0.1,-0.1,-0.30000000000000004,2.1,9.600000000000001,0.7,-2.0,2.0,16
508,8731.0,-0.1,0.1,-0.1,-0.30000000000000004,2.1,9.5,0.30000000000000004,-1.7,3.0,16
509,8746.0,0.0,0.0,-0.2,-0.2,2.0,9.5,0.5,-0.5,3.8,16
510,8763.0,0.1,-0.1,-0.2,-0.1,1.9000000000000001,9.5,-0.4,-0.5,4.0,16
511,8779.0,0.1,-0.1,-0.2,-0.1,1.9000000000000001,9.5,-1.1,-0.5,3.6000000000000005,16
512,8796.0,0.1,-0.2,0.0,-0.1,1.8,9.600000000000001,-1.6,-0.4,2.5,16
513,8816.0,0.1,-0.2,0.0,-0.1,1.8,9.600000000000001,-0.1,0.30000000000000004,2.1,16
514,8829.0,0.1,-0.2,0.0,0.0,1.8,9.600000000000001,0.6000000000000001,0.6000000000000001,1.8000000000000003,16
515,8846.0,0.1,-0.1,0.0,-0.1,1.8,9.600000000000001,0.5,0.6000000000000001,1.2000000000000002,16
516,8863.0,0.1,-0.1,-0.1,0.0,1.9000000000000001,9.600000000000001,-0.6000000000000001,0.0,0.4,16
517,8879.0,0.1,-0.1,-0.1,0.0,1.9000000000000001,9.600000000000001,-1.3,-0.2,0.0,16
518,8896.0,0.1,-0.1,0.0,0.0,1.9000000000000001,9.600000000000001,-1.4,0.30000000000000004,0.0,16
519,8914.0,0.1,0.0,0.1,0.0,1.9000000000000001,9.700000000000001,-0.1,1.5,-0.8,16
520,8930.0,0.1,0.0,0.1,-0.1,1.9000000000000001,9.700000000000001,-0.2,1.7,-1.2000000000000002,16
521,8946.0,0.0,0.0,0.1,-0.1,2.0,9.700000000000001,-0.7,0.6000000000000001,-1.5,16
522,8963.0,0.0,0.1,0.1,-0.1,2.0,9.8,-0.8,-0.2,-1.3,16
523,8980.0,0.0,0.0,0.1,-0.2,1.9000000000000001,9.8,-0.30000000000000004,0.2,-1.4,16
524,8997.0,0.0,-0.1,0.2,-0.2,1.9000000000000001,9.9,1.3,0.5,-1.4,16
525,9014.0,-0.1,0.0,0.1,-0.30000000000000004,1.9000000000000001,9.700000000000001,3.2,-0.30000000000000004,-1.5,16
526,9029.0,0.0,0.0,-0.2,-0.2,2.0,9.5,3.3000000000000007,-1.2000000000000002,-1.0,16
527,9046.0,0.0,0.0,-0.2,-0.1,2.0,9.4,0.8,-1.9,-0.7,16
528,9063.0,0.0,0.0,-0.1,-0.1,1.9000000000000001,9.5,-1.3,-1.4,-1.3,16
529,9079.0,-0.1,0.0,0.0,-0.2,1.9000000000000001,9.600000000000001,-0.2,0.2,-1.2000000000000002,16
530,9096.0,-0.1,0.0,0.0,-0.2,1.9000000000000001,9.600000000000001,1.0,0.5,-0.9000000000000001,16
531,9113.0,0.0,0.0,-0.1,-0.2,1.9000000000000001,9.5,1.4,0.8,-0.7,16
532,9131.0,0.0,0.0,0.0,-0.1,1.9000000000000001,9.600000000000001,0.30000000000000004,0.8,-1.7,16
533,9146.0,0.0,0.0,0.1,-0.2,2.0,9.700000000000001,0.1,-0.1,-2.1,16
534,9163.0,0.0,0.1,0.0,-0.2,2.0,9.700000000000001,1.0,-0.7,-1.6,16
535,9179.0,0.0,0.1,0.0,-0.1,2.0,9.600000000000001,1.3,-0.30000000000000004,-1.0,16
536,9196.0,0.0,0.1,0.0,-0.1,2.0,9.600000000000001,0.6000000000000001,0.0,-0.6000000000000001,16
537,9217.0,0.0,0.0,0.1,-0.2,2.0,9.700000000000001,0.30000000000000004,-0.4,-0.8,16
538,9239.0,-0.1,0.0,0.1,-0.2,2.0,9.700000000000001,0.6000000000000001,-0.9000000000000001,-0.1,16
539,9246.0,-0.1,0.0,0.1,-0.2,2.0,9.700000000000001,0.8,-1.2000000000000002,0.1,16
540,9263.0,-0.1,0.0,-0.1,-0.2,1.9000000000000001,9.600000000000001,1.3,-1.8000000000000003,0.2,16
541,9280.0,0.0,0.0,-0.1,-0.2,1.9000000000000001,9.5,1.4,-1.5,-0.2,16
542,9296.0,0.0,0.0,-0.2,-0.1,2.0,9.4,1.1,-1.3,-0.30000000000000004,16
543,9313.0,-0.1,0.0,-0.1,-0.2,2.0,9.5,0.0,0.6000000000000001,0.2,16
544,9330.0,-0.1,0.0,0.0,-0.2,2.0,9.600000000000001,-0.5,0.4,0.7,16
545,9346.0,-0.1,0.0,0.0,-0.2,2.0,9.600000000000001,-0.4,-0.1,0.6000000000000001,16
546,9363.0,-0.1,0.0,-0.1,-0.2,2.0,9.5,-0.4,-1.0,0.7,16
547,9379.0,0.0,0.0,0.0,-0.1,2.0,9.600000000000001,-0.5,-0.9000000000000001,0.9000000000000001,16
548,9396.0,0.0,0.0,0.0,-0.1,2.0,9.600000000000001,-0.2,-0.2,0.9000000000000001,16
549,9413.0,0.0,0.0,0.0,-0.1,2.0,9.600000000000001,-0.30000000000000004,1.1,1.3,16
550,9429.0,0.0,0.0,0.1,-0.1,2.0,9.700000000000001,-0.9000000000000001,0.6000000000000001,1.4,16
551,9446.0,0.0,0.0,0.1,-0.1,2.0,9.700000000000001,-1.1,0.4,1.3,16
552,9463.0,0.0,0.1,0.1,-0.2,2.0,9.8,0.1,-0.6000000000000001,1.5,16
553,9480.0,0.0,0.1,0.0,-0.1,2.0,9.600000000000001,0.9000000000000001,-0.8,2.2,16
554,9496.0,0.0,0.1,0.0,-0.1,2.0,9.600000000000001,0.8,-0.8,2.2,16
555,9513.0,0.0,0.1,-0.1,-0.1,2.1,9.5,0.0,-0.5,2.3,16
556,9536.0,0.0,0.0,-0.1,-0.1,2.0,9.600000000000001,-1.0,-0.8,2.6,16
557,9546.0,0.1,0.0,-0.1,-0.1,2.0,9.600000000000001,-1.1,-0.9000000000000001,2.5,16
558,9563.0,0.1,-0.1,0.0,0.0,1.9000000000000001,9.600000000000001,-1.4,-0.30000000000000004,1.8000000000000003,16
559,9580.0,0.0,-0.1,0.1,-0.1,1.9000000000000001,9.700000000000001,0.2,0.2,1.4,16
560,9596.0,0.0,-0.1,0.1,-0.1,1.9000000000000001,9.700000000000001,1.2000000000000002,0.4,1.6,16
561,9616.0,0.1,0.0,-0.1,-0.1,1.9000000000000001,9.600000000000001,0.9000000000000001,0.8,1.7,16
562,9630.0,0.1,0.0,-0.1,0.0,1.9000000000000001,9.5,-1.0,-0.4,0.8,16
563,9646.0,0.1,0.0,0.0,0.0,1.9000000000000001,9.600000000000001,-1.6,-0.5,0.30000000000000004,16
564,9663.0,0.0,0.0,0.0,-0.1,1.9000000000000001,9.600000000000001,-1.4,-0.30000000000000004,0.30000000000000004,16
565,9680.0,0.0,0.0,0.1,-0.1,2.0,9.700000000000001,0.30000000000000004,1.3,1.1,16
566,9696.0,0.0,0.0,0.1,-0.1,2.0,9.600000000000001,1.3,1.6,1.0,16
567,9714.0,0.0,0.0,-0.1,-0.1,2.0,9.5,1.6,1.5,0.4,16
568,9732.0,0.0,0.1,-0.1,-0.2,2.0,9.600000000000001,-0.6000000000000001,0.30000000000000004,0.1,16
569,9746.0,0.0,0.1,0.0,-0.2,2.0,9.600000000000001,-1.3,0.2,0.30000000000000004,16
570,9763.0,-0.1,0.0,0.2,-0.2,2.0,9.8,-0.9000000000000001,0.6000000000000001,0.9000000000000001,16
571,9780.0,0.0,0.0,0.1,-0.1,2.0,9.700000000000001,1.3,0.6000000000000001,1.2000000000000002,16
572,9796.0,0.0,0.0,0.0,-0.1,2.0,9.5,2.1,0.6000000000000001,1.3,16
573,9813.0,0.1,0.0,-0.1,-0.1,2.0,9.5,0.6000000000000001,0.4,1.8000000000000003,16
574,9840.0,0.0,-0.1,0.0,-0.1,1.9000000000000001,9.700000000000001,-2.6,-0.5,0.6000000000000001,16
575,9847.0,0.0,-0.1,0.0,-0.1,1.9000000000000001,9.600000000000001,-2.6,-0.5,0.6000000000000001,16
576,9863.0,0.0,-0.1,0.0,-0.1,1.8,9.600000000000001,-0.9000000000000001,-0.30000000000000004,0.0,16
577,9880.0,0.1,-0.1,-0.2,0.0,1.9000000000000001,9.4,0.6000000000000001,1.4,-0.2,16
578,9896.0,0.1,0.0,-0.2,0.0,1.9000000000000001,9.4,-1.0,2.5,-0.9000000000000001,16
579,9913.0,0.1,-0.1,-0.1,0.0,1.9000000000000001,9.5,-2.6,2.8,-1.9,16
580,9929.0,0.0,-0.1,0.2,-0.1,1.9000000000000001,9.8,-3.2,1.3,-3.2,16
581,9946.0,0.0,0.0,0.30000000000000004,-0.2,1.9000000000000001,9.9,-1.9,1.4,-3.4,16
582,9963.0,0.1,0.0,0.1,-0.1,1.9000000000000001,9.700000000000001,1.4,0.9000000000000001,-2.5,16
583,9979.0,0.2,0.0,-0.1,0.0,1.9000000000000001,9.5,0.2,0.8,-3.0,16
584,9996.0,0.2,0.0,-0.1,0.1,2.0,9.5,-2.0,0.0,-3.8,16
585,10019.0,0.2,-0.1,0.1,0.0,1.8,9.700000000000001,-3.7000000000000006,-0.6000000000000001,-5.500000000000001,16
586,10029.0,0.2,0.0,0.1,0.1,1.9000000000000001,9.700000000000001,-2.3,0.4,-5.500000000000001,16
587,10047.0,0.2,-0.1,0.1,0.1,1.8,9.700000000000001,-1.1,2.1,-5.9,16
588,10063.0,0.2,-0.1,0.1,0.1,1.8,9.700000000000001,-1.7,1.3,-6.600000000000001,16
589,10079.0,0.30000000000000004,-0.1,0.1,0.2,1.8,9.700000000000001,-4.5,-1.4,-8.8,16
590,10096.0,0.30000000000000004,0.0,0.1,0.2,1.8,9.8,-4.9,-3.0,-11.2,16
591,10118.0,0.2,0.1,0.1,0.1,1.9000000000000001,9.8,-2.8,-2.3,-11.900000000000002,16
592,10130.0,0.2,0.1,0.0,0.1,2.0,9.700000000000001,-1.6,-2.2,-11.900000000000002,16
593,10147.0,0.2,0.2,-0.2,0.1,2.0,9.4,-2.5,-2.5,-11.900000000000002,16
594,10165.0,0.30000000000000004,0.2,-0.2,0.2,2.0,9.5,-7.0,-4.9,-13.5,16
595,10179.0,0.2,0.2,0.0,0.1,2.0,9.600000000000001,-8.4,-4.2,-14.800000000000002,16
596,10196.0,-0.1,0.2,0.30000000000000004,-0.1,2.0,9.9,-6.600000000000001,-2.5,-14.800000000000002,16
597,10214.0,-0.1,0.2,0.30000000000000004,-0.2,2.0,10.0,-4.4,-2.3,-13.8,16
598,10229.0,-0.1,0.1,0.2,-0.1,1.9000000000000001,9.9,-3.0,-3.6000000000000005,-12.100000000000001,16
599,10246.0,0.0,0.0,0.1,0.0,1.7000000000000002,9.8,-6.9,-8.4,-13.700000000000001,16
600,10264.0,0.1,-0.1,0.1,0.1,1.7000000000000002,9.8,-8.600000000000001,-11.1,-15.700000000000001,16
601,10279.0,0.0,0.1,0.1,0.0,1.8,9.8,-7.200000000000001,-10.4,-19.0,16
602,10296.0,-0.1,0.1,0.2,-0.1,1.8,9.9,-4.0,-3.9,-17.0,16
603,10314.0,-0.1,0.0,0.2,0.0,1.7000000000000002,9.9,-4.300000000000001,-2.8,-15.899999999999999,16
604,10330.0,0.2,-0.30000000000000004,0.2,0.2,1.4000000000000001,9.8,-8.700000000000001,-9.700000000000001,-18.200000000000003,16
605,10346.0,0.30000000000000004,-0.4,0.2,0.4,1.3,9.9,-12.299999999999999,-15.299999999999999,-22.700000000000003,16
606,10363.0,0.30000000000000004,-0.4,0.2,0.4,1.3,9.9,-12.299999999999999,-15.399999999999999,-23.400000000000002,16
607,10381.0,0.5,-0.5,0.1,0.6000000000000001,1.1,9.8,-9.5,-12.7,-23.0,16
608,10399.0,0.6000000000000001,-0.5,-0.1,0.8,1.0,9.600000000000001,-7.6,-9.700000000000001,-25.8,16
609,10421.0,0.5,-0.4,-0.30000000000000004,0.7000000000000001,1.1,9.4,-10.5,-9.899999999999999,-29.200000000000003,16
610,10429.0,0.5,-0.4,-0.30000000000000004,0.7000000000000001,1.1,9.4,-12.7,-10.600000000000001,-29.900000000000006,16
611,10446.0,0.4,-0.5,-0.2,0.7000000000000001,0.9,9.5,-15.399999999999999,-12.200000000000001,-30.699999999999996,16
612,10463.0,0.5,-0.6000000000000001,-0.2,0.8,0.8,9.600000000000001,-13.8,-11.8,-32.300000000000004,16
613,10481.0,0.5,-0.5,-0.1,0.8,0.8,9.600000000000001,-11.4,-8.899999999999999,-33.6,16
614,10496.0,0.4,-0.30000000000000004,-0.30000000000000004,0.7000000000000001,1.0,9.5,-6.600000000000001,-6.300000000000001,-35.699999999999996,16
615,10518.0,0.30000000000000004,-0.2,-0.5,0.6000000000000001,1.1,9.3,-6.9,-3.8,-36.6,16
616,10529.0,0.30000000000000004,-0.30000000000000004,-0.30000000000000004,0.6000000000000001,1.0,9.4,-8.0,-5.0,-37.6,16
617,10546.0,0.1,-0.1,0.4,0.4,1.1,10.100000000000001,-1.5,-2.8,-40.6,16
618,10563.0,-0.2,0.0,0.30000000000000004,0.0,1.5,9.700000000000001,5.2,2.5,-40.300000000000004,16
619,10579.0,-0.2,0.30000000000000004,-0.2,0.0,1.6,9.5,10.600000000000001,4.1,-36.9,16
620,10596.0,-0.30000000000000004,0.4,0.0,-0.1,1.7000000000000002,9.700000000000001,5.300000000000001,6.8,-37.800000000000004,16
621,10618.0,-0.9,0.5,0.5,-0.8,1.9000000000000001,10.200000000000001,6.0,13.200000000000003,-37.0,16
622,10633.0,-1.1,0.5,0.7000000000000001,-0.9,1.9000000000000001,10.4,9.2,12.9,-34.50000000000001,16
623,10646.0,-1.1,0.5,0.5,-1.0,2.0,10.3,15.5,11.6,-28.700000000000003,16
624,10663.0,-1.0,0.6000000000000001,0.4,-0.9,2.2,9.8,15.6,6.300000000000001,-24.5,16
625,10679.0,-0.7000000000000001,0.7000000000000001,-0.1,-0.7000000000000001,2.2,9.600000000000001,12.0,3.4,-23.099999999999998,16
626,10696.0,-0.6000000000000001,0.5,0.0,-0.6000000000000001,2.1,9.700000000000001,2.2,2.6,-21.200000000000003,16
627,10725.0,-0.9,0.2,0.5,-1.0,1.7000000000000002,10.200000000000001,-1.9,7.699999999999999,-16.8,16
628,10729.0,-0.9,0.2,0.5,-1.0,1.7000000000000002,10.200000000000001,-1.9,7.699999999999999,-16.8,16
629,10746.0,-1.1,0.0,0.6000000000000001,-1.2000000000000002,1.5,10.3,3.3000000000000007,11.2,-13.100000000000001,16
630,10763.0,-1.1,-0.2,0.5,-1.3,1.4000000000000001,10.200000000000001,5.1000000000000005,10.299999999999999,-12.0,16
631,10780.0,-1.0,-0.2,0.4,-1.2000000000000002,1.4000000000000001,10.100000000000001,4.7,6.699999999999999,-12.7,16
632,10796.0,-0.7000000000000001,-0.1,0.1,-1.0,1.5,9.8,4.9,3.4,-12.600000000000001,16
633,10814.0,-0.4,-0.1,-0.1,-0.7000000000000001,1.6,9.600000000000001,4.9,8.600000000000001,-11.1,16
634,10832.0,-0.6000000000000001,-0.1,0.1,-0.9,1.5,9.8,5.300000000000001,17.799999999999997,-10.200000000000001,16
635,10846.0,-0.8,-0.1,0.2,-1.2000000000000002,1.6,9.9,5.8,20.1,-9.3,16
636,10863.0,-1.2000000000000002,-0.1,0.30000000000000004,-1.6,1.6,10.0,5.9,15.100000000000001,-6.8,16
637,10879.0,-1.2000000000000002,-0.1,0.2,-1.6,1.6,9.9,5.500000000000001,8.3,-5.4,16
638,10898.0,-1.0,0.1,-0.4,-1.5,1.7000000000000002,9.3,4.5,-4.2,-3.1,16
639,10919.0,-0.6000000000000001,0.2,-0.9,-1.0,1.9000000000000001,8.8,2.4000000000000004,-9.600000000000001,0.9000000000000001,16
640,10929.0,-0.4,0.2,-1.0,-0.9,1.9000000000000001,8.700000000000001,1.3,-7.8,2.2,16
641,10946.0,-0.2,0.2,-1.1,-0.7000000000000001,1.9000000000000001,8.6,-0.5,-2.2,2.2,16
642,10963.0,-0.4,0.30000000000000004,-0.8,-0.9,2.0,8.8,-3.9,5.4,1.6,16
643,10979.0,-0.5,0.30000000000000004,-0.6000000000000001,-1.0,2.0,9.0,-6.500000000000001,6.9,1.8000000000000003,16
644,10996.0,-0.6000000000000001,0.30000000000000004,-0.2,-1.1,1.9000000000000001,9.4,-11.1,5.2,2.3,16
645,11020.0,-0.4,0.2,-0.1,-0.9,1.8,9.600000000000001,-12.299999999999999,2.7,1.2000000000000002,16
646,11029.0,-0.30000000000000004,0.2,-0.1,-0.8,1.8,9.600000000000001,-11.700000000000001,1.7,0.0,16
647,11046.0,0.0,0.30000000000000004,0.0,-0.5,1.9000000000000001,9.700000000000001,-8.4,3.0,-2.0,16
648,11063.0,0.0,0.5,-0.1,-0.5,2.0,9.600000000000001,-5.8,9.8,-3.6000000000000005,16
649,11083.0,-0.1,0.5,0.1,-0.7000000000000001,2.0,9.8,-7.8,8.899999999999999,-4.0,16
650,11096.0,-0.1,0.4,0.30000000000000004,-0.7000000000000001,2.0,10.0,-8.3,5.500000000000001,-4.6,16
651,11116.0,0.0,0.4,0.4,-0.6000000000000001,1.9000000000000001,10.100000000000001,-5.500000000000001,-0.9000000000000001,-6.300000000000001,16
652,11129.0,0.1,0.4,0.4,-0.5,1.9000000000000001,10.100000000000001,-3.4,-2.1,-6.500000000000001,16
653,11147.0,0.2,0.30000000000000004,0.30000000000000004,-0.4,1.8,10.0,2.7,-2.8,-7.0,16
654,11163.0,0.1,0.4,0.1,-0.5,1.9000000000000001,9.8,8.0,1.6,-7.699999999999999,16
655,11180.0,-0.1,0.30000000000000004,0.1,-0.7000000000000001,1.9000000000000001,9.8,8.899999999999999,1.1,-7.200000000000001,16
656,11196.0,-0.2,0.30000000000000004,0.2,-0.8,1.9000000000000001,9.9,9.2,-0.5,-7.400000000000001,16
657,11220.0,-0.30000000000000004,0.4,0.1,-0.9,2.0,9.8,9.5,-3.3000000000000007,-6.600000000000001,16
658,11230.0,-0.30000000000000004,0.4,0.1,-0.9,2.0,9.700000000000001,7.400000000000001,-4.7,-4.4,16
659,11246.0,-0.30000000000000004,0.2,0.1,-0.9,1.9000000000000001,9.8,5.9,-5.1000000000000005,-3.2,16
660,11263.0,-0.1,0.1,-0.1,-0.7000000000000001,1.7000000000000002,9.600000000000001,3.1,-5.0,-2.0,16
661,11280.0,-0.1,-0.1,-0.1,-0.7000000000000001,1.6,9.600000000000001,-1.7,-4.1,-2.5,16
662,11296.0,-0.2,-0.2,0.1,-0.7000000000000001,1.5,9.8,-3.3000000000000007,-3.0,-3.3000000000000007,16
663,11315.0,-0.4,-0.2,0.6000000000000001,-0.9,1.4000000000000001,10.3,-1.2000000000000002,-1.6,-4.2,16
664,11329.0,-0.5,-0.1,0.7000000000000001,-1.1,1.6,10.3,6.0,-2.7,-3.6000000000000005,16
665,11346.0,-0.5,0.0,0.30000000000000004,-1.1,1.7000000000000002,10.0,9.100000000000001,-4.5,-2.5,16
666,11364.0,-0.1,0.1,-0.4,-0.6000000000000001,1.8,9.3,10.8,-10.600000000000001,-1.6,16
667,11383.0,0.30000000000000004,0.30000000000000004,-0.8,-0.2,2.0,8.9,6.4,-10.700000000000001,-3.8,16
668,11399.0,0.2,0.5,-0.8,-0.2,2.2,8.9,1.6,-6.1000000000000005,-4.9,16
669,11414.0,0.1,0.5,-0.6000000000000001,-0.30000000000000004,2.2,9.1,0.2,-3.0,-4.4,16
670,11430.0,0.0,0.30000000000000004,-0.1,-0.5,2.0,9.5,0.2,-1.0,-2.5,16
671,11447.0,-0.1,0.2,0.0,-0.6000000000000001,2.0,9.700000000000001,1.0,-1.6,-1.9,16
672,11463.0,-0.1,0.1,-0.1,-0.6000000000000001,1.9000000000000001,9.600000000000001,1.7,-5.8,-1.0,16
673,11479.0,-0.1,0.1,-0.4,-0.6000000000000001,1.8,9.3,-1.7,-7.6,-1.6,16
674,11496.0,-0.2,0.0,-0.30000000000000004,-0.6000000000000001,1.7000000000000002,9.4,-4.1,-7.699999999999999,-2.3,16
675,11513.0,-0.4,0.0,-0.1,-0.8,1.7000000000000002,9.600000000000001,-5.4,-6.4,-2.6,16
676,11530.0,-0.4,0.0,-0.2,-0.8,1.7000000000000002,9.5,-2.8,-4.5,0.1,16
677,11546.0,-0.30000000000000004,0.0,-0.30000000000000004,-0.7000000000000001,1.7000000000000002,9.3,-2.6,-3.8,2.0,16
678,11563.0,-0.2,0.0,-0.4,-0.6000000000000001,1.7000000000000002,9.3,-6.4,-2.3,4.0,16
679,11581.0,-0.30000000000000004,-0.2,-0.1,-0.6000000000000001,1.4000000000000001,9.5,-10.5,-2.9,4.800000000000001,16
680,11598.0,-0.30000000000000004,-0.30000000000000004,0.0,-0.6000000000000001,1.3,9.700000000000001,-10.200000000000001,-3.0,4.7,16
681,11613.0,-0.2,-0.30000000000000004,0.0,-0.6000000000000001,1.3,9.600000000000001,-5.300000000000001,-4.2,5.0,16
682,11630.0,0.1,-0.2,-0.4,-0.2,1.4000000000000001,9.200000000000001,-2.5,-2.2,6.4,16
683,11646.0,0.2,-0.2,-0.6000000000000001,-0.1,1.4000000000000001,9.1,-4.1,-0.2,6.300000000000001,16
684,11663.0,0.30000000000000004,-0.30000000000000004,-0.30000000000000004,0.0,1.3,9.3,-11.2,2.5,3.2,16
685,11679.0,0.1,-0.30000000000000004,0.4,-0.2,1.2000000000000002,10.100000000000001,-13.5,4.5,-0.4,16
686,11696.0,0.0,-0.30000000000000004,0.6000000000000001,-0.30000000000000004,1.2000000000000002,10.3,-11.4,5.0,-1.3,16
687,11713.0,-0.1,-0.30000000000000004,0.7000000000000001,-0.4,1.2000000000000002,10.4,-3.7000000000000006,6.9,-1.3,16
688,11734.0,0.0,-0.2,0.4,-0.4,1.3,10.100000000000001,-0.1,6.9,-1.9,16
689,11750.0,0.1,0.0,0.2,-0.30000000000000004,1.4000000000000001,9.9,-3.2,4.300000000000001,-3.5,16
690,11763.0,0.0,0.0,0.2,-0.4,1.4000000000000001,9.9,-6.300000000000001,2.7,-4.300000000000001,16
691,11779.0,0.0,0.0,0.5,-0.4,1.5,10.200000000000001,-8.600000000000001,-0.6000000000000001,-5.7,16
692,11796.0,-0.1,0.1,0.4,-0.5,1.5,10.200000000000001,-6.699999999999999,-0.7,-5.8,16
693,11814.0,-0.1,0.30000000000000004,0.1,-0.5,1.7000000000000002,9.9,-1.1,0.0,-4.4,16
694,11834.0,0.0,0.30000000000000004,-0.1,-0.4,1.7000000000000002,9.600000000000001,-0.9000000000000001,3.0,-3.0,16
695,11850.0,0.0,0.2,0.0,-0.4,1.6,9.700000000000001,-5.300000000000001,2.2,-3.9,16
696,11863.0,-0.1,0.2,0.2,-0.5,1.5,9.9,-7.0,1.4,-4.6,16
697,11879.0,-0.2,0.1,0.6000000000000001,-0.7000000000000001,1.4000000000000001,10.3,-5.500000000000001,-0.2,-4.4,16
698,11896.0,-0.2,0.0,0.6000000000000001,-0.7000000000000001,1.3,10.200000000000001,-2.8,0.0,-4.4,16
699,11913.0,-0.2,0.0,0.30000000000000004,-0.6000000000000001,1.4000000000000001,10.0,1.1,0.6000000000000001,-5.300000000000001,16
700,11933.0,-0.1,0.0,0.0,-0.5,1.3,9.700000000000001,2.0,-0.2,-5.9,16
701,11946.0,0.0,0.0,-0.2,-0.4,1.3,9.4,1.9,-0.30000000000000004,-6.0,16
702,11963.0,0.0,-0.1,-0.4,-0.4,1.3,9.4,-0.8,0.0,-7.0,16
703,11979.0,0.0,0.0,-0.1,-0.5,1.4000000000000001,9.600000000000001,-4.4,-0.30000000000000004,-7.200000000000001,16
704,11996.0,-0.1,0.0,-0.1,-0.6000000000000001,1.3,9.700000000000001,-3.3000000000000007,2.0,-7.200000000000001,16
705,12013.0,-0.1,0.0,0.0,-0.5,1.3,9.700000000000001,-1.6,1.3,-6.9,16
706,12032.0,0.0,-0.1,-0.2,-0.6000000000000001,1.3,9.5,1.0,4.7,-7.699999999999999,16
707,12047.0,-0.2,0.1,-0.30000000000000004,-0.7000000000000001,1.4000000000000001,9.5,0.2,4.2,-6.9,16
708,12063.0,-0.2,0.2,-0.30000000000000004,-0.7000000000000001,1.5,9.5,-1.4,3.4,-6.1000000000000005,16
709,12082.0,-0.1,0.2,-0.2,-0.7000000000000001,1.5,9.5,-3.8,1.3,-6.0,16
710,12096.0,0.0,0.30000000000000004,-0.30000000000000004,-0.6000000000000001,1.7000000000000002,9.5,-3.6000000000000005,0.6000000000000001,-5.0,16
711,12113.0,0.1,0.4,-0.30000000000000004,-0.5,1.7000000000000002,9.4,-3.4,2.8,-4.0,16
712,12130.0,0.0,0.30000000000000004,-0.2,-0.6000000000000001,1.6,9.600000000000001,-4.5,9.600000000000001,-2.7,16
713,12146.0,-0.30000000000000004,0.30000000000000004,0.30000000000000004,-0.9,1.6,10.0,-4.5,10.4,-2.4000000000000004,16
714,12163.0,-0.4,0.30000000000000004,0.4,-1.0,1.5,10.100000000000001,-3.4,9.899999999999999,-1.7,16
715,12179.0,-0.4,0.2,0.6000000000000001,-1.0,1.4000000000000001,10.3,0.2,5.0,0.1,16
716,12197.0,-0.4,0.2,0.4,-1.1,1.5,10.100000000000001,3.5,4.6,2.2,16
717,12215.0,-0.2,0.0,0.1,-0.9,1.3,9.8,3.3000000000000007,0.0,3.4,16
718,12235.0,-0.1,0.1,0.0,-0.7000000000000001,1.4000000000000001,9.700000000000001,1.2000000000000002,-3.6000000000000005,2.8,16
719,12247.0,0.0,0.2,-0.30000000000000004,-0.6000000000000001,1.5,9.4,0.2,-5.2,3.6000000000000005,16
720,12263.0,0.2,0.1,-0.4,-0.4,1.4000000000000001,9.3,-1.0,-5.300000000000001,3.8,16
721,12283.0,0.1,0.1,-0.4,-0.5,1.4000000000000001,9.3,-3.9,-2.7,2.8,16
722,12296.0,0.1,0.0,0.0,-0.5,1.3,9.700000000000001,-5.1000000000000005,-2.6,2.1,16
723,12313.0,0.1,0.0,0.1,-0.5,1.3,9.8,-4.7,-1.4,1.0,16
724,12329.0,0.0,0.1,0.2,-0.6000000000000001,1.3,10.0,-3.1,-1.4,-1.2000000000000002,16
725,12346.0,0.0,0.2,0.4,-0.6000000000000001,1.5,10.200000000000001,0.0,0.5,-2.4000000000000004,16
726,12363.0,-0.1,0.30000000000000004,0.4,-0.7000000000000001,1.6,10.100000000000001,1.4,2.4000000000000004,-2.7,16
727,12380.0,-0.2,0.4,0.30000000000000004,-0.8,1.6,10.100000000000001,1.1,1.5,-1.7,16
728,12396.0,-0.1,0.30000000000000004,0.4,-0.7000000000000001,1.5,10.100000000000001,-0.2,-2.6,-2.1,16
729,12413.0,-0.2,0.30000000000000004,0.6000000000000001,-0.8,1.6,10.3,0.9000000000000001,-1.8000000000000003,-2.6,16
730,12431.0,-0.4,0.30000000000000004,0.5,-1.0,1.6,10.200000000000001,7.0,-0.4,-1.1,16
731,12447.0,-0.30000000000000004,0.4,0.4,-0.9,1.7000000000000002,10.100000000000001,12.7,2.3,1.4,16
732,12463.0,-0.4,0.4,0.1,-1.0,1.7000000000000002,9.9,13.5,2.7,2.0,16
733,12480.0,-0.2,0.30000000000000004,-0.2,-0.8,1.7000000000000002,9.5,7.200000000000001,-4.5,2.9,16
734,12496.0,-0.2,0.2,-0.1,-0.8,1.6,9.600000000000001,-0.7,-8.8,1.1,16
735,12513.0,-0.2,0.2,0.0,-0.8,1.6,9.700000000000001,-2.0,-10.0,1.5,16
736,12534.0,0.0,0.0,0.0,-0.4,1.3,9.600000000000001,0.4,-7.699999999999999,2.8,16
737,12546.0,0.1,-0.1,-0.2,-0.4,1.3,9.5,1.8000000000000003,-6.699999999999999,1.7,16
738,12564.0,0.0,0.0,-0.30000000000000004,-0.5,1.4000000000000001,9.4,4.800000000000001,-2.9,1.1,16
739,12579.0,-0.1,0.0,-0.4,-0.5,1.5,9.3,5.500000000000001,-1.5,2.0,16
740,12596.0,0.1,-0.1,-0.5,-0.4,1.4000000000000001,9.200000000000001,3.6000000000000005,-1.6,3.4,16
741,12613.0,0.2,-0.1,-0.5,-0.30000000000000004,1.3,9.200000000000001,1.4,-2.0,2.8,16
742,12635.0,0.1,-0.2,-0.2,-0.4,1.3,9.5,-4.300000000000001,-3.1,-1.1,16
743,12649.0,0.0,-0.2,-0.1,-0.4,1.2000000000000002,9.600000000000001,-3.4,-3.1,-1.6,16
744,12663.0,0.0,-0.1,0.0,-0.5,1.3,9.700000000000001,-0.9000000000000001,-2.5,-1.8000000000000003,16
745,12681.0,0.0,-0.1,-0.1,-0.5,1.3,9.600000000000001,4.7,2.2,-1.3,16
746,12696.0,0.0,0.0,-0.4,-0.4,1.4000000000000001,9.3,6.500000000000001,3.7000000000000006,-2.1,16
747,12713.0,0.0,0.0,-0.4,-0.5,1.5,9.3,5.500000000000001,4.1,-3.0,16
748,12734.0,0.0,0.1,-0.30000000000000004,-0.5,1.5,9.4,1.8000000000000003,3.2,-4.800000000000001,16
749,12749.0,0.0,0.1,-0.30000000000000004,-0.5,1.6,9.4,1.7,4.4,-4.9,16
750,12771.0,-0.1,0.2,0.0,-0.6000000000000001,1.7000000000000002,9.600000000000001,3.0,8.5,-4.300000000000001,16
751,12779.0,-0.2,0.30000000000000004,0.0,-0.7000000000000001,1.8,9.700000000000001,4.4,10.700000000000001,-3.7000000000000006,16
752,12797.0,-0.30000000000000004,0.4,0.1,-0.9,1.9000000000000001,9.8,5.1000000000000005,12.5,-1.3,16
753,12813.0,-0.30000000000000004,0.30000000000000004,0.30000000000000004,-0.9,1.8,10.0,1.3,10.299999999999999,0.7,16
754,12833.0,-0.30000000000000004,0.2,0.5,-1.0,1.7000000000000002,10.100000000000001,-0.9000000000000001,8.4,1.2000000000000002,16
755,12846.0,-0.30000000000000004,0.1,0.8,-1.0,1.6,10.5,-0.6000000000000001,3.8,2.3,16
756,12863.0,-0.1,0.1,0.6000000000000001,-0.8,1.6,10.3,4.9,2.0,3.7000000000000006,16
757,12879.0,-0.1,0.1,0.4,-0.7000000000000001,1.7000000000000002,10.100000000000001,6.9,2.0,4.0,16
758,12897.0,-0.1,0.2,0.1,-0.7000000000000001,1.8,9.700000000000001,6.600000000000001,2.3,5.300000000000001,16
759,12913.0,0.0,0.1,0.0,-0.7000000000000001,1.7000000000000002,9.700000000000001,5.8,1.8000000000000003,6.500000000000001,16
760,12931.0,0.1,0.1,0.0,-0.6000000000000001,1.7000000000000002,9.600000000000001,5.4,0.9000000000000001,6.699999999999999,16
761,12947.0,0.2,0.0,-0.1,-0.5,1.6,9.5,4.5,-1.9,6.9,16
762,12962.0,0.30000000000000004,0.0,-0.2,-0.30000000000000004,1.6,9.4,3.5,-0.5,6.600000000000001,16
763,12980.0,0.4,-0.1,-0.30000000000000004,-0.30000000000000004,1.6,9.3,2.2,1.7,6.1000000000000005,16
764,12997.0,0.4,-0.2,-0.1,-0.30000000000000004,1.4000000000000001,9.5,-2.1,3.9,4.7,16
765,13014.0,0.30000000000000004,-0.30000000000000004,0.30000000000000004,-0.4,1.3,10.0,-2.3,3.1,2.8,16
766,13029.0,0.2,-0.4,0.4,-0.4,1.3,10.100000000000001,0.1,2.4000000000000004,2.2,16
767,13049.0,0.30000000000000004,-0.30000000000000004,0.2,-0.4,1.4000000000000001,9.9,5.0,3.6000000000000005,2.0,16
768,13063.0,0.2,-0.2,0.0,-0.5,1.4000000000000001,9.700000000000001,3.8,4.2,1.4,16
769,13080.0,0.2,-0.2,0.1,-0.5,1.4000000000000001,9.8,1.3,3.0,0.6000000000000001,16
770,13096.0,0.1,-0.30000000000000004,0.30000000000000004,-0.6000000000000001,1.3,10.0,-2.3,-1.9,-1.4,16
771,13114.0,0.1,-0.30000000000000004,0.30000000000000004,-0.5,1.3,10.0,-0.5,-5.8,-2.1,16
772,13136.0,0.2,-0.2,0.0,-0.5,1.4000000000000001,9.700000000000001,2.8,-3.8,-2.2,16
773,13147.0,0.2,-0.2,0.0,-0.5,1.4000000000000001,9.700000000000001,3.8,-2.4000000000000004,-2.4000000000000004,16
774,13163.0,0.0,-0.1,0.0,-0.6000000000000001,1.5,9.700000000000001,6.0,0.4,-3.1,16
775,13179.0,-0.1,0.0,0.0,-0.7000000000000001,1.6,9.600000000000001,6.300000000000001,0.7,-2.8,16
776,13196.0,-0.1,0.0,-0.30000000000000004,-0.8,1.7000000000000002,9.4,3.1,-1.2000000000000002,-1.4,16
777,13215.0,-0.1,0.0,-0.2,-0.8,1.6,9.5,-2.0,-3.1,-1.9,16
778,13235.0,-0.30000000000000004,-0.1,0.0,-0.9,1.6,9.700000000000001,-3.4,-2.8,-1.4,16
779,13248.0,-0.30000000000000004,-0.1,0.1,-1.0,1.6,9.8,-2.6,-2.2,-0.30000000000000004,16
780,13263.0,-0.30000000000000004,-0.2,0.0,-0.9,1.5,9.600000000000001,-1.3,-1.7,1.0,16
781,13280.0,-0.2,-0.1,-0.1,-0.8,1.5,9.600000000000001,-3.8,-3.6000000000000005,-0.5,16
782,13296.0,-0.2,-0.1,-0.2,-0.8,1.5,9.5,-5.0,-3.6000000000000005,-1.4,16
783,13313.0,-0.2,0.0,-0.2,-0.8,1.6,9.5,-7.9,-5.2,-1.6,16
784,13333.0,0.0,-0.1,0.0,-0.7000000000000001,1.5,9.700000000000001,-7.400000000000001,-2.6,-2.5,16
785,13347.0,-0.1,0.0,0.1,-0.7000000000000001,1.5,9.8,-5.300000000000001,-0.9000000000000001,-3.0,16
786,13363.0,0.0,0.0,0.0,-0.7000000000000001,1.6,9.700000000000001,-1.2000000000000002,1.8000000000000003,-3.4,16
787,13379.0,0.0,0.1,0.0,-0.6000000000000001,1.6,9.700000000000001,-0.4,1.9,-3.8,16
788,13397.0,0.1,0.2,0.0,-0.6000000000000001,1.7000000000000002,9.700000000000001,-1.0,1.9,-4.9,16
789,13414.0,0.0,0.2,0.1,-0.6000000000000001,1.8,9.8,-1.9,2.6,-5.7,16
790,13438.0,-0.1,0.2,0.30000000000000004,-0.8,1.8,10.0,-0.30000000000000004,2.8,-4.9,16
791,13447.0,-0.1,0.2,0.30000000000000004,-0.8,1.8,10.0,1.1,2.8,-4.2,16
792,13463.0,-0.1,0.2,0.30000000000000004,-0.8,1.7000000000000002,9.9,2.0,1.7,-2.8,16
793,13480.0,0.0,0.2,0.1,-0.7000000000000001,1.7000000000000002,9.8,1.1,-1.6,-1.9,16
794,13496.0,0.0,0.1,0.1,-0.7000000000000001,1.6,9.8,0.1,-1.7,-1.9,16
795,13513.0,0.1,0.0,0.1,-0.6000000000000001,1.6,9.8,-0.30000000000000004,-1.8000000000000003,-2.4000000000000004,16
796,13534.0,-0.1,0.0,0.1,-0.8,1.6,9.8,2.8,0.6000000000000001,-2.7,16
797,13549.0,-0.2,0.0,0.0,-0.9,1.6,9.700000000000001,5.300000000000001,0.4,-1.1,16
798,13562.0,-0.2,0.0,-0.1,-0.9,1.6,9.600000000000001,5.4,0.0,-0.6000000000000001,16
799,13579.0,-0.2,0.1,-0.4,-0.9,1.7000000000000002,9.3,2.3,-2.7,-0.30000000000000004,16
800,13596.0,-0.2,0.1,-0.30000000000000004,-0.9,1.7000000000000002,9.3,0.2,-4.2,-0.7,16
801,13613.0,-0.2,0.1,-0.4,-0.8,1.7000000000000002,9.3,-2.2,-4.7,-1.0,16
802,13629.0,-0.2,0.1,-0.4,-0.9,1.7000000000000002,9.3,-2.6,-3.3000000000000007,-0.5,16
803,13646.0,-0.30000000000000004,0.2,-0.30000000000000004,-0.9,1.8,9.4,-2.2,0.30000000000000004,1.1,16
804,13663.0,-0.2,0.2,-0.30000000000000004,-0.9,1.8,9.4,-3.3000000000000007,3.5,1.9,16
805,13679.0,-0.30000000000000004,0.2,0.0,-1.0,1.8,9.700000000000001,-7.0,4.5,2.4000000000000004,16
806,13698.0,-0.30000000000000004,0.2,0.30000000000000004,-1.0,1.7000000000000002,10.0,-7.8,3.6000000000000005,2.0,16
807,13718.0,-0.30000000000000004,0.2,0.5,-1.0,1.8,10.200000000000001,-4.9,1.5,1.2000000000000002,16
808,13730.0,-0.2,0.30000000000000004,0.30000000000000004,-0.9,1.9000000000000001,10.0,-2.0,1.6,2.6,16
809,13746.0,-0.1,0.30000000000000004,0.30000000000000004,-0.8,1.9000000000000001,10.0,-2.2,1.4,3.4,16
810,13763.0,0.1,0.30000000000000004,0.2,-0.6000000000000001,1.8,9.9,-3.0,0.9000000000000001,3.3000000000000007,16
811,13779.0,0.1,0.30000000000000004,0.30000000000000004,-0.6000000000000001,1.8,10.0,-2.8,1.3,2.6,16
812,13796.0,0.0,0.2,0.30000000000000004,-0.7000000000000001,1.7000000000000002,10.100000000000001,-1.4,1.6,2.7,16
813,13813.0,0.0,0.1,0.4,-0.8,1.6,10.100000000000001,2.5,1.0,3.3000000000000007,16
814,13832.0,0.0,0.0,0.1,-0.7000000000000001,1.6,9.8,6.2,-1.9,3.3000000000000007,16
815,13848.0,0.2,0.0,-0.30000000000000004,-0.5,1.5,9.4,5.2,-5.8,2.6,16
816,13863.0,0.2,0.0,-0.4,-0.4,1.5,9.3,3.8,-6.300000000000001,2.0,16
817,13879.0,0.30000000000000004,0.0,-0.5,-0.4,1.5,9.200000000000001,-0.30000000000000004,-4.1,0.9000000000000001,16
818,13896.0,0.2,-0.1,-0.30000000000000004,-0.5,1.5,9.4,-1.6,-2.2,0.5,16
819,13913.0,-0.1,-0.1,0.0,-0.8,1.5,9.8,-0.4,2.4000000000000004,0.5,16
820,13931.0,-0.4,-0.1,0.30000000000000004,-1.0,1.5,10.0,3.6000000000000005,4.4,1.7,16
821,13946.0,-0.4,0.0,0.30000000000000004,-1.1,1.5,10.0,5.0,3.1,2.6,16
822,13963.0,-0.4,0.0,0.0,-1.1,1.6,9.700000000000001,2.7,-2.5,5.1000000000000005,16
823,13979.0,-0.1,0.0,-0.1,-0.8,1.6,9.600000000000001,-3.8,-8.2,5.6,16
824,13996.0,-0.1,0.0,-0.1,-0.7000000000000001,1.6,9.700000000000001,-6.600000000000001,-8.600000000000001,5.0,16
825,14012.0,0.1,0.2,0.30000000000000004,-0.5,1.7000000000000002,10.0,-4.7,-7.0,4.300000000000001,16
826,14030.0,0.0,0.30000000000000004,0.1,-0.6000000000000001,1.9000000000000001,9.8,3.1,1.3,5.4,16
827,14047.0,0.1,0.4,0.0,-0.5,2.0,9.700000000000001,5.2,3.1,6.4,16
828,14062.0,0.1,0.4,0.0,-0.5,2.0,9.700000000000001,3.9,5.6,5.9,16
829,14080.0,0.1,0.5,0.30000000000000004,-0.6000000000000001,2.1,10.0,1.3,3.9,3.9,16
830,14096.0,0.0,0.5,0.5,-0.7000000000000001,2.1,10.4,1.4,4.2,3.1,16
831,14113.0,-0.1,0.5,0.9,-0.7000000000000001,2.1,10.600000000000001,5.9,4.4,3.3000000000000007,16
832,14136.0,-0.1,0.4,1.0,-0.7000000000000001,2.0,10.600000000000001,12.4,4.1,4.2,16
833,14150.0,-0.1,0.30000000000000004,0.8,-0.8,2.1,10.5,17.9,0.9000000000000001,3.4,16
834,14162.0,-0.2,0.30000000000000004,0.7000000000000001,-0.8,2.1,10.4,20.2,-1.3,3.4,16
835,14180.0,-0.30000000000000004,0.4,0.30000000000000004,-1.0,2.3000000000000003,10.0,23.5,-1.6,5.4,16
836,14196.0,-0.4,0.30000000000000004,0.2,-1.1,2.1,9.700000000000001,23.700000000000003,-3.1,7.300000000000001,16
837,14213.0,-0.4,0.1,-0.1,-1.0,2.1,9.600000000000001,23.099999999999998,-8.100000000000001,10.0,16
838,14229.0,-0.4,0.0,-0.6000000000000001,-1.0,2.1,9.1,21.6,-14.400000000000002,12.0,16
839,14247.0,-0.1,0.0,-1.0,-0.6000000000000001,2.1,8.700000000000001,20.0,-17.799999999999997,15.100000000000001,16
840,14263.0,0.0,-0.1,-1.1,-0.5,2.1,8.5,18.8,-15.700000000000001,16.200000000000003,16
841,14280.0,0.1,-0.1,-1.2000000000000002,-0.4,2.1,8.4,14.600000000000001,-10.600000000000001,16.6,16
842,14297.0,-0.1,-0.2,-1.0,-0.5,2.1,8.6,10.700000000000001,-7.699999999999999,15.8,16
843,14314.0,0.0,-0.2,-0.9,-0.4,2.1,8.700000000000001,8.899999999999999,-6.9,16.1,16
844,14334.0,0.2,-0.30000000000000004,-0.9,-0.2,2.0,8.700000000000001,2.8,-3.3000000000000007,15.899999999999999,16
845,14346.0,0.2,-0.4,-0.5,-0.1,1.9000000000000001,9.1,-4.4,0.30000000000000004,12.600000000000001,16
846,14363.0,0.1,-0.5,-0.1,-0.2,1.8,9.5,-6.1000000000000005,3.0,10.600000000000001,16
847,14379.0,-0.2,-0.6000000000000001,0.6000000000000001,-0.5,1.7000000000000002,10.200000000000001,-2.8,5.300000000000001,7.8,16
848,14396.0,-0.2,-0.5,0.7000000000000001,-0.5,1.8,10.200000000000001,7.400000000000001,2.4000000000000004,7.0,16
849,14413.0,0.0,-0.4,0.2,-0.4,1.9000000000000001,9.8,10.299999999999999,0.6000000000000001,6.699999999999999,16
850,14429.0,0.30000000000000004,-0.2,-0.5,-0.1,2.1,9.0,6.600000000000001,-1.3,4.9,16
851,14448.0,0.30000000000000004,-0.2,-0.30000000000000004,-0.1,2.1,9.200000000000001,-2.8,-1.4,2.8,16
852,14463.0,0.2,-0.2,-0.1,-0.1,2.1,9.5,-5.300000000000001,-1.4,2.1,16
853,14479.0,0.1,-0.30000000000000004,0.2,-0.2,2.0,9.8,-4.1,-2.2,1.8000000000000003,16
854,14496.0,0.30000000000000004,-0.4,0.1,0.0,1.9000000000000001,9.600000000000001,0.6000000000000001,-1.2000000000000002,1.9,16
855,14513.0,0.30000000000000004,-0.30000000000000004,-0.1,0.0,1.9000000000000001,9.5,1.8000000000000003,0.6000000000000001,1.6,16
856,14529.0,0.30000000000000004,-0.30000000000000004,-0.1,0.0,1.9000000000000001,9.4,0.7,1.4,-0.2,16
857,14546.0,0.2,-0.2,-0.2,-0.1,2.1,9.4,-0.6000000000000001,-0.7,-2.9,16
858,14566.0,0.1,0.0,-0.30000000000000004,-0.2,2.3000000000000003,9.3,-1.7,-0.8,-2.4000000000000004,16
859,14579.0,0.1,0.0,-0.30000000000000004,-0.2,2.3000000000000003,9.3,-2.6,0.0,-1.4,16
860,14596.0,0.2,-0.1,-0.1,-0.1,2.1,9.5,-4.5,0.0,-0.8,16
861,14613.0,0.2,-0.2,0.0,-0.1,2.1,9.600000000000001,-4.4,-0.2,-1.5,16
862,14630.0,0.2,-0.1,0.1,-0.1,2.1,9.700000000000001,-3.7000000000000006,-0.8,-2.8,16
863,14648.0,0.2,-0.1,0.1,-0.1,2.1,9.700000000000001,-3.0,-0.2,-3.5,16
864,14665.0,0.1,0.0,0.1,-0.2,2.2,9.700000000000001,-1.9,0.1,-4.0,16
865,14679.0,0.1,0.0,0.1,-0.2,2.2,9.700000000000001,-1.9,0.2,-4.1,16
866,14696.0,0.0,0.0,0.0,-0.30000000000000004,2.2,9.600000000000001,-3.0,-0.8,-4.6,16
867,14714.0,0.0,0.0,0.1,-0.4,2.3000000000000003,9.700000000000001,-3.3000000000000007,-1.3,-5.0,16
868,14729.0,-0.1,0.1,0.1,-0.4,2.3000000000000003,9.700000000000001,-2.7,-1.7,-5.0,16
869,14746.0,0.0,0.1,0.0,-0.30000000000000004,2.2,9.600000000000001,-1.6,-0.8,-4.6,16
870,14763.0,0.0,0.1,0.0,-0.4,2.2,9.600000000000001,-0.9000000000000001,-0.2,-4.4,16
871,14782.0,-0.1,0.1,0.1,-0.5,2.2,9.700000000000001,1.0,0.4,-4.300000000000001,16
872,14797.0,-0.2,0.1,-0.1,-0.5,2.3000000000000003,9.600000000000001,2.0,-0.4,-3.3000000000000007,16
873,14812.0,-0.1,0.1,-0.1,-0.5,2.3000000000000003,9.5,1.5,-1.6,-2.7,16
874,14829.0,0.0,0.1,-0.2,-0.30000000000000004,2.3000000000000003,9.4,-0.6000000000000001,-3.4,-2.4000000000000004,16
875,14847.0,0.0,0.0,-0.1,-0.30000000000000004,2.2,9.5,-2.3,-2.2,-2.5,16
876,14863.0,0.0,0.0,0.0,-0.4,2.2,9.600000000000001,-2.0,-1.1,-2.2,16
877,14879.0,0.0,0.0,0.0,-0.4,2.2,9.600000000000001,0.5,0.7,-1.2000000000000002,16
878,14896.0,0.0,-0.1,-0.2,-0.30000000000000004,2.1,9.4,0.5,1.6,-0.9000000000000001,16
879,14913.0,0.0,-0.1,-0.1,-0.4,2.1,9.5,-0.6000000000000001,1.1,-1.5,16
880,14938.0,-0.1,0.0,0.1,-0.5,2.1,9.600000000000001,-1.3,-0.1,-1.9,16
881,14946.0,-0.1,0.0,0.0,-0.4,2.1,9.600000000000001,-0.7,0.0,-1.4,16
882,14963.0,-0.1,0.0,0.0,-0.30000000000000004,2.2,9.5,0.0,0.5,-0.6000000000000001,16
883,14981.0,0.1,0.0,-0.1,-0.30000000000000004,2.1,9.5,-0.2,1.0,-0.8,16
884,14996.0,0.0,0.0,0.0,-0.30000000000000004,2.2,9.5,-1.2000000000000002,2.1,-2.4000000000000004,16
885,15013.0,-0.1,0.1,0.1,-0.5,2.2,9.700000000000001,-0.6000000000000001,2.7,-2.1,16
886,15030.0,-0.1,0.1,0.1,-0.5,2.3000000000000003,9.700000000000001,0.2,2.6,-1.0,16
887,15046.0,0.0,0.0,0.0,-0.4,2.2,9.600000000000001,0.6000000000000001,1.1,0.4,16
888,15064.0,0.1,0.0,0.0,-0.30000000000000004,2.1,9.600000000000001,-1.6,-0.8,-0.30000000000000004,16
889,15079.0,0.1,0.0,0.0,-0.30000000000000004,2.1,9.600000000000001,-2.3,-0.9000000000000001,-1.1,16
890,15096.0,0.0,0.0,0.1,-0.30000000000000004,2.1,9.700000000000001,-1.7,-0.6000000000000001,-0.7,16
891,15113.0,0.1,-0.1,0.0,-0.30000000000000004,2.1,9.600000000000001,0.6000000000000001,0.1,0.0,16
892,15130.0,0.1,-0.1,-0.1,-0.2,2.1,9.5,1.2000000000000002,0.2,0.0,16
893,15148.0,0.1,-0.1,-0.2,-0.2,2.1,9.4,-0.30000000000000004,0.5,-0.9000000000000001,16
894,15162.0,0.1,-0.1,0.0,-0.30000000000000004,2.0,9.600000000000001,-2.3,-0.5,-1.8000000000000003,16
895,15179.0,0.1,-0.1,0.0,-0.30000000000000004,2.0,9.600000000000001,-2.2,-1.1,-1.8000000000000003,16
896,15196.0,0.1,-0.1,0.0,-0.30000000000000004,2.0,9.600000000000001,-1.1,-0.4,-2.1,16
897,15213.0,0.0,0.0,-0.1,-0.30000000000000004,2.1,9.5,0.4,0.6000000000000001,-2.5,16
898,15233.0,0.0,0.0,-0.2,-0.4,2.1,9.5,0.6000000000000001,1.3,-2.4000000000000004,16
899,15250.0,-0.1,0.0,-0.2,-0.5,2.1,9.4,-0.5,1.9,-1.9,16
900,15262.0,-0.2,0.0,-0.1,-0.6000000000000001,2.1,9.5,-2.3,0.1,-1.6,16
901,15280.0,-0.2,-0.1,-0.1,-0.6000000000000001,2.0,9.5,-3.0,-0.6000000000000001,-1.3,16
902,15296.0,-0.2,-0.2,-0.1,-0.6000000000000001,1.9000000000000001,9.4,-2.8,-3.1,-0.8,16
903,15316.0,-0.1,-0.1,-0.4,-0.5,1.9000000000000001,9.1,-2.6,-4.1,-0.5,16
904,15333.0,0.0,-0.2,-0.7000000000000001,-0.4,1.9000000000000001,8.8,-5.9,-1.8000000000000003,-0.6000000000000001,16
905,15346.0,0.0,-0.2,-0.6000000000000001,-0.30000000000000004,1.8,8.9,-7.699999999999999,-1.3,-0.9000000000000001,16
906,15363.0,0.0,-0.30000000000000004,-0.5,-0.4,1.7000000000000002,9.1,-9.899999999999999,2.2,-1.7,16
907,15379.0,0.1,-0.4,-0.4,-0.30000000000000004,1.6,9.200000000000001,-10.299999999999999,2.4000000000000004,-2.4000000000000004,16
908,15398.0,0.1,-0.30000000000000004,-0.2,-0.30000000000000004,1.7000000000000002,9.3,-10.600000000000001,5.6,-5.0,16
909,15413.0,-0.1,-0.1,0.2,-0.6000000000000001,1.9000000000000001,9.8,-9.600000000000001,10.0,-6.500000000000001,16
910,15430.0,-0.2,0.0,0.30000000000000004,-0.6000000000000001,1.9000000000000001,9.9,-8.8,10.9,-5.9,16
911,15446.0,0.0,0.0,0.4,-0.5,1.8,10.0,-8.2,9.4,-5.7,16
912,15463.0,0.0,0.0,0.5,-0.5,1.9000000000000001,10.100000000000001,-8.100000000000001,7.8,-7.400000000000001,16
913,15479.0,0.0,0.1,0.5,-0.5,1.9000000000000001,10.100000000000001,-7.9,7.300000000000001,-8.0,16
914,15496.0,0.0,0.2,0.6000000000000001,-0.5,2.0,10.200000000000001,-6.1000000000000005,6.500000000000001,-8.3,16
915,15513.0,0.1,0.30000000000000004,0.6000000000000001,-0.5,2.1,10.200000000000001,-3.0,6.600000000000001,-7.9,16
916,15536.0,0.0,0.30000000000000004,0.6000000000000001,-0.6000000000000001,2.1,10.200000000000001,-1.3,6.4,-6.8,16
917,15546.0,0.0,0.30000000000000004,0.6000000000000001,-0.6000000000000001,2.1,10.200000000000001,-0.5,4.9,-6.300000000000001,16
918,15564.0,0.1,0.30000000000000004,0.5,-0.5,2.1,10.100000000000001,1.8000000000000003,1.1,-5.500000000000001,16
919,15581.0,0.1,0.30000000000000004,0.2,-0.5,2.2,9.8,2.0,-2.1,-4.5,16
920,15596.0,0.2,0.30000000000000004,0.2,-0.4,2.2,9.8,1.6,-2.9,-3.5,16
921,15613.0,0.30000000000000004,0.2,0.1,-0.30000000000000004,2.1,9.700000000000001,1.5,-3.9,-1.5,16
922,15629.0,0.4,0.1,-0.1,-0.1,2.0,9.600000000000001,0.4,-4.5,-1.2000000000000002,16
923,15646.0,0.4,0.2,0.0,-0.2,2.0,9.600000000000001,0.1,-5.0,-1.7,16
924,15663.0,0.30000000000000004,0.2,0.0,-0.2,2.0,9.600000000000001,-0.1,-3.1,-1.9,16
925,15680.0,0.2,0.1,0.1,-0.4,2.0,9.700000000000001,-0.4,-2.9,-0.5,16
926,15697.0,0.2,0.1,0.1,-0.4,1.9000000000000001,9.8,0.1,-3.4,0.0,16
927,15713.0,0.1,-0.1,0.0,-0.4,1.8,9.700000000000001,1.1,-4.7,-0.5,16
928,15729.0,0.1,-0.1,0.0,-0.5,1.8,9.700000000000001,0.8,-4.9,-1.3,16
929,15746.0,-0.1,-0.1,0.0,-0.6000000000000001,1.8,9.700000000000001,0.2,-3.9,-2.5,16
930,15763.0,-0.2,0.0,0.0,-0.7000000000000001,1.8,9.600000000000001,2.4000000000000004,-3.3000000000000007,-2.4000000000000004,16
931,15779.0,-0.2,0.0,-0.2,-0.7000000000000001,1.9000000000000001,9.4,2.4000000000000004,-1.3,-1.9,16
932,15796.0,-0.2,0.0,-0.2,-0.7000000000000001,1.8,9.4,0.6000000000000001,-1.2000000000000002,-1.7,16
933,15813.0,-0.30000000000000004,-0.1,0.0,-0.8,1.8,9.700000000000001,-1.7,-1.4,-2.4000000000000004,16
934,15830.0,-0.4,-0.1,0.1,-0.9,1.8,9.8,-0.1,-1.5,-2.0,16
935,15848.0,-0.30000000000000004,0.0,0.0,-0.7000000000000001,1.9000000000000001,9.5,1.8000000000000003,-1.4,-1.2000000000000002,16
936,15862.0,-0.1,0.0,-0.30000000000000004,-0.6000000000000001,1.9000000000000001,9.3,2.6,-0.2,0.1,16
937,15879.0,0.0,0.1,-0.4,-0.5,2.0,9.200000000000001,-0.8,-0.2,0.4,16
938,15896.0,0.0,0.1,-0.4,-0.5,2.0,9.3,-2.7,0.30000000000000004,0.6000000000000001,16
939,15912.0,0.0,0.0,-0.2,-0.5,1.9000000000000001,9.4,-5.2,1.4,2.3,16
940,15930.0,0.2,-0.1,-0.1,-0.30000000000000004,1.7000000000000002,9.600000000000001,-5.1000000000000005,1.7,2.2,16
941,15946.0,0.2,-0.1,-0.1,-0.30000000000000004,1.7000000000000002,9.600000000000001,-4.5,1.8000000000000003,1.5,16
942,15962.0,0.30000000000000004,-0.1,0.1,-0.30000000000000004,1.7000000000000002,9.700000000000001,-4.1,2.5,0.7,16
943,15979.0,0.30000000000000004,-0.2,0.2,-0.30000000000000004,1.6,9.8,-3.8,3.9,0.1,16
944,15996.0,0.2,-0.2,0.2,-0.30000000000000004,1.6,9.9,-3.3000000000000007,3.8,-0.30000000000000004,16
945,16013.0,0.2,-0.1,0.30000000000000004,-0.4,1.6,10.0,-2.1,3.0,-1.6,16
946,16029.0,0.1,-0.1,0.4,-0.5,1.7000000000000002,10.100000000000001,-0.30000000000000004,2.3,-2.4000000000000004,16
947,16046.0,0.1,-0.1,0.4,-0.5,1.7000000000000002,10.0,0.4,1.9,-2.6,16
948,16063.0,0.1,0.0,0.4,-0.5,1.8,10.100000000000001,0.6000000000000001,1.2000000000000002,-2.8,16
949,16079.0,-0.1,0.0,0.4,-0.6000000000000001,1.8,10.100000000000001,0.6000000000000001,-0.30000000000000004,-2.5,16
950,16096.0,-0.1,0.0,0.4,-0.6000000000000001,1.8,10.0,0.8,-1.0,-2.1,16
951,16114.0,-0.1,0.0,0.30000000000000004,-0.6000000000000001,1.8,9.9,1.6,-2.4000000000000004,-1.1,16
952,16129.0,-0.1,0.0,0.2,-0.6000000000000001,1.8,9.8,2.7,-2.4000000000000004,-1.7,16
953,16146.0,-0.1,0.1,0.1,-0.7000000000000001,1.9000000000000001,9.8,3.4,-2.2,-1.6,16
954,16163.0,-0.1,0.1,-0.1,-0.7000000000000001,1.9000000000000001,9.600000000000001,3.5,-1.4,-0.2,16
955,16179.0,-0.1,0.0,-0.2,-0.6000000000000001,1.9000000000000001,9.4,0.4,-0.8,1.1,16
956,16196.0,-0.1,-0.1,-0.2,-0.7000000000000001,1.8,9.600000000000001,-1.3,-1.1,0.9000000000000001,16
957,16212.0,-0.30000000000000004,0.0,0.1,-0.8,1.8,9.700000000000001,-1.8000000000000003,0.2,0.2,16
958,16229.0,-0.4,0.0,0.1,-1.0,1.8,9.8,0.30000000000000004,0.7,1.6,16
959,16246.0,-0.5,0.0,0.0,-1.0,1.8,9.700000000000001,1.4,0.1,2.2,16
960,16264.0,-0.5,0.0,-0.1,-1.0,1.8,9.5,0.8,-0.9000000000000001,3.7000000000000006,16
961,16279.0,-0.4,0.0,-0.1,-0.9,1.8,9.600000000000001,-0.6000000000000001,-1.1,4.5,16
962,16296.0,-0.4,0.1,-0.1,-0.9,1.8,9.5,-0.6000000000000001,0.0,4.800000000000001,16
963,16313.0,-0.1,-0.2,-0.1,-0.6000000000000001,1.7000000000000002,9.600000000000001,1.3,1.7,5.9,16
964,16330.0,-0.30000000000000004,0.0,0.1,-0.9,1.9000000000000001,9.700000000000001,9.3,12.100000000000001,4.9,16
965,16346.0,-0.4,-0.1,-0.30000000000000004,-0.8,1.8,9.4,11.3,11.900000000000002,6.2,16
966,16363.0,-0.2,0.0,-0.30000000000000004,-0.8,1.9000000000000001,9.4,8.2,11.000000000000002,6.2,16
967,16379.0,-0.1,-0.1,-0.30000000000000004,-0.8,1.8,9.4,1.7,4.4,5.0,16
968,16398.0,-0.30000000000000004,0.0,-0.30000000000000004,-0.9,1.9000000000000001,9.4,-3.2,1.7,4.2,16
969,16415.0,-0.2,0.0,-0.2,-0.9,1.9000000000000001,9.4,-4.1,0.30000000000000004,4.7,16
970,16430.0,-0.4,0.0,-0.1,-1.1,1.9000000000000001,9.600000000000001,-1.9,3.9,5.500000000000001,16
971,16446.0,-0.4,0.1,-0.2,-1.0,2.0,9.5,3.0,5.2,8.100000000000001,16
972,16463.0,-0.30000000000000004,0.0,-0.2,-1.0,1.9000000000000001,9.4,4.7,6.300000000000001,9.4,16
973,16479.0,-0.30000000000000004,0.0,-0.5,-1.0,1.9000000000000001,9.1,5.300000000000001,8.100000000000001,10.8,16
974,16496.0,-0.4,-0.1,-0.4,-1.1,1.9000000000000001,9.1,3.2,9.600000000000001,12.4,16
975,16512.0,-0.6000000000000001,-0.2,-0.30000000000000004,-1.3,1.8,9.200000000000001,2.9,10.600000000000001,13.6,16
976,16530.0,-0.5,-0.30000000000000004,-0.1,-1.3,1.6,9.5,7.400000000000001,6.699999999999999,18.0,16
977,16546.0,-0.2,-0.4,-0.9,-1.0,1.6,8.700000000000001,8.0,3.8,20.5,16
978,16564.0,0.0,-0.30000000000000004,-1.1,-0.6000000000000001,1.8,8.3,3.3000000000000007,0.8,21.200000000000003,16
979,16580.0,0.2,-0.2,-1.2000000000000002,-0.6000000000000001,1.8,8.4,-10.9,1.1,20.2,16
980,16596.0,0.1,-0.30000000000000004,-0.30000000000000004,-0.7000000000000001,1.6,9.200000000000001,-25.5,4.9,20.900000000000002,16
981,16612.0,0.1,-0.5,0.4,-0.7000000000000001,1.4000000000000001,9.9,-28.3,5.4,21.0,16
982,16630.0,0.2,-0.4,1.1,-0.6000000000000001,1.4000000000000001,10.700000000000001,-19.700000000000003,8.600000000000001,19.700000000000003,16
983,16646.0,0.4,-0.2,0.8,-0.4,1.6,10.4,-8.700000000000001,9.5,20.3,16
984,16663.0,0.5,-0.1,0.4,-0.30000000000000004,1.7000000000000002,10.0,-7.400000000000001,10.8,19.5,16
985,16679.0,0.7000000000000001,0.0,0.1,-0.1,1.8,9.700000000000001,-12.8,11.1,16.1,16
986,16697.0,0.5,0.0,0.4,-0.30000000000000004,1.7000000000000002,10.0,-18.0,13.000000000000002,11.8,16
987,16712.0,0.4,0.0,0.5,-0.5,1.6,10.100000000000001,-18.0,14.700000000000001,10.600000000000001,16
988,16737.0,-0.1,0.0,0.9,-1.0,1.5,10.5,-11.3,16.700000000000003,11.3,16
989,16746.0,-0.1,-0.1,0.9,-1.1,1.5,10.5,-7.200000000000001,15.2,11.1,16
990,16763.0,-0.1,0.0,0.8,-1.1,1.6,10.4,-2.4000000000000004,13.700000000000001,10.600000000000001,16
991,16781.0,0.0,0.2,0.4,-1.0,1.8,10.100000000000001,6.1000000000000005,13.200000000000003,9.4,16
992,16796.0,-0.1,0.5,0.1,-1.1,2.1,9.700000000000001,11.4,12.7,10.5,16
993,16813.0,0.0,0.5,-0.1,-1.1,2.2,9.5,12.200000000000001,12.100000000000001,11.8,16
994,16830.0,0.1,0.5,-0.30000000000000004,-1.0,2.3000000000000003,9.200000000000001,8.600000000000001,10.200000000000001,13.3,16
995,16846.0,0.2,0.6000000000000001,-0.5,-0.9,2.3000000000000003,9.1,-1.4,4.800000000000001,13.399999999999999,16
996,16864.0,0.30000000000000004,0.6000000000000001,-0.30000000000000004,-0.8,2.1,9.5,-7.400000000000001,2.4000000000000004,13.000000000000002,16
997,16879.0,0.30000000000000004,0.30000000000000004,0.4,-0.8,2.0,10.0,-15.2,2.8,12.0,16
998,16896.0,0.2,0.2,1.1,-0.9,1.8,10.700000000000001,-9.899999999999999,7.400000000000001,10.8,16
999,16912.0,0.1,0.30000000000000004,1.3,-1.0,1.9000000000000001,10.9,-3.9,11.5,10.9,16
1000,16930.0,0.0,0.30000000000000004,1.6,-1.2000000000000002,1.9000000000000001,11.200000000000001,6.9,17.9,12.100000000000001,16
1001,16946.0,-0.30000000000000004,0.5,2.0,-1.5,2.2,11.600000000000001,18.3,18.6,11.1,16
1002,16962.0,-0.5,0.6000000000000001,1.8,-1.8,2.3000000000000003,11.4,24.400000000000002,17.799999999999997,11.8,16
1003,16979.0,-0.6000000000000001,0.8,1.1,-1.9000000000000001,2.7,10.700000000000001,32.7,8.8,17.200000000000003,16
1004,16996.0,-0.5,0.9,0.5,-1.6,2.9000000000000004,9.700000000000001,32.7,4.4,20.0,16
1005,17012.0,-0.2,0.8,-0.1,-1.5,2.8000000000000003,9.4,22.6,-3.1,23.900000000000006,16
1006,17029.0,0.1,0.5,-0.30000000000000004,-1.2000000000000002,2.6,9.3,9.700000000000001,-11.900000000000002,25.6,16
1007,17046.0,0.1,0.2,-0.5,-1.1,2.3000000000000003,9.1,5.500000000000001,-12.100000000000001,26.400000000000006,16
1008,17063.0,0.1,0.0,-0.4,-1.1,2.0,9.4,4.9,-10.5,27.099999999999998,16
1009,17079.0,0.1,-0.2,0.1,-1.0,2.0,9.700000000000001,8.600000000000001,-8.2,28.3,16
1010,17096.0,0.1,-0.4,-0.2,-1.0,1.8,9.3,13.000000000000002,-6.2,28.3,16
1011,17112.0,0.30000000000000004,-0.5,-0.5,-0.7000000000000001,1.8,9.0,4.7,-10.700000000000001,23.3,16
1012,17130.0,0.2,-0.6000000000000001,-0.5,-0.7000000000000001,1.7000000000000002,9.1,-0.6000000000000001,-12.7,20.0,16
1013,17146.0,0.2,-0.6000000000000001,-0.4,-0.7000000000000001,1.6,9.4,-5.6,-13.000000000000002,15.5,16
1014,17163.0,0.2,-0.7000000000000001,-0.1,-0.7000000000000001,1.5,9.5,-2.9,-6.8,11.8,16
1015,17182.0,0.2,-0.8,0.0,-0.7000000000000001,1.5,9.5,-0.6000000000000001,-3.2,9.700000000000001,16
1016,17196.0,0.30000000000000004,-0.8,0.2,-0.5,1.4000000000000001,9.8,7.500000000000001,1.0,5.300000000000001,16
1017,17212.0,0.4,-0.8,0.30000000000000004,-0.5,1.6,9.600000000000001,20.900000000000002,9.2,-0.30000000000000004,16
1018,17230.0,0.4,-0.5,-0.30000000000000004,-0.6000000000000001,1.9000000000000001,9.200000000000001,25.1,13.100000000000001,-2.0,16
1019,17246.0,0.4,-0.2,-0.8,-0.5,2.2,8.700000000000001,22.4,16.1,-3.6000000000000005,16
1020,17262.0,0.30000000000000004,0.0,-0.8,-0.7000000000000001,2.4000000000000004,8.700000000000001,12.7,13.399999999999999,-5.6,16
1021,17280.0,0.4,0.0,-0.8,-0.6000000000000001,2.5,8.700000000000001,7.200000000000001,10.1,-5.9,16
1022,17296.0,0.2,0.1,-0.8,-0.9,2.6,8.700000000000001,-5.8,3.0,-5.4,16
1023,17313.0,0.5,0.0,-0.1,-0.5,2.4000000000000004,9.4,-14.700000000000001,-6.0,-3.1,16
1024,17331.0,0.6000000000000001,-0.1,0.0,-0.4,2.3000000000000003,9.5,-15.100000000000001,-6.300000000000001,-3.5,16
1025,17349.0,0.6000000000000001,0.0,0.0,-0.4,2.4000000000000004,9.5,-13.3,-5.300000000000001,-4.9,16
1026,17362.0,0.6000000000000001,0.1,0.1,-0.4,2.4000000000000004,9.700000000000001,-9.3,0.6000000000000001,-4.4,16
1027,17379.0,0.5,0.1,0.2,-0.5,2.4000000000000004,9.700000000000001,-6.8,4.2,-3.5,16
1028,17396.0,0.4,-0.1,0.5,-0.6000000000000001,2.2,10.0,-3.3000000000000007,9.700000000000001,-1.3,16
1029,17412.0,0.2,-0.2,1.0,-0.8,2.1,10.5,4.4,10.1,-1.6,16
1030,17429.0,0.2,-0.1,1.0,-0.9,2.1,10.5,9.2,8.5,-2.0,16
1031,17447.0,0.2,0.0,0.2,-0.9,2.3000000000000003,9.8,11.8,4.5,-2.4000000000000004,16
1032,17462.0,0.1,0.0,-0.1,-0.9,2.4000000000000004,9.4,6.300000000000001,-0.30000000000000004,-3.4,16
1033,17479.0,0.2,0.1,-0.1,-0.9,2.4000000000000004,9.4,4.4,-1.6,-3.3000000000000007,16
1034,17496.0,0.30000000000000004,0.2,-0.5,-0.8,2.5,9.0,3.1,-0.30000000000000004,-2.1,16
1035,17512.0,0.2,0.2,-0.4,-0.9,2.5,9.1,-2.5,2.8,-0.4,16
1036,17529.0,0.1,0.1,0.0,-1.0,2.5,9.5,-5.500000000000001,5.0,0.5,16
1037,17546.0,-0.1,0.0,0.7000000000000001,-1.2000000000000002,2.3000000000000003,10.200000000000001,-4.2,7.6,0.7,16
1038,17562.0,-0.30000000000000004,0.1,0.6000000000000001,-1.5,2.4000000000000004,10.100000000000001,2.0,6.0,0.6000000000000001,16
1039,17579.0,-0.4,0.2,0.5,-1.6,2.5,10.0,4.5,4.1,1.2000000000000002,16
1040,17596.0,-0.5,0.2,-0.2,-1.6,2.6,9.3,5.4,0.2,4.5,16
1041,17616.0,-0.1,0.1,-0.6000000000000001,-1.2000000000000002,2.4000000000000004,8.9,1.7,-6.699999999999999,8.100000000000001,16
1042,17631.0,0.2,0.0,-0.8,-1.0,2.3000000000000003,8.700000000000001,-0.6000000000000001,-7.500000000000001,8.0,16
1043,17646.0,0.30000000000000004,-0.2,-0.7000000000000001,-0.8,2.2,8.8,-5.1000000000000005,-4.5,6.9,16
1044,17663.0,0.30000000000000004,-0.30000000000000004,0.0,-0.8,2.0,9.5,-1.7,-0.7,6.500000000000001,16
1045,17680.0,0.2,-0.4,0.2,-0.8,2.0,9.700000000000001,4.1,2.5,6.2,16
1046,17697.0,0.1,-0.30000000000000004,0.1,-1.0,2.2,9.600000000000001,14.900000000000002,8.100000000000001,6.2,16
1047,17712.0,0.0,-0.1,-0.2,-1.2000000000000002,2.4000000000000004,9.3,14.100000000000001,11.000000000000002,7.9,16
1048,17732.0,0.1,-0.2,0.1,-1.1,2.2,9.600000000000001,2.0,10.5,8.4,16
1049,17746.0,0.0,-0.30000000000000004,0.4,-1.2000000000000002,2.2,9.9,-3.9,9.600000000000001,6.9,16
1050,17762.0,-0.2,-0.30000000000000004,1.0,-1.4000000000000001,2.1,10.5,-7.699999999999999,6.9,4.4,16
1051,17779.0,-0.5,-0.4,0.9,-1.8,2.1,10.3,-5.500000000000001,6.0,3.9,16
1052,17796.0,-0.5,-0.2,0.7000000000000001,-1.7000000000000002,2.3000000000000003,10.200000000000001,4.1,-0.30000000000000004,8.0,16
1053,17812.0,-0.30000000000000004,-0.2,-0.30000000000000004,-1.4000000000000001,2.2,9.200000000000001,9.700000000000001,-3.2,12.4,16
1054,17830.0,0.2,-0.30000000000000004,-0.7000000000000001,-0.9,2.2,8.700000000000001,6.600000000000001,-6.600000000000001,12.600000000000001,16
1055,17846.0,0.4,-0.30000000000000004,-1.0,-0.7000000000000001,2.2,8.5,3.4,-7.8,11.700000000000001,16
1056,17862.0,0.6000000000000001,-0.30000000000000004,-1.2000000000000002,-0.5,2.2,8.3,-6.0,-8.4,9.4,16
1057,17880.0,0.7000000000000001,-0.5,-0.6000000000000001,-0.4,2.0,8.8,-12.5,-9.100000000000001,6.500000000000001,16
1058,17896.0,0.7000000000000001,-0.6000000000000001,-0.30000000000000004,-0.30000000000000004,1.9000000000000001,9.1,-11.4,-7.200000000000001,5.1000000000000005,16
1059,17913.0,0.8,-0.6000000000000001,-0.30000000000000004,-0.2,1.8,9.200000000000001,-5.0,0.1,2.8,16
1060,17931.0,0.8,-0.6000000000000001,-0.30000000000000004,-0.2,1.8,9.1,-2.6,8.8,-1.6,16
1061,17946.0,0.7000000000000001,-0.6000000000000001,-0.2,-0.4,1.8,9.3,-3.0,12.299999999999999,-4.300000000000001,16
1062,17962.0,0.4,-0.4,0.1,-0.7000000000000001,1.9000000000000001,9.600000000000001,-7.1000000000000005,17.7,-7.6,16
1063,17981.0,0.0,-0.5,0.8,-1.1,1.8,10.3,-14.5,19.400000000000002,-9.4,16
1064,17996.0,-0.1,-0.6000000000000001,1.4000000000000001,-1.3,1.7000000000000002,10.8,-14.800000000000002,17.1,-10.4,16
1065,18012.0,-0.1,-0.8,1.7000000000000002,-1.4000000000000001,1.5,11.200000000000001,-5.8,9.2,-13.200000000000003,16
1066,18029.0,0.0,-0.5,1.1,-1.3,1.7000000000000002,10.600000000000001,5.500000000000001,0.9000000000000001,-16.200000000000003,16
1067,18046.0,0.0,-0.4,0.8,-1.2000000000000002,1.9000000000000001,10.3,8.5,-1.4,-17.300000000000004,16
1068,18063.0,0.0,-0.1,0.30000000000000004,-1.3,2.1,9.8,11.000000000000002,-4.2,-17.9,16
1069,18080.0,0.0,0.0,0.0,-1.3,2.3000000000000003,9.4,12.200000000000001,-5.0,-16.200000000000003,16
1070,18099.0,-0.30000000000000004,0.0,-0.1,-1.5,2.3000000000000003,9.4,10.9,-7.8,-13.8,16
1071,18114.0,-0.30000000000000004,0.0,0.0,-1.6,2.4000000000000004,9.5,11.1,-10.600000000000001,-12.600000000000001,16
1072,18129.0,-0.5,0.2,-0.30000000000000004,-1.7000000000000002,2.6,9.1,11.6,-12.4,-9.600000000000001,16
1073,18146.0,-0.4,0.30000000000000004,-0.6000000000000001,-1.7000000000000002,2.7,8.9,9.8,-13.5,-7.200000000000001,16
1074,18162.0,-0.2,0.30000000000000004,-0.9,-1.4000000000000001,2.8000000000000003,8.6,-0.2,-13.5,-1.8000000000000003,16
1075,18179.0,0.1,0.2,-0.6000000000000001,-1.1,2.6,8.8,-10.200000000000001,-10.700000000000001,1.1,16
1076,18196.0,0.0,0.2,-0.4,-1.1,2.6,9.0,-13.3,-6.4,2.0,16
1077,18213.0,-0.1,0.1,0.1,-1.2000000000000002,2.4000000000000004,9.600000000000001,-15.2,0.2,4.4,16
1078,18235.0,-0.1,0.1,0.2,-1.2000000000000002,2.3000000000000003,9.700000000000001,-12.5,3.4,7.0,16
1079,18247.0,-0.1,0.0,0.0,-1.2000000000000002,2.1,9.5,-12.5,4.4,7.6,16
1080,18262.0,-0.1,-0.2,0.2,-1.2000000000000002,2.1,9.700000000000001,-14.400000000000002,1.7,6.500000000000001,16
1081,18279.0,-0.1,-0.1,0.5,-1.2000000000000002,2.1,10.0,-11.000000000000002,-0.7,3.9,16
1082,18296.0,-0.1,0.0,0.4,-1.3,2.2,9.9,-7.400000000000001,-0.6000000000000001,3.2,16
1083,18313.0,-0.2,0.30000000000000004,0.2,-1.3,2.4000000000000004,9.700000000000001,-2.7,0.2,3.9,16
1084,18330.0,-0.2,0.30000000000000004,0.1,-1.3,2.5,9.700000000000001,-2.8,0.9000000000000001,5.6,16
1085,18346.0,-0.1,0.30000000000000004,0.2,-1.3,2.5,9.700000000000001,-2.8,-0.5,6.500000000000001,16
1086,18363.0,-0.1,0.4,0.1,-1.2000000000000002,2.6,9.600000000000001,-1.3,-3.7000000000000006,7.500000000000001,16
1087,18379.0,-0.1,0.6000000000000001,-0.1,-1.2000000000000002,2.7,9.4,1.9,-3.8,9.8,16
1088,18397.0,-0.2,0.6000000000000001,-0.2,-1.2000000000000002,2.7,9.200000000000001,3.9,-1.7,12.0,16
1089,18412.0,-0.1,0.5,-0.5,-1.2000000000000002,2.7,9.0,6.500000000000001,5.4,17.7,16
1090,18429.0,0.0,0.2,-0.5,-1.1,2.5,9.1,2.0,9.2,22.2,16
1091,18446.0,0.0,0.1,-0.2,-1.1,2.4000000000000004,9.3,-1.3,8.100000000000001,23.5,16
1092,18463.0,0.1,0.0,0.1,-1.0,2.1,9.8,-3.6000000000000005,6.300000000000001,23.6,16
1093,18481.0,0.30000000000000004,-0.2,0.2,-0.8,2.1,9.700000000000001,-0.6000000000000001,4.4,22.6,16
1094,18496.0,0.5,-0.2,0.1,-0.6000000000000001,2.1,9.600000000000001,0.8,5.7,22.4,16
1095,18515.0,0.8,-0.30000000000000004,-0.2,-0.4,2.0,9.3,0.30000000000000004,11.3,21.400000000000002,16
1096,18533.0,0.9,-0.30000000000000004,-0.30000000000000004,-0.30000000000000004,1.9000000000000001,9.200000000000001,-3.7000000000000006,18.3,18.1,16
1097,18547.0,0.4,-0.30000000000000004,0.0,-0.9,1.9000000000000001,9.5,-7.699999999999999,29.0,12.7,16
1098,18562.0,-0.1,-0.2,0.4,-1.4000000000000001,2.0,9.9,-7.699999999999999,32.9,11.2,16
1099,18579.0,-0.5,-0.2,0.8,-1.9000000000000001,2.1,10.3,-3.8,34.60000000000001,12.299999999999999,16
1100,18596.0,-0.4,-0.2,0.5,-1.9000000000000001,2.0,10.0,-3.6000000000000005,27.2,13.000000000000002,16
1101,18616.0,0.1,-0.2,0.4,-1.5,2.0,9.9,-7.300000000000001,14.600000000000001,10.5,16
1102,18629.0,0.30000000000000004,-0.2,0.4,-1.2000000000000002,2.0,9.9,-7.300000000000001,11.8,8.899999999999999,16
1103,18646.0,0.5,-0.1,0.4,-1.0,2.1,9.9,-2.2,13.8,6.8,16
1104,18662.0,0.5,0.0,0.30000000000000004,-1.0,2.1,9.8,1.9,17.1,7.200000000000001,16
1105,18681.0,0.6000000000000001,-0.1,0.30000000000000004,-1.1,2.1,9.8,10.8,22.6,8.5,16
1106,18696.0,0.4,-0.2,0.0,-1.4000000000000001,2.1,9.5,13.5,22.8,8.899999999999999,16
1107,18713.0,0.30000000000000004,-0.2,0.0,-1.5,2.1,9.4,11.5,18.8,8.899999999999999,16
1108,18730.0,0.2,-0.4,-0.1,-1.6,1.9000000000000001,9.4,5.6,8.700000000000001,9.0,16
1109,18746.0,0.30000000000000004,-0.6000000000000001,-0.2,-1.5,1.7000000000000002,9.200000000000001,1.2000000000000002,1.3,8.8,16
1110,18763.0,0.2,-0.6000000000000001,-0.30000000000000004,-1.5,1.7000000000000002,9.1,0.0,-1.0,8.899999999999999,16
1111,18779.0,0.2,-0.6000000000000001,-0.30000000000000004,-1.6,1.7000000000000002,9.1,1.0,1.9,9.8,16
1112,18796.0,0.0,-0.6000000000000001,-0.4,-1.9000000000000001,1.7000000000000002,9.1,2.9,10.8,12.299999999999999,16
1113,18814.0,-0.30000000000000004,-0.6000000000000001,-0.30000000000000004,-2.1,1.7000000000000002,9.1,2.5,13.5,14.0,16
1114,18831.0,-0.30000000000000004,-0.6000000000000001,-0.2,-2.1,1.7000000000000002,9.200000000000001,-1.8000000000000003,12.7,16.6,16
1115,18847.0,-0.1,-0.30000000000000004,-0.2,-1.9000000000000001,2.0,9.200000000000001,-8.899999999999999,9.100000000000001,15.6,16
1116,18864.0,0.0,0.0,0.0,-1.8,2.3000000000000003,9.4,-16.900000000000002,8.3,16.3,16
1117,18879.0,0.1,0.0,0.0,-1.8,2.2,9.4,-22.000000000000004,8.600000000000001,16.4,16
1118,18896.0,0.4,-0.4,0.7000000000000001,-1.5,1.8,10.100000000000001,-32.6,3.6000000000000005,13.3,16
1119,18915.0,0.30000000000000004,-0.5,1.5,-1.5,1.5,10.9,-27.3,-1.0,4.9,16
1120,18929.0,0.2,-0.4,1.6,-1.7000000000000002,1.6,11.100000000000001,-18.0,-0.8,2.4000000000000004,16
1121,18946.0,-0.1,-0.2,1.3,-2.0,1.8,10.8,6.9,6.9,1.4,16
1122,18963.0,-0.30000000000000004,-0.1,1.0,-2.2,1.9000000000000001,10.5,17.200000000000003,11.3,2.1,16
1123,18981.0,-0.8,0.0,0.5,-2.8000000000000003,2.1,10.0,25.900000000000002,16.5,2.9,16
1124,18996.0,-1.7000000000000002,0.0,0.5,-3.7,2.2,10.0,21.300000000000004,7.0,4.7,16
1125,19013.0,-2.0,0.0,0.5,-4.0,2.2,10.0,17.7,-2.0,6.9,16
1126,19029.0,-1.7000000000000002,-0.1,0.0,-3.6,2.2,9.5,9.5,-20.7,13.000000000000002,16
1127,19046.0,-0.9,-0.30000000000000004,-0.7000000000000001,-2.7,2.0,8.8,-0.9000000000000001,-31.2,16.0,16
1128,19063.0,-0.5,-0.4,-0.8,-1.9000000000000001,1.9000000000000001,8.6,-5.4,-32.300000000000004,15.6,16
1129,19081.0,0.1,-0.4,-0.9,-1.6,1.9000000000000001,8.5,-10.0,-27.400000000000002,13.5,16
1130,19096.0,0.4,-0.30000000000000004,-0.9,-1.2000000000000002,1.9000000000000001,8.6,-9.100000000000001,-15.000000000000002,10.9,16
1131,19112.0,0.5,-0.30000000000000004,-0.8,-1.1,1.9000000000000001,8.700000000000001,-7.8,-8.100000000000001,9.4,16
1132,19131.0,0.5,-0.30000000000000004,-0.7000000000000001,-1.1,1.9000000000000001,8.8,-7.200000000000001,5.1000000000000005,4.9,16
1133,19146.0,0.1,-0.30000000000000004,-0.1,-1.5,1.9000000000000001,9.4,-8.899999999999999,10.1,-0.7,16
1134,19162.0,-0.1,-0.30000000000000004,0.4,-2.0,1.9000000000000001,10.100000000000001,-7.9,9.8,-3.4,16
1135,19179.0,-0.4,-0.30000000000000004,0.8,-2.1,1.9000000000000001,10.200000000000001,0.6000000000000001,4.9,-6.600000000000001,16
1136,19196.0,-0.4,-0.2,0.4,-2.1,2.0,9.9,10.5,-0.30000000000000004,-8.2,16
1137,19212.0,-0.4,-0.1,0.2,-2.0,2.1,9.700000000000001,13.6,-3.8,-9.100000000000001,16
1138,19229.0,-0.2,0.1,-0.2,-1.8,2.3000000000000003,9.3,15.8,-8.100000000000001,-11.2,16
1139,19246.0,-0.1,0.1,-0.30000000000000004,-1.8,2.4000000000000004,9.1,13.399999999999999,-8.600000000000001,-11.8,16
1140,19263.0,0.0,0.0,-0.1,-1.7000000000000002,2.3000000000000003,9.3,12.8,-10.299999999999999,-11.3,16
1141,19279.0,0.1,-0.1,-0.2,-1.5,2.2,9.3,15.399999999999999,-11.8,-11.000000000000002,16
1142,19296.0,0.5,-0.2,-0.6000000000000001,-1.1,2.2,8.8,20.400000000000002,-11.000000000000002,-12.9,16
1143,19315.0,0.6000000000000001,0.0,-1.0,-1.0,2.4000000000000004,8.5,20.7,-6.300000000000001,-15.899999999999999,16
1144,19329.0,0.6000000000000001,0.1,-1.0,-0.9,2.6,8.4,19.1,-3.7000000000000006,-16.5,16
1145,19346.0,0.7000000000000001,0.30000000000000004,-1.3,-0.9,2.8000000000000003,8.1,10.8,4.0,-15.399999999999999,16
1146,19362.0,0.9,0.1,-1.2000000000000002,-0.7000000000000001,2.6,8.200000000000001,-8.0,8.8,-13.3,16
1147,19380.0,0.9,-0.1,-0.7000000000000001,-0.7000000000000001,2.3000000000000003,8.700000000000001,-17.0,9.700000000000001,-14.100000000000001,16
1148,19396.0,0.8,-0.6000000000000001,0.6000000000000001,-0.9,1.8,9.9,-22.700000000000003,11.000000000000002,-18.8,16
1149,19412.0,0.4,-0.5,1.3,-1.3,1.9000000000000001,10.700000000000001,-9.2,10.700000000000001,-21.6,16
1150,19432.0,0.30000000000000004,-0.30000000000000004,1.3,-1.6,2.3000000000000003,10.4,2.4000000000000004,10.200000000000001,-21.500000000000004,16
1151,19448.0,0.30000000000000004,0.2,0.5,-1.5,2.5,9.9,21.8,7.8,-17.9,16
1152,19462.0,0.4,0.4,-0.1,-1.2000000000000002,3.0,8.8,24.900000000000002,5.8,-15.8,16
1153,19479.0,0.6000000000000001,0.7000000000000001,-0.9,-1.2000000000000002,3.1,8.5,14.900000000000002,1.4,-14.5,16
1154,19497.0,0.7000000000000001,0.7000000000000001,-0.7000000000000001,-1.1,3.1,8.6,-4.2,-3.3000000000000007,-14.800000000000002,16
1155,19512.0,0.30000000000000004,0.5,0.0,-1.5,2.9000000000000004,9.4,-14.600000000000001,0.6000000000000001,-12.200000000000001,16
1156,19531.0,0.0,0.30000000000000004,0.9,-1.8,2.6,10.3,-13.200000000000003,7.9,-5.9,16
1157,19546.0,-0.1,0.1,1.3,-2.0,2.4000000000000004,10.600000000000001,-9.700000000000001,10.700000000000001,-2.5,16
1158,19562.0,-0.1,-0.1,1.2000000000000002,-2.0,2.2,10.600000000000001,-3.4,14.400000000000002,1.4,16
1159,19580.0,-0.1,-0.2,1.1,-2.0,2.1,10.4,-3.7000000000000006,12.100000000000001,1.1,16
1160,19596.0,-0.2,-0.2,1.1,-2.2,2.1,10.4,-6.4,1.3,-1.3,16
1161,19613.0,-0.1,0.0,0.6000000000000001,-2.0,2.3000000000000003,10.0,-2.5,-10.299999999999999,-1.8000000000000003,16
1162,19630.0,0.0,0.1,0.2,-1.9000000000000001,2.4000000000000004,9.600000000000001,0.7,-13.100000000000001,-1.0,16
1163,19646.0,0.30000000000000004,0.30000000000000004,-0.6000000000000001,-1.5,2.6,8.8,4.0,-12.4,1.5,16
1164,19663.0,0.4,0.5,-0.8,-1.4000000000000001,2.8000000000000003,8.6,6.1000000000000005,-3.9,3.3000000000000007,16
1165,19679.0,0.4,0.5,-0.8,-1.4000000000000001,2.8000000000000003,8.6,6.300000000000001,1.3,4.1,16
1166,19696.0,0.1,0.5,-0.7000000000000001,-1.7000000000000002,2.9000000000000004,8.700000000000001,3.4,10.299999999999999,6.2,16
1167,19712.0,-0.30000000000000004,0.2,-0.1,-2.2,2.6,9.200000000000001,-0.9000000000000001,13.000000000000002,8.899999999999999,16
1168,19729.0,-0.6000000000000001,0.1,0.0,-2.5,2.5,9.4,-1.6,11.700000000000001,9.5,16
1169,19746.0,-1.0,0.0,0.2,-2.9000000000000004,2.4000000000000004,9.600000000000001,1.6,4.2,10.200000000000001,16
1170,19762.0,-0.7000000000000001,0.1,-0.5,-2.6,2.5,8.9,6.600000000000001,-7.300000000000001,12.5,16
1171,19780.0,-0.4,0.0,-1.1,-2.0,2.4000000000000004,7.800000000000001,6.4,-10.5,13.100000000000001,16
1172,19796.0,0.2,0.0,-1.7000000000000002,-1.6,2.5,7.6000000000000005,-1.6,-13.200000000000003,12.0,16
1173,19813.0,0.4,0.0,-1.7000000000000002,-1.3,2.5,7.6000000000000005,-9.700000000000001,-7.699999999999999,7.300000000000001,16
1174,19829.0,0.4,0.0,-1.5,-1.4000000000000001,2.4000000000000004,7.800000000000001,-12.5,-1.3,5.4,16
1175,19846.0,0.4,0.0,-1.0,-1.4000000000000001,2.4000000000000004,8.4,-14.600000000000001,12.100000000000001,3.3000000000000007,16
1176,19863.0,0.6000000000000001,0.0,-0.7000000000000001,-1.3,2.3000000000000003,8.6,-17.0,25.4,-0.30000000000000004,16
1177,19879.0,0.6000000000000001,0.0,-0.5,-1.3,2.2,8.8,-21.1,31.6,-3.9,16
1178,19896.0,0.0,0.0,0.4,-2.0,2.1,9.8,-31.0,38.50000000000001,-11.000000000000002,16
1179,19915.0,-0.4,-0.1,1.5,-2.6,1.9000000000000001,10.9,-29.500000000000004,37.7,-14.100000000000001,16
1180,19929.0,-0.7000000000000001,-0.2,1.8,-2.9000000000000004,1.8,11.200000000000001,-23.0,35.4,-15.100000000000001,16
1181,19946.0,-0.8,0.2,1.7000000000000002,-3.2,2.1,11.100000000000001,-3.7000000000000006,25.300000000000004,-14.900000000000002,16
1182,19963.0,-0.5,0.6000000000000001,0.4,-2.9000000000000004,2.6,9.700000000000001,7.1000000000000005,15.700000000000001,-11.2,16
1183,19979.0,-0.2,0.7000000000000001,-0.30000000000000004,-2.5,2.7,8.6,6.1000000000000005,12.299999999999999,-9.2,16
1184,19996.0,0.2,0.8,-0.9,-2.3000000000000003,2.8000000000000003,8.4,-3.9,6.600000000000001,-7.699999999999999,16
1185,20012.0,0.1,0.9,-0.7000000000000001,-2.4000000000000004,2.9000000000000004,8.6,-13.5,6.4,-6.8,16
1186,20029.0,0.0,1.1,-0.4,-2.7,3.0,9.200000000000001,-15.2,6.600000000000001,-5.0,16
1187,20047.0,-0.2,1.1,0.0,-2.7,3.0,9.3,-13.8,7.699999999999999,2.2,16
1188,20062.0,0.30000000000000004,1.1,-0.1,-2.3000000000000003,2.9000000000000004,9.200000000000001,-12.5,7.9,8.2,16
1189,20079.0,0.5,1.0,-0.30000000000000004,-2.0,2.8000000000000003,9.0,-21.1,9.899999999999999,10.200000000000001,16
1190,20096.0,0.5,1.0,0.0,-2.1,2.8000000000000003,9.3,-26.300000000000004,7.699999999999999,9.8,16
1191,20113.0,0.1,0.8,0.9,-2.5,2.5,10.3,-29.600000000000005,5.7,10.299999999999999,16
1192,20129.0,0.1,0.5,1.4000000000000001,-2.5,2.2,10.700000000000001,-21.400000000000002,-3.4,13.900000000000002,16
1193,20148.0,0.30000000000000004,0.5,1.3,-2.0,2.1,10.3,-8.100000000000001,-9.3,13.900000000000002,16
1194,20162.0,0.7000000000000001,0.5,0.4,-1.8,2.1,9.8,-4.0,-9.899999999999999,12.600000000000001,16
1195,20180.0,0.6000000000000001,0.7000000000000001,0.1,-1.9000000000000001,2.4000000000000004,9.5,-1.7,-6.699999999999999,10.700000000000001,16
1196,20196.0,0.30000000000000004,0.8,0.1,-2.1,2.4000000000000004,9.5,-1.0,-4.5,10.8,16
1197,20213.0,-0.30000000000000004,0.8,0.1,-2.8000000000000003,2.5,9.5,1.7,-0.6000000000000001,14.200000000000001,16
1198,20230.0,-0.30000000000000004,0.7000000000000001,-0.2,-2.8000000000000003,2.3000000000000003,9.200000000000001,0.7,-3.8,19.9,16
1199,20246.0,-0.2,0.5,-0.4,-2.6,2.2,9.0,-3.3000000000000007,-6.0,20.599999999999998,16
1200,20263.0,0.1,0.30000000000000004,-0.30000000000000004,-2.3000000000000003,2.0,9.1,-13.6,-11.700000000000001,18.200000000000003,16
1201,20279.0,0.0,0.4,0.2,-2.3000000000000003,2.0,9.600000000000001,-13.700000000000001,-11.4,15.000000000000002,16
1202,20296.0,0.1,0.4,0.30000000000000004,-2.2,2.1,9.700000000000001,-10.1,-10.200000000000001,15.700000000000001,16
1203,20312.0,0.5,0.5,0.0,-1.8,2.2,9.5,-1.8000000000000003,-8.0,16.1,16
1204,20332.0,0.7000000000000001,0.6000000000000001,-0.30000000000000004,-1.4000000000000001,2.3000000000000003,9.0,-1.6,-5.4,12.299999999999999,16
1205,20347.0,0.9,0.7000000000000001,-0.30000000000000004,-1.3,2.4000000000000004,9.200000000000001,-4.5,-1.9,10.4,16
1206,20363.0,0.5,0.5,0.6000000000000001,-1.8,2.2,10.100000000000001,-7.500000000000001,8.4,9.600000000000001,16
1207,20379.0,0.4,0.4,1.3,-1.9000000000000001,2.0,10.8,2.8,8.600000000000001,8.0,16
1208,20396.0,0.30000000000000004,0.4,1.1,-2.0,2.0,10.600000000000001,10.299999999999999,6.1000000000000005,6.4,16
1209,20413.0,0.30000000000000004,0.6000000000000001,0.5,-1.9000000000000001,2.4000000000000004,9.9,19.0,0.2,5.0,16
1210,20429.0,0.30000000000000004,0.9,-0.1,-2.0,2.7,9.3,17.7,-0.6000000000000001,5.500000000000001,16
1211,20446.0,0.1,1.1,-0.30000000000000004,-2.2,2.9000000000000004,9.200000000000001,13.200000000000003,0.30000000000000004,6.1000000000000005,16
1212,20462.0,-0.30000000000000004,1.1,-0.4,-2.5,2.9000000000000004,9.0,-4.0,-3.4,9.100000000000001,16
1213,20479.0,-0.4,0.6000000000000001,0.30000000000000004,-2.6,2.4000000000000004,9.8,-22.1,-11.700000000000001,10.299999999999999,16
1214,20497.0,-0.8,0.1,1.5,-3.0,1.8,11.0,-21.200000000000003,-18.0,12.7,16
1215,20512.0,-0.6000000000000001,-0.1,1.7000000000000002,-2.8000000000000003,1.7000000000000002,11.200000000000001,-11.700000000000001,-21.900000000000002,14.900000000000002,16
1216,20530.0,-0.1,0.2,0.7000000000000001,-2.2,2.0,10.200000000000001,10.5,-21.200000000000003,15.000000000000002,16
1217,20546.0,0.1,0.30000000000000004,-0.1,-1.9000000000000001,2.1,9.4,14.600000000000001,-19.5,14.800000000000002,16
1218,20563.0,0.7000000000000001,0.7000000000000001,-0.7000000000000001,-1.2000000000000002,2.5,8.8,7.8,-13.5,13.8,16
1219,20579.0,0.7000000000000001,0.8,-0.30000000000000004,-1.2000000000000002,2.7,9.3,-9.100000000000001,-0.5,10.700000000000001,16
1220,20596.0,0.4,0.7000000000000001,0.5,-1.5,2.5,10.0,-17.400000000000002,6.8,9.700000000000001,16
1221,20612.0,-0.1,0.30000000000000004,2.1,-2.1,2.0,11.600000000000001,-19.300000000000004,13.900000000000002,9.4,16
1222,20634.0,-0.4,0.0,2.5,-2.4000000000000004,1.7000000000000002,12.100000000000001,-4.2,13.8,10.0,16
1223,20647.0,-0.2,-0.1,1.5,-2.2,1.6,11.0,11.3,-1.1,10.0,16
1224,20662.0,0.1,-0.1,0.8,-1.9000000000000001,1.7000000000000002,10.3,15.899999999999999,-8.600000000000001,9.3,16
1225,20679.0,0.7000000000000001,0.0,-0.6000000000000001,-1.3,1.8,9.0,15.8,-12.4,6.9,16
1226,20700.0,1.0,0.0,-0.8,-0.8,1.9000000000000001,8.8,11.1,-11.000000000000002,4.6,16
1227,20712.0,1.1,0.0,-0.7000000000000001,-0.8,1.9000000000000001,8.9,10.700000000000001,-7.9,4.0,16
1228,20729.0,1.1,-0.2,-0.8,-0.7000000000000001,1.8,8.8,12.100000000000001,-3.9,4.5,16
1229,20745.0,1.1,-0.30000000000000004,-0.8,-0.8,1.6,8.9,12.299999999999999,-3.9,4.4,16
1230,20763.0,0.9,-0.6000000000000001,-0.4,-0.9,1.5,9.200000000000001,13.000000000000002,-4.800000000000001,4.2,16
1231,20779.0,0.9,-0.7000000000000001,0.0,-0.8,1.4000000000000001,9.5,21.300000000000004,-9.4,6.2,16
1232,20796.0,1.3,-0.8,-0.9,-0.4,1.4000000000000001,8.6,25.900000000000002,-10.299999999999999,7.200000000000001,16
1233,20813.0,1.5,-0.9,-1.2000000000000002,-0.2,1.4000000000000001,8.3,24.400000000000002,-9.600000000000001,5.8,16
1234,20829.0,1.3,-0.8,-1.1,-0.4,1.5,8.4,14.200000000000001,-4.2,0.7,16
1235,20846.0,0.9,-0.8,-0.8,-1.1,1.4000000000000001,9.1,7.9,-1.3,-0.9000000000000001,16
1236,20863.0,0.5,-1.0,-0.1,-1.2000000000000002,1.3,9.4,9.899999999999999,-3.3000000000000007,0.30000000000000004,16
1237,20879.0,0.6000000000000001,-1.0,-0.4,-1.1,1.3,9.1,15.5,-6.300000000000001,0.4,16
1238,20896.0,0.5,-0.6000000000000001,-0.8,-1.1,1.8,8.6,15.2,-6.1000000000000005,-1.3,16
1239,20914.0,0.30000000000000004,-0.6000000000000001,-0.8,-1.3,1.7000000000000002,8.6,5.7,-1.7,-5.500000000000001,16
1240,20929.0,0.30000000000000004,-0.7000000000000001,-0.30000000000000004,-1.3,1.7000000000000002,9.1,-9.2,-4.5,-7.6,16
1241,20948.0,0.2,-0.8,0.2,-1.3,1.5,9.600000000000001,-16.8,-2.0,-11.8,16
1242,20962.0,0.1,-0.8,0.4,-1.5,1.5,9.9,-17.7,-1.4,-14.100000000000001,16
1243,20979.0,-0.1,-0.8,0.8,-1.7000000000000002,1.4000000000000001,10.3,-15.2,-5.7,-16.5,16
1244,20996.0,0.1,-0.8,0.5,-1.4000000000000001,1.4000000000000001,10.0,-5.6,-9.899999999999999,-19.6,16
1245,21012.0,0.0,-0.6000000000000001,0.2,-1.5,1.5,9.700000000000001,-0.7,-6.9,-22.2,16
1246,21029.0,-0.5,-0.30000000000000004,-0.5,-2.1,1.9000000000000001,9.0,2.2,-1.4,-25.6,16
1247,21046.0,-0.7000000000000001,-0.1,-0.2,-2.3000000000000003,2.0,9.3,-4.7,-5.2,-26.300000000000004,16
1248,21064.0,-0.6000000000000001,0.0,0.2,-2.0,2.2,9.8,-6.4,-9.2,-26.400000000000006,16
1249,21079.0,-0.30000000000000004,0.2,0.1,-1.8,2.2,9.600000000000001,-4.4,-10.200000000000001,-27.3,16
1250,21096.0,0.1,0.4,0.2,-1.5,2.4000000000000004,9.8,-7.699999999999999,-6.600000000000001,-26.700000000000003,16
1251,21112.0,0.0,0.2,0.6000000000000001,-1.6,2.2,10.100000000000001,-11.1,-2.3,-25.4,16
1252,21129.0,0.0,-0.30000000000000004,2.1,-1.6,1.6,11.600000000000001,-8.5,2.0,-21.900000000000002,16
1253,21145.0,-0.1,-0.6000000000000001,2.6,-1.7000000000000002,1.3,12.100000000000001,11.000000000000002,1.4,-21.300000000000004,16
1254,21162.0,0.1,-0.4,2.2,-1.6,1.6,11.8,24.1,0.30000000000000004,-21.6,16
1255,21179.0,0.5,0.5,0.5,-1.1,2.6,10.0,38.2,5.8,-20.1,16
1256,21196.0,1.2000000000000002,1.3,-0.5,-0.5,3.4000000000000004,9.0,16.6,15.2,-13.3,16
1257,21212.0,1.1,1.2000000000000002,-0.7000000000000001,-0.6000000000000001,3.4000000000000004,8.8,-6.699999999999999,20.2,-11.2,16
1258,21229.0,0.8,0.30000000000000004,1.4000000000000001,-1.0,2.3000000000000003,10.9,-51.2,18.6,-8.3,16
1259,21246.0,-0.1,-0.8,3.4000000000000004,-2.0,1.0,13.0,-52.2,16.0,-12.0,16
1260,21262.0,-0.4,-0.9,4.1000000000000005,-2.3000000000000003,0.9,13.700000000000001,-33.800000000000004,8.8,-11.6,16
1261,21279.0,-0.4,-0.4,2.5,-2.2,1.4000000000000001,12.100000000000001,19.400000000000002,-8.600000000000001,-9.100000000000001,16
1262,21298.0,0.7000000000000001,0.2,-1.0,-1.1,2.1,8.6,41.800000000000004,-23.900000000000006,-2.7,16
1263,21312.0,0.9,0.5,-1.8,-0.8,2.5,7.800000000000001,36.0,-25.8,-2.3,16
1264,21330.0,1.3,0.5,-3.3000000000000003,-0.4,2.4000000000000004,6.300000000000001,-0.7,-16.3,-7.200000000000001,16
1265,21346.0,0.8,0.30000000000000004,-1.7000000000000002,-0.8,2.2,7.9,-28.800000000000004,-14.300000000000002,-17.9,16
1266,21363.0,0.1,0.1,-0.9,-2.0,2.0,9.200000000000001,-27.9,-8.899999999999999,-21.900000000000002,16
1267,21380.0,-0.6000000000000001,0.4,-0.4,-2.3000000000000003,2.2,9.3,-4.2,-4.800000000000001,-20.400000000000002,16
1268,21396.0,-1.1,0.6000000000000001,-1.3,-2.7,2.4000000000000004,8.3,18.8,-7.500000000000001,-13.200000000000003,16
1269,21413.0,-0.5,0.7000000000000001,-2.1,-2.1,2.7,7.5,27.9,-19.700000000000003,-4.6,16
1270,21429.0,-0.2,0.8,-2.7,-1.7000000000000002,2.8000000000000003,6.9,26.1,-19.300000000000004,-2.1,16
1271,21446.0,0.1,0.7000000000000001,-3.0,-1.4000000000000001,2.7,6.6000000000000005,11.1,-21.1,-1.4,16
1272,21463.0,0.2,0.6000000000000001,-2.6,-1.3,2.5,7.4,-0.6000000000000001,-20.900000000000002,-4.800000000000001,16
1273,21479.0,-0.1,0.30000000000000004,-1.6,-1.5,2.4000000000000004,8.0,-1.1,-19.200000000000003,-6.600000000000001,16
1274,21496.0,-0.5,0.5,-1.2000000000000002,-1.9000000000000001,2.5,8.3,1.6,-22.700000000000003,-6.1000000000000005,16
1275,21512.0,-0.4,0.4,-1.3,-1.7000000000000002,2.5,8.200000000000001,0.2,-28.3,-5.0,16
1276,21531.0,0.0,0.4,-1.5,-1.2000000000000002,2.4000000000000004,8.0,-10.1,-31.3,-6.1000000000000005,16
1277,21546.0,0.0,0.1,-0.6000000000000001,-1.1,2.1,9.0,-16.8,-25.6,-11.8,16
1278,21563.0,-0.2,0.1,0.2,-1.3,2.0,9.700000000000001,-9.3,-13.900000000000002,-17.7,16
1279,21579.0,-0.30000000000000004,0.1,0.30000000000000004,-1.4000000000000001,2.0,9.9,-3.3000000000000007,-10.5,-19.300000000000004,16
1280,21596.0,-0.2,0.4,0.0,-1.2000000000000002,2.3000000000000003,9.600000000000001,0.2,-6.4,-27.0,16
1281,21612.0,-0.30000000000000004,0.2,0.4,-1.4000000000000001,2.1,9.9,-6.9,-13.3,-31.5,16
1282,21629.0,-0.1,-0.2,1.0,-1.1,1.7000000000000002,10.5,-10.4,-15.2,-35.9,16
1283,21646.0,-0.9,0.2,1.6,-1.9000000000000001,2.1,11.3,-7.8,-13.700000000000001,-46.0,16
1284,21663.0,-0.8,0.4,1.3,-1.8,2.2,10.9,6.8,-9.8,-36.5,16
1285,21679.0,0.0,0.2,0.9,-1.0,2.1,10.5,11.1,-14.800000000000002,-31.9,16
1286,21696.0,1.1,-0.1,0.5,0.2,1.7000000000000002,10.100000000000001,1.1,-15.5,-32.6,16
1287,21712.0,1.2000000000000002,-0.6000000000000001,1.1,0.30000000000000004,1.1,10.8,-20.900000000000002,3.2,-40.800000000000004,16
1288,21729.0,1.2000000000000002,-1.1,1.6,0.2,0.6000000000000001,11.3,-27.5,11.900000000000002,-46.0,16
1289,21745.0,0.7000000000000001,-1.6,3.3000000000000003,-0.4,0.0,13.0,-21.6,30.1,-53.7,16
1290,21763.0,0.30000000000000004,-1.6,3.4000000000000004,-1.0,0.0,13.100000000000001,2.2,41.800000000000004,-59.40000000000001,16
1291,21780.0,0.0,-1.6,2.9000000000000004,-1.3,-0.1,12.600000000000001,10.299999999999999,37.400000000000006,-61.7,16
1292,21796.0,0.30000000000000004,-1.7000000000000002,2.0,-1.1,-0.2,11.8,10.0,20.1,-66.7,16
1293,21812.0,0.9,-2.1,1.1,-0.6000000000000001,-0.6000000000000001,10.9,6.9,-3.3000000000000007,-77.80000000000001,16
1294,21829.0,1.2000000000000002,-2.2,0.9,-0.30000000000000004,-0.7000000000000001,10.600000000000001,7.1000000000000005,-11.700000000000001,-84.5,16
1295,21847.0,1.2000000000000002,-2.2,0.6000000000000001,-0.2,-0.8,10.3,11.1,-9.600000000000001,-96.80000000000001,16
1296,21862.0,-0.1,-2.0,1.0,-1.7000000000000002,-0.6000000000000001,10.700000000000001,12.4,-1.4,-99.2,16
1297,21879.0,0.30000000000000004,-2.2,1.1,-1.3,-0.8,10.8,13.900000000000002,1.6,-95.69999999999999,16
1298,21896.0,-0.4,-2.1,0.6000000000000001,-2.0,-0.7000000000000001,10.3,12.299999999999999,-11.700000000000001,-97.8,16
