,ms,accelX,accelY,accelZ,accelWithGX,accelWithGY,accelWithGZ,rotRateAlpha,rotRateBeta,rotRateGamma,interval
0,109.0,0.0,0.0,-0.1,0.1,3.7,9.0,0.5,-1.9,-0.1,16
1,119.0,0.0,0.0,-0.1,0.1,3.7,8.9,0.4,-1.0,-0.1,16
2,135.0,0.0,0.0,-0.1,0.1,3.7,8.9,0.4,-1.0,-0.1,16
3,152.0,0.0,0.0,-0.1,0.1,3.7,9.0,0.2,0.7,-0.4,16
4,169.0,0.0,0.0,-0.1,0.1,3.7,9.0,0.0,2.2,-0.9000000000000001,16
5,185.0,0.0,0.0,-0.1,0.1,3.7,9.1,0.0,2.2,-0.9000000000000001,16
6,202.0,0.0,0.0,0.1,0.0,3.7,9.1,-0.1,2.8,-1.0,16
7,219.0,-0.1,0.0,0.1,0.0,3.7,9.200000000000001,0.1,2.3,-0.6000000000000001,16
8,235.0,0.0,0.0,0.1,0.0,3.7,9.1,0.4,0.5,-0.7,16
9,252.0,0.0,0.0,0.1,0.0,3.7,9.1,0.4,0.5,-0.7,16
10,268.0,-0.1,0.0,0.1,0.0,3.7,9.1,0.0,0.9000000000000001,-0.6000000000000001,16
11,285.0,0.0,0.0,0.1,0.0,3.7,9.200000000000001,0.5,-0.2,-0.9000000000000001,16
12,302.0,0.0,0.0,0.1,0.0,3.7,9.200000000000001,0.5,-0.2,-0.9000000000000001,16
13,319.0,0.0,0.0,0.0,0.0,3.7,9.1,0.8,-0.7,-1.2000000000000002,16
14,335.0,-0.1,0.0,0.1,0.0,3.7,9.200000000000001,1.0,0.0,-0.7,16
15,352.0,-0.1,0.0,0.1,0.0,3.7,9.200000000000001,1.0,0.0,-0.7,16
16,369.0,0.0,0.0,0.1,0.0,3.7,9.200000000000001,1.3,-1.0,-0.9000000000000001,16
17,385.0,0.0,0.0,0.0,0.0,3.8000000000000003,9.1,1.0,-1.7,-1.4,16
18,402.0,0.0,0.0,0.0,0.0,3.8000000000000003,9.0,1.0,-1.7,-1.4,16
19,418.0,0.0,0.0,-0.1,0.0,3.8000000000000003,9.0,0.9000000000000001,-0.9000000000000001,-1.6,16
20,435.0,0.0,0.1,-0.1,0.0,3.9000000000000004,9.0,1.1,0.1,-2.0,16
21,452.0,-0.1,0.1,-0.1,0.0,3.9000000000000004,9.1,1.1,0.1,-2.0,16
22,469.0,0.0,0.1,0.0,0.0,3.9000000000000004,9.1,1.1,0.6000000000000001,-1.6,16
23,485.0,0.0,0.1,0.0,0.0,3.9000000000000004,9.0,0.9000000000000001,-0.30000000000000004,-1.2000000000000002,16
24,502.0,0.0,0.1,-0.1,0.0,3.9000000000000004,8.9,0.9000000000000001,-0.30000000000000004,-1.2000000000000002,16
25,518.0,0.0,0.1,-0.1,0.0,3.9000000000000004,9.0,-0.1,0.6000000000000001,-1.2000000000000002,16
26,535.0,0.0,0.1,0.1,-0.1,3.9000000000000004,9.200000000000001,0.4,2.0,-0.4,16
27,552.0,-0.1,0.1,0.1,-0.1,3.9000000000000004,9.200000000000001,0.4,2.0,-0.4,16
28,568.0,0.0,0.0,0.0,0.1,3.8000000000000003,9.0,2.1,-0.1,0.2,16
29,585.0,0.1,0.0,-0.2,0.1,3.9000000000000004,8.8,-0.4,-1.3,-0.8,16
30,602.0,0.0,0.1,-0.30000000000000004,0.0,3.9000000000000004,8.9,-0.4,-1.3,-0.8,16
31,620.0,0.0,0.1,0.0,0.0,3.9000000000000004,9.200000000000001,-2.9,0.5,-0.30000000000000004,16
32,636.0,0.0,0.0,0.1,0.1,3.8000000000000003,9.1,-1.3,0.1,0.7,16
33,653.0,0.0,0.0,0.0,0.0,3.7,9.1,-0.4,0.8,0.1,16
34,669.0,0.0,0.0,0.0,0.0,3.8000000000000003,9.1,-0.4,0.8,0.1,16
35,685.0,0.0,0.0,0.0,0.0,3.9000000000000004,9.0,-0.1,1.1,-0.2,16
36,702.0,0.0,0.1,-0.1,0.0,3.9000000000000004,9.0,-1.7,1.6,-0.1,16
37,719.0,0.0,0.1,0.0,-0.1,3.9000000000000004,9.200000000000001,-1.7,1.6,-0.1,16
38,735.0,-0.1,0.1,0.2,-0.1,3.9000000000000004,9.3,-1.8000000000000003,2.6,0.5,16
39,752.0,-0.1,0.1,0.2,-0.2,3.9000000000000004,9.200000000000001,0.9000000000000001,0.0,1.5,16
40,769.0,-0.2,0.1,0.1,-0.2,3.9000000000000004,9.1,0.9000000000000001,0.0,1.5,16
41,785.0,-0.2,0.2,0.1,-0.30000000000000004,4.0,9.1,0.30000000000000004,0.4,2.5,16
42,802.0,-0.2,0.2,0.0,-0.2,3.9000000000000004,9.0,-1.6,1.2000000000000002,5.500000000000001,16
43,819.0,-0.2,0.1,0.0,-0.2,3.8000000000000003,9.0,-1.6,1.2000000000000002,5.500000000000001,16
44,835.0,-0.1,0.0,-0.1,-0.2,3.7,9.0,-2.9,1.1,6.300000000000001,16
45,852.0,-0.2,-0.1,0.1,-0.2,3.7,9.200000000000001,-1.2000000000000002,2.9,6.699999999999999,16
46,869.0,-0.2,-0.1,0.1,-0.2,3.7,9.200000000000001,-1.2000000000000002,2.9,6.699999999999999,16
47,885.0,-0.2,0.0,0.0,-0.30000000000000004,3.8000000000000003,9.1,1.0,3.7000000000000006,7.1000000000000005,16
48,902.0,-0.1,0.0,0.0,-0.2,3.7,9.200000000000001,-1.2000000000000002,6.600000000000001,8.700000000000001,16
49,919.0,-0.1,-0.1,0.1,-0.2,3.6,9.3,-1.2000000000000002,6.600000000000001,8.700000000000001,16
50,935.0,0.0,-0.2,0.2,-0.1,3.6,9.4,-2.2,4.6,8.700000000000001,16
51,952.0,0.0,-0.2,0.30000000000000004,0.0,3.6,9.3,-0.2,2.6,7.9,16
52,968.0,0.1,-0.2,0.2,0.0,3.6,9.4,-0.2,2.6,7.9,16
53,985.0,0.1,-0.1,0.30000000000000004,0.0,3.7,9.600000000000001,0.0,3.9,7.699999999999999,16
54,1002.0,0.1,-0.1,0.4,0.1,3.7,9.4,3.7000000000000006,1.9,8.2,16
55,1019.0,0.2,-0.1,0.1,0.1,3.7,9.200000000000001,3.3000000000000007,0.9000000000000001,8.2,16
56,1035.0,0.2,-0.1,0.0,0.1,3.7,9.1,3.3000000000000007,0.9000000000000001,8.2,16
57,1052.0,0.2,-0.1,-0.1,0.1,3.6,9.200000000000001,-0.5,1.1,8.100000000000001,16
58,1069.0,0.2,-0.1,0.0,0.1,3.6,9.3,-0.5,1.1,8.100000000000001,16
59,1085.0,0.1,-0.2,0.1,0.2,3.5,9.200000000000001,0.5,0.7,8.0,16
60,1102.0,0.2,-0.2,-0.1,0.2,3.6,8.9,3.9,-2.8,5.4,16
61,1119.0,0.30000000000000004,-0.1,-0.5,0.4,3.7,8.5,1.8000000000000003,-3.5,4.5,16
62,1135.0,0.30000000000000004,0.0,-0.6000000000000001,0.4,3.8000000000000003,8.4,1.8000000000000003,-3.5,4.5,16
63,1152.0,0.30000000000000004,0.1,-0.7000000000000001,0.4,3.8000000000000003,8.4,-2.4000000000000004,-2.7,3.7000000000000006,16
64,1168.0,0.30000000000000004,0.1,-0.7000000000000001,0.4,3.8000000000000003,8.5,-6.699999999999999,-0.5,3.4,16
65,1185.0,0.2,0.1,-0.6000000000000001,0.30000000000000004,3.8000000000000003,8.6,-9.2,1.2000000000000002,2.8,16
66,1202.0,0.2,0.1,-0.30000000000000004,0.2,3.7,8.8,-10.1,4.4,1.9,16
67,1218.0,0.1,0.1,-0.1,0.0,3.9000000000000004,9.0,-9.0,6.300000000000001,0.5,16
68,1235.0,0.0,0.2,0.0,0.0,3.9000000000000004,9.1,-9.0,6.300000000000001,0.5,16
69,1252.0,-0.1,0.2,0.0,-0.1,3.7,9.200000000000001,-9.8,5.8,1.5,16
70,1269.0,-0.1,0.1,0.2,-0.1,3.6,9.4,-12.7,5.6,2.5,16
71,1285.0,-0.1,0.0,0.30000000000000004,-0.2,3.6,9.600000000000001,-12.7,5.6,2.5,16
72,1302.0,-0.30000000000000004,0.0,0.6000000000000001,-0.30000000000000004,3.6,9.9,-12.600000000000001,4.6,2.2,16
73,1318.0,-0.30000000000000004,0.0,0.7000000000000001,-0.30000000000000004,3.5,10.0,-10.299999999999999,2.4000000000000004,4.2,16
74,1335.0,-0.30000000000000004,0.0,0.8,-0.30000000000000004,3.4000000000000004,10.0,-10.299999999999999,2.4000000000000004,4.2,16
75,1352.0,-0.2,-0.1,0.7000000000000001,-0.2,3.3000000000000003,9.9,-9.600000000000001,-0.2,4.6,16
76,1368.0,-0.2,-0.1,0.6000000000000001,-0.2,3.4000000000000004,9.9,-8.4,-4.1,4.2,16
77,1385.0,-0.2,0.0,0.6000000000000001,-0.2,3.4000000000000004,9.9,-8.4,-4.1,4.2,16
78,1402.0,-0.2,-0.1,0.6000000000000001,-0.1,3.3000000000000003,9.8,-6.0,-4.2,5.300000000000001,16
79,1418.0,-0.1,-0.1,0.4,0.1,3.3000000000000003,9.600000000000001,0.1,-4.6,6.4,16
80,1435.0,0.0,-0.1,0.30000000000000004,0.1,3.3000000000000003,9.5,0.1,-4.6,6.4,16
81,1452.0,0.1,-0.1,0.1,0.2,3.3000000000000003,9.3,1.0,-5.1000000000000005,5.8,16
82,1468.0,0.1,-0.1,-0.1,0.2,3.3000000000000003,9.200000000000001,0.1,-2.2,5.4,16
83,1485.0,0.1,-0.1,-0.1,0.2,3.3000000000000003,9.3,0.1,-2.2,5.4,16
84,1502.0,0.1,-0.2,-0.1,0.30000000000000004,3.1,9.200000000000001,1.1,-0.6000000000000001,5.6,16
85,1518.0,0.2,-0.30000000000000004,-0.2,0.4,3.1,9.1,1.1,0.8,3.8,16
86,1535.0,0.30000000000000004,-0.30000000000000004,-0.2,0.30000000000000004,3.1,9.1,1.1,0.8,3.8,16
87,1552.0,0.1,-0.2,-0.1,0.30000000000000004,3.1,9.3,0.2,0.7,2.3,16
88,1568.0,0.1,-0.2,0.0,0.30000000000000004,3.2,9.200000000000001,0.6000000000000001,-0.6000000000000001,1.4,16
89,1585.0,0.2,0.0,-0.2,0.30000000000000004,3.4000000000000004,9.1,1.5,-1.6,0.7,16
90,1602.0,0.2,0.0,-0.2,0.30000000000000004,3.4000000000000004,9.0,1.3,-1.9,0.0,16
91,1619.0,0.1,0.1,-0.30000000000000004,0.30000000000000004,3.5,9.0,0.2,-0.4,-0.30000000000000004,16
92,1635.0,0.1,0.1,-0.2,0.2,3.4000000000000004,9.3,-1.6,4.7,0.6000000000000001,16
93,1652.0,0.1,0.0,0.0,0.2,3.4000000000000004,9.3,-1.6,4.7,0.6000000000000001,16
94,1668.0,0.0,0.0,0.0,0.2,3.4000000000000004,9.3,-0.9000000000000001,5.2,0.4,16
95,1685.0,0.0,0.1,0.1,0.1,3.4000000000000004,9.5,-2.2,5.2,0.5,16
96,1702.0,-0.1,0.1,0.2,0.1,3.4000000000000004,9.5,-2.2,5.2,0.5,16
97,1718.0,0.0,0.0,0.2,0.1,3.4000000000000004,9.4,-2.6,2.6,0.8,16
98,1735.0,0.0,0.1,0.0,0.1,3.4000000000000004,9.200000000000001,-3.5,0.1,0.5,16
99,1752.0,0.0,0.1,-0.1,0.1,3.4000000000000004,9.200000000000001,-3.5,0.1,0.5,16
100,1769.0,0.0,0.1,0.0,0.2,3.4000000000000004,9.4,-4.300000000000001,1.4,0.4,16
101,1785.0,0.0,0.1,0.1,0.1,3.4000000000000004,9.5,-3.4,1.6,-0.2,16
102,1802.0,0.0,0.1,0.2,0.1,3.4000000000000004,9.600000000000001,-3.4,1.6,-0.2,16
103,1818.0,0.0,0.0,0.2,0.0,3.3000000000000003,9.600000000000001,-2.5,2.5,0.1,16
104,1835.0,0.0,0.0,0.2,0.0,3.3000000000000003,9.5,-1.5,2.0,-0.2,16
105,1852.0,-0.1,0.0,0.2,0.0,3.3000000000000003,9.600000000000001,-1.5,2.0,-0.2,16
106,1868.0,-0.1,0.0,0.2,0.0,3.3000000000000003,9.600000000000001,-0.7,1.6,0.0,16
107,1885.0,-0.1,0.0,0.1,0.0,3.3000000000000003,9.4,1.0,-1.0,0.5,16
108,1902.0,-0.1,0.0,0.0,0.0,3.3000000000000003,9.4,1.0,-1.0,0.5,16
109,1918.0,0.0,-0.1,0.0,0.1,3.2,9.5,0.1,-0.8,0.8,16
110,1935.0,0.0,-0.1,0.2,0.1,3.2,9.600000000000001,0.8,-2.1,-0.1,16
111,1952.0,0.0,-0.1,0.2,0.1,3.3000000000000003,9.600000000000001,0.8,-2.1,-0.1,16
112,1968.0,-0.1,0.1,0.1,-0.1,3.5,9.3,1.8000000000000003,-2.6,-0.30000000000000004,16
113,1988.0,0.1,0.2,0.1,0.4,3.3000000000000003,9.4,-0.1,-1.8000000000000003,1.0,16
114,2002.0,0.2,0.0,0.0,0.30000000000000004,3.2,9.5,-0.1,-1.8000000000000003,1.0,16
115,2018.0,0.1,0.0,0.2,0.1,3.4000000000000004,9.5,1.9,2.0,-0.1,16
116,2035.0,0.0,0.1,0.1,0.1,3.4000000000000004,9.5,4.6,1.5,-0.4,16
117,2053.0,0.0,0.1,0.1,0.2,3.4000000000000004,9.4,5.9,1.5,0.7,16
118,2069.0,0.1,0.0,0.0,0.2,3.4000000000000004,9.5,5.9,1.5,0.7,16
119,2085.0,0.0,0.0,0.1,0.1,3.4000000000000004,9.5,4.800000000000001,1.3,0.30000000000000004,16
120,2106.0,0.0,0.0,0.1,0.1,3.3000000000000003,9.4,2.8,-0.5,0.1,16
121,2127.0,0.0,-0.1,0.0,0.1,3.3000000000000003,9.4,1.3,-1.2000000000000002,0.1,16
122,2135.0,0.0,-0.1,0.1,0.1,3.3000000000000003,9.600000000000001,1.3,-1.2000000000000002,0.1,16
123,2153.0,-0.1,-0.2,0.30000000000000004,0.2,3.1,9.700000000000001,-6.8,-11.8,-0.8,16
124,2169.0,0.0,-0.2,0.30000000000000004,0.2,3.1,9.700000000000001,-6.8,-11.8,-0.8,16
125,2186.0,0.0,-0.30000000000000004,0.2,0.1,3.1,9.600000000000001,-9.899999999999999,-19.1,-2.9,16
126,2203.0,-0.2,-0.2,0.0,0.1,3.1,9.4,-10.0,-20.599999999999998,-4.0,16
127,2227.0,-0.2,-0.1,-0.1,0.1,3.0,9.200000000000001,0.9000000000000001,-11.2,-1.1,16
128,2236.0,-0.2,-0.30000000000000004,-0.2,0.4,3.0,9.1,0.9000000000000001,-11.2,-1.1,16
129,2252.0,0.2,-0.30000000000000004,-0.4,0.4,3.0,8.9,13.5,5.1000000000000005,0.6000000000000001,16
130,2269.0,0.1,-0.30000000000000004,-0.5,0.5,3.0,8.8,13.5,5.1000000000000005,0.6000000000000001,16
131,2285.0,0.2,-0.2,-0.7000000000000001,0.5,3.2,8.6,13.200000000000003,3.9,-0.30000000000000004,16
132,2302.0,0.2,0.0,-0.8,0.5,3.4000000000000004,8.4,2.8,-2.4000000000000004,-3.1,16
133,2325.0,0.1,0.2,-0.8,0.4,3.6,8.5,-2.6,-3.1,-3.4,16
134,2336.0,0.1,0.30000000000000004,-0.7000000000000001,0.30000000000000004,3.7,8.6,-2.6,-3.1,-3.4,16
135,2352.0,-0.1,0.5,-0.5,0.2,3.8000000000000003,8.8,-7.500000000000001,-2.2,-1.8000000000000003,16
136,2369.0,-0.1,0.5,-0.4,0.2,3.8000000000000003,8.8,-7.500000000000001,-2.2,-1.8000000000000003,16
137,2385.0,-0.30000000000000004,0.5,-0.2,-0.1,3.9000000000000004,9.1,-7.400000000000001,0.6000000000000001,-1.3,16
138,2402.0,-0.6000000000000001,0.6000000000000001,0.2,-0.4,4.0,9.5,-2.7,3.9,1.9,16
139,2423.0,-0.7000000000000001,0.7000000000000001,0.30000000000000004,-0.5,4.1000000000000005,9.4,-0.4,0.2,4.9,16
140,2439.0,-0.7000000000000001,0.7000000000000001,0.2,-0.4,4.1000000000000005,9.1,-0.4,0.2,4.9,16
141,2455.0,-0.7000000000000001,0.6000000000000001,-0.30000000000000004,-0.4,4.0,8.9,-0.1,-2.8,8.100000000000001,16
142,2471.0,-0.7000000000000001,0.5,-0.7000000000000001,-0.4,3.8000000000000003,8.3,-4.1,-6.300000000000001,11.900000000000002,16
143,2485.0,-0.7000000000000001,0.4,-0.9,-0.30000000000000004,3.9000000000000004,8.200000000000001,-4.1,-6.300000000000001,11.900000000000002,16
144,2502.0,-0.5,0.6000000000000001,-1.1,-0.1,4.1000000000000005,8.0,-6.9,-6.8,13.6,16
145,2527.0,-0.30000000000000004,0.8,-1.4000000000000001,0.30000000000000004,4.2,7.7,-16.700000000000003,-2.7,18.1,16
146,2535.0,-0.2,0.9,-1.5,0.30000000000000004,4.1000000000000005,7.9,-16.700000000000003,-2.7,18.1,16
147,2553.0,-0.1,0.8,-1.1,0.4,3.8000000000000003,8.5,-23.3,4.800000000000001,19.9,16
148,2569.0,0.0,0.7000000000000001,-0.7000000000000001,0.5,3.7,8.8,-26.799999999999997,11.1,21.400000000000002,16
149,2585.0,0.1,0.5,-0.30000000000000004,0.6000000000000001,3.4000000000000004,9.1,-26.6,14.200000000000001,21.1,16
150,2603.0,0.5,0.30000000000000004,-0.1,0.8,3.3000000000000003,9.3,-25.200000000000003,15.299999999999999,20.7,16
151,2626.0,0.5,0.30000000000000004,0.2,0.8,3.2,9.600000000000001,-23.099999999999998,18.0,17.799999999999997,16
152,2635.0,0.5,0.30000000000000004,0.30000000000000004,0.7000000000000001,3.2,9.8,-23.099999999999998,18.0,17.799999999999997,16
153,2652.0,0.4,0.30000000000000004,0.5,0.7000000000000001,3.0,9.9,-19.700000000000003,20.5,17.9,16
154,2669.0,0.5,0.1,0.6000000000000001,0.6000000000000001,2.7,10.100000000000001,-11.6,27.0,18.3,16
155,2686.0,0.5,0.0,0.7000000000000001,0.6000000000000001,2.6,10.100000000000001,-11.6,27.0,18.3,16
156,2704.0,0.4,-0.2,0.8,0.5,2.5,10.200000000000001,-8.8,26.9,17.7,16
157,2721.0,0.4,-0.30000000000000004,0.7000000000000001,0.4,2.4000000000000004,10.0,-6.1000000000000005,18.8,15.8,16
158,2741.0,0.30000000000000004,-0.2,0.5,0.30000000000000004,2.4000000000000004,9.8,-7.699999999999999,15.299999999999999,15.5,16
159,2754.0,0.30000000000000004,-0.2,0.4,0.2,2.4000000000000004,9.8,-7.699999999999999,15.299999999999999,15.5,16
160,2769.0,0.2,-0.30000000000000004,0.4,0.2,2.3000000000000003,9.9,-8.4,13.900000000000002,16.6,16
161,2785.0,0.30000000000000004,-0.30000000000000004,0.4,0.2,2.3000000000000003,9.8,-8.4,13.900000000000002,16.6,16
162,2807.0,0.30000000000000004,-0.4,0.2,0.30000000000000004,2.2,9.4,-2.5,11.2,16.200000000000003,16
163,2832.0,0.4,-0.4,-0.2,0.30000000000000004,2.2,9.200000000000001,-2.4000000000000004,10.200000000000001,14.700000000000001,16
164,2842.0,0.4,-0.30000000000000004,-0.30000000000000004,0.30000000000000004,2.2,9.200000000000001,-4.6,10.299999999999999,13.6,16
165,2852.0,0.4,-0.30000000000000004,-0.2,0.30000000000000004,2.2,9.3,-4.6,10.299999999999999,13.6,16
166,2869.0,0.30000000000000004,-0.30000000000000004,-0.1,0.1,2.2,9.5,-5.7,9.4,11.6,16
167,2886.0,0.30000000000000004,-0.30000000000000004,0.0,0.2,2.2,9.5,-5.7,9.4,11.6,16
168,2902.0,0.30000000000000004,-0.30000000000000004,-0.1,0.2,2.2,9.200000000000001,-3.9,8.100000000000001,10.8,16
169,2925.0,0.30000000000000004,-0.2,-0.4,0.1,2.3000000000000003,8.9,-3.6000000000000005,8.2,10.1,16
170,2936.0,0.2,-0.1,-0.5,0.1,2.4000000000000004,8.9,-7.699999999999999,12.8,9.700000000000001,16
171,2952.0,0.2,-0.1,-0.5,0.0,2.4000000000000004,9.0,-7.699999999999999,12.8,9.700000000000001,16
172,2971.0,0.2,-0.1,-0.30000000000000004,0.0,2.2,9.1,-10.700000000000001,14.5,10.4,16
173,2992.0,0.1,-0.2,-0.2,-0.1,2.0,9.4,-16.4,16.3,9.899999999999999,16
174,3008.0,0.1,-0.4,0.1,-0.2,1.8,9.700000000000001,-17.400000000000002,16.900000000000002,8.3,16
175,3023.0,0.1,-0.4,0.30000000000000004,-0.30000000000000004,1.8,9.9,-17.400000000000002,16.900000000000002,8.3,16
176,3035.0,0.0,-0.4,0.5,-0.30000000000000004,1.7000000000000002,9.9,-11.6,13.399999999999999,3.2,16
177,3052.0,0.1,-0.4,0.4,-0.30000000000000004,1.8,9.700000000000001,-11.6,13.399999999999999,3.2,16
178,3069.0,0.1,-0.1,-0.1,-0.4,2.2,9.1,-10.0,9.899999999999999,-0.2,16
179,3085.0,-0.1,0.30000000000000004,-0.4,-0.5,2.5,9.1,-16.700000000000003,10.1,-2.9,16
180,3103.0,0.0,0.4,-0.30000000000000004,-0.4,2.6,9.200000000000001,-16.700000000000003,10.1,-2.9,16
181,3127.0,0.30000000000000004,0.9,-0.4,-0.2,3.1,9.0,-21.1,2.7,-4.2,16
182,3135.0,0.30000000000000004,1.1,-0.5,-0.1,3.3000000000000003,8.8,-24.200000000000003,-0.1,-4.5,16
183,3152.0,0.30000000000000004,1.3,-0.6000000000000001,-0.1,3.5,8.700000000000001,-24.200000000000003,-0.1,-4.5,16
184,3169.0,0.4,1.7000000000000002,-0.7000000000000001,-0.1,3.8000000000000003,8.8,-27.800000000000004,1.8000000000000003,-3.8,16
185,3185.0,0.30000000000000004,2.0,-0.5,-0.2,3.9000000000000004,9.200000000000001,-29.500000000000004,10.299999999999999,1.0,16
186,3202.0,0.30000000000000004,2.1,-0.30000000000000004,-0.2,3.9000000000000004,9.3,-29.500000000000004,10.299999999999999,1.0,16
187,3219.0,0.4,2.0,-0.2,-0.1,3.7,9.3,-27.400000000000002,12.299999999999999,3.5,16
188,3235.0,0.6000000000000001,1.9000000000000001,-0.1,0.1,3.5,9.4,-23.800000000000004,12.7,2.9,16
189,3252.0,0.6000000000000001,1.8,-0.1,0.0,3.4000000000000004,9.5,-23.800000000000004,12.7,2.9,16
190,3269.0,0.5,1.9000000000000001,0.1,-0.30000000000000004,3.5,9.8,-22.3,11.8,0.6000000000000001,16
191,3285.0,0.1,2.0,0.4,-0.6000000000000001,3.4000000000000004,10.0,-18.700000000000003,9.700000000000001,3.3000000000000007,16
192,3303.0,0.0,1.9000000000000001,0.5,-0.6000000000000001,3.2,10.100000000000001,-18.700000000000003,9.700000000000001,3.3000000000000007,16
193,3327.0,0.30000000000000004,1.4000000000000001,0.8,-0.4,2.8000000000000003,10.5,-13.700000000000001,6.4,3.3000000000000007,16
194,3337.0,0.2,1.4000000000000001,0.9,-0.5,2.9000000000000004,10.5,-11.5,3.4,1.3,16
195,3352.0,0.2,1.4000000000000001,0.9,-0.6000000000000001,2.9000000000000004,10.600000000000001,-11.5,3.4,1.3,16
196,3369.0,0.0,1.6,1.1,-0.7000000000000001,3.0,10.600000000000001,-9.5,3.2,1.1,16
197,3385.0,0.1,1.6,0.9,-0.7000000000000001,3.0,10.5,-6.9,3.2,2.3,16
198,3402.0,0.1,1.5,1.0,-0.6000000000000001,2.9000000000000004,10.700000000000001,-2.5,4.1,4.5,16
199,3422.0,0.1,1.5,1.1,-0.6000000000000001,2.8000000000000003,10.8,-2.5,4.1,4.5,16
200,3437.0,0.2,1.3,1.3,-0.5,2.7,10.9,-0.30000000000000004,3.2,4.9,16
201,3453.0,0.4,1.2000000000000002,1.1,-0.2,2.6,10.5,2.3,-5.4,2.3,16
202,3469.0,0.6000000000000001,1.1,0.9,0.0,2.6,10.4,2.3,-5.4,2.3,16
203,3486.0,0.8,1.1,0.9,0.2,2.5,10.700000000000001,-1.8000000000000003,-4.0,-1.0,16
204,3502.0,0.9,1.0,1.3,0.1,2.4000000000000004,10.9,-5.4,6.699999999999999,-10.200000000000001,16
205,3523.0,0.8,1.0,1.3,-0.2,2.4000000000000004,10.9,-5.4,6.699999999999999,-10.200000000000001,16
206,3535.0,0.5,1.0,1.3,-0.7000000000000001,2.4000000000000004,11.100000000000001,-7.300000000000001,19.1,-14.300000000000002,16
207,3552.0,-1.1,0.5,2.6,-1.9000000000000001,1.6,13.200000000000001,-6.300000000000001,42.5,-11.8,16
208,3569.0,-0.9,0.2,3.6,-2.0,1.4000000000000001,13.700000000000001,-6.300000000000001,42.5,-11.8,16
209,3586.0,-1.1,-0.1,4.1000000000000005,-2.3000000000000003,1.4000000000000001,13.700000000000001,8.700000000000001,43.50000000000001,-11.3,16
210,3602.0,-0.9,0.0,3.5,-2.0,1.6,12.4,27.400000000000002,4.1,-11.4,16
211,3621.0,-0.5,0.2,1.9000000000000001,-1.6,1.8,10.9,20.7,-14.5,-10.8,16
212,3637.0,-0.4,0.2,1.2000000000000002,-1.5,1.8,10.4,20.7,-14.5,-10.8,16
213,3654.0,-0.2,0.0,0.5,-1.2000000000000002,1.5,10.3,6.300000000000001,-18.1,-5.7,16
214,3669.0,-0.1,-0.1,0.6000000000000001,-1.2000000000000002,1.4000000000000001,10.5,6.300000000000001,-18.1,-5.7,16
215,3685.0,-0.2,-0.6000000000000001,0.9,-0.8,1.1,10.600000000000001,13.200000000000003,-15.2,-4.2,16
216,3703.0,0.30000000000000004,-0.8,0.5,-0.5,0.9,9.700000000000001,43.70000000000001,-8.899999999999999,0.1,16
217,3723.0,0.7000000000000001,-0.9,-0.6000000000000001,-0.1,1.1,8.5,47.1,-14.800000000000002,-1.0,16
218,3736.0,0.9,-0.9,-1.2000000000000002,0.0,1.1,8.1,47.1,-14.800000000000002,-1.0,16
219,3753.0,0.9,-0.9,-1.8,0.0,1.3,7.9,31.5,-6.0,-3.1,16
220,3769.0,0.9,-0.9,-1.7000000000000002,-0.1,1.3,8.1,31.5,-6.0,-3.1,16
221,3785.0,0.8,-0.9,-1.3,-0.2,1.3,8.3,26.1,-2.4000000000000004,-2.4000000000000004,16
222,3802.0,0.8,-1.0,-1.2000000000000002,0.1,1.3,8.3,18.6,-2.8,-0.4,16
223,3821.0,0.9,-1.0,-1.2000000000000002,0.1,1.4000000000000001,8.4,13.000000000000002,-5.0,-1.4,16
224,3835.0,0.9,-1.0,-1.2000000000000002,0.1,1.4000000000000001,8.4,13.000000000000002,-5.0,-1.4,16
225,3853.0,1.0,-0.9,-1.1,0.2,1.4000000000000001,8.5,7.0,-9.100000000000001,-2.4000000000000004,16
226,3870.0,1.0,-0.9,-1.0,0.5,1.4000000000000001,8.6,1.5,-12.5,-3.7000000000000006,16
227,3885.0,1.2000000000000002,-1.0,-0.9,0.6000000000000001,1.4000000000000001,8.6,-1.3,-17.200000000000003,-6.600000000000001,16
228,3903.0,1.4000000000000001,-0.8,-0.9,0.7000000000000001,1.7000000000000002,8.6,-1.6,-21.1,-11.000000000000002,16
229,3923.0,1.3,-0.6000000000000001,-1.0,0.7000000000000001,1.9000000000000001,8.4,3.7000000000000006,-24.5,-20.5,16
230,3936.0,1.3,-0.5,-1.0,0.6000000000000001,2.0,8.5,3.7000000000000006,-24.5,-20.5,16
231,3958.0,0.8,-0.2,-1.1,0.4,2.3000000000000003,8.3,7.8,-20.7,-23.800000000000004,16
232,3970.0,0.8,-0.1,-1.2000000000000002,0.30000000000000004,2.4000000000000004,8.200000000000001,12.200000000000001,-16.200000000000003,-25.5,16
233,3989.0,0.7000000000000001,0.1,-1.3,0.2,2.6,8.3,10.1,-11.900000000000002,-25.300000000000004,16
234,4002.0,0.6000000000000001,0.1,-1.2000000000000002,0.1,2.6,8.4,10.1,-11.900000000000002,-25.300000000000004,16
235,4020.0,0.5,0.2,-1.0,0.0,2.7,8.700000000000001,7.500000000000001,-6.699999999999999,-23.400000000000002,16
236,4035.0,0.4,0.2,-0.7000000000000001,-0.1,2.8000000000000003,8.9,7.500000000000001,-6.699999999999999,-23.400000000000002,16
237,4052.0,0.1,0.4,-0.5,-0.4,3.0,9.0,8.8,-6.9,-21.500000000000004,16
238,4069.0,-0.1,0.5,-0.30000000000000004,-0.6000000000000001,3.0,9.0,7.400000000000001,-3.0,-12.100000000000001,16
239,4085.0,-0.2,0.4,-0.30000000000000004,-0.7000000000000001,3.0,9.1,7.400000000000001,-3.0,-12.100000000000001,16
240,4104.0,-0.4,0.30000000000000004,-0.2,-0.8,2.8000000000000003,9.5,2.2,1.1,-6.300000000000001,16
241,4122.0,-0.7000000000000001,0.1,0.5,-1.3,2.4000000000000004,10.5,-11.900000000000002,14.200000000000001,3.2,16
242,4135.0,-0.9,-0.1,1.1,-1.4000000000000001,2.2,11.0,-11.900000000000002,14.200000000000001,3.2,16
243,4152.0,-1.1,-0.30000000000000004,2.2,-1.7000000000000002,2.2,11.8,-11.4,14.100000000000001,6.1000000000000005,16
244,4169.0,-1.3,-0.2,2.0,-1.7000000000000002,2.4000000000000004,10.600000000000001,-6.500000000000001,-16.1,12.100000000000001,16
245,4187.0,-1.0,0.1,0.2,-1.1,2.5,9.3,-23.3,-17.7,15.700000000000001,16
246,4204.0,-0.7000000000000001,0.1,-0.2,-1.2000000000000002,2.2,9.5,-23.3,-17.7,15.700000000000001,16
247,4223.0,-0.7000000000000001,-0.30000000000000004,0.7000000000000001,-1.1,1.6,11.0,-48.300000000000004,2.4000000000000004,15.399999999999999,16
248,4238.0,-0.9,-0.7000000000000001,2.0,-1.4000000000000001,1.2000000000000002,11.700000000000001,-34.7,4.300000000000001,12.8,16
249,4252.0,-1.0,-0.8,2.1,-1.4000000000000001,1.1,11.600000000000001,-34.7,4.300000000000001,12.8,16
250,4269.0,-0.8,-0.9,1.8,-1.5,1.0,11.200000000000001,-17.5,6.8,11.1,16
251,4285.0,-1.1,-1.0,1.1,-1.5,1.0,10.200000000000001,-2.8,13.200000000000003,8.0,16
252,4303.0,-1.0,-1.0,0.5,-1.5,1.0,9.700000000000001,3.9,8.3,5.4,16
253,4318.0,-1.0,-1.0,0.0,-1.6,1.0,9.3,4.2,9.600000000000001,2.7,16
254,4336.0,-1.1,-0.7000000000000001,-0.4,-1.7000000000000002,1.3,8.9,-2.2,10.9,2.0,16
255,4352.0,-1.1,-0.7000000000000001,-0.7000000000000001,-1.6,1.3,8.700000000000001,-2.2,10.9,2.0,16
256,4369.0,-0.8,-0.7000000000000001,-1.1,-1.4000000000000001,1.2000000000000002,8.4,-7.8,8.3,3.3000000000000007,16
257,4385.0,-0.7000000000000001,-0.8,-1.1,-1.2000000000000002,1.0,8.700000000000001,-21.500000000000004,11.700000000000001,4.300000000000001,16
258,4402.0,-0.5,-0.8,-0.9,-1.3,1.0,8.9,-21.500000000000004,11.700000000000001,4.300000000000001,16
259,4422.0,-0.5,-0.7000000000000001,-0.5,-1.4000000000000001,1.1,9.0,-19.300000000000004,11.2,3.5,16
260,4440.0,-0.4,-0.4,-0.9,-1.1,1.4000000000000001,8.5,-7.8,8.3,6.500000000000001,16
261,4455.0,-0.4,-0.2,-1.3,-1.2000000000000002,1.6,8.200000000000001,-5.1000000000000005,10.600000000000001,9.2,16
262,4472.0,-0.4,-0.1,-1.4000000000000001,-1.1,1.7000000000000002,8.200000000000001,-5.1000000000000005,10.600000000000001,9.2,16
263,4485.0,-0.30000000000000004,0.1,-1.3,-1.0,1.9000000000000001,8.3,-1.1,7.1000000000000005,15.899999999999999,16
264,4502.0,-0.2,0.2,-1.3,-0.8,2.0,8.200000000000001,-1.1,7.1000000000000005,15.899999999999999,16
265,4519.0,0.2,0.4,-1.4000000000000001,-0.5,2.2,8.1,-1.1,2.1,19.0,16
266,4535.0,0.30000000000000004,0.5,-1.5,-0.4,2.3000000000000003,8.1,-5.1000000000000005,-0.1,21.400000000000002,16
267,4552.0,0.5,0.7000000000000001,-1.3,-0.30000000000000004,2.4000000000000004,8.5,-11.6,-0.30000000000000004,23.5,16
268,4568.0,0.6000000000000001,0.7000000000000001,-0.6000000000000001,-0.2,2.3000000000000003,9.4,-16.3,2.1,24.599999999999998,16
269,4585.0,0.7000000000000001,0.7000000000000001,0.30000000000000004,0.0,2.2,10.200000000000001,-10.700000000000001,4.0,22.3,16
270,4602.0,0.8,0.6000000000000001,0.6000000000000001,0.0,2.2,10.4,-10.700000000000001,4.0,22.3,16
271,4619.0,0.8,0.8,1.0,0.0,2.4000000000000004,10.5,-4.6,2.6,18.5,16
272,4635.0,0.8,0.9,1.0,0.2,2.5,10.700000000000001,-3.3000000000000007,5.500000000000001,12.9,16
273,4652.0,0.7000000000000001,0.9,1.5,-0.1,2.5,11.100000000000001,-3.3000000000000007,5.500000000000001,12.9,16
274,4668.0,0.7000000000000001,0.8,1.8,0.0,2.2,11.700000000000001,-4.800000000000001,5.8,8.8,16
275,4685.0,0.6000000000000001,0.5,2.5,-0.30000000000000004,1.9000000000000001,12.4,2.8,5.2,-0.4,16
276,4702.0,0.5,0.30000000000000004,2.8000000000000003,-0.4,1.9000000000000001,12.5,2.8,5.2,-0.4,16
277,4718.0,0.30000000000000004,0.4,2.9000000000000004,-0.5,2.1,12.5,8.700000000000001,3.3000000000000007,-5.8,16
278,4737.0,0.30000000000000004,0.7000000000000001,2.5,-0.6000000000000001,2.6,11.8,12.7,-0.4,-10.0,16
279,4752.0,-0.1,1.1,1.8,-1.1,2.8000000000000003,11.4,-0.30000000000000004,2.0,-9.100000000000001,16
280,4768.0,-0.30000000000000004,1.1,1.8,-1.2000000000000002,2.5,11.8,-0.30000000000000004,2.0,-9.100000000000001,16
281,4785.0,-0.5,0.30000000000000004,2.9000000000000004,-1.4000000000000001,1.3,13.600000000000001,-13.100000000000001,20.2,-2.2,16
282,4802.0,-0.30000000000000004,-0.9,4.5,-1.1,0.30000000000000004,14.200000000000001,-0.2,18.5,1.9,16
283,4819.0,-0.1,-1.3,4.5,-0.8,0.1,13.700000000000001,-0.2,18.5,1.9,16
284,4837.0,0.4,-1.6,2.8000000000000003,-0.4,0.4,11.3,17.1,-8.4,-4.7,16
285,4852.0,0.5,-0.9,0.2,-0.5,1.2000000000000002,9.5,17.300000000000004,-25.4,-19.300000000000004,16
286,4869.0,0.30000000000000004,-0.5,-0.30000000000000004,-0.7000000000000001,1.4000000000000001,9.5,17.300000000000004,-25.4,-19.300000000000004,16
287,4885.0,0.0,-0.4,0.1,-1.0,1.3,10.0,13.6,-9.700000000000001,-19.1,16
288,4902.0,0.1,-0.6000000000000001,0.0,-0.7000000000000001,1.2000000000000002,9.600000000000001,30.3,4.1,-14.300000000000002,16
289,4919.0,0.1,-0.7000000000000001,-0.1,-0.7000000000000001,1.1,9.4,30.3,4.1,-14.300000000000002,16
290,4936.0,0.1,-0.9,-0.6000000000000001,-0.6000000000000001,1.2000000000000002,8.700000000000001,35.1,6.1000000000000005,-14.100000000000001,16
291,4952.0,0.4,-0.9,-1.3,-0.7000000000000001,1.2000000000000002,8.4,20.8,7.1000000000000005,-14.300000000000002,16
292,4969.0,0.2,-0.9,-1.3,-0.8,1.2000000000000002,8.6,20.8,7.1000000000000005,-14.300000000000002,16
293,4997.0,0.4,-1.1,-0.7000000000000001,-0.5,1.0,9.0,5.500000000000001,0.9000000000000001,-12.9,16
294,5002.0,0.4,-1.2000000000000002,-0.6000000000000001,-0.5,0.9,8.9,7.0,-6.8,-15.299999999999999,16
295,5018.0,0.4,-1.2000000000000002,-0.7000000000000001,-0.4,1.0,8.8,7.0,-6.8,-15.299999999999999,16
296,5035.0,0.6000000000000001,-1.0,-1.0,-0.5,1.2000000000000002,8.200000000000001,12.0,-17.200000000000003,-18.3,16
297,5052.0,0.6000000000000001,-0.9,-1.8,0.0,1.4000000000000001,7.5,17.400000000000002,-19.6,-19.300000000000004,16
298,5068.0,0.8,-0.8,-2.1,0.1,1.4000000000000001,7.5,17.400000000000002,-19.6,-19.300000000000004,16
299,5085.0,0.9,-0.8,-1.9000000000000001,0.1,1.5,7.9,16.3,-9.5,-20.0,16
300,5103.0,0.9,-0.8,-1.4000000000000001,0.2,1.5,8.4,22.700000000000003,-4.1,-21.200000000000003,16
301,5118.0,1.0,-0.8,-1.2000000000000002,0.30000000000000004,1.4000000000000001,8.4,22.700000000000003,-4.1,-21.200000000000003,16
302,5135.0,1.0,-0.9,-1.1,0.30000000000000004,1.7000000000000002,8.3,27.400000000000002,-8.3,-24.3,16
303,5152.0,0.9,-0.5,-1.3,0.0,2.2,8.200000000000001,26.700000000000003,-18.4,-29.800000000000004,16
304,5169.0,0.7000000000000001,-0.30000000000000004,-1.2000000000000002,-0.2,2.5,8.3,26.700000000000003,-18.4,-29.800000000000004,16
305,5185.0,0.4,-0.1,-0.9,-0.30000000000000004,2.6,8.6,24.599999999999998,-18.4,-27.800000000000004,16
306,5202.0,0.2,0.0,-0.6000000000000001,-0.5,2.7,8.9,25.0,-18.1,-25.7,16
307,5223.0,0.0,0.0,-0.30000000000000004,-0.7000000000000001,2.8000000000000003,9.0,29.1,-22.000000000000004,-22.1,16
308,5236.0,-0.1,0.0,-0.4,-0.7000000000000001,2.9000000000000004,8.9,29.1,-22.000000000000004,-22.1,16
309,5252.0,-0.4,0.1,-0.4,-1.0,3.0,8.9,25.8,-22.9,-18.5,16
310,5269.0,-0.6000000000000001,0.0,-0.4,-1.1,2.8000000000000003,9.0,5.1000000000000005,-11.6,-8.3,16
311,5285.0,-0.7000000000000001,-0.2,-0.30000000000000004,-1.2000000000000002,2.5,9.3,5.1000000000000005,-11.6,-8.3,16
312,5302.0,-0.8,-0.7000000000000001,0.6000000000000001,-1.3,2.1,10.8,-8.3,0.6000000000000001,-5.1000000000000005,16
313,5320.0,-1.0,-0.8,2.4000000000000004,-1.9000000000000001,2.1,12.100000000000001,-10.1,3.5,-7.8,16
314,5335.0,-1.4000000000000001,-0.7000000000000001,2.7,-2.1,2.3000000000000003,11.8,-10.1,3.5,-7.8,16
315,5352.0,-1.5,-0.30000000000000004,1.8,-1.9000000000000001,2.6,10.9,-6.0,-9.899999999999999,-5.9,16
316,5369.0,-1.2000000000000002,-0.30000000000000004,1.2000000000000002,-1.6,2.1,10.700000000000001,-29.900000000000006,-7.400000000000001,2.0,16
317,5385.0,-1.1,-0.6000000000000001,1.2000000000000002,-1.4000000000000001,1.7000000000000002,11.0,-29.900000000000006,-7.400000000000001,2.0,16
318,5405.0,-0.8,-1.3,2.0,-1.3,1.0,11.5,-38.300000000000004,-8.600000000000001,2.3,16
319,5423.0,-0.9,-1.5,1.6,-1.2000000000000002,1.1,10.8,-21.300000000000004,-23.900000000000006,-6.699999999999999,16
320,5435.0,-0.8,-1.3,1.2000000000000002,-1.4000000000000001,1.2000000000000002,10.5,-21.300000000000004,-23.900000000000006,-6.699999999999999,16
321,5452.0,-1.3,-1.0,0.6000000000000001,-1.8,1.5,10.0,-10.700000000000001,-15.100000000000001,-8.600000000000001,16
322,5469.0,-1.7000000000000002,-0.8,0.1,-2.0,1.6,9.1,-0.30000000000000004,-4.6,-5.0,16
323,5486.0,-1.7000000000000002,-0.7000000000000001,-0.5,-2.0,1.7000000000000002,8.200000000000001,-0.30000000000000004,-4.6,-5.0,16
324,5502.0,-1.7000000000000002,-0.7000000000000001,-1.4000000000000001,-2.0,1.7000000000000002,8.0,-5.1000000000000005,0.6000000000000001,-2.0,16
325,5521.0,-1.6,-0.6000000000000001,-1.8,-1.9000000000000001,1.7000000000000002,7.7,-21.7,4.800000000000001,5.1000000000000005,16
326,5537.0,-1.5,-0.5,-2.1,-1.7000000000000002,1.5,7.5,-32.1,8.8,9.600000000000001,16
327,5552.0,-1.4000000000000001,-0.6000000000000001,-2.1,-1.6,1.4000000000000001,7.5,-32.1,8.8,9.600000000000001,16
328,5569.0,-1.0,-0.8,-1.9000000000000001,-1.2000000000000002,0.9,7.800000000000001,-42.60000000000001,13.5,13.8,16
329,5585.0,-0.6000000000000001,-1.0,-1.7000000000000002,-1.1,0.9,8.0,-42.60000000000001,13.5,13.8,16
330,5602.0,-0.6000000000000001,-0.9,-1.6,-1.3,1.1,7.9,-37.6,13.100000000000001,10.4,16
331,5619.0,-0.7000000000000001,-0.30000000000000004,-1.9000000000000001,-1.4000000000000001,1.7000000000000002,7.6000000000000005,-29.300000000000004,12.200000000000001,8.8,16
332,5635.0,-0.9,0.30000000000000004,-2.3000000000000003,-1.3,2.0,7.0,-17.799999999999997,16.6,16.200000000000003,16
333,5652.0,-0.7000000000000001,0.4,-2.6,-1.2000000000000002,2.0,6.800000000000001,-17.799999999999997,16.6,16.200000000000003,16
334,5668.0,-0.5,0.5,-2.8000000000000003,-1.1,2.0,6.9,-19.799999999999997,18.900000000000002,20.8,16
335,5685.0,-0.4,0.5,-2.3000000000000003,-1.1,1.8,7.6000000000000005,-33.400000000000006,16.4,27.5,16
336,5702.0,-0.4,0.5,-2.3000000000000003,-1.0,1.7000000000000002,8.1,-33.400000000000006,16.4,27.5,16
337,5718.0,-0.30000000000000004,0.4,-1.5,-0.9,1.6,8.4,-36.6,8.700000000000001,28.3,16
338,5736.0,0.0,0.5,-0.9,-0.8,1.8,8.8,-35.0,0.6000000000000001,27.5,16
339,5754.0,0.0,0.6000000000000001,-0.8,-0.8,1.8,9.1,-35.0,0.6000000000000001,27.5,16
340,5768.0,-0.1,0.8,0.0,-0.7000000000000001,1.6,10.200000000000001,-34.7,8.8,29.0,16
341,5785.0,0.2,0.4,1.5,-0.5,1.0,12.100000000000001,-28.800000000000004,20.599999999999998,28.1,16
342,5802.0,0.30000000000000004,0.2,2.5,-0.4,0.8,12.9,-28.800000000000004,20.599999999999998,28.1,16
343,5818.0,0.6000000000000001,-0.1,3.7,-0.4,0.9,13.3,-15.399999999999999,12.4,21.0,16
344,5835.0,1.0,0.4,3.4000000000000004,0.30000000000000004,1.6,12.600000000000001,4.800000000000001,-14.400000000000002,2.7,16
345,5852.0,1.1,0.8,2.9000000000000004,-0.1,1.8,12.0,4.800000000000001,-14.400000000000002,2.7,16
346,5868.0,0.5,1.2000000000000002,2.3000000000000003,-0.4,2.1,12.100000000000001,-1.0,-8.100000000000001,-2.5,16
347,5885.0,0.30000000000000004,1.2000000000000002,2.8000000000000003,-0.5,1.9000000000000001,13.4,-11.000000000000002,18.0,-2.2,16
348,5902.0,0.30000000000000004,1.1,3.6,-0.5,1.7000000000000002,14.100000000000001,-11.000000000000002,18.0,-2.2,16
349,5918.0,0.4,1.0,4.5,-0.2,2.1,14.0,2.3,15.700000000000001,-3.6000000000000005,16
350,5936.0,1.0,1.5,3.3000000000000003,0.1,2.6,12.4,15.399999999999999,2.9,-6.500000000000001,16
351,5952.0,0.9,1.6,2.6,0.2,2.7,12.3,15.399999999999999,2.9,-6.500000000000001,16
352,5968.0,1.0,1.5,2.6,0.0,2.2,12.9,2.6,7.6,-3.7000000000000006,16
353,5994.0,0.8,0.30000000000000004,4.1000000000000005,-0.7000000000000001,0.7000000000000001,13.9,-4.1,11.2,2.8,16
354,6004.0,0.30000000000000004,-0.30000000000000004,4.0,0.0,0.4,14.100000000000001,6.600000000000001,-6.0,5.0,16
355,6018.0,0.9,-0.6000000000000001,4.2,0.9,0.2,13.9,6.600000000000001,-6.0,5.0,16
356,6035.0,1.6,-1.2000000000000002,3.2,0.7000000000000001,-0.2,12.3,35.9,-19.9,-10.1,16
357,6052.0,1.5,-1.2000000000000002,1.8,0.6000000000000001,0.2,11.100000000000001,41.0,-27.9,-17.0,16
358,6069.0,1.3,-1.0,1.2000000000000002,0.6000000000000001,0.4,10.3,41.0,-27.9,-17.0,16
359,6085.0,1.4000000000000001,-0.9,-0.1,0.8,0.5,9.4,41.900000000000006,-32.300000000000004,-20.3,16
360,6106.0,1.4000000000000001,-1.0,-0.7000000000000001,0.9,0.5,8.8,38.0,-28.500000000000004,-25.6,16
361,6120.0,1.4000000000000001,-1.0,-1.1,0.9,0.5,8.5,38.0,-28.500000000000004,-25.6,16
362,6135.0,1.3,-1.0,-1.7000000000000002,0.8,0.7000000000000001,8.0,35.8,-25.7,-29.300000000000004,16
363,6152.0,1.0,-0.9,-1.9000000000000001,0.6000000000000001,1.0,7.800000000000001,27.9,-10.4,-31.0,16
364,6168.0,0.9,-0.8,-2.0,0.5,1.1,7.6000000000000005,27.9,-10.4,-31.0,16
365,6185.0,0.7000000000000001,-0.8,-2.3000000000000003,0.4,1.0,7.5,22.4,-5.300000000000001,-29.600000000000005,16
366,6202.0,0.7000000000000001,-0.8,-2.3000000000000003,0.4,1.0,7.5,22.4,-5.300000000000001,-29.600000000000005,16
367,6218.0,0.7000000000000001,-1.1,-2.0,0.30000000000000004,0.8,8.0,13.6,-1.7,-31.7,16
368,6235.0,0.5,-1.0,-1.7000000000000002,0.0,1.1,8.1,14.5,-6.699999999999999,-35.9,16
369,6252.0,0.2,-0.6000000000000001,-1.6,-0.2,1.6,8.1,22.6,-14.5,-37.400000000000006,16
370,6268.0,0.1,-0.4,-1.6,-0.30000000000000004,1.7000000000000002,8.200000000000001,22.6,-14.5,-37.400000000000006,16
371,6285.0,-0.1,-0.4,-1.4000000000000001,-0.2,1.5,8.3,26.300000000000004,-18.5,-34.900000000000006,16
372,6302.0,-0.2,-0.7000000000000001,-1.5,0.1,1.6,8.5,26.1,-36.400000000000006,-34.800000000000004,16
373,6318.0,0.2,-0.6000000000000001,-1.2000000000000002,0.0,1.8,8.5,26.1,-36.400000000000006,-34.800000000000004,16
374,6335.0,-0.2,-0.5,-0.9,-0.5,2.0,8.700000000000001,25.900000000000002,-39.1,-37.300000000000004,16
375,6352.0,-0.7000000000000001,-0.2,-0.9,-0.7000000000000001,2.3000000000000003,8.6,23.700000000000003,-48.400000000000006,-29.800000000000004,16
376,6369.0,-0.9,-0.1,-0.9,-0.7000000000000001,2.2,8.6,23.700000000000003,-48.400000000000006,-29.800000000000004,16
377,6385.0,-0.7000000000000001,-0.4,-0.7000000000000001,-0.5,2.0,8.9,20.900000000000002,-47.1,-23.900000000000006,16
378,6402.0,-0.8,-0.6000000000000001,-0.5,-0.4,2.1,8.9,20.0,-49.300000000000004,-20.3,16
379,6420.0,-0.9,-0.5,-0.5,-0.5,2.3000000000000003,8.700000000000001,20.0,-49.300000000000004,-20.3,16
380,6435.0,-1.2000000000000002,-0.2,-0.9,-0.8,2.5,8.6,15.000000000000002,-44.5,-17.0,16
381,6452.0,-1.4000000000000001,-0.2,-0.9,-0.8,2.4000000000000004,8.8,3.9,-32.6,-11.4,16
382,6469.0,-1.4000000000000001,-0.30000000000000004,-0.2,-0.6000000000000001,2.2,9.8,-7.1000000000000005,-17.200000000000003,-6.0,16
383,6487.0,-1.3,-0.6000000000000001,0.9,-0.7000000000000001,1.8,10.8,-10.5,-9.700000000000001,-5.8,16
384,6502.0,-1.6,-0.8,1.6,-1.2000000000000002,1.8,10.9,6.300000000000001,-10.700000000000001,-11.3,16
385,6519.0,-1.9000000000000001,-0.7000000000000001,1.4000000000000001,-1.2000000000000002,2.0,10.4,6.300000000000001,-10.700000000000001,-11.3,16
386,6536.0,-2.0,-0.30000000000000004,0.30000000000000004,-1.4000000000000001,2.5,9.5,11.4,-12.200000000000001,-10.1,16
387,6552.0,-2.5,-0.2,-0.1,-1.8,2.1,9.5,2.0,0.2,-5.1000000000000005,16
388,6569.0,-2.5,-0.5,0.1,-1.8,1.6,9.8,-15.6,11.5,3.4,16
389,6586.0,-2.5,-1.4000000000000001,0.6000000000000001,-1.8,0.6000000000000001,10.5,-32.1,15.8,8.899999999999999,16
390,6603.0,-2.4000000000000004,-2.1,1.2000000000000002,-2.1,0.1,10.9,-39.9,12.8,10.200000000000001,16
391,6619.0,-2.6,-2.1,1.1,-1.8,0.2,10.3,-30.699999999999996,-3.7000000000000006,9.8,16
392,6635.0,-2.4000000000000004,-2.0,0.7000000000000001,-1.8,0.2,9.9,-30.699999999999996,-3.7000000000000006,9.8,16
393,6652.0,-2.3000000000000003,-1.8,-0.2,-1.7000000000000002,0.4,9.0,-24.5,-1.9,12.8,16
394,6669.0,-2.1,-1.4000000000000001,-1.1,-1.5,0.7000000000000001,8.1,-22.1,0.0,16.700000000000003,16
395,6686.0,-2.0,-1.2000000000000002,-1.5,-1.5,0.9,7.800000000000001,-25.1,4.300000000000001,20.5,16
396,6708.0,-2.0,-0.5,-2.1,-1.6,1.4000000000000001,7.7,-39.599999999999994,18.900000000000002,30.200000000000003,16
397,6719.0,-2.0,-0.2,-1.9000000000000001,-1.6,1.6,8.0,-42.2,25.4,37.400000000000006,16
398,6735.0,-2.0,0.0,-1.7000000000000002,-1.6,1.7000000000000002,8.200000000000001,-42.2,25.4,37.400000000000006,16
399,6752.0,-1.8,0.2,-1.5,-1.4000000000000001,1.7000000000000002,7.9,-37.400000000000006,23.900000000000006,43.70000000000001,16
400,6769.0,-1.5,0.4,-2.2,-1.1,1.9000000000000001,7.1000000000000005,-26.5,16.0,54.300000000000004,16
401,6785.0,-1.3,0.6000000000000001,-2.6,-1.0,1.9000000000000001,6.9,-26.5,16.0,54.300000000000004,16
402,6804.0,-1.0,0.6000000000000001,-2.8000000000000003,-0.8,1.8,7.1000000000000005,-26.6,18.200000000000003,59.5,16
403,6825.0,-0.8,0.6000000000000001,-2.4000000000000004,-0.5,1.7000000000000002,7.6000000000000005,-24.599999999999998,23.2,67.9,16
404,6836.0,-0.4,0.5,-1.9000000000000001,-0.1,1.5,7.7,-20.0,22.000000000000004,69.80000000000001,16
405,6852.0,-0.2,0.5,-2.0,0.1,1.5,7.7,-20.0,22.000000000000004,69.80000000000001,16
406,6871.0,0.2,0.4,-1.6,0.30000000000000004,1.4000000000000001,8.5,-15.000000000000002,32.8,68.1,16
407,6887.0,0.4,0.4,-1.1,0.4,1.4000000000000001,9.1,-15.000000000000002,32.8,68.1,16
408,6902.0,0.7000000000000001,0.6000000000000001,0.0,0.5,1.6,10.0,-11.8,38.1,66.1,16
409,6919.0,0.9,0.7000000000000001,1.1,0.8,1.5,11.200000000000001,-12.7,43.800000000000004,62.7,16
410,6936.0,1.1,0.6000000000000001,1.6,0.8,1.4000000000000001,11.8,-12.7,43.800000000000004,62.7,16
411,6952.0,1.4000000000000001,0.30000000000000004,2.8000000000000003,1.0,1.0,13.200000000000001,-16.8,47.2,59.40000000000001,16
412,6969.0,1.7000000000000002,0.30000000000000004,4.4,1.7000000000000002,1.2000000000000002,14.5,-10.299999999999999,24.900000000000002,45.0,16
413,6989.0,2.4000000000000004,0.6000000000000001,4.6000000000000005,1.5,1.5,14.0,-4.800000000000001,16.5,35.9,16
414,7005.0,2.1,0.8,4.3,1.7000000000000002,1.7000000000000002,13.9,-4.800000000000001,16.5,35.9,16
415,7018.0,2.4000000000000004,1.0,4.0,1.8,1.7000000000000002,14.0,-7.200000000000001,12.7,31.400000000000002,16
416,7035.0,2.5,0.9,4.2,2.2,1.5,14.8,-9.100000000000001,16.700000000000003,27.9,16
417,7052.0,2.8000000000000003,0.7000000000000001,4.9,2.5,1.3,14.3,0.7,10.299999999999999,23.2,16
418,7069.0,3.2,0.6000000000000001,3.7,2.7,1.7000000000000002,13.0,14.300000000000002,0.1,14.700000000000001,16
419,7085.0,3.3000000000000003,0.8,3.1,2.5,1.9000000000000001,12.5,19.700000000000003,-1.4,5.7,16
420,7106.0,3.1,0.8,2.4000000000000004,2.5,1.3,12.3,13.3,11.8,2.9,16
421,7119.0,3.1,0.4,2.4000000000000004,2.5,0.9,12.3,13.3,11.8,2.9,16
422,7135.0,3.1,-0.7000000000000001,2.2,2.2,-0.1,11.9,13.6,15.700000000000001,0.7,16
423,7153.0,2.9000000000000004,-1.1,2.0,1.9000000000000001,-0.30000000000000004,11.600000000000001,19.300000000000004,14.600000000000001,-5.7,16
424,7170.0,3.1,-1.5,2.0,2.8000000000000003,-0.4,11.8,26.5,4.1,-12.200000000000001,16
425,7185.0,3.3000000000000003,-1.7000000000000002,1.4000000000000001,2.3000000000000003,-0.4,10.700000000000001,39.1,-2.0,-22.5,16
426,7203.0,2.9000000000000004,-1.8,0.8,2.3000000000000003,-0.4,10.700000000000001,46.7,-5.7,-34.300000000000004,16
427,7219.0,2.8000000000000003,-1.6,0.0,1.9000000000000001,-0.1,9.9,42.5,-13.100000000000001,-41.6,16
428,7235.0,2.2,-1.6,0.1,1.6,-0.2,9.8,27.6,-20.0,-50.7,16
429,7252.0,2.0,-1.7000000000000002,-0.1,1.2000000000000002,-0.2,9.9,27.6,-20.0,-50.7,16
430,7269.0,1.5,-1.9000000000000001,0.2,0.8,-0.30000000000000004,10.3,25.5,-19.6,-52.7,16
431,7285.0,1.1,-2.0,0.30000000000000004,0.6000000000000001,-0.1,9.700000000000001,42.60000000000001,-35.8,-56.800000000000004,16
432,7303.0,0.9,-1.9000000000000001,-0.1,0.5,0.1,9.1,42.60000000000001,-35.8,-56.800000000000004,16
433,7319.0,0.5,-1.6,-1.2000000000000002,0.2,0.4,8.1,48.2,-47.3,-57.699999999999996,16
434,7335.0,0.2,-1.4000000000000001,-2.1,0.2,0.8,7.300000000000001,38.50000000000001,-64.30000000000001,-55.7,16
435,7353.0,0.0,-1.3,-2.6,0.1,0.9,7.0,29.600000000000005,-64.7,-54.1,16
436,7369.0,-0.1,-1.3,-2.7,0.1,1.0,7.0,29.600000000000005,-64.7,-54.1,16
437,7387.0,-0.4,-1.4000000000000001,-2.6,-0.1,0.9,7.1000000000000005,18.8,-61.199999999999996,-50.900000000000006,16
438,7403.0,-0.7000000000000001,-1.4000000000000001,-2.3000000000000003,-0.2,1.0,7.5,18.8,-61.199999999999996,-50.900000000000006,16
439,7419.0,-0.8,-1.4000000000000001,-2.0,-0.2,1.0,7.6000000000000005,17.7,-58.1,-47.80000000000001,16
440,7436.0,-1.1,-1.4000000000000001,-1.9000000000000001,-0.4,1.0,7.6000000000000005,17.5,-57.800000000000004,-44.9,16
441,7452.0,-1.1,-1.4000000000000001,-1.9000000000000001,-0.4,1.0,7.6000000000000005,17.5,-57.800000000000004,-44.9,16
442,7469.0,-1.5,-1.5,-1.3,-0.6000000000000001,0.9,8.9,7.300000000000001,-50.8,-39.2,16
443,7488.0,-1.8,-1.6,0.0,-0.7000000000000001,0.9,10.0,7.500000000000001,-47.900000000000006,-37.300000000000004,16
444,7502.0,-1.9000000000000001,-1.5,0.6000000000000001,-0.7000000000000001,1.1,10.0,15.6,-50.2,-36.7,16
445,7530.0,-2.2,-0.9,0.0,-1.0,2.1,8.9,27.3,-52.300000000000004,-31.6,16
446,7535.0,-2.4000000000000004,-0.6000000000000001,-0.4,-1.0,2.5,8.6,27.3,-52.300000000000004,-31.6,16
447,7552.0,-2.6,-0.1,-1.0,-1.1,2.8000000000000003,8.3,4.4,-29.0,-12.7,16
448,7568.0,-2.6,0.0,-1.0,-1.1,2.7,8.6,4.4,-29.0,-12.7,16
449,7585.0,-2.5,-0.30000000000000004,-0.1,-0.9,2.3000000000000003,9.9,-9.4,-12.100000000000001,-3.4,16
450,7602.0,-2.6,-0.5,1.0,-1.1,2.3000000000000003,10.100000000000001,-9.5,-7.300000000000001,2.3,16
451,7626.0,-2.5,0.0,0.30000000000000004,-1.0,2.9000000000000004,8.8,-11.4,-7.500000000000001,7.9,16
452,7635.0,-2.5,0.30000000000000004,-0.5,-0.9,2.9000000000000004,8.4,-11.4,-7.500000000000001,7.9,16
453,7652.0,-2.4000000000000004,0.2,-0.6000000000000001,-1.1,2.2,9.700000000000001,-51.800000000000004,29.500000000000004,25.1,16
454,7669.0,-2.5,-0.2,0.30000000000000004,-1.1,1.7000000000000002,10.600000000000001,-51.800000000000004,29.500000000000004,25.1,16
455,7686.0,-2.5,-0.9,1.8,-1.1,1.0,11.600000000000001,-54.9,34.1,28.700000000000003,16
456,7702.0,-2.3000000000000003,-1.2000000000000002,2.1,-1.1,0.7000000000000001,11.600000000000001,-43.6,32.0,27.9,16
457,7725.0,-2.4000000000000004,-1.4000000000000001,1.4000000000000001,-1.4000000000000001,0.8,10.200000000000001,-11.000000000000002,26.200000000000003,20.900000000000002,16
458,7735.0,-2.5,-1.1,0.7000000000000001,-1.6,1.2000000000000002,9.5,-11.000000000000002,26.200000000000003,20.900000000000002,16
459,7753.0,-2.9000000000000004,-0.4,-0.7000000000000001,-1.9000000000000001,1.7000000000000002,8.3,-9.4,32.300000000000004,28.900000000000002,16
460,7768.0,-2.9000000000000004,-0.2,-1.2000000000000002,-1.9000000000000001,1.7000000000000002,8.1,-9.4,32.300000000000004,28.900000000000002,16
461,7785.0,-2.7,-0.30000000000000004,-1.6,-1.7000000000000002,1.3,7.9,-20.2,36.9,37.9,16
462,7802.0,-2.3000000000000003,-0.6000000000000001,-1.7000000000000002,-1.5,1.0,8.0,-37.0,41.50000000000001,48.9,16
463,7826.0,-2.1,-0.6000000000000001,-1.6,-1.5,0.9,7.9,-34.60000000000001,41.50000000000001,50.60000000000001,16
464,7835.0,-2.0,-0.6000000000000001,-1.8,-1.3,1.0,7.6000000000000005,-34.60000000000001,41.50000000000001,50.60000000000001,16
465,7852.0,-1.7000000000000002,-0.5,-2.0,-1.1,1.1,7.0,-27.2,45.099999999999994,53.8,16
466,7869.0,-1.3,-0.30000000000000004,-2.6,-0.9,1.1,6.800000000000001,-18.900000000000002,55.400000000000006,58.0,16
467,7885.0,-0.9,-0.4,-2.8000000000000003,-0.6000000000000001,0.8,6.800000000000001,-15.299999999999999,63.70000000000001,62.6,16
468,7902.0,-0.30000000000000004,-0.6000000000000001,-2.6,-0.2,0.6000000000000001,7.4,-19.0,67.8,65.10000000000001,16
469,7927.0,0.30000000000000004,-0.7000000000000001,-1.6,0.1,0.4,8.200000000000001,-25.300000000000004,56.50000000000001,61.0,16
470,7938.0,0.5,-0.7000000000000001,-1.3,0.30000000000000004,0.5,8.3,-25.300000000000004,56.50000000000001,61.0,16
471,7953.0,1.0,-0.4,-1.5,0.6000000000000001,0.9,7.9,-21.500000000000004,44.7,56.10000000000001,16
472,7968.0,1.2000000000000002,0.1,-1.8,0.6000000000000001,1.2000000000000002,7.800000000000001,-19.6,40.800000000000004,51.70000000000001,16
473,7985.0,1.3,0.30000000000000004,-1.7000000000000002,0.6000000000000001,1.3,8.3,-24.1,48.70000000000001,50.7,16
474,8002.0,1.4000000000000001,0.4,-0.2,0.6000000000000001,1.0,10.5,-32.1,65.0,51.800000000000004,16
475,8019.0,1.7000000000000002,0.0,2.1,0.8,0.5,12.5,-26.400000000000006,63.30000000000001,43.70000000000001,16
476,8035.0,2.0,-0.2,2.9000000000000004,1.0,0.5,13.100000000000001,-26.400000000000006,63.30000000000001,43.70000000000001,16
477,8052.0,2.3000000000000003,-0.1,3.8000000000000003,1.0,0.9,13.3,-13.100000000000001,51.6,33.300000000000004,16
478,8069.0,2.4000000000000004,0.6000000000000001,3.5,1.0,1.7000000000000002,12.700000000000001,-1.1,26.9,16.6,16
479,8085.0,2.5,1.0,3.2,1.0,2.0,12.600000000000001,-1.1,26.9,16.6,16
480,8103.0,2.5,1.4000000000000001,2.9000000000000004,1.1,2.1,12.700000000000001,-7.300000000000001,19.5,13.3,16
481,8120.0,2.6,1.3,3.7,1.0,1.7000000000000002,14.100000000000001,-18.5,17.6,10.9,16
482,8136.0,2.5,1.0,4.5,1.2000000000000002,1.4000000000000001,14.9,-18.5,17.6,10.9,16
483,8152.0,2.8000000000000003,0.7000000000000001,5.7,1.4000000000000001,1.4000000000000001,15.200000000000001,-9.8,7.300000000000001,6.0,16
484,8168.0,3.0,1.1,4.800000000000001,1.6,2.0,13.600000000000001,7.699999999999999,-26.6,-6.8,16
485,8185.0,3.0,1.3,3.9000000000000004,1.6,2.2,13.0,7.699999999999999,-26.6,-6.8,16
486,8204.0,2.9000000000000004,1.5,3.2,1.4000000000000001,2.1,12.600000000000001,-1.8000000000000003,-27.2,-6.8,16
487,8226.0,2.2,-0.5,5.2,0.9,-0.7000000000000001,15.8,-16.8,1.1,-2.5,16
488,8235.0,2.2,-0.5,5.2,0.9,-0.7000000000000001,15.8,-16.8,1.1,-2.5,16
489,8252.0,2.2,-1.8,6.0,1.2000000000000002,-1.4000000000000001,15.200000000000001,4.800000000000001,-16.8,-12.8,16
490,8269.0,2.0,-1.9000000000000001,4.0,0.9,-0.7000000000000001,12.4,51.9,-65.8,-45.5,16
491,8286.0,1.8,-1.5,2.5,0.6000000000000001,-0.2,11.0,51.9,-65.8,-45.5,16
492,8302.0,1.0,-0.6000000000000001,-0.1,0.30000000000000004,0.7000000000000001,9.200000000000001,51.50000000000001,-71.19999999999999,-52.80000000000001,16
493,8324.0,0.7000000000000001,-0.30000000000000004,-1.0,0.30000000000000004,0.8,9.0,38.0,-47.400000000000006,-50.3,16
494,8336.0,0.6000000000000001,-0.30000000000000004,-1.0,0.2,0.7000000000000001,8.9,38.0,-47.400000000000006,-50.3,16
495,8352.0,0.4,-0.6000000000000001,-1.3,0.1,0.7000000000000001,8.4,37.0,-40.300000000000004,-49.50000000000001,16
496,8369.0,0.2,-0.6000000000000001,-1.6,-0.2,0.7000000000000001,8.3,34.400000000000006,-33.2,-48.300000000000004,16
497,8385.0,-0.2,-0.7000000000000001,-1.6,-0.30000000000000004,0.7000000000000001,8.3,28.800000000000004,-27.700000000000003,-46.6,16
498,8402.0,-0.30000000000000004,-0.7000000000000001,-1.6,-0.5,0.7000000000000001,8.3,22.000000000000004,-26.799999999999997,-44.6,16
499,8426.0,-0.7000000000000001,-0.9,-1.5,-0.7000000000000001,0.6000000000000001,8.3,15.000000000000002,-29.700000000000006,-42.1,16
500,8435.0,-0.7000000000000001,-0.9,-1.5,-0.8,0.5,8.3,15.000000000000002,-29.700000000000006,-42.1,16
501,8452.0,-1.0,-1.1,-1.5,-0.9,0.5,8.3,17.6,-31.6,-42.5,16
502,8469.0,-1.1,-1.2000000000000002,-1.3,-0.9,0.5,8.5,22.000000000000004,-34.400000000000006,-43.6,16
503,8486.0,-1.3,-1.1,-1.3,-1.0,0.8,8.200000000000001,35.699999999999996,-39.699999999999996,-45.8,16
504,8503.0,-1.3,-1.0,-1.5,-1.0,1.0,8.0,35.699999999999996,-39.699999999999996,-45.8,16
505,8527.0,-1.8,-0.6000000000000001,-1.9000000000000001,-1.3,1.5,7.9,41.800000000000004,-32.400000000000006,-40.6,16
506,8536.0,-1.8,-0.6000000000000001,-1.7000000000000002,-1.2000000000000002,1.5,8.1,43.1,-28.500000000000004,-35.4,16
507,8552.0,-1.7000000000000002,-0.6000000000000001,-1.5,-1.0,1.6,8.0,43.1,-28.500000000000004,-35.4,16
508,8569.0,-1.5,-0.7000000000000001,-1.7000000000000002,-0.9,1.8,7.5,43.6,-30.799999999999997,-32.9,16
509,8585.0,-1.6,-0.4,-2.3000000000000003,-0.9,2.2,7.2,30.699999999999996,-29.600000000000005,-27.6,16
510,8605.0,-1.6,-0.2,-2.1,-0.9,2.3000000000000003,7.7,22.6,-23.3,-21.1,16
511,8626.0,-1.6,-0.30000000000000004,-1.6,-0.8,2.2,7.6000000000000005,18.5,-20.1,-14.700000000000001,16
512,8635.0,-1.6,-0.4,-1.8,-0.7000000000000001,2.1,7.6000000000000005,12.8,-8.100000000000001,-8.100000000000001,16
513,8652.0,-1.5,-0.5,-1.8,-0.6000000000000001,2.0,7.7,12.8,-8.100000000000001,-8.100000000000001,16
514,8670.0,-1.3,-0.8,-1.4000000000000001,-0.5,1.7000000000000002,8.5,4.9,4.5,-3.6000000000000005,16
515,8685.0,-1.1,-1.0,-0.4,-0.5,1.7000000000000002,9.4,2.9,19.5,-5.1000000000000005,16
516,8703.0,-1.3,-0.9,0.30000000000000004,-0.8,1.9000000000000001,9.600000000000001,2.9,19.5,-5.1000000000000005,16
517,8725.0,-1.4000000000000001,-0.5,-0.30000000000000004,-0.8,2.5,8.3,12.4,14.0,-4.4,16
518,8735.0,-1.3,-0.2,-1.0,-0.9,2.7,7.800000000000001,0.4,20.900000000000002,1.4,16
519,8752.0,-1.4000000000000001,0.0,-1.6,-1.2000000000000002,2.8000000000000003,7.9,0.4,20.900000000000002,1.4,16
520,8769.0,-1.9000000000000001,0.0,-0.7000000000000001,-1.7000000000000002,2.3000000000000003,9.700000000000001,-24.400000000000002,34.900000000000006,9.2,16
521,8785.0,-2.0,-0.6000000000000001,1.3,-1.8,1.4000000000000001,11.8,-46.7,36.7,15.8,16
522,8802.0,-2.2,-1.3,3.1,-2.1,0.7000000000000001,13.100000000000001,-51.1,25.4,20.7,16
523,8819.0,-2.2,-1.5,3.5,-2.2,0.5,13.200000000000001,-51.1,25.4,20.7,16
524,8835.0,-2.3000000000000003,-1.7000000000000002,3.4000000000000004,-2.2,0.30000000000000004,12.5,-40.1,12.299999999999999,20.3,16
525,8852.0,-2.2,-1.7000000000000002,2.3000000000000003,-2.2,0.4,11.3,-23.5,-5.0,20.1,16
526,8869.0,-2.2,-1.5,1.7000000000000002,-2.2,0.4,10.700000000000001,-23.5,-5.0,20.1,16
527,8888.0,-2.2,-1.3,0.5,-2.1,0.6000000000000001,9.5,-21.500000000000004,-7.400000000000001,21.200000000000003,16
528,8902.0,-2.0,-0.9,-0.8,-1.9000000000000001,0.9,8.3,-25.4,-9.100000000000001,27.3,16
529,8925.0,-1.9000000000000001,-0.6000000000000001,-1.7000000000000002,-1.7000000000000002,1.1,7.800000000000001,-30.5,-4.0,32.0,16
530,8935.0,-1.9000000000000001,-0.6000000000000001,-1.7000000000000002,-1.7000000000000002,1.1,7.800000000000001,-30.5,-4.0,32.0,16
531,8952.0,-1.7000000000000002,-0.30000000000000004,-2.0,-1.4000000000000001,1.3,7.5,-30.699999999999996,-0.2,39.0,16
532,8969.0,-1.6,-0.1,-2.2,-1.3,1.4000000000000001,7.4,-30.699999999999996,-0.2,39.0,16
533,8985.0,-1.4000000000000001,0.1,-2.4000000000000004,-1.1,1.5,7.0,-25.5,0.0,43.00000000000001,16
534,9002.0,-1.1,0.2,-2.8000000000000003,-0.9,1.5,6.6000000000000005,-20.8,8.0,50.8,16
535,9020.0,-1.1,0.30000000000000004,-3.0,-0.8,1.5,6.6000000000000005,-20.8,8.0,50.8,16
536,9035.0,-0.8,0.30000000000000004,-3.0,-0.6000000000000001,1.5,6.800000000000001,-23.0,17.799999999999997,55.5,16
537,9053.0,-0.6000000000000001,0.4,-2.6,-0.5,1.3,7.1000000000000005,-26.400000000000006,29.900000000000006,64.4,16
538,9069.0,-0.5,0.30000000000000004,-2.5,-0.30000000000000004,1.1,7.300000000000001,-26.400000000000006,29.900000000000006,64.4,16
539,9085.0,-0.1,0.0,-1.9000000000000001,-0.1,0.8,8.0,-28.600000000000005,34.400000000000006,66.0,16
540,9106.0,0.1,0.0,-1.2000000000000002,0.0,0.9,8.700000000000001,-25.7,38.900000000000006,61.10000000000001,16
541,9126.0,0.30000000000000004,0.30000000000000004,-0.6000000000000001,0.1,1.2000000000000002,9.1,-21.500000000000004,43.4,59.20000000000001,16
542,9135.0,0.5,0.5,-0.5,0.1,1.4000000000000001,9.200000000000001,-21.500000000000004,43.4,59.20000000000001,16
543,9153.0,0.7000000000000001,0.8,-0.1,0.2,1.3,9.8,-32.1,55.2,56.7,16
544,9171.0,1.0,0.6000000000000001,0.8,0.4,0.9,11.100000000000001,-40.5,58.2,53.7,16
545,9185.0,1.2000000000000002,0.5,1.5,0.5,0.8,12.0,-40.5,58.2,53.7,16
546,9203.0,1.6,0.4,3.2,0.8,0.8,13.3,-36.8,52.1,41.800000000000004,16
547,9224.0,2.0,0.5,4.0,1.0,1.0,13.700000000000001,-31.3,41.900000000000006,34.2,16
548,9237.0,2.1,0.7000000000000001,4.1000000000000005,1.0,1.1,13.700000000000001,-31.3,41.900000000000006,34.2,16
549,9253.0,2.3000000000000003,1.0,4.3,1.1,1.2000000000000002,14.3,-29.900000000000006,36.7,28.700000000000003,16
550,9268.0,2.4000000000000004,1.1,4.6000000000000005,1.2000000000000002,1.2000000000000002,14.700000000000001,-28.600000000000005,34.1,24.200000000000003,16
551,9285.0,2.8000000000000003,1.2000000000000002,5.2,1.7000000000000002,1.3,14.8,-20.5,28.3,19.300000000000004,16
552,9302.0,3.2,1.4000000000000001,4.5,1.9000000000000001,1.7000000000000002,13.700000000000001,-9.4,18.8,11.6,16
553,9320.0,3.3000000000000003,1.8,3.7,1.7000000000000002,1.8,13.5,-5.300000000000001,22.2,2.8,16
554,9335.0,3.2,1.8,3.7,1.6,1.5,14.0,-5.300000000000001,22.2,2.8,16
555,9352.0,3.0,1.1,4.9,1.5,0.7000000000000001,15.4,-6.1000000000000005,29.700000000000006,3.0,16
556,9369.0,3.0,1.1,4.9,1.5,0.7000000000000001,15.4,-6.1000000000000005,29.700000000000006,3.0,16
557,9385.0,3.2,0.0,5.6000000000000005,1.9000000000000001,-0.5,15.200000000000001,15.899999999999999,8.0,-6.500000000000001,16
558,9402.0,3.6,-1.1,4.1000000000000005,2.2,-0.9,13.200000000000001,28.500000000000004,-12.7,-20.400000000000002,16
559,9419.0,3.4000000000000004,-1.0,2.6,1.9000000000000001,-0.6000000000000001,12.0,38.1,-34.60000000000001,-46.199999999999996,16
560,9435.0,3.2,-0.9,2.1,1.8,-0.6000000000000001,11.600000000000001,38.1,-34.60000000000001,-46.199999999999996,16
561,9452.0,2.8000000000000003,-1.1,1.4000000000000001,1.5,-0.8,11.0,40.5,-30.5,-53.0,16
562,9468.0,2.5,-1.4000000000000001,0.8,1.3,-1.0,10.5,47.1,-23.900000000000006,-65.4,16
563,9485.0,2.3000000000000003,-1.6,0.6000000000000001,1.1,-1.0,10.3,47.1,-23.900000000000006,-65.4,16
564,9502.0,1.8,-1.7000000000000002,0.30000000000000004,0.6000000000000001,-0.8,10.3,48.50000000000001,-15.8,-70.2,16
565,9518.0,1.0,-1.5,0.2,-0.2,-0.6000000000000001,10.100000000000001,46.199999999999996,-10.5,-72.0,16
566,9535.0,0.7000000000000001,-1.6,0.2,-0.30000000000000004,-0.8,10.0,46.199999999999996,-10.5,-72.0,16
567,9554.0,0.6000000000000001,-2.1,0.0,-0.2,-1.3,9.8,43.70000000000001,-18.5,-71.19999999999999,16
568,9569.0,0.5,-2.6,-0.30000000000000004,-0.4,-1.5,9.5,44.10000000000001,-50.900000000000006,-83.60000000000001,16
569,9585.0,0.30000000000000004,-2.7,-0.4,-0.6000000000000001,-1.3,9.1,44.10000000000001,-50.900000000000006,-83.60000000000001,16
570,9602.0,-0.2,-2.2,-1.3,-0.8,-0.5,8.0,47.2,-79.19999999999999,-90.80000000000001,16
571,9619.0,-0.7000000000000001,-1.6,-2.3000000000000003,-1.1,0.2,7.2,42.7,-104.50000000000001,-88.3,16
572,9635.0,-1.0,-1.4000000000000001,-2.7,-1.0,0.30000000000000004,6.7,42.7,-104.50000000000001,-88.3,16
573,9653.0,-1.0,-1.2000000000000002,-3.3000000000000003,-0.7000000000000001,0.4,6.6000000000000005,34.900000000000006,-106.1,-82.0,16
574,9670.0,-1.2000000000000002,-1.3,-3.1,-0.6000000000000001,0.5,6.800000000000001,26.400000000000006,-94.80000000000001,-73.2,16
575,9685.0,-1.2000000000000002,-1.3,-2.9000000000000004,-0.5,0.6000000000000001,7.1000000000000005,26.400000000000006,-94.80000000000001,-73.2,16
576,9702.0,-1.5,-1.2000000000000002,-2.2,-0.7000000000000001,0.7000000000000001,7.7,28.800000000000004,-81.60000000000001,-68.7,16
577,9721.0,-1.6,-1.3,-1.9000000000000001,-0.7000000000000001,0.7000000000000001,7.6000000000000005,36.5,-76.2,-64.9,16
578,9736.0,-1.8,-1.3,-2.2,-0.6000000000000001,1.0,6.9,44.300000000000004,-76.5,-62.0,16
579,9752.0,-2.0,-0.9,-2.9000000000000004,-0.7000000000000001,1.7000000000000002,6.300000000000001,45.7,-71.39999999999999,-59.1,16
580,9769.0,-2.3000000000000003,-0.30000000000000004,-3.1,-0.8,2.4000000000000004,6.5,38.1,-61.599999999999994,-52.300000000000004,16
581,9785.0,-2.4000000000000004,0.0,-2.5,-0.8,2.5,7.2,11.000000000000002,-29.700000000000006,-27.5,16
582,9802.0,-2.4000000000000004,0.0,-2.1,-0.8,2.4000000000000004,7.5,11.000000000000002,-29.700000000000006,-27.5,16
583,9822.0,-2.3000000000000003,-0.2,-1.4000000000000001,-0.6000000000000001,2.2,8.3,-5.1000000000000005,-23.400000000000002,-17.300000000000004,16
584,9837.0,-2.0,-0.5,-0.2,-0.2,1.7000000000000002,9.8,-28.800000000000004,-8.899999999999999,-9.5,16
585,9852.0,-1.8,-0.7000000000000001,0.5,-0.30000000000000004,1.6,10.4,-28.800000000000004,-8.899999999999999,-9.5,16
586,9869.0,-2.2,-0.5,1.1,-0.6000000000000001,2.0,10.100000000000001,-22.1,-7.400000000000001,-13.3,16
587,9885.0,-2.3000000000000003,0.1,0.4,-0.9,2.5,9.600000000000001,-16.700000000000003,0.6000000000000001,-7.699999999999999,16
588,9902.0,-2.5,0.30000000000000004,0.30000000000000004,-0.8,2.5,9.8,-16.700000000000003,0.6000000000000001,-7.699999999999999,16
589,9921.0,-2.4000000000000004,0.1,0.9,-0.9,1.9000000000000001,10.9,-27.3,15.000000000000002,2.6,16
590,9935.0,-2.4000000000000004,-0.6000000000000001,2.2,-0.9,1.1,12.3,-36.300000000000004,25.200000000000003,18.3,16
591,9952.0,-2.3000000000000003,-0.9,2.8000000000000003,-1.0,0.8,12.700000000000001,-36.300000000000004,25.200000000000003,18.3,16
592,9971.0,-2.5,-1.2000000000000002,3.3000000000000003,-1.3,0.7000000000000001,12.700000000000001,-25.5,23.800000000000004,22.000000000000004,16
593,9985.0,-2.7,-0.9,2.6,-1.6,1.1,11.5,-5.7,13.6,33.50000000000001,16
594,10002.0,-2.9000000000000004,-0.6000000000000001,1.9000000000000001,-1.7000000000000002,1.3,11.0,-5.7,13.6,33.50000000000001,16
595,10018.0,-2.8000000000000003,-0.4,1.2000000000000002,-1.5,1.1,10.5,-10.200000000000001,16.5,46.1,16
596,10035.0,-2.5,-0.8,0.6000000000000001,-1.1,0.7000000000000001,9.8,-25.900000000000002,5.500000000000001,63.900000000000006,16
597,10052.0,-2.2,-0.9,-0.1,-0.9,0.6000000000000001,9.3,-25.900000000000002,5.500000000000001,63.900000000000006,16
598,10069.0,-2.1,-0.8,-0.4,-0.9,0.7000000000000001,8.9,-29.600000000000005,-2.6,68.0,16
599,10085.0,-2.0,-0.5,-1.2000000000000002,-0.6000000000000001,0.8,8.0,-25.8,-16.8,76.60000000000001,16
600,10107.0,-1.7000000000000002,-0.4,-2.0,-0.2,0.8,7.1000000000000005,-21.300000000000004,-17.300000000000004,80.50000000000001,16
601,10128.0,-1.3,-0.30000000000000004,-3.0,0.1,0.9,6.300000000000001,-16.6,-13.3,82.10000000000001,16
602,10135.0,-1.4000000000000001,-0.2,-3.3000000000000003,0.1,1.0,6.0,-16.6,-13.3,82.10000000000001,16
603,10152.0,-1.3,0.1,-3.7,0.1,1.1,6.0,-6.0,15.899999999999999,87.60000000000001,16
604,10168.0,-1.4000000000000001,0.2,-3.5,0.1,1.1,6.2,-6.0,15.899999999999999,87.60000000000001,16
605,10185.0,-1.1,0.1,-3.2,0.2,1.0,6.300000000000001,-0.1,29.1,92.10000000000001,16
606,10201.0,-0.7000000000000001,-0.1,-2.9000000000000004,0.5,0.8,6.9,8.100000000000001,47.0,96.20000000000002,16
607,10218.0,-0.6000000000000001,-0.1,-2.7,0.6000000000000001,0.9,7.1000000000000005,8.100000000000001,47.0,96.20000000000002,16
608,10235.0,-0.4,0.1,-2.1,0.7000000000000001,1.1,7.5,10.299999999999999,49.699999999999996,95.0,16
609,10252.0,0.0,0.30000000000000004,-1.7000000000000002,1.0,1.2000000000000002,8.0,5.9,44.10000000000001,92.0,16
610,10268.0,0.2,0.4,-1.5,1.1,1.2000000000000002,8.4,5.9,44.10000000000001,92.0,16
611,10285.0,0.5,0.4,-0.7000000000000001,1.4000000000000001,1.1,9.4,-3.1,40.5,89.6,16
612,10302.0,1.1,0.1,0.6000000000000001,2.1,0.7000000000000001,10.8,-13.3,39.699999999999996,81.50000000000001,16
613,10320.0,1.5,0.0,1.3,2.3000000000000003,0.6000000000000001,11.4,-13.3,39.699999999999996,81.50000000000001,16
614,10341.0,2.1,0.0,2.0,2.7,0.8,11.600000000000001,-8.8,33.7,72.60000000000001,16
615,10354.0,2.5,0.30000000000000004,2.2,3.2,1.0,12.0,-12.600000000000001,31.3,56.50000000000001,16
616,10368.0,2.8000000000000003,0.4,2.4000000000000004,3.3000000000000003,1.0,12.4,-12.600000000000001,31.3,56.50000000000001,16
617,10385.0,3.1,0.30000000000000004,3.4000000000000004,3.5,0.8,13.600000000000001,-19.6,36.7,49.199999999999996,16
618,10402.0,3.4000000000000004,0.30000000000000004,4.5,3.9000000000000004,1.0,14.600000000000001,-18.4,41.900000000000006,33.300000000000004,16
619,10418.0,3.7,0.5,4.9,3.9000000000000004,1.1,14.700000000000001,-18.4,41.900000000000006,33.300000000000004,16
620,10440.0,3.8000000000000003,0.8,4.7,3.8000000000000003,1.3,14.5,-14.800000000000002,39.300000000000004,25.0,16
621,10454.0,3.7,0.8,5.0,3.3000000000000003,0.8,15.5,-19.799999999999997,58.0,18.6,16
622,10468.0,3.4000000000000004,0.4,5.7,3.1,0.2,16.2,-19.799999999999997,58.0,18.6,16
623,10485.0,3.6,-0.8,7.300000000000001,2.9000000000000004,-1.0,17.5,-11.6,60.900000000000006,14.900000000000002,16
624,10502.0,3.7,-1.5,7.6000000000000005,3.9000000000000004,-1.1,17.0,35.0,3.9,-12.8,16
625,10519.0,4.3,-1.5,7.1000000000000005,3.8000000000000003,-0.7000000000000001,15.5,35.0,3.9,-12.8,16
626,10535.0,3.3000000000000003,-0.9,3.8000000000000003,3.1,0.0,12.8,46.1,-21.400000000000002,-31.0,16
627,10552.0,3.0,-0.5,2.0,2.7,0.2,11.8,30.000000000000004,-26.400000000000006,-40.6,16
628,10570.0,2.7,-0.7000000000000001,1.6,2.6,-0.1,11.3,31.0,-21.400000000000002,-43.50000000000001,16
629,10585.0,2.6,-0.9,1.3,2.3000000000000003,-0.30000000000000004,11.0,31.0,-21.400000000000002,-43.50000000000001,16
630,10602.0,2.4000000000000004,-1.3,0.30000000000000004,2.3000000000000003,-0.2,9.8,35.699999999999996,-21.6,-48.2,16
631,10622.0,1.9000000000000001,-1.1,-0.7000000000000001,1.6,0.2,8.9,38.400000000000006,-10.9,-57.00000000000001,16
632,10635.0,1.5,-0.9,-1.1,1.3,0.4,8.6,38.400000000000006,-10.9,-57.00000000000001,16
633,10653.0,0.9,-0.6000000000000001,-1.6,0.8,0.8,8.0,35.699999999999996,-9.0,-57.699999999999996,16
634,10670.0,0.4,-0.5,-2.3000000000000003,0.5,0.8,7.2,33.50000000000001,-11.000000000000002,-57.400000000000006,16
635,10689.0,0.30000000000000004,-0.6000000000000001,-2.7,0.4,0.8,6.9,33.50000000000001,-11.000000000000002,-57.400000000000006,16
636,10702.0,0.2,-0.8,-3.1,0.2,0.8,6.7,33.2,-13.200000000000003,-60.7,16
637,10718.0,-0.2,-0.6000000000000001,-3.0,-0.5,1.3,7.0,40.0,-18.8,-70.7,16
638,10735.0,-0.7000000000000001,-0.4,-2.8000000000000003,-0.8,1.5,7.1000000000000005,40.0,-18.8,-70.7,16
639,10751.0,-1.2000000000000002,-0.1,-2.6,-1.0,1.7000000000000002,7.2,45.5,-27.9,-67.60000000000001,16
640,10775.0,-1.1,-0.4,-2.6,-0.5,1.5,6.7,46.6,-59.00000000000001,-54.199999999999996,16
641,10785.0,-0.9,-0.6000000000000001,-2.9000000000000004,-0.2,1.4000000000000001,6.5,46.6,-59.00000000000001,-54.199999999999996,16
642,10802.0,-0.8,-1.0,-3.0,-0.1,1.2000000000000002,6.5,38.60000000000001,-66.1,-52.900000000000006,16
643,10818.0,-0.9,-1.1,-2.8000000000000003,-0.2,1.4000000000000001,6.800000000000001,25.5,-69.00000000000001,-50.0,16
644,10835.0,-1.0,-1.0,-2.6,-0.1,1.4000000000000001,7.1000000000000005,25.5,-69.00000000000001,-50.0,16
645,10852.0,-1.1,-1.2000000000000002,-2.2,-0.1,1.0,7.6000000000000005,25.6,-53.599999999999994,-43.00000000000001,16
646,10869.0,-1.1,-1.8,-1.2000000000000002,0.0,0.6000000000000001,8.4,37.7,-21.300000000000004,-32.300000000000004,16
647,10885.0,-1.1,-2.0,-1.0,0.0,0.6000000000000001,8.5,37.7,-21.300000000000004,-32.300000000000004,16
648,10902.0,-1.1,-2.1,-0.8,-0.30000000000000004,0.7000000000000001,8.4,43.300000000000004,-7.0,-28.1,16
649,10921.0,-1.3,-2.1,-0.8,-0.4,0.9,8.5,26.700000000000003,12.9,-17.400000000000002,16
650,10936.0,-1.3,-2.0,-0.8,-0.4,0.9,8.8,26.700000000000003,12.9,-17.400000000000002,16
651,10953.0,-1.3,-2.0,0.0,-0.6000000000000001,0.9,9.700000000000001,10.299999999999999,16.3,-14.900000000000002,16
652,10970.0,-1.7000000000000002,-2.0,0.5,-0.8,1.1,9.600000000000001,-11.2,-6.1000000000000005,-11.3,16
653,10985.0,-1.6,-1.8,0.30000000000000004,-0.8,1.4000000000000001,9.200000000000001,-11.2,-6.1000000000000005,-11.3,16
654,11002.0,-1.7000000000000002,-1.2000000000000002,-0.1,-0.9,1.4000000000000001,9.700000000000001,-28.900000000000002,-6.600000000000001,-3.9,16
655,11021.0,-1.8,-1.7000000000000002,1.0,-0.8,0.4,11.100000000000001,-66.4,4.0,11.1,16
656,11035.0,-1.6,-2.4000000000000004,2.5,-1.1,-0.4,12.600000000000001,-62.7,8.5,10.9,16
657,11052.0,-1.9000000000000001,-2.6,3.2,-1.2000000000000002,-0.5,12.9,-62.7,8.5,10.9,16
658,11071.0,-2.0,-2.5,3.2,-1.5,-0.2,12.100000000000001,-45.7,7.6,7.9,16
659,11085.0,-2.5,-1.8,1.8,-2.0,0.5,10.700000000000001,-24.400000000000002,11.2,6.500000000000001,16
660,11103.0,-2.7,-1.4000000000000001,1.1,-2.0,0.7000000000000001,10.3,-24.400000000000002,11.2,6.500000000000001,16
661,11119.0,-2.7,-1.2000000000000002,0.7000000000000001,-2.1,0.8,10.200000000000001,-30.3,20.400000000000002,11.900000000000002,16
662,11137.0,-2.5,-0.8,0.2,-1.7000000000000002,0.8,9.4,-46.50000000000001,8.4,23.700000000000003,16
663,11152.0,-2.2,-0.8,-0.30000000000000004,-1.4000000000000001,0.7000000000000001,8.8,-46.50000000000001,8.4,23.700000000000003,16
664,11168.0,-1.8,-0.7000000000000001,-1.1,-1.3,0.8,8.5,-56.7,1.4,26.200000000000003,16
665,11185.0,-1.8,-0.4,-1.2000000000000002,-1.4000000000000001,1.1,8.6,-62.1,1.9,25.8,16
666,11202.0,-2.1,0.30000000000000004,-1.2000000000000002,-1.6,1.5,8.1,-57.1,4.300000000000001,27.6,16
667,11218.0,-1.7000000000000002,0.7000000000000001,-1.9000000000000001,-1.2000000000000002,1.7000000000000002,7.4,-47.7,6.2,34.300000000000004,16
668,11235.0,-1.6,0.8,-2.3000000000000003,-1.1,1.6,7.2,-39.9,16.3,41.300000000000004,16
669,11252.0,-1.3,0.8,-2.7,-0.8,1.6,6.9,-37.7,21.400000000000002,46.0,16
670,11268.0,-1.0,1.0,-2.5,-0.7000000000000001,1.6,7.5,-37.6,29.500000000000004,48.800000000000004,16
671,11285.0,-0.8,1.2000000000000002,-1.8,-0.7000000000000001,1.8,8.1,-29.800000000000004,30.1,53.599999999999994,16
672,11304.0,-0.7000000000000001,1.3,-1.3,-0.4,1.5,8.8,-23.400000000000002,27.0,56.7,16
673,11320.0,-0.5,1.1,-0.8,-0.30000000000000004,1.4000000000000001,9.1,-23.400000000000002,27.0,56.7,16
674,11335.0,-0.1,1.0,-0.30000000000000004,0.1,1.3,9.3,-8.700000000000001,9.4,54.800000000000004,16
675,11352.0,0.1,1.0,-0.4,0.2,1.4000000000000001,9.1,-8.700000000000001,9.4,54.800000000000004,16
676,11368.0,0.5,1.1,-0.6000000000000001,0.6000000000000001,1.4000000000000001,9.4,-7.9,8.3,53.9,16
677,11393.0,0.8,1.1,0.1,0.8,1.3,10.200000000000001,-15.299999999999999,21.300000000000004,52.300000000000004,16
678,11402.0,0.9,1.1,0.5,0.9,1.1,10.700000000000001,-15.299999999999999,21.300000000000004,52.300000000000004,16
679,11418.0,1.3,0.6000000000000001,1.7000000000000002,1.2000000000000002,0.6000000000000001,12.0,-14.800000000000002,30.3,49.9,16
680,11436.0,1.7000000000000002,0.2,2.6,1.6,0.30000000000000004,12.200000000000001,5.8,23.700000000000003,34.1,16
681,11452.0,2.0,0.1,2.5,1.7000000000000002,0.5,11.9,5.8,23.700000000000003,34.1,16
682,11468.0,2.0,0.5,2.0,1.6,1.1,11.700000000000001,11.1,24.400000000000002,24.8,16
683,11485.0,2.0,1.0,2.3000000000000003,1.4000000000000001,1.2000000000000002,12.700000000000001,7.699999999999999,34.1,21.400000000000002,16
684,11502.0,2.2,0.8,3.5,1.7000000000000002,1.1,13.600000000000001,0.0,41.4,15.899999999999999,16
685,11518.0,2.3000000000000003,0.8,3.8000000000000003,1.7000000000000002,1.1,13.9,0.0,41.4,15.899999999999999,16
686,11535.0,2.4000000000000004,0.8,4.4,1.6,1.1,14.4,0.1,37.800000000000004,12.0,16
687,11553.0,2.2,0.7000000000000001,4.6000000000000005,1.1,0.9,14.9,-6.300000000000001,33.7,6.9,16
688,11569.0,2.0,0.6000000000000001,5.0,1.0,0.5,15.5,-6.300000000000001,33.7,6.9,16
689,11585.0,2.3000000000000003,-0.4,6.4,1.4000000000000001,-0.5,16.3,-5.2,32.6,5.7,16
690,11603.0,2.7,-1.0,5.6000000000000005,1.8,-0.6000000000000001,14.200000000000001,26.5,-16.3,-17.0,16
691,11618.0,2.8000000000000003,-1.0,4.3,1.7000000000000002,-0.30000000000000004,12.700000000000001,26.5,-16.3,-17.0,16
692,11636.0,2.4000000000000004,-0.30000000000000004,1.6,1.4000000000000001,0.4,11.0,31.3,-31.2,-28.0,16
693,11652.0,2.0,-0.2,0.5,1.4000000000000001,0.30000000000000004,10.0,28.1,-28.1,-31.799999999999997,16
694,11668.0,2.0,-0.30000000000000004,0.0,1.4000000000000001,0.1,9.8,28.1,-28.1,-31.799999999999997,16
695,11688.0,2.2,-0.9,-0.30000000000000004,1.6,-0.5,9.700000000000001,25.6,-16.8,-31.099999999999998,16
696,11707.0,2.0,-1.5,-0.1,1.3,-0.8,10.0,28.500000000000004,-7.8,-41.0,16
697,11722.0,1.7000000000000002,-1.7000000000000002,0.2,1.2000000000000002,-0.8,10.100000000000001,28.500000000000004,-7.8,-41.0,16
698,11736.0,1.4000000000000001,-1.7000000000000002,0.2,0.7000000000000001,-0.7000000000000001,9.8,34.2,-1.6,-44.7,16
699,11753.0,1.1,-1.6,-0.30000000000000004,0.4,-0.5,9.600000000000001,36.5,0.5,-47.1,16
700,11769.0,0.9,-1.5,-0.30000000000000004,0.2,-0.30000000000000004,9.600000000000001,36.5,0.5,-47.1,16
701,11785.0,0.6000000000000001,-1.4000000000000001,-0.6000000000000001,0.0,-0.1,8.8,36.8,-12.0,-47.2,16
702,11804.0,0.4,-1.3,-1.7000000000000002,0.1,0.0,7.5,31.5,-39.8,-46.9,16
703,11819.0,0.4,-1.3,-2.4000000000000004,0.2,0.1,7.1000000000000005,31.5,-39.8,-46.9,16
704,11835.0,0.4,-1.1,-2.8000000000000003,0.0,0.5,7.0,23.3,-45.099999999999994,-48.70000000000001,16
705,11854.0,0.0,-0.6000000000000001,-2.8000000000000003,-0.30000000000000004,0.9,7.0,13.700000000000001,-46.6,-45.400000000000006,16
706,11868.0,-0.2,-0.5,-2.8000000000000003,-0.4,0.9,7.1000000000000005,13.700000000000001,-46.6,-45.400000000000006,16
707,11885.0,-0.5,-0.6000000000000001,-2.6,-0.2,0.8,7.4,13.900000000000002,-44.5,-39.300000000000004,16
708,11902.0,-0.30000000000000004,-1.1,-2.0,0.1,0.30000000000000004,8.3,23.700000000000003,-36.400000000000006,-33.7,16
709,11919.0,-0.2,-1.3,-1.5,0.1,0.30000000000000004,8.6,23.700000000000003,-36.400000000000006,-33.7,16
710,11936.0,-0.30000000000000004,-1.4000000000000001,-1.1,0.0,0.5,8.5,30.9,-41.4,-36.6,16
711,11953.0,-0.7000000000000001,-1.0,-1.2000000000000002,-0.30000000000000004,0.9,8.4,34.400000000000006,-46.300000000000004,-38.1,16
712,11971.0,-1.0,-0.9,-1.2000000000000002,-0.30000000000000004,1.0,8.3,31.9,-46.800000000000004,-30.599999999999998,16
713,11987.0,-1.0,-0.9,-1.3,-0.30000000000000004,1.1,8.200000000000001,31.9,-46.800000000000004,-30.599999999999998,16
714,12002.0,-1.3,-0.8,-1.3,-0.6000000000000001,1.3,8.4,27.3,-40.7,-25.7,16
715,12019.0,-1.6,-0.8,-0.9,-0.9,1.1,9.0,11.1,-23.6,-12.4,16
716,12035.0,-1.8,-1.0,-0.5,-1.0,1.0,9.200000000000001,11.1,-23.6,-12.4,16
717,12065.0,-1.8,-1.6,0.2,-0.8,0.2,9.9,-7.1000000000000005,-12.299999999999999,-2.5,16
718,12071.0,-1.8,-1.8,0.4,-0.9,0.2,9.8,-11.6,-15.000000000000002,-4.300000000000001,16
719,12087.0,-1.9000000000000001,-1.8,0.30000000000000004,-1.0,0.5,9.4,-11.6,-15.000000000000002,-4.300000000000001,16
720,12110.0,-2.3000000000000003,-0.9,-0.7000000000000001,-1.3,1.2000000000000002,8.9,-33.800000000000004,-13.700000000000001,-4.6,16
721,12118.0,-2.4000000000000004,-0.7000000000000001,-0.7000000000000001,-1.3,1.1,9.200000000000001,-49.9,-1.5,2.0,16
722,12135.0,-2.3000000000000003,-0.7000000000000001,-0.4,-1.1,0.8,9.700000000000001,-49.9,-1.5,2.0,16
723,12151.0,-2.0,-1.2000000000000002,0.7000000000000001,-0.8,-0.2,10.700000000000001,-57.49999999999999,10.5,7.699999999999999,16
724,12169.0,-1.8,-1.8,1.3,-0.9,-0.5,10.8,-54.50000000000001,14.5,7.400000000000001,16
725,12185.0,-1.8,-1.8,1.2000000000000002,-1.0,-0.30000000000000004,10.8,-44.9,12.600000000000001,2.9,16
726,12201.0,-2.3000000000000003,-1.1,1.0,-1.8,0.2,10.4,-33.400000000000006,18.900000000000002,1.1,16
727,12219.0,-2.7,-0.8,0.1,-1.9000000000000001,0.2,9.3,-23.2,26.300000000000004,11.000000000000002,16
728,12235.0,-2.6,-0.8,-0.4,-2.0,0.1,9.0,-23.2,26.300000000000004,11.000000000000002,16
729,12252.0,-2.6,-0.8,-0.7000000000000001,-2.2,0.1,9.0,-25.8,35.8,16.0,16
730,12268.0,-2.5,-0.7000000000000001,-0.9,-2.0,0.1,8.700000000000001,-26.799999999999997,41.4,27.3,16
731,12285.0,-2.3000000000000003,-0.6000000000000001,-1.0,-1.8,0.1,8.3,-26.799999999999997,41.4,27.3,16
732,12302.0,-1.7000000000000002,-0.6000000000000001,-1.8,-1.4000000000000001,0.0,7.800000000000001,-31.3,40.7,32.7,16
733,12318.0,-1.2000000000000002,-0.7000000000000001,-1.9000000000000001,-1.1,-0.4,8.3,-61.50000000000001,35.599999999999994,39.0,16
734,12335.0,-1.0,-0.7000000000000001,-1.4000000000000001,-0.9,-0.6000000000000001,8.700000000000001,-61.50000000000001,35.599999999999994,39.0,16
735,12352.0,-0.7000000000000001,-0.7000000000000001,-0.7000000000000001,-0.9,-0.4,9.0,-66.3,25.0,37.0,16
736,12368.0,-0.5,-0.1,-0.9,-0.6000000000000001,0.0,8.5,-49.199999999999996,13.8,36.400000000000006,16
737,12385.0,-0.30000000000000004,0.4,-1.4000000000000001,-0.7000000000000001,0.30000000000000004,8.1,-49.199999999999996,13.8,36.400000000000006,16
738,12402.0,-0.4,0.6000000000000001,-1.5,-0.6000000000000001,0.5,8.1,-38.400000000000006,21.900000000000002,39.300000000000004,16
739,12418.0,-0.2,1.0,-1.5,-0.6000000000000001,0.8,8.3,-31.9,30.4,43.2,16
740,12435.0,-0.1,1.2000000000000002,-1.4000000000000001,-0.5,0.8,8.5,-28.800000000000004,38.400000000000006,47.7,16
741,12452.0,0.2,1.3,-0.9,-0.30000000000000004,0.7000000000000001,8.8,-27.099999999999998,37.7,51.1,16
742,12469.0,0.4,1.3,-0.7000000000000001,-0.2,0.9,9.0,-26.5,33.50000000000001,52.7,16
743,12485.0,0.6000000000000001,1.7000000000000002,-0.2,-0.30000000000000004,1.2000000000000002,9.8,-22.700000000000003,38.800000000000004,58.0,16
744,12502.0,0.6000000000000001,1.8,0.30000000000000004,-0.2,1.2000000000000002,10.4,-22.700000000000003,38.800000000000004,58.0,16
745,12518.0,1.0,1.8,1.4000000000000001,0.2,1.0,11.4,-18.8,42.0,62.1,16
746,12535.0,1.3,1.7000000000000002,1.8,0.5,0.8,11.700000000000001,-17.300000000000004,39.50000000000001,63.4,16
747,12553.0,1.9000000000000001,1.3,2.5,0.9,0.4,12.600000000000001,-19.799999999999997,33.800000000000004,60.1,16
748,12570.0,2.4000000000000004,1.1,3.5,1.1,0.4,13.5,-21.8,22.4,52.900000000000006,16
749,12586.0,2.6,1.3,4.0,1.5,0.6000000000000001,13.5,-15.100000000000001,-3.8,38.60000000000001,16
750,12604.0,2.8000000000000003,1.3,3.9000000000000004,1.7000000000000002,0.6000000000000001,13.5,-15.100000000000001,-3.8,38.60000000000001,16
751,12620.0,3.1,1.2000000000000002,3.9000000000000004,2.1,0.2,13.700000000000001,-15.000000000000002,-6.9,33.2,16
752,12635.0,3.4000000000000004,0.9,4.3,2.4000000000000004,0.0,14.4,-13.100000000000001,-0.30000000000000004,15.5,16
753,12652.0,3.6,0.8,4.7,2.5,-0.1,14.8,-13.100000000000001,-0.30000000000000004,15.5,16
754,12669.0,3.8000000000000003,0.9,5.2,2.6,0.2,14.600000000000001,-1.0,0.2,3.2,16
755,12685.0,3.7,1.0,4.9,2.3000000000000003,0.5,14.4,14.700000000000001,1.7,-8.3,16
756,12702.0,3.2,1.3,4.1000000000000005,1.8,0.6000000000000001,13.600000000000001,23.3,6.699999999999999,-14.400000000000002,16
757,12719.0,2.5,1.0,4.0,1.0,-0.1,14.4,21.200000000000003,18.0,-15.000000000000002,16
758,12736.0,2.1,-0.1,5.300000000000001,1.0,-1.3,15.700000000000001,30.1,17.799999999999997,-16.8,16
759,12752.0,2.3000000000000003,-0.8,5.800000000000001,1.2000000000000002,-2.0,14.600000000000001,30.1,17.799999999999997,-16.8,16
760,12769.0,2.4000000000000004,-1.6,4.6000000000000005,1.3,-1.9000000000000001,13.0,49.300000000000004,-13.5,-28.700000000000003,16
761,12785.0,2.3000000000000003,-1.3,1.4000000000000001,1.3,-1.2000000000000002,10.200000000000001,53.300000000000004,-61.50000000000001,-53.9,16
762,12805.0,1.9000000000000001,-1.0,-0.30000000000000004,1.1,-0.9,9.600000000000001,46.199999999999996,-63.10000000000001,-60.6,16
763,12818.0,1.7000000000000002,-0.9,-0.4,0.9,-0.8,9.600000000000001,46.199999999999996,-63.10000000000001,-60.6,16
764,12835.0,1.3,-0.8,-0.30000000000000004,0.8,-0.6000000000000001,10.0,41.7,-50.900000000000006,-65.4,16
765,12851.0,1.1,-0.8,-0.1,0.5,-0.7000000000000001,10.100000000000001,41.7,-50.900000000000006,-65.4,16
766,12869.0,0.7000000000000001,-1.1,0.1,0.6000000000000001,-0.6000000000000001,9.8,50.900000000000006,-39.1,-63.4,16
767,12885.0,0.4,-1.1,-0.9,0.2,-0.4,9.0,54.4,-29.400000000000002,-61.7,16
768,12902.0,-0.1,-0.9,-0.6000000000000001,-0.30000000000000004,-0.1,9.8,38.900000000000006,-8.600000000000001,-54.300000000000004,16
769,12918.0,-0.30000000000000004,-0.8,-0.2,-0.4,0.0,9.9,38.900000000000006,-8.600000000000001,-54.300000000000004,16
770,12935.0,-0.5,-0.8,-0.4,-0.6000000000000001,0.2,9.3,37.800000000000004,-14.400000000000002,-49.199999999999996,16
771,12952.0,-0.7000000000000001,-0.7000000000000001,-1.2000000000000002,-0.7000000000000001,0.4,8.5,37.2,-32.0,-40.300000000000004,16
772,12969.0,-0.8,-0.7000000000000001,-1.4000000000000001,-0.7000000000000001,0.4,8.4,37.2,-32.0,-40.300000000000004,16
773,12992.0,-0.9,-0.5,-2.2,-0.6000000000000001,0.8,7.4,29.200000000000003,-53.7,-35.699999999999996,16
774,13005.0,-1.0,-0.4,-2.5,-0.6000000000000001,0.9,7.300000000000001,23.700000000000003,-58.900000000000006,-33.2,16
775,13018.0,-1.1,-0.4,-2.6,-0.6000000000000001,0.9,7.1000000000000005,23.700000000000003,-58.900000000000006,-33.2,16
776,13035.0,-1.3,-0.5,-2.7,-0.7000000000000001,0.9,7.1000000000000005,22.1,-59.300000000000004,-30.5,16
777,13053.0,-1.4000000000000001,-0.7000000000000001,-2.7,-0.30000000000000004,0.6000000000000001,7.1000000000000005,30.1,-55.60000000000001,-27.700000000000003,16
778,13068.0,-1.2000000000000002,-0.9,-2.7,-0.2,0.30000000000000004,7.2,30.1,-55.60000000000001,-27.700000000000003,16
779,13085.0,-1.3,-1.3,-2.2,-0.5,0.4,7.7,35.599999999999994,-52.900000000000006,-32.0,16
780,13105.0,-1.9000000000000001,-1.2000000000000002,-1.8,-0.9,0.8,7.800000000000001,54.50000000000001,-43.300000000000004,-33.7,16
781,13118.0,-2.1,-1.1,-1.8,-0.8,0.9,7.6000000000000005,54.50000000000001,-43.300000000000004,-33.7,16
782,13135.0,-2.2,-1.0,-2.2,-0.8,1.2000000000000002,7.0,59.5,-35.1,-27.9,16
783,13152.0,-2.0,-1.1,-2.6,-0.7000000000000001,1.3,6.7,41.4,-15.100000000000001,-12.5,16
784,13168.0,-2.1,-1.0,-2.7,-0.9,1.4000000000000001,6.800000000000001,41.4,-15.100000000000001,-12.5,16
785,13186.0,-2.4000000000000004,-1.1,-2.4000000000000004,-1.0,1.2000000000000002,7.4,22.1,-9.899999999999999,-4.2,16
786,13202.0,-2.3000000000000003,-1.4000000000000001,-1.2000000000000002,-0.5,0.7000000000000001,9.1,-12.9,0.1,8.8,16
787,13230.0,-1.7000000000000002,-1.9000000000000001,0.8,-0.4,0.4,9.8,-13.200000000000003,0.0,6.4,16
788,13235.0,-1.7000000000000002,-1.9000000000000001,0.8,-0.4,0.4,9.8,-13.200000000000003,0.0,6.4,16
789,13252.0,-1.8,-1.4000000000000001,0.0,-0.7000000000000001,1.5,9.0,-15.5,-6.1000000000000005,0.7,16
790,13269.0,-2.1,-0.7000000000000001,-0.4,-1.1,1.9000000000000001,8.8,-15.5,-6.1000000000000005,0.7,16
791,13285.0,-2.6,-0.1,-0.5,-1.4000000000000001,1.8,9.200000000000001,-32.300000000000004,7.9,10.700000000000001,16
792,13302.0,-2.7,-0.6000000000000001,0.2,-1.2000000000000002,0.7000000000000001,10.100000000000001,-49.300000000000004,21.900000000000002,24.200000000000003,16
793,13319.0,-2.5,-1.1,0.6000000000000001,-1.0,0.1,10.5,-59.9,27.9,34.300000000000004,16
794,13335.0,-2.0,-2.0,1.5,-1.0,-0.7000000000000001,11.3,-60.6,30.200000000000003,34.900000000000006,16
795,13351.0,-2.0,-2.2,1.5,-1.0,-0.5,10.700000000000001,-53.400000000000006,23.400000000000002,30.000000000000004,16
796,13368.0,-2.1,-1.5,0.7000000000000001,-1.4000000000000001,0.0,9.9,-37.50000000000001,20.7,27.0,16
797,13385.0,-2.3000000000000003,-1.2000000000000002,0.30000000000000004,-1.4000000000000001,0.2,9.200000000000001,-37.50000000000001,20.7,27.0,16
798,13402.0,-2.2,-0.7000000000000001,-0.9,-1.3,0.1,8.5,-41.4,22.000000000000004,32.9,16
799,13418.0,-2.0,-0.9,-1.4000000000000001,-1.2000000000000002,-0.2,8.1,-61.300000000000004,32.2,43.300000000000004,16
800,13435.0,-1.9000000000000001,-0.9,-1.6,-1.2000000000000002,-0.30000000000000004,8.200000000000001,-61.300000000000004,32.2,43.300000000000004,16
801,13452.0,-1.9000000000000001,-0.6000000000000001,-1.4000000000000001,-1.3,0.0,8.4,-68.5,35.3,44.00000000000001,16
802,13468.0,-1.8,-0.1,-1.0,-1.3,0.1,8.8,-64.7,45.0,52.80000000000001,16
803,13485.0,-1.7000000000000002,0.0,-0.9,-1.2000000000000002,0.2,8.700000000000001,-64.7,45.0,52.80000000000001,16
804,13504.0,-1.2000000000000002,0.30000000000000004,-1.1,-0.8,0.1,8.5,-58.1,46.7,58.1,16
805,13518.0,-0.6000000000000001,0.2,-1.0,-0.5,-0.30000000000000004,8.8,-49.6,52.00000000000001,60.6,16
806,13535.0,-0.4,0.1,-0.8,-0.30000000000000004,-0.30000000000000004,9.1,-49.6,52.00000000000001,60.6,16
807,13552.0,0.0,0.4,-0.6000000000000001,-0.30000000000000004,0.2,8.6,-41.1,45.099999999999994,56.2,16
808,13568.0,0.1,1.1,-1.6,-0.4,0.8,7.9,-26.9,37.800000000000004,54.800000000000004,16
809,13589.0,0.1,1.6,-1.8,-0.30000000000000004,1.0,7.9,-24.5,37.300000000000004,59.60000000000001,16
810,13602.0,0.30000000000000004,1.7000000000000002,-1.7000000000000002,0.0,0.9,8.3,-24.5,37.300000000000004,59.60000000000001,16
811,13626.0,1.0,1.4000000000000001,-0.7000000000000001,0.5,0.4,9.4,-20.0,43.300000000000004,63.70000000000001,16
812,13636.0,1.3,1.2000000000000002,-0.2,0.7000000000000001,0.2,9.8,-20.0,43.300000000000004,63.70000000000001,16
813,13652.0,1.8,1.0,0.5,0.9,0.2,10.4,-15.700000000000001,44.00000000000001,59.9,16
814,13668.0,2.0,1.2000000000000002,1.5,0.9,0.4,11.700000000000001,-15.5,49.6,54.0,16
815,13686.0,2.1,1.2000000000000002,2.2,1.0,0.30000000000000004,12.5,-15.5,49.6,54.0,16
816,13702.0,2.6,0.9,3.9000000000000004,1.6,-0.2,14.0,-13.399999999999999,45.9,52.2,16
817,13723.0,3.3000000000000003,0.30000000000000004,4.9,2.1,-0.7000000000000001,14.8,-0.7,23.6,36.5,16
818,13736.0,3.7,0.1,5.2,2.3000000000000003,-0.6000000000000001,14.600000000000001,-0.7,23.6,36.5,16
819,13751.0,3.7,0.2,5.0,2.2,-0.30000000000000004,14.5,2.8,11.700000000000001,24.8,16
820,13769.0,3.6,0.6000000000000001,5.0,2.1,-0.2,15.100000000000001,-0.5,7.400000000000001,16.0,16
821,13785.0,3.9000000000000004,0.5,6.1000000000000005,2.5,-0.5,16.1,1.0,0.9000000000000001,3.1,16
822,13802.0,4.0,0.30000000000000004,6.4,2.6,-0.5,15.700000000000001,1.0,0.9000000000000001,3.1,16
823,13825.0,4.0,0.4,5.4,2.4000000000000004,-0.1,14.600000000000001,12.9,-9.0,-7.8,16
824,13835.0,3.4000000000000004,0.8,4.3,1.7000000000000002,-0.1,13.8,12.9,3.2,-17.1,16
825,13851.0,3.0,0.5,4.0,1.4000000000000001,-0.6000000000000001,14.200000000000001,12.9,3.2,-17.1,16
826,13869.0,2.5,-0.5,5.1000000000000005,1.1,-1.7000000000000002,15.5,11.900000000000002,16.0,-16.1,16
827,13885.0,2.6,-1.6,5.6000000000000005,1.3,-2.4000000000000004,14.5,57.3,-23.700000000000003,-31.9,16
828,13902.0,2.6,-2.0,4.6000000000000005,1.5,-2.4000000000000004,12.9,57.3,-23.700000000000003,-31.9,16
829,13930.0,2.2,-1.3,0.2,1.2000000000000002,-1.2000000000000002,9.5,54.9,-74.2,-62.300000000000004,16
830,13935.0,2.0,-1.1,-0.5,1.0,-0.9,9.200000000000001,41.300000000000004,-72.7,-67.60000000000001,16
831,13951.0,1.6,-0.9,-0.8,0.9,-0.8,9.1,41.300000000000004,-72.7,-67.60000000000001,16
832,13968.0,1.3,-0.8,-0.8,0.5,-0.8,9.3,35.8,-58.0,-67.9,16
833,13986.0,1.1,-1.0,-0.8,0.8,-0.7000000000000001,9.0,44.00000000000001,-32.0,-67.10000000000001,16
834,14002.0,1.0,-1.0,-1.0,0.6000000000000001,-0.6000000000000001,9.0,44.00000000000001,-32.0,-67.10000000000001,16
835,14018.0,0.5,-1.0,-1.2000000000000002,0.2,-0.5,9.0,42.2,-19.400000000000002,-66.0,16
836,14035.0,0.0,-0.9,-0.8,-0.4,-0.30000000000000004,9.5,32.7,-8.600000000000001,-59.20000000000001,16
837,14051.0,-0.2,-0.8,-0.5,-0.6000000000000001,-0.2,9.5,32.7,-8.600000000000001,-59.20000000000001,16
838,14072.0,-0.8,-0.7000000000000001,-0.8,-0.9,-0.1,8.700000000000001,34.400000000000006,-20.5,-54.800000000000004,16
839,14085.0,-1.0,-1.0,-1.9000000000000001,-0.8,-0.30000000000000004,7.6000000000000005,31.3,-53.7,-50.3,16
840,14104.0,-0.8,-1.3,-2.8000000000000003,-0.5,-0.5,7.1000000000000005,22.3,-59.1,-54.0,16
841,14124.0,-1.0,-1.2000000000000002,-2.6,-0.8,-0.2,7.4,16.8,-61.199999999999996,-60.400000000000006,16
842,14135.0,-1.4000000000000001,-1.1,-2.5,-1.0,0.0,7.6000000000000005,18.6,-65.5,-63.0,16
843,14160.0,-1.6,-1.0,-2.3000000000000003,-1.1,0.2,7.800000000000001,18.6,-65.5,-63.0,16
844,14169.0,-1.8,-0.7000000000000001,-2.0,-1.0,0.5,7.7,29.300000000000004,-61.39999999999999,-59.5,16
845,14185.0,-1.9000000000000001,-0.7000000000000001,-2.2,-0.9,0.5,7.6000000000000005,47.1,-37.9,-48.300000000000004,16
846,14202.0,-1.9000000000000001,-0.8,-2.1,-0.9,0.4,8.0,47.1,-37.9,-48.300000000000004,16
847,14221.0,-1.9000000000000001,-1.1,-1.7000000000000002,-1.0,0.5,8.200000000000001,52.5,-24.599999999999998,-45.2,16
848,14235.0,-2.2,-1.1,-1.4000000000000001,-1.2000000000000002,0.7000000000000001,8.200000000000001,56.6,-19.799999999999997,-42.2,16
849,14251.0,-2.4000000000000004,-1.1,-1.2000000000000002,-1.5,0.8,8.4,53.50000000000001,-17.400000000000002,-29.300000000000004,16
850,14268.0,-2.5,-1.1,-1.1,-1.5,0.8,8.3,53.50000000000001,-17.400000000000002,-29.300000000000004,16
851,14286.0,-2.6,-1.3,-1.5,-1.6,0.8,8.0,44.5,-20.5,-22.3,16
852,14302.0,-2.8000000000000003,-1.4000000000000001,-1.6,-1.6,0.8,7.9,12.8,-19.9,-9.4,16
853,14320.0,-2.7,-1.4000000000000001,-1.6,-1.6,0.9,8.1,12.8,-19.9,-9.4,16
854,14335.0,-2.6,-1.3,-0.7000000000000001,-1.3,0.8,9.200000000000001,-1.5,-11.700000000000001,-2.6,16
855,14351.0,-2.6,-1.5,-0.1,-1.3,0.8,9.0,-6.1000000000000005,-3.0,2.4000000000000004,16
856,14370.0,-2.4000000000000004,-1.1,-1.1,-1.2000000000000002,1.2000000000000002,7.9,-3.6000000000000005,-4.0,5.6,16
857,14385.0,-2.4000000000000004,-0.9,-1.5,-1.3,1.2000000000000002,8.0,-13.200000000000003,-0.30000000000000004,10.8,16
858,14402.0,-2.4000000000000004,-0.8,-1.5,-1.4000000000000001,1.1,8.5,-35.2,13.700000000000001,19.700000000000003,16
859,14423.0,-2.4000000000000004,-0.8,-1.5,-1.4000000000000001,1.1,8.5,-35.2,13.700000000000001,19.700000000000003,16
860,14440.0,-2.2,-1.8,2.1,-1.2000000000000002,-0.5,12.0,-59.20000000000001,36.1,35.3,16
861,14451.0,-1.9000000000000001,-2.1,2.4000000000000004,-1.1,-0.6000000000000001,11.5,-37.6,18.200000000000003,30.799999999999997,16
862,14471.0,-1.8,-1.7000000000000002,1.1,-1.1,-0.1,10.0,-34.900000000000006,11.000000000000002,28.200000000000003,16
863,14485.0,-1.8,-1.3,0.30000000000000004,-1.2000000000000002,0.2,9.4,-34.900000000000006,11.000000000000002,28.200000000000003,16
864,14503.0,-1.9000000000000001,-0.7000000000000001,-0.6000000000000001,-1.1,0.30000000000000004,8.8,-51.50000000000001,17.7,37.0,16
865,14518.0,-1.8,-0.7000000000000001,-0.9,-1.0,0.2,8.6,-51.50000000000001,17.7,37.0,16
866,14535.0,-1.4000000000000001,-0.7000000000000001,-1.1,-0.8,0.0,8.8,-60.1,23.0,41.7,16
867,14551.0,-1.4000000000000001,-0.4,-0.7000000000000001,-0.9,0.30000000000000004,9.200000000000001,-62.7,37.50000000000001,44.00000000000001,16
868,14568.0,-1.3,-0.1,-0.5,-1.0,0.4,9.5,-62.7,37.50000000000001,44.00000000000001,16
869,14585.0,-1.4000000000000001,0.30000000000000004,0.0,-1.2000000000000002,0.5,9.5,-54.6,43.50000000000001,47.5,16
870,14602.0,-1.1,0.5,-0.4,-1.0,0.6000000000000001,9.200000000000001,-42.60000000000001,39.0,54.50000000000001,16
871,14619.0,-0.8,0.6000000000000001,-0.7000000000000001,-0.7000000000000001,0.6000000000000001,8.9,-41.900000000000006,33.2,57.3,16
872,14635.0,-0.6000000000000001,0.7000000000000001,-0.8,-0.5,0.6000000000000001,8.6,-41.900000000000006,33.2,57.3,16
873,14651.0,-0.1,0.8,-1.2000000000000002,-0.1,0.4,8.4,-41.50000000000001,28.200000000000003,59.699999999999996,16
874,14669.0,0.2,0.8,-1.2000000000000002,0.0,0.6000000000000001,8.5,-34.60000000000001,15.899999999999999,60.00000000000001,16
875,14685.0,0.30000000000000004,1.0,-1.2000000000000002,0.1,0.7000000000000001,8.200000000000001,-34.60000000000001,15.899999999999999,60.00000000000001,16
876,14702.0,0.6000000000000001,1.3,-1.8,0.2,0.8,7.800000000000001,-28.800000000000004,15.8,61.300000000000004,16
877,14721.0,0.7000000000000001,1.4000000000000001,-1.7000000000000002,0.4,0.7000000000000001,8.5,-23.5,32.400000000000006,65.3,16
878,14739.0,1.1,1.2000000000000002,-0.6000000000000001,0.7000000000000001,0.4,9.3,-17.7,41.800000000000004,65.4,16
879,14752.0,1.3,1.1,-0.30000000000000004,0.7000000000000001,0.2,9.8,-17.7,41.800000000000004,65.4,16
880,14768.0,1.5,0.7000000000000001,0.8,0.7000000000000001,0.0,11.4,-8.3,49.699999999999996,59.20000000000001,16
881,14785.0,1.6,0.6000000000000001,1.8,0.8,-0.1,12.200000000000001,-8.3,49.699999999999996,59.20000000000001,16
882,14802.0,2.0,0.4,3.0,1.4000000000000001,-0.2,12.600000000000001,-1.5,40.1,55.0,16
883,14819.0,2.6,0.2,2.9000000000000004,1.8,-0.4,12.5,-10.0,8.600000000000001,39.300000000000004,16
884,14835.0,2.9000000000000004,0.30000000000000004,2.9000000000000004,1.9000000000000001,-0.4,12.5,-10.0,8.600000000000001,39.300000000000004,16
885,14852.0,3.0,0.4,2.8000000000000003,1.8,-0.4,12.5,-22.000000000000004,-0.8,30.4,16
886,14869.0,2.7,0.30000000000000004,3.1,1.8,-0.7000000000000001,13.100000000000001,-25.7,7.699999999999999,20.2,16
887,14885.0,2.8000000000000003,0.1,3.4000000000000004,1.9000000000000001,-1.0,13.600000000000001,-25.7,7.699999999999999,20.2,16
888,14902.0,3.2,-0.4,4.2,2.3000000000000003,-1.3,14.0,-14.600000000000001,15.8,14.100000000000001,16
889,14923.0,3.4000000000000004,-0.5,4.3,2.1,-1.1,13.8,8.899999999999999,12.200000000000001,-7.9,16
890,14935.0,3.2,-0.30000000000000004,4.1000000000000005,1.9000000000000001,-0.8,13.5,8.899999999999999,12.200000000000001,-7.9,16
891,14951.0,2.8000000000000003,0.30000000000000004,3.4000000000000004,1.3,-0.5,13.100000000000001,12.0,15.5,-13.6,16
892,14968.0,2.2,-0.1,4.2,0.9,-1.4000000000000001,15.3,5.6,37.400000000000006,-10.0,16
893,14986.0,2.1,-0.6000000000000001,5.5,0.7000000000000001,-1.9000000000000001,16.0,5.6,37.400000000000006,-10.0,16
894,15002.0,2.0,-1.7000000000000002,6.300000000000001,0.9,-2.6,15.700000000000001,21.300000000000004,21.0,-14.900000000000002,16
895,15021.0,2.0,-1.8,4.7,0.7000000000000001,-2.0,13.200000000000001,47.1,-53.9,-41.6,16
896,15035.0,1.8,-1.5,3.2,0.6000000000000001,-1.7000000000000002,12.100000000000001,47.1,-53.9,-41.6,16
897,15051.0,1.4000000000000001,-1.1,1.4000000000000001,0.6000000000000001,-1.3,10.9,43.900000000000006,-67.8,-48.10000000000001,16
898,15068.0,1.2000000000000002,-0.9,0.6000000000000001,0.6000000000000001,-1.0,10.0,41.800000000000004,-67.8,-55.0,16
899,15086.0,1.1,-0.8,-0.8,0.7000000000000001,-1.0,8.700000000000001,39.599999999999994,-52.7,-55.60000000000001,16
900,15104.0,1.0,-0.8,-1.3,0.6000000000000001,-1.0,8.8,39.599999999999994,-52.7,-55.60000000000001,16
901,15124.0,0.7000000000000001,-0.9,-1.1,0.30000000000000004,-0.9,9.0,39.699999999999996,-35.699999999999996,-54.800000000000004,16
902,15135.0,0.4,-0.9,-1.0,0.1,-0.8,9.1,43.2,-23.400000000000002,-54.0,16
903,15151.0,0.1,-1.0,-0.9,0.0,-0.8,9.3,44.6,-14.400000000000002,-51.800000000000004,16
904,15170.0,-0.1,-1.1,-1.1,-0.2,-0.6000000000000001,8.8,45.3,-14.300000000000002,-49.199999999999996,16
905,15185.0,-0.30000000000000004,-1.0,-1.2000000000000002,-0.4,-0.5,8.8,43.4,-19.400000000000002,-46.300000000000004,16
906,15202.0,-0.6000000000000001,-1.0,-1.4000000000000001,-0.5,-0.30000000000000004,8.1,39.2,-34.2,-42.2,16
907,15218.0,-0.8,-0.8,-2.3000000000000003,-0.5,-0.2,7.1000000000000005,32.5,-49.4,-38.400000000000006,16
908,15235.0,-0.8,-0.9,-2.8000000000000003,-0.2,-0.4,6.800000000000001,23.400000000000002,-60.2,-34.7,16
909,15252.0,-0.6000000000000001,-1.2000000000000002,-3.2,0.1,-0.5,7.0,13.5,-61.300000000000004,-33.6,16
910,15270.0,-0.9,-1.2000000000000002,-2.6,0.1,-0.30000000000000004,7.300000000000001,9.2,-63.500000000000014,-37.400000000000006,16
911,15286.0,-1.0,-0.9,-2.5,0.0,0.2,7.300000000000001,21.200000000000003,-61.199999999999996,-39.50000000000001,16
912,15302.0,-1.1,-0.7000000000000001,-2.5,-0.1,0.5,7.300000000000001,21.200000000000003,-61.199999999999996,-39.50000000000001,16
913,15321.0,-1.3,-0.30000000000000004,-2.8000000000000003,0.1,0.7000000000000001,6.5,27.3,-61.7,-36.5,16
914,15335.0,-1.1,-0.4,-3.1,0.4,0.6000000000000001,7.0,19.200000000000003,-40.7,-27.9,16
915,15352.0,-1.1,-0.5,-2.7,0.4,0.6000000000000001,7.6000000000000005,19.200000000000003,-40.7,-27.9,16
916,15368.0,-1.2000000000000002,-0.7000000000000001,-1.3,0.30000000000000004,0.5,8.700000000000001,20.2,-30.3,-25.900000000000002,16
917,15388.0,-1.4000000000000001,-0.8,-0.6000000000000001,0.1,0.4,9.200000000000001,36.8,-15.000000000000002,-21.900000000000002,16
918,15404.0,-1.5,-1.0,-0.4,0.2,0.6000000000000001,9.0,39.300000000000004,-11.4,-18.700000000000003,16
919,15424.0,-1.8,-0.8,-0.7000000000000001,-0.2,0.9,8.6,32.9,-6.600000000000001,-13.700000000000001,16
920,15439.0,-1.8,-0.7000000000000001,-0.9,-0.2,1.0,8.4,17.200000000000003,-3.7000000000000006,-6.500000000000001,16
921,15454.0,-1.8,-0.5,-1.0,-0.1,1.0,8.9,-4.0,4.6,1.3,16
922,15468.0,-1.7000000000000002,-0.6000000000000001,-0.6000000000000001,0.1,0.7000000000000001,9.600000000000001,-4.0,4.6,1.3,16
923,15485.0,-1.3,-1.1,0.7000000000000001,0.2,0.30000000000000004,10.4,-22.3,-1.9,-0.2,16
924,15503.0,-1.5,-0.9,0.5,-0.1,1.1,9.4,-22.3,-1.9,-0.2,16
925,15522.0,-1.6,-0.30000000000000004,-0.1,-0.2,1.4000000000000001,9.200000000000001,-21.400000000000002,-10.1,-3.9,16
926,15537.0,-1.9000000000000001,0.1,-0.1,-0.30000000000000004,1.3,9.9,-33.6,25.300000000000004,9.700000000000001,16
927,15556.0,-1.6,-0.2,0.7000000000000001,-0.30000000000000004,0.6000000000000001,10.600000000000001,-36.1,34.300000000000004,15.000000000000002,16
928,15568.0,-1.7000000000000002,-0.5,1.0,-0.30000000000000004,0.30000000000000004,10.9,-36.1,34.300000000000004,15.000000000000002,16
929,15586.0,-1.4000000000000001,-1.0,1.5,-0.2,-0.4,11.600000000000001,-41.7,36.6,18.1,16
930,15603.0,-1.4000000000000001,-1.5,2.2,-0.30000000000000004,-0.8,12.0,-42.0,24.200000000000003,12.299999999999999,16
931,15621.0,-1.4000000000000001,-1.6,2.3000000000000003,-0.4,-0.8,11.600000000000001,-42.0,24.200000000000003,12.299999999999999,16
932,15635.0,-1.6,-1.2000000000000002,1.3,-0.7000000000000001,-0.30000000000000004,10.4,-32.2,12.8,7.300000000000001,16
933,15653.0,-1.9000000000000001,-0.6000000000000001,0.1,-1.2000000000000002,0.2,9.4,-19.6,16.900000000000002,7.1000000000000005,16
934,15668.0,-2.1,-0.30000000000000004,-0.4,-1.3,0.4,8.700000000000001,-19.6,16.900000000000002,7.1000000000000005,16
935,15685.0,-2.1,0.2,-1.4000000000000001,-1.4000000000000001,0.7000000000000001,8.3,-20.400000000000002,25.200000000000003,14.0,16
936,15702.0,-2.1,0.4,-1.4000000000000001,-1.2000000000000002,0.6000000000000001,8.4,-24.200000000000003,37.6,21.8,16
937,15718.0,-1.9000000000000001,0.30000000000000004,-1.3,-1.2000000000000002,0.4,8.5,-27.400000000000002,42.0,28.700000000000003,16
938,15735.0,-1.7000000000000002,0.2,-1.1,-1.2000000000000002,0.30000000000000004,8.5,-29.600000000000005,43.50000000000001,32.7,16
939,15752.0,-1.5,0.4,-1.5,-1.3,0.6000000000000001,7.9,-29.600000000000005,36.400000000000006,34.60000000000001,16
940,15768.0,-1.5,0.6000000000000001,-1.9000000000000001,-1.3,0.6000000000000001,7.4,-28.900000000000002,31.0,36.9,16
941,15785.0,-1.5,0.7000000000000001,-2.5,-1.4000000000000001,0.7000000000000001,7.5,-29.700000000000006,31.400000000000002,41.1,16
942,15804.0,-1.3,1.0,-1.9000000000000001,-1.1,0.7000000000000001,7.800000000000001,-23.900000000000006,34.800000000000004,51.9,16
943,15822.0,-0.9,0.7000000000000001,-2.1,-0.9,0.5,7.5,-21.900000000000002,33.800000000000004,54.6,16
944,15835.0,-0.8,0.7000000000000001,-2.1,-0.8,0.5,7.5,-21.900000000000002,33.800000000000004,54.6,16
945,15852.0,-0.4,0.9,-2.1,-0.6000000000000001,0.5,7.7,-28.0,32.400000000000006,58.3,16
946,15871.0,-0.30000000000000004,0.9,-1.9000000000000001,-0.5,0.6000000000000001,8.200000000000001,-28.0,32.400000000000006,58.3,16
947,15893.0,0.1,1.0,-1.0,-0.4,0.4,8.9,-26.000000000000004,46.0,62.300000000000004,16
948,15902.0,0.30000000000000004,0.9,-0.7000000000000001,-0.30000000000000004,0.30000000000000004,9.4,-28.700000000000003,55.8,63.70000000000001,16
949,15918.0,0.5,0.9,-0.2,-0.1,0.1,10.3,-28.700000000000003,55.8,63.70000000000001,16
950,15935.0,1.0,0.4,1.9000000000000001,0.30000000000000004,-0.4,12.200000000000001,-27.6,59.1,61.8,16
951,15951.0,1.6,0.1,3.0,0.7000000000000001,-0.6000000000000001,12.8,-12.600000000000001,39.9,45.5,16
952,15969.0,1.9000000000000001,0.1,3.2,0.7000000000000001,-0.5,12.9,-12.600000000000001,39.9,45.5,16
953,15985.0,2.2,0.4,3.5,0.9,-0.1,13.100000000000001,-7.9,25.7,36.300000000000004,16
954,16002.0,2.3000000000000003,0.6000000000000001,3.4000000000000004,1.2000000000000002,-0.1,12.9,-6.500000000000001,15.100000000000001,29.500000000000004,16
955,16018.0,2.5,0.6000000000000001,3.3000000000000003,1.4000000000000001,-0.4,13.600000000000001,-10.1,12.600000000000001,25.7,16
956,16035.0,2.8000000000000003,0.30000000000000004,3.9000000000000004,1.5,-0.5,14.0,-14.0,19.400000000000002,22.8,16
957,16052.0,3.1,0.1,4.7,1.8,-0.7000000000000001,14.3,-13.5,22.3,18.0,16
958,16068.0,3.3000000000000003,0.30000000000000004,4.4,1.8,-0.4,13.9,-6.1000000000000005,15.6,2.6,16
959,16085.0,3.3000000000000003,0.4,4.2,1.7000000000000002,-0.30000000000000004,13.9,-6.1000000000000005,15.6,2.6,16
960,16103.0,3.0,0.4,4.5,1.3,-0.6000000000000001,14.600000000000001,-7.500000000000001,21.300000000000004,-1.3,16
961,16124.0,2.8000000000000003,-0.1,5.5,1.3,-1.3,15.600000000000001,-2.9,20.5,-6.2,16
962,16135.0,2.8000000000000003,-0.5,5.800000000000001,1.3,-1.7000000000000002,15.5,-2.9,20.5,-6.2,16
963,16151.0,3.0,-1.1,5.2,1.6,-2.1,14.200000000000001,11.000000000000002,-1.3,-15.700000000000001,16
964,16168.0,3.0,-1.1,3.2,1.5,-1.5,11.9,29.900000000000006,-52.300000000000004,-43.800000000000004,16
965,16185.0,2.8000000000000003,-0.8,1.9000000000000001,1.4000000000000001,-1.3,11.0,29.900000000000006,-52.300000000000004,-43.800000000000004,16
966,16205.0,2.4000000000000004,-0.4,0.5,1.2000000000000002,-0.9,10.100000000000001,29.900000000000006,-53.7,-50.900000000000006,16
967,16224.0,2.0,-0.30000000000000004,-0.30000000000000004,1.1,-0.9,9.3,38.60000000000001,-37.9,-54.300000000000004,16
968,16235.0,1.9000000000000001,-0.4,-0.7000000000000001,1.0,-1.0,9.200000000000001,38.60000000000001,-37.9,-54.300000000000004,16
969,16251.0,1.5,-0.7000000000000001,-0.7000000000000001,0.9,-1.0,9.0,41.0,-27.3,-54.699999999999996,16
970,16268.0,1.4000000000000001,-0.7000000000000001,-0.9,0.5,-0.8,9.3,39.50000000000001,-11.4,-54.699999999999996,16
971,16285.0,1.1,-0.7000000000000001,-0.7000000000000001,0.2,-0.7000000000000001,9.4,39.50000000000001,-11.4,-54.699999999999996,16
972,16302.0,0.6000000000000001,-0.6000000000000001,-0.4,0.0,-0.8,9.8,37.2,-11.900000000000002,-51.6,16
973,16319.0,0.4,-1.0,0.0,-0.30000000000000004,-1.0,10.100000000000001,38.1,-25.1,-47.7,16
974,16336.0,0.0,-1.0,0.0,-0.30000000000000004,-0.9,10.0,38.1,-25.1,-47.7,16
975,16351.0,-0.1,-1.0,-0.1,-0.6000000000000001,-0.6000000000000001,9.700000000000001,40.4,-35.599999999999994,-48.400000000000006,16
976,16368.0,-0.6000000000000001,-0.9,-0.8,-0.8,-0.4,8.8,40.7,-56.7,-49.6,16
977,16385.0,-0.8,-0.9,-1.1,-0.9,-0.30000000000000004,8.6,40.7,-56.7,-49.6,16
978,16402.0,-1.0,-0.7000000000000001,-1.7000000000000002,-0.9,0.1,7.800000000000001,39.50000000000001,-63.8,-49.0,16
979,16421.0,-1.4000000000000001,-0.30000000000000004,-2.5,-1.1,0.5,7.300000000000001,31.799999999999997,-60.300000000000004,-42.800000000000004,16
980,16435.0,-1.5,-0.30000000000000004,-2.6,-1.1,0.6000000000000001,7.4,31.799999999999997,-60.300000000000004,-42.800000000000004,16
981,16451.0,-1.7000000000000002,-0.2,-2.4000000000000004,-1.1,0.30000000000000004,7.5,31.0,-54.9,-37.400000000000006,16
982,16468.0,-1.5,-0.9,-2.5,-0.7000000000000001,0.0,7.4,30.599999999999998,-55.400000000000006,-33.300000000000004,16
983,16485.0,-1.6,-1.2000000000000002,-2.1,-0.7000000000000001,-0.2,7.7,30.200000000000003,-45.5,-31.799999999999997,16
984,16502.0,-1.8,-1.3,-2.0,-1.0,0.0,7.5,32.5,-44.7,-33.7,16
985,16522.0,-2.2,-1.0,-2.2,-1.1,0.30000000000000004,7.4,34.400000000000006,-41.199999999999996,-33.300000000000004,16
986,16539.0,-2.2,-0.9,-2.3000000000000003,-0.9,0.4,7.2,28.1,-31.2,-24.5,16
987,16552.0,-2.1,-1.0,-2.4000000000000004,-0.9,0.4,7.2,28.1,-31.2,-24.5,16
988,16568.0,-2.2,-1.1,-2.2,-0.9,0.4,7.7,20.0,-22.6,-20.1,16
989,16585.0,-2.2,-1.1,-1.6,-1.0,0.30000000000000004,8.4,1.8000000000000003,-2.5,-9.3,16
990,16602.0,-2.2,-1.2000000000000002,-1.1,-0.9,0.1,8.9,1.8000000000000003,-2.5,-9.3,16
991,16618.0,-2.1,-1.4000000000000001,-0.4,-0.9,0.0,9.600000000000001,-4.4,1.8000000000000003,-5.300000000000001,16
992,16636.0,-2.0,-1.6,0.0,-0.7000000000000001,-0.1,9.200000000000001,-9.4,-4.1,-3.4,16
993,16651.0,-1.9000000000000001,-1.5,-0.4,-0.6000000000000001,0.2,8.5,-9.4,-4.1,-3.4,16
994,16668.0,-1.7000000000000002,-0.7000000000000001,-1.2000000000000002,-0.9,0.8,8.5,-20.2,-2.5,-1.7,16
995,16685.0,-2.0,-0.5,-0.4,-0.9,0.4,10.0,-51.300000000000004,29.400000000000002,13.5,16
996,16702.0,-1.9000000000000001,-0.6000000000000001,0.4,-0.8,0.1,10.700000000000001,-51.300000000000004,29.400000000000002,13.5,16
997,16719.0,-1.8,-1.1,1.5,-0.8,-0.5,11.4,-54.0,36.300000000000004,19.300000000000004,16
998,16735.0,-1.6,-1.5,2.0,-0.9,-1.0,12.0,-52.300000000000004,36.400000000000006,23.400000000000002,16
999,16751.0,-1.6,-1.6,2.3000000000000003,-0.8,-1.2000000000000002,12.100000000000001,-52.300000000000004,36.400000000000006,23.400000000000002,16
1000,16768.0,-1.3,-1.6,2.2,-0.6000000000000001,-1.2000000000000002,11.5,-47.1,28.200000000000003,22.6,16
1001,16787.0,-1.2000000000000002,-1.4000000000000001,1.3,-0.8,-1.0,10.700000000000001,-43.4,17.200000000000003,18.900000000000002,16
1002,16802.0,-1.4000000000000001,-1.0,0.6000000000000001,-1.0,-0.7000000000000001,10.0,-43.4,17.200000000000003,18.900000000000002,16
1003,16818.0,-1.5,-0.8,0.2,-1.0,-0.5,9.700000000000001,-42.5,17.1,19.5,16
1004,16835.0,-1.4000000000000001,-0.2,-0.4,-1.1,-0.1,9.1,-39.9,19.5,20.900000000000002,16
1005,16851.0,-1.5,0.1,-0.7000000000000001,-1.2000000000000002,0.1,8.700000000000001,-36.7,23.400000000000002,21.6,16
1006,16868.0,-1.4000000000000001,0.5,-1.4000000000000001,-1.2000000000000002,0.4,8.200000000000001,-35.4,27.099999999999998,25.900000000000002,16
1007,16885.0,-1.3,1.0,-1.6,-1.3,0.7000000000000001,8.1,-34.0,36.9,36.9,16
1008,16902.0,-1.2000000000000002,1.3,-1.8,-1.2000000000000002,0.8,7.9,-35.1,38.900000000000006,43.00000000000001,16
1009,16920.0,-1.1,1.3,-1.8,-1.2000000000000002,0.7000000000000001,7.9,-35.1,38.900000000000006,43.00000000000001,16
1010,16935.0,-0.8,1.3,-1.9000000000000001,-1.0,0.5,7.7,-36.0,39.1,49.0,16
1011,16953.0,-0.6000000000000001,1.2000000000000002,-2.0,-0.9,0.4,7.6000000000000005,-35.3,37.300000000000004,53.300000000000004,16
1012,16969.0,-0.30000000000000004,1.2000000000000002,-2.0,-0.8,0.4,8.0,-32.8,36.5,55.900000000000006,16
1013,16992.0,-0.1,1.1,-1.2000000000000002,-0.6000000000000001,0.0,9.0,-30.3,35.8,58.900000000000006,16
1014,17001.0,0.30000000000000004,0.9,-0.2,-0.2,-0.30000000000000004,9.600000000000001,-21.500000000000004,25.8,62.0,16
1015,17018.0,0.6000000000000001,0.7000000000000001,0.0,0.0,-0.30000000000000004,9.700000000000001,-21.500000000000004,25.8,62.0,16
1016,17035.0,0.9,0.8,0.1,0.1,-0.2,9.9,-18.700000000000003,20.599999999999998,59.20000000000001,16
1017,17051.0,1.1,0.9,0.6000000000000001,0.2,-0.2,10.600000000000001,-18.5,25.5,55.900000000000006,16
1018,17068.0,1.2000000000000002,0.9,1.0,0.4,-0.30000000000000004,11.100000000000001,-18.5,25.5,55.900000000000006,16
1019,17086.0,1.7000000000000002,0.6000000000000001,2.0,0.9,-0.6000000000000001,12.100000000000001,-14.400000000000002,27.3,54.300000000000004,16
1020,17102.0,2.4000000000000004,0.30000000000000004,2.7,1.4000000000000001,-0.9,12.3,-4.0,23.099999999999998,41.800000000000004,16
1021,17120.0,2.6,0.2,2.7,1.4000000000000001,-0.9,12.3,-4.0,23.099999999999998,41.800000000000004,16
1022,17135.0,2.7,0.30000000000000004,2.8000000000000003,1.4000000000000001,-0.8,12.700000000000001,-3.4,19.6,32.300000000000004,16
1023,17151.0,2.8000000000000003,0.4,3.4000000000000004,1.4000000000000001,-0.7000000000000001,13.200000000000001,-2.0,20.8,19.0,16
1024,17168.0,2.8000000000000003,0.4,3.6,1.5,-0.9,13.5,-2.0,20.8,19.0,16
1025,17185.0,3.2,0.1,4.2,1.8,-1.0,14.4,-1.6,22.8,12.7,16
1026,17202.0,3.4000000000000004,0.2,4.9,1.9000000000000001,-0.5,14.200000000000001,11.6,7.200000000000001,-8.100000000000001,16
1027,17219.0,3.3000000000000003,0.5,4.5,1.8,-0.30000000000000004,13.5,11.6,7.200000000000001,-8.100000000000001,16
1028,17238.0,3.4000000000000004,0.9,3.5,1.5,-0.1,13.4,14.400000000000002,10.299999999999999,-10.8,16
1029,17254.0,2.9000000000000004,0.6000000000000001,4.1000000000000005,1.2000000000000002,-0.9,14.8,8.8,26.000000000000004,-11.1,16
1030,17268.0,2.7,0.1,5.1000000000000005,1.1,-1.4000000000000001,15.9,8.8,26.000000000000004,-11.1,16
1031,17285.0,2.6,-0.9,6.300000000000001,0.9,-2.1,15.9,22.000000000000004,17.5,-16.200000000000003,16
1032,17303.0,2.4000000000000004,-1.3,5.2,0.9,-1.8,13.9,53.599999999999994,-33.50000000000001,-41.199999999999996,16
1033,17318.0,2.3000000000000003,-1.1,4.0,0.7000000000000001,-1.4000000000000001,12.700000000000001,53.599999999999994,-33.50000000000001,-41.199999999999996,16
1034,17336.0,1.7000000000000002,-0.5,2.0,0.30000000000000004,-0.8,11.600000000000001,52.400000000000006,-42.60000000000001,-48.300000000000004,16
1035,17353.0,1.3,-0.4,1.3,0.2,-0.9,11.0,49.50000000000001,-41.800000000000004,-49.9,16
1036,17370.0,1.2000000000000002,-0.7000000000000001,0.7000000000000001,0.2,-0.9,10.3,56.7,-36.6,-52.60000000000001,16
1037,17385.0,1.1,-0.8,0.30000000000000004,0.1,-0.8,9.9,56.7,-36.6,-52.60000000000001,16
1038,17402.0,0.9,-0.7000000000000001,-0.7000000000000001,0.0,-0.5,9.0,58.900000000000006,-34.1,-54.1,16
1039,17418.0,0.7000000000000001,-0.6000000000000001,-1.2000000000000002,-0.1,-0.30000000000000004,9.0,50.3,-29.0,-51.9,16
1040,17435.0,0.5,-0.6000000000000001,-1.1,-0.2,-0.30000000000000004,9.0,50.3,-29.0,-51.9,16
1041,17455.0,0.2,-0.6000000000000001,-1.2000000000000002,-0.30000000000000004,-0.2,8.6,46.7,-33.2,-49.1,16
1042,17469.0,0.1,-0.7000000000000001,-1.4000000000000001,-0.2,-0.1,7.9,43.70000000000001,-42.400000000000006,-46.50000000000001,16
1043,17485.0,0.0,-0.7000000000000001,-2.1,-0.2,0.0,7.4,38.900000000000006,-56.10000000000001,-45.2,16
1044,17502.0,-0.2,-0.6000000000000001,-2.8000000000000003,-0.30000000000000004,0.2,7.1000000000000005,33.300000000000004,-65.3,-43.900000000000006,16
1045,17521.0,-0.5,-0.5,-2.9000000000000004,-0.30000000000000004,0.4,7.2,28.3,-66.60000000000001,-37.400000000000006,16
1046,17535.0,-0.7000000000000001,-0.5,-2.7,-0.30000000000000004,0.4,7.300000000000001,28.3,-66.60000000000001,-37.400000000000006,16
1047,17551.0,-0.8,-0.6000000000000001,-2.7,-0.1,0.4,7.1000000000000005,32.300000000000004,-67.2,-33.0,16
1048,17568.0,-0.9,-0.7000000000000001,-2.6,0.0,0.4,7.4,38.50000000000001,-60.400000000000006,-26.400000000000006,16
1049,17585.0,-0.9,-0.7000000000000001,-2.4000000000000004,0.0,0.4,7.6000000000000005,38.50000000000001,-60.400000000000006,-26.400000000000006,16
1050,17602.0,-1.0,-1.0,-1.8,-0.1,0.30000000000000004,8.3,40.0,-54.6,-23.700000000000003,16
1051,17619.0,-1.4000000000000001,-1.2000000000000002,-1.1,-0.2,0.30000000000000004,8.5,52.300000000000004,-54.300000000000004,-18.5,16
1052,17636.0,-1.5,-1.2000000000000002,-1.1,-0.2,0.5,8.200000000000001,52.300000000000004,-54.300000000000004,-18.5,16
1053,17652.0,-1.6,-1.2000000000000002,-1.6,-0.30000000000000004,0.7000000000000001,7.800000000000001,52.7,-54.1,-13.700000000000001,16
1054,17669.0,-2.0,-1.1,-1.8,-0.5,0.8,7.800000000000001,32.6,-44.10000000000001,1.9,16
1055,17685.0,-2.1,-1.1,-1.8,-0.5,0.7000000000000001,7.9,32.6,-44.10000000000001,1.9,16
1056,17702.0,-2.1,-1.4000000000000001,-1.3,-0.1,0.30000000000000004,8.700000000000001,15.5,-37.1,10.1,16
1057,17719.0,-1.8,-1.9000000000000001,-0.2,0.1,-0.2,9.600000000000001,-5.0,-30.699999999999996,14.800000000000002,16
1058,17736.0,-1.7000000000000002,-2.1,0.1,-0.2,-0.30000000000000004,9.700000000000001,-5.0,-30.699999999999996,14.800000000000002,16
1059,17751.0,-2.1,-2.2,0.30000000000000004,-0.30000000000000004,-0.1,9.200000000000001,-3.2,-27.5,10.0,16
1060,17768.0,-2.1,-1.5,-0.8,-0.30000000000000004,0.8,8.200000000000001,-7.400000000000001,-15.700000000000001,8.2,16
1061,17786.0,-2.2,-0.8,-1.5,0.0,1.0,7.800000000000001,-26.400000000000006,1.3,14.800000000000002,16
1062,17803.0,-2.1,-0.8,-1.5,0.2,0.7000000000000001,8.4,-26.400000000000006,1.3,14.800000000000002,16
1063,17819.0,-1.9000000000000001,-1.2000000000000002,-0.2,0.0,-0.1,10.200000000000001,-46.800000000000004,23.3,18.900000000000002,16
1064,17835.0,-1.9000000000000001,-1.8,1.4000000000000001,-0.2,-0.7000000000000001,11.5,-54.9,34.0,18.8,16
1065,17853.0,-1.9000000000000001,-2.0,2.0,-0.4,-0.9,11.9,-47.900000000000006,44.300000000000004,16.1,16
1066,17868.0,-2.2,-2.1,2.3000000000000003,-0.8,-0.9,11.8,-33.400000000000006,53.2,12.8,16
1067,17885.0,-2.4000000000000004,-1.9000000000000001,2.1,-1.0,-0.8,11.700000000000001,-23.3,58.800000000000004,14.100000000000001,16
1068,17902.0,-2.2,-1.8,2.0,-1.1,-0.7000000000000001,11.8,-23.3,58.800000000000004,14.100000000000001,16
1069,17918.0,-2.3000000000000003,-1.4000000000000001,2.1,-1.4000000000000001,-0.30000000000000004,11.3,-26.400000000000006,52.60000000000001,14.5,16
1070,17936.0,-2.3000000000000003,-0.6000000000000001,0.8,-1.6,0.6000000000000001,9.9,-29.800000000000004,22.3,15.399999999999999,16
1071,17951.0,-2.5,-0.1,0.2,-1.7000000000000002,1.0,9.3,-29.800000000000004,22.3,15.399999999999999,16
1072,17968.0,-2.5,0.8,-1.1,-1.7000000000000002,1.7000000000000002,8.1,-31.9,15.700000000000001,22.1,16
1073,17988.0,-2.5,1.1,-1.7000000000000002,-1.6,1.7000000000000002,7.6000000000000005,-34.0,13.700000000000001,31.099999999999998,16
1074,18002.0,-2.0,1.1,-2.7,-0.9,1.5,6.6000000000000005,-35.4,13.000000000000002,41.6,16
1075,18018.0,-1.6,1.0,-3.5,-0.6000000000000001,1.3,6.1000000000000005,-37.7,16.0,49.50000000000001,16
1076,18035.0,-1.1,1.0,-3.7,-0.4,1.0,6.1000000000000005,-48.10000000000001,25.900000000000002,62.900000000000006,16
1077,18051.0,-0.9,0.9,-3.6,-0.1,0.8,6.5,-48.10000000000001,25.900000000000002,62.900000000000006,16
1078,18068.0,-0.4,0.6000000000000001,-2.7,0.1,0.30000000000000004,7.6000000000000005,-50.1,37.7,68.0,16
1079,18086.0,0.1,0.30000000000000004,-1.5,0.6000000000000001,-0.30000000000000004,8.6,-32.7,44.10000000000001,71.6,16
1080,18103.0,0.8,-0.2,-0.7000000000000001,1.2000000000000002,-0.7000000000000001,9.1,-18.700000000000003,41.199999999999996,66.1,16
1081,18118.0,1.1,-0.30000000000000004,-0.6000000000000001,1.3,-0.6000000000000001,8.9,-18.700000000000003,41.199999999999996,66.1,16
1082,18145.0,1.5,0.4,-1.2000000000000002,1.2000000000000002,0.30000000000000004,8.8,-12.100000000000001,40.6,52.2,16
1083,18152.0,1.5,0.4,-1.2000000000000002,1.2000000000000002,0.30000000000000004,8.8,-12.100000000000001,40.6,52.2,16
1084,18168.0,1.4000000000000001,0.9,-0.2,1.1,0.30000000000000004,10.0,-18.4,50.900000000000006,51.300000000000004,16
1085,18185.0,1.8,0.6000000000000001,1.0,1.6,-0.2,11.100000000000001,-17.6,56.0,47.400000000000006,16
1086,18205.0,2.4000000000000004,0.1,2.0,1.8,-0.7000000000000001,12.0,-12.0,53.50000000000001,39.8,16
1087,18218.0,2.5,-0.1,2.4000000000000004,1.9000000000000001,-0.8,12.5,-12.0,53.50000000000001,39.8,16
1088,18235.0,2.8000000000000003,-0.2,3.3000000000000003,2.0,-0.6000000000000001,12.9,4.7,35.699999999999996,20.7,16
1089,18252.0,2.9000000000000004,0.2,3.2,1.9000000000000001,-0.1,12.8,7.400000000000001,34.50000000000001,16.3,16
1090,18268.0,2.9000000000000004,0.4,3.1,1.9000000000000001,0.0,12.8,7.400000000000001,34.50000000000001,16.3,16
1091,18285.0,3.0,0.4,3.2,1.8,-0.2,13.3,2.7,33.7,14.300000000000002,16
1092,18303.0,3.0,0.30000000000000004,4.4,2.1,-0.30000000000000004,14.9,-10.600000000000001,23.800000000000004,7.699999999999999,16
1093,18321.0,3.3000000000000003,0.30000000000000004,5.2,2.4000000000000004,-0.2,15.200000000000001,-10.600000000000001,23.800000000000004,7.699999999999999,16
1094,18335.0,3.6,0.7000000000000001,5.0,2.4000000000000004,0.5,13.9,-3.6000000000000005,-1.8000000000000003,-1.7,16
1095,18352.0,3.7,1.4000000000000001,3.5,2.4000000000000004,1.0,13.3,-0.30000000000000004,-25.300000000000004,-8.2,16
1096,18368.0,3.4000000000000004,1.6,3.5,2.1,0.9,13.5,-7.0,-24.5,-8.4,16
1097,18385.0,2.9000000000000004,1.3,4.0,1.8,0.4,14.700000000000001,-10.200000000000001,-21.300000000000004,-7.699999999999999,16
1098,18401.0,2.5,0.5,5.5,1.6,-0.6000000000000001,15.4,18.0,-4.0,-8.4,16
1099,18418.0,2.5,0.0,5.5,1.6,-1.0,15.0,18.0,-4.0,-8.4,16
1100,18435.0,2.3000000000000003,-0.6000000000000001,3.9000000000000004,1.4000000000000001,-0.9,12.8,36.1,-19.1,-18.900000000000002,16
1101,18451.0,1.7000000000000002,-0.4,2.4000000000000004,0.9,-0.6000000000000001,12.100000000000001,41.7,-44.8,-38.60000000000001,16
1102,18468.0,1.5,-0.30000000000000004,2.1,0.8,-0.4,11.8,41.7,-44.8,-38.60000000000001,16
1103,18485.0,1.1,-0.30000000000000004,1.4000000000000001,0.7000000000000001,-0.4,11.100000000000001,42.800000000000004,-46.300000000000004,-42.60000000000001,16
1104,18502.0,0.8,-0.4,0.9,0.7000000000000001,-0.30000000000000004,10.4,45.6,-50.3,-49.9,16
1105,18518.0,0.8,-0.4,0.4,0.5,-0.2,10.0,45.6,-50.3,-49.9,16
1106,18535.0,0.30000000000000004,-0.4,-0.5,0.1,0.0,9.200000000000001,42.900000000000006,-42.3,-51.1,16
1107,18551.0,-0.30000000000000004,-0.30000000000000004,-0.9,-0.30000000000000004,0.0,9.0,34.1,-38.400000000000006,-49.6,16
1108,18570.0,-0.7000000000000001,-0.6000000000000001,-1.0,-0.5,-0.2,9.1,34.1,-38.400000000000006,-49.6,16
1109,18588.0,-0.9,-0.7000000000000001,-0.9,-0.5,-0.30000000000000004,9.0,35.599999999999994,-38.0,-46.9,16
1110,18603.0,-0.9,-1.1,-1.3,-0.30000000000000004,-0.5,8.3,48.0,-42.7,-45.0,16
1111,18618.0,-0.9,-1.3,-1.6,-0.30000000000000004,-0.30000000000000004,7.5,48.0,-42.7,-45.0,16
1112,18635.0,-1.0,-1.3,-2.5,-0.5,-0.2,7.2,51.70000000000001,-44.00000000000001,-45.8,16
1113,18651.0,-1.4000000000000001,-1.2000000000000002,-3.0,-0.6000000000000001,0.2,6.7,51.300000000000004,-38.50000000000001,-39.8,16
1114,18668.0,-1.5,-1.1,-3.1,-0.7000000000000001,0.30000000000000004,6.9,51.300000000000004,-38.50000000000001,-39.8,16
1115,18685.0,-1.5,-1.2000000000000002,-2.7,-0.4,0.1,7.2,50.60000000000001,-32.2,-32.400000000000006,16
1116,18702.0,-1.3,-1.6,-2.6,-0.1,-0.1,7.1000000000000005,50.60000000000001,-29.800000000000004,-26.700000000000003,16
1117,18718.0,-1.1,-1.8,-2.6,0.0,-0.1,7.1000000000000005,48.6,-28.700000000000003,-23.800000000000004,16
1118,18735.0,-1.1,-1.8,-2.5,-0.1,0.2,7.2,44.4,-31.9,-23.700000000000003,16
1119,18752.0,-1.3,-1.6,-2.4000000000000004,-0.1,0.5,7.4,39.50000000000001,-34.0,-21.400000000000002,16
1120,18769.0,-1.4000000000000001,-1.5,-2.1,0.1,0.5,7.5,28.700000000000003,-28.400000000000002,-10.700000000000001,16
1121,18785.0,-1.3,-1.6,-2.0,0.1,0.5,7.6000000000000005,28.700000000000003,-28.400000000000002,-10.700000000000001,16
1122,18802.0,-1.3,-1.6,-1.9000000000000001,0.0,0.6000000000000001,7.5,23.800000000000004,-24.3,-6.4,16
1123,18818.0,-1.4000000000000001,-1.4000000000000001,-1.9000000000000001,0.0,0.7000000000000001,7.7,5.9,-9.5,6.8,16
1124,18835.0,-1.5,-1.4000000000000001,-1.7000000000000002,0.1,0.5,8.0,5.9,-9.5,6.8,16
1125,18852.0,-1.1,-2.0,-1.0,0.6000000000000001,-0.2,8.9,-5.9,-7.400000000000001,11.000000000000002,16
1126,18868.0,-1.0,-2.4000000000000004,-0.30000000000000004,0.30000000000000004,-0.1,8.9,-19.400000000000002,-11.4,4.7,16
1127,18885.0,-1.2000000000000002,-2.1,-0.5,0.1,0.30000000000000004,8.5,-19.400000000000002,-11.4,4.7,16
1128,18903.0,-1.5,-1.2000000000000002,-1.2000000000000002,0.1,1.0,8.4,-33.400000000000006,-8.600000000000001,6.300000000000001,16
1129,18922.0,-1.5,-0.6000000000000001,-0.2,-0.1,0.7000000000000001,10.4,-69.9,32.6,21.300000000000004,16
1130,18935.0,-1.5,-0.8,0.9,-0.1,0.2,11.4,-69.9,32.6,21.300000000000004,16
1131,18952.0,-1.3,-1.7000000000000002,2.8000000000000003,-0.1,-0.8,12.9,-69.20000000000002,43.2,22.4,16
1132,18971.0,-1.4000000000000001,-2.1,3.3000000000000003,-0.7000000000000001,-0.8,12.700000000000001,-32.2,35.599999999999994,5.1000000000000005,16
1133,18990.0,-1.8,-1.9000000000000001,3.0,-1.3,-0.4,12.200000000000001,-32.2,35.599999999999994,5.1000000000000005,16
1134,19002.0,-2.6,-1.1,2.1,-2.0,0.1,11.4,-20.5,33.50000000000001,2.4000000000000004,16
1135,19018.0,-2.8000000000000003,-0.6000000000000001,1.7000000000000002,-2.4000000000000004,0.2,11.3,-26.000000000000004,32.2,17.1,16
1136,19036.0,-2.9000000000000004,-0.7000000000000001,1.3,-2.1,0.0,10.700000000000001,-35.699999999999996,14.5,23.5,16
1137,19051.0,-2.8000000000000003,-0.7000000000000001,0.9,-1.7000000000000002,-0.1,10.3,-35.699999999999996,14.5,23.5,16
1138,19068.0,-2.2,-0.6000000000000001,0.2,-1.3,0.0,9.5,-51.0,-12.9,30.5,16
1139,19085.0,-2.0,-0.5,-0.2,-1.1,0.0,9.0,-51.0,-12.9,30.5,16
1140,19102.0,-1.6,-0.1,-1.3,-1.0,0.30000000000000004,8.200000000000001,-53.400000000000006,-17.6,30.699999999999996,16
1141,19126.0,-1.7000000000000002,0.7000000000000001,-1.9000000000000001,-1.0,0.8,7.5,-44.7,-1.7,35.4,16
1142,19135.0,-1.7000000000000002,0.9,-2.2,-1.0,0.9,7.2,-44.7,-1.7,35.4,16
1143,19152.0,-1.7000000000000002,1.1,-2.5,-0.9,1.1,6.9,-37.400000000000006,6.4,39.400000000000006,16
1144,19168.0,-1.4000000000000001,1.3,-3.0,-0.7000000000000001,1.1,6.6000000000000005,-32.400000000000006,16.0,45.2,16
1145,19185.0,-1.3,1.4000000000000001,-3.1,-0.6000000000000001,1.1,6.5,-31.7,26.000000000000004,51.1,16
1146,19202.0,-0.9,1.4000000000000001,-3.1,-0.4,0.9,6.7,-34.7,35.5,56.2,16
1147,19218.0,-0.7000000000000001,1.4000000000000001,-2.9000000000000004,-0.4,0.8,7.1000000000000005,-39.0,41.4,60.7,16
1148,19235.0,-0.5,1.2000000000000002,-2.0,-0.2,0.30000000000000004,8.3,-44.10000000000001,45.3,66.1,16
1149,19251.0,-0.2,1.0,-1.3,0.1,-0.2,8.9,-47.1,47.400000000000006,71.0,16
1150,19271.0,0.6000000000000001,0.2,0.0,0.7000000000000001,-1.0,10.0,-42.900000000000006,44.8,70.9,16
1151,19285.0,1.1,0.0,0.6000000000000001,0.7000000000000001,-0.7000000000000001,10.200000000000001,-21.500000000000004,31.6,54.1,16
1152,19301.0,1.1,0.30000000000000004,0.6000000000000001,0.7000000000000001,-0.4,10.3,-21.500000000000004,31.6,54.1,16
