,ms,accelX,accelY,accelZ,accelWithGX,accelWithGY,accelWithGZ,rotRateAlpha,rotRateBeta,rotRateGamma,interval
0,119.0,0.0,0.0,0.1,-0.8,5.800000000000001,8.1,0.2,-0.9000000000000001,-0.1,16
1,136.0,0.0,0.0,0.1,-0.8,5.800000000000001,8.1,-0.5,-1.8000000000000003,-0.4,16
2,153.0,0.0,0.0,0.2,-0.8,5.800000000000001,8.3,-0.1,0.30000000000000004,0.2,16
3,169.0,0.0,-0.1,0.0,-0.7000000000000001,5.7,8.200000000000001,-0.1,0.30000000000000004,0.2,16
4,187.0,0.0,-0.1,0.0,-0.8,5.6000000000000005,8.1,1.4,3.9,0.6000000000000001,16
5,202.0,-0.1,0.0,0.0,-0.9,5.7,8.1,2.6,2.5,1.0,16
6,219.0,0.0,-0.1,-0.2,-0.8,5.7,7.9,3.5,0.30000000000000004,1.0,16
7,236.0,0.1,-0.1,-0.30000000000000004,-0.7000000000000001,5.7,7.800000000000001,4.2,1.2000000000000002,1.0,16
8,252.0,0.1,0.0,-0.30000000000000004,-0.7000000000000001,5.7,7.7,3.7000000000000006,1.3,0.7,16
9,269.0,0.0,0.0,-0.30000000000000004,-0.7000000000000001,5.800000000000001,7.7,2.0,-0.5,-0.5,16
10,285.0,0.0,0.0,-0.2,-0.7000000000000001,5.800000000000001,7.7,-0.5,-1.0,-0.9000000000000001,16
11,302.0,0.0,0.0,-0.1,-0.8,5.800000000000001,7.800000000000001,-3.0,-1.0,-0.6000000000000001,16
12,319.0,0.0,0.0,0.0,-0.8,5.7,7.9,-3.9,-0.9000000000000001,-0.2,16
13,335.0,0.0,0.1,0.2,-0.7000000000000001,5.800000000000001,8.1,-3.6000000000000005,-2.2,-0.2,16
14,352.0,0.0,0.0,0.1,-0.7000000000000001,5.7,8.1,-1.9,-2.6,-0.8,16
15,369.0,0.0,-0.1,0.1,-0.8,5.6000000000000005,8.1,0.4,0.2,-0.9000000000000001,16
16,386.0,-0.1,0.0,0.2,-0.9,5.7,8.200000000000001,1.8000000000000003,0.7,-0.5,16
17,402.0,-0.1,0.0,0.2,-0.9,5.7,8.1,2.6,-0.7,-0.1,16
18,419.0,0.0,-0.1,-0.1,-0.8,5.7,7.9,2.5,1.0,1.2000000000000002,16
19,436.0,0.1,0.0,-0.1,-0.7000000000000001,5.800000000000001,7.9,1.9,1.4,2.0,16
20,452.0,0.1,0.0,-0.2,-0.7000000000000001,5.800000000000001,7.800000000000001,1.2000000000000002,0.2,1.2000000000000002,16
21,469.0,0.1,0.0,-0.2,-0.6000000000000001,5.800000000000001,7.800000000000001,-0.1,-0.2,-0.4,16
22,486.0,0.1,0.1,0.0,-0.7000000000000001,5.800000000000001,7.9,-1.6,-1.7,-1.3,16
23,502.0,0.1,0.0,0.1,-0.6000000000000001,5.800000000000001,8.1,-1.0,-3.1,-1.8000000000000003,16
24,519.0,0.4,0.1,0.30000000000000004,-0.30000000000000004,5.9,8.3,4.800000000000001,-4.9,-4.7,16
25,536.0,0.6000000000000001,0.2,0.8,-0.2,5.9,8.6,15.5,-7.500000000000001,-12.100000000000001,16
26,553.0,0.4,0.2,1.2000000000000002,-0.5,5.9,7.9,36.2,10.600000000000001,-15.000000000000002,16
27,569.0,0.30000000000000004,-0.1,-0.1,-0.5,5.9,7.9,36.2,10.600000000000001,-15.000000000000002,16
28,586.0,0.8,0.0,-0.4,-0.1,5.9,7.4,35.1,37.0,-11.000000000000002,16
29,602.0,1.1,0.30000000000000004,-0.9,0.1,6.6000000000000005,6.9,26.000000000000004,42.2,-16.700000000000003,16
30,619.0,1.1,0.30000000000000004,-0.9,0.1,6.6000000000000005,6.9,26.000000000000004,42.2,-16.700000000000003,16
31,635.0,0.6000000000000001,0.5,1.3,-0.2,7.0,8.9,4.300000000000001,-7.6,-49.300000000000004,16
32,652.0,0.5,-0.4,1.0,-0.30000000000000004,5.6000000000000005,8.5,16.4,-62.1,-68.4,16
33,669.0,1.9000000000000001,-2.1,-0.30000000000000004,0.9,4.2,7.5,38.50000000000001,-72.4,-87.80000000000001,16
34,685.0,1.6,-1.6,-0.30000000000000004,0.9,4.5,7.300000000000001,60.400000000000006,-38.900000000000006,-94.3,16
35,702.0,0.6000000000000001,-1.4000000000000001,-1.2000000000000002,-0.6000000000000001,5.1000000000000005,6.4,62.900000000000006,-4.800000000000001,-78.3,16
36,719.0,-0.4,-1.1,-0.5,-1.4000000000000001,5.300000000000001,6.800000000000001,44.8,-11.900000000000002,-38.2,16
37,736.0,-0.1,-0.1,-0.6000000000000001,-1.1,6.1000000000000005,6.4,47.900000000000006,-61.9,7.6,16
38,752.0,0.30000000000000004,0.30000000000000004,0.2,-0.2,6.9,7.300000000000001,53.2,-78.3,29.0,16
39,769.0,1.4000000000000001,-0.4,-0.30000000000000004,0.9,6.4,6.800000000000001,56.0,-78.3,24.0,16
40,786.0,1.7000000000000002,-0.7000000000000001,-0.7000000000000001,1.1,6.1000000000000005,6.7,47.0,-57.400000000000006,-2.7,16
41,802.0,1.4000000000000001,-0.9,-0.5,0.30000000000000004,6.2,6.2,15.899999999999999,-17.5,-45.2,16
42,819.0,-5.5,2.2,-2.1,-5.7,8.8,5.0,-14.800000000000002,12.600000000000001,-35.1,16
43,836.0,-0.6000000000000001,-2.3000000000000003,0.4,-2.0,5.1000000000000005,6.7,-45.3,14.600000000000001,36.300000000000004,16
44,852.0,-0.9,-1.7000000000000002,1.5,-1.0,5.0,8.6,-58.800000000000004,-66.4,77.7,16
45,869.0,-0.30000000000000004,-1.2000000000000002,0.6000000000000001,0.2,5.2,7.9,-40.4,-178.0,102.0,16
46,886.0,-0.8,-4.4,-1.6,0.7000000000000001,2.9000000000000004,6.0,10.0,-197.20000000000002,137.0,16
47,904.0,-1.9000000000000001,-7.800000000000001,-2.0,0.0,-1.5,5.0,72.0,-153.50000000000003,195.79999999999998,16
48,919.0,-1.5,-2.6,-4.7,0.9,3.2,2.2,84.4,-215.0,145.10000000000002,16
49,937.0,-3.9000000000000004,-8.5,-2.9000000000000004,-0.4,0.0,2.0,50.2,-265.6,78.60000000000001,16
50,954.0,-4.4,-8.200000000000001,-3.0,-0.6000000000000001,-2.0,2.7,62.800000000000004,-242.8,130.5,16
51,975.0,-4.3,-8.5,-3.2,0.0,-2.6,2.1,74.10000000000001,-242.4,149.60000000000002,16
52,991.0,-5.4,-9.600000000000001,-4.3,-0.5,-3.9000000000000004,0.6000000000000001,83.5,-273.8,175.00000000000003,16
53,1002.0,-4.9,-9.700000000000001,-4.4,0.9,-4.6000000000000005,-0.4,83.30000000000001,-295.4,210.50000000000003,16
54,1019.0,-2.7,-9.700000000000001,-4.0,3.3000000000000003,-5.1000000000000005,-0.8,69.9,-305.50000000000006,239.4,16
55,1036.0,0.7000000000000001,-9.1,-1.6,6.7,-5.300000000000001,0.5,48.0,-294.5,259.3,16
56,1052.0,1.4000000000000001,-8.6,0.1,8.8,-5.2,2.5,30.3,-291.3,267.3,16
57,1069.0,3.5,-8.200000000000001,1.8,11.0,-5.6000000000000005,3.3000000000000003,25.200000000000003,-252.8,272.2,16
58,1090.0,3.9000000000000004,-7.2,0.4,11.8,-5.5,2.0,18.4,-184.5,275.40000000000003,16
59,1102.0,3.8000000000000003,-6.6000000000000005,0.4,12.0,-5.4,1.6,-7.400000000000001,-120.2,286.6,16
60,1119.0,5.5,-5.4,3.6,13.700000000000001,-5.300000000000001,4.1000000000000005,-34.800000000000004,-96.9,306.1,16
61,1136.0,10.600000000000001,-3.5,6.4,17.8,-4.7,6.800000000000001,-33.400000000000006,-100.0,321.90000000000003,16
62,1152.0,12.8,-2.7,6.1000000000000005,21.700000000000003,-3.9000000000000004,6.7,-14.400000000000002,-76.80000000000001,321.3,16
63,1169.0,15.5,-0.5,6.0,24.0,-2.9000000000000004,6.6000000000000005,-1.9,-39.699999999999996,303.7,16
64,1186.0,16.900000000000002,1.8,6.5,25.3,-1.6,7.1000000000000005,15.000000000000002,-20.400000000000002,272.6,16
65,1202.0,16.900000000000002,2.7,5.800000000000001,25.6,-0.4,6.2,45.9,-16.3,231.6,16
66,1219.0,15.8,4.9,2.1,24.700000000000003,1.1,3.3000000000000003,71.8,-2.0,192.0,16
67,1236.0,15.8,6.9,-1.2000000000000002,24.6,2.5,0.7000000000000001,67.10000000000001,40.0,159.70000000000002,16
68,1252.0,15.8,8.0,-2.8000000000000003,24.700000000000003,3.9000000000000004,-1.4000000000000001,42.1,94.4,120.7,16
69,1269.0,16.1,9.1,-2.5,25.1,4.9,-0.9,6.2,100.5,69.10000000000001,16
70,1287.0,12.9,9.8,-4.2,23.0,5.9,-1.8,-4.2,76.7,2.0,16
71,1303.0,9.600000000000001,8.9,-5.5,18.400000000000002,5.2,-3.5,-17.400000000000002,86.1,-43.900000000000006,16
72,1319.0,4.2,8.8,-5.300000000000001,14.0,5.4,-3.3000000000000003,-41.300000000000004,92.39999999999999,-66.4,16
73,1336.0,2.5,7.7,-2.8000000000000003,12.4,4.800000000000001,-1.4000000000000001,-54.9,54.50000000000001,-82.39999999999999,16
74,1352.0,1.5,7.300000000000001,-2.0,10.700000000000001,4.5,-0.1,-44.6,25.5,-94.10000000000001,16
75,1369.0,-0.7000000000000001,5.9,-2.7,9.0,3.6,-0.6000000000000001,-37.2,19.1,-96.7,16
76,1386.0,-1.2000000000000002,5.7,-1.4000000000000001,7.4,3.5,1.4000000000000001,-29.1,7.6,-112.4,16
77,1406.0,-4.3,4.6000000000000005,1.5,5.7,3.0,3.2,-5.0,-38.60000000000001,-117.7,16
78,1419.0,-2.5,3.6,-1.1,7.2,2.4000000000000004,0.8,26.000000000000004,-87.10000000000001,-115.10000000000002,16
79,1436.0,-2.6,2.4000000000000004,-3.5,7.6000000000000005,1.9000000000000001,-2.2,18.0,-76.60000000000001,-119.1,16
80,1452.0,-3.4000000000000004,1.2000000000000002,-0.6000000000000001,6.4,0.6000000000000001,1.2000000000000002,-16.700000000000003,-26.300000000000004,-111.0,16
81,1469.0,-3.1,0.0,1.9000000000000001,6.6000000000000005,-0.2,3.2,-31.799999999999997,5.0,-99.9,16
82,1490.0,-1.7000000000000002,-1.1,-4.1000000000000005,7.800000000000001,-0.9,-0.6000000000000001,-16.3,12.9,-112.7,16
83,1503.0,0.8,-0.4,-7.0,10.3,-0.5,-3.6,-5.300000000000001,62.300000000000004,-122.50000000000001,16
84,1519.0,-1.2000000000000002,-6.1000000000000005,4.6000000000000005,8.700000000000001,-5.0,6.1000000000000005,30.000000000000004,37.2,-113.7,16
85,1536.0,-0.30000000000000004,-2.6,-3.8000000000000003,9.5,-3.3000000000000003,-0.7000000000000001,57.400000000000006,-10.600000000000001,-101.30000000000001,16
86,1553.0,-0.2,-1.8,0.9,9.8,-1.2000000000000002,3.1,50.0,42.2,-63.8,16
87,1569.0,2.4000000000000004,-2.5,3.6,12.0,-1.6,5.2,47.1,-13.200000000000003,-33.6,16
88,1587.0,3.7,-2.0,0.0,13.100000000000001,0.30000000000000004,1.8,45.2,-36.6,-31.3,16
89,1603.0,-3.3000000000000003,1.3,-0.2,6.300000000000001,3.1,1.1,16.8,-32.6,-34.800000000000004,16
90,1620.0,-2.1,1.1,-1.6,7.300000000000001,2.8000000000000003,0.0,-16.1,15.700000000000001,7.0,16
91,1636.0,-1.9000000000000001,-2.3000000000000003,1.3,7.800000000000001,-1.0,2.2,-51.6,38.0,29.400000000000002,16
92,1654.0,-1.1,-2.4000000000000004,2.6,8.6,-1.4000000000000001,4.0,-50.400000000000006,10.0,50.60000000000001,16
93,1670.0,-1.5,-0.6000000000000001,-1.2000000000000002,8.3,-0.1,0.8,-19.200000000000003,-36.300000000000004,58.7,16
94,1697.0,-3.7,0.4,-0.9,5.7,0.1,0.2,-30.5,-47.400000000000006,150.1,16
95,1710.0,-6.0,-0.8,-1.8,3.5,-2.5,-1.1,-50.7,-70.0,234.40000000000003,16
96,1720.0,-6.1000000000000005,-1.7000000000000002,-2.2,3.5,-2.5,-1.1,-50.7,-70.0,234.40000000000003,16
97,1736.0,2.2,-0.8,0.6000000000000001,9.600000000000001,-3.0,1.2000000000000002,-66.2,-72.80000000000001,277.6,16
98,1752.0,3.5,-0.4,-1.5,13.0,-2.7,-1.0,-40.4,-49.9,267.1,16
99,1769.0,7.6000000000000005,2.5,-1.3,16.3,-0.9,-1.1,-23.400000000000002,-72.7,244.40000000000003,16
100,1785.0,14.3,5.800000000000001,4.4,22.3,1.3,2.6,-29.600000000000005,-122.30000000000001,191.70000000000002,16
101,1803.0,15.700000000000001,7.1000000000000005,3.4000000000000004,24.5,3.7,2.4000000000000004,-10.8,-116.5,102.4,16
102,1819.0,8.8,10.100000000000001,-4.7,18.8,6.2,-4.6000000000000005,-17.400000000000002,-83.10000000000001,45.6,16
103,1835.0,5.0,9.0,-6.6000000000000005,15.8,6.1000000000000005,-7.300000000000001,-89.0,-52.300000000000004,29.700000000000006,16
104,1852.0,2.2,8.5,-4.6000000000000005,11.200000000000001,4.3,-5.0,-157.4,25.1,24.400000000000002,16
105,1869.0,-6.2,-6.6000000000000005,1.1,4.2,-8.3,0.0,-166.9,116.0,45.2,16
106,1886.0,-21.5,-9.700000000000001,13.700000000000001,-8.700000000000001,-14.5,10.3,-90.30000000000001,177.70000000000002,29.400000000000002,16
107,1903.0,-20.700000000000003,-9.9,15.700000000000001,-11.0,-13.8,15.100000000000001,13.200000000000003,36.0,49.199999999999996,16
108,1919.0,-10.700000000000001,-7.9,4.5,-2.9000000000000004,-12.5,5.7,159.9,-153.60000000000002,76.5,16
109,1936.0,-2.4000000000000004,-7.800000000000001,-10.200000000000001,4.3,-12.5,-6.800000000000001,227.7,-154.2,99.7,16
110,1953.0,0.2,-6.5,-14.0,9.0,-11.3,-13.700000000000001,141.1,-52.80000000000001,99.60000000000001,16
111,1971.0,4.0,-3.3000000000000003,-3.8000000000000003,12.0,-8.8,-5.2,-1.1,35.1,88.60000000000001,16
112,1986.0,2.6,0.30000000000000004,3.1,12.200000000000001,-5.6000000000000005,4.4,-24.599999999999998,46.4,67.00000000000001,16
113,2002.0,8.6,-4.1000000000000005,3.2,16.8,-9.5,2.7,56.400000000000006,-37.6,61.199999999999996,16
114,2019.0,9.700000000000001,-1.3,-2.0,17.6,-7.300000000000001,-1.7000000000000002,121.10000000000001,-108.2,55.60000000000001,16
115,2036.0,10.4,-0.5,-3.1,19.1,-6.1000000000000005,-3.4000000000000004,138.7,-85.30000000000001,33.2,16
116,2052.0,9.1,-0.7000000000000001,-1.5,17.400000000000002,-6.4,-1.4000000000000001,114.99999999999999,-32.2,-4.800000000000001,16
117,2069.0,6.800000000000001,-0.8,0.9,15.700000000000001,-6.4,0.9,82.9,22.3,-47.60000000000001,16
118,2086.0,1.6,1.2000000000000002,-0.7000000000000001,12.100000000000001,-4.6000000000000005,0.5,69.00000000000001,75.7,-93.2,16
119,2102.0,-2.2,1.1,-1.8,6.5,-4.1000000000000005,-0.4,43.50000000000001,137.70000000000002,-104.9,16
120,2119.0,-5.800000000000001,-0.6000000000000001,1.4000000000000001,3.6,-5.300000000000001,2.6,9.3,170.9,-88.00000000000001,16
121,2135.0,-2.1,5.1000000000000005,-1.8,5.300000000000001,-0.8,0.6000000000000001,14.600000000000001,114.10000000000001,-82.50000000000001,16
122,2152.0,-3.5,6.0,-2.3000000000000003,5.300000000000001,1.9000000000000001,0.0,27.6,158.79999999999998,-81.7,16
123,2169.0,-2.0,7.4,-0.5,6.300000000000001,3.3000000000000003,1.9000000000000001,26.000000000000004,204.20000000000002,-62.1,16
124,2186.0,0.0,4.4,-0.30000000000000004,8.3,-1.2000000000000002,1.7000000000000002,-0.6000000000000001,110.10000000000001,-77.4,16
125,2202.0,-2.4000000000000004,-3.6,-3.1,6.4,-7.4,-0.4,-46.9,26.200000000000003,-103.7,16
126,2221.0,-8.3,-3.1,-1.7000000000000002,1.5,-6.800000000000001,0.9,-80.8,106.9,-130.4,16
127,2236.0,-8.4,0.2,0.5,-1.2000000000000002,-3.3000000000000003,3.1,-108.90000000000002,189.8,-128.3,16
128,2252.0,-2.9000000000000004,-1.9000000000000001,-0.2,6.5,-5.0,3.2,-87.80000000000001,138.10000000000002,-116.9,16
129,2269.0,-2.6,-5.7,2.3000000000000003,7.2,-7.9,5.0,-18.1,57.3,-113.7,16
130,2286.0,-12.8,-10.200000000000001,2.5,-2.0,-11.4,7.4,16.1,-29.400000000000002,-35.1,16
131,2302.0,-1.3,2.5,-0.8,8.6,0.5,3.1,-13.700000000000001,-99.39999999999999,95.30000000000001,16
132,2323.0,4.6000000000000005,0.2,2.7,14.3,-0.6000000000000001,5.9,-90.70000000000002,-106.80000000000001,31.9,16
133,2336.0,1.5,-1.3,-3.7,7.9,-4.1000000000000005,0.8,-5.2,-82.10000000000001,13.8,16
134,2352.0,1.7000000000000002,-0.9,-1.1,10.0,-4.2,1.8,4.0,-58.60000000000001,22.1,16
135,2369.0,-6.300000000000001,-3.7,0.2,3.1,-6.7,2.9000000000000004,30.000000000000004,-74.30000000000001,43.6,16
136,2385.0,-4.9,-4.1000000000000005,6.0,4.0,-7.800000000000001,6.4,45.0,-114.80000000000001,85.80000000000001,16
137,2402.0,-5.1000000000000005,-6.5,5.1000000000000005,3.7,-10.600000000000001,6.7,85.30000000000001,-154.2,113.7,16
138,2421.0,-4.5,-8.5,-1.9000000000000001,4.2,-12.9,0.5,114.80000000000001,-180.2,156.4,16
139,2436.0,-7.6000000000000005,4.5,-3.6,0.1,-5.1000000000000005,-0.4,133.60000000000002,-253.20000000000005,233.0,16
140,2452.0,18.2,-7.2,-22.200000000000003,25.1,-12.200000000000001,-19.900000000000002,136.1,-216.90000000000003,281.1,16
141,2469.0,-0.8,0.4,0.6000000000000001,9.0,-6.1000000000000005,-0.7000000000000001,51.6,-37.2,168.4,16
142,2485.0,5.7,0.0,-0.8,13.3,-7.300000000000001,-0.9,57.3,-44.7,172.6,16
143,2502.0,7.300000000000001,1.5,0.30000000000000004,14.600000000000001,-4.6000000000000005,1.2000000000000002,49.1,-23.400000000000002,150.9,16
144,2519.0,6.0,8.1,0.0,13.200000000000001,1.0,1.0,42.400000000000006,-28.900000000000002,120.00000000000001,16
145,2536.0,4.2,7.800000000000001,0.8,12.4,0.5,1.3,16.1,-23.900000000000006,112.9,16
146,2555.0,0.8,8.5,1.4000000000000001,7.6000000000000005,1.3,1.8,-11.8,-36.0,114.40000000000002,16
147,2569.0,4.800000000000001,5.7,-3.3000000000000003,10.4,-1.2000000000000002,-2.2,-30.599999999999998,-50.5,126.30000000000001,16
148,2587.0,5.300000000000001,4.3,-1.6,12.8,-2.9000000000000004,-1.5,-65.7,13.5,64.9,16
149,2608.0,-2.8000000000000003,3.0,-1.8,5.4,-6.2,-0.6000000000000001,-90.1,158.79999999999998,19.799999999999997,16
150,2621.0,-0.4,0.7000000000000001,-1.1,5.4,-6.2,-0.6000000000000001,-90.1,158.79999999999998,19.799999999999997,16
151,2636.0,0.30000000000000004,-1.7000000000000002,1.5,6.9,-9.0,1.3,-89.0,182.9,25.5,16
152,2653.0,-0.2,-1.1,2.6,5.9,-8.6,3.4000000000000004,-77.5,147.2,30.200000000000003,16
153,2670.0,-2.5,-0.30000000000000004,3.1,4.1000000000000005,-7.800000000000001,4.0,-39.50000000000001,51.4,8.100000000000001,16
154,2686.0,-7.300000000000001,-0.8,-0.8,0.7000000000000001,-8.3,1.2000000000000002,-13.6,-54.4,6.1000000000000005,16
155,2709.0,-18.7,-0.7000000000000001,-6.0,-7.300000000000001,-13.9,-3.9000000000000004,-49.4,-155.1,133.10000000000002,16
156,2720.0,-10.8,-7.6000000000000005,-3.0,-7.300000000000001,-13.9,-3.9000000000000004,-49.4,-155.1,133.10000000000002,16
157,2736.0,4.4,-11.700000000000001,3.4000000000000004,6.5,-20.400000000000002,1.2000000000000002,-45.7,-185.80000000000004,190.8,16
158,2753.0,4.800000000000001,-9.0,4.5,9.600000000000001,-17.5,3.8000000000000003,11.3,-153.3,151.8,16
159,2769.0,6.2,-6.1000000000000005,3.0,10.600000000000001,-15.100000000000001,2.5,61.9,-119.49999999999999,101.7,16
160,2786.0,4.3,-3.8000000000000003,1.2000000000000002,9.3,-13.3,1.5,92.50000000000001,-96.1,63.599999999999994,16
161,2802.0,3.1,-2.4000000000000004,0.4,7.4,-11.200000000000001,0.1,107.7,-79.3,39.2,16
162,2819.0,4.0,1.6,-3.8000000000000003,8.0,-7.800000000000001,-3.0,112.7,-60.8,29.500000000000004,16
163,2836.0,7.6000000000000005,-0.5,-11.100000000000001,11.5,-8.8,-9.700000000000001,59.699999999999996,-40.4,-1.7,16
164,2852.0,6.1000000000000005,-0.30000000000000004,-9.3,10.700000000000001,-9.200000000000001,-9.4,-54.6,3.4,-56.6,16
165,2883.0,1.6,-0.30000000000000004,-1.7000000000000002,6.2,-8.9,-2.3000000000000003,-196.3,66.5,-125.60000000000001,16
166,2888.0,-0.2,-0.5,-0.4,6.2,-8.9,-2.3000000000000003,-196.3,66.5,-125.60000000000001,16
167,2902.0,-2.1,0.0,1.3,3.3000000000000003,-8.200000000000001,0.1,-188.20000000000002,64.50000000000001,-116.5,16
168,2919.0,-5.9,3.9000000000000004,6.0,0.2,-4.9,3.9000000000000004,-122.79999999999998,57.49999999999999,-68.5,16
169,2936.0,-6.5,5.1000000000000005,8.5,-0.8,-2.9000000000000004,6.7,-28.700000000000003,55.60000000000001,-7.400000000000001,16
170,2952.0,-4.7,3.3000000000000003,6.7,0.9,-5.0,5.4,62.300000000000004,45.5,42.0,16
171,2969.0,-1.6,0.2,2.9000000000000004,3.5,-7.800000000000001,2.2,101.7,31.099999999999998,45.6,16
172,2986.0,-0.2,-1.1,1.7000000000000002,4.9,-8.9,2.1,116.30000000000001,9.8,21.300000000000004,16
173,3002.0,-0.30000000000000004,-1.3,0.7000000000000001,5.1000000000000005,-9.600000000000001,0.7000000000000001,125.2,5.6,-6.9,16
174,3019.0,-0.9,-1.7000000000000002,0.2,4.7,-9.8,0.7000000000000001,126.10000000000001,31.0,-16.0,16
175,3035.0,-3.7,-4.800000000000001,-2.5,2.0,-12.700000000000001,-1.9000000000000001,118.3,79.6,-10.5,16
176,3052.0,-3.8000000000000003,-4.6000000000000005,-1.2000000000000002,1.4000000000000001,-12.9,0.30000000000000004,91.30000000000001,183.6,10.8,16
177,3069.0,-8.3,-2.6,4.5,-2.1,-11.3,5.4,66.80000000000001,153.0,7.400000000000001,16
178,3085.0,-7.4,-1.7000000000000002,0.4,-0.2,-9.8,2.4000000000000004,4.7,-4.9,15.299999999999999,16
179,3102.0,5.2,0.6000000000000001,2.0,10.4,-7.7,3.3000000000000003,-25.300000000000004,-50.900000000000006,80.30000000000001,16
180,3119.0,14.700000000000001,7.7,1.4000000000000001,18.6,-1.8,2.8000000000000003,-6.699999999999999,-31.2,71.19999999999999,16
181,3135.0,14.600000000000001,9.8,-1.7000000000000002,20.3,0.9,0.8,-4.5,9.8,34.400000000000006,16
182,3152.0,13.3,9.4,-3.8000000000000003,17.900000000000002,0.6000000000000001,-2.8000000000000003,-52.80000000000001,54.9,54.199999999999996,16
183,3169.0,9.200000000000001,1.5,-13.600000000000001,14.3,-5.9,-11.5,-159.9,172.1,117.0,16
184,3186.0,9.8,-0.9,-2.2,12.700000000000001,-11.600000000000001,-7.2,-203.60000000000002,245.39999999999998,151.5,16
185,3202.0,6.800000000000001,1.7000000000000002,2.8000000000000003,10.5,-7.4,3.2,-91.30000000000001,47.5,51.800000000000004,16
186,3219.0,-8.200000000000001,-0.8,0.6000000000000001,-2.7,-9.1,0.6000000000000001,-34.2,-163.29999999999998,49.6,16
187,3235.0,-12.0,-7.7,0.8,-8.4,-15.600000000000001,0.9,-17.5,-254.2,183.10000000000002,16
188,3252.0,-10.5,-7.300000000000001,4.1000000000000005,-8.0,-17.0,4.1000000000000005,38.50000000000001,-191.39999999999998,203.00000000000003,16
189,3269.0,-12.200000000000001,-1.7000000000000002,7.300000000000001,-9.3,-12.8,7.300000000000001,89.9,-169.1,95.1,16
190,3286.0,-11.5,8.4,6.7,-10.4,-3.5,7.2,73.8,-231.6,-8.4,16
191,3302.0,-5.9,10.4,0.7000000000000001,-3.6,0.6000000000000001,0.9,44.5,-217.90000000000003,-4.9,16
192,3319.0,-4.3,1.7000000000000002,6.6000000000000005,-2.1,-6.5,5.800000000000001,-36.5,-27.700000000000003,-16.0,16
193,3335.0,1.3,-0.7000000000000001,4.5,2.4000000000000004,-9.200000000000001,5.0,-20.599999999999998,-38.300000000000004,-5.8,16
194,3352.0,1.8,-2.4000000000000004,3.3000000000000003,4.5,-11.9,3.1,14.800000000000002,-92.60000000000001,-55.60000000000001,16
195,3369.0,4.5,-2.9000000000000004,-7.4,6.800000000000001,-12.3,-5.1000000000000005,79.8,0.0,-101.20000000000002,16
196,3386.0,5.2,-3.9000000000000004,-7.0,8.5,-13.3,-4.7,178.1,278.6,-94.5,16
197,3402.0,4.3,-3.1,-11.700000000000001,7.6000000000000005,-12.3,-10.100000000000001,149.50000000000003,260.8,-90.1,16
198,3419.0,1.6,-0.7000000000000001,-4.0,5.4,-10.4,-3.7,1.1,17.799999999999997,-54.4,16
199,3435.0,1.7000000000000002,1.5,1.1,4.9,-8.3,0.8,-54.9,-72.80000000000001,-12.100000000000001,16
200,3452.0,1.8,2.0,2.2,5.2,-7.300000000000001,3.1,-44.2,-76.3,5.9,16
201,3469.0,0.4,1.8,1.9000000000000001,4.1000000000000005,-7.4,2.9000000000000004,-12.100000000000001,-64.80000000000001,9.2,16
202,3488.0,0.5,0.9,1.9000000000000001,3.8000000000000003,-8.1,2.9000000000000004,9.899999999999999,-42.3,20.400000000000002,16
203,3502.0,0.5,0.8,1.5,3.9000000000000004,-8.5,2.5,20.900000000000002,-18.900000000000002,29.1,16
204,3519.0,0.8,0.9,0.7000000000000001,4.0,-8.4,1.9000000000000001,18.3,3.6000000000000005,32.7,16
205,3535.0,2.1,0.9,-0.4,4.800000000000001,-8.5,1.0,6.8,27.700000000000003,30.3,16
206,3552.0,2.8000000000000003,0.9,-1.0,5.9,-8.4,0.1,-10.0,54.199999999999996,23.099999999999998,16
207,3570.0,3.8000000000000003,1.0,-1.3,6.7,-8.4,-0.2,-25.8,90.80000000000001,16.4,16
208,3586.0,4.0,1.1,-1.3,7.0,-8.200000000000001,-0.2,-39.50000000000001,116.1,10.600000000000001,16
209,3602.0,4.0,1.2000000000000002,-1.2000000000000002,7.0,-8.200000000000001,-0.1,-51.2,117.9,7.300000000000001,16
210,3619.0,4.1000000000000005,1.1,-0.5,7.1000000000000005,-8.3,0.30000000000000004,-58.900000000000006,93.10000000000001,4.9,16
211,3636.0,4.1000000000000005,1.1,0.0,7.1000000000000005,-8.3,1.0,-57.49999999999999,46.4,2.6,16
212,3653.0,3.9000000000000004,1.4000000000000001,0.9,6.9,-8.1,1.6,-45.400000000000006,-10.0,4.1,16
213,3669.0,3.8000000000000003,1.8,1.3,6.800000000000001,-7.7,1.8,-24.200000000000003,-55.0,9.5,16
214,3686.0,3.8000000000000003,2.0,1.3,6.9,-7.4,1.8,-2.0,-82.7,15.8,16
215,3702.0,4.0,2.1,0.9,7.0,-7.4,1.4000000000000001,13.3,-99.00000000000001,19.5,16
216,3719.0,4.4,1.3,0.0,7.300000000000001,-8.0,0.6000000000000001,17.5,-97.3,17.799999999999997,16
217,3735.0,4.0,0.0,-0.4,7.300000000000001,-9.0,0.1,13.399999999999999,-72.2,8.2,16
218,3752.0,3.5,-0.4,-0.9,6.6000000000000005,-9.9,-0.5,7.699999999999999,-37.800000000000004,-4.5,16
219,3769.0,3.7,-1.5,-2.4000000000000004,6.7,-10.700000000000001,-1.8,-0.9000000000000001,-10.8,-10.700000000000001,16
220,3785.0,4.1000000000000005,-1.7000000000000002,-2.9000000000000004,7.4,-11.200000000000001,-2.7,-16.3,-7.200000000000001,-11.8,16
221,3803.0,4.9,-1.6,-3.0,8.200000000000001,-11.0,-2.9000000000000004,-34.1,-28.900000000000002,-11.900000000000002,16
222,3819.0,4.7,-0.9,-1.8,8.200000000000001,-10.5,-2.2,-45.400000000000006,-66.1,-19.700000000000003,16
223,3835.0,3.8000000000000003,-0.4,-1.7000000000000002,6.9,-9.700000000000001,-2.3000000000000003,-44.2,-101.4,-35.9,16
224,3852.0,2.0,-0.1,-3.1,5.7,-9.4,-3.7,-39.699999999999996,-105.80000000000001,-52.900000000000006,16
225,3869.0,0.7000000000000001,0.30000000000000004,-1.0,4.800000000000001,-9.0,-2.3000000000000003,-40.0,-82.50000000000001,-67.3,16
226,3891.0,-0.2,0.6000000000000001,2.2,3.8000000000000003,-8.5,1.9000000000000001,-33.6,-45.5,-75.4,16
227,3902.0,-0.5,0.5,2.9000000000000004,3.8000000000000003,-8.5,1.9000000000000001,-26.400000000000006,-18.700000000000003,-83.5,16
228,3919.0,-1.0,0.0,2.2,3.6,-8.8,1.4000000000000001,-19.6,-6.1000000000000005,-96.80000000000001,16
229,3935.0,-1.2000000000000002,-0.30000000000000004,1.2000000000000002,3.6,-9.1,0.2,-16.6,3.1,-109.60000000000001,16
230,3952.0,-1.5,-0.6000000000000001,2.3000000000000003,3.6,-9.1,1.2000000000000002,-15.899999999999999,-0.9000000000000001,-116.4,16
231,3969.0,-1.0,-0.8,4.1000000000000005,4.1000000000000005,-9.1,2.9000000000000004,-1.3,-35.3,-112.0,16
232,3986.0,0.0,-1.5,3.7,6.0,-9.9,2.3000000000000003,17.7,-68.7,-109.39999999999999,16
233,4002.0,1.9000000000000001,-2.4000000000000004,1.8,7.800000000000001,-10.4,0.6000000000000001,26.200000000000003,-79.1,-118.00000000000001,16
234,4020.0,2.7,-2.0,1.1,8.8,-9.9,-0.1,22.4,-81.8,-129.3,16
235,4036.0,2.3000000000000003,-1.4000000000000001,1.0,8.200000000000001,-8.8,-0.4,20.1,-99.10000000000001,-137.8,16
236,4052.0,-1.9000000000000001,-0.7000000000000001,1.2000000000000002,4.800000000000001,-8.1,-0.4,25.7,-131.79999999999998,-131.29999999999998,16
237,4069.0,-4.3,-1.4000000000000001,1.2000000000000002,2.6,-8.5,-0.5,41.0,-139.0,-96.4,16
238,4085.0,-4.7,-1.1,1.3,1.8,-8.0,-0.5,50.400000000000006,-114.00000000000001,-68.2,16
239,4102.0,-5.7,0.1,1.6,1.0,-7.0,-0.30000000000000004,49.9,-90.70000000000002,-51.4,16
240,4119.0,-6.6000000000000005,0.2,1.8,0.4,-6.800000000000001,-0.1,47.3,-81.4,-43.900000000000006,16
241,4135.0,-7.0,0.2,2.1,-0.2,-6.7,0.2,46.6,-70.7,-42.800000000000004,16
242,4152.0,-7.1000000000000005,0.6000000000000001,2.4000000000000004,-0.30000000000000004,-6.300000000000001,0.4,46.9,-62.1,-40.800000000000004,16
243,4169.0,-5.800000000000001,1.2000000000000002,2.3000000000000003,0.6000000000000001,-5.800000000000001,0.30000000000000004,46.300000000000004,-51.300000000000004,-28.900000000000002,16
244,4186.0,-5.0,1.3,2.3000000000000003,1.9000000000000001,-5.5,0.4,45.400000000000006,-34.0,-10.600000000000001,16
245,4202.0,-4.5,1.7000000000000002,2.0,2.1,-5.300000000000001,0.2,45.6,-17.0,5.2,16
246,4219.0,-5.300000000000001,2.1,0.4,1.4000000000000001,-5.0,-0.9,47.1,4.9,19.6,16
247,4236.0,-5.2,2.2,-0.2,1.4000000000000001,-4.800000000000001,-1.9000000000000001,44.300000000000004,25.8,34.60000000000001,16
248,4252.0,-3.7,2.3000000000000003,-2.0,2.6,-4.9,-3.4000000000000004,39.699999999999996,8.2,44.9,16
249,4269.0,0.6000000000000001,1.0,-6.0,5.800000000000001,-5.9,-6.7,30.699999999999996,-9.700000000000001,52.7,16
250,4285.0,5.300000000000001,-0.7000000000000001,-7.5,13.3,-8.5,-8.9,7.500000000000001,-0.8,45.7,16
251,4302.0,14.8,-3.2,-4.6000000000000005,21.0,-10.5,-6.1000000000000005,-12.7,46.1,-12.100000000000001,16
252,4319.0,9.5,1.5,-0.2,17.6,-6.800000000000001,-2.1,-13.8,108.8,-71.5,16
253,4335.0,6.2,3.9000000000000004,1.6,12.200000000000001,-2.9000000000000004,1.3,-11.900000000000002,105.20000000000002,-61.0,16
254,4352.0,0.2,3.5,5.7,7.300000000000001,-3.4000000000000004,4.800000000000001,28.200000000000003,77.4,-36.8,16
255,4369.0,-2.2,-3.7,2.4000000000000004,4.9,-8.9,2.8000000000000003,78.3,32.5,-30.599999999999998,16
256,4386.0,-0.2,-11.4,-0.8,8.1,-21.5,-3.2,82.7,7.500000000000001,-36.400000000000006,16
257,4402.0,5.9,-26.900000000000002,-3.4000000000000004,13.100000000000001,-33.5,-4.3,-4.6,-19.700000000000003,-68.0,16
258,4419.0,-4.7,-9.600000000000001,1.0,4.7,-20.0,0.9,-54.1,-50.1,-76.4,16
259,4436.0,-7.800000000000001,-3.7,-3.5,-1.7000000000000002,-9.8,-4.0,-41.6,-28.500000000000004,-15.000000000000002,16
260,4452.0,-14.100000000000001,1.4000000000000001,2.6,-7.0,-5.9,1.5,-17.200000000000003,19.200000000000003,68.3,16
261,4469.0,-11.700000000000001,2.9000000000000004,5.6000000000000005,-5.7,-4.6000000000000005,4.7,30.9,54.300000000000004,145.4,16
262,4486.0,-9.4,1.9000000000000001,6.2,-0.4,-7.5,6.5,-23.0,-17.5,93.60000000000001,16
263,4502.0,-6.300000000000001,0.30000000000000004,7.1000000000000005,-0.4,-7.5,6.5,-23.0,-17.5,93.60000000000001,16
264,4519.0,-5.1000000000000005,-2.3000000000000003,7.2,0.4,-9.5,6.5,-35.5,-35.1,47.5,16
265,4535.0,-3.5,-4.0,7.0,2.9000000000000004,-12.4,6.4,-12.200000000000001,-3.6000000000000005,43.1,16
266,4552.0,1.3,-6.7,7.0,6.800000000000001,-14.700000000000001,6.5,13.100000000000001,27.3,38.1,16
267,4569.0,4.7,-5.300000000000001,6.800000000000001,9.9,-14.0,6.6000000000000005,27.099999999999998,25.900000000000002,16.4,16
268,4585.0,5.300000000000001,-2.1,3.5,11.200000000000001,-9.200000000000001,1.5,33.1,22.2,-2.1,16
269,4602.0,5.300000000000001,4.2,-5.6000000000000005,11.200000000000001,-4.0,-5.300000000000001,8.899999999999999,156.20000000000002,-0.8,16
270,4619.0,2.4000000000000004,4.800000000000001,-0.6000000000000001,8.700000000000001,-3.2,-0.7000000000000001,-26.1,296.1,-3.3000000000000007,16
271,4635.0,1.1,4.800000000000001,-0.7000000000000001,6.4,-3.3000000000000003,0.2,-40.800000000000004,313.0,-22.000000000000004,16
272,4652.0,-1.7000000000000002,3.2,-1.2000000000000002,4.2,-4.6000000000000005,0.1,-62.4,256.40000000000003,-32.400000000000006,16
273,4669.0,-1.7000000000000002,-0.30000000000000004,-0.7000000000000001,4.0,-7.6000000000000005,0.5,-81.3,167.79999999999998,-25.7,16
274,4686.0,-1.6,-1.4000000000000001,-0.2,4.2,-9.4,1.1,-80.10000000000001,96.30000000000001,-18.5,16
275,4702.0,-1.6,-1.4000000000000001,0.7000000000000001,4.2,-9.4,1.9000000000000001,-56.7,59.60000000000001,-10.5,16
276,4719.0,-1.4000000000000001,0.0,1.1,4.2,-8.3,2.4000000000000004,-25.1,40.7,5.500000000000001,16
277,4735.0,-1.2000000000000002,0.7000000000000001,0.8,4.5,-7.2,2.0,-0.30000000000000004,24.599999999999998,21.400000000000002,16
278,4752.0,-0.5,1.4000000000000001,0.1,5.0,-6.7,1.4000000000000001,12.0,15.5,25.5,16
279,4769.0,-0.1,1.0,-0.1,5.4,-6.9,1.3,12.5,8.600000000000001,18.0,16
280,4785.0,0.1,0.4,-0.1,5.7,-7.800000000000001,1.3,7.0,3.6000000000000005,7.300000000000001,16
281,4802.0,0.8,-1.1,-0.2,6.300000000000001,-9.1,1.3,-0.7,12.0,-0.6000000000000001,16
282,4819.0,1.4000000000000001,-2.1,-0.4,6.800000000000001,-10.0,1.1,-12.0,37.400000000000006,-4.5,16
283,4835.0,1.3,-1.9000000000000001,-0.5,6.7,-9.8,1.0,-27.700000000000003,71.8,-4.2,16
284,4852.0,0.5,-0.4,-0.8,6.0,-8.6,0.8,-48.70000000000001,105.60000000000002,-0.2,16
285,4869.0,0.4,0.7000000000000001,-1.7000000000000002,5.800000000000001,-7.6000000000000005,0.1,-74.80000000000001,127.40000000000002,-0.7,16
286,4892.0,0.5,1.0,-2.6,6.1000000000000005,-7.4,-1.1,-133.10000000000002,163.7,-27.9,16
287,4902.0,0.7000000000000001,0.8,-2.5,6.1000000000000005,-7.4,-1.1,-133.10000000000002,163.7,-27.9,16
288,4919.0,1.7000000000000002,-0.4,-1.9000000000000001,7.0,-8.3,-0.7000000000000001,-160.3,169.70000000000002,-46.0,16
289,4935.0,2.1,-1.1,-2.0,7.7,-9.4,-1.2000000000000002,-182.8,163.00000000000003,-64.50000000000001,16
290,4952.0,2.4000000000000004,-2.6,-3.9000000000000004,8.1,-10.5,-3.0,-208.10000000000002,156.9,-80.10000000000001,16
291,4971.0,1.6,-3.2,-3.9000000000000004,7.800000000000001,-11.100000000000001,-3.7,-240.6,148.1,-88.00000000000001,16
292,4987.0,-0.30000000000000004,-2.8000000000000003,0.5,5.300000000000001,-10.600000000000001,2.1,-215.5,60.2,-59.1,16
293,5002.0,-1.0,-2.8000000000000003,2.7,5.300000000000001,-10.600000000000001,2.1,-215.5,60.2,-59.1,16
294,5019.0,-1.5,-3.3000000000000003,3.3000000000000003,4.9,-10.9,2.8000000000000003,-136.0,3.8,-46.199999999999996,16
295,5035.0,-1.8,-3.6,2.8000000000000003,4.6000000000000005,-11.4,2.0,-65.7,-21.900000000000002,-37.6,16
296,5052.0,-1.5,-4.2,2.7,4.9,-11.9,1.9000000000000001,-25.900000000000002,-35.2,-21.7,16
297,5069.0,-0.9,-2.5,3.5,5.300000000000001,-10.700000000000001,2.4000000000000004,-12.200000000000001,-49.50000000000001,0.2,16
298,5085.0,-0.5,-1.1,4.2,5.800000000000001,-8.5,3.3000000000000003,-5.300000000000001,-42.1,16.700000000000003,16
299,5102.0,-0.4,1.7000000000000002,3.9000000000000004,5.9,-6.2,3.0,2.7,-12.4,19.700000000000003,16
300,5119.0,-1.9000000000000001,2.8000000000000003,1.4000000000000001,4.800000000000001,-5.1000000000000005,1.1,-1.2000000000000002,34.0,14.100000000000001,16
301,5136.0,-2.8000000000000003,2.4000000000000004,0.7000000000000001,3.2,-5.6000000000000005,-0.1,-23.700000000000003,68.9,13.200000000000003,16
302,5152.0,-4.4,0.7000000000000001,-0.1,1.8,-7.0,-0.8,-50.900000000000006,70.6,21.6,16
303,5169.0,-4.9,0.0,-0.2,1.0,-7.9,-1.1,-73.30000000000001,30.4,41.6,16
304,5185.0,-4.4,0.5,-0.30000000000000004,1.6,-7.4,-1.5,-78.2,-16.700000000000003,63.599999999999994,16
305,5202.0,-2.5,1.7000000000000002,0.5,2.9000000000000004,-6.4,-0.9,-49.9,-5.2,71.6,16
306,5219.0,-2.3000000000000003,2.6,1.5,3.2,-5.7,0.2,-0.6000000000000001,27.099999999999998,63.0,16
307,5236.0,-2.4000000000000004,2.8000000000000003,1.7000000000000002,2.9000000000000004,-5.5,0.8,36.0,36.7,57.699999999999996,16
308,5252.0,-2.1,2.4000000000000004,1.5,3.0,-5.9,0.8,50.8,31.0,58.400000000000006,16
309,5269.0,-1.0,1.3,1.0,3.7,-6.800000000000001,0.5,42.900000000000006,12.8,56.9,16
310,5285.0,-0.7000000000000001,0.7000000000000001,-0.1,4.3,-7.9,-1.2000000000000002,21.6,-20.0,48.50000000000001,16
311,5302.0,1.5,-1.4000000000000001,-4.0,6.1000000000000005,-9.8,-4.6000000000000005,-13.6,-32.5,38.50000000000001,16
312,5319.0,5.7,-2.6,-2.7,9.700000000000001,-10.9,-4.3,-42.400000000000006,11.4,13.3,16
313,5335.0,6.1000000000000005,-2.2,-0.7000000000000001,11.0,-10.600000000000001,-1.3,-34.300000000000004,66.2,-26.799999999999997,16
314,5352.0,4.800000000000001,-0.4,0.4,10.100000000000001,-8.9,-0.30000000000000004,-0.9000000000000001,80.0,-50.400000000000006,16
315,5369.0,2.7,2.1,-0.9,8.700000000000001,-6.7,-1.2000000000000002,8.700000000000001,72.7,-52.00000000000001,16
316,5385.0,1.3,2.7,-1.5,6.5,-5.6000000000000005,-2.2,-9.2,53.9,-36.400000000000006,16
317,5402.0,-0.2,1.1,-2.1,5.4,-6.9,-2.7,-31.5,45.3,-9.2,16
318,5419.0,-1.5,-0.7000000000000001,-1.6,4.3,-8.700000000000001,-2.4000000000000004,-37.1,46.4,0.5,16
319,5435.0,-1.9000000000000001,-1.0,-0.9,3.5,-9.200000000000001,-1.4000000000000001,-31.2,33.1,3.7000000000000006,16
320,5452.0,-1.5,-1.0,1.0,3.9000000000000004,-9.3,0.1,-14.100000000000001,0.5,7.200000000000001,16
321,5469.0,-1.1,0.0,1.7000000000000002,4.2,-8.6,0.9,12.0,-34.2,3.5,16
322,5485.0,-0.7000000000000001,0.5,1.5,4.7,-7.7,0.8,34.300000000000004,-59.20000000000001,4.6,16
323,5502.0,0.1,1.2000000000000002,0.9,5.300000000000001,-7.2,0.2,44.300000000000004,-65.6,11.900000000000002,16
324,5519.0,0.9,1.3,-0.5,5.9,-7.0,-0.9,38.1,-57.699999999999996,15.100000000000001,16
325,5535.0,1.1,1.0,-1.1,6.300000000000001,-7.4,-1.8,18.0,-35.9,11.3,16
326,5552.0,1.0,-0.1,-0.30000000000000004,6.2,-8.3,-1.2000000000000002,-6.4,-5.8,2.5,16
327,5569.0,0.7000000000000001,-0.6000000000000001,1.2000000000000002,6.0,-8.9,0.1,-18.5,14.900000000000002,-6.9,16
328,5586.0,0.4,-0.6000000000000001,1.5,5.7,-8.8,0.7000000000000001,-18.3,22.000000000000004,-12.0,16
329,5602.0,-0.2,-0.1,1.3,5.2,-8.5,0.6000000000000001,-11.900000000000002,22.2,-10.600000000000001,16
330,5619.0,-0.30000000000000004,0.4,0.7000000000000001,5.0,-8.0,0.1,-4.4,21.200000000000003,-5.9,16
331,5636.0,-0.2,0.5,0.30000000000000004,5.1000000000000005,-7.7,-0.4,0.1,16.1,-2.6,16
332,5653.0,-0.2,0.4,0.0,5.2,-8.0,-1.0,-0.30000000000000004,6.699999999999999,-1.6,16
333,5669.0,0.0,-0.30000000000000004,-0.5,5.300000000000001,-8.4,-1.2000000000000002,-3.7000000000000006,-3.5,-1.4,16
334,5688.0,0.0,-0.5,-0.4,5.4,-8.8,-1.2000000000000002,-5.6,-9.100000000000001,-0.5,16
335,5702.0,0.30000000000000004,-0.6000000000000001,-0.30000000000000004,5.6000000000000005,-8.9,-1.0,-4.1,-7.300000000000001,1.5,16
336,5719.0,0.5,-0.4,-0.2,5.800000000000001,-8.700000000000001,-1.0,-1.6,-2.4000000000000004,3.9,16
337,5736.0,0.5,-0.1,-0.2,5.800000000000001,-8.4,-1.0,-1.6,0.30000000000000004,4.9,16
338,5753.0,0.30000000000000004,0.30000000000000004,-0.1,5.6000000000000005,-8.0,-0.9,-4.9,2.0,3.9,16
339,5769.0,0.0,0.5,0.0,5.4,-7.800000000000001,-0.8,-8.8,5.0,1.7,16
340,5785.0,0.0,0.5,0.0,5.300000000000001,-7.800000000000001,-0.8,-12.0,9.100000000000001,0.1,16
341,5802.0,0.0,0.30000000000000004,-0.1,5.300000000000001,-7.9,-0.9,-14.700000000000001,12.9,-0.5,16
342,5819.0,0.1,0.30000000000000004,0.0,5.4,-7.9,-0.9,-16.8,15.6,0.1,16
343,5836.0,0.30000000000000004,0.4,0.0,5.6000000000000005,-7.800000000000001,-0.8,-17.799999999999997,15.2,1.4,16
344,5852.0,0.6000000000000001,0.6000000000000001,0.30000000000000004,5.9,-7.7,-0.6000000000000001,-16.900000000000002,10.600000000000001,2.9,16
345,5869.0,0.9,0.6000000000000001,0.6000000000000001,6.2,-7.6000000000000005,-0.4,-12.9,3.3000000000000007,3.6000000000000005,16
346,5886.0,1.0,0.5,0.6000000000000001,6.300000000000001,-7.800000000000001,-0.4,-6.300000000000001,-3.6000000000000005,3.6000000000000005,16
347,5902.0,0.8,0.4,0.5,6.2,-7.9,-0.4,0.30000000000000004,-8.4,3.3000000000000007,16
348,5919.0,0.5,0.30000000000000004,0.30000000000000004,5.9,-8.0,-0.6000000000000001,3.8,-11.3,3.6000000000000005,16
349,5935.0,0.5,0.30000000000000004,0.1,5.800000000000001,-8.0,-0.8,3.8,-13.3,4.2,16
350,5952.0,0.4,0.2,0.0,5.7,-8.0,-1.0,0.5,-13.700000000000001,4.5,16
351,5970.0,0.4,0.30000000000000004,0.1,5.7,-8.0,-0.9,-3.9,-13.100000000000001,5.2,16
352,5986.0,0.5,0.30000000000000004,0.2,5.800000000000001,-7.9,-0.8,-7.500000000000001,-13.000000000000002,6.0,16
353,6004.0,0.5,0.5,0.5,5.800000000000001,-7.7,-0.5,-9.0,-14.300000000000002,6.699999999999999,16
354,6019.0,0.7000000000000001,0.6000000000000001,1.0,6.0,-7.6000000000000005,-0.2,-6.699999999999999,-18.0,6.4,16
355,6036.0,0.7000000000000001,0.7000000000000001,1.1,6.1000000000000005,-7.5,0.1,-1.8000000000000003,-22.9,5.7,16
356,6052.0,0.8,0.7000000000000001,1.2000000000000002,6.2,-7.5,0.2,4.5,-28.0,5.0,16
357,6069.0,0.9,0.8,1.1,6.300000000000001,-7.300000000000001,0.1,10.299999999999999,-32.2,4.7,16
358,6086.0,0.9,0.9,0.9,6.300000000000001,-7.2,-0.1,14.200000000000001,-35.2,4.1,16
359,6102.0,1.0,0.9,0.6000000000000001,6.4,-7.2,-0.30000000000000004,15.6,-36.5,3.4,16
360,6119.0,1.2000000000000002,0.9,0.1,6.6000000000000005,-7.2,-0.7000000000000001,14.5,-35.9,1.7,16
361,6135.0,1.3,0.8,-0.1,6.9,-7.1000000000000005,-1.1,11.1,-32.300000000000004,-1.2000000000000002,16
362,6152.0,1.5,0.9,-0.2,7.1000000000000005,-7.1000000000000005,-1.3,6.699999999999999,-28.400000000000002,-4.9,16
363,6169.0,1.7000000000000002,0.9,-0.2,7.2,-7.1000000000000005,-1.3,3.8,-28.600000000000005,-7.6,16
364,6185.0,1.7000000000000002,0.9,-0.2,7.300000000000001,-7.1000000000000005,-1.3,3.4,-33.50000000000001,-9.100000000000001,16
365,6202.0,1.8,0.8,-0.2,7.4,-7.1000000000000005,-1.4000000000000001,5.7,-41.900000000000006,-9.5,16
366,6219.0,1.9000000000000001,0.8,-0.4,7.5,-7.1000000000000005,-1.6,9.2,-52.2,-9.600000000000001,16
367,6235.0,2.1,0.8,-0.5,7.800000000000001,-7.0,-1.8,11.8,-62.900000000000006,-10.4,16
368,6252.0,2.5,1.1,-0.5,8.1,-6.800000000000001,-1.9000000000000001,13.900000000000002,-72.50000000000001,-12.600000000000001,16
369,6269.0,2.9000000000000004,1.7000000000000002,-0.4,8.5,-6.300000000000001,-1.9000000000000001,16.5,-80.4,-15.700000000000001,16
370,6285.0,3.1,2.0,-0.30000000000000004,8.8,-5.800000000000001,-1.9000000000000001,19.700000000000003,-86.60000000000001,-20.8,16
371,6304.0,3.5,2.4000000000000004,0.4,9.200000000000001,-5.4,-1.4000000000000001,24.900000000000002,-93.10000000000001,-29.1,16
372,6319.0,3.7,2.3000000000000003,0.9,9.600000000000001,-5.300000000000001,-1.0,34.300000000000004,-98.7,-42.0,16
373,6335.0,3.5,2.0,1.1,9.4,-5.6000000000000005,-0.7000000000000001,46.6,-95.1,-57.800000000000004,16
374,6352.0,3.0,1.0,1.9000000000000001,9.200000000000001,-6.300000000000001,0.0,60.7,-84.0,-72.4,16
375,6369.0,2.4000000000000004,0.2,2.7,8.8,-6.9,0.8,76.80000000000001,-71.30000000000001,-83.80000000000001,16
376,6388.0,2.0,-0.2,3.0,8.4,-7.4,1.4000000000000001,94.2,-58.60000000000001,-90.80000000000001,16
377,6402.0,1.3,-1.0,3.4000000000000004,8.0,-8.0,1.8,94.2,-58.60000000000001,-90.80000000000001,16
378,6419.0,0.4,-1.2000000000000002,3.4000000000000004,7.5,-8.1,1.9000000000000001,92.50000000000001,-57.49999999999999,-90.70000000000002,16
379,6435.0,0.1,-1.1,3.2,7.0,-7.9,1.8,90.0,-56.6,-90.0,16
380,6452.0,0.0,-0.9,2.9000000000000004,7.1000000000000005,-7.6000000000000005,1.6,84.80000000000001,-71.10000000000001,-90.19999999999999,16
381,6469.0,0.30000000000000004,-0.7000000000000001,2.9000000000000004,7.5,-7.300000000000001,1.5,81.3,-96.7,-93.49999999999999,16
382,6485.0,0.5,-0.6000000000000001,2.6,7.9,-6.9,1.1,85.20000000000002,-110.10000000000001,-97.50000000000001,16
383,6502.0,0.30000000000000004,-0.6000000000000001,2.3000000000000003,7.9,-6.7,1.0,99.5,-96.1,-96.0,16
384,6519.0,-0.9,-1.4000000000000001,2.2,7.1000000000000005,-7.2,1.0,120.60000000000001,-83.89999999999999,-88.00000000000001,16
385,6535.0,-1.5,-1.8,1.9000000000000001,6.2,-7.800000000000001,0.5,136.9,-97.40000000000002,-74.0,16
386,6552.0,-1.7000000000000002,-1.9000000000000001,1.4000000000000001,6.0,-7.800000000000001,0.1,142.60000000000002,-114.6,-58.5,16
387,6569.0,-1.6,-1.8,1.2000000000000002,6.300000000000001,-7.6000000000000005,-0.2,140.5,-115.9,-51.1,16
388,6589.0,-1.7000000000000002,-1.4000000000000001,1.1,5.800000000000001,-7.2,-0.2,122.0,-93.00000000000001,-54.6,16
389,6602.0,-2.2,-1.4000000000000001,1.2000000000000002,5.800000000000001,-7.2,-0.2,122.0,-93.00000000000001,-54.6,16
390,6619.0,-3.3000000000000003,-1.4000000000000001,0.9,4.9,-7.1000000000000005,-0.4,110.70000000000002,-84.80000000000001,-50.3,16
391,6636.0,-3.8000000000000003,-1.3,0.5,4.0,-7.0,-0.9,100.80000000000001,-81.8,-41.300000000000004,16
392,6653.0,-4.5,-1.3,-0.1,3.5,-6.9,-1.4000000000000001,94.2,-77.1,-32.5,16
393,6669.0,-4.6000000000000005,-1.1,-0.30000000000000004,3.3000000000000003,-6.800000000000001,-1.6,90.9,-69.5,-26.6,16
394,6687.0,-4.6000000000000005,-0.9,-0.2,3.3000000000000003,-6.4,-1.6,87.7,-56.6,-21.400000000000002,16
395,6704.0,-4.5,-0.5,0.1,3.3000000000000003,-6.1000000000000005,-1.3,80.2,-42.7,-12.0,16
396,6719.0,-4.3,-0.4,0.30000000000000004,3.4000000000000004,-6.1000000000000005,-1.0,70.7,-32.2,0.30000000000000004,16
397,6736.0,-4.5,-0.4,0.2,3.2,-6.1000000000000005,-1.1,60.900000000000006,-33.9,13.3,16
398,6752.0,-3.9000000000000004,-0.8,-0.5,3.6,-6.5,-1.6,54.6,-38.2,31.3,16
399,6770.0,-1.8,-1.2000000000000002,-1.5,4.9,-7.1000000000000005,-2.4000000000000004,49.1,-42.5,45.5,16
400,6786.0,-0.1,-1.3,-2.5,7.4,-7.4,-3.9000000000000004,46.7,-50.5,51.6,16
401,6802.0,4.6000000000000005,-1.3,-3.6,11.200000000000001,-7.5,-4.9,50.0,-34.900000000000006,46.4,16
402,6819.0,8.8,-0.9,-2.3000000000000003,15.0,-7.300000000000001,-3.9000000000000004,61.199999999999996,11.4,24.400000000000002,16
403,6835.0,10.100000000000001,-0.5,-1.6,17.6,-6.7,-2.6,61.0,37.1,-5.500000000000001,16
404,6852.0,10.100000000000001,1.4000000000000001,-1.0,17.900000000000002,-5.1000000000000005,-2.0,40.1,23.5,-25.900000000000002,16
405,6869.0,6.300000000000001,-1.0,0.6000000000000001,15.100000000000001,-5.6000000000000005,-0.7000000000000001,26.5,30.200000000000003,-23.6,16
406,6885.0,4.3,-4.4,1.2000000000000002,11.8,-10.700000000000001,0.6000000000000001,31.0,47.0,-12.0,16
407,6902.0,-0.9,-6.1000000000000005,0.1,7.4,-12.200000000000001,-0.2,26.5,42.800000000000004,3.6000000000000005,16
408,6919.0,-3.9000000000000004,-8.200000000000001,-0.1,4.4,-14.100000000000001,-0.8,-4.9,-12.299999999999999,38.50000000000001,16
409,6935.0,-3.8000000000000003,-6.5,1.6,3.6,-12.8,0.8,-27.099999999999998,-75.7,72.80000000000001,16
410,6952.0,-3.8000000000000003,0.5,2.5,3.6,-7.2,1.8,-0.5,-35.2,67.7,16
411,6969.0,-6.1000000000000005,3.2,1.6,1.7000000000000002,-4.2,1.3,25.0,58.0,50.7,16
412,6985.0,-7.1000000000000005,3.2,1.8,-0.1,-3.7,1.7000000000000002,34.0,133.10000000000002,49.0,16
413,7002.0,-7.5,2.5,2.1,-0.8,-4.5,2.3000000000000003,29.300000000000004,137.70000000000002,63.8,16
414,7019.0,-5.2,0.30000000000000004,2.1,0.7000000000000001,-6.2,2.4000000000000004,19.5,98.0,77.4,16
415,7036.0,-3.8000000000000003,-1.2000000000000002,2.2,2.7,-8.6,2.6,9.8,43.50000000000001,76.1,16
416,7052.0,-0.9,-3.7,2.2,5.0,-10.9,2.6,4.9,-6.4,62.1,16
417,7069.0,3.0,-5.0,-0.6000000000000001,8.0,-12.4,1.0,-0.1,-33.300000000000004,41.7,16
418,7086.0,3.9000000000000004,-3.8000000000000003,-1.9000000000000001,10.100000000000001,-11.3,-1.5,-14.400000000000002,-8.4,13.8,16
419,7102.0,2.4000000000000004,0.4,-0.1,8.9,-7.800000000000001,0.0,-29.1,51.2,-0.2,16
420,7119.0,0.30000000000000004,3.5,2.1,7.1000000000000005,-4.9,1.9000000000000001,-33.6,56.6,2.4000000000000004,16
421,7136.0,-0.5,4.6000000000000005,3.0,5.6000000000000005,-3.0,3.4000000000000004,-26.700000000000003,11.700000000000001,15.8,16
422,7152.0,-0.5,5.1000000000000005,3.3000000000000003,5.5,-2.5,3.7,-1.3,-45.6,34.400000000000006,16
423,7169.0,2.5,3.5,0.2,7.300000000000001,-3.6,1.6,35.0,-73.5,45.099999999999994,16
424,7186.0,3.9000000000000004,2.5,-1.3,9.9,-5.300000000000001,-0.9,69.20000000000002,-39.1,36.8,16
425,7202.0,4.1000000000000005,2.2,-1.0,10.100000000000001,-5.6000000000000005,-0.5,90.6,35.4,15.6,16
426,7219.0,2.0,2.4000000000000004,-0.8,8.700000000000001,-5.300000000000001,0.6000000000000001,100.30000000000001,47.5,4.300000000000001,16
427,7236.0,1.0,2.1,-1.7000000000000002,6.9,-5.6000000000000005,-0.4,98.3,19.700000000000003,4.4,16
428,7252.0,-0.2,1.0,-2.8000000000000003,5.9,-6.5,-1.2000000000000002,84.1,12.4,5.8,16
429,7269.0,-0.4,0.4,-1.8,5.4,-7.1000000000000005,-0.6000000000000001,66.3,21.0,7.400000000000001,16
430,7286.0,-0.30000000000000004,0.4,-1.1,5.6000000000000005,-7.2,0.7000000000000001,52.1,29.400000000000002,11.700000000000001,16
431,7302.0,-0.2,0.8,-0.8,5.6000000000000005,-6.9,1.1,40.2,42.400000000000006,13.399999999999999,16
432,7319.0,-0.8,0.9,-0.1,5.2,-6.7,1.7000000000000002,22.000000000000004,83.70000000000002,15.399999999999999,16
433,7335.0,-1.2000000000000002,0.8,0.9,4.3,-6.9,3.3000000000000003,3.5,120.4,21.200000000000003,16
434,7353.0,0.30000000000000004,-0.6000000000000001,2.6,5.4,-8.0,5.0,-0.2,99.00000000000001,28.600000000000005,16
435,7369.0,2.8000000000000003,-2.7,0.0,7.5,-9.9,3.6,6.1000000000000005,31.799999999999997,20.599999999999998,16
436,7385.0,4.5,-3.1,-4.800000000000001,10.0,-10.8,-2.5,1.9,-11.000000000000002,4.800000000000001,16
437,7402.0,5.6000000000000005,-1.5,-7.9,11.100000000000001,-9.600000000000001,-5.7,-40.6,34.0,-5.6,16
438,7419.0,4.7,-0.4,-2.7,10.4,-8.5,-2.1,-82.7,51.0,-0.9000000000000001,16
439,7435.0,5.1000000000000005,-0.30000000000000004,-1.6,10.600000000000001,-8.200000000000001,0.4,-88.50000000000001,18.900000000000002,7.699999999999999,16
440,7452.0,7.2,0.2,-1.2000000000000002,12.4,-7.9,0.5,-73.0,-18.900000000000002,1.1,16
441,7469.0,9.200000000000001,0.4,-2.2,14.4,-7.6000000000000005,-0.2,-59.5,-54.699999999999996,-21.7,16
442,7490.0,9.600000000000001,0.5,-3.3000000000000003,15.5,-7.300000000000001,-2.0,-54.800000000000004,-72.2,-52.5,16
443,7502.0,9.8,-0.6000000000000001,-4.5,16.1,-8.0,-3.5,-69.00000000000001,-80.30000000000001,-86.2,16
444,7519.0,5.6000000000000005,-2.9000000000000004,0.6000000000000001,14.100000000000001,-9.600000000000001,-1.3,-97.2,-120.50000000000001,-127.3,16
445,7535.0,3.1,-4.4,4.0,10.100000000000001,-11.600000000000001,3.9000000000000004,-94.6,-178.3,-151.7,16
446,7552.0,0.30000000000000004,-6.800000000000001,6.6000000000000005,7.9,-13.4,5.9,-43.800000000000004,-200.1,-137.60000000000002,16
447,7569.0,-1.7000000000000002,-8.6,5.300000000000001,6.2,-14.9,5.2,4.0,-154.5,-88.3,16
448,7585.0,-2.4000000000000004,-8.8,3.9000000000000004,4.9,-15.8,3.2,29.400000000000002,-26.799999999999997,-16.4,16
449,7602.0,-3.0,-7.2,-0.6000000000000001,4.3,-14.600000000000001,-0.6000000000000001,-8.899999999999999,45.9,25.4,16
450,7619.0,-4.3,-4.2,0.6000000000000001,3.6,-12.4,-1.5,-109.30000000000001,-36.2,5.500000000000001,16
451,7635.0,-5.5,-2.8000000000000003,1.9000000000000001,1.7000000000000002,-9.700000000000001,0.30000000000000004,-184.0,-99.10000000000001,-36.7,16
452,7652.0,-7.4,-0.6000000000000001,3.8000000000000003,0.2,-7.6000000000000005,1.4000000000000001,-187.9,-53.8,-61.199999999999996,16
453,7669.0,-6.9,1.7000000000000002,7.4,0.2,-5.4,3.9000000000000004,-142.90000000000003,10.0,-69.20000000000002,16
454,7686.0,-6.300000000000001,2.7,8.200000000000001,1.2000000000000002,-3.5,6.0,-65.8,12.299999999999999,-72.10000000000001,16
455,7702.0,-3.9000000000000004,4.2,5.0,3.3000000000000003,-2.0,3.4000000000000004,0.4,-41.50000000000001,-76.1,16
456,7719.0,-3.1,4.7,3.0,4.800000000000001,-0.9,0.30000000000000004,24.200000000000003,-67.7,-87.89999999999999,16
457,7735.0,-2.7,5.4,2.5,5.1000000000000005,-0.2,0.1,19.200000000000003,-48.300000000000004,-98.10000000000001,16
458,7752.0,-4.4,5.2,4.1000000000000005,3.8000000000000003,-0.1,1.5,10.4,-34.60000000000001,-85.9,16
459,7769.0,-5.2,4.1000000000000005,4.5,2.4000000000000004,-1.6,2.2,14.800000000000002,-29.800000000000004,-49.1,16
460,7785.0,-6.6000000000000005,1.7000000000000002,5.0,1.2000000000000002,-3.6,2.6,33.50000000000001,-21.0,-14.200000000000001,16
461,7802.0,-8.8,0.7000000000000001,4.9,-0.7000000000000001,-4.6000000000000005,2.6,53.400000000000006,-19.700000000000003,8.0,16
462,7819.0,-9.600000000000001,0.7000000000000001,4.800000000000001,-2.1,-4.6000000000000005,2.5,68.0,-19.700000000000003,28.700000000000003,16
463,7835.0,-9.3,1.5,4.0,-1.9000000000000001,-4.1000000000000005,1.9000000000000001,80.4,-25.5,47.900000000000006,16
464,7852.0,-5.800000000000001,1.7000000000000002,1.5,0.7000000000000001,-4.1000000000000005,0.0,88.8,-40.4,62.1,16
465,7869.0,-3.0,0.9,-2.4000000000000004,5.300000000000001,-5.7,-7.4,80.60000000000001,-54.699999999999996,70.4,16
466,7886.0,10.200000000000001,-4.4,-27.8,17.1,-10.4,-30.0,20.5,-49.300000000000004,58.3,16
467,7902.0,33.300000000000004,-10.8,-11.3,39.0,-15.9,-20.900000000000002,-136.9,0.4,-80.60000000000001,16
468,7919.0,22.0,-8.200000000000001,-1.1,26.1,-11.600000000000001,-3.5,-81.10000000000001,106.80000000000001,-230.40000000000003,16
469,7936.0,4.2,2.3000000000000003,-0.9,12.5,-2.9000000000000004,-3.3000000000000003,20.900000000000002,43.800000000000004,-112.0,16
470,7952.0,-2.5,0.5,2.5,7.0,-4.2,-0.4,80.2,20.5,13.200000000000003,16
471,7969.0,-5.7,0.0,2.9000000000000004,1.8,-5.800000000000001,1.3,118.69999999999999,17.0,38.50000000000001,16
472,7986.0,-9.200000000000001,-2.9000000000000004,6.0,-1.2000000000000002,-8.6,4.3,124.50000000000001,34.0,55.1,16
473,8003.0,-10.700000000000001,-8.4,1.3,-2.8000000000000003,-13.4,1.7000000000000002,115.3,94.5,95.4,16
474,8019.0,-10.8,-11.700000000000001,-4.3,-0.6000000000000001,-18.5,-3.6,-8.100000000000001,21.6,142.10000000000002,16
475,8035.0,4.3,-10.600000000000001,12.100000000000001,11.4,-17.2,10.3,-117.4,-90.9,99.7,16
476,8052.0,-3.1,-1.5,6.0,5.7,-9.5,6.300000000000001,-1.5,47.5,-17.7,16
477,8070.0,-4.7,1.3,2.8000000000000003,2.6,-4.9,3.4000000000000004,49.50000000000001,121.70000000000002,-39.8,16
478,8085.0,-4.9,1.6,4.2,2.6,-4.9,3.4000000000000004,36.9,103.3,-11.1,16
479,8102.0,-3.8000000000000003,1.0,4.7,3.2,-5.4,4.1000000000000005,19.1,34.800000000000004,39.50000000000001,16
480,8119.0,-1.9000000000000001,-0.2,4.6000000000000005,5.7,-7.7,3.8000000000000003,13.399999999999999,-11.900000000000002,75.00000000000001,16
481,8135.0,-1.2000000000000002,-0.8,4.4,5.7,-7.7,3.8000000000000003,23.400000000000002,-36.7,87.80000000000001,16
482,8152.0,0.0,-1.6,3.4000000000000004,6.5,-8.6,3.1,44.9,-48.400000000000006,85.4,16
483,8169.0,0.6000000000000001,-2.0,1.8,7.5,-9.5,0.7000000000000001,67.8,-26.6,72.50000000000001,16
484,8186.0,1.9000000000000001,-2.2,-1.3,8.5,-9.600000000000001,-1.3,77.4,60.6,51.0,16
485,8202.0,0.2,1.9000000000000001,-0.5,7.0,-6.2,-0.30000000000000004,69.20000000000002,148.20000000000002,43.70000000000001,16
486,8219.0,-0.5,3.1,0.5,5.6000000000000005,-4.1000000000000005,1.4000000000000001,49.50000000000001,170.60000000000002,57.800000000000004,16
487,8236.0,-1.6,4.6000000000000005,1.5,4.5,-3.1,2.6,31.9,139.0,70.8,16
488,8252.0,-1.5,4.4,1.9000000000000001,4.3,-3.2,3.2,29.900000000000006,80.9,69.9,16
489,8269.0,-1.3,3.9000000000000004,1.1,4.6000000000000005,-4.1000000000000005,2.3000000000000003,39.699999999999996,27.0,56.6,16
490,8285.0,-0.30000000000000004,2.5,-0.6000000000000001,5.300000000000001,-5.300000000000001,1.0,50.0,-2.0,38.2,16
491,8302.0,1.7000000000000002,0.5,-3.8000000000000003,6.9,-6.9,-1.4000000000000001,51.300000000000004,5.2,23.3,16
492,8319.0,2.7,-0.30000000000000004,-5.4,8.200000000000001,-8.1,-3.4000000000000004,34.50000000000001,70.0,13.8,16
493,8336.0,2.1,0.2,-3.0,7.6000000000000005,-7.7,-1.1,3.8,140.0,19.700000000000003,16
494,8353.0,1.9000000000000001,1.3,-1.0,7.2,-6.800000000000001,0.9,-18.3,114.10000000000001,40.6,16
495,8369.0,2.0,1.6,-1.3,7.2,-6.300000000000001,0.5,-28.700000000000003,63.10000000000001,51.1,16
496,8391.0,3.7,1.0,-3.6,9.3,-7.300000000000001,-1.6,-37.50000000000001,70.0,37.50000000000001,16
497,8402.0,4.7,0.7000000000000001,-3.6,9.3,-7.300000000000001,-1.6,-37.50000000000001,70.0,37.50000000000001,16
498,8419.0,5.5,0.6000000000000001,-3.1,10.600000000000001,-7.6000000000000005,-1.0,-48.10000000000001,75.4,23.3,16
499,8435.0,7.1000000000000005,1.0,-2.3000000000000003,12.0,-7.2,-0.4,-58.3,51.0,12.8,16
500,8452.0,8.4,2.7,-2.4000000000000004,13.200000000000001,-5.9,-0.6000000000000001,-64.30000000000001,12.4,1.2000000000000002,16
501,8469.0,9.200000000000001,3.3000000000000003,-2.8000000000000003,14.600000000000001,-4.800000000000001,-1.3,-65.5,-17.1,-13.8,16
502,8486.0,11.600000000000001,3.0,-3.1,16.900000000000002,-5.1000000000000005,-1.8,-66.2,-33.800000000000004,-40.800000000000004,16
503,8502.0,12.200000000000001,0.5,-5.0,18.1,-6.9,-3.6,-73.7,-39.8,-94.6,16
504,8519.0,10.5,-0.6000000000000001,-5.5,16.1,-8.700000000000001,-4.7,-103.2,-48.6,-155.60000000000002,16
505,8535.0,6.300000000000001,-4.5,-2.1,13.100000000000001,-11.700000000000001,-2.2,-145.5,-95.0,-193.8,16
506,8552.0,3.3000000000000003,-9.9,6.800000000000001,11.0,-16.0,4.6000000000000005,-130.6,-137.5,-202.70000000000002,16
507,8569.0,1.6,-10.8,8.4,8.700000000000001,-17.900000000000002,7.2,-60.300000000000004,-167.40000000000003,-174.3,16
508,8585.0,-0.30000000000000004,-13.700000000000001,5.4,7.300000000000001,-20.3,4.7,6.9,-123.5,-103.10000000000001,16
509,8602.0,-4.6000000000000005,-14.200000000000001,1.4000000000000001,3.8000000000000003,-21.400000000000002,1.8,37.7,40.300000000000004,-9.5,16
510,8619.0,-4.7,-12.0,-0.6000000000000001,3.0,-18.400000000000002,-1.3,-7.500000000000001,78.60000000000001,51.300000000000004,16
511,8635.0,-3.3000000000000003,-7.1000000000000005,0.6000000000000001,4.0,-14.3,-0.6000000000000001,-109.30000000000001,-52.00000000000001,19.1,16
512,8652.0,-6.4,-1.7000000000000002,1.9000000000000001,1.7000000000000002,-9.5,0.2,-159.2,-82.0,-48.9,16
513,8669.0,-7.7,0.0,3.7,-0.5,-6.1000000000000005,2.7,-152.8,-21.200000000000003,-77.80000000000001,16
514,8686.0,-8.700000000000001,1.8,6.800000000000001,-0.30000000000000004,-3.5,5.800000000000001,-88.8,12.0,-67.8,16
515,8702.0,-4.9,4.9,5.300000000000001,2.2,-1.7000000000000002,3.9000000000000004,-11.8,-13.000000000000002,-64.30000000000001,16
516,8719.0,-3.9000000000000004,5.5,4.0,3.9000000000000004,-0.30000000000000004,1.8,31.400000000000002,-53.9,-77.60000000000001,16
517,8736.0,-3.6,7.1000000000000005,2.0,4.3,1.2000000000000002,0.1,41.1,-72.50000000000001,-92.50000000000001,16
518,8752.0,-4.6000000000000005,7.5,3.1,3.6,1.9000000000000001,0.8,36.400000000000006,-59.40000000000001,-91.30000000000001,16
519,8769.0,-5.2,7.1000000000000005,4.2,2.6,1.3,2.3000000000000003,40.300000000000004,-54.0,-67.3,16
520,8786.0,-6.800000000000001,4.6000000000000005,5.5,1.2000000000000002,-0.7000000000000001,3.4000000000000004,57.699999999999996,-53.8,-35.4,16
521,8803.0,-9.600000000000001,3.0,5.0,-1.2000000000000002,-2.1,3.2,76.89999999999999,-39.50000000000001,-12.299999999999999,16
522,8820.0,-10.700000000000001,2.6,5.1000000000000005,-3.2,-3.0,3.5,82.60000000000001,-14.600000000000001,9.700000000000001,16
523,8835.0,-11.8,1.9000000000000001,5.800000000000001,-4.2,-3.7,4.2,85.1,-5.6,29.700000000000006,16
524,8853.0,-10.600000000000001,0.5,5.1000000000000005,-3.6,-4.9,4.0,97.50000000000001,-22.5,52.60000000000001,16
525,8869.0,-8.200000000000001,-0.9,3.0,-0.1,-7.4,0.30000000000000004,104.10000000000001,-60.400000000000006,81.90000000000002,16
526,8890.0,2.8000000000000003,-7.2,-18.5,9.0,-13.0,-18.900000000000002,67.4,-155.20000000000002,100.2,16
527,8902.0,46.1,-15.8,-26.5,45.300000000000004,-20.5,-37.7,-122.60000000000001,-140.5,-5.500000000000001,16
528,8919.0,31.700000000000003,-14.600000000000001,0.4,34.7,-17.7,-1.7000000000000002,-103.8,224.3,-286.90000000000003,16
529,8935.0,3.0,6.4,-2.1,12.200000000000001,0.30000000000000004,-3.9000000000000004,8.4,93.4,-225.60000000000002,16
530,8952.0,-1.7000000000000002,4.9,0.5,8.0,1.7000000000000002,-2.5,47.60000000000001,23.6,2.3,16
531,8970.0,-7.300000000000001,-0.4,2.7,0.4,-8.6,4.800000000000001,115.39999999999999,45.5,85.1,16
532,8986.0,-7.800000000000001,-3.2,6.5,0.4,-8.6,4.800000000000001,115.39999999999999,45.5,85.1,16
533,9003.0,-7.800000000000001,-9.3,7.800000000000001,-0.1,-14.100000000000001,7.9,129.10000000000002,56.400000000000006,102.0,16
534,9018.0,-6.9,-12.3,-0.2,1.9000000000000001,-19.0,-1.8,59.20000000000001,-0.5,124.10000000000001,16
535,9035.0,3.9000000000000004,-9.600000000000001,5.7,10.8,-16.5,3.5,-98.60000000000001,-111.50000000000001,85.9,16
536,9052.0,-3.7,-0.4,3.6,5.6000000000000005,-8.3,4.800000000000001,-36.7,17.400000000000002,-13.8,16
537,9069.0,-5.2,0.9,-0.8,2.2,-5.4,-1.1,20.7,124.90000000000002,-29.800000000000004,16
538,9085.0,-6.800000000000001,1.8,3.9000000000000004,0.8,-4.7,3.2,22.8,141.8,5.0,16
539,9102.0,-5.4,0.9,5.1000000000000005,1.4000000000000001,-5.4,5.0,35.699999999999996,82.8,57.400000000000006,16
540,9119.0,-3.7,0.30000000000000004,4.7,3.7,-6.6000000000000005,4.6000000000000005,41.4,16.4,89.2,16
541,9135.0,-1.0,-1.3,4.800000000000001,5.800000000000001,-8.200000000000001,4.6000000000000005,40.300000000000004,-43.2,87.10000000000001,16
542,9152.0,0.1,-2.7,4.4,6.7,-9.600000000000001,4.4,46.9,-90.4,72.0,16
543,9169.0,0.8,-2.9000000000000004,3.7,7.7,-10.100000000000001,3.4000000000000004,60.900000000000006,-105.20000000000002,60.900000000000006,16
544,9190.0,1.6,-1.9000000000000001,1.0,8.200000000000001,-9.4,1.1,76.60000000000001,-77.1,50.900000000000006,16
545,9202.0,1.0,1.9000000000000001,-4.0,7.800000000000001,-6.5,-3.5,79.6,51.0,48.50000000000001,16
546,9218.0,0.0,3.2,-1.8,6.2,-4.2,-0.6000000000000001,61.50000000000001,190.8,59.80000000000001,16
547,9235.0,-1.6,4.3,1.7000000000000002,4.7,-3.4000000000000004,2.7,45.3,199.4,69.4,16
548,9252.0,-1.8,4.2,1.6,4.0,-3.4000000000000004,3.3000000000000003,43.800000000000004,128.70000000000002,68.7,16
549,9269.0,-1.4000000000000001,4.2,0.7000000000000001,4.4,-3.6,2.2,49.1,54.4,55.1,16
550,9286.0,-1.3,3.6,-1.3,4.5,-4.0,0.6000000000000001,52.1,1.8000000000000003,32.8,16
551,9302.0,0.2,1.3,-4.5,5.4,-5.7,-1.8,47.3,4.7,18.5,16
552,9319.0,1.3,0.1,-5.6000000000000005,7.0,-7.7,-3.4000000000000004,25.900000000000002,67.60000000000001,10.700000000000001,16
553,9335.0,1.7000000000000002,0.0,-2.6,7.2,-7.800000000000001,-0.7000000000000001,-6.1000000000000005,132.8,12.600000000000001,16
554,9352.0,1.6,1.2000000000000002,-1.5,6.9,-6.9,0.8,-24.900000000000002,120.00000000000001,32.1,16
555,9369.0,1.9000000000000001,1.4000000000000001,-2.0,7.2,-6.6000000000000005,0.2,-37.2,83.00000000000001,51.0,16
556,9385.0,3.4000000000000004,0.7000000000000001,-2.8000000000000003,8.4,-7.300000000000001,-0.6000000000000001,-45.2,68.0,52.80000000000001,16
557,9402.0,5.6000000000000005,-0.1,-3.5,10.0,-8.1,-1.1,-48.800000000000004,67.5,38.1,16
558,9419.0,6.5,0.4,-3.7,11.600000000000001,-7.6000000000000005,-1.5,-55.0,66.80000000000001,20.8,16
559,9435.0,7.1000000000000005,1.2000000000000002,-3.5,12.600000000000001,-6.300000000000001,-1.2000000000000002,-64.60000000000001,56.7,11.700000000000001,16
560,9453.0,9.200000000000001,3.7,-3.1,13.9,-4.9,-1.2000000000000002,-69.5,33.6,4.9,16
561,9469.0,10.100000000000001,4.2,-3.3000000000000003,15.4,-4.0,-1.6,-70.5,7.699999999999999,-10.200000000000001,16
562,9488.0,11.9,3.9000000000000004,-1.9000000000000001,17.1,-4.2,-0.6000000000000001,-74.4,-32.300000000000004,-42.60000000000001,16
563,9502.0,11.100000000000001,1.4000000000000001,-4.0,17.3,-5.9,-2.1,-77.00000000000001,-73.9,-97.00000000000001,16
564,9519.0,9.3,-0.6000000000000001,-4.3,15.200000000000001,-8.700000000000001,-3.3000000000000003,-88.60000000000001,-75.7,-158.39999999999998,16
565,9535.0,6.0,-6.300000000000001,0.8,13.0,-13.200000000000001,0.5,-100.0,-100.70000000000002,-201.2,16
566,9552.0,2.9000000000000004,-9.5,6.800000000000001,10.8,-16.0,5.4,-77.3,-149.70000000000002,-198.00000000000003,16
567,9569.0,1.8,-10.700000000000001,6.300000000000001,9.0,-17.8,5.5,-31.9,-169.70000000000002,-144.9,16
568,9588.0,-1.0,-14.600000000000001,4.3,6.7,-21.1,4.0,8.8,-65.10000000000001,-62.7,16
569,9602.0,-4.4,-13.9,0.7000000000000001,3.6,-21.5,1.9000000000000001,29.200000000000003,88.3,12.9,16
570,9620.0,-3.7,-12.100000000000001,-1.0,3.6,-18.8,-1.3,-31.099999999999998,40.0,32.6,16
571,9635.0,-4.7,-6.9,-0.30000000000000004,2.8000000000000003,-14.5,-1.3,-131.5,-121.10000000000001,-20.0,16
572,9652.0,-6.800000000000001,-2.1,2.6,1.1,-10.100000000000001,0.1,-173.6,-95.1,-60.400000000000006,16
573,9668.0,-7.5,-0.30000000000000004,3.8000000000000003,-0.1,-6.800000000000001,2.3000000000000003,-159.0,-19.700000000000003,-65.4,16
574,9686.0,-7.9,1.0,4.9,0.30000000000000004,-4.7,4.6000000000000005,-106.60000000000001,26.9,-44.5,16
575,9702.0,-4.5,3.4000000000000004,5.7,2.4000000000000004,-3.4000000000000004,4.4,-36.2,14.0,-34.1,16
576,9719.0,-3.7,4.0,4.3,4.1000000000000005,-2.3000000000000003,2.4000000000000004,16.900000000000002,-19.799999999999997,-46.4,16
577,9736.0,-1.9000000000000001,4.800000000000001,2.4000000000000004,5.7,-1.4000000000000001,0.8,40.1,-41.1,-74.4,16
578,9752.0,-3.2,6.0,1.9000000000000001,5.300000000000001,-0.2,0.30000000000000004,46.0,-37.300000000000004,-106.30000000000001,16
579,9771.0,-6.7,6.5,3.1,0.9,0.5,2.0,50.3,-24.5,-57.699999999999996,16
580,9786.0,-7.2,5.9,3.6,0.9,0.5,2.0,50.3,-24.5,-57.699999999999996,16
581,9802.0,-8.0,4.2,3.4000000000000004,0.30000000000000004,-1.0,2.0,62.7,-30.599999999999998,-9.5,16
582,9819.0,-8.9,3.7,3.3000000000000003,-1.3,-2.0,1.9000000000000001,69.00000000000001,-28.700000000000003,17.1,16
583,9835.0,-10.4,2.7,3.9000000000000004,-2.6,-2.9000000000000004,2.5,65.4,-26.6,34.900000000000006,16
584,9852.0,-10.100000000000001,1.3,4.4,-2.8000000000000003,-4.2,2.9000000000000004,62.800000000000004,-40.5,50.0,16
585,9869.0,-8.8,0.4,3.9000000000000004,-1.2000000000000002,-5.800000000000001,2.1,67.4,-67.9,68.1,16
586,9886.0,-2.1,-2.5,-5.7,4.1000000000000005,-8.4,-6.2,60.7,-125.2,83.60000000000001,16
587,9902.0,26.3,-9.200000000000001,-33.0,23.400000000000002,-13.700000000000001,-29.900000000000002,-27.6,-199.6,64.4,16
588,9919.0,37.800000000000004,-10.200000000000001,-14.200000000000001,43.400000000000006,-15.8,-14.700000000000001,-105.0,6.500000000000001,-106.5,16
589,9935.0,8.700000000000001,-2.0,-3.4000000000000004,19.900000000000002,-8.6,-5.300000000000001,-17.9,145.9,-267.8,16
590,9952.0,1.2000000000000002,5.800000000000001,-2.1,10.5,0.1,-4.800000000000001,9.2,68.2,-101.80000000000001,16
591,9970.0,-2.5,3.3000000000000003,0.30000000000000004,5.0,-2.2,-1.1,40.9,49.6,22.4,16
592,9985.0,-9.3,2.1,3.8000000000000003,-0.7000000000000001,-3.3000000000000003,2.1,84.1,50.400000000000006,49.9,16
593,10002.0,-9.600000000000001,-3.0,10.5,-1.7000000000000002,-7.1000000000000005,7.800000000000001,120.2,73.0,73.30000000000001,16
594,10019.0,-8.6,-6.6000000000000005,10.3,-0.6000000000000001,-13.5,8.8,148.1,71.30000000000001,101.4,16
595,10035.0,0.6000000000000001,-19.1,-7.4,6.7,-24.1,-6.2,63.30000000000001,-44.00000000000001,119.89999999999999,16
596,10052.0,7.4,-12.5,8.3,17.7,-23.200000000000003,2.4000000000000004,-112.60000000000001,-139.0,20.1,16
597,10069.0,0.1,-4.6000000000000005,0.4,7.4,-10.200000000000001,-1.3,-37.300000000000004,101.20000000000002,-89.10000000000001,16
598,10085.0,-7.800000000000001,3.1,-0.7000000000000001,0.9,-3.7,-2.0,-20.1,202.0,-70.6,16
599,10102.0,-10.9,4.3,5.300000000000001,-3.1,-1.8,4.4,-10.299999999999999,127.40000000000002,17.5,16
600,10119.0,-8.8,2.7,4.6000000000000005,-1.0,-4.0,4.5,32.2,72.80000000000001,111.30000000000001,16
601,10135.0,-4.4,0.30000000000000004,3.6,2.3000000000000003,-6.300000000000001,3.9000000000000004,58.60000000000001,55.5,142.39999999999998,16
602,10152.0,-1.6,-2.1,5.2,4.7,-8.5,5.1000000000000005,64.0,7.699999999999999,124.60000000000001,16
603,10169.0,-1.1,-2.9000000000000004,5.5,5.7,-10.200000000000001,5.800000000000001,68.2,-57.400000000000006,89.6,16
604,10186.0,0.5,-3.9000000000000004,4.3,7.0,-11.200000000000001,4.800000000000001,73.7,-114.80000000000001,61.300000000000004,16
605,10202.0,1.6,-3.2,2.2,8.0,-11.0,3.1,72.30000000000001,-116.9,45.400000000000006,16
606,10219.0,1.3,-1.4000000000000001,1.3,7.7,-8.6,1.6,66.2,-56.300000000000004,41.1,16
607,10239.0,0.2,3.1,-1.1,6.6000000000000005,-4.9,-0.1,59.300000000000004,29.1,47.0,16
608,10252.0,-1.6,5.2,-0.30000000000000004,4.9,-2.8000000000000003,0.2,47.1,116.6,57.800000000000004,16
609,10269.0,-1.5,5.300000000000001,0.4,4.5,-2.4000000000000004,1.8,39.2,155.1,67.5,16
610,10285.0,-0.8,5.1000000000000005,-0.30000000000000004,4.9,-2.7,1.5,38.900000000000006,132.5,58.7,16
611,10303.0,-0.9,4.2,-2.4000000000000004,4.6000000000000005,-3.3000000000000003,0.1,35.599999999999994,99.10000000000001,41.4,16
612,10319.0,0.0,3.0,-4.0,5.7,-5.0,-2.1,21.500000000000004,93.3,31.400000000000002,16
613,10335.0,2.4000000000000004,0.5,-5.4,7.6000000000000005,-7.1000000000000005,-3.3000000000000003,-12.600000000000001,128.4,16.700000000000003,16
614,10352.0,3.2,0.8,-1.4000000000000001,8.3,-7.4,-0.1,-48.2,145.4,7.0,16
615,10369.0,3.6,1.3,-1.1,8.9,-6.6000000000000005,1.0,-62.300000000000004,106.60000000000001,17.300000000000004,16
616,10385.0,4.5,1.9000000000000001,-2.5,9.600000000000001,-6.2,-0.2,-64.4,70.7,35.3,16
617,10403.0,5.6000000000000005,1.5,-2.8000000000000003,10.3,-6.4,-0.7000000000000001,-59.60000000000001,75.7,44.10000000000001,16
618,10419.0,6.2,1.1,-2.7,11.100000000000001,-7.2,-0.5,-49.199999999999996,88.00000000000001,40.6,16
619,10435.0,6.7,0.8,-2.9000000000000004,11.5,-7.4,-0.7000000000000001,-36.1,80.50000000000001,30.599999999999998,16
620,10452.0,7.300000000000001,1.7000000000000002,-3.0,11.9,-6.9,-0.9,-28.800000000000004,53.400000000000006,24.0,16
621,10469.0,7.9,2.2,-2.6,12.8,-6.1000000000000005,-0.6000000000000001,-27.099999999999998,9.899999999999999,16.4,16
622,10485.0,9.3,2.5,-2.6,14.100000000000001,-5.800000000000001,-0.7000000000000001,-25.6,-42.3,1.1,16
623,10502.0,11.5,1.5,-4.3,16.1,-6.4,-2.1,-28.700000000000003,-71.6,-26.400000000000006,16
624,10519.0,11.100000000000001,1.0,-4.800000000000001,16.400000000000002,-7.2,-3.4000000000000004,-44.10000000000001,-64.9,-63.599999999999994,16
625,10535.0,8.8,-0.4,-4.9,14.9,-8.3,-3.9000000000000004,-78.60000000000001,-72.4,-103.3,16
626,10552.0,5.7,-3.0,-1.1,12.8,-9.8,-2.2,-117.9,-102.8,-148.60000000000002,16
627,10568.0,4.6000000000000005,-5.300000000000001,2.5,11.200000000000001,-12.9,2.7,-124.10000000000001,-138.7,-183.6,16
628,10586.0,1.9000000000000001,-8.0,7.0,9.3,-14.9,6.2,-82.2,-182.1,-183.7,16
629,10602.0,1.1,-11.8,4.1000000000000005,8.5,-17.5,4.4,-29.900000000000006,-168.9,-130.70000000000002,16
630,10619.0,0.2,-13.700000000000001,3.3000000000000003,7.4,-20.700000000000003,2.7,0.9000000000000001,-21.400000000000002,-52.7,16
631,10635.0,-4.2,-12.100000000000001,0.8,3.7,-19.700000000000003,1.2000000000000002,8.100000000000001,164.7,6.2,16
632,10652.0,-4.5,-6.7,0.2,2.8000000000000003,-15.4,-0.9,-69.20000000000002,75.4,13.3,16
633,10668.0,-5.300000000000001,-3.8000000000000003,1.7000000000000002,1.9000000000000001,-10.700000000000001,0.7000000000000001,-150.8,-78.60000000000001,-29.300000000000004,16
634,10685.0,-6.9,0.0,3.0,0.7000000000000001,-7.300000000000001,1.3,-163.4,-78.3,-61.599999999999994,16
635,10704.0,-6.9,0.0,3.0,0.7000000000000001,-7.300000000000001,1.3,-163.4,-78.3,-61.599999999999994,16
636,10718.0,-5.300000000000001,3.3000000000000003,6.6000000000000005,2.3000000000000003,-3.2,4.800000000000001,-43.6,-12.200000000000001,-57.1,16
637,10735.0,-3.7,4.9,3.7,3.7,-1.6,2.4000000000000004,16.700000000000003,-23.3,-68.80000000000001,16
638,10752.0,-2.5,6.2,2.6,5.2,-0.4,1.2000000000000002,42.2,-45.6,-89.2,16
639,10768.0,-3.4000000000000004,7.0,2.2,4.4,1.2000000000000002,0.5,51.70000000000001,-60.400000000000006,-109.8,16
640,10785.0,-6.2,7.5,3.0,2.1,1.9000000000000001,1.2000000000000002,54.699999999999996,-61.199999999999996,-94.4,16
641,10802.0,-6.7,5.1000000000000005,4.4,1.3,0.5,2.3000000000000003,63.900000000000006,-59.00000000000001,-48.70000000000001,16
642,10819.0,-7.5,4.1000000000000005,4.800000000000001,0.30000000000000004,-1.5,3.2,80.7,-56.10000000000001,-15.399999999999999,16
643,10835.0,-10.200000000000001,2.9000000000000004,5.0,-2.1,-2.6,3.4000000000000004,94.6,-54.6,6.0,16
644,10852.0,-11.600000000000001,1.9000000000000001,5.4,-3.8000000000000003,-3.5,3.7,97.60000000000001,-38.900000000000006,33.800000000000004,16
645,10869.0,-11.4,1.3,5.7,-4.0,-4.7,4.4,97.3,-18.1,61.39999999999999,16
646,10887.0,-8.9,-0.30000000000000004,3.3000000000000003,-2.2,-6.300000000000001,2.6,100.2,-28.400000000000002,88.8,16
647,10903.0,-0.8,-6.5,-15.600000000000001,3.0,-10.5,-8.3,84.0,-94.6,107.6,16
648,10918.0,21.0,-13.200000000000001,-41.800000000000004,29.6,-19.900000000000002,-42.7,-45.7,-208.9,83.80000000000001,16
649,10935.0,36.300000000000004,-15.100000000000001,-2.7,46.2,-21.3,-10.5,-129.3,131.6,-200.8,16
650,10952.0,3.6,7.7,-2.8000000000000003,17.8,-5.6000000000000005,-3.7,-35.1,219.20000000000002,-327.1,16
651,10973.0,-0.2,7.6000000000000005,-0.4,5.7,-1.8,0.5,30.3,29.0,50.7,16
652,10986.0,-3.6,2.1,2.6,5.7,-1.8,0.5,30.3,29.0,50.7,16
653,11004.0,-6.0,-5.2,11.600000000000001,2.5,-8.700000000000001,7.5,107.7,20.7,70.9,16
654,11018.0,-6.2,-8.5,10.8,1.9000000000000001,-14.700000000000001,9.700000000000001,186.20000000000002,30.599999999999998,88.60000000000001,16
655,11035.0,-3.2,-15.5,-3.6,4.1000000000000005,-21.0,-2.7,125.10000000000001,-6.699999999999999,115.3,16
656,11052.0,-2.7,-4.5,7.300000000000001,7.0,-15.200000000000001,3.7,-36.7,-104.10000000000001,73.30000000000001,16
657,11069.0,-6.7,-0.4,4.3,0.8,-6.800000000000001,3.5,-9.700000000000001,3.8,10.9,16
658,11088.0,-9.1,1.6,1.3,-1.3,-5.0,0.8,22.4,96.9,18.3,16
659,11102.0,-7.2,0.2,4.6000000000000005,-0.5,-5.9,3.9000000000000004,31.5,117.60000000000001,47.2,16
660,11119.0,-5.7,-0.7000000000000001,4.4,1.6,-7.5,4.6000000000000005,39.0,69.00000000000001,65.8,16
661,11135.0,-3.1,-2.0,4.2,3.7,-8.700000000000001,4.4,35.2,9.3,63.2,16
662,11152.0,-1.0,-3.4000000000000004,4.9,5.300000000000001,-10.100000000000001,4.9,31.0,-49.699999999999996,55.7,16
663,11169.0,-0.4,-3.7,5.0,6.5,-10.9,5.1000000000000005,36.400000000000006,-98.0,54.4,16
664,11185.0,1.0,-3.0,3.4000000000000004,7.5,-10.5,3.7,49.9,-116.9,60.2,16
665,11203.0,1.1,-0.1,-1.3,7.7,-8.6,0.8,60.8,-87.2,62.199999999999996,16
666,11219.0,0.7000000000000001,2.3000000000000003,-4.5,7.1000000000000005,-5.2,-4.1000000000000005,61.0,27.400000000000002,64.2,16
667,11236.0,-0.7000000000000001,4.4,-0.30000000000000004,5.7,-3.4000000000000004,-0.30000000000000004,46.6,182.1,74.2,16
668,11252.0,-1.2000000000000002,4.7,2.5,4.9,-3.1,3.4000000000000004,42.800000000000004,203.60000000000002,78.0,16
669,11268.0,-1.3,4.800000000000001,1.9000000000000001,4.5,-3.0,3.3000000000000003,45.400000000000006,130.5,70.10000000000001,16
670,11286.0,-1.0,4.5,0.1,4.6000000000000005,-3.3000000000000003,2.0,45.9,62.900000000000006,53.7,16
671,11302.0,-0.5,3.4000000000000004,-1.8,4.9,-4.0,0.8,46.300000000000004,25.900000000000002,35.5,16
672,11320.0,0.7000000000000001,2.1,-3.3000000000000003,6.2,-5.800000000000001,-1.4000000000000001,41.7,21.900000000000002,25.0,16
673,11335.0,2.8000000000000003,-0.1,-4.5,8.0,-7.7,-2.4000000000000004,20.8,62.900000000000006,17.5,16
674,11352.0,2.5,0.8,-2.7,8.1,-7.5,-1.0,-6.500000000000001,99.60000000000001,21.200000000000003,16
675,11368.0,2.5,1.2000000000000002,-2.6,7.6000000000000005,-6.7,-0.4,-26.1,102.0,41.6,16
676,11387.0,2.6,1.6,-3.1,7.6000000000000005,-6.5,-0.7000000000000001,-37.7,96.7,56.50000000000001,16
677,11402.0,3.9000000000000004,1.1,-2.4000000000000004,8.200000000000001,-6.800000000000001,-0.4,-42.7,95.60000000000002,55.900000000000006,16
678,11419.0,5.1000000000000005,0.5,-2.3000000000000003,9.9,-7.800000000000001,0.0,-41.800000000000004,81.90000000000002,44.00000000000001,16
679,11435.0,7.4,0.5,-2.9000000000000004,11.8,-7.9,-0.5,-37.9,57.00000000000001,26.6,16
680,11453.0,8.5,2.3000000000000003,-3.5,12.8,-6.6000000000000005,-1.3,-36.6,39.2,16.900000000000002,16
681,11468.0,9.200000000000001,2.9000000000000004,-2.8000000000000003,13.9,-5.5,-0.8,-39.300000000000004,21.300000000000004,12.8,16
682,11486.0,11.4,2.8000000000000003,-2.4000000000000004,15.9,-5.4,-0.5,-39.9,-16.3,-4.800000000000001,16
683,11502.0,12.200000000000001,2.1,-2.5,17.3,-6.4,-1.0,-40.5,-49.9,-45.2,16
684,11519.0,11.100000000000001,0.0,-3.7,16.6,-8.200000000000001,-2.3000000000000003,-44.2,-61.0,-96.9,16
685,11535.0,8.4,-2.5,-6.5,14.9,-10.0,-5.1000000000000005,-68.4,-66.1,-149.10000000000002,16
686,11552.0,4.2,-5.300000000000001,-0.8,12.0,-11.9,-2.7,-114.6,-91.8,-182.1,16
687,11569.0,2.3000000000000003,-7.0,3.3000000000000003,9.1,-14.3,3.4000000000000004,-128.1,-134.8,-184.4,16
688,11585.0,0.1,-9.5,6.300000000000001,7.4,-16.2,6.0,-81.0,-157.0,-142.79999999999998,16
689,11602.0,-0.8,-12.8,4.2,7.0,-18.900000000000002,4.4,-28.500000000000004,-113.00000000000001,-77.9,16
690,11619.0,-2.6,-13.100000000000001,3.4000000000000004,4.6000000000000005,-20.3,3.1,5.2,13.6,-15.299999999999999,16
691,11635.0,-4.6000000000000005,-10.3,-1.3,2.6,-18.1,-1.0,-17.0,65.6,25.0,16
692,11652.0,-4.800000000000001,-5.6000000000000005,-0.5,2.6,-14.600000000000001,-1.9000000000000001,-103.00000000000001,-35.4,9.600000000000001,16
693,11669.0,-5.5,-3.0,0.8,1.7000000000000002,-10.200000000000001,-0.4,-164.79999999999998,-69.00000000000001,-37.300000000000004,16
694,11685.0,-7.2,0.4,3.8000000000000003,0.4,-7.0,1.8,-164.20000000000002,-8.4,-68.0,16
695,11702.0,-6.7,2.4000000000000004,8.700000000000001,0.2,-5.0,5.800000000000001,-116.0,40.6,-70.0,16
696,11719.0,-5.5,3.0,7.5,2.0,-3.6,6.0,-36.6,17.9,-62.7,16
697,11735.0,-3.1,4.7,3.6,4.1000000000000005,-2.1,2.7,13.100000000000001,-26.1,-68.7,16
698,11752.0,-2.0,5.4,2.4000000000000004,5.9,-0.5,0.7000000000000001,26.700000000000003,-49.699999999999996,-88.7,16
699,11768.0,-2.0,7.2,2.0,5.9,1.3,0.4,26.200000000000003,-45.5,-112.80000000000001,16
700,11785.0,-5.7,8.3,2.9000000000000004,2.9000000000000004,2.6,1.2000000000000002,28.0,-31.3,-102.7,16
701,11802.0,-6.7,7.300000000000001,3.7,1.1,1.2000000000000002,2.4000000000000004,43.900000000000006,-20.400000000000002,-50.0,16
702,11819.0,-8.1,4.5,4.1000000000000005,-0.2,-1.1,2.7,72.80000000000001,-23.400000000000002,-1.3,16
703,11835.0,-10.3,2.9000000000000004,4.1000000000000005,-2.1,-2.6,2.8000000000000003,92.50000000000001,-24.200000000000003,26.1,16
704,11852.0,-11.0,2.6,4.4,-3.4000000000000004,-3.4000000000000004,3.4000000000000004,97.60000000000001,-20.3,46.1,16
705,11869.0,-10.8,1.5,4.800000000000001,-3.4000000000000004,-4.5,3.8000000000000003,96.30000000000001,-33.2,61.50000000000001,16
706,11885.0,-7.1000000000000005,-0.8,0.8,-0.9,-6.5,0.8,97.60000000000001,-87.3,80.7,16
707,11902.0,-3.1,-3.3000000000000003,-8.1,8.0,-11.100000000000001,-16.900000000000002,63.900000000000006,-181.70000000000002,93.60000000000001,16
708,11918.0,34.7,-10.5,-35.800000000000004,41.6,-16.7,-37.9,-97.7,-228.10000000000002,28.0,16
709,11935.0,20.6,-8.8,-1.1,35.5,-15.4,-5.9,-84.9,148.60000000000002,-257.40000000000003,16
710,11952.0,5.9,0.5,-2.2,13.3,-2.3000000000000003,-4.5,-11.8,103.8,-244.90000000000003,16
711,11975.0,0.6000000000000001,8.3,-3.6,9.0,3.1,-5.300000000000001,12.600000000000001,23.3,-25.1,16
712,11986.0,-7.5,2.7,1.2000000000000002,2.1,-2.0,-0.9,61.50000000000001,46.300000000000004,49.300000000000004,16
713,12003.0,-9.600000000000001,-3.2,9.0,-1.8,-13.9,11.100000000000001,114.50000000000001,63.599999999999994,69.60000000000001,16
714,12018.0,-9.700000000000001,-8.1,11.700000000000001,-1.8,-13.9,11.100000000000001,160.0,71.10000000000001,96.7,16
715,12035.0,-5.7,-20.0,-4.3,0.9,-24.200000000000003,-1.1,113.3,3.0,139.1,16
716,12052.0,6.6000000000000005,-20.200000000000003,4.1000000000000005,14.5,-24.0,5.300000000000001,-69.60000000000001,-150.4,106.9,16
717,12069.0,1.0,-2.7,4.4,8.700000000000001,-9.4,3.7,-13.3,-2.4000000000000004,-48.2,16
718,12085.0,-6.4,4.2,-2.8000000000000003,2.4000000000000004,-2.9000000000000004,-3.6,11.3,135.4,-86.4,16
719,12102.0,-8.700000000000001,4.800000000000001,1.8,-1.2000000000000002,-1.8,2.6,-13.000000000000002,147.6,-38.60000000000001,16
720,12119.0,-7.800000000000001,1.8,5.1000000000000005,-0.30000000000000004,-4.6000000000000005,5.1000000000000005,-4.2,86.60000000000001,50.0,16
721,12135.0,-3.9000000000000004,-1.2000000000000002,4.800000000000001,2.7,-7.4,4.9,14.600000000000001,40.0,102.0,16
722,12152.0,-1.9000000000000001,-2.5,5.2,5.5,-9.700000000000001,5.5,35.699999999999996,-6.600000000000001,105.9,16
723,12168.0,-0.4,-3.8000000000000003,5.2,6.5,-10.8,5.4,63.10000000000001,-55.1,81.10000000000001,16
724,12185.0,0.2,-3.7,3.6,6.9,-11.0,4.2,86.4,-91.2,64.9,16
725,12202.0,0.9,-3.5,1.9000000000000001,7.9,-10.5,1.1,96.20000000000002,-91.7,59.1,16
726,12218.0,1.8,-0.4,-3.2,8.4,-8.0,-2.5,86.7,-2.4000000000000004,58.0,16
727,12236.0,0.5,3.2,-1.2000000000000002,7.1000000000000005,-4.9,-0.7000000000000001,66.7,112.0,68.0,16
728,12252.0,-0.30000000000000004,3.9000000000000004,-0.1,5.7,-3.7,1.5,50.900000000000006,152.9,78.10000000000001,16
729,12268.0,-1.6,4.1000000000000005,1.1,4.3,-3.7,2.8000000000000003,45.099999999999994,133.4,80.50000000000001,16
730,12286.0,-1.2000000000000002,4.1000000000000005,-1.0,4.4,-3.7,1.4000000000000001,49.4,96.1,73.6,16
731,12302.0,-1.4000000000000001,4.1000000000000005,-2.0,4.2,-3.8000000000000003,-0.1,42.1,56.50000000000001,55.0,16
732,12318.0,-0.8,3.0,-3.1,4.7,-4.800000000000001,-1.0,27.800000000000004,37.50000000000001,35.8,16
733,12335.0,0.6000000000000001,1.0,-3.0,5.800000000000001,-6.6000000000000005,-0.9,9.600000000000001,43.800000000000004,19.700000000000003,16
734,12352.0,1.3,0.30000000000000004,-2.4000000000000004,6.9,-7.6000000000000005,-0.1,-7.9,52.5,12.200000000000001,16
735,12368.0,2.5,0.2,-2.4000000000000004,7.800000000000001,-7.800000000000001,-0.1,-21.300000000000004,57.60000000000001,18.0,16
736,12385.0,2.9000000000000004,1.2000000000000002,-2.9000000000000004,8.0,-7.1000000000000005,-0.6000000000000001,-34.2,73.7,34.300000000000004,16
737,12402.0,2.9000000000000004,1.7000000000000002,-2.9000000000000004,8.0,-6.300000000000001,-0.6000000000000001,-43.4,94.80000000000001,51.300000000000004,16
738,12419.0,4.5,2.0,-2.7,9.3,-6.2,-0.4,-47.7,101.9,60.5,16
739,12438.0,7.2,1.7000000000000002,-3.1,11.5,-6.6000000000000005,-0.7000000000000001,-48.9,96.0,49.199999999999996,16
740,12452.0,7.9,2.2,-3.6,12.600000000000001,-6.0,-1.5,-50.900000000000006,85.4,27.2,16
741,12468.0,8.5,3.5,-4.3,13.100000000000001,-4.9,-2.2,-54.800000000000004,74.89999999999999,11.000000000000002,16
742,12487.0,10.3,3.8000000000000003,-4.3,14.600000000000001,-4.6000000000000005,-2.4000000000000004,-63.500000000000014,47.5,-1.5,16
743,12502.0,11.3,3.3000000000000003,-3.0,16.5,-5.300000000000001,-1.2000000000000002,-75.8,-10.600000000000001,-30.200000000000003,16
744,12518.0,11.9,1.4000000000000001,-3.8000000000000003,17.2,-6.800000000000001,-2.3000000000000003,-81.90000000000002,-79.5,-86.00000000000001,16
745,12535.0,8.9,-1.3,-5.4,15.5,-8.700000000000001,-4.5,-92.8,-76.7,-152.4,16
746,12552.0,7.1000000000000005,-3.2,-2.4000000000000004,13.0,-11.5,-0.9,-113.1,-93.7,-197.10000000000002,16
747,12569.0,4.3,-7.9,4.6000000000000005,11.3,-15.0,4.3,-100.4,-167.0,-211.20000000000005,16
748,12585.0,2.7,-10.3,6.5,10.200000000000001,-16.8,6.0,-53.9,-211.8,-190.0,16
749,12604.0,1.1,-14.200000000000001,3.6,7.6000000000000005,-22.400000000000002,3.2,14.600000000000001,20.7,-39.599999999999994,16
750,12619.0,0.1,-15.5,3.6,7.6000000000000005,-22.400000000000002,3.2,14.600000000000001,20.7,-39.599999999999994,16
751,12635.0,-4.3,-12.200000000000001,-1.7000000000000002,3.9000000000000004,-20.3,-0.30000000000000004,1.5,153.50000000000003,6.300000000000001,16
752,12653.0,-4.3,-9.4,-1.9000000000000001,3.0,-15.700000000000001,-2.1,-102.0,25.200000000000003,0.9000000000000001,16
753,12669.0,-5.6000000000000005,-3.5,1.5,2.0,-10.600000000000001,0.2,-184.3,-75.5,-45.7,16
754,12685.0,-8.0,0.30000000000000004,3.1,0.1,-7.1000000000000005,1.3,-184.9,-47.1,-70.7,16
755,12702.0,-8.700000000000001,1.6,5.7,-0.9,-4.800000000000001,4.7,-137.1,20.3,-58.3,16
756,12718.0,-6.0,3.2,7.1000000000000005,1.5,-3.4000000000000004,5.7,-48.300000000000004,29.600000000000005,-38.0,16
757,12735.0,-4.2,4.6000000000000005,3.6,3.3000000000000003,-2.0,2.7,17.0,-13.399999999999999,-49.6,16
758,12752.0,-3.3000000000000003,5.300000000000001,2.7,4.5,-0.7000000000000001,1.0,41.199999999999996,-55.400000000000006,-71.8,16
759,12768.0,-3.6,6.5,1.8,4.4,0.6000000000000001,0.30000000000000004,47.400000000000006,-65.10000000000001,-94.4,16
760,12785.0,-6.0,7.2,2.8000000000000003,2.6,1.4000000000000001,0.9,51.9,-39.2,-92.10000000000001,16
761,12802.0,-7.2,6.800000000000001,3.7,0.7000000000000001,1.0,2.3000000000000003,59.40000000000001,-22.9,-56.9,16
762,12818.0,-8.200000000000001,4.7,4.3,-0.2,-0.7000000000000001,2.9000000000000004,70.0,-26.000000000000004,-14.200000000000001,16
763,12835.0,-10.0,3.6,3.8000000000000003,-1.7000000000000002,-1.8,2.6,76.1,-21.400000000000002,10.1,16
764,12853.0,-10.9,3.2,3.8000000000000003,-3.3000000000000003,-2.7,2.8000000000000003,68.3,2.3,57.20000000000001,16
765,12868.0,-11.100000000000001,1.6,4.9,-3.6,-4.1000000000000005,3.8000000000000003,68.3,2.3,57.20000000000001,16
766,12885.0,-7.5,-1.2000000000000002,3.1,-1.3,-6.5,2.9000000000000004,72.50000000000001,-38.50000000000001,90.5,16
767,12902.0,-3.2,-4.2,-5.9,7.0,-11.8,-12.600000000000001,67.00000000000001,-145.5,115.39999999999999,16
768,12918.0,34.7,-11.600000000000001,-30.200000000000003,39.5,-17.7,-31.900000000000002,-45.3,-211.1,57.60000000000001,16
769,12937.0,22.900000000000002,-9.200000000000001,-5.2,38.5,-16.3,-8.700000000000001,-40.300000000000004,160.9,-228.00000000000003,16
770,12952.0,8.1,1.5,-3.6,15.5,-1.7000000000000002,-4.9,-26.200000000000003,173.0,-265.5,16
771,12969.0,1.9000000000000001,9.8,-2.7,10.600000000000001,4.7,-4.0,-29.800000000000004,50.5,-45.400000000000006,16
772,12991.0,-5.1000000000000005,0.6000000000000001,2.3000000000000003,4.800000000000001,-3.1,0.4,31.7,40.5,41.1,16
773,13002.0,-6.300000000000001,-2.9000000000000004,6.800000000000001,2.1,-9.4,7.300000000000001,115.7,46.4,58.0,16
774,13018.0,-5.800000000000001,-11.3,9.4,2.3000000000000003,-16.8,9.4,191.8,30.200000000000003,87.50000000000001,16
775,13035.0,0.0,-18.400000000000002,-6.5,5.9,-23.700000000000003,-4.2,119.8,-30.5,128.0,16
776,13052.0,3.2,-12.100000000000001,2.1,9.600000000000001,-16.6,2.7,-66.80000000000001,-119.89999999999999,83.80000000000001,16
777,13068.0,-7.2,0.5,4.6000000000000005,0.9,-6.5,4.5,-29.1,18.0,11.2,16
778,13085.0,-9.600000000000001,2.0,0.1,-1.6,-4.6000000000000005,0.0,13.8,119.20000000000002,22.700000000000003,16
779,13102.0,-8.9,1.5,3.1,-1.2000000000000002,-5.4,3.6,16.900000000000002,146.1,53.599999999999994,16
780,13118.0,-6.2,0.1,4.2,0.8,-6.6000000000000005,4.7,23.800000000000004,91.4,74.10000000000001,16
781,13135.0,-3.7,-1.3,4.1000000000000005,2.9000000000000004,-8.0,4.5,23.3,28.900000000000002,71.6,16
782,13152.0,-2.7,-2.1,4.3,4.5,-9.3,4.9,21.500000000000004,-22.6,60.400000000000006,16
783,13169.0,-0.8,-3.1,4.5,5.9,-10.3,4.9,21.7,-76.4,53.400000000000006,16
784,13187.0,1.0,-3.1,3.5,7.300000000000001,-10.5,4.1000000000000005,26.1,-101.9,53.7,16
785,13202.0,1.6,-2.5,2.7,8.200000000000001,-9.700000000000001,2.8000000000000003,31.7,-85.20000000000002,54.800000000000004,16
786,13218.0,1.7000000000000002,1.3,-1.4000000000000001,8.1,-6.5,-0.6000000000000001,40.5,-21.400000000000002,56.7,16
787,13235.0,0.4,4.800000000000001,-1.8,7.0,-3.4000000000000004,-1.8,36.9,115.3,65.6,16
788,13252.0,-0.1,5.2,0.2,5.9,-2.6,1.6,28.900000000000002,194.00000000000003,75.4,16
789,13268.0,-0.2,5.2,1.6,5.7,-2.6,3.1,29.600000000000005,161.4,71.5,16
790,13285.0,-0.2,4.9,-0.7000000000000001,5.6000000000000005,-2.9000000000000004,1.6,31.9,93.89999999999999,51.6,16
791,13302.0,0.0,4.4,-1.9000000000000001,5.800000000000001,-3.7,-0.30000000000000004,26.300000000000004,50.5,30.000000000000004,16
792,13318.0,2.0,1.8,-4.0,7.4,-5.9,-2.0,14.100000000000001,54.1,13.900000000000002,16
793,13335.0,2.4000000000000004,0.8,-2.8000000000000003,8.0,-7.0,-1.3,-4.1,86.7,7.6,16
794,13352.0,2.2,1.0,-2.3000000000000003,7.6000000000000005,-6.800000000000001,-0.2,-16.700000000000003,94.0,24.0,16
795,13368.0,1.6,1.8,-2.5,6.9,-6.2,-0.30000000000000004,-21.8,82.9,49.1,16
796,13388.0,1.8,2.0,-2.9000000000000004,6.800000000000001,-6.1000000000000005,-0.6000000000000001,-21.8,78.7,60.400000000000006,16
797,13405.0,3.2,1.1,-2.7,9.200000000000001,-8.0,-0.6000000000000001,-19.6,60.6,46.1,16
798,13420.0,4.6000000000000005,0.1,-2.8000000000000003,9.200000000000001,-8.0,-0.6000000000000001,-19.6,60.6,46.1,16
799,13435.0,6.2,-0.7000000000000001,-3.2,10.700000000000001,-8.9,-0.9,-16.900000000000002,44.4,27.0,16
800,13452.0,6.4,0.0,-3.2,11.200000000000001,-8.1,-0.9,-19.5,26.5,19.300000000000004,16
801,13469.0,7.9,1.8,-2.5,12.5,-6.7,-0.4,-25.900000000000002,-0.2,25.8,16
802,13485.0,10.100000000000001,3.2,-2.5,14.5,-5.6000000000000005,-0.5,-28.800000000000004,-28.700000000000003,21.0,16
803,13502.0,10.9,3.5,-2.4000000000000004,16.1,-4.9,-0.7000000000000001,-31.799999999999997,-46.800000000000004,-4.0,16
804,13519.0,12.0,2.0,-3.5,17.2,-6.1000000000000005,-1.9000000000000001,-40.800000000000004,-57.3,-48.800000000000004,16
805,13535.0,9.5,-0.30000000000000004,-5.7,15.9,-7.9,-3.9000000000000004,-63.500000000000014,-45.7,-101.6,16
806,13552.0,7.800000000000001,-1.1,-6.2,13.5,-9.3,-4.9,-105.3,-41.900000000000006,-143.0,16
807,13568.0,4.800000000000001,-4.4,0.2,11.5,-11.700000000000001,-0.1,-149.50000000000003,-95.1,-168.70000000000002,16
808,13585.0,1.8,-7.6000000000000005,6.5,9.5,-14.3,5.1000000000000005,-132.3,-157.60000000000002,-178.9,16
809,13602.0,0.5,-8.4,6.800000000000001,7.6000000000000005,-15.8,5.9,-72.50000000000001,-192.40000000000003,-152.4,16
810,13619.0,-0.1,-11.3,4.3,7.2,-18.1,3.6,-17.400000000000002,-136.6,-88.60000000000001,16
811,13635.0,-2.7,-11.5,3.6,5.4,-19.0,3.1,13.399999999999999,25.300000000000004,-23.099999999999998,16
812,13652.0,-3.4000000000000004,-9.5,0.1,3.9000000000000004,-16.400000000000002,-0.6000000000000001,4.1,123.9,14.900000000000002,16
813,13669.0,-3.2,-5.1000000000000005,-0.5,4.2,-12.700000000000001,-1.4000000000000001,-89.4,1.9,-14.200000000000001,16
814,13685.0,-5.800000000000001,-1.3,1.3,2.2,-9.0,-0.2,-154.00000000000003,-68.2,-65.8,16
815,13703.0,-7.2,-0.1,3.5,0.2,-6.7,2.6,-160.70000000000002,-26.9,-81.8,16
816,13718.0,-5.9,1.7000000000000002,9.1,1.4000000000000001,-5.0,7.2,-102.2,3.6000000000000005,-65.5,16
817,13735.0,-3.3000000000000003,3.6,5.300000000000001,3.7,-3.3000000000000003,4.9,-12.0,-27.3,-64.0,16
818,13752.0,-2.0,4.4,2.8000000000000003,5.9,-1.7000000000000002,0.9,39.9,-60.6,-80.9,16
819,13769.0,-2.2,5.800000000000001,1.5,5.800000000000001,-0.2,-0.2,49.300000000000004,-63.4,-106.60000000000001,16
820,13785.0,-5.4,6.800000000000001,3.2,3.5,0.9,1.0,49.9,-59.20000000000001,-105.20000000000002,16
821,13802.0,-6.300000000000001,6.5,4.1000000000000005,1.7000000000000002,0.7000000000000001,2.5,60.2,-61.7,-66.5,16
822,13819.0,-7.5,3.9000000000000004,4.7,0.6000000000000001,-1.4000000000000001,3.0,84.80000000000001,-56.300000000000004,-27.800000000000004,16
823,13835.0,-10.3,2.2,4.6000000000000005,-1.7000000000000002,-3.0,3.0,104.3,-40.9,-7.200000000000001,16
824,13852.0,-11.5,1.6,4.5,-3.9000000000000004,-4.1000000000000005,3.0,105.4,-24.7,13.700000000000001,16
825,13868.0,-12.9,1.4000000000000001,4.3,-5.2,-4.4,3.1,92.50000000000001,-7.500000000000001,35.599999999999994,16
826,13885.0,-12.3,1.3,4.3,-5.2,-4.5,3.2,87.60000000000001,7.500000000000001,59.300000000000004,16
827,13904.0,-10.5,0.5,3.6,-2.9000000000000004,-6.0,2.3000000000000003,93.00000000000001,-3.0,94.7,16
828,13918.0,-4.0,-4.4,-6.5,2.2,-10.4,-6.300000000000001,86.3,-76.60000000000001,127.00000000000003,16
829,13935.0,40.2,-16.0,-40.6,31.400000000000002,-20.1,-40.0,-58.900000000000006,-234.50000000000003,101.50000000000001,16
830,13952.0,46.5,-16.400000000000002,-7.300000000000001,50.900000000000006,-21.5,-7.7,-133.70000000000002,133.4,-173.9,16
831,13969.0,6.800000000000001,4.0,0.0,18.400000000000002,-4.0,-1.1,-24.599999999999998,258.8,-339.7,16
832,13986.0,1.1,12.700000000000001,0.0,10.4,8.3,-1.5,-9.100000000000001,71.10000000000001,-93.2,16
833,14002.0,-1.4000000000000001,5.7,2.3000000000000003,6.6000000000000005,-0.5,1.5,33.800000000000004,16.4,64.80000000000001,16
834,14018.0,-5.6000000000000005,-2.0,7.7,2.9000000000000004,-7.2,6.4,106.1,27.3,81.8,16
835,14036.0,-5.7,-9.5,8.8,1.7000000000000002,-13.3,9.700000000000001,179.1,28.600000000000005,98.2,16
836,14052.0,-5.2,-14.9,0.30000000000000004,2.9000000000000004,-21.900000000000002,-0.6000000000000001,175.60000000000002,-2.4000000000000004,127.1,16
837,14069.0,3.0,-13.8,1.0,9.5,-21.400000000000002,-0.7000000000000001,-9.4,-125.50000000000001,116.2,16
838,14085.0,-5.9,0.2,3.7,3.7,-9.200000000000001,4.2,-31.0,-27.6,25.300000000000004,16
839,14102.0,-6.9,2.5,0.0,0.4,-4.2,-0.1,17.7,76.1,-1.0,16
840,14118.0,-8.3,3.3000000000000003,1.9000000000000001,-0.9,-3.5,1.7000000000000002,25.1,110.0,13.8,16
841,14135.0,-5.7,1.1,3.5,0.5,-5.2,3.8000000000000003,35.4,83.5,45.3,16
842,14152.0,-4.2,0.1,3.3000000000000003,3.0,-7.0,3.9000000000000004,39.9,29.0,59.60000000000001,16
843,14169.0,-2.3000000000000003,-1.4000000000000001,3.7,4.4,-8.4,4.1000000000000005,34.0,-28.700000000000003,56.2,16
844,14185.0,-1.0,-2.3000000000000003,3.6,5.300000000000001,-9.4,4.0,30.1,-72.50000000000001,57.49999999999999,16
845,14202.0,0.1,-2.7,3.3000000000000003,6.800000000000001,-10.100000000000001,3.6,33.2,-90.5,63.0,16
846,14219.0,1.2000000000000002,-1.9000000000000001,1.7000000000000002,7.6000000000000005,-9.600000000000001,2.3000000000000003,42.800000000000004,-74.60000000000001,60.300000000000004,16
847,14235.0,0.9,-0.1,-0.6000000000000001,7.1000000000000005,-6.7,-0.30000000000000004,51.50000000000001,-4.5,57.49999999999999,16
848,14252.0,-0.2,3.5,0.2,5.9,-4.2,1.2000000000000002,56.400000000000006,86.8,66.9,16
849,14269.0,-1.2000000000000002,4.5,2.0,4.800000000000001,-3.4000000000000004,3.1,65.4,101.20000000000002,76.5,16
850,14285.0,-0.5,4.4,1.3,5.0,-3.4000000000000004,3.1,78.9,68.80000000000001,72.7,16
851,14302.0,-0.1,4.5,0.30000000000000004,5.6000000000000005,-3.4000000000000004,1.9000000000000001,88.9,22.9,50.3,16
852,14318.0,-0.6000000000000001,4.0,-3.5,5.1000000000000005,-3.7,-1.0,87.00000000000001,-4.9,23.900000000000006,16
853,14335.0,1.4000000000000001,0.6000000000000001,-6.2,6.300000000000001,-6.2,-4.1000000000000005,61.599999999999994,52.400000000000006,16.1,16
854,14352.0,2.3000000000000003,-0.4,-3.8000000000000003,7.9,-8.200000000000001,-1.2000000000000002,20.0,130.5,14.100000000000001,16
855,14370.0,2.9000000000000004,-0.30000000000000004,-1.2000000000000002,8.200000000000001,-8.200000000000001,1.1,-8.899999999999999,121.2,17.7,16
856,14385.0,2.2,1.0,-2.4000000000000004,7.7,-7.300000000000001,0.6000000000000001,-25.4,80.50000000000001,29.400000000000002,16
857,14402.0,2.2,1.4000000000000001,-3.3000000000000003,7.300000000000001,-6.6000000000000005,-1.0,-37.0,68.1,40.4,16
858,14418.0,2.9000000000000004,1.4000000000000001,-3.9000000000000004,7.800000000000001,-6.7,-1.5,-46.50000000000001,90.30000000000001,44.10000000000001,16
859,14437.0,4.6000000000000005,0.8,-3.7,8.9,-7.2,-1.3,-52.1,105.20000000000002,41.1,16
860,14452.0,5.5,0.4,-3.4000000000000004,10.3,-7.800000000000001,-0.9,-56.300000000000004,96.80000000000001,33.1,16
861,14469.0,6.800000000000001,1.0,-2.0,11.4,-7.4,0.1,-57.9,56.6,24.1,16
862,14485.0,7.9,2.9000000000000004,-1.6,12.3,-6.0,0.6000000000000001,-47.900000000000006,0.4,14.400000000000002,16
863,14502.0,8.8,3.5,-2.6,13.700000000000001,-4.800000000000001,-0.7000000000000001,-27.5,-41.50000000000001,2.0,16
864,14518.0,10.3,3.5,-4.6000000000000005,15.100000000000001,-4.7,-2.6,-18.3,-43.900000000000006,-17.6,16
865,14536.0,10.8,1.3,-4.7,16.0,-6.1000000000000005,-2.9000000000000004,-36.1,-47.2,-51.70000000000001,16
866,14552.0,10.0,0.1,-5.4,15.5,-8.0,-4.1000000000000005,-67.60000000000001,-59.40000000000001,-102.8,16
867,14569.0,6.7,-1.1,-3.9000000000000004,13.3,-8.8,-3.5,-107.7,-65.4,-150.2,16
868,14585.0,3.7,-4.7,2.3000000000000003,11.0,-10.9,1.0,-128.3,-116.69999999999999,-176.7,16
869,14602.0,2.6,-7.0,4.9,9.5,-14.3,4.9,-101.80000000000001,-176.00000000000003,-185.4,16
870,14618.0,1.4000000000000001,-10.3,6.2,8.700000000000001,-16.8,5.7,-44.10000000000001,-203.29999999999998,-159.6,16
871,14636.0,0.4,-14.4,3.9000000000000004,8.1,-20.1,3.8000000000000003,3.0,-128.4,-94.5,16
872,14652.0,-1.8,-15.3,3.2,5.4,-22.200000000000003,2.5,22.3,59.40000000000001,-13.700000000000001,16
873,14668.0,-4.2,-11.200000000000001,-1.3,3.1,-19.1,-1.5,-35.5,105.3,35.0,16
874,14686.0,-5.2,-5.2,0.8,2.5,-14.200000000000001,-1.0,-142.60000000000002,-15.8,7.1000000000000005,16
875,14702.0,-6.2,-2.6,0.8,1.1,-9.5,-0.5,-194.5,-51.2,-45.8,16
876,14719.0,-8.0,0.7000000000000001,4.2,-0.30000000000000004,-6.5,1.9000000000000001,-184.6,19.5,-74.4,16
877,14735.0,-7.2,2.8000000000000003,8.5,-0.2,-4.3,6.4,-116.4,54.1,-72.50000000000001,16
878,14752.0,-5.7,3.8000000000000003,6.9,2.0,-2.6,5.2,-25.1,15.6,-63.30000000000001,16
879,14769.0,-3.7,5.4,3.1,3.8000000000000003,-1.1,2.1,28.200000000000003,-33.1,-67.5,16
880,14786.0,-3.1,6.800000000000001,1.5,4.7,0.4,0.30000000000000004,45.0,-42.800000000000004,-78.9,16
881,14802.0,-3.6,7.5,1.8,4.3,1.7000000000000002,0.5,46.4,-21.7,-86.60000000000001,16
882,14818.0,-6.0,7.5,3.2,2.3000000000000003,1.9000000000000001,1.6,45.6,-11.900000000000002,-71.0,16
883,14835.0,-7.800000000000001,4.7,3.9000000000000004,0.7000000000000001,-0.1,2.5,51.800000000000004,-18.3,-30.799999999999997,16
884,14852.0,-8.9,3.7,3.6,-1.2000000000000002,-2.0,2.5,66.1,-17.9,4.2,16
885,14870.0,-11.100000000000001,2.6,3.6,-3.1,-3.0,2.5,73.2,-4.1,32.7,16
886,14885.0,-11.600000000000001,1.5,4.1000000000000005,-4.1000000000000005,-4.0,3.0,72.80000000000001,6.500000000000001,58.400000000000006,16
887,14902.0,-11.100000000000001,0.8,4.2,-3.7,-5.4,3.3000000000000003,71.19999999999999,-8.600000000000001,85.9,16
888,14918.0,-5.5,-3.0,-3.9000000000000004,0.4,-8.8,-3.2,67.2,-98.39999999999999,118.00000000000001,16
889,14935.0,32.7,-11.5,-35.5,23.1,-15.600000000000001,-30.6,-11.1,-249.10000000000002,110.10000000000001,16
890,14952.0,46.6,-13.8,-9.9,53.1,-19.8,-11.100000000000001,-85.20000000000002,-0.2,-117.5,16
891,14968.0,9.700000000000001,-0.5,-3.3000000000000003,23.5,-9.1,-4.6000000000000005,-8.5,222.8,-345.2,16
892,14986.0,0.4,12.700000000000001,-3.7,10.5,6.800000000000001,-4.9,-34.400000000000006,92.90000000000002,-150.3,16
893,15002.0,-2.9000000000000004,7.0,-1.8,5.4,1.4000000000000001,-2.8000000000000003,-29.800000000000004,61.8,38.50000000000001,16
894,15018.0,-7.7,-1.4000000000000001,4.800000000000001,1.0,-5.9,2.7,39.9,82.10000000000001,75.00000000000001,16
895,15035.0,-6.9,-12.100000000000001,13.200000000000001,0.8,-14.4,12.600000000000001,150.1,61.8,89.30000000000001,16
896,15052.0,-5.1000000000000005,-19.700000000000003,1.8,3.0,-26.3,1.2000000000000002,213.3,-1.1,138.10000000000002,16
897,15068.0,6.0,-15.4,2.4000000000000004,12.200000000000001,-24.400000000000002,-0.30000000000000004,15.100000000000001,-154.9,135.6,16
898,15089.0,-5.2,1.3,2.7,5.2,-8.700000000000001,4.7,-25.900000000000002,-46.1,26.400000000000006,16
899,15102.0,-7.2,4.4,-2.1,0.30000000000000004,-2.2,-2.1,14.100000000000001,97.8,-9.700000000000001,16
900,15118.0,-10.600000000000001,5.5,2.4000000000000004,-2.8000000000000003,-1.1,1.8,2.2,143.0,15.399999999999999,16
901,15135.0,-6.6000000000000005,2.0,3.6,-0.9,-3.8000000000000003,4.1000000000000005,9.3,113.00000000000001,63.500000000000014,16
902,15152.0,-4.9,0.6000000000000001,3.6,2.2,-6.4,4.2,15.899999999999999,57.699999999999996,81.4,16
903,15168.0,-2.4000000000000004,-2.5,4.4,4.1000000000000005,-9.200000000000001,4.9,19.700000000000003,1.1,69.80000000000001,16
904,15186.0,-0.2,-4.3,4.4,5.9,-11.100000000000001,5.0,24.8,-55.60000000000001,55.3,16
905,15202.0,0.8,-4.7,4.2,7.5,-12.100000000000001,4.6000000000000005,30.799999999999997,-93.7,47.0,16
906,15218.0,2.0,-3.8000000000000003,2.6,8.5,-11.5,3.3000000000000003,35.9,-93.7,45.0,16
907,15235.0,1.1,2.0,-2.9000000000000004,7.800000000000001,-7.7,-0.2,41.4,-36.1,51.6,16
908,15252.0,0.5,4.2,-2.4000000000000004,6.7,-3.5,-1.5,41.300000000000004,97.7,70.2,16
909,15268.0,-1.0,5.300000000000001,1.3,5.2,-2.6,2.1,40.6,172.9,86.4,16
910,15286.0,-0.8,4.9,1.5,4.800000000000001,-2.8000000000000003,3.5,49.300000000000004,152.8,87.2,16
911,15302.0,-0.2,4.800000000000001,0.5,5.4,-3.1,2.3000000000000003,57.9,95.80000000000001,68.2,16
912,15318.0,-0.30000000000000004,4.2,-2.6,5.2,-3.6,0.0,54.199999999999996,38.1,37.50000000000001,16
913,15335.0,1.8,1.2000000000000002,-6.1000000000000005,6.4,-5.6000000000000005,-3.4000000000000004,35.5,38.7,17.9,16
914,15352.0,2.8000000000000003,0.2,-4.3,8.200000000000001,-7.7,-1.9000000000000001,1.6,93.3,4.9,16
915,15368.0,2.8000000000000003,0.6000000000000001,-1.0,8.200000000000001,-7.5,1.0,-19.1,89.5,10.0,16
916,15386.0,2.5,1.7000000000000002,-1.8,7.800000000000001,-6.6000000000000005,0.9,-24.5,54.9,34.50000000000001,16
917,15402.0,2.5,2.0,-3.0,7.6000000000000005,-6.1000000000000005,-0.7000000000000001,-23.5,45.2,54.50000000000001,16
918,15418.0,2.8000000000000003,2.2,-4.4,7.6000000000000005,-6.0,-1.9000000000000001,-24.8,75.5,58.5,16
919,15435.0,4.3,1.5,-3.5,8.4,-6.5,-1.5,-33.400000000000006,98.10000000000001,53.50000000000001,16
920,15452.0,5.5,1.0,-2.9000000000000004,10.100000000000001,-7.300000000000001,-0.6000000000000001,-43.300000000000004,82.50000000000001,41.0,16
921,15468.0,7.5,1.2000000000000002,-2.8000000000000003,11.8,-7.300000000000001,-0.5,-47.60000000000001,43.50000000000001,26.6,16
922,15485.0,8.3,2.1,-2.4000000000000004,13.200000000000001,-6.0,-0.30000000000000004,-45.5,8.0,14.400000000000002,16
923,15502.0,10.100000000000001,3.9000000000000004,-3.5,14.8,-4.5,-1.6,-35.3,-16.4,1.0,16
924,15518.0,11.0,4.1000000000000005,-5.6000000000000005,15.8,-4.2,-3.6,-36.5,-9.8,-20.0,16
925,15535.0,10.0,1.5,-6.300000000000001,15.5,-5.7,-4.2,-64.0,-25.1,-55.1,16
926,15552.0,8.8,0.2,-6.800000000000001,14.3,-7.9,-5.7,-106.60000000000001,-54.9,-106.0,16
927,15568.0,5.1000000000000005,-0.7000000000000001,-1.3,11.700000000000001,-8.5,-1.8,-143.3,-81.50000000000001,-151.9,16
928,15585.0,4.1000000000000005,-2.5,1.4000000000000001,10.700000000000001,-11.200000000000001,2.1,-134.8,-149.50000000000003,-183.4,16
929,15602.0,5.1000000000000005,-8.9,6.1000000000000005,12.100000000000001,-16.1,5.6000000000000005,-82.60000000000001,-195.5,-215.0,16
930,15618.0,3.9000000000000004,-13.0,5.6000000000000005,11.5,-19.200000000000003,5.2,-24.5,-217.80000000000004,-207.20000000000002,16
931,15635.0,3.0,-15.5,3.9000000000000004,10.0,-23.0,2.8000000000000003,1.2000000000000002,-105.7,-117.7,16
932,15652.0,-1.1,-17.1,1.9000000000000001,6.4,-24.0,1.4000000000000001,0.9000000000000001,153.3,3.3000000000000007,16
933,15668.0,-3.7,-9.5,1.0,3.7,-18.0,-0.1,-77.80000000000001,163.29999999999998,41.900000000000006,16
934,15685.0,-4.3,-5.7,2.3000000000000003,2.8000000000000003,-11.700000000000001,1.2000000000000002,-159.5,-11.900000000000002,-3.1,16
935,15702.0,-5.9,-0.4,1.4000000000000001,1.5,-7.300000000000001,-0.1,-184.20000000000002,-80.10000000000001,-57.800000000000004,16
936,15722.0,-7.2,2.2,5.7,0.5,-4.800000000000001,2.9000000000000004,-157.9,-25.6,-82.50000000000001,16
937,15735.0,-5.800000000000001,2.9000000000000004,6.4,2.2,-3.2,4.4,-77.00000000000001,5.6,-85.69999999999999,16
938,15753.0,-5.800000000000001,2.9000000000000004,6.4,2.2,-3.2,4.4,-77.00000000000001,5.6,-85.69999999999999,16
939,15768.0,-4.4,5.5,3.3000000000000003,3.6,-0.7000000000000001,1.8,52.2,-31.799999999999997,-95.5,16
940,15785.0,-4.9,6.0,3.2,3.0,0.4,1.5,74.60000000000001,-58.400000000000006,-87.40000000000002,16
941,15802.0,-5.5,6.7,2.8000000000000003,2.5,1.1,1.1,81.4,-78.60000000000001,-66.2,16
942,15819.0,-6.6000000000000005,5.300000000000001,3.8000000000000003,1.7000000000000002,0.1,1.9000000000000001,78.7,-77.5,-40.1,16
943,15835.0,-7.5,4.3,4.6000000000000005,0.0,-1.4000000000000001,3.0,82.7,-68.2,-19.300000000000004,16
944,15852.0,-10.4,3.3000000000000003,4.5,-2.5,-2.2,2.9000000000000004,89.9,-53.10000000000001,1.2000000000000002,16
945,15868.0,-12.700000000000001,3.5,4.4,-4.6000000000000005,-2.3000000000000003,2.9000000000000004,85.0,-20.400000000000002,28.800000000000004,16
946,15885.0,-13.100000000000001,3.4000000000000004,4.7,-5.4,-2.6,3.6,78.60000000000001,11.1,57.20000000000001,16
947,15902.0,-11.600000000000001,2.3000000000000003,5.5,-4.4,-3.7,4.4,84.80000000000001,14.900000000000002,83.60000000000001,16
948,15918.0,-5.9,-1.4000000000000001,-0.8,-0.2,-6.9,-0.2,94.7,-56.2,112.0,16
949,15935.0,0.2,-5.800000000000001,-15.9,15.0,-14.600000000000001,-26.0,43.2,-153.50000000000003,112.80000000000001,16
950,15953.0,49.6,-18.3,-20.8,56.7,-24.400000000000002,-22.900000000000002,-130.4,-72.10000000000001,-62.6,16
951,15970.0,14.8,-6.7,-4.3,31.6,-16.5,-5.6000000000000005,-52.7,255.0,-362.70000000000005,16
952,15986.0,4.7,10.4,-3.9000000000000004,12.200000000000001,6.800000000000001,-5.0,-40.2,119.30000000000003,-197.00000000000003,16
953,16002.0,-2.1,9.600000000000001,-0.8,6.4,4.5,-2.0,-8.0,40.0,44.2,16
954,16019.0,-8.5,2.5,4.800000000000001,0.7000000000000001,-2.1,2.9000000000000004,78.9,28.3,96.60000000000001,16
955,16035.0,-9.1,0.6000000000000001,10.600000000000001,-1.3,-6.4,11.100000000000001,167.3,32.0,112.60000000000001,16
956,16052.0,-7.4,-8.5,11.600000000000001,0.30000000000000004,-14.600000000000001,11.8,240.8,24.200000000000003,140.5,16
957,16069.0,1.5,-20.1,-12.700000000000001,6.7,-24.400000000000002,-6.7,146.60000000000002,-88.50000000000001,132.70000000000002,16
958,16085.0,7.6000000000000005,-19.1,-5.0,13.200000000000001,-23.3,-2.2,-122.39999999999999,-205.4,36.8,16
959,16102.0,-3.6,-4.800000000000001,3.1,4.2,-11.600000000000001,2.7,-85.0,90.1,-45.3,16
960,16119.0,-7.0,1.6,-1.7000000000000002,1.7000000000000002,-5.9,-3.0,-41.1,211.60000000000002,-40.6,16
961,16135.0,-9.8,3.4000000000000004,4.0,-2.3000000000000003,-3.0,4.5,-24.3,190.50000000000003,1.4,16
962,16152.0,-8.8,3.3000000000000003,4.4,-1.5,-3.4000000000000004,4.9,15.8,108.50000000000001,70.7,16
963,16168.0,-4.7,0.6000000000000001,4.4,1.7000000000000002,-5.800000000000001,4.9,36.300000000000004,45.5,103.49999999999999,16
964,16185.0,-3.2,-1.1,5.300000000000001,4.0,-8.6,6.2,49.199999999999996,-20.599999999999998,97.8,16
965,16202.0,-1.0,-3.2,5.6000000000000005,5.7,-10.4,6.300000000000001,65.6,-108.10000000000001,76.7,16
966,16218.0,1.5,-4.4,4.1000000000000005,7.800000000000001,-11.600000000000001,5.0,79.9,-169.0,55.0,16
967,16235.0,2.1,-4.2,2.7,8.6,-11.200000000000001,2.8000000000000003,84.3,-155.5,42.0,16
968,16251.0,1.4000000000000001,-0.2,0.4,8.0,-7.800000000000001,1.0,79.5,-65.2,48.0,16
969,16268.0,-0.30000000000000004,4.4,-2.3000000000000003,6.5,-4.0,-1.1,70.4,43.6,58.1,16
970,16285.0,-1.2000000000000002,5.1000000000000005,-1.2000000000000002,4.9,-2.5,0.4,57.1,143.4,70.3,16
971,16302.0,-1.0,5.1000000000000005,0.0,4.9,-2.6,1.7000000000000002,49.1,170.50000000000003,74.10000000000001,16
972,16318.0,-0.6000000000000001,4.7,-1.2000000000000002,5.1000000000000005,-3.0,1.1,42.0,135.0,58.3,16
973,16335.0,-1.2000000000000002,4.4,-3.1,4.5,-3.8000000000000003,-1.4000000000000001,26.6,100.80000000000001,41.300000000000004,16
974,16352.0,0.5,1.8,-3.9000000000000004,5.9,-6.0,-1.7000000000000002,-3.8,107.7,34.50000000000001,16
975,16368.0,2.5,0.6000000000000001,-1.4000000000000001,7.6000000000000005,-7.2,0.5,-28.200000000000003,99.5,22.3,16
976,16385.0,2.5,0.9,-1.6,7.800000000000001,-7.0,0.4,-38.60000000000001,72.50000000000001,21.0,16
977,16402.0,2.9000000000000004,1.4000000000000001,-4.0,8.0,-6.6000000000000005,-1.6,-43.4,79.6,38.400000000000006,16
978,16418.0,3.6,1.7000000000000002,-3.6,8.4,-6.6000000000000005,-1.6,-48.50000000000001,120.80000000000001,54.4,16
979,16435.0,4.3,1.6,-2.4000000000000004,9.4,-6.7,0.1,-49.0,123.00000000000001,58.3,16
980,16452.0,6.800000000000001,1.3,-2.3000000000000003,11.3,-7.0,0.1,-39.8,84.80000000000001,48.10000000000001,16
981,16468.0,8.200000000000001,1.9000000000000001,-3.4000000000000004,12.600000000000001,-6.6000000000000005,-0.8,-26.000000000000004,58.0,30.799999999999997,16
982,16486.0,8.6,2.5,-3.5,13.4,-5.7,-1.2000000000000002,-17.799999999999997,36.5,18.5,16
983,16501.0,9.8,3.2,-3.4000000000000004,14.4,-5.2,-1.2000000000000002,-16.6,0.0,7.6,16
984,16518.0,10.600000000000001,2.6,-3.4000000000000004,15.3,-5.6000000000000005,-1.4000000000000001,-24.1,-41.800000000000004,-15.700000000000001,16
985,16535.0,10.5,1.6,-3.2,15.5,-7.0,-1.6,-36.9,-75.60000000000001,-53.8,16
986,16552.0,9.3,-1.0,-4.7,14.8,-9.0,-3.1,-49.6,-80.60000000000001,-101.7,16
987,16568.0,7.4,-3.0,-5.2,13.8,-10.5,-4.1000000000000005,-76.89999999999999,-73.9,-143.5,16
988,16585.0,6.2,-4.1000000000000005,-3.1,12.4,-12.3,-1.6,-115.39999999999999,-110.80000000000001,-171.8,16
989,16602.0,3.3000000000000003,-7.5,3.7,10.3,-14.700000000000001,3.5,-119.89999999999999,-161.5,-185.7,16
990,16619.0,0.6000000000000001,-9.200000000000001,6.4,8.1,-15.9,5.9,-73.5,-193.70000000000002,-157.60000000000002,16
991,16635.0,0.6000000000000001,-11.0,5.0,7.7,-18.6,4.0,-24.0,-156.4,-93.89999999999999,16
992,16652.0,-1.8,-13.8,3.1,5.7,-20.8,2.7,1.3,5.4,-25.0,16
993,16668.0,-5.6000000000000005,-11.4,-1.9000000000000001,2.0,-19.400000000000002,-1.6,-30.9,111.4,25.900000000000002,16
994,16685.0,-5.2,-8.9,-1.5,1.9000000000000001,-15.5,-2.0,-134.8,7.0,25.7,16
995,16702.0,-6.0,-2.9000000000000004,1.3,1.2000000000000002,-10.4,-0.2,-200.60000000000002,-55.3,-23.2,16
996,16718.0,-7.7,0.8,4.7,0.0,-6.9,1.9000000000000001,-192.2,4.300000000000001,-62.1,16
997,16737.0,-7.0,3.0,10.3,2.0,-2.8000000000000003,7.300000000000001,-31.0,4.300000000000001,-62.900000000000006,16
998,16752.0,-5.4,3.9000000000000004,8.8,2.0,-2.8000000000000003,7.300000000000001,-31.0,4.300000000000001,-62.900000000000006,16
999,16768.0,-2.8000000000000003,5.9,3.1,4.3,-1.0,2.5,29.300000000000004,-59.80000000000001,-72.10000000000001,16
1000,16788.0,-2.1,7.7,1.3,5.2,2.4000000000000004,0.2,31.7,-47.7,-107.19999999999999,16
1001,16802.0,-2.7,8.4,2.1,5.2,2.4000000000000004,0.2,31.7,-47.7,-107.19999999999999,16
1002,16818.0,-5.6000000000000005,8.1,4.1000000000000005,2.8000000000000003,2.6,1.9000000000000001,29.600000000000005,-36.2,-89.2,16
1003,16835.0,-6.2,6.4,4.7,1.6,0.30000000000000004,2.9000000000000004,45.3,-38.50000000000001,-43.6,16
1004,16851.0,-8.200000000000001,3.7,4.6000000000000005,-0.30000000000000004,-1.8,2.9000000000000004,73.4,-32.0,-10.5,16
1005,16868.0,-10.9,2.3000000000000003,4.7,-2.7,-3.2,3.2,89.70000000000002,-13.700000000000001,13.100000000000001,16
1006,16885.0,-11.3,1.7000000000000002,5.300000000000001,-3.8000000000000003,-4.2,4.1000000000000005,92.7,3.0,36.400000000000006,16
1007,16902.0,-10.9,0.9,5.800000000000001,-3.6,-5.1000000000000005,4.6000000000000005,97.10000000000001,-7.9,59.00000000000001,16
1008,16918.0,-6.2,-1.6,0.5,-0.4,-7.2,1.0,108.60000000000001,-57.49999999999999,90.5,16
1009,16935.0,-0.8,-5.0,-11.8,10.5,-12.8,-19.400000000000002,78.4,-159.5,111.0,16
1010,16952.0,41.5,-12.3,-28.6,46.5,-18.400000000000002,-31.400000000000002,-85.1,-192.9,9.2,16
1011,16968.0,14.5,-6.6000000000000005,-3.8000000000000003,32.2,-14.8,-6.9,-54.800000000000004,195.7,-266.1,16
1012,16986.0,4.1000000000000005,4.1000000000000005,-3.5,11.9,0.0,-5.2,-26.9,143.6,-209.10000000000002,16
1013,17002.0,-0.9,7.1000000000000005,-2.8000000000000003,7.7,1.9000000000000001,-4.3,-7.200000000000001,73.2,-8.4,16
1014,17018.0,-7.5,-0.5,1.2000000000000002,2.0,-4.6000000000000005,-0.5,54.199999999999996,77.1,47.900000000000006,16
1015,17035.0,-7.7,-4.2,7.0,0.4,-11.0,7.7,113.60000000000001,68.9,61.9,16
1016,17052.0,-6.9,-12.3,10.0,0.8,-18.0,10.0,163.29999999999998,15.299999999999999,99.60000000000001,16
1017,17068.0,3.0,-16.7,-3.3000000000000003,7.1000000000000005,-23.1,-2.9000000000000004,68.7,-67.2,133.60000000000002,16
1018,17085.0,6.7,-9.5,5.4,12.700000000000001,-14.3,5.300000000000001,-64.7,-94.4,57.49999999999999,16
1019,17102.0,-5.1000000000000005,2.7,1.8,3.1,-4.3,2.0,-8.700000000000001,30.200000000000003,-34.1,16
1020,17118.0,-7.9,5.1000000000000005,0.6000000000000001,0.30000000000000004,-1.6,-0.8,2.7,117.1,-20.1,16
1021,17137.0,-7.300000000000001,2.8000000000000003,4.2,1.7000000000000002,-5.4,4.6000000000000005,14.700000000000001,72.4,75.1,16
1022,17152.0,-5.300000000000001,1.1,4.4,1.7000000000000002,-5.4,4.6000000000000005,14.700000000000001,72.4,75.1,16
1023,17168.0,-1.9000000000000001,-1.2000000000000002,4.2,4.6000000000000005,-7.6000000000000005,4.5,28.600000000000005,7.0,81.10000000000001,16
1024,17190.0,-0.6000000000000001,-3.0,3.9000000000000004,7.0,-10.600000000000001,3.7,57.60000000000001,-97.40000000000002,52.00000000000001,16
1025,17202.0,0.2,-3.5,3.4000000000000004,7.0,-10.600000000000001,3.7,57.60000000000001,-97.40000000000002,52.00000000000001,16
1026,17218.0,2.1,-4.1000000000000005,1.0,8.5,-11.3,2.0,68.7,-107.00000000000001,50.7,16
1027,17235.0,2.4000000000000004,-2.9000000000000004,-3.0,8.9,-9.600000000000001,-2.8000000000000003,69.9,-40.2,49.300000000000004,16
1028,17252.0,-0.1,2.6,-1.8,6.7,-5.2,-1.3,58.0,103.7,58.7,16
1029,17268.0,-1.9000000000000001,4.3,2.0,4.800000000000001,-3.5,2.4000000000000004,53.7,149.4,77.7,16
1030,17285.0,-2.2,4.3,2.7,3.8000000000000003,-3.4000000000000004,4.1000000000000005,62.4,112.9,86.4,16
1031,17302.0,-1.8,3.7,1.8,4.0,-4.0,3.6,79.5,51.300000000000004,77.3,16
1032,17319.0,-1.4000000000000001,3.3000000000000003,-0.6000000000000001,4.4,-4.3,1.8,90.30000000000001,2.1,51.6,16
1033,17335.0,-1.3,3.0,-1.3,4.6000000000000005,-4.9,0.4,87.40000000000002,-27.700000000000003,28.1,16
1034,17354.0,0.0,0.8,-4.4,5.6000000000000005,-6.800000000000001,-2.1,72.80000000000001,-20.8,16.0,16
1035,17369.0,1.6,-0.9,-4.1000000000000005,7.0,-8.5,-2.3000000000000003,37.50000000000001,52.60000000000001,14.700000000000001,16
1036,17388.0,1.5,0.6000000000000001,-1.0,6.6000000000000005,-6.6000000000000005,1.5,-27.9,107.30000000000001,46.199999999999996,16
1037,17403.0,1.3,1.4000000000000001,-1.0,6.6000000000000005,-6.6000000000000005,1.5,-27.9,107.30000000000001,46.199999999999996,16
1038,17418.0,1.8,1.4000000000000001,-2.8000000000000003,6.800000000000001,-6.5,0.2,-42.400000000000006,88.9,55.900000000000006,16
1039,17435.0,2.2,1.2000000000000002,-3.2,7.300000000000001,-7.0,-0.6000000000000001,-51.800000000000004,103.10000000000001,53.400000000000006,16
1040,17452.0,4.3,0.6000000000000001,-2.8000000000000003,8.9,-7.5,-0.30000000000000004,-53.300000000000004,119.20000000000002,45.099999999999994,16
1041,17468.0,7.0,1.0,-3.6,11.0,-7.5,-0.8,-50.60000000000001,110.80000000000001,33.2,16
1042,17489.0,8.6,2.3000000000000003,-4.2,13.700000000000001,-5.300000000000001,-1.8,-53.300000000000004,77.60000000000001,14.800000000000002,16
1043,17502.0,9.1,3.2,-4.3,13.700000000000001,-5.300000000000001,-1.8,-53.300000000000004,77.60000000000001,14.800000000000002,16
1044,17518.0,10.100000000000001,3.7,-5.0,14.5,-4.6000000000000005,-2.5,-53.9,45.400000000000006,1.2000000000000002,16
1045,17535.0,10.4,3.2,-4.800000000000001,15.3,-5.4,-2.6,-60.7,-4.800000000000001,-21.500000000000004,16
1046,17552.0,10.600000000000001,0.8,-4.5,15.8,-7.300000000000001,-2.7,-71.30000000000001,-67.10000000000001,-57.49999999999999,16
1047,17569.0,8.200000000000001,-0.7000000000000001,-5.0,14.4,-8.5,-3.6,-82.7,-90.9,-106.9,16
1048,17593.0,5.9,-2.8000000000000003,-1.0,11.8,-12.4,1.6,-104.50000000000001,-160.50000000000003,-184.20000000000002,16
1049,17602.0,5.1000000000000005,-5.2,1.7000000000000002,11.8,-12.4,1.6,-104.50000000000001,-160.50000000000003,-184.20000000000002,16
1050,17618.0,2.9000000000000004,-8.700000000000001,6.4,10.5,-15.4,5.300000000000001,-75.9,-213.9,-190.8,16
1051,17635.0,2.2,-10.100000000000001,5.7,9.3,-17.5,4.9,-34.800000000000004,-222.9,-145.60000000000002,16
1052,17654.0,1.2000000000000002,-13.700000000000001,3.5,8.6,-20.6,3.0,-11.8,-101.4,-60.5,16
1053,17670.0,-3.0,-12.4,1.7000000000000002,5.4,-20.6,2.4000000000000004,-12.299999999999999,106.70000000000002,11.8,16
1054,17685.0,-3.0,-12.4,1.7000000000000002,3.1,-16.6,-0.4,-74.0,118.50000000000001,32.300000000000004,16
1055,17702.0,-5.1000000000000005,-4.6000000000000005,1.1,2.1,-12.3,-0.1,-172.29999999999998,-51.4,-6.500000000000001,16
1056,17720.0,-5.9,-0.7000000000000001,1.3,1.6,-8.6,-0.2,-206.6,-88.20000000000002,-52.2,16
1057,17735.0,-7.1000000000000005,0.9,3.0,0.2,-5.800000000000001,1.6,-189.9,-17.5,-74.80000000000001,16
1058,17752.0,-6.300000000000001,2.7,8.200000000000001,0.9,-4.1000000000000005,5.800000000000001,-124.39999999999999,33.400000000000006,-64.7,16
1059,17768.0,-4.2,4.1000000000000005,6.6000000000000005,2.8000000000000003,-2.8000000000000003,5.5,-33.6,7.9,-59.1,16
1060,17786.0,-3.4000000000000004,4.7,4.5,4.3,-1.5,2.3000000000000003,31.400000000000002,-29.900000000000006,-67.60000000000001,16
1061,17802.0,-3.3000000000000003,5.9,2.3000000000000003,4.5,-0.30000000000000004,0.5,53.7,-38.7,-84.69999999999999,16
1062,17818.0,-4.5,7.0,2.8000000000000003,3.7,0.8,0.7000000000000001,52.80000000000001,-28.400000000000002,-90.30000000000001,16
1063,17835.0,-5.4,7.1000000000000005,3.5,2.3000000000000003,1.3,1.8,46.50000000000001,-23.800000000000004,-73.9,16
1064,17852.0,-7.1000000000000005,5.300000000000001,4.5,0.9,-0.2,2.7,49.6,-21.500000000000004,-38.900000000000006,16
1065,17868.0,-9.600000000000001,3.8000000000000003,4.4,-1.1,-1.6,2.9000000000000004,63.900000000000006,-7.200000000000001,-8.0,16
1066,17889.0,-11.3,3.2,4.4,-3.9000000000000004,-3.0,3.5,80.0,11.5,49.300000000000004,16
1067,17902.0,-11.5,2.9000000000000004,4.800000000000001,-3.9000000000000004,-3.0,3.5,80.0,11.5,49.300000000000004,16
1068,17918.0,-9.600000000000001,1.2000000000000002,3.9000000000000004,-3.1,-4.4,3.3000000000000003,87.40000000000002,-11.4,78.2,16
1069,17938.0,-6.7,-0.7000000000000001,0.30000000000000004,24.400000000000002,-15.600000000000001,-39.2,0.1,-301.09999999999997,104.7,16
1070,17953.0,21.700000000000003,-10.100000000000001,-42.400000000000006,24.400000000000002,-15.600000000000001,-39.2,0.1,-301.09999999999997,104.7,16
1071,17974.0,37.300000000000004,-12.600000000000001,-1.6,48.6,-17.900000000000002,-16.3,-78.10000000000001,-15.5,-128.9,16
1072,17989.0,4.4,4.3,-2.0,10.4,3.4000000000000004,-4.3,8.899999999999999,30.200000000000003,-117.5,16
1073,18002.0,1.4000000000000001,9.8,-2.8000000000000003,10.4,3.4000000000000004,-4.3,8.899999999999999,30.200000000000003,-117.5,16
1074,18018.0,-5.5,4.2,0.7000000000000001,4.7,0.30000000000000004,-1.8,26.700000000000003,9.100000000000001,37.0,16
1075,18035.0,-8.3,2.1,1.4000000000000001,-0.2,-4.0,0.6000000000000001,80.0,44.10000000000001,71.30000000000001,16
1076,18051.0,-8.1,-5.2,9.3,-0.30000000000000004,-10.3,7.6000000000000005,128.0,83.60000000000001,76.80000000000001,16
1077,18071.0,-7.6000000000000005,-14.700000000000001,-1.0,0.2,-18.5,3.7,140.3,45.6,94.7,16
1078,18085.0,-1.7000000000000002,-19.3,-6.7,7.300000000000001,-25.5,-5.800000000000001,-8.5,-102.7,109.7,16
1079,18102.0,4.4,-7.7,12.0,12.9,-16.0,10.0,-79.39999999999999,-93.4,9.8,16
1080,18119.0,-4.800000000000001,2.4000000000000004,-4.0,4.1000000000000005,-5.9,-0.7000000000000001,29.400000000000002,80.0,-60.1,16
1081,18137.0,-6.800000000000001,4.0,-0.4,0.8,-2.4000000000000004,-0.1,21.400000000000002,100.80000000000001,36.300000000000004,16
1082,18153.0,-7.9,3.6,5.4,-0.4,-2.8000000000000003,5.1000000000000005,21.400000000000002,100.80000000000001,36.300000000000004,16
1083,18168.0,-4.800000000000001,0.7000000000000001,4.2,1.5,-5.4,4.5,31.9,12.299999999999999,96.30000000000001,16
1084,18191.0,-1.7000000000000002,-1.8,4.6000000000000005,5.800000000000001,-9.8,4.7,64.0,-70.4,91.90000000000002,16
1085,18203.0,-0.9,-2.9000000000000004,4.7,5.800000000000001,-9.8,4.7,64.0,-70.4,91.90000000000002,16
1086,18219.0,0.2,-3.9000000000000004,3.4000000000000004,6.6000000000000005,-11.0,3.8000000000000003,83.00000000000001,-95.9,69.60000000000001,16
1087,18235.0,1.0,-4.1000000000000005,2.4000000000000004,7.7,-11.5,2.2,90.9,-88.9,56.400000000000006,16
1088,18252.0,1.3,-2.2,-3.0,7.9,-10.0,-2.0,82.8,-8.899999999999999,50.60000000000001,16
1089,18269.0,-0.1,2.4000000000000004,-1.8,6.6000000000000005,-6.2,-1.7000000000000002,60.00000000000001,125.10000000000001,59.699999999999996,16
1090,18288.0,-0.5,3.3000000000000003,-0.1,5.6000000000000005,-4.4,1.2000000000000002,33.50000000000001,184.9,75.60000000000001,16
1091,18302.0,-1.6,4.3,1.9000000000000001,4.4,-3.7,3.2,19.700000000000003,152.6,81.10000000000001,16
1092,18319.0,-1.6,4.7,1.1,4.1000000000000005,-3.4000000000000004,3.1,24.7,85.5,74.10000000000001,16
1093,18335.0,-1.5,4.800000000000001,0.0,4.0,-3.2,1.6,36.2,28.200000000000003,56.2,16
1094,18352.0,-1.1,4.1000000000000005,-1.9000000000000001,4.3,-3.8000000000000003,0.1,43.00000000000001,6.8,36.9,16
1095,18369.0,1.0,1.9000000000000001,-3.6,5.7,-5.4,-1.3,40.4,22.700000000000003,24.200000000000003,16
1096,18392.0,3.0,0.5,-3.3000000000000003,8.3,-7.4,-0.7000000000000001,6.300000000000001,95.4,11.900000000000002,16
1097,18402.0,3.1,0.6000000000000001,-2.8000000000000003,8.3,-7.4,-0.7000000000000001,6.300000000000001,95.4,11.900000000000002,16
1098,18418.0,2.8000000000000003,1.4000000000000001,-2.4000000000000004,8.1,-7.0,-0.1,-12.7,92.7,28.600000000000005,16
1099,18435.0,2.7,1.8,-2.8000000000000003,7.7,-6.300000000000001,-0.5,-26.300000000000004,77.1,48.300000000000004,16
1100,18452.0,2.9000000000000004,1.9000000000000001,-3.0,7.6000000000000005,-6.300000000000001,-0.7000000000000001,-32.300000000000004,79.19999999999999,56.7,16
1101,18469.0,4.6000000000000005,1.0,-2.6,8.700000000000001,-7.0,-0.4,-31.7,81.60000000000001,52.7,16
1102,18487.0,5.6000000000000005,0.6000000000000001,-2.4000000000000004,10.3,-7.800000000000001,-0.1,-28.3,66.7,39.599999999999994,16
1103,18502.0,6.6000000000000005,1.0,-2.8000000000000003,11.100000000000001,-7.5,-0.4,-22.5,39.50000000000001,26.6,16
1104,18519.0,7.9,2.1,-3.9000000000000004,12.0,-6.6000000000000005,-1.4000000000000001,-19.200000000000003,19.300000000000004,18.6,16
1105,18536.0,9.1,2.2,-4.0,13.8,-6.2,-1.9000000000000001,-24.7,6.699999999999999,8.100000000000001,16
1106,18552.0,11.5,1.6,-3.9000000000000004,16.1,-6.7,-1.9000000000000001,-42.900000000000006,-19.700000000000003,-19.700000000000003,16
1107,18568.0,11.5,0.8,-5.300000000000001,17.0,-7.4,-3.2,-68.80000000000001,-45.400000000000006,-65.6,16
1108,18594.0,8.9,-0.5,-4.9,13.700000000000001,-9.4,-2.6,-129.5,-59.9,-164.0,16
