,ms,accelX,accelY,accelZ,accelWithGX,accelWithGY,accelWithGZ,rotRateAlpha,rotRateBeta,rotRateGamma,interval
0,108.0,-6.5,3.4000000000000004,11.0,2.7,6.4,9.600000000000001,22.8,-7.500000000000001,-3.1,16
1,124.0,-6.9,3.4000000000000004,10.5,2.3000000000000003,6.5,9.1,25.0,-7.200000000000001,-15.000000000000002,16
2,141.0,-7.300000000000001,3.6,10.200000000000001,1.7000000000000002,6.800000000000001,8.700000000000001,16.0,-18.4,-18.700000000000003,16
3,157.0,-7.4,3.7,10.3,1.8,6.800000000000001,8.8,8.5,-23.2,-18.200000000000003,16
4,174.0,-6.800000000000001,3.9000000000000004,10.700000000000001,2.3000000000000003,7.0,9.1,-6.699999999999999,-18.900000000000002,-16.700000000000003,16
5,191.0,-6.4,3.6,10.9,2.7,6.9,9.3,-26.1,-11.900000000000002,-16.4,16
6,208.0,-6.4,3.2,11.5,2.7,6.5,9.9,-34.1,-0.5,-18.4,16
7,229.0,-7.1000000000000005,3.0,12.0,2.0,6.4,10.4,-35.8,14.700000000000001,-22.3,16
8,249.0,-7.0,2.5,11.5,2.0,5.9,10.0,-12.4,27.800000000000004,-19.300000000000004,16
9,258.0,-7.0,2.3000000000000003,10.8,2.0,5.800000000000001,9.3,4.7,28.0,-16.700000000000003,16
10,275.0,-7.1000000000000005,2.2,9.4,1.9000000000000001,5.7,8.0,21.500000000000004,27.800000000000004,-14.200000000000001,16
11,296.0,-7.6000000000000005,1.9000000000000001,7.300000000000001,1.0,5.300000000000001,5.2,50.8,29.400000000000002,-8.0,16
12,307.0,-8.200000000000001,1.5,5.6000000000000005,0.8,5.1000000000000005,4.3,45.9,28.900000000000002,1.7,16
13,324.0,-8.1,1.5,5.6000000000000005,1.0,5.0,4.3,36.1,27.099999999999998,9.5,16
14,341.0,-7.6000000000000005,1.8,6.0,1.9000000000000001,5.4,5.300000000000001,14.600000000000001,7.6,25.5,16
15,357.0,-6.800000000000001,1.5,6.800000000000001,2.3000000000000003,4.9,5.6000000000000005,12.5,-1.4,29.0,16
16,374.0,-6.2,1.1,7.300000000000001,3.0,4.4,6.0,10.5,-11.1,30.4,16
17,391.0,-6.2,1.2000000000000002,7.1000000000000005,2.8000000000000003,4.6000000000000005,5.7,9.700000000000001,-12.4,18.5,16
18,408.0,-6.7,2.3000000000000003,6.9,2.5,5.4,5.5,10.700000000000001,-4.4,13.6,16
19,424.0,-7.0,3.2,6.300000000000001,2.2,6.300000000000001,5.0,10.5,-8.2,12.8,16
20,441.0,-7.0,3.2,6.4,2.2,6.2,4.800000000000001,6.9,-24.7,16.3,16
21,457.0,-7.2,3.6,6.4,2.0,6.6000000000000005,4.9,-5.9,-43.800000000000004,9.2,16
22,474.0,-7.4,3.3000000000000003,6.5,1.6,6.0,5.0,-12.100000000000001,-40.800000000000004,4.6,16
23,492.0,-7.4,2.2,6.800000000000001,1.7000000000000002,5.2,5.1000000000000005,-32.7,-29.500000000000004,9.3,16
24,507.0,-7.5,2.6,7.4,1.7000000000000002,5.6000000000000005,5.7,-44.8,-12.100000000000001,13.100000000000001,16
25,524.0,-7.4,3.2,8.5,1.7000000000000002,6.2,6.800000000000001,-57.00000000000001,1.9,16.6,16
26,541.0,-7.1000000000000005,3.6,8.700000000000001,2.1,6.6000000000000005,7.0,-52.80000000000001,3.1,17.0,16
27,557.0,-6.2,3.8000000000000003,9.5,3.1,6.800000000000001,7.9,-24.900000000000002,-4.5,11.000000000000002,16
28,574.0,-5.7,3.3000000000000003,10.0,3.5,6.300000000000001,8.4,9.700000000000001,-18.4,-14.400000000000002,16
29,591.0,-7.0,3.6,9.0,2.1,6.6000000000000005,7.4,21.300000000000004,-3.2,-31.3,16
30,607.0,-7.9,3.7,8.3,1.2000000000000002,6.800000000000001,6.6000000000000005,19.300000000000004,5.2,-33.1,16
31,624.0,-9.0,3.8000000000000003,7.6000000000000005,0.1,7.0,5.9,7.0,18.200000000000003,-26.1,16
32,641.0,-9.0,3.8000000000000003,7.6000000000000005,0.1,7.1000000000000005,5.800000000000001,0.30000000000000004,20.599999999999998,-19.1,16
33,658.0,-8.700000000000001,3.6,8.0,0.4,6.800000000000001,6.4,-9.700000000000001,18.8,-8.3,16
34,674.0,-8.3,3.8000000000000003,8.700000000000001,1.0,7.1000000000000005,7.5,-11.2,21.300000000000004,-3.0,16
35,691.0,-7.7,3.6,9.600000000000001,1.5,7.0,8.200000000000001,-5.4,25.1,-6.300000000000001,16
36,707.0,-7.7,3.5,9.9,1.4000000000000001,6.9,8.5,-1.5,29.400000000000002,-9.3,16
37,724.0,-7.800000000000001,3.5,10.0,1.3,6.9,8.700000000000001,4.0,31.400000000000002,-11.900000000000002,16
38,741.0,-7.800000000000001,3.5,10.0,1.3,6.9,8.700000000000001,4.0,31.400000000000002,-11.900000000000002,16
39,757.0,-9.3,3.5,9.9,-0.2,7.0,8.700000000000001,35.8,14.900000000000002,-13.700000000000001,16
40,774.0,-9.200000000000001,3.1,9.3,-0.1,6.6000000000000005,8.1,45.6,21.0,-5.0,16
41,791.0,-9.0,3.2,8.700000000000001,0.2,6.800000000000001,7.4,47.7,28.0,1.7,16
42,807.0,-8.8,3.4000000000000004,8.0,0.30000000000000004,6.9,6.9,45.0,26.200000000000003,2.8,16
43,824.0,-8.3,3.2,7.4,0.8,6.6000000000000005,6.4,29.400000000000002,19.5,-0.30000000000000004,16
44,841.0,-9.1,3.1,8.3,0.0,6.6000000000000005,7.300000000000001,-3.7000000000000006,11.900000000000002,-3.3000000000000007,16
45,857.0,-9.1,3.1,8.3,-0.1,6.6000000000000005,7.9,-14.200000000000001,15.000000000000002,1.9,16
46,874.0,-8.3,2.7,9.9,0.9,6.1000000000000005,8.9,-27.800000000000004,22.5,16.200000000000003,16
47,891.0,-7.5,2.6,10.4,1.7000000000000002,6.0,9.600000000000001,-31.400000000000002,29.200000000000003,20.5,16
48,907.0,-7.4,2.5,10.4,1.7000000000000002,5.9,9.600000000000001,-28.900000000000002,29.800000000000004,19.9,16
49,924.0,-7.800000000000001,2.1,9.600000000000001,1.4000000000000001,5.5,9.0,-19.5,25.1,17.0,16
50,941.0,-8.5,2.0,9.0,0.8,5.300000000000001,8.5,-12.4,15.8,15.399999999999999,16
51,957.0,-8.700000000000001,1.8,8.8,0.5,5.1000000000000005,8.3,-10.4,12.5,16.0,16
52,974.0,-9.0,1.4000000000000001,8.5,0.30000000000000004,4.6000000000000005,8.1,-7.500000000000001,11.000000000000002,19.400000000000002,16
53,991.0,-8.700000000000001,1.1,7.9,0.6000000000000001,4.3,7.5,-3.7000000000000006,13.200000000000003,22.6,16
54,1007.0,-9.3,1.3,7.6000000000000005,0.0,4.5,7.300000000000001,-2.4000000000000004,9.100000000000001,22.5,16
55,1024.0,-9.3,1.5,7.2,0.0,4.6000000000000005,6.9,1.3,3.3000000000000007,26.200000000000003,16
56,1041.0,-9.200000000000001,1.5,7.1000000000000005,0.1,4.5,6.800000000000001,1.4,0.9000000000000001,29.700000000000006,16
57,1057.0,-8.8,1.8,6.800000000000001,0.5,4.800000000000001,6.5,-2.3,-1.8000000000000003,31.7,16
58,1074.0,-8.5,2.2,6.7,0.9,5.0,6.4,-9.899999999999999,-4.800000000000001,26.700000000000003,16
59,1091.0,-8.5,2.3000000000000003,6.7,0.7000000000000001,5.1000000000000005,6.5,-22.9,-6.500000000000001,10.8,16
60,1107.0,-9.200000000000001,2.4000000000000004,6.9,0.2,5.1000000000000005,6.6000000000000005,-28.600000000000005,-7.1000000000000005,4.6,16
61,1124.0,-9.9,2.0,7.300000000000001,-0.4,4.800000000000001,7.1000000000000005,-39.50000000000001,-9.899999999999999,-0.4,16
62,1141.0,-10.3,2.1,7.6000000000000005,-0.9,4.800000000000001,7.300000000000001,-44.300000000000004,-14.5,-2.3,16
63,1157.0,-10.8,2.3000000000000003,8.1,-1.4000000000000001,5.1000000000000005,7.800000000000001,-48.300000000000004,-15.299999999999999,1.6,16
64,1174.0,-10.4,2.2,8.8,-1.0,4.9,8.5,-49.800000000000004,-12.200000000000001,6.1000000000000005,16
65,1191.0,-10.100000000000001,2.1,9.5,-0.7000000000000001,4.800000000000001,9.200000000000001,-47.0,-1.4,7.400000000000001,16
66,1208.0,-10.100000000000001,2.3000000000000003,9.5,-0.7000000000000001,5.0,9.3,-43.300000000000004,3.3000000000000007,7.0,16
67,1224.0,-10.5,2.3000000000000003,9.4,-1.1,5.0,9.200000000000001,-33.300000000000004,8.100000000000001,4.2,16
68,1242.0,-10.8,2.2,9.1,-1.4000000000000001,4.9,9.0,-28.600000000000005,8.3,4.7,16
69,1257.0,-11.100000000000001,2.1,8.6,-1.7000000000000002,4.800000000000001,8.6,-22.000000000000004,9.4,10.4,16
70,1274.0,-11.100000000000001,2.2,8.200000000000001,-1.7000000000000002,4.9,8.3,-18.8,6.600000000000001,21.0,16
71,1291.0,-10.4,2.4000000000000004,8.5,-0.9,5.0,8.5,-17.5,3.5,31.2,16
72,1309.0,-9.9,2.5,8.6,-0.5,5.1000000000000005,8.700000000000001,-16.8,4.800000000000001,34.800000000000004,16
73,1324.0,-9.600000000000001,2.9000000000000004,8.9,-0.1,5.4,9.0,-14.0,9.100000000000001,36.1,16
74,1342.0,-9.700000000000001,3.1,8.700000000000001,-0.2,5.5,8.9,-10.200000000000001,11.3,36.7,16
75,1357.0,-9.600000000000001,3.2,8.5,-0.1,5.5,8.8,-7.300000000000001,8.4,40.0,16
76,1374.0,-9.200000000000001,3.3000000000000003,8.5,0.4,5.5,8.8,-3.3000000000000007,1.6,44.7,16
77,1391.0,-8.3,3.5,8.5,1.3,5.5,8.8,-0.8,-2.4000000000000004,44.10000000000001,16
78,1407.0,-7.800000000000001,3.7,8.6,1.8,5.6000000000000005,8.9,-0.8,-2.5,40.7,16
79,1424.0,-7.7,3.7,8.700000000000001,1.9000000000000001,5.5,9.0,-2.7,3.3000000000000007,29.700000000000006,16
80,1441.0,-7.9,3.7,8.700000000000001,1.3,5.5,9.1,-6.300000000000001,11.6,20.599999999999998,16
81,1459.0,-8.6,3.7,8.8,1.1,5.4,9.1,-6.300000000000001,13.8,18.5,16
82,1474.0,-9.1,3.6,8.700000000000001,0.6000000000000001,5.300000000000001,9.1,-2.0,12.7,18.200000000000003,16
83,1491.0,-9.3,3.8000000000000003,8.6,0.4,5.4,9.0,5.300000000000001,3.1,21.0,16
84,1508.0,-9.3,3.8000000000000003,8.6,0.5,5.7,9.0,5.300000000000001,3.1,21.0,16
85,1525.0,-9.1,4.2,8.5,1.3,5.7,9.3,9.8,-12.299999999999999,23.700000000000003,16
86,1544.0,-7.800000000000001,3.9000000000000004,9.3,1.9000000000000001,5.300000000000001,9.700000000000001,4.0,-10.0,19.9,16
87,1557.0,-7.800000000000001,4.0,9.3,2.0,5.1000000000000005,9.600000000000001,0.7,-0.4,15.399999999999999,16
88,1574.0,-8.4,3.6,9.0,1.4000000000000001,4.9,9.3,-4.5,18.1,6.1000000000000005,16
89,1591.0,-9.700000000000001,3.4000000000000004,8.4,0.0,4.7,8.9,-5.7,26.400000000000006,-1.0,16
90,1608.0,-10.600000000000001,3.6,8.200000000000001,-0.9,4.9,8.700000000000001,-5.8,24.8,0.4,16
91,1624.0,-10.700000000000001,3.9000000000000004,8.0,-1.0,5.2,8.6,-5.0,20.1,5.8,16
92,1646.0,-8.700000000000001,3.9000000000000004,8.200000000000001,1.0,5.2,8.8,0.0,7.500000000000001,24.400000000000002,16
93,1658.0,-8.6,4.0,8.1,1.1,5.2,8.700000000000001,1.5,7.500000000000001,23.800000000000004,16
94,1674.0,-8.4,4.6000000000000005,7.7,1.3,5.7,8.4,-0.9000000000000001,1.8000000000000003,18.4,16
95,1691.0,-8.3,4.800000000000001,7.6000000000000005,1.5,5.9,8.3,-13.900000000000002,-3.0,12.4,16
96,1708.0,-8.200000000000001,4.6000000000000005,8.0,1.5,5.7,8.700000000000001,-22.9,0.8,8.600000000000001,16
97,1724.0,-8.6,3.9000000000000004,9.1,1.2000000000000002,5.0,9.9,-33.7,20.2,3.2,16
98,1741.0,-8.700000000000001,3.7,9.3,1.0,4.7,10.0,-31.2,28.700000000000003,1.9,16
99,1757.0,-9.3,3.2,9.1,0.5,4.2,9.9,-10.4,29.200000000000003,3.5,16
100,1775.0,-9.3,3.0,7.800000000000001,0.4,4.0,8.8,14.700000000000001,11.700000000000001,9.0,16
101,1791.0,-8.6,2.8000000000000003,6.9,1.1,3.8000000000000003,7.9,22.700000000000003,-2.2,14.5,16
102,1807.0,-8.1,2.6,6.7,1.6,3.6,7.7,19.5,-2.4000000000000004,15.5,16
103,1824.0,-7.6000000000000005,2.2,7.1000000000000005,2.1,3.1,8.1,7.699999999999999,8.600000000000001,13.3,16
104,1841.0,-7.7,2.0,7.4,2.0,2.8000000000000003,8.4,3.2,15.5,12.200000000000001,16
105,1859.0,-7.800000000000001,1.4000000000000001,8.1,1.9000000000000001,2.3000000000000003,9.200000000000001,2.0,27.800000000000004,14.200000000000001,16
106,1874.0,-7.7,1.6,7.9,2.0,2.4000000000000004,9.1,11.2,38.2,17.6,16
107,1891.0,-7.7,2.0,7.0,1.8,3.0,7.9,25.7,30.000000000000004,11.900000000000002,16
108,1907.0,-8.3,2.5,5.9,1.4000000000000001,3.2,7.300000000000001,28.0,18.1,7.9,16
109,1928.0,-7.7,2.2,4.800000000000001,2.0,2.9000000000000004,6.300000000000001,26.000000000000004,3.3000000000000007,3.8,16
110,1941.0,-8.8,1.9000000000000001,5.2,0.9,2.6,6.7,21.900000000000002,0.2,-1.2000000000000002,16
111,1958.0,-9.5,2.6,4.6000000000000005,0.1,3.3000000000000003,6.1000000000000005,14.200000000000001,8.899999999999999,0.2,16
112,1976.0,-9.9,2.7,4.4,-0.2,3.4000000000000004,5.9,2.2,11.6,6.1000000000000005,16
113,1991.0,-10.200000000000001,3.2,4.6000000000000005,-0.5,3.9000000000000004,6.1000000000000005,-11.8,14.800000000000002,10.600000000000001,16
114,2008.0,-10.100000000000001,3.5,4.9,-0.5,4.2,6.5,-19.1,15.6,13.100000000000001,16
115,2024.0,-10.100000000000001,3.9000000000000004,5.6000000000000005,-0.5,4.6000000000000005,7.2,-32.6,16.900000000000002,16.6,16
116,2041.0,-10.100000000000001,4.2,6.1000000000000005,-0.4,4.800000000000001,7.800000000000001,-37.300000000000004,17.799999999999997,18.700000000000003,16
117,2058.0,-9.600000000000001,4.4,7.1000000000000005,0.0,4.9,8.8,-41.199999999999996,17.799999999999997,25.0,16
118,2074.0,-9.1,4.6000000000000005,7.800000000000001,0.5,5.0,9.600000000000001,-37.50000000000001,16.0,31.5,16
119,2091.0,-8.6,4.5,8.1,1.1,4.7,9.9,-27.5,16.8,37.6,16
120,2109.0,-8.1,4.2,7.800000000000001,1.5,4.4,9.700000000000001,-20.2,18.8,39.9,16
121,2124.0,-7.5,4.5,7.5,2.1,4.5,9.5,-6.600000000000001,18.3,42.60000000000001,16
122,2142.0,-7.2,4.6000000000000005,7.0,2.4000000000000004,4.5,9.1,6.1000000000000005,24.900000000000002,40.5,16
123,2158.0,-7.4,4.7,6.7,2.1,4.6000000000000005,8.700000000000001,9.700000000000001,26.1,38.7,16
124,2174.0,-8.200000000000001,5.300000000000001,6.0,1.3,5.1000000000000005,8.1,12.600000000000001,22.3,40.4,16
125,2191.0,-8.3,6.1000000000000005,5.800000000000001,1.2000000000000002,5.800000000000001,8.1,10.200000000000001,7.9,47.60000000000001,16
126,2210.0,-7.7,6.9,6.4,1.8,6.4,8.700000000000001,1.9,-7.699999999999999,49.6,16
127,2236.0,-7.0,7.300000000000001,7.4,2.5,6.6000000000000005,9.700000000000001,-9.899999999999999,-5.0,43.50000000000001,16
128,2244.0,-7.0,7.300000000000001,8.1,2.5,6.6000000000000005,10.4,-13.900000000000002,3.2,38.60000000000001,16
129,2269.0,-7.0,7.300000000000001,8.1,2.5,6.6000000000000005,10.4,-13.900000000000002,3.2,38.60000000000001,16
130,2274.0,-7.0,7.300000000000001,8.1,2.5,6.6000000000000005,10.4,-13.900000000000002,3.2,38.60000000000001,16
131,2291.0,-8.3,7.7,9.1,0.9,6.7,11.5,13.900000000000002,12.9,29.300000000000004,16
132,2310.0,-8.8,7.6000000000000005,9.0,0.7000000000000001,6.5,11.3,22.8,2.2,32.0,16
133,2324.0,-8.3,7.4,8.9,1.2000000000000002,6.300000000000001,11.3,33.0,-14.600000000000001,37.1,16
134,2341.0,-8.0,7.300000000000001,8.9,1.5,6.1000000000000005,11.3,33.9,-15.899999999999999,37.2,16
135,2357.0,-7.5,6.5,8.5,1.9000000000000001,5.300000000000001,10.8,30.200000000000003,-5.8,29.500000000000004,16
136,2374.0,-8.3,5.9,8.0,1.1,4.6000000000000005,10.4,21.900000000000002,14.5,18.0,16
137,2391.0,-9.600000000000001,5.300000000000001,7.4,-0.2,3.9000000000000004,9.9,18.700000000000003,24.8,14.200000000000001,16
138,2408.0,-10.3,5.0,6.9,-0.9,3.6,9.4,20.0,24.1,15.8,16
139,2424.0,-11.0,4.7,6.0,-1.6,3.2,8.6,25.7,18.0,28.500000000000004,16
140,2442.0,-11.100000000000001,4.5,5.6000000000000005,-1.8,3.1,8.200000000000001,27.700000000000003,16.4,35.699999999999996,16
141,2457.0,-11.3,4.5,4.800000000000001,-2.0,2.9000000000000004,7.5,30.9,10.4,51.0,16
142,2474.0,-10.8,4.7,4.5,-1.5,3.0,7.300000000000001,32.0,6.1000000000000005,64.80000000000001,16
143,2491.0,-10.100000000000001,4.800000000000001,4.6000000000000005,-0.7000000000000001,3.1,7.4,30.1,10.200000000000001,71.9,16
144,2508.0,-9.8,5.1000000000000005,4.6000000000000005,-0.5,3.3000000000000003,7.5,29.0,13.399999999999999,72.30000000000001,16
145,2525.0,-9.1,5.5,4.4,0.1,3.3000000000000003,7.300000000000001,25.900000000000002,13.5,71.10000000000001,16
146,2542.0,-9.200000000000001,6.2,4.0,-0.1,3.8000000000000003,7.0,21.300000000000004,11.900000000000002,64.50000000000001,16
147,2557.0,-9.200000000000001,6.300000000000001,3.8000000000000003,-0.2,3.8000000000000003,6.800000000000001,17.5,11.3,63.0,16
148,2574.0,-9.1,6.6000000000000005,3.8000000000000003,-0.1,3.9000000000000004,6.800000000000001,8.5,13.000000000000002,60.7,16
149,2591.0,-9.1,6.9,4.2,-0.2,4.0,7.300000000000001,0.30000000000000004,15.5,56.400000000000006,16
150,2607.0,-9.3,6.800000000000001,4.4,-0.5,3.9000000000000004,7.5,-2.4000000000000004,16.1,54.300000000000004,16
151,2624.0,-9.5,7.0,4.5,-0.8,3.9000000000000004,7.6000000000000005,-7.6,17.300000000000004,54.9,16
152,2641.0,-9.5,7.4,4.6000000000000005,-0.8,4.1000000000000005,7.800000000000001,-11.900000000000002,17.200000000000003,60.2,16
153,2658.0,-9.1,7.6000000000000005,4.7,-0.5,4.2,7.9,-13.3,16.3,62.300000000000004,16
154,2674.0,-8.0,7.800000000000001,5.1000000000000005,0.6000000000000001,4.2,8.3,-15.299999999999999,17.0,60.8,16
155,2692.0,-7.9,8.200000000000001,5.0,0.6000000000000001,4.5,8.3,-16.900000000000002,25.200000000000003,52.00000000000001,16
156,2707.0,-8.0,8.4,5.0,0.4,4.5,8.3,-16.5,21.6,48.50000000000001,16
157,2725.0,-8.1,8.3,5.4,0.2,4.3,8.8,-13.3,10.9,47.0,16
158,2742.0,-8.0,8.700000000000001,5.300000000000001,0.2,4.5,8.700000000000001,-8.2,10.0,45.6,16
159,2757.0,-7.800000000000001,9.0,5.4,0.30000000000000004,4.7,8.8,-6.1000000000000005,8.100000000000001,47.3,16
160,2774.0,-7.5,9.1,5.300000000000001,0.6000000000000001,4.7,8.700000000000001,-5.1000000000000005,11.6,49.300000000000004,16
161,2793.0,-7.300000000000001,9.3,5.7,0.7000000000000001,4.800000000000001,9.200000000000001,-11.6,31.2,53.599999999999994,16
162,2807.0,-6.9,9.700000000000001,6.0,1.0,5.1000000000000005,9.5,-14.800000000000002,41.7,56.400000000000006,16
163,2826.0,-6.2,10.4,6.6000000000000005,1.6,5.7,10.200000000000001,-14.700000000000001,42.2,56.800000000000004,16
164,2841.0,-5.800000000000001,10.600000000000001,6.9,2.0,5.800000000000001,10.5,-10.700000000000001,36.400000000000006,55.0,16
165,2861.0,-5.0,10.4,7.2,2.6,5.5,10.9,5.6,30.4,44.5,16
166,2874.0,-5.5,10.4,6.4,2.0,5.4,10.200000000000001,22.4,25.200000000000003,32.400000000000006,16
167,2891.0,-5.9,10.3,5.2,1.5,5.2,9.200000000000001,28.600000000000005,22.700000000000003,30.699999999999996,16
168,2907.0,-6.1000000000000005,10.3,4.6000000000000005,1.3,5.2,8.6,28.1,20.900000000000002,32.6,16
169,2924.0,-5.7,10.5,4.2,1.6,5.4,8.3,22.6,12.100000000000001,38.7,16
170,2941.0,-5.4,10.600000000000001,4.1000000000000005,1.8,5.4,8.3,16.900000000000002,0.4,43.4,16
171,2960.0,-4.6000000000000005,10.700000000000001,4.4,2.6,5.4,8.6,9.2,-16.3,46.0,16
172,2974.0,-3.5,10.4,4.6000000000000005,3.5,5.0,8.700000000000001,2.6,-20.8,41.7,16
173,2992.0,-3.7,10.3,4.4,3.4000000000000004,4.800000000000001,8.5,-5.1000000000000005,-17.1,32.400000000000006,16
174,3007.0,-4.1000000000000005,10.4,4.5,2.9000000000000004,4.800000000000001,8.6,-9.5,-13.000000000000002,29.200000000000003,16
175,3025.0,-5.300000000000001,10.600000000000001,4.7,1.7000000000000002,5.0,8.700000000000001,-17.200000000000003,-9.100000000000001,29.600000000000005,16
176,3041.0,-5.7,10.700000000000001,4.9,1.2000000000000002,5.1000000000000005,8.9,-18.8,-12.5,34.0,16
177,3064.0,-4.6000000000000005,11.4,6.300000000000001,2.2,5.6000000000000005,10.100000000000001,-11.900000000000002,-34.7,59.00000000000001,16
178,3074.0,-4.1000000000000005,11.600000000000001,6.5,2.7,5.7,10.3,-8.0,-42.0,63.30000000000001,16
179,3091.0,-2.9000000000000004,11.5,6.800000000000001,4.1000000000000005,5.4,10.600000000000001,-3.9,-44.00000000000001,63.599999999999994,16
180,3108.0,-2.1,11.200000000000001,6.800000000000001,4.6000000000000005,5.1000000000000005,10.4,3.4,-27.700000000000003,53.7,16
181,3124.0,-2.9000000000000004,10.9,5.7,3.8000000000000003,4.7,9.3,12.0,-1.5,31.3,16
182,3141.0,-3.6,10.700000000000001,5.1000000000000005,2.0,4.1000000000000005,8.1,15.399999999999999,8.4,19.6,16
183,3159.0,-5.2,10.200000000000001,3.9000000000000004,1.4000000000000001,3.9000000000000004,7.6000000000000005,20.900000000000002,21.0,7.500000000000001,16
184,3177.0,-6.2,10.0,3.3000000000000003,0.30000000000000004,3.7,7.1000000000000005,24.3,16.200000000000003,6.2,16
185,3192.0,-6.6000000000000005,9.700000000000001,3.1,-0.1,3.4000000000000004,7.0,25.4,4.300000000000001,12.299999999999999,16
186,3208.0,-6.0,9.5,3.3000000000000003,0.4,3.2,7.2,26.300000000000004,-5.6,19.0,16
187,3225.0,-5.300000000000001,9.3,3.4000000000000004,1.1,3.0,7.4,26.400000000000006,-14.5,25.8,16
188,3241.0,-4.4,9.4,3.7,2.0,3.1,7.7,19.700000000000003,-17.5,26.200000000000003,16
189,3258.0,-4.1000000000000005,9.700000000000001,3.9000000000000004,2.3000000000000003,3.4000000000000004,7.9,15.399999999999999,-9.899999999999999,24.1,16
190,3274.0,-3.4000000000000004,9.5,4.4,3.0,3.2,8.4,0.0,-4.6,17.400000000000002,16
191,3293.0,-3.3000000000000003,9.3,5.1000000000000005,3.0,2.9000000000000004,9.0,-12.9,8.0,5.6,16
192,3307.0,-3.6,9.0,5.2,2.7,2.6,9.1,-15.399999999999999,19.1,1.1,16
193,3324.0,-4.2,8.700000000000001,4.6000000000000005,2.1,2.3000000000000003,8.6,-15.700000000000001,33.9,-2.3,16
194,3341.0,-5.2,8.700000000000001,4.2,1.0,2.3000000000000003,8.3,-17.9,42.2,-2.6,16
195,3362.0,-4.9,9.3,3.7,1.2000000000000002,2.8000000000000003,7.9,-9.5,53.8,16.5,16
196,3375.0,-4.9,9.3,3.7,1.1,3.0,7.7,-5.8,50.8,19.700000000000003,16
197,3392.0,-4.800000000000001,9.700000000000001,3.2,1.2000000000000002,3.2,7.5,-2.1,46.800000000000004,22.9,16
198,3407.0,-4.5,10.0,2.9000000000000004,1.4000000000000001,3.6,7.1000000000000005,1.4,40.1,28.500000000000004,16
199,3424.0,-4.2,10.700000000000001,2.7,1.6,4.1000000000000005,7.1000000000000005,-1.6,41.1,35.599999999999994,16
200,3441.0,-4.0,11.3,3.1,1.6,4.6000000000000005,7.6000000000000005,-6.4,38.7,42.5,16
201,3458.0,-3.7,11.5,3.3000000000000003,1.8,4.7,7.800000000000001,-7.0,35.5,44.4,16
202,3475.0,-3.0,11.600000000000001,3.6,2.4000000000000004,4.800000000000001,8.1,-4.2,23.400000000000002,45.8,16
203,3491.0,-2.5,11.8,3.7,2.8000000000000003,4.9,8.200000000000001,-2.9,19.6,44.10000000000001,16
204,3508.0,-2.0,11.9,3.7,3.2,5.0,8.3,-1.4,17.7,37.2,16
205,3524.0,-1.7000000000000002,12.0,3.7,3.4000000000000004,5.0,8.4,2.4000000000000004,18.200000000000003,29.700000000000006,16
206,3541.0,-1.3,12.0,4.0,3.7,5.0,8.6,6.9,16.4,25.7,16
207,3560.0,-1.0,11.8,4.0,3.9000000000000004,4.7,8.700000000000001,20.2,8.600000000000001,14.5,16
208,3574.0,-1.0,11.600000000000001,3.5,3.7,4.6000000000000005,8.0,32.0,0.0,-0.1,16
209,3591.0,-1.4000000000000001,11.4,2.7,3.1,4.4,7.2,34.2,-9.2,-10.9,16
210,3607.0,-2.2,11.200000000000001,1.9000000000000001,2.7,4.3,6.800000000000001,30.699999999999996,-10.9,-15.399999999999999,16
211,3624.0,-3.3000000000000003,11.200000000000001,1.8,1.7000000000000002,4.4,6.800000000000001,14.5,-16.200000000000003,-19.1,16
212,3642.0,-3.9000000000000004,11.4,2.7,1.2000000000000002,4.7,7.7,-2.9,-22.000000000000004,-11.2,16
213,3658.0,-3.9000000000000004,11.5,3.3000000000000003,1.2000000000000002,4.7,8.3,-10.1,-21.8,-3.8,16
214,3674.0,-3.3000000000000003,11.700000000000001,4.5,1.8,4.9,9.4,-18.3,-4.5,15.399999999999999,16
215,3692.0,-2.6,12.3,5.5,2.5,5.5,10.4,-21.8,17.0,33.0,16
216,3707.0,-2.3000000000000003,13.0,6.2,2.7,6.1000000000000005,11.0,-19.799999999999997,28.0,35.8,16
217,3724.0,-2.3000000000000003,13.4,6.5,2.5,6.5,11.8,-0.6000000000000001,40.4,26.9,16
218,3741.0,-2.4000000000000004,13.5,6.5,2.4000000000000004,6.5,11.4,11.900000000000002,33.300000000000004,20.7,16
219,3757.0,-2.7,13.700000000000001,6.1000000000000005,2.1,6.800000000000001,11.100000000000001,46.6,1.0,2.6,16
220,3779.0,-3.0,13.5,5.5,1.8,6.6000000000000005,10.600000000000001,72.50000000000001,-36.300000000000004,-10.0,16
221,3791.0,-2.8000000000000003,13.4,5.2,2.1,6.6000000000000005,10.4,71.9,-49.800000000000004,-11.3,16
222,3807.0,-2.3000000000000003,12.600000000000001,5.2,2.6,5.9,10.5,45.3,-41.900000000000006,-6.9,16
223,3824.0,-2.5,11.700000000000001,5.7,2.5,5.1000000000000005,11.0,12.600000000000001,-20.3,-11.8,16
224,3842.0,-3.4000000000000004,10.5,6.5,1.6,3.9000000000000004,11.8,5.2,-19.6,-9.5,16
225,3857.0,-3.7,10.0,6.4,1.4000000000000001,3.4000000000000004,11.600000000000001,16.3,-16.8,-3.7000000000000006,16
226,3878.0,-3.8000000000000003,9.3,5.300000000000001,1.3,2.8000000000000003,10.600000000000001,55.900000000000006,-4.800000000000001,5.500000000000001,16
227,3892.0,-3.2,9.0,3.4000000000000004,1.9000000000000001,2.6,8.8,92.2,-19.6,14.200000000000001,16
228,3907.0,-2.8000000000000003,9.1,2.5,2.3000000000000003,2.8000000000000003,8.0,101.20000000000002,-37.400000000000006,15.899999999999999,16
229,3924.0,-2.4000000000000004,9.1,0.8,2.8000000000000003,2.9000000000000004,6.4,97.7,-64.50000000000001,22.2,16
230,3942.0,-2.2,9.1,0.2,3.1,3.3000000000000003,5.5,67.7,-75.7,27.9,16
231,3958.0,-2.0,9.3,-0.4,3.3000000000000003,3.4000000000000004,5.300000000000001,49.300000000000004,-64.7,27.6,16
232,3975.0,-2.0,8.9,-0.6000000000000001,3.4000000000000004,3.0,5.1000000000000005,7.500000000000001,-31.5,26.700000000000003,16
233,3991.0,-2.7,8.8,-0.1,2.6,2.8000000000000003,5.5,-37.300000000000004,10.700000000000001,28.800000000000004,16
234,4007.0,-2.4000000000000004,9.1,0.7000000000000001,3.0,3.1,6.300000000000001,-45.7,25.0,29.900000000000006,16
235,4026.0,-2.0,8.700000000000001,2.3000000000000003,3.2,2.5,7.9,-47.7,21.300000000000004,30.699999999999996,16
236,4041.0,-2.7,9.0,3.2,2.4000000000000004,2.7,8.700000000000001,-31.2,26.799999999999997,28.3,16
237,4066.0,-2.9000000000000004,9.200000000000001,2.9000000000000004,2.0,2.7,8.4,-8.3,28.500000000000004,36.400000000000006,16
238,4074.0,-2.7,9.5,2.6,2.2,3.0,8.1,0.9000000000000001,30.4,41.4,16
239,4091.0,-2.3000000000000003,10.3,1.5,2.4000000000000004,3.7,7.1000000000000005,12.0,27.6,50.400000000000006,16
240,4112.0,-1.5,10.8,0.30000000000000004,3.1,4.2,6.0,10.5,15.000000000000002,49.1,16
241,4124.0,-1.5,10.9,0.1,3.0,4.3,5.800000000000001,6.4,7.699999999999999,45.8,16
242,4141.0,-1.4000000000000001,11.0,0.30000000000000004,3.0,4.3,6.0,-5.2,0.9000000000000001,42.0,16
243,4158.0,-1.4000000000000001,11.100000000000001,0.6000000000000001,3.0,4.4,6.300000000000001,-12.100000000000001,3.8,42.1,16
244,4176.0,-1.1,11.200000000000001,1.4000000000000001,3.2,4.4,7.0,-20.400000000000002,12.299999999999999,43.6,16
245,4191.0,-0.9,11.3,1.6,3.3000000000000003,4.4,7.2,-19.799999999999997,16.0,43.70000000000001,16
246,4207.0,-0.8,11.5,1.5,3.3000000000000003,4.6000000000000005,7.1000000000000005,-21.1,38.300000000000004,43.6,16
247,4224.0,-0.6000000000000001,12.200000000000001,1.0,3.2,5.1000000000000005,6.6000000000000005,-21.900000000000002,42.0,42.900000000000006,16
248,4241.0,-0.6000000000000001,12.5,0.9,3.0,5.5,6.6000000000000005,-27.700000000000003,28.200000000000003,34.1,16
249,4258.0,-0.7000000000000001,12.8,1.2000000000000002,2.9000000000000004,5.5,6.800000000000001,-31.400000000000002,18.200000000000003,29.600000000000005,16
250,4275.0,-0.9,12.8,2.2,2.6,5.5,7.7,-41.7,-2.5,21.300000000000004,16
251,4291.0,-0.8,12.9,3.0,2.8000000000000003,5.5,9.0,-44.300000000000004,-7.300000000000001,20.1,16
252,4307.0,-0.30000000000000004,12.9,4.4,3.1,5.4,9.8,-42.1,-9.3,20.599999999999998,16
253,4324.0,0.8,12.9,5.2,4.2,5.4,10.5,-31.2,-10.600000000000001,21.200000000000003,16
254,4343.0,2.0,13.100000000000001,5.300000000000001,5.4,5.5,10.4,-22.700000000000003,-16.4,17.5,16
255,4357.0,2.3000000000000003,13.200000000000001,5.2,5.6000000000000005,5.5,10.3,-24.0,-21.1,13.200000000000003,16
256,4375.0,2.2,13.3,5.300000000000001,5.6000000000000005,5.5,10.200000000000001,-42.400000000000006,-26.6,2.8,16
257,4393.0,1.3,13.200000000000001,6.9,4.7,5.4,11.700000000000001,-70.9,-17.5,-4.300000000000001,16
258,4407.0,0.5,13.0,8.5,3.9000000000000004,5.1000000000000005,13.200000000000001,-78.60000000000001,-6.699999999999999,-4.6,16
259,4424.0,-0.1,12.700000000000001,10.100000000000001,3.4000000000000004,4.7,14.600000000000001,-66.80000000000001,16.8,11.000000000000002,16
260,4441.0,0.4,12.5,10.200000000000001,4.6000000000000005,4.2,14.0,-25.4,39.1,25.300000000000004,16
261,4457.0,1.3,12.3,9.700000000000001,5.4,4.0,12.9,2.4000000000000004,46.199999999999996,24.599999999999998,16
262,4474.0,2.2,11.600000000000001,5.2,5.300000000000001,3.5,9.600000000000001,52.5,41.800000000000004,3.1,16
263,4494.0,1.1,11.0,1.8,4.2,3.0,6.4,69.60000000000001,29.200000000000003,-17.400000000000002,16
264,4507.0,0.7000000000000001,10.700000000000001,0.6000000000000001,3.8000000000000003,2.7,5.300000000000001,64.80000000000001,28.500000000000004,-22.9,16
265,4524.0,0.2,9.9,-0.5,3.4000000000000004,2.1,4.5,34.400000000000006,30.1,-28.1,16
266,4541.0,0.30000000000000004,9.600000000000001,-0.6000000000000001,3.8000000000000003,1.4000000000000001,4.7,21.0,27.5,-27.2,16
267,4557.0,0.8,8.8,0.0,4.0,1.1,5.1000000000000005,-2.6,14.100000000000001,-23.900000000000006,16
268,4574.0,1.3,8.3,1.2000000000000002,4.6000000000000005,0.6000000000000001,6.300000000000001,-17.1,3.9,-20.599999999999998,16
269,4591.0,1.6,8.1,1.6,4.9,0.4,6.7,-20.8,3.5,-19.300000000000004,16
270,4607.0,1.8,8.200000000000001,2.3000000000000003,5.1000000000000005,0.5,7.300000000000001,-23.099999999999998,10.600000000000001,-17.9,16
271,4624.0,1.3,8.8,2.7,4.6000000000000005,1.0,7.7,-20.2,18.4,-17.6,16
272,4641.0,1.0,9.0,2.8000000000000003,3.9000000000000004,1.5,7.6000000000000005,-16.6,20.8,-16.8,16
273,4657.0,0.1,9.600000000000001,2.4000000000000004,3.5,1.8,7.4,-5.500000000000001,21.0,-13.8,16
274,4674.0,-0.5,10.4,1.7000000000000002,2.8000000000000003,2.6,6.7,4.4,13.3,-8.8,16
275,4692.0,-0.7000000000000001,10.9,1.3,2.6,3.2,6.300000000000001,5.7,3.0,-3.5,16
276,4709.0,-0.6000000000000001,11.200000000000001,1.3,2.7,3.4000000000000004,6.300000000000001,2.8,2.4000000000000004,-0.9000000000000001,16
277,4724.0,-0.4,11.700000000000001,2.0,2.9000000000000004,3.9000000000000004,7.0,-4.300000000000001,3.9,-0.9000000000000001,16
278,4741.0,-0.4,11.700000000000001,2.0,3.1,4.2,7.800000000000001,-5.2,5.1000000000000005,-2.6,16
279,4760.0,-0.5,12.0,3.1,2.9000000000000004,4.3,8.1,0.7,7.9,-9.4,16
280,4778.0,-1.3,12.4,3.0,2.0,4.6000000000000005,8.0,13.6,1.1,-12.200000000000001,16
281,4791.0,-0.9,12.3,1.9000000000000001,2.5,4.6000000000000005,6.9,22.9,-15.299999999999999,-4.300000000000001,16
282,4807.0,-1.5,12.8,2.5,1.9000000000000001,5.1000000000000005,7.6000000000000005,21.1,-31.0,-3.2,16
283,4824.0,-1.8,14.0,2.8000000000000003,1.6,6.300000000000001,7.9,19.9,-27.700000000000003,3.6000000000000005,16
284,4842.0,-1.3,14.200000000000001,3.1,2.1,6.6000000000000005,8.200000000000001,14.800000000000002,-15.5,10.5,16
285,4857.0,-1.3,14.3,3.3000000000000003,2.2,6.7,8.5,12.8,-3.6000000000000005,13.3,16
286,4874.0,-0.9,14.5,4.3,2.6,7.0,9.5,9.4,22.8,24.3,16
287,4891.0,-0.6000000000000001,15.100000000000001,4.800000000000001,3.2,7.6000000000000005,10.5,12.9,33.50000000000001,31.099999999999998,16
288,4907.0,0.6000000000000001,15.3,5.800000000000001,3.8000000000000003,7.7,11.100000000000001,16.1,30.699999999999996,31.7,16
289,4924.0,1.5,14.700000000000001,7.0,4.7,7.1000000000000005,12.3,20.900000000000002,15.100000000000001,27.2,16
290,4942.0,2.8000000000000003,13.4,8.4,5.800000000000001,5.800000000000001,13.9,17.400000000000002,-2.6,25.200000000000003,16
291,4962.0,3.7,12.700000000000001,8.700000000000001,6.7,5.1000000000000005,14.200000000000001,16.3,0.2,27.800000000000004,16
292,4976.0,5.300000000000001,11.3,8.3,8.200000000000001,3.7,13.8,18.6,17.200000000000003,15.5,16
293,4991.0,4.3,10.4,7.4,7.2,2.8000000000000003,13.0,17.400000000000002,32.400000000000006,-7.400000000000001,16
294,5008.0,3.3000000000000003,9.8,6.7,6.1000000000000005,2.2,12.3,18.3,37.2,-16.700000000000003,16
295,5024.0,1.7000000000000002,8.8,4.9,4.5,1.3,10.600000000000001,27.400000000000002,43.300000000000004,-28.400000000000002,16
296,5041.0,0.2,8.3,2.5,3.0,0.9,8.4,45.5,41.199999999999996,-32.300000000000004,16
297,5063.0,-0.9,8.3,-0.1,1.9000000000000001,1.0,5.9,54.0,25.300000000000004,-29.900000000000006,16
298,5075.0,-1.3,8.3,-1.1,1.6,1.1,5.0,52.5,14.200000000000001,-27.6,16
299,5091.0,-1.8,8.5,-2.5,1.1,1.4000000000000001,3.6,34.60000000000001,-8.8,-21.400000000000002,16
300,5108.0,-1.5,8.5,-2.6,1.4000000000000001,1.5,3.7,20.0,-17.7,-17.400000000000002,16
301,5124.0,-1.3,8.6,-2.0,1.7000000000000002,1.7000000000000002,4.3,-8.2,-26.6,-13.3,16
302,5141.0,-1.2000000000000002,8.5,-1.4000000000000001,2.1,1.4000000000000001,5.7,-22.000000000000004,-29.500000000000004,-12.200000000000001,16
303,5157.0,-1.0,8.5,0.1,2.1,1.5,6.2,-37.7,-23.5,-13.5,16
304,5176.0,-1.7000000000000002,8.700000000000001,0.8,1.5,1.7000000000000002,6.7,-42.0,-19.300000000000004,-15.100000000000001,16
305,5191.0,-2.4000000000000004,9.200000000000001,1.4000000000000001,0.9,2.0,7.300000000000001,-46.9,-16.4,-11.2,16
306,5208.0,-2.6,9.5,1.8,0.7000000000000001,2.3000000000000003,7.6000000000000005,-49.300000000000004,-16.200000000000003,-7.9,16
307,5224.0,-2.6,10.0,2.7,0.8,2.8000000000000003,8.4,-51.70000000000001,-16.0,-0.6000000000000001,16
308,5245.0,-2.3000000000000003,10.4,3.5,1.1,3.0,9.0,-49.4,-14.0,5.1000000000000005,16
309,5258.0,-2.3000000000000003,10.4,3.9000000000000004,1.1,3.0,9.3,-46.0,-8.2,6.9,16
310,5274.0,-2.5,10.700000000000001,4.0,0.9,3.1,9.3,-33.9,7.9,9.899999999999999,16
311,5291.0,-2.7,11.0,3.6,0.6000000000000001,3.6,8.4,-20.400000000000002,13.700000000000001,14.5,16
312,5307.0,-2.5,11.5,2.6,0.8,3.9000000000000004,7.800000000000001,-15.399999999999999,9.3,16.3,16
313,5324.0,-2.2,12.5,2.3000000000000003,1.0,4.9,7.5,-16.5,-14.400000000000002,19.700000000000003,16
314,5341.0,-1.1,12.8,3.1,2.1,5.1000000000000005,8.200000000000001,-25.900000000000002,-29.800000000000004,16.0,16
315,5357.0,-0.8,12.9,3.7,2.4000000000000004,5.2,8.8,-29.700000000000006,-29.1,12.4,16
316,5374.0,-0.6000000000000001,13.0,5.1000000000000005,2.6,5.2,10.100000000000001,-29.400000000000002,-17.0,5.6,16
317,5391.0,-0.6000000000000001,13.100000000000001,5.800000000000001,2.7,5.5,10.8,-17.5,1.8000000000000003,4.2,16
318,5407.0,-0.5,13.600000000000001,5.800000000000001,2.8000000000000003,5.7,10.700000000000001,-7.9,4.0,3.5,16
319,5424.0,0.30000000000000004,14.0,4.9,3.5,6.1000000000000005,9.700000000000001,12.7,-6.4,-0.30000000000000004,16
320,5441.0,1.2000000000000002,14.4,3.6,4.5,6.5,8.4,22.4,-25.200000000000003,-10.8,16
321,5457.0,1.5,14.5,3.3000000000000003,4.800000000000001,6.6000000000000005,8.200000000000001,22.1,-34.400000000000006,-18.0,16
322,5475.0,1.7000000000000002,14.5,3.3000000000000003,5.1000000000000005,6.7,8.200000000000001,15.299999999999999,-46.800000000000004,-32.1,16
323,5500.0,1.9000000000000001,14.100000000000001,3.8000000000000003,5.5,6.4,8.700000000000001,6.2,-47.80000000000001,-40.800000000000004,16
324,5507.0,2.1,14.0,4.0,5.800000000000001,6.300000000000001,8.9,1.8000000000000003,-46.1,-44.9,16
325,5524.0,1.7000000000000002,13.3,4.4,5.6000000000000005,5.7,9.200000000000001,-6.2,-42.60000000000001,-55.0,16
326,5541.0,0.5,12.9,4.3,4.7,5.300000000000001,9.1,-20.2,-35.2,-65.0,16
327,5557.0,-0.1,12.700000000000001,4.7,4.1000000000000005,5.1000000000000005,9.4,-32.5,-32.5,-69.3,16
328,5575.0,-1.8,11.700000000000001,6.800000000000001,2.7,4.3,11.3,-58.5,-25.7,-72.30000000000001,16
329,5591.0,-2.6,11.3,7.9,2.0,3.8000000000000003,12.3,-59.60000000000001,-22.3,-68.4,16
330,5607.0,-3.0,10.4,9.1,1.8,2.9000000000000004,13.3,-43.800000000000004,-13.200000000000003,-52.300000000000004,16
331,5624.0,-2.9000000000000004,9.4,8.700000000000001,2.0,2.0,12.8,-13.6,-9.8,-38.800000000000004,16
332,5641.0,-2.4000000000000004,8.8,6.7,2.6,1.4000000000000001,10.8,16.4,-10.600000000000001,-30.699999999999996,16
333,5658.0,-2.3000000000000003,8.700000000000001,5.7,2.8000000000000003,1.3,9.8,25.300000000000004,-10.5,-30.4,16
334,5674.0,-2.1,8.5,3.8000000000000003,3.1,1.2000000000000002,7.9,26.700000000000003,-4.0,-32.9,16
335,5692.0,-1.9000000000000001,8.200000000000001,3.2,3.5,0.8,7.1000000000000005,17.200000000000003,6.0,-37.1,16
336,5707.0,-1.7000000000000002,7.6000000000000005,2.6,3.6,0.6000000000000001,6.9,13.399999999999999,9.5,-39.0,16
337,5724.0,-1.6,7.0,2.2,3.8000000000000003,0.0,6.5,8.5,12.100000000000001,-41.0,16
338,5743.0,-1.9000000000000001,6.9,1.7000000000000002,3.5,0.0,6.0,3.7000000000000006,14.300000000000002,-39.9,16
339,5759.0,-2.0,6.9,1.4000000000000001,3.5,0.1,5.7,0.0,12.7,-38.300000000000004,16
340,5774.0,-2.1,6.9,1.1,3.4000000000000004,0.30000000000000004,5.2,-10.5,6.2,-34.300000000000004,16
341,5791.0,-2.4000000000000004,7.2,0.8,3.3000000000000003,0.5,5.2,-24.900000000000002,1.6,-29.800000000000004,16
342,5807.0,-2.5,7.5,1.0,3.2,0.8,5.4,-31.6,0.30000000000000004,-27.099999999999998,16
343,5824.0,-2.5,8.200000000000001,1.6,3.2,1.5,5.9,-40.2,-2.6,-21.300000000000004,16
344,5842.0,-2.4000000000000004,9.1,2.2,3.3000000000000003,2.3000000000000003,6.4,-42.800000000000004,-3.6000000000000005,-16.5,16
345,5857.0,-2.4000000000000004,9.4,2.5,3.4000000000000004,2.6,6.6000000000000005,-42.1,-2.3,-15.5,16
346,5876.0,-2.4000000000000004,10.0,3.0,3.4000000000000004,3.2,7.0,-37.400000000000006,-1.1,-15.299999999999999,16
347,5891.0,-2.6,10.600000000000001,3.2,3.2,3.8000000000000003,7.1000000000000005,-34.300000000000004,1.5,-14.700000000000001,16
348,5907.0,-2.2,11.200000000000001,3.5,3.7,4.4,7.300000000000001,-34.0,2.6,-15.000000000000002,16
349,5924.0,-2.5,11.5,4.1000000000000005,3.4000000000000004,4.7,7.800000000000001,-30.000000000000004,1.9,-20.400000000000002,16
350,5942.0,-2.3000000000000003,11.600000000000001,4.3,3.7,4.800000000000001,8.1,-23.800000000000004,1.1,-24.5,16
351,5958.0,-2.1,11.8,4.4,4.0,5.0,8.1,-21.6,5.2,-27.5,16
352,5974.0,-2.6,11.700000000000001,4.6000000000000005,3.4000000000000004,4.9,8.3,-16.0,17.5,-39.0,16
353,5991.0,-3.5,12.100000000000001,4.7,2.2,5.4,8.5,-13.5,24.900000000000002,-45.9,16
354,6007.0,-4.6000000000000005,11.9,5.0,1.6,5.300000000000001,8.700000000000001,-10.5,24.200000000000003,-45.2,16
355,6024.0,-5.300000000000001,12.100000000000001,5.1000000000000005,1.0,5.5,8.8,-3.5,21.300000000000004,-37.6,16
356,6041.0,-5.2,12.200000000000001,5.1000000000000005,1.1,5.7,8.8,-0.7,17.400000000000002,-31.6,16
357,6058.0,-4.5,12.600000000000001,5.2,1.8,6.2,9.0,0.4,11.8,-23.099999999999998,16
358,6077.0,-4.3,13.3,5.800000000000001,2.1,6.9,9.700000000000001,-4.7,12.5,-21.400000000000002,16
359,6091.0,-4.0,13.700000000000001,6.7,2.4000000000000004,7.4,10.600000000000001,-11.1,10.600000000000001,-22.8,16
360,6107.0,-3.9000000000000004,13.700000000000001,7.2,2.5,7.4,11.100000000000001,-13.200000000000003,11.700000000000001,-25.4,16
361,6124.0,-4.3,13.4,8.0,2.1,7.1000000000000005,11.9,-9.4,21.300000000000004,-28.200000000000003,16
362,6141.0,-4.800000000000001,12.9,7.7,1.7000000000000002,6.6000000000000005,11.600000000000001,1.5,26.6,-27.0,16
363,6158.0,-4.9,12.200000000000001,7.4,1.7000000000000002,6.0,11.3,3.1,21.300000000000004,-27.5,16
364,6174.0,-4.3,11.0,8.1,2.3000000000000003,4.800000000000001,12.0,-5.8,-2.6,-28.800000000000004,16
365,6193.0,-3.3000000000000003,9.200000000000001,9.700000000000001,3.4000000000000004,3.1,13.600000000000001,-11.4,-19.300000000000004,-31.0,16
366,6207.0,-2.8000000000000003,8.200000000000001,10.100000000000001,3.9000000000000004,2.2,14.0,-7.8,-20.5,-32.6,16
367,6226.0,-3.0,6.800000000000001,9.5,3.8000000000000003,0.8,13.4,8.0,-5.7,-35.699999999999996,16
368,6240.0,-4.0,6.1000000000000005,7.6000000000000005,2.8000000000000003,0.2,11.5,22.9,16.4,-35.8,16
369,6258.0,-4.6000000000000005,5.9,6.6000000000000005,2.3000000000000003,0.1,10.5,29.300000000000004,20.3,-33.50000000000001,16
370,6274.0,-5.1000000000000005,5.800000000000001,4.4,1.8,0.1,8.4,36.7,9.0,-26.300000000000004,16
371,6296.0,-5.4,6.2,2.7,1.6,0.6000000000000001,6.800000000000001,30.599999999999998,-15.6,-19.1,16
372,6307.0,-5.2,6.300000000000001,2.5,1.8,0.8,6.6000000000000005,19.799999999999997,-26.1,-16.0,16
373,6324.0,-4.4,6.300000000000001,3.7,2.6,0.8,7.800000000000001,-13.100000000000001,-27.099999999999998,-12.299999999999999,16
374,6340.0,-3.9000000000000004,6.2,5.5,3.1,0.7000000000000001,9.4,-36.300000000000004,-10.700000000000001,-16.700000000000003,16
375,6357.0,-4.0,6.2,5.5,2.9000000000000004,0.6000000000000001,9.9,-39.699999999999996,-2.0,-21.400000000000002,16
376,6374.0,-5.7,5.9,5.800000000000001,1.4000000000000001,0.5,9.700000000000001,-31.2,12.4,-25.1,16
377,6391.0,-6.9,6.1000000000000005,5.0,0.30000000000000004,0.6000000000000001,8.9,-17.200000000000003,7.0,-14.400000000000002,16
378,6407.0,-7.2,6.300000000000001,4.6000000000000005,0.0,0.8,8.4,-9.899999999999999,0.7,-6.500000000000001,16
379,6429.0,-6.7,6.9,3.9000000000000004,0.5,1.4000000000000001,7.7,2.7,-12.7,7.200000000000001,16
380,6441.0,-5.9,7.300000000000001,3.1,1.3,1.9000000000000001,6.9,9.700000000000001,-14.900000000000002,11.6,16
381,6458.0,-5.7,7.6000000000000005,2.8000000000000003,1.5,2.2,6.6000000000000005,10.200000000000001,-12.7,10.5,16
382,6474.0,-5.7,7.800000000000001,2.3000000000000003,1.4000000000000001,2.4000000000000004,5.9,6.8,-9.600000000000001,6.300000000000001,16
383,6491.0,-6.0,8.200000000000001,1.8,1.3,2.9000000000000004,5.6000000000000005,-1.7,-13.5,3.9,16
384,6507.0,-5.7,8.6,2.0,1.5,3.1,5.800000000000001,-7.500000000000001,-17.300000000000004,2.8,16
385,6525.0,-5.2,8.9,2.9000000000000004,2.1,3.4000000000000004,6.5,-18.1,-24.7,-2.4000000000000004,16
386,6541.0,-4.7,8.9,4.1000000000000005,2.6,3.4000000000000004,7.7,-25.1,-28.400000000000002,-11.700000000000001,16
387,6557.0,-4.7,9.0,4.7,2.6,3.5,8.200000000000001,-26.6,-25.6,-17.0,16
388,6574.0,-5.0,9.200000000000001,5.5,2.4000000000000004,3.7,8.9,-25.5,-18.8,-26.799999999999997,16
389,6591.0,-5.2,9.3,5.9,2.2,3.9000000000000004,9.200000000000001,-22.3,-17.9,-34.400000000000006,16
390,6607.0,-5.4,9.4,6.0,2.1,3.9000000000000004,9.200000000000001,-20.900000000000002,-18.6,-37.2,16
391,6624.0,-5.800000000000001,9.5,6.4,1.8,4.1000000000000005,9.600000000000001,-19.700000000000003,-23.3,-40.2,16
392,6641.0,-5.7,9.600000000000001,7.1000000000000005,2.0,4.4,10.200000000000001,-18.6,-27.9,-38.1,16
393,6657.0,-5.7,9.8,7.5,2.1,4.6000000000000005,10.5,-16.900000000000002,-29.600000000000005,-36.8,16
394,6674.0,-5.5,10.3,8.200000000000001,2.3000000000000003,5.2,11.200000000000001,-10.8,-32.9,-33.6,16
395,6691.0,-5.2,10.9,8.8,2.8000000000000003,5.9,11.600000000000001,-2.9,-38.400000000000006,-29.200000000000003,16
396,6707.0,-4.7,11.3,9.0,3.2,6.300000000000001,11.8,1.8000000000000003,-44.2,-27.099999999999998,16
397,6727.0,-3.2,11.3,9.200000000000001,4.800000000000001,6.4,11.9,10.8,-58.400000000000006,-26.700000000000003,16
398,6741.0,-2.2,10.700000000000001,8.4,6.0,5.9,10.9,8.5,-64.80000000000001,-41.0,16
399,6757.0,-2.2,10.4,8.1,6.1000000000000005,5.7,10.600000000000001,-2.2,-64.7,-54.0,16
400,6775.0,-3.8000000000000003,9.200000000000001,8.6,4.6000000000000005,4.6000000000000005,10.8,-40.4,-53.0,-83.89999999999999,16
401,6791.0,-6.0,7.1000000000000005,11.8,2.5,2.7,13.8,-76.4,-28.900000000000002,-97.50000000000001,16
402,6807.0,-7.1000000000000005,5.7,13.3,1.5,1.4000000000000001,15.200000000000001,-77.7,-15.5,-95.69999999999999,16
403,6824.0,-8.4,3.4000000000000004,14.0,0.4,-0.6000000000000001,15.8,-48.9,14.900000000000002,-72.10000000000001,16
404,6840.0,-8.4,2.7,12.100000000000001,0.5,-1.1,13.8,11.3,32.9,-45.6,16
405,6857.0,-8.200000000000001,2.6,10.3,0.7000000000000001,-1.1,12.200000000000001,44.00000000000001,23.2,-33.800000000000004,16
406,6874.0,-7.300000000000001,2.7,6.2,1.6,-0.9,8.1,82.9,-0.8,-15.399999999999999,16
407,6891.0,-6.5,3.3000000000000003,3.1,2.4000000000000004,-0.30000000000000004,5.1000000000000005,70.10000000000001,-9.600000000000001,-8.4,16
408,6907.0,-6.2,3.5,2.3000000000000003,2.7,0.0,4.4,52.00000000000001,-5.7,-9.600000000000001,16
409,6924.0,-6.0,3.6,2.3000000000000003,2.9000000000000004,0.1,4.4,14.100000000000001,2.4000000000000004,-14.0,16
410,6941.0,-6.1000000000000005,3.5,2.5,2.6,0.0,5.2,-0.7,5.4,-16.6,16
411,6957.0,-6.6000000000000005,3.6,3.5,2.3000000000000003,0.2,5.6000000000000005,-16.5,12.299999999999999,-16.8,16
412,6974.0,-7.4,4.2,3.8000000000000003,1.6,0.9,6.0,-13.900000000000002,0.30000000000000004,-11.900000000000002,16
413,6991.0,-7.2,4.5,3.4000000000000004,1.6,1.4000000000000001,5.4,-8.700000000000001,-12.600000000000001,-7.8,16
414,7007.0,-7.4,5.2,3.0,1.6,2.0,5.1000000000000005,-5.2,-27.400000000000002,-1.8000000000000003,16
415,7024.0,-7.300000000000001,6.1000000000000005,2.8000000000000003,1.7000000000000002,2.8000000000000003,4.800000000000001,-12.9,-26.9,5.0,16
416,7041.0,-6.5,6.5,3.1,3.6,3.4000000000000004,5.7,-20.3,-25.300000000000004,7.6,16
417,7057.0,-5.0,6.7,4.5,4.0,3.3000000000000003,6.4,-33.300000000000004,-22.3,1.5,16
418,7074.0,-5.2,6.800000000000001,5.800000000000001,3.8000000000000003,3.4000000000000004,7.6000000000000005,-36.6,-23.900000000000006,-12.5,16
419,7091.0,-5.5,6.7,6.800000000000001,3.5,3.4000000000000004,8.4,-36.400000000000006,-22.5,-18.0,16
420,7107.0,-5.4,6.6000000000000005,7.4,3.7,3.3000000000000003,9.0,-35.1,-21.300000000000004,-18.0,16
421,7124.0,-4.800000000000001,6.6000000000000005,8.5,4.3,3.3000000000000003,10.0,-28.900000000000002,-7.1000000000000005,-17.7,16
422,7141.0,-5.0,6.9,8.200000000000001,4.2,3.7,9.600000000000001,-15.000000000000002,11.2,-21.200000000000003,16
423,7158.0,-5.300000000000001,7.1000000000000005,7.7,3.8000000000000003,3.9000000000000004,9.200000000000001,-4.800000000000001,14.0,-24.400000000000002,16
424,7174.0,-5.7,7.2,6.5,3.5,4.1000000000000005,8.0,4.9,9.5,-27.6,16
425,7192.0,-6.7,7.300000000000001,5.1000000000000005,2.5,4.3,6.6000000000000005,9.100000000000001,-7.6,-32.400000000000006,16
426,7208.0,-7.1000000000000005,7.300000000000001,4.4,2.1,4.3,5.9,6.2,-12.4,-33.0,16
427,7224.0,-6.6000000000000005,7.2,4.6000000000000005,2.7,4.3,6.1000000000000005,-10.9,-10.700000000000001,-34.900000000000006,16
428,7240.0,-7.0,7.1000000000000005,5.5,1.8,4.5,8.200000000000001,-30.699999999999996,7.200000000000001,-43.70000000000001,16
429,7257.0,-8.0,7.2,7.6000000000000005,1.3,4.6000000000000005,9.0,-36.5,24.599999999999998,-42.400000000000006,16
430,7275.0,-8.700000000000001,6.800000000000001,9.3,0.7000000000000001,4.2,10.8,-30.799999999999997,40.800000000000004,-34.1,16
431,7291.0,-8.5,6.800000000000001,9.200000000000001,0.8,4.3,10.8,-2.4000000000000004,20.8,-21.6,16
432,7307.0,-8.5,6.800000000000001,9.200000000000001,0.8,4.3,10.8,-2.4000000000000004,20.8,-21.6,16
433,7324.0,-7.1000000000000005,7.300000000000001,8.700000000000001,2.2,4.9,10.4,22.6,-22.700000000000003,-13.399999999999999,16
434,7341.0,-6.7,7.6000000000000005,9.5,2.7,5.300000000000001,11.100000000000001,12.9,0.9000000000000001,-12.299999999999999,16
435,7357.0,-6.6000000000000005,7.800000000000001,9.700000000000001,2.8000000000000003,5.5,11.3,6.8,17.200000000000003,-11.900000000000002,16
436,7374.0,-7.5,8.3,9.600000000000001,1.9000000000000001,6.0,11.3,-1.7,43.300000000000004,-13.8,16
437,7391.0,-6.6000000000000005,9.600000000000001,9.0,2.8000000000000003,7.4,10.9,1.8000000000000003,50.5,0.2,16
438,7409.0,-6.1000000000000005,8.6,9.1,3.3000000000000003,6.300000000000001,11.0,6.500000000000001,31.5,4.1,16
439,7424.0,-6.4,7.9,7.800000000000001,3.0,5.7,9.8,14.300000000000002,23.6,-11.6,16
440,7441.0,-7.0,5.4,7.1000000000000005,2.4000000000000004,3.3000000000000003,9.200000000000001,-3.2,13.399999999999999,-24.400000000000002,16
441,7457.0,-7.4,5.0,7.7,1.9000000000000001,2.9000000000000004,9.8,-20.5,19.799999999999997,-26.6,16
442,7474.0,-8.0,4.1000000000000005,9.0,1.4000000000000001,2.0,11.100000000000001,-37.300000000000004,32.9,-12.5,16
443,7492.0,-7.7,3.1,9.200000000000001,1.6,1.1,11.4,-37.0,59.20000000000001,0.30000000000000004,16
444,7507.0,-7.4,2.9000000000000004,8.700000000000001,1.9000000000000001,0.8,11.100000000000001,-31.099999999999998,79.00000000000001,5.2,16
445,7524.0,-6.9,2.6,7.4,2.3000000000000003,0.5,10.0,-5.9,90.1,3.3000000000000007,16
446,7542.0,-8.3,2.8000000000000003,6.1000000000000005,0.9,0.7000000000000001,9.0,22.700000000000003,59.1,-8.600000000000001,16
447,7560.0,-9.1,2.9000000000000004,5.5,-0.6000000000000001,0.9,7.9,34.800000000000004,39.400000000000006,-10.200000000000001,16
448,7574.0,-10.0,3.1,4.6000000000000005,-0.9,1.1,7.7,45.3,3.3000000000000007,-1.9,16
449,7591.0,-10.0,3.5,4.1000000000000005,-0.9,1.5,7.2,39.0,-14.5,13.3,16
450,7607.0,-9.5,3.8000000000000003,3.9000000000000004,-0.4,1.8,7.0,30.1,-15.5,19.300000000000004,16
451,7625.0,-8.8,4.1000000000000005,4.2,0.30000000000000004,2.0,7.300000000000001,6.500000000000001,-11.900000000000002,24.0,16
452,7641.0,-8.3,4.0,5.7,0.8,1.9000000000000001,8.700000000000001,-13.200000000000003,5.6,23.400000000000002,16
453,7658.0,-8.1,4.0,6.300000000000001,1.0,1.8,9.4,-17.6,16.200000000000003,21.6,16
454,7674.0,-7.6000000000000005,4.0,6.6000000000000005,1.4000000000000001,1.7000000000000002,9.700000000000001,-11.2,30.4,13.8,16
455,7691.0,-8.0,4.0,6.5,0.9,1.9000000000000001,9.600000000000001,-4.0,43.1,10.8,16
456,7707.0,-8.0,4.2,6.300000000000001,0.5,1.6,8.8,-1.2000000000000002,43.800000000000004,9.8,16
457,7724.0,-8.700000000000001,4.5,4.3,0.2,2.2,7.7,-6.9,48.6,8.3,16
458,7741.0,-9.1,4.0,4.0,-0.4,1.4000000000000001,7.2,-14.400000000000002,53.8,8.700000000000001,16
459,7758.0,-9.4,3.9000000000000004,3.8000000000000003,-0.6000000000000001,1.6,7.5,-37.2,66.2,15.100000000000001,16
460,7774.0,-9.8,3.7,4.5,-1.1,1.2000000000000002,8.3,-58.900000000000006,92.39999999999999,26.6,16
461,7791.0,-9.600000000000001,4.6000000000000005,5.300000000000001,-1.1,1.9000000000000001,9.3,-63.0,95.69999999999999,35.1,16
462,7807.0,-9.5,4.7,5.2,-0.7000000000000001,1.9000000000000001,9.5,-57.49999999999999,92.39999999999999,36.7,16
463,7824.0,-8.200000000000001,5.2,4.5,0.0,2.3000000000000003,8.9,-42.400000000000006,80.0,30.200000000000003,16
464,7841.0,-8.1,5.800000000000001,3.3000000000000003,0.0,2.7,7.9,-33.800000000000004,62.4,13.100000000000001,16
465,7857.0,-8.3,6.2,3.2,-0.2,3.0,7.9,-34.60000000000001,51.0,3.8,16
466,7874.0,-8.8,6.6000000000000005,4.4,-0.8,3.4000000000000004,9.1,-36.7,28.500000000000004,-7.9,16
467,7891.0,-9.600000000000001,6.2,5.6000000000000005,-1.6,3.0,10.3,-29.400000000000002,5.7,-14.300000000000002,16
468,7907.0,-10.3,5.7,6.2,-2.3000000000000003,2.5,10.9,-26.200000000000003,2.7,-12.9,16
469,7924.0,-11.0,5.7,6.5,-3.1,2.5,11.200000000000001,-27.099999999999998,24.400000000000002,1.5,16
470,7941.0,-11.100000000000001,5.800000000000001,7.1000000000000005,-2.1,3.5,13.0,-35.0,47.2,6.600000000000001,16
471,7961.0,-10.200000000000001,6.0,9.200000000000001,-2.6,2.5,15.9,-53.10000000000001,71.30000000000001,12.0,16
472,7974.0,-10.4,5.9,10.9,-2.6,2.3000000000000003,16.900000000000002,-45.7,54.699999999999996,16.700000000000003,16
473,7991.0,-9.1,5.5,12.8,-1.6,1.9000000000000001,17.900000000000002,-4.2,50.5,16.8,16
474,8007.0,-8.1,5.4,12.3,-0.6000000000000001,1.8,17.5,30.599999999999998,39.599999999999994,11.3,16
475,8024.0,-7.800000000000001,5.300000000000001,10.8,-0.5,1.6,13.5,93.10000000000001,13.3,-3.4,16
476,8043.0,-7.4,5.300000000000001,3.5,0.0,1.9000000000000001,9.0,106.20000000000002,-4.7,-7.0,16
477,8057.0,-7.1000000000000005,5.0,2.0,0.30000000000000004,1.8,7.5,102.10000000000001,-22.9,-11.2,16
478,8074.0,-6.6000000000000005,4.2,-0.6000000000000001,0.9,1.2000000000000002,4.9,83.00000000000001,-61.7,-24.5,16
479,8091.0,-7.0,4.3,-1.2000000000000002,0.2,1.5,3.9000000000000004,69.9,-83.10000000000001,-32.7,16
480,8109.0,-8.0,4.2,-1.7000000000000002,-0.2,1.5,3.6,45.8,-119.8,-44.7,16
481,8124.0,-9.200000000000001,3.9000000000000004,-0.8,-1.1,1.4000000000000001,4.1000000000000005,23.700000000000003,-158.29999999999998,-47.1,16
482,8141.0,-9.600000000000001,3.8000000000000003,-0.2,-1.4000000000000001,1.4000000000000001,4.5,15.000000000000002,-178.0,-45.0,16
483,8157.0,-9.9,3.8000000000000003,2.5,-1.3,1.5,6.7,-6.2,-203.9,-24.7,16
484,8174.0,-7.7,4.1000000000000005,6.6000000000000005,1.2000000000000002,1.9000000000000001,10.200000000000001,-32.9,-163.10000000000002,3.6000000000000005,16
485,8194.0,-4.9,4.4,9.8,4.1000000000000005,2.1,12.9,-43.4,-97.60000000000001,-2.1,16
486,8207.0,-3.9000000000000004,4.1000000000000005,10.600000000000001,5.2,1.8,13.600000000000001,-39.9,-71.39999999999999,-19.6,16
487,8224.0,-4.3,3.3000000000000003,11.0,4.9,1.1,13.700000000000001,-23.5,-36.9,-75.5,16
488,8241.0,-4.9,2.9000000000000004,10.9,3.4000000000000004,-0.2,13.100000000000001,-16.900000000000002,-35.8,-92.50000000000001,16
489,8264.0,-6.4,1.1,10.100000000000001,2.9000000000000004,-0.7000000000000001,12.600000000000001,-7.300000000000001,-29.700000000000006,-110.2,16
490,8274.0,-7.6000000000000005,0.0,8.6,1.7000000000000002,-1.5,11.100000000000001,-1.3,-10.9,-107.4,16
491,8291.0,-8.700000000000001,-0.1,7.0,0.8,-1.3,9.5,6.0,-1.8000000000000003,-92.60000000000001,16
492,8308.0,-9.0,0.30000000000000004,5.800000000000001,0.4,-0.6000000000000001,8.200000000000001,11.1,-7.0,-82.7,16
493,8324.0,-9.1,0.30000000000000004,5.5,0.5,0.0,7.300000000000001,15.899999999999999,-33.1,-64.30000000000001,16
494,8341.0,-8.9,1.2000000000000002,4.9,0.7000000000000001,0.7000000000000001,7.2,12.0,-56.0,-52.900000000000006,16
495,8359.0,-9.0,1.2000000000000002,5.1000000000000005,0.5,0.8,7.300000000000001,8.100000000000001,-61.300000000000004,-49.300000000000004,16
496,8374.0,-9.4,1.2000000000000002,5.6000000000000005,0.2,0.9,7.7,4.6,-63.0,-45.3,16
497,8390.0,-9.4,1.2000000000000002,5.6000000000000005,0.2,0.9,7.7,4.6,-63.0,-45.3,16
498,8408.0,-9.4,1.2000000000000002,5.6000000000000005,0.1,0.9,7.9,4.6,-63.0,-45.3,16
499,8426.0,-8.8,2.3000000000000003,6.7,0.9,2.3000000000000003,8.3,10.1,-57.699999999999996,-17.200000000000003,16
500,8441.0,-8.3,2.2,7.0,1.5,2.3000000000000003,8.3,10.0,-60.00000000000001,-19.5,16
501,8457.0,-8.1,2.2,7.0,1.6,2.3000000000000003,8.200000000000001,8.700000000000001,-57.00000000000001,-22.8,16
502,8475.0,-8.3,2.2,7.1000000000000005,1.5,2.3000000000000003,8.1,0.7,-45.3,-31.9,16
503,8491.0,-8.4,2.0,7.300000000000001,1.3,2.2,8.3,-8.2,-32.5,-36.6,16
504,8507.0,-8.8,1.8,7.6000000000000005,1.0,2.2,8.5,-10.8,-25.6,-38.300000000000004,16
505,8524.0,-9.4,1.6,7.5,0.4,2.1,8.200000000000001,-10.9,-14.5,-38.60000000000001,16
506,8540.0,-9.5,1.6,7.300000000000001,0.2,2.2,8.1,-10.4,-12.200000000000001,-36.9,16
507,8557.0,-9.8,1.7000000000000002,7.1000000000000005,0.0,2.4000000000000004,7.800000000000001,-11.3,-12.100000000000001,-30.799999999999997,16
508,8576.0,-9.600000000000001,1.9000000000000001,7.300000000000001,0.1,2.7,8.0,-15.000000000000002,-14.0,-23.400000000000002,16
509,8591.0,-9.5,2.1,7.7,0.30000000000000004,3.0,8.3,-17.300000000000004,-14.300000000000002,-20.2,16
510,8607.0,-9.200000000000001,2.5,8.4,0.5,3.4000000000000004,8.9,-20.900000000000002,-8.5,-15.100000000000001,16
511,8624.0,-9.3,2.6,8.6,0.5,3.7,9.5,-21.500000000000004,0.4,-9.700000000000001,16
512,8649.0,-9.1,3.1,9.5,0.7000000000000001,4.2,10.200000000000001,-12.200000000000001,-1.9,3.7000000000000006,16
513,8657.0,-9.0,3.2,9.600000000000001,0.7000000000000001,4.2,10.200000000000001,-12.200000000000001,-1.9,3.7000000000000006,16
514,8679.0,-8.0,3.8000000000000003,10.200000000000001,1.7000000000000002,4.7,10.8,-2.3,-8.4,12.600000000000001,16
515,8690.0,-7.1000000000000005,4.3,10.600000000000001,2.7,5.2,11.200000000000001,9.2,-4.7,15.100000000000001,16
516,8709.0,-6.6000000000000005,4.6000000000000005,10.4,3.2,5.7,10.700000000000001,19.400000000000002,6.8,11.900000000000002,16
517,8724.0,-6.7,5.300000000000001,9.600000000000001,3.1,6.2,10.200000000000001,20.8,14.600000000000001,9.2,16
518,8740.0,-6.800000000000001,5.6000000000000005,9.4,3.0,6.4,10.0,18.700000000000003,25.1,6.4,16
519,8759.0,-6.9,6.1000000000000005,9.1,2.7,7.2,9.700000000000001,13.8,30.4,6.2,16
520,8776.0,-7.1000000000000005,7.0,9.0,2.7,7.800000000000001,9.8,11.1,25.1,9.5,16
521,8790.0,-6.7,7.1000000000000005,9.200000000000001,3.2,7.7,10.3,8.899999999999999,19.6,9.4,16
522,8807.0,-6.300000000000001,6.6000000000000005,9.8,3.4000000000000004,7.300000000000001,10.700000000000001,8.2,21.300000000000004,5.4,16
523,8824.0,-6.9,5.0,10.5,2.8000000000000003,5.7,11.5,9.8,26.1,-7.699999999999999,16
524,8843.0,-7.9,3.2,10.9,1.8,4.0,12.0,16.0,24.599999999999998,-17.6,16
525,8861.0,-8.200000000000001,2.6,11.0,1.5,3.4000000000000004,12.100000000000001,20.7,20.8,-19.799999999999997,16
526,8881.0,-8.9,1.0,10.8,0.8,1.9000000000000001,12.0,37.1,15.6,-18.200000000000003,16
527,8892.0,-9.4,0.4,9.9,0.30000000000000004,1.3,11.0,55.60000000000001,18.900000000000002,-11.000000000000002,16
528,8907.0,-9.600000000000001,0.30000000000000004,7.7,0.1,1.3,9.0,61.7,19.5,-6.0,16
529,8924.0,-9.3,0.4,6.1000000000000005,0.30000000000000004,1.4000000000000001,7.4,64.0,10.8,2.3,16
530,8940.0,-9.3,0.4,6.1000000000000005,0.5,1.7000000000000002,6.7,59.40000000000001,3.3000000000000007,4.5,16
531,8957.0,-8.8,0.9,4.7,0.9,1.9000000000000001,5.9,39.599999999999994,-12.8,2.4000000000000004,16
532,8974.0,-8.6,0.7000000000000001,5.1000000000000005,1.1,1.8,6.300000000000001,10.1,-18.3,-3.9,16
533,8990.0,-8.6,0.6000000000000001,5.800000000000001,1.1,1.6,6.9,-5.0,-16.6,-8.100000000000001,16
534,9007.0,-8.8,0.2,7.1000000000000005,0.9,1.2000000000000002,8.200000000000001,-31.0,-5.2,-16.200000000000003,16
535,9024.0,-9.4,-0.1,7.6000000000000005,0.30000000000000004,1.0,8.700000000000001,-34.50000000000001,4.7,-19.6,16
536,9041.0,-9.8,-0.30000000000000004,7.4,-0.1,0.9,8.5,-31.3,8.100000000000001,-16.6,16
537,9063.0,-10.100000000000001,-0.30000000000000004,7.4,-0.4,1.0,8.6,-29.500000000000004,6.600000000000001,-7.500000000000001,16
538,9074.0,-10.0,-0.30000000000000004,7.4,-0.4,1.0,8.6,-27.2,5.9,-1.2000000000000002,16
539,9093.0,-9.9,-0.2,7.4,-0.2,1.0,8.6,-18.700000000000003,6.8,11.4,16
540,9107.0,-9.8,0.1,7.1000000000000005,-0.1,1.2000000000000002,8.3,-12.8,8.100000000000001,17.9,16
541,9124.0,-9.4,0.7000000000000001,6.4,0.30000000000000004,1.8,7.7,-1.5,8.600000000000001,29.900000000000006,16
542,9141.0,-9.3,0.8,6.1000000000000005,0.4,1.9000000000000001,7.4,2.7,6.8,34.2,16
543,9162.0,-8.5,1.7000000000000002,5.300000000000001,1.1,2.6,6.6000000000000005,4.4,-6.0,41.0,16
544,9175.0,-8.5,1.8,5.300000000000001,1.3,2.8000000000000003,6.7,2.5,-9.4,40.800000000000004,16
545,9194.0,-7.800000000000001,2.6,5.9,1.9000000000000001,3.2,7.2,-2.5,-10.1,36.0,16
546,9208.0,-7.6000000000000005,2.7,6.300000000000001,2.1,3.3000000000000003,7.6000000000000005,-5.6,-5.4,32.0,16
547,9224.0,-7.800000000000001,3.0,7.1000000000000005,1.9000000000000001,3.5,8.4,-10.5,6.0,23.2,16
548,9242.0,-8.0,3.1,7.300000000000001,1.7000000000000002,3.6,8.6,-10.9,10.700000000000001,19.6,16
549,9259.0,-8.5,3.6,7.5,1.2000000000000002,4.0,8.8,-9.0,11.8,15.399999999999999,16
550,9276.0,-8.5,4.0,8.0,1.2000000000000002,4.3,9.3,-9.700000000000001,-1.2000000000000002,14.700000000000001,16
551,9293.0,-8.3,4.1000000000000005,8.700000000000001,1.4000000000000001,4.4,10.0,-10.600000000000001,-8.700000000000001,14.900000000000002,16
552,9307.0,-8.1,4.3,9.200000000000001,1.6,4.5,10.5,-11.1,-9.600000000000001,15.6,16
553,9324.0,-7.9,4.800000000000001,10.200000000000001,1.8,5.1000000000000005,11.5,-10.5,-17.1,16.200000000000003,16
554,9340.0,-7.800000000000001,5.2,10.4,1.9000000000000001,5.4,11.700000000000001,-7.699999999999999,-20.400000000000002,17.400000000000002,16
555,9359.0,-7.300000000000001,6.1000000000000005,11.0,2.5,6.2,12.200000000000001,-0.2,-38.800000000000004,22.700000000000003,16
556,9375.0,-5.800000000000001,6.5,11.600000000000001,3.9000000000000004,6.6000000000000005,12.700000000000001,10.8,-69.7,26.400000000000006,16
557,9391.0,-3.8000000000000003,5.9,11.9,6.0,5.9,12.700000000000001,21.400000000000002,-80.2,20.8,16
558,9409.0,-3.8000000000000003,6.4,12.100000000000001,5.9,6.5,12.3,21.900000000000002,-71.6,1.6,16
559,9424.0,-4.4,6.1000000000000005,11.100000000000001,5.4,6.0,11.5,17.7,-59.1,-10.4,16
560,9440.0,-5.0,6.0,11.0,4.800000000000001,5.9,11.200000000000001,8.8,-46.0,-23.3,16
561,9461.0,-7.6000000000000005,4.9,11.0,2.2,4.9,11.200000000000001,-13.5,-18.5,-39.8,16
562,9474.0,-8.9,3.2,12.3,0.9,3.3000000000000003,12.4,-20.599999999999998,-8.100000000000001,-36.400000000000006,16
563,9490.0,-9.200000000000001,1.8,12.4,0.6000000000000001,2.0,12.5,-12.4,-9.600000000000001,-31.5,16
564,9507.0,-9.200000000000001,0.9,11.600000000000001,0.6000000000000001,1.2000000000000002,11.600000000000001,14.700000000000001,-18.3,-19.6,16
565,9524.0,-8.6,0.1,9.8,1.2000000000000002,0.5,9.8,43.900000000000006,-32.300000000000004,-5.1000000000000005,16
566,9540.0,-8.3,0.0,9.200000000000001,1.5,0.4,9.1,48.10000000000001,-31.7,-1.4,16
567,9561.0,-7.5,-0.30000000000000004,7.7,2.3000000000000003,0.1,7.5,45.6,-22.000000000000004,1.5,16
568,9574.0,-7.5,0.30000000000000004,6.800000000000001,2.3000000000000003,0.7000000000000001,6.6000000000000005,31.9,-14.700000000000001,-5.500000000000001,16
569,9592.0,-6.6000000000000005,-0.5,6.800000000000001,3.2,-0.1,6.5,16.700000000000003,1.8000000000000003,-12.100000000000001,16
570,9609.0,-6.7,-0.9,6.5,3.1,-0.5,6.2,11.900000000000002,6.8,-18.4,16
571,9624.0,-8.200000000000001,-0.5,6.4,1.6,0.0,6.1000000000000005,5.6,10.4,-25.7,16
572,9641.0,-8.6,-0.8,6.2,1.2000000000000002,-0.30000000000000004,6.0,1.9,10.1,-24.0,16
573,9657.0,-8.9,-0.1,6.1000000000000005,0.9,0.5,5.800000000000001,-6.300000000000001,3.9,-15.299999999999999,16
574,9674.0,-8.6,0.4,5.800000000000001,1.2000000000000002,1.1,5.5,-14.400000000000002,-10.299999999999999,-11.4,16
575,9691.0,-8.8,0.8,5.800000000000001,0.9,1.5,5.5,-25.200000000000003,-23.6,-11.5,16
576,9707.0,-9.3,1.1,5.9,0.5,1.8,5.6000000000000005,-33.6,-26.000000000000004,-8.8,16
577,9724.0,-8.8,1.8,7.0,1.0,2.5,6.6000000000000005,-55.2,-27.099999999999998,9.100000000000001,16
578,9741.0,-8.200000000000001,1.9000000000000001,7.7,2.6,2.4000000000000004,8.4,-66.2,-13.5,25.8,16
579,9764.0,-6.1000000000000005,2.1,10.9,3.7,2.7,10.4,-56.2,-3.6000000000000005,25.5,16
580,9774.0,-5.7,2.2,11.4,4.1000000000000005,2.8000000000000003,10.9,-40.9,3.5,23.0,16
581,9790.0,-5.2,2.4000000000000004,11.600000000000001,4.6000000000000005,3.0,10.700000000000001,-22.3,9.5,21.400000000000002,16
582,9807.0,-5.4,3.0,10.200000000000001,4.4,3.4000000000000004,9.8,22.8,30.699999999999996,15.000000000000002,16
583,9824.0,-5.6000000000000005,3.9000000000000004,8.3,4.2,4.3,8.0,38.300000000000004,32.7,11.8,16
584,9840.0,-5.6000000000000005,4.0,7.9,4.2,4.4,7.6000000000000005,37.7,28.600000000000005,9.899999999999999,16
585,9858.0,-5.4,4.1000000000000005,7.0,4.4,4.5,6.800000000000001,25.5,22.8,6.4,16
586,9874.0,-5.300000000000001,4.2,7.0,4.5,4.5,6.9,10.700000000000001,23.700000000000003,3.6000000000000005,16
587,9892.0,-5.300000000000001,4.3,7.1000000000000005,4.5,4.6000000000000005,7.1000000000000005,5.4,21.1,1.0,16
588,9907.0,-5.2,4.4,7.4,4.6000000000000005,4.800000000000001,7.5,-0.4,10.8,-5.2,16
589,9924.0,-5.5,4.800000000000001,8.0,4.3,5.2,8.1,-6.2,-3.0,-11.1,16
590,9940.0,-5.4,4.9,8.5,4.4,5.4,8.6,-11.000000000000002,-8.0,-13.000000000000002,16
591,9957.0,-5.4,5.2,10.0,4.4,5.6000000000000005,10.100000000000001,-16.3,-7.699999999999999,-17.300000000000004,16
592,9977.0,-5.800000000000001,5.300000000000001,11.5,4.0,5.800000000000001,11.5,-8.8,-5.9,-20.1,16
593,9996.0,-5.9,5.4,11.9,3.9000000000000004,6.0,11.9,11.5,1.5,-20.599999999999998,16
594,10007.0,-6.1000000000000005,5.5,11.4,3.7,6.1000000000000005,11.5,23.099999999999998,4.2,-21.8,16
595,10024.0,-6.5,5.4,9.9,3.3000000000000003,6.1000000000000005,9.9,38.7,9.100000000000001,-23.3,16
596,10041.0,-6.7,5.2,9.4,3.1,6.0,9.4,40.2,12.5,-23.800000000000004,16
597,10058.0,-7.300000000000001,4.5,8.3,2.5,5.300000000000001,8.4,26.6,13.6,-28.0,16
598,10082.0,-8.200000000000001,3.4000000000000004,8.3,1.6,4.3,8.5,2.7,-0.8,-34.0,16
599,10090.0,-8.3,2.0,10.5,1.4000000000000001,3.1,10.600000000000001,-23.099999999999998,-18.900000000000002,-31.9,16
600,10107.0,-8.200000000000001,1.1,12.100000000000001,1.6,2.2,12.100000000000001,-30.4,-20.2,-28.900000000000002,16
601,10125.0,-7.800000000000001,-0.4,13.5,1.9000000000000001,0.8,13.600000000000001,-22.8,-5.1000000000000005,-20.400000000000002,16
602,10141.0,-7.7,-0.9,13.4,2.0,0.4,13.4,-10.9,11.6,-16.6,16
603,10157.0,-8.3,-1.1,11.600000000000001,1.5,0.2,11.700000000000001,18.900000000000002,34.0,-11.900000000000002,16
604,10176.0,-8.700000000000001,-0.9,8.3,1.0,0.4,8.5,40.1,30.200000000000003,-2.9,16
605,10197.0,-8.6,-0.7000000000000001,6.1000000000000005,1.1,0.6000000000000001,6.4,37.800000000000004,20.3,4.7,16
606,10207.0,-8.5,-0.4,5.2,1.2000000000000002,0.9,5.5,30.5,17.200000000000003,7.0,16
607,10224.0,-8.3,-0.2,5.1000000000000005,1.4000000000000001,1.1,5.4,10.200000000000001,9.899999999999999,8.0,16
608,10241.0,-7.9,-0.2,5.800000000000001,1.8,1.1,6.1000000000000005,-8.899999999999999,0.30000000000000004,5.4,16
609,10257.0,-7.9,-0.2,6.2,1.8,1.0,6.6000000000000005,-15.6,-2.2,3.3000000000000007,16
610,10276.0,-8.0,-0.1,7.0,1.7000000000000002,1.1,7.4,-24.900000000000002,-6.2,-0.1,16
611,10291.0,-8.0,-0.1,7.6000000000000005,1.7000000000000002,1.3,8.200000000000001,-28.700000000000003,-6.500000000000001,-1.0,16
612,10307.0,-8.1,0.2,8.200000000000001,1.6,1.4000000000000001,8.6,-34.300000000000004,-5.6,-2.1,16
613,10324.0,-8.200000000000001,0.30000000000000004,8.4,1.4000000000000001,1.6,9.1,-37.0,-4.300000000000001,-1.9,16
614,10340.0,-8.4,0.6000000000000001,8.9,1.3,1.8,9.3,-40.5,3.2,3.2,16
615,10357.0,-8.6,0.7000000000000001,8.9,1.1,1.9000000000000001,9.3,-38.1,5.1000000000000005,5.8,16
616,10374.0,-8.8,1.2000000000000002,8.3,0.9,2.4000000000000004,8.8,-32.0,3.2,13.399999999999999,16
617,10390.0,-8.4,1.7000000000000002,8.0,1.3,2.9000000000000004,8.4,-28.200000000000003,-5.0,21.200000000000003,16
618,10407.0,-7.9,2.1,8.1,1.9000000000000001,3.2,8.5,-27.0,-8.4,23.5,16
619,10424.0,-6.9,2.6,8.4,2.9000000000000004,3.7,8.8,-23.5,-11.4,22.5,16
620,10440.0,-6.7,2.8000000000000003,8.4,3.0,3.8000000000000003,8.8,-21.0,-9.8,19.200000000000003,16
621,10457.0,-6.6000000000000005,3.1,8.3,3.2,4.1000000000000005,8.700000000000001,-17.400000000000002,-2.2,9.8,16
622,10474.0,-6.9,3.3000000000000003,8.1,2.8000000000000003,4.2,8.5,-14.700000000000001,4.1,2.0,16
623,10492.0,-7.1000000000000005,3.4000000000000004,7.800000000000001,2.4000000000000004,4.4,8.0,-10.4,0.4,-1.8000000000000003,16
624,10507.0,-7.4,3.7,7.4,2.4000000000000004,4.6000000000000005,7.800000000000001,-10.700000000000001,-3.8,-2.6,16
625,10524.0,-7.1000000000000005,3.9000000000000004,7.800000000000001,2.7,4.800000000000001,8.200000000000001,-14.400000000000002,-11.1,-5.0,16
626,10540.0,-7.1000000000000005,3.9000000000000004,8.0,2.6,4.800000000000001,8.4,-15.299999999999999,-12.7,-8.3,16
627,10559.0,-7.5,3.7,8.4,2.2,4.6000000000000005,8.8,-14.700000000000001,-12.4,-14.300000000000002,16
628,10574.0,-7.9,3.2,8.700000000000001,1.8,4.3,9.1,-11.6,-11.1,-16.700000000000003,16
629,10591.0,-8.0,3.1,8.9,1.7000000000000002,4.2,9.4,-8.700000000000001,-9.899999999999999,-15.299999999999999,16
630,10607.0,-8.0,3.0,9.200000000000001,1.8,4.2,9.600000000000001,-5.300000000000001,-14.800000000000002,-13.200000000000003,16
631,10624.0,-7.7,2.9000000000000004,10.0,2.0,4.0,10.3,-4.5,-22.4,-12.200000000000001,16
632,10643.0,-7.2,2.7,10.8,2.5,4.0,11.100000000000001,-1.0,-28.600000000000005,-12.200000000000001,16
633,10657.0,-7.2,2.7,10.8,2.8000000000000003,3.9000000000000004,11.200000000000001,0.8,-30.5,-13.700000000000001,16
634,10674.0,-6.4,2.3000000000000003,11.0,3.3000000000000003,3.6,11.100000000000001,0.9000000000000001,-28.900000000000002,-20.0,16
635,10691.0,-6.5,2.0,10.700000000000001,3.2,3.4000000000000004,10.8,-9.899999999999999,-23.099999999999998,-30.799999999999997,16
636,10707.0,-6.5,2.0,10.8,2.8000000000000003,3.2,10.8,-19.700000000000003,-20.2,-36.2,16
637,10724.0,-7.800000000000001,1.0,12.5,1.9000000000000001,2.6,12.5,-38.0,-19.700000000000003,-39.699999999999996,16
638,10740.0,-7.800000000000001,0.6000000000000001,13.3,2.2,1.9000000000000001,14.0,-40.800000000000004,-21.900000000000002,-36.8,16
639,10757.0,-7.0,0.0,14.5,2.7,1.7000000000000002,14.3,-34.0,-23.800000000000004,-27.2,16
640,10774.0,-5.9,-0.8,14.700000000000001,3.7,1.1,14.5,-15.5,-16.5,-23.400000000000002,16
641,10791.0,-5.7,-1.3,13.8,3.7,0.4,12.9,9.700000000000001,1.7,-29.300000000000004,16
642,10807.0,-6.5,-1.9000000000000001,11.0,3.1,0.1,10.8,20.1,13.6,-33.0,16
643,10824.0,-7.2,-2.3000000000000003,8.9,2.3000000000000003,-0.2,8.700000000000001,32.300000000000004,33.9,-37.0,16
644,10840.0,-7.9,-2.6,6.5,1.7000000000000002,-0.4,6.5,37.300000000000004,40.5,-33.300000000000004,16
645,10858.0,-8.0,-2.7,5.800000000000001,1.6,-0.4,5.7,36.300000000000004,35.4,-29.300000000000004,16
646,10875.0,-7.7,-2.6,4.7,1.8,-0.30000000000000004,4.800000000000001,26.6,16.5,-20.5,16
647,10891.0,-7.2,-2.4000000000000004,4.7,2.3000000000000003,0.0,4.7,7.699999999999999,-1.0,-14.0,16
648,10916.0,-6.6000000000000005,-2.2,5.300000000000001,3.1,0.30000000000000004,5.800000000000001,-14.600000000000001,-7.0,-11.700000000000001,16
649,10924.0,-6.6000000000000005,-2.2,5.300000000000001,3.4000000000000004,0.8,6.800000000000001,-14.600000000000001,-7.0,-11.700000000000001,16
650,10941.0,-6.0,-1.3,7.9,3.5,1.3,8.0,-30.599999999999998,4.5,-16.900000000000002,16
651,10957.0,-6.300000000000001,-1.0,8.200000000000001,3.2,1.5,8.3,-28.400000000000002,7.300000000000001,-19.6,16
652,10976.0,-6.800000000000001,-0.5,8.200000000000001,2.6,2.1,8.3,-19.200000000000003,5.7,-21.7,16
653,10990.0,-7.0,-0.1,8.0,2.4000000000000004,2.5,8.200000000000001,-12.7,-0.2,-22.3,16
654,11007.0,-7.0,-0.1,8.0,2.4000000000000004,2.6,8.1,-10.600000000000001,-2.2,-22.9,16
655,11024.0,-6.9,-0.2,8.0,2.5,2.6,8.200000000000001,-9.700000000000001,-0.8,-25.300000000000004,16
656,11040.0,-6.9,-0.2,8.0,2.5,2.6,8.200000000000001,-9.4,1.5,-27.3,16
657,11057.0,-7.1000000000000005,-0.4,7.9,2.3000000000000003,2.5,8.1,-6.4,2.7,-30.4,16
658,11075.0,-7.2,-0.4,7.7,2.2,2.6,7.9,-6.500000000000001,4.6,-32.1,16
659,11093.0,-7.2,-0.6000000000000001,7.6000000000000005,2.1,2.6,7.800000000000001,-7.300000000000001,2.8,-34.300000000000004,16
660,11110.0,-7.2,-0.7000000000000001,7.800000000000001,2.0,2.5,8.0,-10.0,-2.1,-35.1,16
661,11126.0,-7.0,-0.8,8.1,2.2,2.5,8.3,-10.9,-3.1,-34.7,16
662,11141.0,-6.9,-0.9,8.200000000000001,2.3000000000000003,2.4000000000000004,8.5,-10.700000000000001,-3.5,-34.50000000000001,16
663,11157.0,-6.800000000000001,-1.1,8.5,2.4000000000000004,2.4000000000000004,8.8,-8.8,-0.9000000000000001,-34.400000000000006,16
664,11174.0,-6.7,-1.0,8.3,2.3000000000000003,2.6,8.3,-4.9,4.800000000000001,-34.900000000000006,16
665,11191.0,-7.0,-0.8,7.6000000000000005,2.1,2.8000000000000003,7.9,-4.6,6.2,-35.5,16
666,11207.0,-7.300000000000001,-0.7000000000000001,7.0,1.7000000000000002,3.1,7.300000000000001,-9.3,5.1000000000000005,-34.50000000000001,16
667,11224.0,-7.5,-0.4,7.1000000000000005,1.5,3.5,7.4,-15.2,0.7,-32.6,16
668,11241.0,-7.5,-0.30000000000000004,7.2,1.5,3.6,7.5,-17.200000000000003,-1.8000000000000003,-32.2,16
669,11258.0,-7.7,-0.2,7.6000000000000005,1.3,3.8000000000000003,8.0,-18.900000000000002,-3.9,-31.2,16
670,11278.0,-7.800000000000001,-0.30000000000000004,8.0,1.1,3.7,8.4,-18.6,-5.6,-29.300000000000004,16
671,11291.0,-7.7,-0.4,8.3,1.2000000000000002,3.7,8.700000000000001,-18.3,-6.500000000000001,-26.6,16
672,11307.0,-7.6000000000000005,-0.6000000000000001,8.3,1.2000000000000002,3.7,8.8,-18.200000000000003,-8.0,-25.4,16
673,11324.0,-7.4,-0.7000000000000001,8.3,1.3,3.7,9.1,-21.0,-9.4,-23.3,16
674,11340.0,-7.300000000000001,-0.9,8.3,1.3,3.6,9.4,-23.0,-9.4,-22.3,16
675,11357.0,-7.2,-1.0,8.700000000000001,1.4000000000000001,3.7,10.200000000000001,-24.1,-7.300000000000001,-20.7,16
676,11374.0,-7.0,-1.0,9.1,1.5,3.6,10.5,-22.5,-5.500000000000001,-19.6,16
677,11394.0,-6.9,-1.5,8.6,1.5,3.2,10.100000000000001,-16.3,4.300000000000001,-19.0,16
678,11408.0,-7.300000000000001,-2.0,8.6,1.1,2.7,10.100000000000001,-17.5,4.5,-20.1,16
679,11424.0,-7.9,-2.6,8.700000000000001,0.5,2.1,10.3,-19.400000000000002,2.3,-16.900000000000002,16
680,11440.0,-8.1,-3.0,8.6,0.30000000000000004,1.8,10.3,-19.400000000000002,-1.6,-12.299999999999999,16
681,11457.0,-7.800000000000001,-3.5,8.700000000000001,0.5,1.3,10.4,-21.200000000000003,-17.200000000000003,-1.5,16
682,11481.0,-7.0,-3.7,9.4,1.4000000000000001,1.1,11.0,-25.8,-31.6,7.500000000000001,16
683,11491.0,-6.4,-3.9000000000000004,10.0,2.0,0.9,11.600000000000001,-29.300000000000004,-32.0,11.1,16
684,11512.0,-6.4,-4.3,10.600000000000001,2.0,0.4,12.100000000000001,-26.200000000000003,-15.700000000000001,12.299999999999999,16
685,11524.0,-7.2,-4.4,10.100000000000001,1.3,0.30000000000000004,11.700000000000001,-22.5,-3.0,14.600000000000001,16
686,11540.0,-7.5,-4.4,9.8,0.6000000000000001,0.4,10.600000000000001,-10.1,14.400000000000002,25.900000000000002,16
687,11558.0,-8.1,-4.2,8.4,0.4,0.4,10.100000000000001,-3.7000000000000006,15.700000000000001,32.9,16
688,11574.0,-8.200000000000001,-3.7,6.9,0.30000000000000004,0.8,8.6,8.5,-2.5,44.7,16
689,11590.0,-8.1,-3.7,6.4,0.7000000000000001,0.8,8.0,9.5,-14.600000000000001,48.10000000000001,16
690,11607.0,-7.5,-3.5,6.800000000000001,1.2000000000000002,0.8,8.4,-0.2,-30.1,53.8,16
691,11624.0,-7.300000000000001,-3.4000000000000004,7.1000000000000005,1.9000000000000001,0.8,9.200000000000001,-11.900000000000002,-35.0,53.7,16
692,11641.0,-6.800000000000001,-3.2,7.800000000000001,2.0,0.9,9.200000000000001,-19.0,-31.5,48.6,16
693,11657.0,-6.9,-2.8000000000000003,8.1,2.0,1.0,9.5,-32.1,-20.8,39.8,16
694,11674.0,-7.7,-2.7,8.6,1.3,1.0,10.0,-44.6,-15.899999999999999,34.300000000000004,16
695,11690.0,-8.200000000000001,-2.7,9.700000000000001,0.8,0.9,11.100000000000001,-48.9,-16.6,36.8,16
696,11707.0,-8.4,-2.6,10.100000000000001,0.6000000000000001,0.9,11.600000000000001,-46.7,-17.799999999999997,40.300000000000004,16
697,11724.0,-8.5,-2.3000000000000003,10.700000000000001,0.6000000000000001,1.0,12.100000000000001,-36.0,-17.1,49.50000000000001,16
698,11740.0,-8.5,-2.3000000000000003,10.700000000000001,0.7000000000000001,1.1,12.100000000000001,-28.800000000000004,-13.6,54.800000000000004,16
699,11757.0,-8.0,-1.5,10.4,1.2000000000000002,1.6,11.9,-12.200000000000001,-6.300000000000001,62.50000000000001,16
700,11774.0,-7.800000000000001,-0.8,9.5,1.4000000000000001,2.1,11.0,3.5,-0.4,66.1,16
701,11790.0,-7.7,-0.5,8.9,1.6,2.2,10.3,9.899999999999999,0.30000000000000004,66.80000000000001,16
702,11808.0,-7.800000000000001,-0.1,7.800000000000001,1.6,2.5,9.200000000000001,17.6,-0.5,66.60000000000001,16
703,11824.0,-7.7,0.2,7.2,1.7000000000000002,2.6,8.6,18.900000000000002,-5.1000000000000005,65.0,16
704,11840.0,-7.7,0.4,7.2,1.8,2.6,8.6,18.0,-7.200000000000001,64.0,16
705,11858.0,-7.4,0.6000000000000001,7.5,2.1,2.7,8.8,15.8,-11.5,61.0,16
706,11874.0,-7.2,0.9,8.1,2.4000000000000004,2.8000000000000003,9.4,17.5,-16.5,56.7,16
707,11890.0,-6.800000000000001,1.1,8.5,2.9000000000000004,2.8000000000000003,9.9,23.400000000000002,-22.2,51.4,16
708,11907.0,-6.4,1.1,8.700000000000001,3.2,2.7,10.0,28.700000000000003,-25.1,46.300000000000004,16
709,11926.0,-5.9,1.1,8.5,3.8000000000000003,2.6,9.600000000000001,31.9,-26.6,35.0,16
710,11940.0,-6.2,0.9,8.5,3.5,2.3000000000000003,9.600000000000001,27.6,-25.6,22.4,16
711,11957.0,-6.2,1.0,8.6,3.3000000000000003,2.3000000000000003,9.9,24.0,-26.799999999999997,18.1,16
712,11974.0,-6.5,0.6000000000000001,9.8,3.2,1.9000000000000001,10.8,20.7,-33.0,15.299999999999999,16
713,11991.0,-5.9,0.30000000000000004,10.600000000000001,3.8000000000000003,1.5,11.4,24.900000000000002,-37.2,13.700000000000001,16
714,12007.0,-5.6000000000000005,0.0,10.3,4.1000000000000005,1.2000000000000002,11.0,29.0,-36.1,10.700000000000001,16
715,12024.0,-6.4,-0.2,9.1,3.3000000000000003,1.1,9.700000000000001,30.799999999999997,-26.000000000000004,-0.8,16
716,12040.0,-8.1,-0.8,8.6,1.6,0.5,9.200000000000001,12.0,-14.700000000000001,-7.699999999999999,16
717,12057.0,-8.5,-1.0,9.200000000000001,1.2000000000000002,0.2,9.700000000000001,1.6,-12.7,-4.7,16
718,12074.0,-8.3,-1.8,10.9,1.5,-0.5,11.4,-3.5,-18.0,7.500000000000001,16
719,12090.0,-7.4,-2.3000000000000003,11.8,2.3000000000000003,-1.0,12.200000000000001,13.100000000000001,-19.5,19.300000000000004,16
720,12107.0,-6.9,-2.5,11.3,2.8000000000000003,-1.3,11.700000000000001,24.8,-14.900000000000002,23.700000000000003,16
721,12125.0,-6.7,-2.5,10.9,3.4000000000000004,-1.2000000000000002,9.8,44.00000000000001,3.5,29.400000000000002,16
722,12142.0,-6.2,-2.3000000000000003,7.9,3.6,-1.2000000000000002,8.200000000000001,50.1,14.700000000000001,28.1,16
723,12157.0,-6.2,-2.3000000000000003,7.1000000000000005,3.6,-1.3,7.5,47.7,17.300000000000004,26.400000000000006,16
724,12174.0,-6.300000000000001,-2.2,6.2,3.5,-1.3,6.6000000000000005,29.400000000000002,17.9,23.099999999999998,16
725,12191.0,-6.1000000000000005,-2.2,6.300000000000001,3.7,-1.4000000000000001,6.800000000000001,10.5,14.200000000000001,23.800000000000004,16
726,12207.0,-5.9,-2.0,6.9,3.8000000000000003,-1.2000000000000002,7.300000000000001,2.6,11.900000000000002,24.3,16
727,12225.0,-5.6000000000000005,-1.8,7.800000000000001,4.1000000000000005,-1.1,8.3,-8.5,11.5,24.0,16
728,12240.0,-5.6000000000000005,-1.7000000000000002,8.0,4.1000000000000005,-1.1,8.5,-10.8,13.8,23.400000000000002,16
729,12257.0,-5.800000000000001,-1.3,8.1,4.0,-0.7000000000000001,8.700000000000001,-9.2,17.300000000000004,23.3,16
730,12274.0,-5.800000000000001,-0.6000000000000001,7.6000000000000005,4.0,-0.1,8.200000000000001,-4.800000000000001,17.5,24.1,16
731,12290.0,-6.2,0.4,7.0,3.6,0.8,7.7,-6.500000000000001,14.600000000000001,25.4,16
732,12307.0,-6.300000000000001,0.9,7.2,3.5,1.3,7.9,-9.2,11.1,26.6,16
733,12324.0,-6.4,1.2000000000000002,7.6000000000000005,3.4000000000000004,1.6,8.4,-11.1,7.500000000000001,27.700000000000003,16
734,12340.0,-6.5,1.9000000000000001,8.8,3.3000000000000003,2.2,9.600000000000001,-6.1000000000000005,3.0,32.5,16
735,12357.0,-6.2,2.9000000000000004,9.0,3.8000000000000003,3.3000000000000003,9.8,7.699999999999999,3.9,39.0,16
736,12374.0,-5.800000000000001,4.1000000000000005,8.8,4.0,4.1000000000000005,9.600000000000001,19.5,6.500000000000001,38.7,16
737,12392.0,-6.0,4.3,8.200000000000001,3.8000000000000003,4.1000000000000005,9.1,33.7,3.2,34.0,16
738,12407.0,-6.2,4.0,7.7,3.6,3.8000000000000003,8.5,41.1,-0.30000000000000004,31.0,16
739,12424.0,-6.5,3.8000000000000003,6.7,3.3000000000000003,3.5,7.5,51.1,-4.7,25.5,16
740,12441.0,-6.6000000000000005,3.7,6.4,3.2,3.3000000000000003,7.300000000000001,50.3,-2.8,22.9,16
741,12457.0,-7.0,3.5,6.2,2.8000000000000003,3.1,7.1000000000000005,42.400000000000006,7.400000000000001,18.900000000000002,16
742,12474.0,-7.300000000000001,3.4000000000000004,6.300000000000001,2.4000000000000004,3.0,7.300000000000001,36.9,13.200000000000003,16.4,16
743,12490.0,-7.800000000000001,3.4000000000000004,6.300000000000001,2.0,2.9000000000000004,7.300000000000001,35.1,6.4,16.900000000000002,16
744,12507.0,-7.800000000000001,3.3000000000000003,6.5,1.9000000000000001,2.9000000000000004,7.5,32.1,4.4,17.9,16
745,12524.0,-7.5,3.2,7.5,2.3000000000000003,2.7,8.5,23.900000000000006,6.4,20.8,16
746,12541.0,-7.2,3.1,7.9,2.8000000000000003,2.2,9.5,20.8,8.3,21.1,16
747,12557.0,-6.9,2.8000000000000003,8.4,3.0,2.0,10.0,15.899999999999999,6.500000000000001,17.6,16
748,12575.0,-5.7,1.8,10.200000000000001,4.0,1.1,11.3,12.8,-15.5,19.5,16
749,12593.0,-4.2,1.0,10.8,5.5,0.2,11.8,9.2,-27.800000000000004,14.700000000000001,16
750,12607.0,-4.3,0.7000000000000001,10.5,5.4,0.0,11.5,3.4,-24.1,8.5,16
751,12624.0,-5.0,0.30000000000000004,10.8,4.7,-0.5,11.700000000000001,-21.400000000000002,-5.6,-2.5,16
752,12641.0,-6.7,-0.8,11.8,3.0,-1.6,12.700000000000001,-43.2,26.5,-4.9,16
753,12657.0,-6.7,-0.8,11.8,2.1,-2.0,12.9,-42.800000000000004,42.60000000000001,-1.9,16
754,12676.0,-9.5,-1.7000000000000002,10.700000000000001,0.30000000000000004,-2.4000000000000004,11.8,-20.7,62.300000000000004,14.800000000000002,16
755,12690.0,-9.9,-1.3,8.4,-0.2,-2.2,9.700000000000001,25.6,38.900000000000006,48.10000000000001,16
756,12708.0,-9.5,-1.1,6.800000000000001,0.2,-2.0,8.200000000000001,39.50000000000001,19.300000000000004,59.5,16
757,12725.0,-8.200000000000001,-0.2,5.300000000000001,1.4000000000000001,-1.4000000000000001,6.7,49.6,-16.1,75.8,16
758,12741.0,-6.800000000000001,0.4,5.2,2.8000000000000003,-0.9,6.5,35.9,-33.6,81.90000000000002,16
759,12757.0,-5.9,0.9,5.7,3.7,-0.6000000000000001,7.0,24.400000000000002,-34.50000000000001,79.00000000000001,16
760,12774.0,-4.9,1.6,6.800000000000001,4.7,-0.1,8.0,3.4,-23.2,62.900000000000006,16
761,12790.0,-5.6000000000000005,2.1,7.2,3.9000000000000004,0.1,8.4,-12.4,-1.7,39.9,16
762,12807.0,-6.9,2.1,7.300000000000001,2.6,0.1,8.4,-19.1,6.1000000000000005,31.9,16
763,12824.0,-8.4,2.2,7.6000000000000005,1.1,0.1,8.8,-27.5,10.299999999999999,29.600000000000005,16
764,12840.0,-8.4,2.3000000000000003,7.6000000000000005,0.9,0.2,8.9,-27.400000000000002,6.1000000000000005,33.1,16
765,12857.0,-8.4,2.8000000000000003,8.200000000000001,1.0,0.5,9.4,-21.500000000000004,-7.8,42.0,16
766,12874.0,-7.800000000000001,3.3000000000000003,8.700000000000001,1.6,0.9,9.8,-14.600000000000001,-12.200000000000001,47.2,16
767,12891.0,-7.5,3.7,8.9,1.9000000000000001,1.1,10.0,-10.600000000000001,-0.7,47.0,16
768,12907.0,-7.5,4.0,8.8,1.9000000000000001,1.4000000000000001,9.9,-9.2,5.8,47.2,16
769,12924.0,-7.300000000000001,4.5,8.9,2.0,1.7000000000000002,10.0,-4.4,6.699999999999999,47.400000000000006,16
770,12940.0,-7.1000000000000005,4.6000000000000005,8.9,2.2,1.7000000000000002,10.100000000000001,-0.9000000000000001,3.3000000000000007,47.1,16
771,12957.0,-6.5,5.1000000000000005,9.3,2.7,2.0,10.5,8.8,-3.0,43.70000000000001,16
772,12974.0,-6.2,5.300000000000001,9.3,3.1,2.1,10.4,15.899999999999999,-1.8000000000000003,37.7,16
773,12992.0,-5.9,5.6000000000000005,9.1,3.3000000000000003,2.3000000000000003,10.3,20.599999999999998,2.6,31.400000000000002,16
774,13007.0,-5.800000000000001,5.6000000000000005,8.9,3.4000000000000004,2.3000000000000003,10.100000000000001,23.099999999999998,4.4,27.800000000000004,16
775,13024.0,-5.800000000000001,5.9,8.4,3.3000000000000003,2.4000000000000004,9.700000000000001,28.800000000000004,3.4,19.799999999999997,16
776,13041.0,-5.9,5.9,8.200000000000001,3.2,2.5,9.5,31.2,-0.1,16.3,16
777,13058.0,-5.6000000000000005,6.0,8.0,3.5,2.5,9.4,33.6,-10.1,10.9,16
778,13074.0,-5.1000000000000005,5.800000000000001,8.1,4.0,2.4000000000000004,9.4,35.1,-18.0,5.300000000000001,16
779,13090.0,-4.5,5.5,7.800000000000001,4.6000000000000005,2.1,9.1,33.400000000000006,-18.0,-2.6,16
780,13107.0,-4.5,5.4,7.6000000000000005,4.6000000000000005,1.9000000000000001,9.0,30.000000000000004,-15.000000000000002,-8.4,16
781,13124.0,-5.300000000000001,4.800000000000001,7.7,3.8000000000000003,1.3,9.0,22.700000000000003,-11.700000000000001,-16.0,16
782,13140.0,-5.4,4.5,7.7,3.7,1.1,9.1,20.599999999999998,-12.100000000000001,-15.100000000000001,16
783,13157.0,-4.9,4.5,7.6000000000000005,4.2,1.1,8.9,20.400000000000002,-19.0,-10.9,16
784,13174.0,-5.0,4.6000000000000005,7.1000000000000005,4.2,1.3,8.4,13.200000000000003,-28.800000000000004,-12.0,16
785,13191.0,-4.9,4.6000000000000005,8.0,4.3,1.3,9.200000000000001,-10.5,-30.5,-11.000000000000002,16
786,13207.0,-4.6000000000000005,4.3,9.3,4.5,1.1,10.5,-22.4,-26.000000000000004,-10.5,16
787,13224.0,-5.300000000000001,3.9000000000000004,10.3,3.9000000000000004,0.8,11.4,-30.699999999999996,-6.500000000000001,-12.299999999999999,16
788,13241.0,-6.300000000000001,3.3000000000000003,10.600000000000001,2.9000000000000004,0.2,11.600000000000001,-16.3,-4.5,-7.1000000000000005,16
789,13257.0,-6.4,3.1,10.4,2.8000000000000003,0.0,11.4,-4.1,-8.100000000000001,-2.0,16
790,13274.0,-5.9,2.8000000000000003,9.1,3.3000000000000003,-0.4,10.100000000000001,18.5,-19.200000000000003,6.1000000000000005,16
791,13292.0,-5.300000000000001,2.6,8.200000000000001,4.1000000000000005,-0.5,8.6,27.3,-13.6,6.2,16
792,13307.0,-4.9,2.6,6.9,4.3,-0.6000000000000001,7.800000000000001,25.900000000000002,-5.300000000000001,2.9,16
793,13324.0,-5.300000000000001,2.2,6.0,3.9000000000000004,-1.0,6.9,17.799999999999997,16.0,-5.6,16
794,13341.0,-5.300000000000001,2.2,5.9,3.7,-1.1,6.800000000000001,14.0,26.200000000000003,-8.600000000000001,16
795,13357.0,-6.5,1.7000000000000002,4.800000000000001,2.7,-1.4000000000000001,5.9,11.2,34.7,-6.0,16
796,13375.0,-6.800000000000001,1.6,4.0,2.4000000000000004,-1.4000000000000001,5.2,10.0,23.3,4.7,16
797,13390.0,-6.2,1.8,3.5,3.0,-1.3,4.800000000000001,3.8,3.5,18.8,16
798,13407.0,-5.4,2.2,3.5,3.8000000000000003,-1.0,4.9,-2.7,-5.4,24.8,16
799,13424.0,-4.2,2.9000000000000004,4.800000000000001,5.0,-0.30000000000000004,6.1000000000000005,-23.800000000000004,-16.5,30.599999999999998,16
800,13440.0,-3.8000000000000003,3.1,5.4,5.300000000000001,-0.2,6.7,-35.599999999999994,-16.900000000000002,30.599999999999998,16
801,13457.0,-3.1,3.6,7.300000000000001,6.0,0.2,8.5,-53.10000000000001,-2.1,26.6,16
802,13475.0,-3.7,4.6000000000000005,8.8,5.4,1.1,9.9,-55.5,17.9,22.700000000000003,16
803,13494.0,-4.1000000000000005,5.5,8.700000000000001,4.9,1.9000000000000001,9.8,-34.50000000000001,19.6,23.6,16
804,13508.0,-4.1000000000000005,6.0,8.1,4.9,2.4000000000000004,9.3,-25.6,14.100000000000001,24.8,16
805,13525.0,-3.6,7.0,7.7,5.4,3.3000000000000003,8.8,-14.600000000000001,-1.5,24.599999999999998,16
806,13540.0,-3.3000000000000003,7.2,7.7,5.7,3.4000000000000004,8.8,-12.9,-5.500000000000001,20.900000000000002,16
807,13557.0,-3.0,7.5,8.0,5.9,3.7,9.1,-14.700000000000001,5.4,7.0,16
808,13574.0,-3.7,7.5,8.1,5.2,3.7,9.200000000000001,-11.900000000000002,17.9,-8.100000000000001,16
809,13590.0,-4.6000000000000005,7.1000000000000005,7.4,4.3,3.3000000000000003,8.5,-3.4,19.200000000000003,-18.200000000000003,16
810,13607.0,-5.1000000000000005,7.0,6.9,3.9000000000000004,3.3000000000000003,8.1,-1.2000000000000002,17.9,-20.900000000000002,16
811,13624.0,-5.5,6.800000000000001,6.7,3.5,3.1,8.0,0.7,11.1,-25.200000000000003,16
812,13641.0,-5.6000000000000005,6.6000000000000005,6.7,3.4000000000000004,3.0,8.0,1.7,7.200000000000001,-27.2,16
813,13657.0,-5.6000000000000005,6.2,7.2,3.4000000000000004,2.6,8.5,4.300000000000001,5.9,-31.2,16
814,13674.0,-6.2,5.7,7.0,2.9000000000000004,2.2,8.4,10.200000000000001,17.400000000000002,-35.2,16
815,13690.0,-7.0,5.4,6.5,2.1,2.1,8.0,14.100000000000001,22.2,-34.400000000000006,16
816,13707.0,-7.2,5.4,6.5,2.0,2.1,8.0,14.5,20.900000000000002,-31.2,16
817,13724.0,-7.1000000000000005,5.300000000000001,6.7,2.1,2.2,8.3,16.3,16.1,-24.200000000000003,16
818,13741.0,-6.7,5.4,7.0,2.5,2.3000000000000003,8.700000000000001,20.5,15.399999999999999,-19.5,16
819,13757.0,-6.7,5.4,7.0,2.5,2.4000000000000004,8.700000000000001,26.000000000000004,20.400000000000002,-18.4,16
820,13775.0,-6.800000000000001,5.5,6.5,2.4000000000000004,2.6,8.3,30.200000000000003,26.1,-18.0,16
821,13790.0,-6.800000000000001,5.7,6.300000000000001,2.4000000000000004,2.8000000000000003,8.200000000000001,29.1,25.7,-16.700000000000003,16
822,13807.0,-6.7,5.9,6.4,2.5,3.1,8.4,27.6,23.900000000000006,-16.200000000000003,16
823,13825.0,-6.300000000000001,6.1000000000000005,6.7,2.8000000000000003,3.4000000000000004,8.9,25.300000000000004,20.3,-16.1,16
824,13840.0,-6.300000000000001,6.1000000000000005,6.7,3.3000000000000003,3.9000000000000004,9.4,25.5,20.1,-17.400000000000002,16
825,13857.0,-5.7,6.800000000000001,7.2,3.5,4.2,9.5,27.400000000000002,26.1,-23.800000000000004,16
826,13874.0,-5.4,6.800000000000001,7.1000000000000005,3.8000000000000003,4.3,9.5,30.1,42.400000000000006,-34.0,16
827,13896.0,-6.1000000000000005,6.6000000000000005,6.2,3.0,4.3,8.8,34.800000000000004,61.0,-45.7,16
828,13907.0,-7.1000000000000005,6.4,5.2,2.0,4.1000000000000005,7.9,36.9,64.7,-48.9,16
829,13924.0,-8.200000000000001,5.800000000000001,4.4,1.0,3.7,7.4,32.5,57.1,-44.8,16
830,13941.0,-7.6000000000000005,5.800000000000001,4.6000000000000005,1.5,3.9000000000000004,7.7,13.700000000000001,20.3,-32.0,16
831,13957.0,-7.1000000000000005,5.800000000000001,5.5,2.0,3.9000000000000004,8.700000000000001,-2.7,-15.6,-29.0,16
832,13978.0,-5.4,4.2,10.100000000000001,3.7,2.4000000000000004,13.200000000000001,-49.0,-69.60000000000001,-32.400000000000006,16
833,13990.0,-4.5,1.5,15.700000000000001,4.7,-0.2,18.5,-71.8,-35.8,-35.599999999999994,16
834,14007.0,-5.800000000000001,-0.2,16.7,3.5,-1.8,19.400000000000002,-63.599999999999994,9.100000000000001,-33.7,16
835,14024.0,-8.0,-1.0,13.600000000000001,1.2000000000000002,-2.7,16.400000000000002,5.9,93.4,-6.8,16
836,14040.0,-8.3,-0.7000000000000001,11.9,0.9,-2.4000000000000004,14.9,42.400000000000006,87.60000000000001,9.5,16
837,14057.0,-7.9,0.1,6.5,1.2000000000000002,-1.5,9.8,88.7,36.300000000000004,36.1,16
838,14074.0,-6.9,1.7000000000000002,3.0,2.2,0.1,6.4,85.69999999999999,-15.399999999999999,48.70000000000001,16
839,14092.0,-5.4,2.5,2.3000000000000003,3.6,0.8,5.7,39.50000000000001,-27.6,44.00000000000001,16
840,14111.0,-4.9,2.7,3.6,4.2,0.9,7.800000000000001,-9.2,-8.2,28.900000000000002,16
841,14124.0,-5.0,2.3000000000000003,6.0,4.1000000000000005,0.4,9.3,-20.7,4.0,20.599999999999998,16
842,14140.0,-5.4,2.2,6.300000000000001,3.6,0.30000000000000004,9.600000000000001,-21.6,14.400000000000002,13.6,16
843,14157.0,-6.9,2.4000000000000004,5.800000000000001,2.1,0.4,9.200000000000001,-5.0,15.2,10.4,16
844,14174.0,-7.4,2.8000000000000003,4.4,1.6,0.8,7.7,9.3,-0.1,19.300000000000004,16
845,14191.0,-6.7,3.4000000000000004,3.7,2.3000000000000003,1.4000000000000001,7.1000000000000005,10.4,-11.3,27.6,16
846,14207.0,-6.4,3.6,3.7,2.6,1.5,7.0,9.5,-14.5,28.600000000000005,16
847,14224.0,-6.0,3.9000000000000004,3.8000000000000003,3.0,1.7000000000000002,7.1000000000000005,7.699999999999999,-15.899999999999999,26.9,16
848,14240.0,-5.9,4.0,3.9000000000000004,3.1,1.8,7.2,7.8,-16.200000000000003,25.0,16
849,14257.0,-5.800000000000001,4.3,3.8000000000000003,3.1,2.0,7.0,10.0,-20.3,20.0,16
850,14275.0,-6.0,4.7,3.1,3.0,2.4000000000000004,6.300000000000001,7.300000000000001,-32.9,13.100000000000001,16
851,14292.0,-5.800000000000001,5.0,3.1,3.2,2.6,6.2,-8.5,-43.900000000000006,6.600000000000001,16
852,14307.0,-5.6000000000000005,5.0,3.6,3.4000000000000004,2.6,6.5,-19.700000000000003,-45.6,2.4000000000000004,16
853,14324.0,-5.300000000000001,5.1000000000000005,5.1000000000000005,3.8000000000000003,2.7,7.9,-42.1,-38.50000000000001,-8.5,16
854,14341.0,-5.4,5.1000000000000005,5.7,3.7,2.7,8.5,-51.1,-31.0,-14.400000000000002,16
855,14357.0,-6.0,5.2,7.300000000000001,3.2,2.8000000000000003,9.9,-63.10000000000001,-27.0,-21.400000000000002,16
856,14376.0,-5.800000000000001,5.2,8.8,3.3000000000000003,2.8000000000000003,11.3,-65.2,-37.1,-20.3,16
857,14390.0,-5.300000000000001,5.4,9.8,4.3,3.1,12.5,-60.00000000000001,-53.300000000000004,-18.0,16
858,14407.0,-4.2,5.5,11.0,5.1000000000000005,3.1,13.200000000000001,-56.50000000000001,-60.7,-18.1,16
859,14425.0,-2.6,5.5,11.9,6.7,3.1,13.9,-47.3,-55.2,-25.300000000000004,16
860,14441.0,-2.5,5.6000000000000005,11.9,6.800000000000001,3.3000000000000003,13.700000000000001,-41.900000000000006,-41.6,-33.1,16
861,14457.0,-3.8000000000000003,5.7,10.700000000000001,5.6000000000000005,3.4000000000000004,12.4,-33.1,-21.900000000000002,-50.8,16
862,14475.0,-4.800000000000001,5.1000000000000005,9.700000000000001,4.6000000000000005,3.1,11.3,-34.300000000000004,-26.6,-56.10000000000001,16
863,14494.0,-4.800000000000001,4.7,9.8,4.7,2.7,11.3,-37.0,-30.9,-55.7,16
864,14508.0,-4.7,3.5,10.0,4.800000000000001,1.7000000000000002,11.4,-40.9,-37.1,-59.00000000000001,16
865,14524.0,-5.300000000000001,2.2,10.5,4.2,0.6000000000000001,11.700000000000001,-42.2,-28.400000000000002,-65.8,16
866,14540.0,-6.0,1.6,10.4,3.6,0.0,11.600000000000001,-34.50000000000001,-15.8,-68.4,16
867,14558.0,-7.0,0.4,9.700000000000001,2.7,-1.0,10.8,-17.799999999999997,0.30000000000000004,-61.7,16
868,14577.0,-7.0,-0.4,8.4,2.7,-1.5,9.5,0.6000000000000001,4.0,-48.0,16
869,14593.0,-5.9,-0.9,7.0,3.8000000000000003,-1.9000000000000001,8.1,13.8,-5.2,-35.699999999999996,16
870,14608.0,-5.300000000000001,-1.0,6.1000000000000005,4.4,-1.9000000000000001,7.2,17.1,-10.1,-32.6,16
871,14626.0,-4.9,-1.0,4.9,4.800000000000001,-1.8,6.0,14.700000000000001,-13.000000000000002,-33.300000000000004,16
872,14642.0,-5.4,-0.9,4.3,4.3,-1.5,5.4,0.5,-7.0,-37.2,16
873,14664.0,-6.1000000000000005,-0.5,4.4,3.7,-1.0,5.4,-18.6,-0.7,-37.9,16
874,14673.0,-6.5,-0.30000000000000004,4.5,3.3000000000000003,-0.8,5.6000000000000005,-25.6,0.30000000000000004,-37.0,16
875,14692.0,-7.300000000000001,0.5,5.0,2.5,0.1,6.0,-34.7,-5.4,-30.599999999999998,16
876,14707.0,-6.9,1.0,5.7,2.8000000000000003,0.7000000000000001,6.7,-38.2,-12.100000000000001,-25.1,16
877,14724.0,-5.9,1.7000000000000002,7.2,3.9000000000000004,1.4000000000000001,8.200000000000001,-43.6,-20.1,-18.900000000000002,16
878,14745.0,-5.4,2.1,8.6,4.4,1.9000000000000001,9.5,-42.0,-12.9,-21.500000000000004,16
879,14759.0,-5.4,2.1,8.8,4.4,2.0,9.700000000000001,-36.9,-7.200000000000001,-23.800000000000004,16
880,14774.0,-5.5,2.7,9.0,4.3,2.6,9.9,-20.0,-2.7,-26.000000000000004,16
881,14791.0,-4.5,2.9000000000000004,8.4,5.300000000000001,2.9000000000000004,9.3,-2.3,-7.6,-27.5,16
882,14807.0,-4.3,3.0,8.1,5.5,3.0,8.9,3.9,-4.7,-35.8,16
883,14824.0,-4.5,2.7,7.5,5.2,2.8000000000000003,8.4,6.2,2.2,-49.9,16
884,14840.0,-4.5,2.6,7.5,5.1000000000000005,2.7,8.3,7.0,3.9,-56.0,16
885,14866.0,-6.1000000000000005,1.3,6.7,3.6,1.9000000000000001,7.7,11.3,8.4,-66.5,16
886,14874.0,-6.4,1.1,6.6000000000000005,3.3000000000000003,1.8,7.6000000000000005,13.6,8.600000000000001,-65.7,16
887,14891.0,-7.1000000000000005,0.8,6.300000000000001,2.6,1.7000000000000002,7.300000000000001,19.9,2.8,-58.1,16
888,14907.0,-7.1000000000000005,0.6000000000000001,6.1000000000000005,2.6,1.7000000000000002,7.1000000000000005,22.8,-2.1,-53.0,16
889,14924.0,-7.0,0.6000000000000001,5.5,2.7,1.8,6.5,24.900000000000002,-9.3,-44.300000000000004,16
890,14940.0,-7.0,0.6000000000000001,5.300000000000001,2.7,1.9000000000000001,6.300000000000001,22.1,-11.000000000000002,-41.199999999999996,16
891,14960.0,-6.7,1.0,5.5,3.0,2.4000000000000004,6.4,7.300000000000001,-6.9,-36.1,16
892,14973.0,-6.4,1.0,6.2,3.3000000000000003,2.7,7.5,-10.0,5.9,-33.800000000000004,16
893,14991.0,-6.6000000000000005,1.5,7.7,3.0,3.2,8.700000000000001,-15.700000000000001,15.6,-31.400000000000002,16
894,15007.0,-6.7,1.7000000000000002,8.1,2.9000000000000004,3.4000000000000004,9.0,-14.600000000000001,17.7,-29.0,16
895,15024.0,-6.800000000000001,2.3000000000000003,8.5,2.8000000000000003,4.1000000000000005,9.5,-8.600000000000001,15.899999999999999,-23.0,16
896,15041.0,-6.6000000000000005,2.4000000000000004,8.6,2.9000000000000004,4.3,9.700000000000001,-5.500000000000001,14.600000000000001,-20.7,16
897,15059.0,-6.4,2.5,8.700000000000001,3.3000000000000003,4.4,9.9,-0.6000000000000001,19.300000000000004,-18.6,16
898,15078.0,-6.300000000000001,2.3000000000000003,8.5,3.3000000000000003,4.3,9.8,6.600000000000001,34.1,-21.300000000000004,16
899,15091.0,-6.4,1.9000000000000001,8.0,2.9000000000000004,3.6,9.1,10.299999999999999,36.300000000000004,-23.2,16
900,15107.0,-6.9,1.0,7.2,2.6,3.1,8.6,9.2,30.699999999999996,-23.900000000000006,16
901,15129.0,-6.9,0.7000000000000001,7.2,3.2,2.4000000000000004,9.4,-5.1000000000000005,3.9,-20.7,16
902,15140.0,-5.2,-0.4,9.1,5.300000000000001,1.4000000000000001,11.5,-13.100000000000001,-6.0,-18.6,16
903,15158.0,-4.2,-0.9,10.0,5.800000000000001,0.9,12.0,-18.200000000000003,-8.100000000000001,-22.9,16
904,15174.0,-3.4000000000000004,-2.2,11.0,6.0,0.1,12.5,-16.8,10.600000000000001,-32.400000000000006,16
905,15191.0,-4.0,-2.6,10.700000000000001,5.0,-0.30000000000000004,11.9,-9.899999999999999,27.099999999999998,-35.599999999999994,16
906,15209.0,-4.7,-2.9000000000000004,9.600000000000001,4.7,-0.4,11.200000000000001,-4.300000000000001,26.799999999999997,-32.9,16
907,15225.0,-4.800000000000001,-2.8000000000000003,8.3,4.5,-0.2,9.9,7.400000000000001,14.400000000000002,-25.6,16
908,15240.0,-4.800000000000001,-2.8000000000000003,7.9,4.5,-0.2,9.600000000000001,12.0,4.9,-22.700000000000003,16
909,15260.0,-4.800000000000001,-2.8000000000000003,6.800000000000001,4.5,-0.1,8.5,14.100000000000001,-5.7,-20.2,16
910,15275.0,-4.9,-2.9000000000000004,6.5,4.3,-0.1,8.200000000000001,9.4,-7.6,-19.9,16
911,15291.0,-5.0,-2.9000000000000004,6.300000000000001,4.2,0.0,7.9,8.3,-10.0,-21.0,16
912,15308.0,-5.1000000000000005,-2.8000000000000003,5.9,4.1000000000000005,0.1,7.6000000000000005,9.4,-14.200000000000001,-22.3,16
913,15324.0,-5.1000000000000005,-2.7,5.800000000000001,4.1000000000000005,0.4,7.1000000000000005,6.500000000000001,-31.3,-25.200000000000003,16
914,15341.0,-4.800000000000001,-2.4000000000000004,5.6000000000000005,4.4,0.6000000000000001,7.1000000000000005,-6.699999999999999,-40.1,-29.800000000000004,16
915,15359.0,-4.7,-2.4000000000000004,5.9,4.5,0.7000000000000001,7.300000000000001,-14.700000000000001,-39.8,-33.300000000000004,16
916,15374.0,-4.800000000000001,-2.2,6.5,4.3,1.0,7.9,-28.0,-31.6,-43.6,16
917,15390.0,-5.4,-2.2,6.800000000000001,3.7,1.1,8.1,-31.6,-26.1,-48.400000000000006,16
918,15410.0,-6.6000000000000005,-2.0,6.7,2.5,1.4000000000000001,7.9,-38.0,-27.400000000000002,-50.3,16
919,15426.0,-6.800000000000001,-1.8,7.0,2.3000000000000003,1.7000000000000002,8.200000000000001,-42.1,-30.799999999999997,-48.400000000000006,16
920,15441.0,-6.7,-1.8,7.300000000000001,2.3000000000000003,1.8,8.5,-46.50000000000001,-33.50000000000001,-46.800000000000004,16
921,15457.0,-6.6000000000000005,-1.8,8.4,2.5,1.9000000000000001,10.0,-49.199999999999996,-37.1,-43.4,16
922,15478.0,-6.300000000000001,-2.1,9.9,2.7,1.8,11.0,-37.400000000000006,-36.2,-41.6,16
923,15491.0,-6.300000000000001,-2.1,9.9,2.6,1.9000000000000001,10.700000000000001,-17.6,-28.600000000000005,-40.1,16
924,15507.0,-6.300000000000001,-1.9000000000000001,9.1,2.6,2.2,10.100000000000001,-9.0,-25.300000000000004,-39.300000000000004,16
925,15524.0,-6.1000000000000005,-1.6,7.800000000000001,2.7,2.5,8.8,1.7,-20.0,-39.9,16
926,15540.0,-6.2,-1.6,7.4,2.6,2.7,8.3,2.8,-16.8,-41.900000000000006,16
927,15557.0,-6.7,-1.6,6.5,2.1,2.8000000000000003,7.4,-0.30000000000000004,-8.3,-46.9,16
928,15577.0,-7.1000000000000005,-1.7000000000000002,5.9,1.4000000000000001,2.9000000000000004,6.6000000000000005,-6.500000000000001,-5.0,-49.4,16
929,15591.0,-7.4,-1.5,5.9,1.1,3.1,6.800000000000001,-18.8,-13.3,-46.1,16
930,15607.0,-7.0,-1.6,6.5,1.5,3.1,7.4,-23.5,-14.300000000000002,-44.10000000000001,16
931,15624.0,-6.5,-1.7000000000000002,7.7,2.0,3.2,8.6,-25.0,-10.700000000000001,-45.8,16
932,15640.0,-6.5,-1.7000000000000002,7.800000000000001,1.9000000000000001,3.2,8.700000000000001,-21.200000000000003,-7.6,-48.0,16
933,15657.0,-7.300000000000001,-1.6,7.5,1.0,3.4000000000000004,8.4,-13.399999999999999,-6.8,-47.80000000000001,16
934,15678.0,-7.2,-1.8,7.4,1.1,3.4000000000000004,8.3,-13.700000000000001,-12.0,-39.9,16
935,15691.0,-6.6000000000000005,-1.9000000000000001,7.9,1.8,3.3000000000000003,9.0,-13.700000000000001,-18.1,-31.6,16
936,15707.0,-5.7,-2.1,8.4,2.4000000000000004,3.2,9.3,-12.200000000000001,-20.900000000000002,-29.1,16
937,15724.0,-4.9,-2.2,9.200000000000001,3.3000000000000003,3.2,10.0,-9.8,-21.1,-27.3,16
938,15740.0,-4.6000000000000005,-2.2,9.5,3.6,3.2,10.3,-8.0,-18.900000000000002,-27.2,16
939,15758.0,-4.2,-2.2,9.8,3.8000000000000003,3.3000000000000003,10.600000000000001,-0.1,-14.700000000000001,-27.5,16
940,15773.0,-4.0,-2.1,9.600000000000001,4.1000000000000005,3.5,10.3,8.5,-18.6,-27.099999999999998,16
941,15791.0,-3.6,-2.1,9.1,4.4,3.5,9.8,16.0,-20.3,-27.0,16
942,15807.0,-3.5,-2.1,8.3,4.4,3.6,9.0,19.700000000000003,-20.400000000000002,-27.400000000000002,16
943,15824.0,-3.3000000000000003,-1.8,7.800000000000001,4.6000000000000005,4.0,8.3,22.2,-25.900000000000002,-28.400000000000002,16
944,15841.0,-2.9000000000000004,-1.6,7.5,4.9,4.3,7.9,14.100000000000001,-37.0,-31.799999999999997,16
945,15859.0,-2.6,-1.6,7.6000000000000005,5.2,4.3,8.0,8.0,-40.300000000000004,-33.7,16
946,15879.0,-2.2,-1.7000000000000002,8.0,5.5,4.3,8.3,-6.600000000000001,-42.1,-40.5,16
947,15892.0,-2.4000000000000004,-1.9000000000000001,8.5,5.300000000000001,4.2,8.6,-25.8,-35.5,-48.2,16
948,15907.0,-3.2,-2.3000000000000003,9.200000000000001,4.4,3.9000000000000004,9.4,-35.9,-32.5,-51.6,16
949,15924.0,-4.3,-3.1,10.8,3.2,3.2,10.9,-49.6,-30.5,-51.1,16
950,15940.0,-4.6000000000000005,-4.1000000000000005,12.4,2.7,2.4000000000000004,12.600000000000001,-45.5,-32.0,-42.900000000000006,16
951,15957.0,-4.7,-4.7,13.0,2.7,1.8,13.200000000000001,-35.3,-30.200000000000003,-37.2,16
952,15977.0,-4.5,-5.7,13.0,2.8000000000000003,0.9,13.200000000000001,-0.8,-25.900000000000002,-25.8,16
953,15991.0,-3.9000000000000004,-6.2,11.100000000000001,3.3000000000000003,0.5,11.200000000000001,32.2,-17.300000000000004,-17.200000000000003,16
954,16007.0,-3.5,-6.4,9.600000000000001,3.7,0.30000000000000004,9.700000000000001,42.5,-12.200000000000001,-15.000000000000002,16
955,16024.0,-2.9000000000000004,-6.5,7.5,4.3,0.2,7.4,50.0,-6.1000000000000005,-15.100000000000001,16
956,16040.0,-2.7,-6.5,7.0,4.4,0.2,6.800000000000001,47.5,-6.300000000000001,-15.8,16
957,16061.0,-2.1,-6.6000000000000005,6.0,5.0,0.2,5.800000000000001,29.900000000000006,-7.300000000000001,-18.3,16
958,16080.0,-2.0,-6.6000000000000005,6.300000000000001,5.1000000000000005,0.2,6.0,3.5,-3.0,-23.5,16
959,16090.0,-2.3000000000000003,-6.7,7.4,4.7,0.2,7.1000000000000005,-18.4,7.1000000000000005,-27.0,16
960,16107.0,-2.8000000000000003,-6.6000000000000005,7.9,4.2,0.30000000000000004,7.6000000000000005,-22.8,12.100000000000001,-26.799999999999997,16
961,16124.0,-3.9000000000000004,-6.0,7.800000000000001,3.0,0.9,7.5,-14.900000000000002,12.299999999999999,-16.0,16
962,16140.0,-4.0,-5.800000000000001,7.5,2.9000000000000004,1.2000000000000002,7.300000000000001,-8.100000000000001,6.2,-7.9,16
963,16157.0,-3.5,-5.0,6.4,3.4000000000000004,2.0,6.2,0.7,-8.0,6.300000000000001,16
964,16178.0,-2.5,-4.1000000000000005,5.9,4.4,2.8000000000000003,5.7,-3.2,-12.7,11.8,16
965,16190.0,-1.6,-3.6,6.2,5.300000000000001,3.4000000000000004,6.0,-13.5,-12.9,8.899999999999999,16
966,16208.0,-1.3,-3.4000000000000004,6.6000000000000005,5.6000000000000005,3.6,6.4,-17.5,-13.700000000000001,4.5,16
967,16225.0,-1.4000000000000001,-3.2,7.1000000000000005,5.5,3.8000000000000003,6.9,-23.5,-10.200000000000001,-7.1000000000000005,16
968,16241.0,-1.7000000000000002,-3.2,7.2,5.2,3.7,7.0,-25.900000000000002,-6.600000000000001,-12.100000000000001,16
969,16257.0,-2.4000000000000004,-3.2,7.6000000000000005,4.4,3.7,7.4,-25.8,-3.4,-16.700000000000003,16
970,16273.0,-2.7,-3.3000000000000003,7.4,4.1000000000000005,3.7,7.4,-19.9,-7.8,-18.1,16
971,16290.0,-3.0,-3.4000000000000004,7.1000000000000005,3.8000000000000003,3.7,7.1000000000000005,-15.100000000000001,-11.1,-20.400000000000002,16
972,16307.0,-3.1,-3.4000000000000004,7.0,3.7,3.7,6.9,-14.700000000000001,-10.8,-21.6,16
973,16324.0,-3.5,-3.6,7.1000000000000005,3.2,3.5,7.1000000000000005,-16.4,-9.100000000000001,-24.5,16
974,16342.0,-3.6,-3.8000000000000003,7.300000000000001,3.1,3.4000000000000004,7.300000000000001,-17.1,-7.400000000000001,-25.4,16
975,16357.0,-3.9000000000000004,-4.2,7.5,2.7,3.0,7.6000000000000005,-15.6,-1.5,-26.1,16
976,16374.0,-4.6000000000000005,-4.5,7.2,1.9000000000000001,2.8000000000000003,7.300000000000001,-11.2,4.7,-23.400000000000002,16
977,16395.0,-4.9,-4.4,6.9,1.6,2.9000000000000004,7.0,-9.3,4.9,-13.8,16
978,16407.0,-4.800000000000001,-4.2,7.0,1.7000000000000002,3.1,7.1000000000000005,-11.2,2.8,-9.2,16
979,16423.0,-4.0,-3.9000000000000004,7.9,2.5,3.4000000000000004,8.0,-18.200000000000003,-0.1,0.7,16
980,16440.0,-2.6,-3.5,9.4,3.9000000000000004,3.8000000000000003,9.600000000000001,-18.6,-0.2,5.2,16
981,16457.0,-2.0,-3.4000000000000004,9.8,4.4,3.9000000000000004,10.0,-15.299999999999999,1.8000000000000003,4.7,16
982,16474.0,-1.3,-3.1,10.200000000000001,5.2,4.2,10.4,-4.800000000000001,11.700000000000001,-0.2,16
983,16490.0,-1.2000000000000002,-3.0,9.5,5.300000000000001,4.4,9.8,7.0,20.900000000000002,-6.1000000000000005,16
984,16509.0,-1.4000000000000001,-2.8000000000000003,8.700000000000001,5.1000000000000005,4.6000000000000005,9.0,11.700000000000001,22.000000000000004,-8.0,16
985,16524.0,-1.3,-2.7,7.7,5.1000000000000005,4.7,8.1,17.400000000000002,17.1,-8.4,16
986,16540.0,-1.2000000000000002,-2.6,7.4,5.300000000000001,4.800000000000001,7.7,18.5,8.700000000000001,-8.4,16
987,16558.0,-1.0,-2.4000000000000004,7.300000000000001,5.4,5.0,7.6000000000000005,17.6,4.5,-9.100000000000001,16
988,16577.0,-0.5,-2.5,7.4,5.9,4.9,7.6000000000000005,15.899999999999999,1.7,-14.5,16
989,16592.0,-0.6000000000000001,-2.6,7.2,5.4,4.800000000000001,7.2,14.700000000000001,9.700000000000001,-24.0,16
990,16608.0,-1.6,-2.7,6.2,4.800000000000001,4.800000000000001,6.4,12.299999999999999,14.700000000000001,-27.5,16
991,16623.0,-2.4000000000000004,-2.8000000000000003,5.6000000000000005,3.9000000000000004,4.7,5.9,-1.1,19.1,-28.700000000000003,16
992,16640.0,-2.5,-3.0,5.6000000000000005,3.7,4.6000000000000005,5.9,-10.8,16.700000000000003,-26.799999999999997,16
993,16657.0,-2.7,-3.9000000000000004,6.300000000000001,3.5,3.8000000000000003,6.7,-34.7,0.9000000000000001,-20.5,16
994,16673.0,-2.3000000000000003,-5.1000000000000005,7.7,3.8000000000000003,2.5,8.200000000000001,-53.300000000000004,-31.6,-14.800000000000002,16
995,16694.0,-0.4,-6.4,11.200000000000001,5.7,1.3,11.700000000000001,-70.6,-70.4,-5.9,16
996,16707.0,0.8,-7.0,13.100000000000001,6.9,0.7000000000000001,13.700000000000001,-73.0,-70.2,-5.6,16
997,16724.0,0.8,-8.1,14.9,6.800000000000001,-0.4,15.5,-64.30000000000001,-24.7,-16.700000000000003,16
998,16741.0,-0.1,-8.4,14.700000000000001,6.0,-0.7000000000000001,15.4,-50.900000000000006,6.9,-20.7,16
999,16757.0,-2.2,-9.0,12.3,3.8000000000000003,-1.3,13.100000000000001,-6.8,39.50000000000001,-12.8,16
1000,16774.0,-3.3000000000000003,-8.700000000000001,8.700000000000001,2.6,-0.9,9.600000000000001,42.400000000000006,16.6,6.9,16
1001,16790.0,-3.2,-8.3,6.9,3.2,0.1,5.9,70.3,-33.1,23.6,16
1002,16807.0,-2.0,-6.9,3.8000000000000003,4.0,0.8,4.4,65.0,-53.2,27.3,16
1003,16823.0,-0.30000000000000004,-6.300000000000001,4.3,5.7,1.4000000000000001,4.6000000000000005,19.700000000000003,-63.2,22.700000000000003,16
1004,16840.0,0.2,-6.1000000000000005,5.1000000000000005,6.4,1.5,5.300000000000001,-7.200000000000001,-58.2,16.200000000000003,16
1005,16857.0,0.2,-6.5,7.800000000000001,6.300000000000001,1.1,8.0,-50.5,-35.3,-5.0,16
1006,16873.0,-1.0,-7.0,9.5,5.1000000000000005,0.6000000000000001,9.8,-59.699999999999996,-20.2,-18.200000000000003,16
1007,16891.0,-1.7000000000000002,-7.300000000000001,9.9,4.4,0.4,10.200000000000001,-53.400000000000006,-20.1,-18.8,16
1008,16907.0,-1.4000000000000001,-7.1000000000000005,9.5,4.6000000000000005,0.6000000000000001,9.9,-31.0,-27.800000000000004,-9.4,16
1009,16924.0,-0.8,-6.6000000000000005,8.3,5.2,1.1,8.700000000000001,-8.2,-38.0,-2.3,16
1010,16941.0,-0.6000000000000001,-6.4,8.0,5.5,1.3,8.4,-5.300000000000001,-37.300000000000004,-2.8,16
1011,16959.0,-0.8,-6.2,7.2,5.2,1.5,7.6000000000000005,-4.0,-26.799999999999997,-8.2,16
1012,16973.0,-1.6,-6.1000000000000005,6.300000000000001,4.5,1.6,6.6000000000000005,-5.500000000000001,-23.099999999999998,-10.4,16
1013,16990.0,-1.8,-5.9,5.9,4.2,1.9000000000000001,6.0,-9.2,-25.5,-9.8,16
1014,17007.0,-2.0,-5.7,5.300000000000001,4.1000000000000005,2.0,5.6000000000000005,-12.299999999999999,-28.400000000000002,-9.899999999999999,16
1015,17025.0,-1.9000000000000001,-5.6000000000000005,5.2,4.1000000000000005,2.2,5.5,-22.9,-32.400000000000006,-10.700000000000001,16
1016,17041.0,-1.6,-5.5,5.5,4.7,2.4000000000000004,6.4,-36.8,-30.3,-14.200000000000001,16
1017,17057.0,-1.1,-5.300000000000001,6.6000000000000005,4.800000000000001,2.5,6.9,-42.1,-25.6,-18.4,16
1018,17077.0,-1.7000000000000002,-5.2,7.300000000000001,4.2,2.6,7.7,-44.4,-14.300000000000002,-28.600000000000005,16
1019,17090.0,-2.5,-5.0,7.2,3.3000000000000003,2.9000000000000004,7.7,-43.00000000000001,-5.0,-33.7,16
1020,17107.0,-3.1,-4.800000000000001,7.1000000000000005,2.6,3.1,7.7,-42.7,-1.5,-32.9,16
1021,17124.0,-3.1,-4.5,7.4,2.6,3.5,8.0,-43.00000000000001,-4.4,-26.200000000000003,16
1022,17140.0,-2.8000000000000003,-4.4,7.9,2.8000000000000003,3.6,8.6,-42.5,-10.1,-18.900000000000002,16
1023,17157.0,-2.7,-4.3,8.200000000000001,2.9000000000000004,3.7,9.0,-41.199999999999996,-11.2,-15.100000000000001,16
1024,17174.0,-2.4000000000000004,-4.0,9.4,3.1,4.0,10.3,-32.300000000000004,-10.9,-3.1,16
1025,17190.0,-1.9000000000000001,-3.9000000000000004,10.5,3.7,4.2,11.5,-11.8,-4.9,7.300000000000001,16
1026,17217.0,-1.2000000000000002,-3.8000000000000003,10.100000000000001,4.4,4.2,11.100000000000001,22.5,-4.300000000000001,12.9,16
1027,17224.0,-0.8,-4.0,8.6,4.800000000000001,4.0,9.600000000000001,37.800000000000004,-8.2,12.600000000000001,16
1028,17241.0,-0.6000000000000001,-4.1000000000000005,8.0,5.0,3.9000000000000004,8.9,46.800000000000004,-13.3,11.5,16
1029,17260.0,-0.1,-4.6000000000000005,6.9,5.9,3.1,7.5,39.50000000000001,-23.900000000000006,6.1000000000000005,16
1030,17276.0,0.5,-5.0,7.0,6.2,3.0,7.5,33.300000000000004,-20.1,2.6,16
1031,17290.0,0.5,-5.0,7.300000000000001,6.2,2.9000000000000004,7.7,24.1,-7.699999999999999,-4.1,16
1032,17307.0,0.5,-5.0,7.300000000000001,6.2,2.9000000000000004,7.7,21.8,-1.9,-5.9,16
1033,17325.0,0.7000000000000001,-5.2,7.0,6.300000000000001,2.8000000000000003,7.300000000000001,20.400000000000002,1.9,-6.699999999999999,16
1034,17340.0,0.7000000000000001,-5.2,7.0,6.300000000000001,2.8000000000000003,7.300000000000001,20.400000000000002,1.9,-6.699999999999999,16
1035,17357.0,1.0,-6.6000000000000005,4.3,6.300000000000001,1.1,4.9,-40.300000000000004,-9.3,-11.900000000000002,16
1036,17374.0,-0.8,-6.800000000000001,8.3,4.800000000000001,1.3,8.8,-111.20000000000002,-33.800000000000004,-10.5,16
1037,17390.0,-2.9000000000000004,-7.2,15.5,2.7,0.8,16.3,-140.0,-3.9,4.1,16
1038,17407.0,-3.5,-7.6000000000000005,17.6,2.1,0.4,18.5,-117.4,24.200000000000003,19.1,16
1039,17423.0,-2.4000000000000004,-7.6000000000000005,15.700000000000001,3.3000000000000003,0.30000000000000004,17.0,-12.5,58.7,54.0,16
1040,17440.0,-1.8,-7.4,13.100000000000001,4.0,0.5,14.5,79.9,38.1,65.2,16
1041,17457.0,-0.5,-7.0,7.300000000000001,5.4,0.8,8.4,144.5,-11.900000000000002,54.6,16
1042,17473.0,0.2,-6.6000000000000005,3.5,6.2,1.1,4.2,129.60000000000002,-30.699999999999996,29.600000000000005,16
1043,17496.0,0.5,-6.9,3.0,6.5,0.8,3.3000000000000003,57.3,-7.400000000000001,4.800000000000001,16
1044,17507.0,0.6000000000000001,-7.1000000000000005,4.2,6.7,0.6000000000000001,4.5,19.200000000000003,12.8,-6.8,16
1045,17524.0,-0.2,-8.1,6.800000000000001,5.800000000000001,-0.4,7.1000000000000005,-27.3,43.900000000000006,-29.600000000000005,16
1046,17541.0,-2.4000000000000004,-8.8,8.200000000000001,3.6,-1.1,8.700000000000001,-34.7,54.199999999999996,-39.300000000000004,16
1047,17560.0,-2.9000000000000004,-8.9,8.5,2.9000000000000004,-1.1,9.1,-28.500000000000004,53.0,-35.0,16
1048,17574.0,-3.8000000000000003,-8.700000000000001,8.6,2.0,-0.8,9.4,-2.8,39.599999999999994,-14.400000000000002,16
1049,17590.0,-3.4000000000000004,-8.1,7.5,2.3000000000000003,-0.2,8.3,24.1,20.900000000000002,7.8,16
1050,17607.0,-3.2,-7.4,6.6000000000000005,2.6,0.5,7.4,30.200000000000003,16.700000000000003,16.6,16
1051,17623.0,-2.6,-6.5,6.2,3.2,1.3,7.0,27.800000000000004,17.5,30.200000000000003,16
1052,17640.0,-1.6,-5.7,6.7,4.3,2.0,7.4,16.900000000000002,25.0,38.2,16
1053,17657.0,-1.4000000000000001,-5.5,6.800000000000001,4.6000000000000005,2.3000000000000003,7.5,13.6,28.1,38.800000000000004,16
1054,17674.0,-1.1,-5.2,7.0,4.9,2.7,8.0,11.6,30.5,36.300000000000004,16
1055,17690.0,-1.3,-4.7,7.6000000000000005,4.9,2.9000000000000004,8.3,23.5,22.3,33.9,16
1056,17707.0,-1.1,-4.7,7.0,5.1000000000000005,2.9000000000000004,7.800000000000001,38.900000000000006,13.100000000000001,33.800000000000004,16
1057,17723.0,-0.8,-4.2,6.1000000000000005,5.5,3.3000000000000003,6.800000000000001,46.1,13.5,32.2,16
1058,17740.0,-0.8,-4.2,6.1000000000000005,5.7,3.3000000000000003,6.800000000000001,43.70000000000001,16.900000000000002,30.5,16
1059,17759.0,-0.30000000000000004,-4.0,6.6000000000000005,6.1000000000000005,3.5,7.2,40.300000000000004,20.900000000000002,23.900000000000006,16
1060,17775.0,-0.30000000000000004,-4.2,6.7,6.2,3.2,7.2,44.7,16.700000000000003,15.5,16
1061,17791.0,-0.8,-4.4,6.1000000000000005,5.7,3.0,6.6000000000000005,46.800000000000004,2.9,8.8,16
1062,17807.0,-1.2000000000000002,-4.2,6.0,5.300000000000001,3.2,6.5,43.00000000000001,-7.1000000000000005,7.9,16
1063,17824.0,-0.8,-3.7,7.7,5.800000000000001,3.6,8.0,26.6,-29.500000000000004,10.8,16
1064,17841.0,-0.4,-3.5,8.4,6.1000000000000005,3.8000000000000003,8.6,19.5,-35.8,13.3,16
1065,17857.0,0.30000000000000004,-2.8000000000000003,9.8,6.800000000000001,4.4,9.9,13.700000000000001,-30.3,12.4,16
1066,17873.0,-0.1,-1.7000000000000002,9.4,6.5,5.5,9.4,11.1,-4.6,5.9,16
1067,17890.0,-0.1,-1.7000000000000002,9.4,5.0,6.800000000000001,8.5,7.1000000000000005,4.300000000000001,2.7,16
1068,17907.0,-2.2,0.4,8.5,4.4,7.6000000000000005,8.6,-7.400000000000001,6.0,3.8,16
1069,17924.0,-2.5,1.5,10.3,4.1000000000000005,8.700000000000001,10.4,-21.200000000000003,-4.4,13.000000000000002,16
1070,17940.0,-2.2,1.6,11.100000000000001,4.4,8.8,11.200000000000001,-22.6,-12.8,19.799999999999997,16
1071,17957.0,-0.2,1.0,14.3,6.5,8.200000000000001,14.4,-13.3,-14.100000000000001,28.1,16
1072,17973.0,0.5,-0.2,15.4,7.300000000000001,6.9,15.600000000000001,26.300000000000004,35.699999999999996,11.4,16
1073,17991.0,-2.0,-2.9000000000000004,13.4,4.800000000000001,4.2,13.5,69.10000000000001,61.300000000000004,-12.0,16
1074,18007.0,-3.9000000000000004,-3.6,11.8,2.9000000000000004,3.5,11.9,86.4,55.0,-16.3,16
1075,18023.0,-5.800000000000001,-3.4000000000000004,10.8,1.0,3.8000000000000003,10.8,110.6,3.8,-4.2,16
1076,18040.0,-5.4,-3.6,10.9,1.3,3.5,10.8,125.80000000000001,-37.6,8.2,16
1077,18057.0,-3.0,-3.0,11.5,3.7,4.1000000000000005,10.9,155.1,-93.3,31.2,16
1078,18073.0,-0.4,-2.3000000000000003,10.700000000000001,6.4,4.7,9.5,163.20000000000002,-76.1,26.200000000000003,16
1079,18090.0,0.0,-0.9,8.700000000000001,6.800000000000001,5.9,7.0,129.00000000000003,-26.700000000000003,6.9,16
1080,18107.0,-0.30000000000000004,-0.9,8.6,6.5,5.9,6.6000000000000005,99.10000000000001,-0.6000000000000001,-4.9,16
1081,18123.0,-1.5,0.30000000000000004,10.0,5.2,7.1000000000000005,7.9,38.400000000000006,24.599999999999998,-28.500000000000004,16
1082,18140.0,-2.5,0.30000000000000004,11.100000000000001,4.3,7.1000000000000005,9.0,19.300000000000004,43.70000000000001,-35.3,16
1083,18157.0,-2.8000000000000003,-1.2000000000000002,12.700000000000001,3.9000000000000004,5.6000000000000005,10.700000000000001,-8.0,56.0,-30.200000000000003,16
1084,18174.0,-3.1,-1.7000000000000002,13.3,3.3000000000000003,5.2,11.8,-20.3,38.7,-21.7,16
1085,18190.0,-3.1,-2.0,15.100000000000001,3.6,4.9,13.4,-14.0,34.50000000000001,-17.200000000000003,16
1086,18208.0,-2.6,-2.5,15.8,4.1000000000000005,4.5,14.100000000000001,-6.300000000000001,43.6,-17.799999999999997,16
1087,18223.0,-2.6,-3.2,15.0,4.0,3.9000000000000004,13.4,25.6,48.6,-30.599999999999998,16
1088,18240.0,-4.5,-3.2,15.100000000000001,2.0,4.0,13.5,50.1,30.3,-47.0,16
1089,18258.0,-4.7,-3.9000000000000004,14.3,1.8,3.2,12.700000000000001,52.900000000000006,37.2,-46.0,16
1090,18274.0,-5.300000000000001,-3.9000000000000004,13.9,1.1,3.3000000000000003,12.200000000000001,57.00000000000001,36.9,-33.2,16
1091,18290.0,-4.7,-3.9000000000000004,13.100000000000001,1.7000000000000002,3.3000000000000003,11.4,59.60000000000001,34.900000000000006,-17.7,16
1092,18307.0,-4.2,-3.7,12.3,2.1,3.6,10.600000000000001,57.3,38.300000000000004,-12.9,16
1093,18323.0,-4.0,-3.5,11.9,2.7,3.7,9.700000000000001,41.0,44.300000000000004,-12.299999999999999,16
1094,18341.0,-4.1000000000000005,-3.9000000000000004,10.8,2.3000000000000003,3.4000000000000004,9.0,18.0,52.300000000000004,-19.300000000000004,16
1095,18357.0,-4.1000000000000005,-3.9000000000000004,10.8,2.7,3.6,8.9,5.0,55.400000000000006,-21.400000000000002,16
1096,18374.0,-4.1000000000000005,-5.800000000000001,9.9,2.2,1.5,8.3,-14.400000000000002,59.1,-29.400000000000002,16
1097,18390.0,-6.0,-6.4,9.600000000000001,0.30000000000000004,1.0,8.200000000000001,-29.200000000000003,83.80000000000001,-18.8,16
1098,18407.0,-7.300000000000001,-6.2,9.3,-1.0,1.2000000000000002,8.0,-27.700000000000003,81.90000000000002,-13.6,16
1099,18426.0,-6.6000000000000005,-6.4,9.5,-0.30000000000000004,1.1,8.4,-15.299999999999999,78.3,13.3,16
1100,18443.0,-6.1000000000000005,-6.4,9.1,0.30000000000000004,1.1,8.200000000000001,-5.500000000000001,82.0,26.200000000000003,16
1101,18457.0,-4.1000000000000005,-6.6000000000000005,8.3,2.4000000000000004,0.8,7.5,8.700000000000001,108.3,36.9,16
1102,18473.0,-4.3,-6.5,7.300000000000001,2.3000000000000003,0.7000000000000001,6.7,15.6,136.7,28.700000000000003,16
1103,18492.0,-6.6000000000000005,-5.9,7.4,0.0,1.3,7.2,30.4,114.3,23.0,16
1104,18507.0,-7.5,-5.5,7.4,-0.8,1.7000000000000002,7.2,44.8,89.8,30.1,16
1105,18523.0,-6.6000000000000005,-4.3,6.1000000000000005,0.2,2.8000000000000003,6.0,77.1,69.3,52.2,16
1106,18540.0,-6.6000000000000005,-4.3,6.1000000000000005,0.6000000000000001,3.2,5.6000000000000005,85.0,77.1,59.00000000000001,16
1107,18557.0,-5.4,-3.3000000000000003,4.1000000000000005,1.6,3.6,4.0,86.1,98.9,61.8,16
1108,18573.0,-7.1000000000000005,-2.6,4.5,0.0,4.1000000000000005,4.4,77.1,92.39999999999999,51.4,16
1109,18592.0,-8.8,-2.0,4.3,-1.6,4.6000000000000005,4.3,74.4,74.5,59.20000000000001,16
1110,18610.0,-8.3,-1.7000000000000002,3.9000000000000004,-0.1,5.2,3.6,61.10000000000001,82.50000000000001,81.2,16
1111,18624.0,-6.2,-0.6000000000000001,3.3000000000000003,1.3,5.7,3.3000000000000003,51.2,91.30000000000001,86.89999999999999,16
1112,18640.0,-5.4,0.1,3.2,2.1,6.300000000000001,3.3000000000000003,40.1,104.2,86.3,16
1113,18657.0,-5.6000000000000005,0.6000000000000001,3.3000000000000003,2.1,6.6000000000000005,3.6,14.600000000000001,120.9,70.8,16
1114,18673.0,-7.300000000000001,0.2,4.9,0.6000000000000001,6.1000000000000005,5.5,-0.7,96.30000000000001,61.7,16
1115,18691.0,-7.1000000000000005,0.7000000000000001,5.4,0.9,6.4,6.2,0.1,53.400000000000006,67.3,16
1116,18707.0,-6.5,1.1,4.800000000000001,1.6,6.7,5.7,0.6000000000000001,53.7,71.6,16
1117,18724.0,-5.2,1.9000000000000001,3.4000000000000004,2.9000000000000004,7.2,4.5,-8.700000000000001,97.3,78.7,16
1118,18742.0,-5.800000000000001,1.9000000000000001,4.3,2.5,7.0,5.7,-21.900000000000002,97.00000000000001,60.00000000000001,16
1119,18757.0,-5.800000000000001,2.0,4.1000000000000005,2.2,6.4,5.800000000000001,-17.400000000000002,77.60000000000001,42.3,16
1120,18775.0,-6.1000000000000005,0.1,3.7,2.1,5.1000000000000005,5.5,-11.1,44.5,27.800000000000004,16
1121,18790.0,-6.4,-0.7000000000000001,3.4000000000000004,1.9000000000000001,4.2,5.300000000000001,-36.6,14.400000000000002,7.1000000000000005,16
1122,18807.0,-7.7,-1.3,5.7,0.6000000000000001,3.6,7.6000000000000005,-60.5,7.9,-3.2,16
1123,18823.0,-9.4,-2.2,7.5,-1.1,2.6,9.700000000000001,-107.00000000000001,-7.9,-12.5,16
1124,18840.0,-10.3,-2.1,8.200000000000001,-2.6,1.8,10.200000000000001,-132.5,-17.799999999999997,-3.9,16
1125,18857.0,-10.4,-3.0,7.9,-2.1,1.6,10.3,-168.2,-12.0,46.9,16
1126,18873.0,-8.4,-2.2,8.6,0.0,2.1,11.200000000000001,-164.6,-20.599999999999998,79.1,16
1127,18890.0,-6.4,-0.5,10.5,2.2,3.5,13.200000000000001,-110.9,-54.800000000000004,68.4,16
1128,18907.0,-4.7,-0.6000000000000001,11.9,4.0,3.1,14.700000000000001,-60.00000000000001,-48.300000000000004,54.6,16
1129,18924.0,-7.2,0.30000000000000004,5.1000000000000005,1.6,4.0,7.800000000000001,35.0,6.4,28.0,16
1130,18942.0,-6.800000000000001,1.5,3.4000000000000004,2.0,5.1000000000000005,6.0,21.300000000000004,14.900000000000002,34.300000000000004,16
1131,18957.0,-6.5,2.0,3.6,2.3000000000000003,5.5,6.300000000000001,3.1,1.8000000000000003,30.1,16
1132,18973.0,-3.8000000000000003,2.6,5.5,5.0,6.0,8.200000000000001,-26.5,-9.5,21.1,16
1133,18991.0,-3.2,2.5,6.1000000000000005,5.1000000000000005,6.0,8.9,-26.1,22.9,-4.300000000000001,16
1134,19007.0,-5.5,2.9000000000000004,5.800000000000001,3.3000000000000003,6.2,8.5,-18.200000000000003,21.8,-19.0,16
1135,19023.0,-6.800000000000001,2.2,4.2,2.0,5.6000000000000005,7.0,1.8000000000000003,-25.300000000000004,-37.300000000000004,16
1136,19040.0,-6.7,2.0,4.0,2.1,5.4,6.7,-1.6,-32.5,-35.599999999999994,16
1137,19057.0,-6.0,1.0,4.1000000000000005,2.7,4.5,6.7,-21.500000000000004,-20.3,-34.2,16
1138,19073.0,-7.2,0.0,5.1000000000000005,1.5,3.7,7.7,-34.800000000000004,-5.7,-40.4,16
