,ms,accelX,accelY,accelZ,accelWithGX,accelWithGY,accelWithGZ,rotRateAlpha,rotRateBeta,rotRateGamma,interval
0,1.0,0.010086217467486858,0.1445931798517704,-0.0315583368241787,-1.5381234677419064,-7.66189247174561,-5.7614966575622555,0.5790339826428853,1.5239069844968167,0.16369444808264122,0.01666666753590107
1,31.0,-0.08439933484755456,0.11416676966696977,0.03767185126841068,-0.1967734580772463,-3.6824312064021822,-9.003544396099448,-7.368389293589538,-3.513917603899528,-0.732701659663095,0.01666666753590107
2,45.0,-0.06754818982239812,0.14542057058662175,0.08118658334612847,-0.18510173411713912,-3.640383332006633,-8.964489566040038,-6.741982399523914,-3.2784331718849984,-1.1140352298105793,0.01666666753590107
3,60.0,0.030656273417919874,0.057739072263240813,0.11010872644782066,-0.09741410744707099,-3.7122093818113204,-8.942043925476074,-4.2705992573257445,-2.12958254688416,-0.46819500681324067,0.01666666753590107
4,78.0,0.046332401580642904,0.07510638664960861,0.053638066685199735,-0.08514378740615211,-3.687668814794719,-9.0014500541687,-1.953996526013115,-1.2141798903081296,-0.3738736962329347,0.01666666753590107
5,95.0,0.04085850021420046,0.09877952318191528,0.0968792425185442,-0.09068034221264533,-3.6614819418758153,-8.959252249908447,-0.05365177626068485,0.36205306669844917,-0.8855467257751412,0.01666666753590107
6,111.0,0.04726688768547028,0.04277063571214676,0.14510931268036364,-0.07885902631455101,-3.7186437987729906,-8.910620028686523,0.980823489106882,2.8270110286000465,-1.0125484371411217,0.01666666753590107
7,128.0,0.057819206561055034,0.021800328397750854,0.113396077555418,-0.06000466084135696,-3.7409398017331954,-8.941894287872314,0.6785306289429305,3.3197686229682692,-0.9443465436793116,0.01666666753590107
8,145.0,0.09476264309021644,0.0520776855006814,0.0017605799317359924,-0.016011232735449448,-3.7116108313962815,-9.05322466506958,0.053207226995252224,1.747568999388289,-1.2305241061051468,0.01666666753590107
9,161.0,0.07835174351269379,0.06453297018706798,-0.02492109076678753,-0.026635447803465648,-3.697993517193198,-9.080458124431967,-0.8019996384041336,0.6361612579740489,-1.22738275269547,0.01666666753590107
10,178.0,0.08802026529107242,0.015924714362621308,0.010486907222867011,-0.015113352313963695,-3.7431843657895922,-9.04649097290039,-1.5433909528779244,0.1820119482195576,-0.7142016120484393,0.01666666753590107
11,195.0,0.08196833570781163,0.02138473333418369,0.021981530183553696,-0.02035072324448265,-3.7342058173030614,-9.036464668926596,-1.3422952426739396,0.31534321723373027,-0.3081652487050022,0.01666666753590107
12,211.0,0.0262935390306171,-0.021696575762331485,0.0761439130038023,-0.07571663663559593,-3.7755060882017015,-8.98304462890625,-0.12540147274864075,-0.8543437002430255,0.723250278677384,0.01666666753590107
13,227.0,0.055644264541612934,-0.01587327643632889,0.0012964695513248442,-0.048931523828906934,-3.7678745704099534,-9.058611618804932,-0.9603928991954929,-1.4992869273032712,0.9315938334469572,0.01666666753590107
14,245.0,0.03830261431946419,0.0042658407509326935,-0.01272387249469757,-0.06988077008896507,-3.7431843657895922,-9.074472620281577,-2.1939007307508778,-1.5167702905877998,-0.002852617834685247,0.01666666753590107
15,261.0,0.015317396119236945,0.03775193076729774,0.05772270565032959,-0.09516952512436545,-3.704278296551108,-9.006237872967123,-1.9850649221133874,-1.3368047310766014,-0.1681617119649469,0.01666666753590107
16,277.0,-0.024438796275714412,0.00018996961414813993,0.08494272100925446,-0.13706801764448173,-3.7385458923339843,-8.980351152038574,-0.2640469757826271,-0.920248462348743,0.632226375321034,0.01666666753590107
17,294.0,-0.016948668849188834,0.03573737607449293,0.04423077139258384,-0.13257892606430685,-3.702931850378215,-9.02105258026123,-0.20168430709179594,-1.0585693979950215,0.5329679852291459,0.01666666753590107
18,311.0,-0.0470904899389483,0.07590776616036891,0.12088906365931033,-0.1640028045875486,-3.6629789024353023,-8.94428848953247,-0.2776184816221631,-0.5886546242539656,0.1830786316688432,0.01666666753590107
19,328.0,-0.08387890943633391,0.002485387074947357,0.1222632746219635,-0.20126254965742119,-3.7345053847715257,-8.943689939117432,-0.7861097369086278,0.4294591364002472,1.0561372103202622,0.01666666753590107
20,345.0,-0.0842674064304214,-0.0031619711622595786,0.11824176402091979,-0.20171145333554594,-3.7371988616392016,-8.948927255249023,-1.6606740521069174,0.2113054556309787,1.159466339796625,0.01666666753590107
21,361.0,-0.050296720368042586,0.05299596938937902,0.06136076989173889,-0.1690904465827625,-3.6770445449277758,-9.007435558319091,-2.0371250508540477,-0.1744267029811411,0.5091296645304494,0.01666666753590107
22,377.0,-0.0067955510247964404,0.06892740575373173,0.07470715819895267,-0.12479776153564452,-3.6541496992915867,-8.996960341534018,-1.9828551424734766,0.7967573614944431,-0.34467290330341127,0.01666666753590107
23,395.0,-0.0012859481573104857,0.04019523226618767,0.058174541071057316,-0.11686692287060431,-3.6783912833616137,-9.015365766796469,-1.6430267642823086,1.33719309136394,-0.002174161270606129,0.01666666753590107
24,411.0,0.027851052404614163,-0.008143851228058338,0.004099252012372017,-0.08649055323945358,-3.7250785079956055,-9.070133714294434,-0.24775862879858632,0.45645641959007466,0.5679307097342362,0.01666666753590107
25,428.0,0.009305981209455057,-0.015392507182061671,-0.04144494006633758,-0.10818798751831055,-3.7334579215452073,-9.115174633026122,0.26995508941468815,-1.37071117749872,0.23699027528310587,0.01666666753590107
26,445.0,-0.005215944550000131,-0.04211421763002872,-0.022717443242669104,-0.12629409190746954,-3.7596442099422216,-9.096618985638022,-0.5402837581604643,-1.1385990446651784,-0.03719603628112585,0.01666666753590107
27,461.0,-0.05233398921615444,-0.05121960736662149,0.05763327380120754,-0.17462707445449194,-3.7665278319761155,-9.017162002563476,-0.7529938848829384,0.20253239780721466,-0.4296057720239909,0.01666666753590107
28,478.0,-0.014407313803303986,-0.06876257058084011,-0.054714756006002424,-0.13811551740341818,-3.7835865188047286,-9.12968889606893,-0.10619619476196815,-0.9933129168910735,-0.05067253312208991,0.01666666753590107
29,494.0,0.006256101252697408,-0.0753162300080061,0.0017833762854337692,-0.1192611336639151,-3.789871298162639,-9.073276103973388,-0.4209392224625968,-1.1258201876149074,-0.2816447980966063,0.01666666753590107
30,511.0,0.002485076547693461,-0.0014218494966626166,0.11685294001102446,-0.12494739000624977,-3.7144539458677173,-8.958803337097168,-0.7190612382820506,-1.0482895364073292,-1.2304760813375453,0.01666666753590107
31,528.0,0.011241588914534077,0.024341245052218435,0.2412801146686077,-0.11566984943998977,-3.6863220763608813,-8.835352313995362,-1.2068318874216653,0.26991445512521184,-1.7514529224267934,0.01666666753590107
32,544.0,0.07474223864548839,-0.0562733836248517,0.41217853312194347,-0.04593872608793899,-3.7630861670896407,-8.666112184143065,-2.729402289275275,3.1675924351472085,-0.03857562777176264,0.01666666753590107
33,561.0,0.06204761964473873,-0.13763386223316193,0.16677110939025877,-0.05117601482006721,-3.8355107673093674,-8.915258794403076,-4.960599481432419,3.7809673282764487,1.5288428633892088,0.01666666753590107
34,578.0,0.06832892840392887,-0.06442337233275175,0.042370238217711444,-0.03995324020385742,-3.749319799804687,-9.044994596862793,-6.214261493681219,1.6650460135059604,1.579212093423468,0.01666666753590107
35,594.0,0.0857359354798682,0.15051234076768158,-0.2070160260170698,-0.02439089288022369,-3.5175308593198653,-9.301174174499511,-4.452398402463974,-1.4522175324117745,-0.03987987373811773,0.01666666753590107
36,611.0,-0.03863761842749081,0.07378390587419272,-0.1333084002494812,-0.1517325210792478,-3.588758358709514,-9.229646815380454,-1.7351924831688144,-1.135456944203561,-0.24520037610887274,0.01666666753590107
37,628.0,-0.06215993004594929,0.026240648932754993,-0.06934416986107826,-0.17582416615141555,-3.6349963782712815,-9.166201055908203,-1.2732164169557232,0.695577927337636,0.396113619263716,0.01666666753590107
38,645.0,-0.08983817403377033,-0.08745353478640318,-0.1842284401476383,-0.1999158203567378,-3.746476685333252,-9.28202056121826,-1.4330032497811767,1.2913609212075678,0.8140713574318965,0.01666666753590107
39,661.0,0.011872845155932009,0.033602994394302366,-0.12173545135557651,-0.09561841053618117,-3.623773557989299,-9.220220230865477,0.17915703586819806,0.9763931509347767,0.3068338153840993,0.01666666753590107
40,678.0,0.015005992082506418,0.028640695811808108,-0.04279343206584453,-0.09097963568647392,-3.630806817626953,-9.140463388061523,2.5138127042091116,0.3489518033750127,0.4564768034358789,0.01666666753590107
41,695.0,0.03443357260008342,-0.026343817046284673,0.13922726890444756,-0.06913258207016625,-3.694252869360149,-8.955062397003173,3.1429104793643097,1.8464823048445327,1.1954863028800393,0.01666666753590107
42,711.0,0.04684735623230226,-0.06839315274655819,0.31761399728655815,-0.05312133106840774,-3.7422865401670333,-8.774299587139486,1.7904129617827806,2.6903374492042103,1.4205025094961723,0.01666666753590107
43,728.0,0.12669128366466612,-0.054257952149212356,0.33159868349730964,0.03067570877075195,-3.7295676361083983,-8.75978532409668,-0.39613539049169544,2.120322091030092,1.3940407558259562,0.01666666753590107
44,745.0,0.1622988228144124,-0.09422931253165007,0.4164771070986986,0.06913256380385718,-3.7624876166746017,-8.677783917236328,-3.878358141878014,1.4292331988027411,2.647597753916267,0.01666666753590107
45,761.0,0.047812073078611864,-0.11747837843298911,0.3291197261631489,-0.04489126286162063,-3.771914785711467,-8.770708869171141,-7.374118968529532,1.3687367192200572,3.3353429483797794,0.01666666753590107
46,778.0,0.04326260221386328,-0.1278340604916215,0.18470248740017414,-0.049978941389452664,-3.761739428655803,-8.923339225006103,-9.79874050123568,0.5032277407573237,2.520401702324058,0.01666666753590107
47,795.0,0.08226059665265492,-0.10621054996550082,0.02765022346973419,-0.010624260733788832,-3.710563660430908,-9.092130442047118,-9.362100167975104,1.6632934296536173,0.7168516187246986,0.01666666753590107
48,811.0,0.005658911677682772,-0.19985095669329164,-0.039864977398514745,-0.07900864565200172,-3.7877763717100024,-9.166200471386313,-6.192963256301827,4.111004203405581,0.10669434500412951,0.01666666753590107
49,828.0,0.030865071030124088,-0.18620003248155115,-0.08496142570972443,-0.04025251541137695,-3.7650314559385176,-9.214982914733886,-2.6939049423850725,6.073055870327668,-0.9751478153500129,0.01666666753590107
50,845.0,0.044031490527396085,-0.15741934367716312,-0.15437106202244757,-0.008379682977660558,-3.736899294170737,-9.284264540752767,-0.19564986164051612,7.895741369217053,-2.263825859595941,0.01666666753590107
51,861.0,-0.051462247882923105,-0.15049334380626678,-0.21042086602449417,-0.07616554944687523,-3.733158646337688,-9.339182125854492,-0.2955258502437614,7.073404095507265,-4.178946229513813,0.01666666753590107
52,878.0,-0.026239347458234988,-0.16042378619015216,-0.33985271710157394,-0.030526077160624842,-3.7404908889219164,-9.469665531811117,-1.742898323934764,5.0302520430409166,-5.343863166989814,0.01666666753590107
53,894.0,-0.02843448516562348,-0.12492664861232042,-0.36098610602319237,-0.01960253807979461,-3.7027822127744554,-9.491662844085694,-0.8778591877817331,2.8122018978189893,-4.77140110698895,0.01666666753590107
54,911.0,-0.11097036651214584,0.06677811876535415,-0.29172318470478054,-0.08813656231423374,-3.512592818395793,-9.421781498607993,1.3163197130952637,2.348804298484889,-4.650998959186788,0.01666666753590107
55,928.0,-0.1352378704747185,0.14396628012508153,-0.35305414398014545,-0.10280104063282487,-3.440616838726401,-9.48103798969686,3.183525345490144,1.8784934804936784,-4.476042809823266,0.01666666753590107
56,945.0,-0.11289616520926356,0.17228519663661718,-0.3524240293830633,-0.07347209541208576,-3.423558151897788,-9.475950311169028,5.767780138487124,1.0377168304589726,-3.897099327186883,0.01666666753590107
57,961.0,-0.15573853271706029,0.2049555863559246,-0.22879414258301256,-0.11192894587861374,-3.413084104156494,-9.343521616363525,7.758871208439167,-0.4069816241719699,-2.6075098795735814,0.01666666753590107
58,978.0,-0.16596823204215616,0.21091215667277574,-0.09042670537829399,-0.121505757085816,-3.4249051825925707,-9.198073865509032,6.9360105714842275,-0.8779289304164614,-1.9043086073485647,0.01666666753590107
59,994.0,-0.07532061392217874,0.15331716905534268,0.07564823844134808,-0.03366845171279274,-3.4949358734130858,-9.02703808441162,4.16580793375847,-1.9717398633729273,-0.8826563818174622,0.01666666753590107
60,1011.0,-0.08335578974452801,0.18677169488966464,0.2810901470094919,-0.04908112946662586,-3.467551899664104,-8.819191452789306,1.433285315249557,-2.491287594100056,-0.7145775926179074,0.01666666753590107
61,1028.0,-0.09197349642887712,0.17989245676994323,0.35352819123268125,-0.06194996567325434,-3.474435521697998,-8.74676685256958,-0.16314895342375257,-1.055764324680262,-0.9534171416187943,0.01666666753590107
62,1044.0,-0.0719497401164379,0.03377104443758726,0.3798433667063713,-0.04309565271569881,-3.61689022821635,-8.721927010345459,-1.0768020543758416,0.20264637658898924,-0.24641449559469542,0.01666666753590107
63,1061.0,-0.028421723865461535,-0.01197276186645031,0.30700784759819505,0.0028431099048582837,-3.6565444854736326,-8.79719472503662,-3.455677861507299,1.8797705124250592,-0.6176608368334231,0.01666666753590107
64,1078.0,0.053012418200680984,0.08983195435553788,0.04091828584372997,0.0936731125541497,-3.5416222212642428,-9.068487116131186,-3.6292090626552276,3.277320064493698,-3.3812524917728433,0.01666666753590107
65,1095.0,-0.02641843948534224,0.13952654411196708,-0.12412146970927715,0.026485823899437672,-3.486106962530315,-9.235782541656494,-0.42032175735337174,4.600341580546919,-4.4115837533049165,0.01666666753590107
66,1111.0,-0.014899111341661773,0.16593991926312446,-0.20712357804477213,0.054468087768554684,-3.4645591475889086,-9.316736485290527,4.657016782732392,5.745497073206781,-4.844365456571257,0.01666666753590107
67,1128.0,-0.02786466080485843,0.1850181292206049,-0.3035574148833752,0.06224922489775345,-3.4717417525693772,-9.402478832244872,10.422072956401152,4.078791750619331,-4.260614801419655,0.01666666753590107
68,1145.0,-0.04427252817507833,0.08583353236913681,-0.24216800341904163,0.05551551446225494,-3.5965398063659664,-9.330652782440184,10.177288368058003,1.4193332664876308,-3.5367569027104047,0.01666666753590107
69,1161.0,-0.023518987150210887,0.027469606205821034,-0.09043605772852897,0.08065465016020461,-3.6753985312864184,-9.170540546417236,7.154308966886536,0.14180635983539489,-2.643095378592759,0.01666666753590107
70,1178.0,-0.03813112107692286,-0.05390080927461385,0.1132914481371641,0.0698807152900379,-3.7696699293941256,-8.961496229442954,2.569484508916828,0.9991842115346399,-1.7680810179611894,0.01666666753590107
71,1195.0,-0.038481998607516284,0.007831716538965701,0.14663959098756313,0.07511805882109329,-3.7089176467895504,-8.927678715515135,2.0455900031132206,2.5302124152931356,-1.4924707186767157,0.01666666753590107
72,1211.0,-0.06989202213534154,0.06603226883411407,0.05108136793971062,0.05072712027509697,-3.6540003539487715,-9.021800768280029,2.8385698431098234,2.4442282310489025,-1.0624076441434513,0.01666666753590107
73,1228.0,0.02589221908757463,0.138237965606153,-0.13190320962667465,0.15098431479413993,-3.590703647558391,-9.201066617584228,5.214660747328914,0.26665762882987937,-0.6915531316475002,0.01666666753590107
74,1245.0,0.05733787105120718,0.1469789059445262,-0.0033300212055444715,0.1816600235648919,-3.5953424132749436,-9.066991324615477,6.27185834451782,-0.48388757987475656,-0.34536662107141713,0.01666666753590107
75,1261.0,0.04407997387819923,0.1415674022898078,0.09716858085393905,0.16729481360395437,-3.615393852178752,-8.960449350738525,5.769050553672747,-0.007538714574695792,0.0065925732920903545,0.01666666753590107
76,1278.0,0.0726569568040315,0.14455810853838919,0.27594226272702216,0.19826982498168944,-3.626467034856975,-8.775796547698974,3.199193159115919,2.0034827406537383,0.4023456599532502,0.01666666753590107
77,1295.0,0.08816336355619132,0.20722879198491573,0.21690847447812556,0.2154781220145989,-3.5693051779597997,-8.832509199523924,3.07393773502164,-0.2556038747927129,0.3039423508485096,0.01666666753590107
78,1311.0,0.05188868400091305,0.2389098784059286,0.25880115831196304,0.1777694550002925,-3.543418164770305,-8.788216468811035,2.5698040337039374,-0.6327349042490825,0.08179675801469921,0.01666666753590107
79,1327.0,-0.04059256102070212,0.13503010947555302,0.3801929107964039,0.08245031053847633,-3.6498105010434982,-8.665812908935546,0.7010488021411104,-1.6727717045091852,0.009124252277064338,0.01666666753590107
80,1344.0,0.07456149351741187,0.013732757276296614,0.4622597841084003,0.19797053150786087,-3.7659292815610765,-8.585906428527831,-3.554073353247091,1.751950138854029,-0.6095472124296826,0.01666666753590107
81,1361.0,0.07952904366375878,-0.04420066851526498,0.43422202262580395,0.20964226460112256,-3.813364694213867,-8.618228150939942,-4.974483548467762,3.364132836061618,-0.0768476589710035,0.01666666753590107
82,1378.0,0.018433190052211283,0.024380115757882594,0.2514052028417587,0.15786763543393462,-3.7321108908504246,-8.806172396740317,-5.170692685207426,3.9010070491657762,-0.3410537301365243,0.01666666753590107
83,1395.0,-0.06429797412110493,-0.0033685996502637863,0.10820084699988365,0.08649052583998999,-3.7442318290159102,-8.955660947418213,-4.45538319513127,2.7247569068660202,-0.302606621978949,0.01666666753590107
84,1411.0,-0.04377572110146284,-0.055525487866997715,0.053933250239491456,0.11297635430600493,-3.786579270879924,-9.01386997528076,-3.5919495269591617,2.1421065525010246,-0.39924571456541647,0.01666666753590107
85,1427.0,-0.007922207834012806,-0.1208098609432578,0.1110825399160385,0.15472524575497953,-3.8450872816890476,-8.959401887512206,-2.833805999607151,2.660829110999051,-0.5631006987739794,0.01666666753590107
86,1445.0,0.037851262955926356,-0.1951777041852474,0.009719429981708527,0.21098896650234236,-3.911825945226848,-9.063699297332763,-3.2052775770059307,2.8131290959988187,-0.5932469659754472,0.01666666753590107
87,1461.0,0.02464472151082009,-0.23287381311208008,-0.1077279687911272,0.2053027558257803,-3.9407060027524827,-9.184606481170654,-4.415909824370473,2.860110979091574,-0.49990890915093217,0.01666666753590107
88,1477.0,0.019759817279782144,-0.16270546738654373,-0.31609190228581424,0.20455454954067243,-3.8616976402282712,-9.396493328094483,-3.3462983583650683,0.6570691073536926,-0.4164830042768395,0.01666666753590107
89,1495.0,-0.01715367163568735,-0.07966828773766756,-0.29921207915544507,0.16789333661952988,-3.774308987371623,-9.381379930114745,-0.12320786144715595,-0.0892800706838812,0.29868009029941145,0.01666666753590107
90,1511.0,0.0020387575522996483,-0.014541735571622848,-0.2971697596728802,0.18659805535580962,-3.7119103988647457,-9.3782369559139,1.791892871676852,-0.06470654415405627,0.24033661440916254,0.01666666753590107
91,1527.0,0.0022326178902760145,0.10408668967932462,-0.26027941417098044,0.18584986733701078,-3.602674948120117,-9.337536112213135,3.9227872417684777,-0.8814022950528243,-0.004530363090848965,0.01666666753590107
92,1545.0,-0.00653256184021011,0.15054565851539373,-0.003347556862235069,0.17342994622495025,-3.5731960479184983,-9.073725016784667,5.011644046420863,-1.4768760094194016,0.0012893849688250243,0.01666666753590107
93,1561.0,-0.026682602280285208,0.08753215298056602,0.07713000143170357,0.1499368607009761,-3.6451717353269455,-8.989628683471679,2.1376052443945746,-1.0059592255827636,0.8118362847477156,0.01666666753590107
94,1578.0,0.001661576536670327,0.018185645031929015,0.09579963058829306,0.17462706532133743,-3.7155014090940353,-8.9706241232723,-0.623661264740985,-1.2898783432708518,1.5886998665108503,0.01666666753590107
95,1594.0,0.014821831154637038,0.08565437640994787,0.08257190022468566,0.18240822071684523,-3.6444235473081465,-8.985438830566405,-1.289100021870588,-1.796984137372862,0.9572770522734977,0.01666666753590107
96,1611.0,0.01935960244843736,0.19535335301309822,0.1600344946116209,0.18240818418422713,-3.529950780431926,-8.910020893749595,-0.10641734881677377,-0.6894091993000567,-0.014717109990246967,0.01666666753590107
97,1627.0,-0.0067400853773579,0.10849281568378209,0.15726970607340335,0.1563712411300279,-3.6147950095027683,-8.913612196239828,0.36178420804115924,0.24403881706314745,-0.5135512515226806,0.01666666753590107
98,1644.0,0.0025130970657803115,0.06838906109333039,0.11596914291381835,0.16714518513334914,-3.655197162517905,-8.954763121795654,0.2194196936845274,0.5481006962221323,-0.5526747885319252,0.01666666753590107
99,1661.0,-0.0781016594754532,0.0012853636354207992,0.1260275955915451,0.08873506249692291,-3.723581547436118,-8.94413826740682,0.3215443886698672,0.6157460359882924,-0.5583643361105458,0.01666666753590107
100,1678.0,-0.06291446560714394,-0.026997312518954274,0.1731003124117851,0.1077390564407222,-3.75111515878886,-8.897302281951903,-0.10705921317598306,1.474700380725341,-0.48441003598540966,0.01666666753590107
101,1694.0,-0.06042365343840792,-0.06391425376683474,0.11562602856457233,0.11447273034360259,-3.7856814452573655,-8.955660947418213,-1.409573139607094,1.4187284745809674,-0.4517979637718615,0.01666666753590107
102,1711.0,-0.04503774039391428,-0.11094839214235544,-0.03389057916402816,0.13467382511748,-3.824886497442424,-9.108291303253173,-3.064973538622821,1.4784142960865354,-0.43224491976668683,0.01666666753590107
103,1728.0,0.017528642427921293,-0.08215396707355975,-0.18092530694901943,0.19901799473417922,-3.7892727477476,-9.2580785446167,-2.6432292076118094,0.3069020639149465,0.19603635429800362,0.01666666753590107
104,1744.0,-0.047515693081077184,-0.11047668297737837,-0.13726152178943157,0.13482342618862167,-3.813962952367961,-9.215880740356445,-0.8286236090671375,1.08514619766407,0.14737607227863617,0.01666666753590107
105,1761.0,-0.0459114544885233,-0.016624679325520992,-0.16919570618867874,0.13796585240019485,-3.722384738866985,-9.246855724334717,1.310579472706397,0.2884048444254942,-0.6771102697606851,0.01666666753590107
106,1778.0,0.05582715596100315,-0.08027034528404474,-0.20940262889266012,0.23792377171171827,-3.7907691237851977,-9.285162950897217,0.8648882850219087,-1.9844491378710285,-0.9166650676337192,0.01666666753590107
107,1794.0,0.06612436756435781,-0.12057839027494191,-0.25535657081604,0.24360998238828033,-3.832069102422893,-9.330802420043945,-0.34616113749053357,-2.0052240120052685,-0.7155511080180458,0.01666666753590107
108,1811.0,-0.005887359271850436,-0.05818477020412683,-0.19068273085355758,0.16624735951079056,-3.771316235296428,-9.265560424804686,1.672116006348864,-1.3245480633327193,-1.1330093886031691,0.01666666753590107
109,1828.0,-0.009617138651013374,0.03693535368740558,-0.018920389047265052,0.1623567635467276,-3.683927874700725,-9.090634066009521,4.831417552339029,0.11166324092424768,-1.8044480400318048,0.01666666753590107
110,1845.0,-0.005529175217635929,0.04148001137971878,0.03353869698643684,0.1690904739822261,-3.692157650646567,-9.032873950958251,5.7091792498425304,0.39672790940219405,-1.3433882863845532,0.01666666753590107
111,1861.0,0.0412273335265927,-0.03596709317713976,0.033148236364126206,0.21622630090024322,-3.7835865188047286,-9.0274869972229,2.787418129528775,-0.8431052642940042,-0.6954900953737779,0.01666666753590107
112,1878.0,0.02735127705577761,0.013746785801649094,0.17437164752185344,0.20126254052426665,-3.736899294170737,-8.885031998443603,0.26044196992218266,-0.8170603122457175,-0.7011956512082658,0.01666666753590107
113,1895.0,-0.020043346928898243,0.062276131170988076,0.22798282620012758,0.15502452096249908,-3.6867709891721603,-8.832060286712647,-1.0204247124712043,0.9780111587161292,-0.7998458876597582,0.01666666753590107
114,1911.0,-0.01566772566055879,0.1526288945302367,0.1028740990191698,0.164002777188085,-3.5936963996335862,-8.958204786682128,-0.03937769475156312,1.6705413275800587,-1.185839301007631,0.01666666753590107
115,1928.0,-0.013993435772787778,0.21081366473436355,-0.026820786908268928,0.17133503803862257,-3.538031211034953,-9.086743488311766,1.7621222115188822,0.8128196185447859,-0.45959019575864113,0.01666666753590107
116,1945.0,-0.007218534810375422,0.19155688333958387,-0.08279401854276656,0.1810614640166983,-3.560776126806438,-9.141211576080321,1.0206215072966653,1.2041922327508667,-0.02459260303473337,0.01666666753590107
117,1961.0,0.017695450362190602,0.21526538344621657,-0.04981880065798759,0.2088940583160147,-3.5396772246763106,-9.107093617901205,0.6085683609442551,0.9578690375754674,-0.20164642088624352,0.01666666753590107
118,1978.0,-0.012979929614998399,0.19730799421221018,0.04084872773885727,0.18240822071684523,-3.558531562750041,-9.015964901733398,0.07309484354805174,1.215936102698469,-0.025164311212604595,0.01666666753590107
119,1995.0,-0.014793865435477345,0.18866992972642183,0.0960293476909399,0.1819592896392569,-3.5664623557493087,-8.961047901153563,-0.17963844414276495,0.7888305000758201,0.7501520993013899,0.01666666753590107
120,2011.0,0.025373857769276944,0.0926066797658801,0.18605214844346046,0.22251108025815336,-3.6575916564390063,-8.873060990142822,-2.264358614351202,0.4404618241011973,1.321426880325435,0.01666666753590107
121,2027.0,0.048819542221259324,0.05024637842029333,0.18065993401110172,0.2469019914046861,-3.6854239584773776,-8.884433448028563,-5.604854086686109,1.5843918314135705,0.8170435569379099,0.01666666753590107
122,2044.0,0.11566626924341544,0.040331718127429486,0.15945231080949304,0.31648347715297714,-3.6794387465879317,-8.91211640472412,-6.900035111352125,1.1190139041069898,0.2077601338844925,0.01666666753590107
123,2061.0,0.17249670222913846,-0.003674889120459556,0.08843816190958023,0.37514141782680527,-3.7056256195068356,-8.990376871490477,-6.69947343656387,0.43807467298627784,0.1784522190427909,0.01666666753590107
124,2078.0,0.07053135208534077,-0.029092531232535836,-0.12914777343869208,0.27189148949887604,-3.7075706160947677,-9.217526753997802,-7.6917808215430705,-0.6355446733188965,-0.133631904059359,0.01666666753590107
125,2095.0,0.04039256320288405,-0.020184125372767446,-0.16729425648152826,0.24001866163173688,-3.680934830364585,-9.262866363415121,-7.293587623120497,-1.5685128155320545,-0.69752047582627,0.01666666753590107
126,2111.0,-0.07961065753260627,-0.016665011335909367,-0.3100912005662918,0.11746548241879791,-3.6623800597593186,-9.411756363677977,-6.551922567471377,-1.5727112474374967,-0.9114537400187053,0.01666666753590107
127,2128.0,-0.08355490164635702,-0.028139176030457017,-0.3982014456957578,0.11103108372343704,-3.6574420188352463,-9.50647696685791,-3.9875690247251097,-2.0065364755429687,-1.5026514357997371,0.01666666753590107
128,2144.0,-0.07017230951460078,-0.019274024790525434,-0.3418102809101343,0.12165533532407134,-3.645022097723186,-9.451559966278076,0.7650705131091672,-1.7789058005786018,-1.4191399934784605,0.01666666753590107
129,2161.0,-0.06646096084127202,-0.033649171623587604,-0.18772563461363315,0.12524663781430573,-3.6670188254758713,-9.294440482330321,5.019119261580618,-0.2812331457969808,-1.2667078870069357,0.01666666753590107
130,2178.0,-0.05699492109874263,0.02837561513483524,-0.1832178018003702,0.13811549000395462,-3.6197333426877853,-9.283965850067139,7.189130125048908,1.9417312138110647,-0.9339572923431932,0.01666666753590107
131,2195.0,-0.053419272835366426,0.07658990320563316,-0.08478606914281844,0.14918863614955916,-3.596838789312541,-9.175179312133789,8.672219472178904,2.1844298196930088,0.0029353805175187614,0.01666666753590107
132,2211.0,0.05012200312195345,0.15014496876001357,-0.07004091995358466,0.2540846146514639,-3.541472875921428,-9.153032946777342,7.389531290391666,-0.3288544519899262,-0.1431479050379206,0.01666666753590107
133,2227.0,0.0721723790243268,0.18483780421763657,-0.018623451927304267,0.273238246199023,-3.5206732489988206,-9.096021019744873,4.913411412004093,-1.4831666136449833,0.3601785266168245,0.01666666753590107
134,2245.0,0.05891900276280939,0.21297347311675546,0.12186463069319724,0.2534860825027339,-3.5039135451167818,-8.95102218170166,3.8827072648320198,-1.3636395838302295,1.1502642607156195,0.01666666753590107
135,2261.0,0.05608956975685432,0.29270898087173697,0.3905646672070026,0.2477998535598628,-3.4328359755918383,-8.678831380462645,5.211386525395539,0.6964945600685929,1.831205732992153,0.01666666753590107
136,2278.0,0.047294725540466605,0.2912444612771273,0.4163035040974617,0.23717558369291944,-3.4467522727414965,-8.648006034088134,5.176794605457186,-0.5542530424778742,2.816999892267512,0.01666666753590107
137,2295.0,0.14797542443489656,0.2015384713888168,0.23417057492434978,0.32665885247495025,-3.5443159903928634,-8.827122245788575,-0.0881042776306473,-3.6755723867412744,3.414701208798865,0.01666666753590107
138,2311.0,0.0138717273555696,0.17673457726091146,0.3260100697100162,0.1798643814529292,-3.561823882293701,-8.738536784362793,-4.401260349261265,-4.971257991632224,2.3776494680103224,0.01666666753590107
139,2328.0,0.018689411569293587,0.15475480064302682,0.4206289660811424,0.17283141407622024,-3.5685575744628903,-8.65040023574829,-8.061828517943313,-3.1945396658570244,1.3620856090723459,0.01666666753590107
140,2345.0,-0.029230944189382716,-0.013820143298804759,0.32266835806667804,0.11836331717451103,-3.705026776830852,-8.761580975341797,-11.299582363792187,0.20942299146269971,1.6640650275864173,0.01666666753590107
141,2361.0,-0.04228330885292962,0.1037172718450427,-0.011349077010154723,0.10743977210004814,-3.5597286635801195,-9.106794342693686,-10.918214482616293,2.027059273008153,1.0732024379615392,0.01666666753590107
142,2377.0,-0.07734402777487412,0.18521891248971223,-0.11603636293113231,0.07721296700742095,-3.455880166570842,-9.220369868469238,-7.1356826141330885,1.7773707155626415,0.12281137696996464,0.01666666753590107
143,2395.0,-0.04476140767056495,0.26351123569905754,-0.10406243202090262,0.11522093662871047,-3.3653497085571287,-9.213187263488768,-0.9363524475860463,1.5643970929485929,0.01683924442928464,0.01666666753590107
144,2411.0,0.01580503350570798,0.1957461517229676,-0.04813420857191086,0.17747016152646392,-3.4338834388181567,-9.156922939953207,0.6424134423855493,-0.4510143596471612,0.1144344434376349,0.01666666753590107
145,2428.0,0.05843224215917289,0.1750835951834917,0.016360183170437814,0.21532849354399367,-3.4558798743098973,-9.09198080444336,-0.440121355179328,-3.1974894538048235,-0.3570163357940937,0.01666666753590107
146,2445.0,0.08745606467020697,0.06799743142724037,0.27235388284623624,0.23343463446577079,-3.5544916397094726,-8.839542166900634,-5.009818251478354,-3.555300866306989,-0.15052226818571296,0.01666666753590107
147,2461.0,0.07176681216442957,-0.02944616697579622,0.3604588672786951,0.20874443897856398,-3.6342484825134274,-8.758588223266601,-8.14651176459407,-3.2988383620304114,0.6860439437516502,0.01666666753590107
148,2477.0,0.05098079364206642,-0.041648938205838204,0.3887812909215688,0.18016366579360327,-3.6242227630615234,-8.739135334777831,-9.117392419260119,-2.2372924956611455,0.8999385746865927,0.01666666753590107
149,2495.0,0.013238516619103028,-0.013410685715079307,0.5553764592230319,0.13886368715590797,-3.5737945983335373,-8.581267662811278,-8.407272165405878,0.025293684600438158,1.3055212907391793,0.01666666753590107
150,2511.0,-0.01891913780509494,-0.07003653603941201,0.5633657044112682,0.11222818455351516,-3.604619944708049,-8.583212951660157,-7.769870374323826,4.212165708315816,1.5837296232291966,0.01666666753590107
151,2528.0,-0.02037381185912527,-0.052856853179633616,0.4914367787539959,0.12300207375790922,-3.5678090941831466,-8.662520881652831,-9.113849258628175,6.763221299634892,1.3042954852265736,0.01666666753590107
152,2545.0,0.09181691762767731,-0.03830898012816906,0.23138357455432412,0.25318680729521437,-3.529352522277832,-8.93141965560913,-11.515036412292007,8.52982795723071,0.829977000379005,0.01666666753590107
153,2561.0,0.17925370220867917,-0.008110533480346202,-4.5592707395553586e-05,0.3694552071502432,-3.4639605971738696,-9.175627640423178,-9.830685295983828,8.88110800133905,-0.41441991362152536,0.01666666753590107
154,2578.0,0.17538756483243778,-0.012824410259723662,-0.17361819880604742,0.38411969231870025,-3.448847199194133,-9.356240812683104,-7.507089945064987,6.455018831734998,-0.018685343176318595,0.01666666753590107
155,2595.0,0.14903918120888993,0.06277735869139432,-0.5204372477889061,0.3703530327728018,-3.3583167411804196,-9.708338094329834,-6.111362132514038,3.8679497873565607,-1.5790908575657001,0.01666666753590107
156,2611.0,0.09878865633644163,0.06024287177771329,-0.6782610806137322,0.32875377892758695,-3.3448493568420408,-9.871891995239258,-4.033522110574133,-0.6007997144544532,-3.4866928967546804,0.01666666753590107
157,2628.0,0.14606513383416458,-0.034248306560516355,-0.6813894417673348,0.3763385369231924,-3.431189961950481,-9.878027136993408,-2.776777762018953,-1.4600373519594987,-3.7025281551875526,0.01666666753590107
158,2644.0,0.06211100373715162,-0.18766601338088512,-0.5144482365071773,0.2946363870040513,-3.5793311896726485,-9.712976275524497,-1.5423991880660974,0.6259795803556755,-2.4301046805057855,0.01666666753590107
159,2661.0,0.05084083718210458,-0.13980185392200947,-0.5213210448861122,0.28999763955380764,-3.529352522277832,-9.720458740234374,0.3520895549271195,2.8858390210345433,-1.9308931977021353,0.01666666753590107
160,2678.0,-0.2025773494498804,-0.053262511371076106,-0.5320645572185516,0.05027819833066314,-3.449445749609172,-9.728388948711752,4.483635845746204,3.7904032346148213,-1.0175994687540522,0.01666666753590107
161,2695.0,-0.12242929710494353,0.07713555438965558,-0.4766887069553137,0.13826509107509627,-3.332578781072795,-9.667785719189046,7.339738357568627,1.8179856884101817,-1.1522564347974418,0.01666666753590107
162,2711.0,-0.14007360180178657,0.049344461144506926,-0.3404220414221287,0.12389989938046783,-3.3807623817443844,-9.523834928894042,9.409593034595142,0.3837664515133313,-0.3558087263323237,0.01666666753590107
163,2728.0,-0.15538774651801213,-0.0005737082347273826,0.05572539435327053,0.11013320330195128,-3.4587232810422774,-9.11711933735311,7.346023839152331,0.8494294324960542,0.5724713447892666,0.01666666753590107
164,2744.0,-0.08741769628804176,-0.019231062431633472,0.18184768249094485,0.18016362012783063,-3.4907457282468672,-8.985887743377685,4.08833779375807,1.185770465507402,1.309097961986739,0.01666666753590107
165,2761.0,-0.11149132164632901,0.029494390031695364,0.19996260037422178,0.1562216217925772,-3.4486975615903734,-8.965237754058837,1.8464522093235023,-0.01573921044694235,1.0593676763542668,0.01666666753590107
166,2778.0,-0.07729960411125794,0.15656564945727586,0.20017302825450897,0.18794477552333846,-3.3216552359983322,-8.965087531933188,-0.6397606075840869,-0.11004395248242575,0.8241400167638473,0.01666666753590107
167,2795.0,-0.0711678416242823,0.2037809896185994,0.19738135170936583,0.19303247231747955,-3.2712273635312914,-8.969128331756592,-1.3677808129013729,0.5705419230704438,0.9329579502902557,0.01666666753590107
168,2811.0,0.03265643425919115,0.19543050990253685,0.16780863574445246,0.29613278130795806,-3.2775121428892016,-8.999504765319823,-0.273206846428996,0.07380723761456935,1.4258015623533387,0.01666666753590107
169,2828.0,-0.028216990507021544,0.21697072605937717,0.15962883642017842,0.2334346070663072,-3.257161721038818,-9.007285920715331,0.3829753768692263,0.28502208651733957,0.6907969550011858,0.01666666753590107
170,2845.0,0.05991453487249091,0.2930459577411413,0.15292027869224548,0.32172079328456893,-3.1821929892942307,-9.013570700073242,0.5205805833956816,0.5213007414662948,-1.0091446550569283,0.01666666753590107
171,2861.0,0.10337589279515669,0.24685323862582445,0.1727653813689947,0.3678091752425767,-3.2287302840635177,-8.993519261169434,0.01475160778164082,1.1877211248456754,-0.8605451918442797,0.01666666753590107
172,2878.0,0.1286712419681251,0.1233352877676487,0.1006038159996271,0.39594106301572174,-3.351732394354045,-9.0657942237854,0.2684222989154021,0.1901427548179289,-0.9508413065280532,0.01666666753590107
173,2895.0,0.08689484145771711,0.07819996875077485,0.1256359659254551,0.35464106611171736,-3.3963244002744553,-9.04095438156128,0.09039309803390239,-0.5505354985786831,-1.5760035053391486,0.01666666753590107
174,2911.0,0.04935479987543076,0.024014497315883634,0.17911153552532194,0.31753094037929547,-3.4491464744016525,-8.987982669830322,-0.5912017512058515,-0.29093772402965823,-2.7638087268889797,0.01666666753590107
175,2928.0,0.04633477620081976,-0.12313567354232072,0.2094645882129669,0.3193265916244127,-3.5896564765930172,-8.960000437927246,-2.2570767789223223,1.0034155137254628,-2.3779724078920172,0.01666666753590107
176,2945.0,0.023418084059003738,-0.16359978587776422,0.06709902128279209,0.3022679230621084,-3.6234742827817796,-9.10470000076294,-2.1191814494387,1.2216979008719038,-1.4866536386596862,0.01666666753590107
177,2961.0,0.02069066838910803,-0.11885346617847681,-0.032868834900856014,0.303165730418358,-3.574093873541057,-9.20630334919393,-1.204457756354851,0.5432384553067294,-0.8693320701289424,0.01666666753590107
178,2977.0,-0.01213573387581855,-0.07421879016011954,-0.08017711404263973,0.2736871042113751,-3.5272570113033055,-9.254337020000815,-0.5119053893761191,0.40504398488180193,-1.2914474725109566,0.01666666753590107
179,2994.0,-0.04022264999607578,-0.12412234649211168,-0.11690671602487564,0.2504932938949205,-3.575740179443359,-9.291447730255127,-1.8248022172018545,1.5342402069374,-0.8211562379527566,0.01666666753590107
180,3011.0,-0.02311226951284334,-0.14686872356832026,-0.1820113486200571,0.27338784727016463,-3.594444587652385,-9.357886826324462,-2.862857568911566,2.8101650073424445,-0.143269300978247,0.01666666753590107
181,3028.0,-0.0045407852347940205,-0.09201981978863477,-0.37606677077710626,0.2977787949493155,-3.5362355597898363,-9.553014261627197,-2.6938575579477058,2.028239615074096,0.6817974870786064,0.01666666753590107
182,3044.0,0.009221234668605029,0.11495704326182603,-0.4014227458298206,0.3143885507003404,-3.3247979179382323,-9.579949030303954,-0.45632280401443626,0.0923309240870555,0.06525446673175145,0.01666666753590107
183,3061.0,-0.012922536871954798,0.16177783114761113,-0.31619127100706096,0.2914939973250963,-3.280205327495932,-9.4939068236202,2.0390421995767056,-0.9315916990128417,-0.5074299079224682,0.01666666753590107
184,3077.0,0.026263554884307084,0.17112755103409288,-0.008533435067534446,0.32680849007871,-3.2779610557004806,-9.183708655548095,2.507450382997245,-2.3013477172448176,-1.2040645935907521,0.01666666753590107
185,3094.0,-0.06438143288716673,0.06570026040077209,0.1391904440253973,0.22729948357846586,-3.3876454192563887,-9.034669602203369,0.08702440071048449,-4.5187626548739335,-1.8545713832559434,0.01666666753590107
186,3111.0,-0.11776309539219364,0.06937602630406618,0.1826467239141464,0.1626560387542471,-3.3807620894834396,-8.992771073150633,-2.083355186251279,-6.305200339838061,-2.4644195508959297,0.01666666753590107
187,3128.0,-0.2846315824760124,-0.008213409332931042,0.3837029647439718,-0.012419957644678651,-3.448398286382854,-8.795698348999023,-3.391157546729831,-2.203727451975822,-3.507328178897758,0.01666666753590107
188,3144.0,-0.19946265149544923,-0.06320201384425163,0.39118309136629104,0.08185171445766463,-3.488650509533286,-8.793453200420737,-4.340737189252136,3.636070841450152,-5.258817493426223,0.01666666753590107
189,3161.0,-0.06925424482161179,-0.07858399963229894,0.09927110609114169,0.22744910291591658,-3.4917931914731857,-9.089436965179443,-4.704374326229499,4.363754499868256,-7.003961562215746,0.01666666753590107
190,3178.0,0.1541425139635801,-0.024428631074726582,-0.11133154624104499,0.4703109155517071,-3.4287954680293797,-9.30266996601522,-1.6312680600176026,6.3631412614541025,-8.549176175602064,0.01666666753590107
191,3194.0,0.15146733993757516,-0.12451485294103622,0.013572013756632804,0.5021836886199191,-3.533691428264975,-9.174729814800619,4.592956865393666,10.516162227312662,-7.7406081363722,0.01666666753590107
192,3211.0,0.09308518399782478,-0.13534341320842505,0.07919453274607657,0.4770446077208966,-3.558831130218506,-9.102455436706542,6.386902208916108,13.883928724012726,-5.987739977405038,0.01666666753590107
193,3228.0,0.09804273333996534,-0.0917398338034749,0.0638911651521921,0.515800783627294,-3.5333924453184005,-9.109488404083251,6.318347600216689,14.299702829358912,-3.77447779479129,0.01666666753590107
194,3244.0,0.12708360745050012,-0.03985942444056272,0.008404840251803398,0.5770025635650381,-3.4968811622619627,-9.157671712493896,6.251291791153266,11.757357009892074,-1.7962518130277896,0.01666666753590107
195,3261.0,0.11609602069649845,0.022088205428421496,-0.0019815292060375213,0.5924152002196759,-3.452138934215903,-9.160215551757812,5.060573814087542,3.8775790734258093,0.018217848744142954,0.01666666753590107
196,3278.0,0.26361652270443736,0.11021540169268845,0.09763912097513675,0.7431002306731417,-3.3731302794307467,-9.056965020641684,2.4767979881061084,-0.6964030462058853,1.4973011565237957,0.01666666753590107
197,3294.0,0.20579024708177893,0.017328151419758797,0.12358897026777267,0.6766611711364239,-3.468599362890422,-9.030479749298095,-1.010399809038624,-4.233344417384733,3.6805592786090298,0.01666666753590107
198,3311.0,0.17522556093744932,0.04887421328425407,0.15764964530169964,0.6220434822967276,-3.4301424987241624,-9.000252953338622,-3.973193610956349,-7.3233792007328,4.952971013903161,0.01666666753590107
199,3328.0,0.06550035391449928,0.11957915010452269,0.1727525218874216,0.4903623179228976,-3.3503850713983176,-8.98962809894979,-3.9239859399678148,-8.854886051341726,5.539395688114823,0.01666666753590107
200,3345.0,0.05695731076840311,0.09371873266100883,0.1877981153279543,0.4562449807982892,-3.3675936880916355,-8.979004413604736,-3.8770288163108004,-8.872067392198893,5.977317535618422,0.01666666753590107
201,3361.0,0.052032786913029844,0.031548984473943706,0.1594628322035074,0.4225765199523419,-3.416824751989543,-9.013421062469481,-4.106831811596349,-8.148861349668556,5.865189735108908,0.01666666753590107
202,3378.0,0.03475673100668937,-0.003246726836264133,0.08426876727044581,0.38621454570610075,-3.4422628523677585,-9.092878045544028,-4.990515709997075,-7.088258903178397,5.3006071520893,0.01666666753590107
203,3395.0,0.02613627524282783,-0.013119886074960231,0.05374503419101238,0.3601776391845196,-3.44106633605957,-9.128193104553223,-4.714926541610346,-5.294832227146054,4.3596435797615545,0.01666666753590107
204,3411.0,-0.0008668459624052047,0.0013066986843943596,0.06806289787888527,0.32007479790952054,-3.416375839178264,-9.118167385101318,-1.452614857322399,-1.6952819803011374,3.3831254577093075,0.01666666753590107
205,3428.0,-0.037799130909889934,-0.0885702638566494,0.08532441380321978,0.28042079638056455,-3.5055598510190844,-9.101258335876464,0.14379178376932653,0.5289664548708705,3.466476390585089,0.01666666753590107
206,3444.0,-0.02333254293370992,-0.10989508369714021,0.02208382151424885,0.29478604287412014,-3.5287536796018477,-9.163806854248046,0.6477446184761558,0.9243984425997605,3.383609333923321,0.01666666753590107
207,3461.0,-0.0005707490926608443,-0.09572276595979928,-0.062242228901386254,0.3161842202117666,-3.516932601165771,-9.247304637145996,-0.033703515098575026,-0.6381328881275082,2.2832118574511413,0.01666666753590107
208,3478.0,0.0469119367679581,-0.12134352942854165,-0.11968261047899723,0.3595791253020987,-3.5420717185974118,-9.305064752197264,-0.63974497285419,-1.5906951355221401,1.5941477961475816,0.01666666753590107
209,3494.0,0.03900514569878578,-0.13841449121683835,-0.11586159088611601,0.3455131905486807,-3.558681200353801,-9.30162308731079,-0.17192574650721895,-2.1914183838744012,1.8310862046816778,0.01666666753590107
210,3511.0,0.0022634696862660346,-0.12761515704393386,-0.09883329919576644,0.3021182671920396,-3.548954756109416,-9.284414762878418,0.015578967805711505,-2.085424093239558,1.8980504465215406,0.01666666753590107
211,3528.0,-0.002735946036223322,-0.09158084384948015,-0.04320785808563232,0.28790269483486186,-3.516633033697307,-9.227702111053466,1.1234171349658266,-2.718934810928819,1.9603336609024176,0.01666666753590107
212,3544.0,-0.03642957785604521,-0.08106500279307365,-0.056119946628808974,0.24570489057460798,-3.5097499961853025,-9.239523481750489,1.3287469221249846,-2.9469073155168037,1.3742571128950143,0.01666666753590107
213,3561.0,-0.037907285725791,-0.04676964222043752,0.011709727016091347,0.23702592782285062,-3.478325807134807,-9.170839821624755,0.5345643285042249,-2.937479946914894,0.7660915730292311,0.01666666753590107
214,3578.0,-0.08243897629370912,-0.0668979457527399,0.02424830607175827,0.18510167931821195,-3.5003225348874922,-9.157821350097656,-0.2029212650226558,-1.556461907236919,0.9131207330630116,0.01666666753590107
215,3594.0,-0.0751559431460686,-0.053445758983492846,0.02531564304232597,0.18869296354213727,-3.4879029060363766,-9.156474611663818,0.5244804079683473,-0.9561507113906803,0.997639094678336,0.01666666753590107
216,3610.0,-0.09856228196835144,-0.06179390061199665,0.05616787742376327,0.164002777188085,-3.498676521246135,-9.124751439666747,0.6762115662762995,-0.0816143572793055,1.0107661846545717,0.01666666753590107
217,3627.0,-0.07923126629358157,-0.05024316354990005,0.02501987496614456,0.18315637220302597,-3.4888004393979903,-9.15527751083374,0.5920021106383595,0.621871114848207,0.9166304898010461,0.01666666753590107
218,3645.0,-0.052442755953408776,-0.04045154511481523,-0.014538228440284727,0.2109889847686514,-3.481468489074707,-9.193884012603759,0.8960979806606357,0.7658264229512172,0.10620223787855802,0.01666666753590107
219,3661.0,0.013892843208834528,-0.0006163783326745033,-0.022711598023772237,0.2781762688567862,-3.4454055343076586,-9.200617704772949,1.4818842456283134,0.27173598119948966,-0.8346662454093361,0.01666666753590107
220,3678.0,-0.01103681445689872,-0.03868979613929987,-0.018459201276302337,0.25303715142514555,-3.490895365850627,-9.19358473739624,2.476631715688501,-0.38378384715137365,-0.5573274813780261,0.01666666753590107
221,3695.0,-0.03144731419775635,-0.06594459055066108,0.003907528832554817,0.22999296044614165,-3.5253120147153734,-9.16859525756836,3.0705343798242692,-1.4318336866075176,0.1755979203412396,0.01666666753590107
222,3711.0,-0.10214867082145064,-0.02914864533394575,0.048693596020340915,0.15382742013242096,-3.496731232397258,-9.120860861968994,3.180079301610461,-2.2221800617922574,0.5071879698154617,0.01666666753590107
223,3728.0,-0.12748937523979692,-0.03181377288997173,0.046345571589469906,0.11926111539760603,-3.5070565193176266,-9.120561586761474,1.2320574835738147,-2.534301137285034,0.7761281624885947,0.01666666753590107
224,3745.0,-0.05625120832566172,-0.024889818845689294,0.009511340188980102,0.1836053032806143,-3.501070722906291,-9.157222799682616,-0.09595536663816541,-2.5182030217415488,0.6399497718075845,0.01666666753590107
225,3760.0,-0.07392408152986317,-0.034520401500165464,0.10680267063975334,0.16071074990537015,-3.510198616735637,-9.06025763244629,0.03015808663038306,-1.3864817641271618,1.1931477101412504,0.01666666753590107
226,3778.0,-0.06508888703677802,-0.03111965314596891,0.10429039555788039,0.16669623578945175,-3.506906297191977,-9.062800887188315,0.02484804143752127,0.14182322186490837,1.3331624259799864,0.01666666753590107
227,3795.0,-0.061257674843445416,0.013587503586709498,0.05963818388283253,0.1695393502608873,-3.4632124091550707,-9.107093617901205,0.10015514590514311,0.050857802003326506,1.52625913089224,0.01666666753590107
228,3811.0,0.02575944128707051,0.047077685256302355,-0.1267249302059412,0.252737876217626,-3.4301424987241624,-9.293393019104004,-0.37635655003751367,-0.5875927966422931,1.194316419541263,0.01666666753590107
229,3828.0,0.015542437046766281,0.10382014769762754,-0.09048749565482139,0.23956976708676664,-3.3731305716916915,-9.2573303565979,0.1443614642347879,-0.6529412718566248,0.7901730057736979,0.01666666753590107
230,3845.0,0.055239784527104346,0.13042320020198822,-0.005793780970573425,0.2753331726516597,-3.349937035369873,-9.171437787517904,1.0752195849225143,-0.5763186622826879,0.7229342223457123,0.01666666753590107
231,3861.0,0.06584282894292846,0.12595832974761723,0.03246083862185478,0.2831143280471675,-3.3578675361081958,-9.131934044647217,1.1165355059336273,-0.5175036365354437,0.8731297086683224,0.01666666753590107
232,3878.0,0.0713321836068295,0.12997867130488155,0.05126549233496189,0.2856581673110835,-3.3565210899353026,-9.112181880950928,0.924244336456612,-0.8193377534470937,0.8746250398488792,0.01666666753590107
233,3895.0,0.0863587252870202,0.10485504370331764,0.1773719983816147,0.2977787949493155,-3.3827076705932617,-8.985738105773926,0.44375933804685896,-0.3896050359540757,0.9614438945540287,0.01666666753590107
234,3911.0,0.06237206582613289,0.019054829081892967,0.14939794978499413,0.2715922142913565,-3.466654074041545,-9.01446794117391,-0.3372210068363687,-0.9716589760663116,1.6082366621363198,0.01666666753590107
235,3928.0,0.08195614294651896,0.01229424890577793,0.1261854165017605,0.2873041626861319,-3.4705446517392993,-9.038859455108643,-1.5085450352798118,-1.552472329709691,1.7776069974192414,0.01666666753590107
236,3945.0,0.049326998553052545,0.00028320085555315013,0.14575696293413637,0.24914655546108258,-3.4742852995723483,-9.022548371776939,-2.8500385844999214,-1.047976094757449,1.8459437871171596,0.01666666753590107
237,3961.0,0.036644079123251135,0.0331353768825531,0.1591886914372444,0.23448207029262555,-3.4337338012143968,-9.012074324035645,-2.7183431457919665,-0.3129474216606425,1.1440956393997461,0.01666666753590107
238,3978.0,0.059798068885970855,0.0649915276095271,0.17491525287926196,0.25797519234921784,-3.3958754874631762,-8.998606939697265,-2.0096486939269673,0.625529108035572,0.7737038722200633,0.01666666753590107
239,3994.0,0.05723726022094488,-0.004548457084596157,0.10234510670900344,0.2575262795379385,-3.4605192245483396,-9.072976828765869,-1.6620500150595576,0.5344139576207788,0.8709929800360191,0.01666666753590107
240,4011.0,0.06168631205167621,0.0015530746608972549,0.08698270240426063,0.2639607147659175,-3.450193937627971,-9.089885293468832,-2.47666437253047,1.2700296000993834,0.6335608768909781,0.01666666753590107
241,4028.0,0.052020712882746005,-0.01737549769282341,0.10648819786310196,0.25842410516049713,-3.462763788604736,-9.07267755355835,-2.8710834645497885,2.417727737399488,0.9387065149721735,0.01666666753590107
242,4045.0,0.0167887838460505,-0.010678338141739368,0.04751519989073276,0.22939439176479354,-3.449745024816692,-9.133879333496093,-1.4014668790010525,1.7337959229269584,1.3871421580425376,0.01666666753590107
243,4061.0,0.02053545956108719,0.05246346994787454,0.002835515686869621,0.23612810220029204,-3.3846529594421386,-9.179219527435302,-0.88149524965856,0.993181329027845,0.9649114962182794,0.01666666753590107
244,4077.0,0.011789295058324932,0.030393676958978176,-0.012989829954504966,0.2277483781234361,-3.4050036735534666,-9.195679663848876,-1.146693032275055,-0.4592111736205583,0.5312872250847939,0.01666666753590107
245,4095.0,-0.020623247442394493,-0.013455986161530016,-0.01672492482960224,0.19422957314755768,-3.445704809515178,-9.200617704772949,-2.0011220565218526,-0.510222708241063,0.7536277050935745,0.01666666753590107
246,4111.0,-0.0724302627755329,-0.043563539655506606,0.016935937231779098,0.14050969166411087,-3.4711432021543382,-9.168744895172118,-1.0040013091684972,-0.5905910896053701,0.8650196060808728,0.01666666753590107
247,4128.0,-0.07997432147953659,-0.007738193036615848,0.052741410106420514,0.1309328667571768,-3.4349309020444747,-9.133131145477295,0.1305155768896878,-0.8257591984839634,0.48032761057415185,0.01666666753590107
248,4145.0,-0.071810285979975,-0.0374640537366271,0.06588380027413368,0.1369183891738765,-3.464858422796428,-9.119963036346435,0.015049974990579307,-0.8455404935373781,0.08082648428637394,0.01666666753590107
249,4161.0,-0.08441371043277904,-0.128206108674407,0.05270166261792183,0.12330133069911971,-3.5532939543575046,-9.134028386577963,-1.3456881391441435,0.16910043608900052,0.27896498938400766,0.01666666753590107
250,4178.0,-0.11505898753264918,-0.13327917415499688,0.0011228665500879287,0.09322417234340682,-3.554192072241008,-9.18714973591268,-2.0901185676334726,0.5307337663186112,0.5536232243312049,0.01666666753590107
251,4195.0,-0.16582489631501957,-0.069982467764616,-0.05589432117938995,0.04204813012387603,-3.486106962530315,-9.245957898712158,-2.450485324658869,0.038813723897361055,-0.23689475935643148,0.01666666753590107
252,4211.0,-0.0652908576159738,-0.031164953592419622,-0.02311141099631786,0.14080894860532134,-3.4409164061948654,-9.215581465148926,-1.5906875582810298,-0.6002288600502282,-0.9794544630651175,0.01666666753590107
253,4228.0,-0.06491886423211544,-0.032842239154875275,0.0540881485402584,0.14185639356533064,-3.4401679259151217,-9.139265702709555,-0.9092939061371004,0.7316522117692931,-0.6024571025452391,0.01666666753590107
254,4245.0,-0.0524270651939325,-0.04404664699733257,0.05765490111112594,0.1568201904739253,-3.4516903136655688,-9.13552534713745,-0.3704411526490331,1.2652895555371002,-0.759125847292876,0.01666666753590107
255,4261.0,0.005826696859486401,-0.003236497703194618,0.04481470876038074,0.2171241265228018,-3.411886711065471,-9.147945268249511,-0.0551437990683624,0.7627489958433034,-0.8893475126048417,0.01666666753590107
256,4278.0,0.01099679297376424,-0.02454319736510515,0.05411562106907367,0.22295999306943265,-3.4326863379880783,-9.138817374420166,-0.7679122986907156,0.0898364109361199,-0.7575879341517124,0.01666666753590107
257,4294.0,0.003252024065889418,-0.041030221785604955,-0.014279869765043259,0.21398173684384672,-3.446453289794922,-9.208249222564696,-1.7636464109208527,-0.2578398546113929,-0.3725270283885315,0.01666666753590107
258,4311.0,-0.004076802718546242,-0.009431552951037883,-0.030718963390588758,0.20455454954067243,-3.411288160650432,-9.226056097412108,-0.7847187261954724,-0.44755236087246386,-0.7074116569615062,0.01666666753590107
259,4328.0,0.012745298875216395,0.006785714617371558,-3.9162966609001156e-05,0.22101470422055572,-3.3946786788940426,-9.195530026245116,0.08176195339840123,-0.02130570789879696,-0.8317828917233858,0.01666666753590107
260,4345.0,-0.011851601438503712,-0.03391132969111204,0.031516835770010944,0.1973719810928218,-3.4365772079467773,-9.163507579040527,0.44430044377559735,0.16910107641923522,-0.6317585607237409,0.01666666753590107
261,4361.0,-0.012404102488420903,-0.04044599215686321,0.02397767243683338,0.19707270588530226,-3.4440587958738207,-9.170690184020996,-0.13078805074476105,-0.32543631583630506,-0.2112568705744217,0.01666666753590107
262,4378.0,-0.018814572318922727,-0.005573708479106426,0.0360240840613842,0.18869298180844635,-3.4082954085752366,-9.159018450927734,-0.7460315742411682,-1.2732585720295069,-0.6476423790820172,0.01666666753590107
263,4395.0,0.018464370641764254,0.01963993549346924,0.11427286038994788,0.22400745629575103,-3.381211294555664,-9.081505587658286,-0.9129992837618323,-0.8965270019178772,-0.9052266352080636,0.01666666753590107
264,4411.0,0.017654351166822017,-0.004312310241162777,0.12509177604615687,0.22251108025815336,-3.4030583847045897,-9.07148045272827,-1.0435230248620124,-0.2060668072592847,-0.5890491744002396,0.01666666753590107
265,4428.0,-0.005929773641470819,0.025645897909998893,0.06937982569634914,0.19961650861660019,-3.369539561462402,-9.128492379760742,-1.1187806104581515,-0.048624009979614996,-0.47567411731525755,0.01666666753590107
266,4445.0,0.023447145756706592,0.04639028751403093,0.03760170864164829,0.2292447724273428,-3.3464950782224534,-9.16111337738037,-1.1591236563993608,-0.004711763310250984,-0.7129200978054158,0.01666666753590107
267,4461.0,0.04866508231190964,0.02376373742520809,0.020619009658694266,0.25513207787778225,-3.3668460845947266,-9.178920252227783,-0.8281299678170454,0.19035651839460913,-0.6620472480415741,0.01666666753590107
268,4478.0,-0.015434391828719526,0.016369827781617642,0.024214988324046133,0.19393029794003813,-3.372831588745117,-9.175777862548827,-0.3811328799797625,0.7592883310899282,-1.4530012966190335,0.01666666753590107
269,4494.0,0.036801699104066936,0.04935089088529348,0.03375613912940025,0.24914657372739166,-3.339761678314209,-9.166201055908203,-0.2727082159391586,0.525673449917278,-1.6900705459644176,0.01666666753590107
270,4511.0,0.017124591671675442,-0.002307400159537792,0.027685294783115384,0.23163897408749906,-3.3898899833127856,-9.172784525951743,-0.9168476684723114,0.2951362092959533,-1.2823982189126302,0.01666666753590107
271,4528.0,0.0005146897901780903,0.02706336349248886,0.017855390164256094,0.21637593850400297,-3.3578678283691406,-9.183559017944335,-0.20832710628666967,-0.5724070983223862,-1.2861158695335269,0.01666666753590107
272,4545.0,-0.04403207048270851,0.045077159088850016,0.0365904857724905,0.17133500150600448,-3.3402102988645432,-9.164704679870605,0.37969656590250284,-0.9294962183198229,-1.089957532325815,0.01666666753590107
273,4561.0,-0.05073502045376226,0.034978666661679744,0.012573065847158432,0.1629552956954576,-3.3514331191465256,-9.188347421264648,0.39980763102678224,-1.0942453970207022,-1.0386879979815837,0.01666666753590107
274,4578.0,-0.06761942842770367,0.008352525542676448,0.025334347742795943,0.1444002510955557,-3.3764225989744063,-9.176226775360107,-0.9092395847888576,-0.6324962211541023,-0.5077345450316214,0.01666666753590107
275,4594.0,-0.07324492189297452,-0.01924772130548954,0.04195230506658554,0.13766655892636626,-3.4008138206481933,-9.160814102172852,-1.390736865258374,-0.6572386347833264,-0.2635640067031132,0.01666666753590107
276,4611.0,-0.07123750932700931,0.0009466332003474235,0.08618892167806624,0.1379658341338858,-3.3776199920654295,-9.11771788776815,-1.0608013757497348,-0.9796387714510021,-0.30865392739577546,0.01666666753590107
277,4628.0,-0.06054779127473011,-0.00274842192530632,0.08448445584774017,0.14544771432187406,-3.3788168006345627,-9.120411364635824,-0.6613957120277784,-1.3839260994388136,-0.4137737136930187,0.01666666753590107
278,4645.0,-0.061327671339735386,-0.028972411984205245,0.04336275638639927,0.14080894860532134,-3.401112803594768,-9.163058666229247,-1.917857781671166,-1.0344409009783053,0.056372499407237445,0.01666666753590107
279,4661.0,-0.059951779876649375,-0.03048310880810022,-0.021593407648801802,0.13856436628261581,-3.3979704139158127,-9.229796452984214,-2.130656807574556,-1.7160815071494129,-0.02689472363057146,0.01666666753590107
280,4678.0,-0.027748678875528274,0.016505436860024928,-0.05659282483756542,0.16579844669951124,-3.347542541448772,-9.266158975219726,-1.0455268316097648,-1.9695477995361763,-0.5926318754241758,0.01666666753590107
281,4694.0,-0.06586712313396856,-0.007679740847647189,-0.04359714966416359,0.12389989938046783,-3.3711852828428146,-9.253439778900146,0.29234428943143126,-0.6272776898239482,-0.7430860551616002,0.01666666753590107
282,4711.0,-0.03108911187723279,-0.014476853641867637,-0.013191490006446838,0.1575683602264151,-3.380013609203696,-9.222314572796225,0.8923246746701738,-0.7241177660628285,-0.8895126110836856,0.01666666753590107
283,4728.0,0.03718923711692914,-0.029123218631744382,0.03607084581255913,0.22505491952206938,-3.397072588293254,-9.172186560058593,0.6566893381636693,-0.20255224804449,-1.3016122880998164,0.01666666753590107
284,4745.0,-0.06308304537339135,-0.023273323559761045,0.16663257770240306,0.12539625715175642,-3.391386359350383,-9.041552347454427,-1.6406199763735252,0.02411184843061439,-2.3254446246366225,0.01666666753590107
285,4761.0,0.05557979360381141,-0.02840191861987114,0.056095981231331825,0.24645309685971586,-3.389291432897746,-9.1546789604187,-2.9091747892207147,-0.1518067172756456,-2.2441152143117535,0.01666666753590107
286,4778.0,-0.006202800162881612,-0.1426537362217903,0.055931730580329894,0.18435349129941314,-3.49867681350708,-9.156623664745688,-0.7996658481421048,-0.14347047139364502,-0.3398937985968122,0.01666666753590107
287,4794.0,0.01740479685254395,0.0057411740005016325,-0.1114618946224451,0.20560203103329985,-3.3506849311277267,-9.323919090270996,0.5417058248900021,-1.3980197679043118,-0.859561110995269,0.01666666753590107
288,4811.0,-0.028339794902782885,0.00789104551076889,-0.09354512965977191,0.15876547932280227,-3.349937035369873,-9.305513665008544,0.4770166763739882,-0.5169369442777442,-1.2564098827292605,0.01666666753590107
289,4828.0,0.04945046053593978,-0.07160539279133081,-0.033875966116786,0.23687630848539992,-3.432387062780559,-9.24476079788208,0.9431322641109302,0.1523595357115935,-1.0026498922081866,0.01666666753590107
290,4845.0,-0.010958214529044925,-0.12263532280474901,-0.021421558213233948,0.17911617516782133,-3.488501164190471,-9.230395587921143,1.695406204366667,0.34991806169915796,0.0654104138243246,0.01666666753590107
291,4861.0,0.06312699411297217,-0.03416793480068445,0.015563479834794997,0.2528875138213858,-3.4053023642390965,-9.191489810943603,1.682298857906001,-0.3061336142724672,0.35876062203381215,0.01666666753590107
292,4878.0,-0.019037165561038998,-0.022226444855332372,0.008327683362364769,0.1687911805083975,-3.3964737456172704,-9.197624368175864,0.6057838315578585,-1.0235662793242928,0.27286731132205233,0.01666666753590107
293,4895.0,0.02983122077062726,0.017125030063092708,-0.02917524107992649,0.21293427361752837,-3.356820365142822,-9.235333628845215,-0.44847294230653467,-2.4808914058530616,0.0811793596065403,0.01666666753590107
294,4911.0,0.10473773746658116,0.03312719357609749,-0.04141162231862545,0.2787748375381343,-3.339162835638225,-9.248352100372314,-0.6100464032084754,-2.499989255102652,0.7136667762199157,0.01666666753590107
295,4928.0,0.10893920774441211,0.05702917042821645,0.09938274977207183,0.27787699364926666,-3.315969007055461,-9.107393477630614,0.20894274378668318,-1.2423723498810033,1.4266269480258524,0.01666666753590107
296,4945.0,0.09168169214176014,0.0946367242887616,0.14109598538577556,0.2575262795379385,-3.2806545325681564,-9.064895813640952,1.2056163271928144,-0.8034990783703629,1.491476819430773,0.01666666753590107
297,4961.0,0.049400630044844,0.15278525413572788,0.07048515658974647,0.2103904526199214,-3.2251389815732834,-9.134626936993003,-0.06332655245702279,-1.6528310739490386,0.996752344024998,0.01666666753590107
298,4978.0,0.014731759984698146,0.16432956145703792,0.025641806256771087,0.17133501977231352,-3.211222684423625,-9.18041604374349,-1.1309845576793776,-2.1616588227738323,0.8874441309822295,0.01666666753590107
299,4995.0,0.01261005512299016,0.1749810115918517,0.01763034923672676,0.1632545983024407,-3.198204212896526,-9.189394884490966,-0.5737274592663143,-2.4021139249568386,0.8937161656310053,0.01666666753590107
300,5011.0,0.014329535859357565,0.15800532687157393,0.14018003958463668,0.1617582405311521,-3.21451471170634,-9.067140962219238,0.22877363775285986,0.2446575895132683,0.8812105161475351,0.01666666753590107
301,5028.0,0.028604610718274488,0.09978051691800355,0.16988368845283985,0.17941545950849538,-3.27197555155009,-9.037662354278565,-0.6626246124698517,1.8878687689031672,0.877911481417566,0.01666666753590107
302,5045.0,0.0657084437072277,0.07653934206217528,0.09699439333081245,0.22161323636928573,-3.290530614416301,-9.112181296429037,-2.3793452759151896,2.175481844993469,1.158871579730305,0.01666666753590107
303,5061.0,0.0733271202837117,0.07113456040918827,-0.007337503281235695,0.23238718037260694,-3.286041778564453,-9.220070593261719,-2.4796754187373877,0.4950129441765024,1.0411110075896457,0.01666666753590107
304,5077.0,0.03173307233657688,0.10499357539117336,-0.03185819655358791,0.19048865131987258,-3.2447417999267576,-9.247304637145996,-2.252475365855849,-0.1780716761204007,0.7883011604151442,0.01666666753590107
305,5095.0,0.008768741660751402,0.09310030850172042,-0.01689443617761135,0.16654661645200103,-3.2513255622312425,-9.234285581097007,-1.6456420864041887,-0.01829434152676181,0.8564999589474868,0.01666666753590107
306,5111.0,-0.016704557895008472,0.06028787996321916,0.007799860095977783,0.13751693958891556,-3.2814030128479,-9.210643424224854,-0.07498240367778178,-2.153466864638048,1.020288642296333,0.01666666753590107
307,5128.0,-0.04679098640256561,0.06739683518558741,0.09607610944211482,0.10549450151748023,-3.2731726523801683,-9.12280615081787,-0.9257404680499621,-0.17820422447898127,0.49104417738190187,0.01666666753590107
308,5145.0,-0.0760101031568367,0.004684942945837974,0.001298223116993904,0.07317275170590729,-3.3328780562803146,-9.21872327030599,-1.846089568967257,-1.9141203875346997,0.8089304661426983,0.01666666753590107
309,5161.0,0.0006530022823251784,-0.017439210578799248,0.024416648375988004,0.14619591147382743,-3.3470936286374924,-9.198522193798421,-3.5328824779037147,-1.164936894434982,0.574125104342056,0.01666666753590107
310,5177.0,-0.030799399082502347,-0.07488076120018959,-0.012454407903552055,0.11103108372343704,-3.391984909765422,-9.239972394561766,-3.509982347720543,-0.3406290577887935,1.5737998088364675,0.01666666753590107
311,5194.0,-0.007804234876995906,-0.031025837382674216,-0.05008125098645687,0.13272853626860304,-3.3417066749021407,-9.279925634765624,-1.2287700281489229,0.3141539105445018,0.7984475131489038,0.01666666753590107
312,5211.0,0.05260330767682753,0.040436347545683385,-0.04954582893550396,0.1945288483550772,-3.270778450720012,-9.279177446746825,1.7671586222581204,1.2810143585537621,0.22490497591828232,0.01666666753590107
313,5228.0,0.0720205129308626,-0.08875760312229394,0.03243219704926014,0.2205657914092764,-3.4109888854429125,-9.193135240063071,4.225542206918463,3.7407994126544266,0.9014791025095479,0.01666666753590107
314,5245.0,0.056145957852900025,-0.10688041205108165,0.10071779776811599,0.214430649655126,-3.439719597625732,-9.120860861968994,4.183610821830109,5.3069310534870855,2.0840657393683717,0.01666666753590107
315,5261.0,0.03658369070552289,-0.012353577877581118,0.16777356443107128,0.20485384301450102,-3.354575508825481,-9.050231912994384,2.5966392066226827,4.475428519684788,1.834232787454938,0.01666666753590107
316,5278.0,0.06852105344254524,0.00561316370666027,0.05067629427015781,0.24390925759579984,-3.3381153724119064,-9.166649968719481,-1.4193540772202582,1.0098854104167574,1.7122679137150185,0.01666666753590107
317,5295.0,0.024866785029973835,-0.01450637199729681,0.017895137652754783,0.19662377480771392,-3.351432826885581,-9.201963858684897,-3.716520224589147,-2.615142402527659,1.5993245459299223,0.01666666753590107
318,5311.0,-0.05250407595289871,0.0299003404840827,0.02602642166018486,0.10923539594570174,-3.2978625647395847,-9.197325092968343,-4.218768366809103,-4.521201459294451,2.221107935535977,0.01666666753590107
319,5328.0,-0.11549098574174567,0.007088789217174053,0.07498772870600223,0.028580773184960707,-3.3089360396787524,-9.152883309173584,-3.997489020720907,-4.663972903515227,2.352014060507972,0.01666666753590107
320,5344.0,-0.07820811552461236,0.002940729627013206,0.0479056605130434,0.053570243879687035,-3.30399799875468,-9.183408795818686,-3.993521534586776,-4.0656453440143485,1.968026801785379,0.01666666753590107
321,5361.0,-0.08908457918749191,-0.008252572299540042,-0.06973229239583015,0.03306988303144462,-3.3068411132261155,-9.304166342052817,-3.5327428859125525,-3.8471288094454232,1.4140008097365548,0.01666666753590107
322,5378.0,-0.07055339038721285,-0.0005643558844923973,-0.11713526408374308,0.04115033190078102,-3.2897824263975024,-9.355043711853027,-2.7652326078875156,-2.199680778336001,0.45292190341629884,0.01666666753590107
323,5395.0,-0.08129492995827459,-0.011124328343570232,-0.16144319236576557,0.026485828466014934,-3.2954689476013184,-9.401132093811034,-1.2275026011710626,-0.6749692188992977,0.5707229230834492,0.01666666753590107
324,5411.0,-0.10175984503380023,-0.02397767243683338,-0.15702654496729374,0.004339463109569624,-3.3077392311096188,-9.39694224090576,-0.005741707812321305,0.30584285098506564,0.667674149978901,0.01666666753590107
325,5428.0,-0.09685178825603798,-0.009254735079407692,-0.23906068505346773,0.008529306881688535,-3.293971987041831,-9.478644372558593,0.5995897037543032,0.08669612474350076,-0.4055070236827612,0.01666666753590107
326,5445.0,-0.05036014099307358,-0.03207183930426836,-0.08103285408914089,0.05880755087812431,-3.3221041488096117,-9.318681774139403,2.736577189554962,2.491793881872283,-0.044393001273482995,0.01666666753590107
327,5461.0,-0.020166534917149693,0.042567806616425514,-0.027359131568670272,0.09487022251738235,-3.2553657775327562,-9.262118759918213,3.912519759898656,4.090902102904587,0.011587442607353077,0.01666666753590107
328,5477.0,-0.07713550872388296,0.06701514239162207,-0.01802197890281677,0.046088345425389705,-3.2417487555906175,-9.248801013183593,4.940016279481762,4.200361433882741,0.2654420952814551,0.01666666753590107
329,5495.0,-0.12458992747124284,0.08025368641018867,-0.025489830565452575,0.008529334281152113,-3.244741507665813,-9.25029738922119,5.334694918689541,2.6244639031974337,-0.11856690798869096,0.01666666753590107
330,5511.0,-0.014239985279226675,0.17118892583251,0.043506548771262164,0.12360065157241187,-3.1639374938964844,-9.177573513793945,4.15747723740517,2.229950042303382,-1.5968091153246537,0.01666666753590107
331,5527.0,-0.02975819206703454,0.055581017446517944,0.10987141056060791,0.11312601930922828,-3.287388224737346,-9.108291303253173,2.3715426385620964,1.9398040332480633,0.15271784049854148,0.01666666753590107
332,5545.0,0.023285616785753516,0.04927694886624813,0.02544482237994671,0.16968901526411062,-3.298161839947104,-9.191040313610435,1.344567667955144,0.6808834156685883,0.3700442546252319,0.01666666753590107
333,5561.0,0.0003348488443996757,0.19070874207764862,0.04030629142522812,0.14664481515195218,-3.159896986334026,-9.175029674530029,2.4835562468464247,0.4532120797343186,-0.5141711445507121,0.01666666753590107
334,5578.0,-0.03897503368831239,0.21678747844696045,0.10878887602090835,0.10863688206328079,-3.139246997015178,-9.104550363159179,2.372893521913878,1.0143796748906257,-1.4234064071104855,0.01666666753590107
335,5594.0,-0.06188088477570563,0.1280117551460862,0.08541267660856247,0.09023143853452056,-3.230376297704875,-9.126996003723145,1.6656171880753026,2.147298563487292,-1.063134845846646,0.01666666753590107
336,5611.0,0.022734723171032964,0.10978080966770648,0.022369652718305585,0.18076220707548782,-3.2529715758726,-9.188347421264648,1.1868815451862926,1.5385901836650517,-0.3740883135832612,0.01666666753590107
337,5628.0,0.0229634721593,0.12699468705803155,0.029394436788558957,0.18435349129941314,-3.2372596274778247,-9.1807159034729,0.31488751555004346,0.9114080631286309,-0.5206947756208676,0.01666666753590107
338,5644.0,-0.007278028178960084,0.14846183797866105,0.08672551277279854,0.15786763543393462,-3.213916161291301,-9.124003251647949,0.01895006636750948,1.4439679445548685,-1.3302000448709048,0.01666666753590107
339,5661.0,0.03959690104685724,0.11954641687870025,0.14394436055421828,0.21278465428007765,-3.241449480383098,-9.067140962219238,0.3911859045818163,2.5934219740801954,-1.729868991041024,0.01666666753590107
340,5678.0,0.027234591873548923,0.09551789103746414,0.13386603413224218,0.20829548963466657,-3.2664389602109787,-9.076717184337973,0.5899717835467203,2.7478623696111155,-1.830037130313846,0.01666666753590107
341,5695.0,0.05767696681246161,0.13659838170558214,0.060246671169996255,0.25004439934995026,-3.2234932601928707,-9.150788382720947,-1.0383106300299405,2.7123701453627906,-2.385384657245362,0.01666666753590107
342,5711.0,0.04901258057532832,0.10799947920888661,0.07879004359841346,0.2500444176162593,-3.248333102416992,-9.133429836162923,-1.13085446392003,2.9309752589475147,-2.5292348444681774,0.01666666753590107
343,5728.0,0.0160576565599069,0.0950119873419404,0.06724106010198592,0.22520455712582915,-3.2576103415891526,-9.146149617004394,-1.2962443997424211,1.7469542823629878,-2.515822487372388,0.01666666753590107
344,5745.0,-0.009881726137641817,0.126005383759737,0.054209729093313216,0.20485384301450102,-3.2225954345703123,-9.160514826965331,-1.2241663739266286,1.028689668253743,-3.068489165054674,0.01666666753590107
345,5761.0,-0.046693215983361,0.015630699852108954,0.06098959849178791,0.17372920316616072,-3.3279400153562424,-9.15542656391561,-1.456454917739827,0.687988519952694,-2.7441569919863835,0.01666666753590107
346,5778.0,-0.06627740270160139,-0.02607785958647728,0.09414835624992847,0.1592143738677725,-3.365349416296184,-9.12370397644043,-1.6642768701723933,1.399435217888091,-2.9185998099450976,0.01666666753590107
347,5795.0,-0.04723008107272908,-0.01315349608361721,0.07455518250763415,0.1849520417144522,-3.3473931961059566,-9.144952516174316,-1.738264574191439,1.5787126358404107,-2.9793438838851944,0.01666666753590107
348,5811.0,-0.046465836968272924,-0.04743073647767305,-0.026864041528105734,0.1916857156173326,-3.3732802092954515,-9.249249341472982,-3.1220790427260052,0.04627997443383124,-2.4597850541006645,0.01666666753590107
349,5828.0,-0.059470846225600685,-0.05663637171834707,-0.05864917284548282,0.18031327599789945,-3.372980934087932,-9.284414762878418,-3.924126812619446,-0.38394163519337154,-2.236228693697916,0.01666666753590107
350,5845.0,-0.10791554551878943,-0.06081161157637834,-0.05690028335154056,0.13198032998349518,-3.368941011047363,-9.285611279186606,-2.505583393476304,-0.4034425723256984,-1.6866590799174077,0.01666666753590107
351,5861.0,-0.13340955906901508,-0.06545037729293107,-0.040675124737620354,0.10788865751186386,-3.369539269201457,-9.270797156414389,-0.9053447761363635,0.5291167190326107,-1.542760227596756,0.01666666753590107
352,5878.0,-0.10558512980984523,-0.06758797384351492,-0.06878361336886882,0.13826510934140532,-3.3705867324277756,-9.299228885650635,-0.3008167388904354,0.7480805242704662,-1.594649174721343,0.01666666753590107
353,5895.0,-0.05440771761713549,-0.0887140562415123,-0.015976152288913727,0.19153607801357284,-3.3924341148376462,-9.246107536315918,-0.07215654631082123,0.6650628832818405,-1.251953824626062,0.01666666753590107
354,5910.0,-0.030734982943627982,-0.08869535154104233,-0.0029249475359916684,0.21697448891904203,-3.390937738800049,-9.233537977600097,-1.2194801171040595,0.5486992982698604,-0.9944007312381038,0.01666666753590107
355,5928.0,0.015261172419972716,-0.08453647829592227,0.008958382481336593,0.2647089027847163,-3.38061245187968,-9.223811533355713,-2.5787005685412905,0.16143621678830575,-0.1417476095363622,0.01666666753590107
356,5945.0,0.0600680266674608,0.017908289395272732,-0.023613515299558636,0.30795415200497955,-3.27227482675761,-9.258527457427977,-2.767481661115154,0.13785797688659862,-0.41493159083989456,0.01666666753590107
357,5961.0,0.06669834979372098,0.032359424073994156,-0.04028875576853752,0.31483748177792875,-3.2525226630613204,-9.277082520294188,-1.4734191866474347,-0.5150192619465573,-1.3966237412709845,0.01666666753590107
358,5978.0,0.05672134658806026,0.05894026474654674,0.07024141096174717,0.3048117440597154,-3.2269346328184008,-9.166200471386313,1.0431284747157383,0.10086129675187251,-1.3405189666029131,0.01666666753590107
359,5994.0,0.13302311703469605,-0.042590602970123285,0.05298106408119201,0.3826233162811026,-3.3322795058652757,-9.182062641906738,1.046161078707224,0.4204230095717319,-0.6694154213304311,0.01666666753590107
360,6010.0,0.13472034940663724,0.004515139336884021,0.09977262587249279,0.3860649811675772,-3.2876874999448655,-9.134327661785482,0.5695223038934079,0.46961744706874875,-0.9101533360337584,0.01666666753590107
361,6028.0,0.1056625424276106,0.05751695394515991,0.10735387478172778,0.3607762078658677,-3.2341169455379246,-9.126845781597494,-1.155103343020868,1.1668937436321907,-1.0323492622666945,0.01666666753590107
362,6045.0,0.08905353559525683,0.06707651719003915,-0.006925999870896339,0.34805702981259673,-3.220350870513916,-9.242516233825683,-1.3633808904154152,0.7062690943794101,-0.7371559568581482,0.01666666753590107
363,6061.0,0.0650356772785075,0.09354805226922035,-0.014629998376965521,0.3251624764373526,-3.191470520727336,-9.25104557723999,-0.2782826374776675,-0.5792839782386784,-0.9264259415661964,0.01666666753590107
364,6078.0,-0.01691536936778575,0.15371698202788828,0.038164018699526785,0.24106612485805526,-3.132812287792563,-9.197774005779623,0.6061283825849739,-2.4832401371539,-1.4993469049019204,0.01666666753590107
365,6094.0,-0.06226723547847941,0.11394114421755075,0.09981763405799865,0.1913864586761221,-3.172915457861125,-9.13612389755249,-0.7478216174122404,-3.5485458092178463,-2.078700198888504,0.01666666753590107
366,6111.0,-0.04779290258726105,0.10555646997094154,0.10004442855119705,0.1984194260528311,-3.175758572332561,-9.138068601879477,-3.6822241372192206,-4.88895421213357,-2.934367301644072,0.01666666753590107
367,6128.0,-0.11721492345752194,0.05904197155535221,0.05924304708540439,0.12150569772031157,-3.2074817443296313,-9.184307205963135,-4.650876869555375,-2.144301817988949,-2.4626872441676855,0.01666666753590107
368,6145.0,-0.03144744206191972,-0.05187660997062921,-0.04148293398916721,0.20964222806850447,-3.30384836115092,-9.290100991821289,-5.927262921172806,1.3730675927623743,-1.6483703200907858,0.01666666753590107
369,6161.0,-0.04179724236903712,-0.07645166377872228,-0.13462708163261414,0.20814585203090682,-3.3138740806028246,-9.388113037762045,-5.241058574697367,5.129457979414413,-2.403576012326045,0.01666666753590107
370,6178.0,0.12916328153507783,0.07041881335526705,-0.2793547015190124,0.40641567701259623,-3.155856771032512,-9.535955574798583,-0.23720142417799447,9.491455413118683,-3.6433727405597187,0.01666666753590107
371,6195.0,0.18967357207732274,0.06728080759048462,-0.2526180857628584,0.4936544000045396,-3.1657331451416013,-9.50602805404663,6.390299374254543,10.619815470609483,-3.134367833703328,0.01666666753590107
372,6211.0,0.24377160269077866,0.09906038594990968,-0.1939846950083971,0.5741594125609845,-3.1540611197873947,-9.439439320373534,9.811808360665205,10.05713168017914,-2.2387379344442495,0.01666666753590107
373,6227.0,0.31533154890518633,0.10450111569911241,-0.03513327270150184,0.6657375895293429,-3.173813283483684,-9.27094679401815,10.292129461215305,6.801005479236579,-1.4025288666952838,0.01666666753590107
374,6245.0,0.2668509380484,0.045316813063621515,0.12053133626282214,0.6296750000884757,-3.2609023688718675,-9.104849638366698,7.0446874189155935,1.045206879935832,0.5378792647683553,0.01666666753590107
375,6261.0,0.2073967324303463,0.05654284821599721,0.14413082303702832,0.5669768441131338,-3.2601544731140133,-9.077615594482422,2.5681468590565633,-2.7693828015819446,1.2751634477559999,0.01666666753590107
376,6277.0,0.09395071478597819,0.07669599392861128,0.2523305009931326,0.44322647273857146,-3.238157453100383,-8.97047448566854,-1.5596820212654627,-5.607861077468208,1.9340374325978684,0.01666666753590107
377,6295.0,0.005564831052906811,0.007362929983437061,0.2768295669555664,0.33309326943662015,-3.2939722793027757,-8.951620732116698,-4.905898630803902,-7.2131160418667,3.1499402381241337,0.01666666753590107
378,6311.0,-0.029025274682603776,-0.008621405611932278,0.290112826898694,0.2811690209319815,-3.296216843359172,-8.94383957672119,-6.087554227501489,-5.812252780833547,4.187064763116019,0.01666666753590107
379,6328.0,-0.07553137059602887,-0.025222996322810647,0.09086334322988987,0.22310961240688337,-3.2972645988464353,-9.148992731475829,-6.7962815496518685,-3.5422157179611258,4.45255080105983,0.01666666753590107
380,6345.0,-0.0657168279430829,0.06180646783262491,-0.01082066922187805,0.22565343340449034,-3.191620158331096,-9.25747940967977,-4.478742442092713,-0.45594735705349715,3.203297889363685,0.01666666753590107
381,6361.0,-0.0096598452815786,0.0595084200233221,-0.04632452880144119,0.28191719068447124,-3.1884780609130856,-9.2948893951416,-0.7189263954067957,1.90528169586188,2.9233265142941582,0.01666666753590107
382,6378.0,-0.03527949450546875,-0.00415098219960928,-0.06461071159839629,0.2620154076507315,-3.25596462020874,-9.311648222240805,2.281988826702886,4.095230308404259,3.0053485484895486,0.01666666753590107
383,6395.0,0.05878288222774863,0.0137704589381814,-0.061195934718847274,0.367659555905126,-3.251475492095947,-9.303119463348388,4.484814053378031,4.6586227309609916,1.8547105483602824,0.01666666753590107
384,6411.0,0.08207962319571524,0.012453238859772682,-0.045263621571660036,0.3993827279021963,-3.2640447585508223,-9.28291838684082,4.147197802704301,3.803840778033175,1.5131577608470976,0.01666666753590107
385,6427.0,0.11135284475740044,0.002616319978237152,0.0044049569606781,0.43394897783808406,-3.2814027205869554,-9.230395003399252,2.712017323403477,2.591751565941304,1.3292835188616539,0.01666666753590107
386,6445.0,0.12265705971252172,0.012190496270358562,0.031635493713617326,0.4483142243316397,-3.2782606231689453,-9.20076734237671,1.7254833692636413,0.9238874590724788,1.8845738429588708,0.01666666753590107
387,6461.0,0.10883976595792919,0.008882394635677337,0.07621639371812343,0.43230296419672665,-3.2855928657531734,-9.15482859802246,1.435414413279897,-0.8128561173681631,2.2447363346394016,0.01666666753590107
388,6477.0,0.13110603136699647,0.05596154119670391,0.13287877666056155,0.448613426473923,-3.239653536877036,-9.09796572407186,-0.1302135544623263,-2.5916106932896725,2.143931066783064,0.01666666753590107
389,6495.0,0.09069047088101506,-0.013515899655222891,0.14505202953517435,0.39594104474941266,-3.30384836115092,-9.088090226745605,-2.8702561578865704,-3.8146307693745025,2.860159217302588,0.01666666753590107
390,6511.0,0.01275432243188843,-0.08349106089621781,0.11315174740552901,0.3063081383636221,-3.3644515906736254,-9.12370397644043,-4.712236300851007,-3.9962104946856454,3.7740995730660005,0.01666666753590107
391,6528.0,-0.07510960152000189,0.029152152465283868,0.04093231436908245,0.20829548963466657,-3.2411502051755785,-9.200019154357909,-3.9533741095322643,-3.235790806792728,3.48512366079287,0.01666666753590107
392,6545.0,-0.08780448538223282,0.0499991256609559,0.007029460245370865,0.18749588097836822,-3.2136168860837815,-9.236530729675293,-1.9289263166645831,-2.017160621353512,3.0917265358281147,0.01666666753590107
393,6561.0,-0.08951415711063891,0.03657791855186224,-0.011036942321062088,0.18121110162045806,-3.2260368071958423,-9.255085208019613,0.3260122395215546,-0.40835865434166796,1.7247523255790382,0.01666666753590107
394,6578.0,-0.01344122698381543,-0.0336754751086235,-0.001485270121693611,0.257825536479149,-3.2980122023433447,-9.24490985096395,0.17393319513318123,0.4274193644376464,1.2507690002484761,0.01666666753590107
395,6595.0,-0.04920625825021416,-0.0695315091267228,0.00521451977789402,0.22370818108823148,-3.334673999786377,-9.237877468109131,-0.3221605731186228,1.3179223529509838,0.9700835502455658,0.01666666753590107
396,6611.0,-0.015623028002306819,-0.009314648573100567,0.0044148938328027725,0.26007008226923645,-3.2743697532102463,-9.23862507160604,0.13771771788477535,1.0510566167948305,0.47169110317293517,0.01666666753590107
397,6628.0,-0.08413478389354422,-0.0060828270450234406,-0.0404378088504076,0.1921346284286119,-3.271826206207275,-9.283217662048338,0.5835856633944642,0.8894019406747903,0.12864347806708284,0.01666666753590107
398,6645.0,-0.06014472689917311,0.042297172981500625,-0.03933247795701027,0.21772267693784086,-3.2248399986267087,-9.281571648406981,0.7938281708358597,0.985354572569245,-0.5739034967200008,0.01666666753590107
399,6661.0,-0.05710972485113889,0.030194647255539893,-0.05511164636909961,0.2238578004256822,-3.240252671813965,-9.296086495971679,1.23159591219631,0.5373663068895168,-0.07599215109703296,0.01666666753590107
400,6678.0,-0.05104967589350417,0.01605184787362814,-0.08280337089300155,0.2289454972198233,-3.257460996246338,-9.322721989440918,0.620927694969099,-0.6479487237384628,0.14304100990936724,0.01666666753590107
401,6695.0,-0.06803378138225526,0.030131811152398585,-0.06300035379230975,0.20949260873105377,-3.2442925948545334,-9.302670550537108,0.2062700854283719,-1.3145594452801046,-0.43586219862329617,0.01666666753590107
402,6711.0,-0.026672263549361377,0.050153147178888316,0.017570143482089042,0.24660273446347564,-3.2252886191770433,-9.221866244506835,0.6692509631818219,-0.7804990566705797,-0.23078179341012295,0.01666666753590107
403,6731.0,-0.0613200177562423,0.000801087249815464,0.10726444293260573,0.2106897095611319,-3.2754175086975095,-9.131934044647217,0.5601160661892425,0.0691073204136601,0.12466315864783147,0.01666666753590107
404,6745.0,-0.0394964180807583,0.025265958681702613,0.08723813847005367,0.23223750623622907,-3.2513255622312425,-9.151835845947264,-0.11410041783875219,-0.15363069794915635,-0.4585106523438089,0.01666666753590107
405,6761.0,-0.06298371318476274,0.03998158951550722,0.07970657392144202,0.20784659508969633,-3.2347157882139084,-9.160065914154051,-0.6448579030564734,-0.3700961480546681,-0.6918605968818566,0.01666666753590107
406,6778.0,-0.02368966754199937,0.03125964613854885,0.11415595601201056,0.24600418404843657,-3.2417490478515623,-9.126247815704344,0.07154994013515947,-0.22003913314530937,-0.5325360291249955,0.01666666753590107
407,6795.0,-0.023841953760571775,0.03099427320063114,0.12754092276394366,0.24645309685971586,-3.242197668401897,-9.112780431365966,0.15855555782542644,0.5197680043278616,-0.33879515199664506,0.01666666753590107
408,6811.0,0.04653470095340162,0.026450784552097317,0.05365384877622127,0.317830215586815,-3.2469857794612644,-9.186551185497642,-0.18940910979174752,0.1252953380122411,-0.7122589568380997,0.01666666753590107
409,6828.0,0.09407092536585406,0.03999591030180454,0.04529927740693092,0.3645171662261709,-3.2321722412109373,-9.195380388641357,-0.5793137002337385,-0.683158615714143,-1.040317958593984,0.01666666753590107
410,6845.0,0.09457947767619043,0.017716273954510687,0.08069032426178455,0.36646243680873886,-3.2532708510801194,-9.160365189361572,0.08577618363966466,1.0032653562854283,-1.414893856970534,0.01666666753590107
411,6861.0,0.05331358397118747,0.006360767203569412,0.06723404583930968,0.3269581094161607,-3.2661393927425144,-9.173233438763022,0.6745196003528405,0.3844094497906645,-0.9493247910888988,0.01666666753590107
412,6878.0,0.03416397101162001,0.017654606895148754,0.06425999846458434,0.3115454544952139,-3.2570117911741137,-9.175328949737548,0.7105797441584815,0.6182903881758278,-1.88122918469968,0.01666666753590107
413,6894.0,0.027110819363407788,0.018575521132349965,0.053704702180624,0.3072059639861807,-3.2556653450012205,-9.185953219604492,-0.8273078371565581,0.5237469096845113,-1.0878483912544563,0.01666666753590107
414,6911.0,-0.029136589569970964,-0.044699265687167644,0.02354161910712719,0.25423423398891465,-3.315520386505127,-9.217227478790283,-1.6138074284564055,0.4590690736693103,-0.8475742357236024,0.01666666753590107
415,6928.0,-0.005608743259869516,0.03932926308661699,-0.06977145536243916,0.2801215394393541,-3.226037099456787,-9.312396994781494,-1.591778360835822,-0.2725701180518774,-0.8970918799065783,0.01666666753590107
416,6945.0,-0.012259049728233367,0.04173515518456697,-0.08005845609903335,0.273836778347753,-3.22094912866801,-9.323619815063475,-0.5475042286085198,-0.27472701708657343,-1.2956038560643208,0.01666666753590107
417,6961.0,-0.008542677819915115,0.04747019170522689,0.0065665189087390895,0.2786251816680655,-3.216011087743938,-9.236679782757163,0.8645037667159782,-0.1300806325777755,-1.8284098377440905,0.01666666753590107
418,6978.0,-0.03992892774650827,0.02241962933987379,0.09469020804166793,0.24914657372739166,-3.244741507665813,-9.147197080230713,0.9739108040583002,-0.0863983711843705,-1.6307988046772817,0.01666666753590107
419,6994.0,-0.01762486934401095,0.0053010290175676345,0.14320143323242662,0.2717418336288072,-3.2634462081357833,-9.09811594619751,-0.11072975950399057,-0.08040167853651088,-0.5799565384285131,0.01666666753590107
420,7010.0,-0.04767764217713848,-0.01896890436410904,0.16719488776028155,0.24181433114316314,-3.285443228149414,-9.074922117614745,-0.9477453098433334,0.21151527050454502,-0.24838868706909356,0.01666666753590107
421,7028.0,0.03261033009514212,0.031962241449952127,0.10543781202733517,0.3232171510558575,-3.2270839781612155,-9.139265702709555,-3.3346641983310095,0.09220168410135415,-0.43935957564346,0.01666666753590107
422,7044.0,0.03777317448472604,0.010450082343816756,0.03422726377248764,0.3280055726424791,-3.2396538291379806,-9.213636176300048,-3.7595572465493974,-0.7006732484584656,-0.8024069951551014,0.01666666753590107
423,7061.0,0.0590321625473909,0.041133682160079475,-0.05019932440817356,0.34656065377499906,-3.201197257232666,-9.300874899291992,-2.624442345412866,-1.9907021760561752,-1.0358125950627142,0.01666666753590107
424,7078.0,0.022393325854837894,0.003262801188230514,-0.07011924588680267,0.30511103753354396,-3.2344168052673337,-9.322572351837158,-1.9090645534450092,-2.2671152360115365,-0.7645265525747992,0.01666666753590107
425,7094.0,-0.03505858176378533,-0.02179126830846071,-0.09844108500778674,0.24076686791684476,-3.2546175895139573,-9.352799147796631,-2.036451636890567,-2.3605266106479235,-0.8504376324505716,0.01666666753590107
426,7110.0,-0.05168399174166843,-0.017817103980481624,-0.038240591067075724,0.21996724099423734,-3.2474349845334887,-9.293841931915283,-1.1804471868230233,-1.7612327928228995,-0.5817536785930199,0.01666666753590107
427,7128.0,-0.04364928171020001,-0.004279869276285171,-0.02037526403069496,0.22565346993710844,-3.233069774572551,-9.27633433227539,0.6499073338438168,-0.6323059897135469,-0.3795523315171392,0.01666666753590107
428,7145.0,-0.02914088215259835,0.0014531214177608488,0.035273557955026624,0.24211360635068266,-3.233219412176311,-9.21857421722412,3.178683808585663,0.7089595485821604,-0.6060973265685915,0.01666666753590107
429,7161.0,0.020706669675838202,-0.022128245177865026,0.10373393071889876,0.29448676766660065,-3.2644939636230466,-9.147346717834472,2.751242672920037,0.670753924964342,-0.6386088135744407,0.01666666753590107
430,7178.0,0.0659145790048875,-0.05632569833397865,0.08011457020044327,0.34102406243588773,-3.3023522773742675,-9.169642720794677,0.23584656544267252,0.2406086747176259,-0.49896047335165244,0.01666666753590107
431,7195.0,0.08820323890885337,-0.06437134988456965,0.024518939706683156,0.3616740517547354,-3.3056440123960376,-9.226953923034667,-2.1583611220651857,-1.4909869668012363,-0.7441337421472567,0.01666666753590107
432,7211.0,0.10036876513473689,0.023982056351006028,0.029449966368079183,0.3694552071502432,-3.212120510046184,-9.223961170959472,-1.6612958127648,-2.0002187640041185,-0.7358696934992173,0.01666666753590107
433,7228.0,0.04684292665235698,0.007004033543169498,0.0658873074054718,0.31229364251401276,-3.2261867370605466,-9.188646696472167,-0.656399428649914,-1.198405034811456,-0.29358554291094885,0.01666666753590107
434,7244.0,0.03592086114892736,0.026589608500897883,0.04989128137230873,0.29972408379819243,-3.2058360229492187,-9.204957195281981,-0.8177662763294619,-0.47937255802911366,0.06243558629630636,0.01666666753590107
435,7261.0,0.027327220326755195,0.008353110064566134,0.004517185163497924,0.2914940338577144,-3.2219962996333837,-9.25104557723999,-0.9321715180403523,-0.1915234135256235,0.12806055076989134,0.01666666753590107
436,7278.0,0.015178882697690278,0.05302461096197367,-0.009933364993333816,0.27892443860927596,-3.1754595893859863,-9.266158975219726,-0.8215300307272562,-0.6214397457134384,-0.4631107313889596,0.01666666753590107
437,7294.0,0.01768631720766425,0.02860971615165472,0.03912380364239216,0.28146827787319195,-3.198653125707805,-9.217526753997802,-0.18779148887657843,-0.806659428243669,-0.6762150880925903,0.01666666753590107
438,7311.0,-0.005372139758709818,-0.03639028702527285,0.01870119333863258,0.2566284173827618,-3.263146932928264,-9.23817615879476,-0.6330427430094091,-0.8033923566645815,-0.11315897231120113,0.01666666753590107
439,7328.0,-0.03179335115645081,-0.05657616596370935,-0.05359715015292167,0.22834694680478423,-3.2814030128479,-9.311199309429526,-0.7151288102282687,-1.2370351973748732,-0.3453514932696226,0.01666666753590107
440,7344.0,0.010642061251960695,0.02024842278063297,-0.09271920022964476,0.2680009118011221,-3.2028429786130785,-9.351003496551513,-0.5536397661956011,-1.6846217625540398,-0.6595575907282515,0.01666666753590107
441,7361.0,-0.015896017991099506,-0.029018589213490483,-0.014705401700735091,0.23837266625668851,-3.2517747673034667,-9.273191942596435,1.0985462817636946,-0.8310212189092235,-0.6697439641016792,0.01666666753590107
442,7378.0,-0.046583453732263295,-0.014055413359403609,0.10263502956628799,0.20814587029721587,-3.2410005675718185,-9.15437968521118,2.113942267458477,0.43146048854876673,-0.5199331561675584,0.01666666753590107
443,7395.0,-0.0701558881027624,-0.034521570543944835,0.14268530040383337,0.1870469681670889,-3.266139977264404,-9.112630793762207,0.9460026511096281,1.1145839928217076,0.07522287436133383,0.01666666753590107
444,7411.0,-0.012251432677358388,-0.045348669506609436,0.022693477845191955,0.2452559777633287,-3.276464679662883,-9.232789205059408,-1.4950233951573022,-0.7811194299462872,0.285140307486919,0.01666666753590107
445,7428.0,0.019355017604865132,0.007808627924323082,-0.021923077994585035,0.2732382279327139,-3.2176571013852953,-9.279476721954346,-2.7395493890609752,-2.0470068404791752,-0.06141060435355488,0.01666666753590107
446,7445.0,0.01045901456894353,0.059600189960002894,-0.021902035206556317,0.2593219307830557,-3.159747348730266,-9.281721286010741,-1.8855958100134338,-2.0332124196766883,-0.4841732205202806,0.01666666753590107
447,7461.0,0.024018424572329968,0.08003302939683199,-0.0096247374355793,0.26710308617856354,-3.1371523628234863,-9.270348828125,0.4496595275922657,-1.1856482691542822,-0.7407013586459137,0.01666666753590107
448,7478.0,0.036134960557334124,0.05144435603320598,0.050418520116806025,0.2778769753829576,-3.169174810028076,-9.209147048187255,1.6552869538424815,-0.17635569781314078,-0.5944916612299762,0.01666666753590107
449,7494.0,-0.026619729644525796,0.042511692515015596,0.03470306459069252,0.21532845701137557,-3.1836893653318286,-9.222913707733154,2.0046985143260008,-0.10429570796562533,-0.9377592531116574,0.01666666753590107
450,7511.0,-0.021670473206695167,0.0349850964024663,0.03523381046652794,0.22056580967558548,-3.196109286443889,-9.220668559154868,1.1623656483775897,-0.6417764738845927,-1.0155556413666316,0.01666666753590107
451,7528.0,-0.014690295463148503,0.006363982073962688,0.03674479955136776,0.2267009331634268,-3.226037099456787,-9.21872385482788,0.5669757105500509,-0.7457101818242073,-0.7739648067906989,0.01666666753590107
452,7544.0,-0.03327626492427662,-0.012457915034890174,0.014530629655718802,0.2070984070708975,-3.2438436820432544,-9.241319132995605,0.22430594698373105,-1.0396875534779328,-0.7607065558380579,0.01666666753590107
453,7561.0,0.0024112989254295824,-0.027528058394789695,0.07398176653385162,0.24046759270932525,-3.2589570800229906,-9.181912419781089,-0.06001236324483278,-0.9653898229035919,-0.5888140131215502,0.01666666753590107
454,7578.0,-0.03473616314269602,-0.034650457620620724,0.08783435079753399,0.20171145333554594,-3.2650922217771408,-9.168445619964599,-0.6772455928836161,-0.7072111268763429,-0.8036120432959326,0.01666666753590107
455,7595.0,-0.0006594685557298361,0.02367752044647932,0.05110241072773933,0.23448208855893463,-3.2044892845153807,-9.2060046585083,-0.688700513812815,-0.9606760318809311,-1.0463799649257817,0.01666666753590107
456,7611.0,-0.030245244931615886,-0.0031619711622595786,0.004800678279995918,0.20305819176938383,-3.229927384893596,-9.252841228485106,-0.298175643476609,-1.208946364578313,-1.0544843045411192,0.01666666753590107
457,7628.0,-0.021051574123371393,0.03269815450906753,0.04862228434979916,0.21054007195737212,-3.192967189025879,-9.209446323394776,-0.49184149524579507,-0.5740935147171448,-1.2594593487502597,0.01666666753590107
458,7645.0,-0.010640855675563216,0.015390461355447768,0.009264671951532364,0.22116434182431546,-3.2089784126281735,-9.249249925994873,-0.6870008639265396,-0.33095222719961925,-1.2305497193145345,0.01666666753590107
459,7661.0,-0.002875756365712732,0.018119886319339275,0.018542787906527518,0.2289454972198233,-3.205387110137939,-9.240271669769287,-0.4395490867125014,-0.463413767672526,-1.2257127714434017,0.01666666753590107
460,7678.0,0.0059286411303095515,0.040920331670343875,0.005536591339111328,0.23702592782285062,-3.1817440764829517,-9.253589416503905,-0.04286330570366459,-0.4979877050034545,-0.6962736461376253,0.01666666753590107
461,7695.0,-0.02266436134856194,0.0508881834551692,0.0193190329760313,0.20649985665585843,-3.1718679946348067,-9.239822756958008,0.12878564471939694,-0.9531324081077693,-0.6287579198831369,0.01666666753590107
462,7711.0,-0.01737732432372868,0.056385904088616365,0.010893734458088875,0.21024079674985258,-3.166181765691936,-9.248352100372314,-0.1682639380188723,-0.933827518748963,-1.1924522047846726,0.01666666753590107
463,7728.0,-0.008123392961919306,-0.008839724537730216,0.08738777607381343,0.2186204842940904,-3.2305256430476903,-9.172185975536703,-0.24376112718470413,-0.33218625028357013,-0.8739352441035608,0.01666666753590107
464,7745.0,-0.02700611687991768,-0.04119651826322079,0.060813657402992244,0.20036471490170804,-3.261800194494426,-9.199121328735352,-0.16156879182731276,-0.15309143316984267,-0.7999494077143662,0.01666666753590107
465,7761.0,-0.01563048065640032,0.004773205751180649,0.0477881716132164,0.21158753518369047,-3.2158617424011227,-9.21213980026245,0.17021831927663478,-0.7170104739837543,-1.0672375483820025,0.01666666753590107
466,7778.0,0.011377481120731682,0.008039806331694125,0.08015957838594913,0.2374748223678209,-3.2116715972349046,-9.18011676853597,-0.7981602183169402,-0.19766204604217244,-0.8031017000988857,0.01666666753590107
467,7795.0,0.02781290321815759,0.01959405052512884,0.09385726434886454,0.2540846146514639,-3.1968577667236326,-9.16754779434204,-1.4642358905866466,-0.1406546191866015,-0.9737828447330682,0.01666666753590107
468,7811.0,0.024736363583337515,0.03396510570496321,0.08642331495583057,0.2512415001800284,-3.1784523414611816,-9.176376412963867,-2.0341840140861227,-0.3530316674653317,-0.7127122039225535,0.01666666753590107
469,7828.0,0.015768172094039617,0.03148497932702303,0.05340776506066322,0.24061723031308502,-3.174412126159668,-9.211690887451171,-2.5106300494992975,-1.4564864006430325,-0.9097857864790471,0.01666666753590107
470,7845.0,0.032368867755774404,0.025569033281505105,-0.02987374473810196,0.25303715142514555,-3.17306538772583,-9.297582872009277,-3.502062956821325,-2.8221201862674943,-1.180152314749949,0.01666666753590107
471,7861.0,-0.003967460592556745,0.013520868091285228,-0.037518706533312796,0.2099415398086421,-3.1760581398010252,-9.30850641708374,-3.891146817325217,-3.4759592544740054,-1.5663369733945822,0.01666666753590107
472,7878.0,-0.0382336864022538,-0.004428630097210407,0.02315291205048561,0.16789337315214797,-3.1847371208190918,-9.251195214843749,-1.9643026411404296,-2.3736871045180687,-0.948795344706517,0.01666666753590107
473,7894.0,-0.0645915137075819,-0.009809154091775418,0.011983867782354354,0.13781621479643508,-3.187580235290527,-9.26331586074829,-0.6326074251715266,-1.759376048585714,-0.5804118665862297,0.01666666753590107
474,7911.0,-0.06139131116047501,0.013366846573352813,0.046722003686428065,0.13811549000395462,-3.164086839239299,-9.228749574279785,0.08821218661540557,-1.342090977329074,-0.7828351948101356,0.01666666753590107
475,7928.0,0.008660203252360225,0.034463410615921015,0.0891933641910553,0.20739768227841704,-3.1422397490903733,-9.18655177001953,-0.532419542383135,-0.2435957085407429,-0.5320391862237299,0.01666666753590107
476,7945.0,-0.04129011483080685,-0.039056583625078196,0.0688327132076025,0.15996256188657135,-3.212569422857463,-9.207949947357177,-1.0432953874635804,1.404989335622075,-0.05566070565031485,0.01666666753590107
477,7961.0,0.0291722636715509,0.004803893150389194,0.013023732224106788,0.23313536839140578,-3.1663314032956955,-9.264512961578369,-0.8195863082998587,0.8298244417005904,-0.15519377073245788,0.01666666753590107
478,7978.0,0.054241658601537346,0.04227729923725128,-0.10269932697415352,0.25797521061552686,-3.127276280975342,-9.380781379699707,-0.7136926028727147,-0.9395823800115218,-0.49992171575562594,0.01666666753590107
479,7994.0,0.068253762542177,0.048187400063872336,-0.08321896595656872,0.2663548981597647,-3.117698889812827,-9.362674645122885,-1.3731440055037138,-2.169496464846422,-0.44156121775330487,0.01666666753590107
480,8011.0,-0.00019512071330100297,-0.01158931550681591,-0.051396425238251685,0.1930324905837886,-3.174412126159668,-9.331999520874023,-1.3874958337754972,-1.778950090086501,0.2857682846841635,0.01666666753590107
481,8028.0,0.032995018563792104,0.016004793861508368,0.006938859352469444,0.2222118233169429,-3.144933518218994,-9.274389043426513,-1.0977119314678951,-1.0694319600962805,0.03990598053539452,0.01666666753590107
482,8045.0,0.060883946160227055,-0.005215688821673393,0.05373334375321865,0.24750054181972517,-3.164236184582114,-9.228300076946615,0.33458172569154054,-1.162284006272667,0.0922387031930471,0.01666666753590107
483,8061.0,0.05703088746126741,0.03234393424391746,0.11877426346242427,0.2407668861831538,-3.127874539129436,-9.162909028625489,0.49229655659924715,-1.2876196850896933,0.01629571078173972,0.01666666753590107
484,8078.0,-0.028721085837949065,-0.007358253808319568,0.1577858389019966,0.15337852558745071,-3.1664813331604003,-9.124302526855468,-0.7273280083335875,-1.2163992749015606,-0.15960439206942006,0.01666666753590107
485,8095.0,-0.023453794693201777,-0.03452478541433811,0.11842998006939888,0.1545756081512198,-3.1872809600830077,-9.165901780700683,-3.1172703761069047,-1.5876150403715819,0.16253662429661828,0.01666666753590107
486,8111.0,-0.02194220282016322,-0.048935003560781475,0.04231821576952934,0.1514332184722647,-3.192966604503989,-9.24505948856771,-3.972644207614986,-2.0862575897617113,0.2521503337131987,0.01666666753590107
487,8128.0,-0.017146566041465847,0.04410860631763935,-0.019363456639647482,0.15263030103603378,-3.0909137587398288,-9.309852570995687,-3.3059831667890682,-1.5267680867071116,-0.04545426859620017,0.01666666753590107
488,8145.0,-0.03807670574225485,0.051748307415843006,-0.024597850161790846,0.1298854217971675,-3.0771473914548753,-9.317185398101806,-1.6792438423563012,-0.5408672057259715,-0.1424696352368266,0.01666666753590107
489,8161.0,-0.006495536031760275,0.04847147770226001,-0.04133446542918682,0.1601121994903311,-3.0795415931150316,-9.33424350040853,0.34500534141692046,-0.36818113376612577,-0.15555681129509993,0.01666666753590107
490,8177.0,-0.010732735210098326,0.005081541047990322,-0.0056564183264970775,0.15472524575497953,-3.1241338912963865,-9.298181422424316,-0.552101586250173,-0.9534447825405916,-0.10589984192522629,0.01666666753590107
491,8195.0,-0.02021992733851075,-0.0042132337808609005,-0.0076256725728511806,0.14170677422787994,-3.131016928808391,-9.301024536895751,-1.7731149741011945,-1.6259425401774026,0.07561854508551855,0.01666666753590107
492,8211.0,-0.020789251659065484,-0.014743103362619876,0.045565819388628005,0.13617018288876861,-3.1358053321287036,-9.249847891888022,-1.5509572016527118,-1.303710223392068,0.4113425932353173,0.01666666753590107
493,8228.0,0.018105382869951427,-0.012394786670804023,0.040860418176651,0.17148463910976425,-3.129819535717368,-9.255833396038412,-1.1953772332967307,-0.8623011374303547,0.7902879984116774,0.01666666753590107
494,8245.0,0.029675811013206838,0.0005886135429143905,0.00017886369824409484,0.17986439058608375,-3.1133599838256836,-9.297732509613036,-1.1770361476628366,-1.05273086691513,0.9354143637922274,0.01666666753590107
495,8261.0,0.03360893094474449,0.03381108418703079,0.003971241718530655,0.1776197991302237,-3.076698478643596,-9.29518867034912,-1.07599811976619,-1.7906918255999877,1.0043471942169349,0.01666666753590107
496,8277.0,-0.02511012879917398,0.025344284614920616,-0.019960253489017487,0.11701657874067313,-3.0825346374511717,-9.320028512573241,-0.9807460091484846,-0.8042135801905698,0.43165840395213845,0.01666666753590107
497,8295.0,-0.006820228808326646,0.01688625287115574,-0.0840039788544178,0.1304839539458975,-3.0885198493406176,-9.38497064808309,-1.6319377387213814,-1.895105140885384,0.31715476482851745,0.01666666753590107
498,8311.0,0.04547478923746384,0.02931026563644409,0.0019990648627281186,0.17851765215224585,-3.072358988134563,-9.300276348876952,-0.6007116690471835,-1.1170467029043203,0.46724416977558086,0.01666666753590107
499,8328.0,-0.031091879223054272,-0.007860358111560344,0.008110825741291046,0.09801259393002837,-3.1088705634519456,-9.294439897808433,-0.19445387150446308,-2.3547380253263377,1.1064212764333077,0.01666666753590107
500,8345.0,0.04411151066077873,0.044397067870199675,-0.0054740474969148635,0.16624734124448148,-3.0550013183593747,-9.3086560546875,-1.2331195779897517,-3.0948046032662635,0.4428623687901923,0.01666666753590107
501,8361.0,-0.0652356842294801,0.011397884587943554,0.029935119536519048,0.04713581778486259,-3.080439710998535,-9.27588541946411,-2.8819586198123295,-2.9494009748940933,0.21123383202618612,0.01666666753590107
502,8378.0,0.023323829904291778,-0.0038870705664157865,0.0658785395771265,0.12838905489272437,-3.0877719535827635,-9.242665871429443,-3.149341315911288,-3.3647731662963065,-0.08545964706031689,0.01666666753590107
503,8395.0,0.0763640585605055,-0.013832125997543333,0.08367313946485519,0.1737292305656243,-3.0898665877744556,-9.227551888927817,-3.1036001793699475,-3.214908997509295,0.7389149440128381,0.01666666753590107
504,8411.0,0.04628034259984269,-0.04804010054767131,0.061819619575142856,0.13437456817626953,-3.1157541854858395,-9.252242678070068,-2.6009089286275873,-2.0636588416756663,0.9597803166043074,0.01666666753590107
505,8428.0,-0.0252736487978138,0.024498189179599283,-0.017721534651517868,0.05955573889692314,-3.0371944435119627,-9.33379517211914,-2.2328020731686853,-0.7392467417961126,0.4406144628208912,0.01666666753590107
506,8445.0,0.0020606862563174217,0.06322188758850097,-0.03537351119816303,0.08559268195112235,-2.9948464171260594,-9.35264892567098,-0.7014301187958676,-0.05736195636217693,-0.18260025162267784,0.01666666753590107
507,8461.0,0.014771059948625043,-0.005472293931245803,-0.09214987590909003,0.10025718538588843,-3.0636800071164965,-9.409362162017821,0.3185887843891028,1.0875176606882395,0.1974190407181081,0.01666666753590107
508,8477.0,0.04192229352081194,0.029075287836790083,-0.08912263704240321,0.1325789077979978,-3.0347999495908615,-9.40442353657186,2.1771441422827205,1.0974639102236592,-0.23261940778154727,0.01666666753590107
509,8495.0,-0.013599614149611442,0.03350274889022112,-0.07738836010694504,0.08080430603027343,-3.037792701666057,-9.390208548736572,3.7600204187524886,1.4600786532596361,-0.9597672965562021,0.01666666753590107
510,8511.0,-0.029205152161000295,0.03769581666588783,0.0949228477537632,0.06988073355634697,-3.0431799476623533,-9.214683639526367,3.7995509923475836,2.010684534803282,-1.0854355202084436,0.01666666753590107
511,8528.0,-0.0011162815456744284,-0.038049744670093054,0.12135083595216274,0.10534486391372047,-3.1260788878843186,-9.185803582000732,0.8684027908758505,1.8939448625001283,-0.8873498957160245,0.01666666753590107
512,8545.0,-0.0026194161176215855,-0.025267712247371673,0.10441782132983207,0.10818798751831055,-3.1118636077880857,-9.203161544036865,-1.463719997860899,1.2840052343582873,-0.47804824838207166,0.01666666753590107
513,8561.0,-0.017589094777731223,0.004986556240916252,0.07921440649032592,0.09696513070371002,-3.076698770904541,-9.229946675109863,-1.5164245122610678,1.3104053028825617,0.07876269993997227,0.01666666753590107
514,8577.0,-0.0415051458209753,0.04177373362928629,0.08281681489646435,0.07631515965117142,-3.0374934264585374,-9.227103560638428,-0.21054147495992898,1.5612190272721271,-0.15163542893786636,0.01666666753590107
515,8595.0,-0.008746310633234678,0.09286445391923188,-0.003125438544154167,0.11162962500532157,-2.9878134497493503,-9.312546047863364,0.8151742729002949,0.09778685785172052,-0.26461470857695796,0.01666666753590107
516,8611.0,-0.040190903150942175,0.06931932768076658,-0.08817512705922126,0.07841009523696266,-3.013401772253215,-9.39694224090576,0.07770370045350296,-1.4516769869719914,-0.2254534187642932,0.01666666753590107
517,8628.0,-0.0814565411276184,0.07586801867187022,-0.05686579656004905,0.031124621582031248,-3.0060695296689866,-9.36596725692749,-0.934499438608563,-2.170264220797814,-0.5267085437416523,0.01666666753590107
518,8645.0,-0.11775569753702729,0.07911065385490655,-0.01840191813111305,-0.008828618621826172,-3.0015806938171385,-9.32795930557251,0.06983409523003177,-0.8498601613005882,-0.3707636656439046,0.01666666753590107
519,8661.0,-0.07389714785716496,0.04921382050216198,0.08135200304090977,0.03486553427656181,-3.0330045906066894,-9.227702111053466,1.806965818514601,0.7158110820933294,0.18270958801025095,0.01666666753590107
520,8678.0,-0.036877129827300084,0.010846095924079417,0.04389642487168312,0.07422024233168922,-3.0772970290586352,-9.26316622314453,1.970549916353464,0.6367500416248452,0.3194339135771861,0.01666666753590107
521,8695.0,-0.062112574639730155,0.027829087167978286,0.044323710373044015,0.04908111576689407,-3.0635306617736813,-9.261669847106933,1.2839024613556196,-0.2152549057968328,-0.589017264610211,0.01666666753590107
522,8711.0,-0.09871984715024008,0.06372516093552112,0.17648469415307044,0.01047461399687454,-3.028964083044231,-9.129090930175781,0.6846252921166974,-1.5488780493806775,-1.957797526286227,0.01666666753590107
523,8728.0,-0.09010296244979836,0.009260580298304557,0.20371581542789935,0.014814131905371323,-3.0826839827939865,-9.102156161499023,-0.9216521729448863,-2.6179850418828536,-2.118762460021802,0.01666666753590107
524,8745.0,-0.1027992071520537,-0.15133300950080156,0.15701310096383095,-0.0016460319076664746,-3.232620861761272,-9.152434396362304,-5.246706714254144,-0.2969553874927039,-2.4855965524175545,0.01666666753590107
525,8761.0,-0.10256460381173528,-0.09638502926081419,0.02767068173587322,0.0031423805458005516,-3.1636382186889644,-9.286360051727295,-5.942991993057699,2.8465688484015548,-3.5695172647341358,0.01666666753590107
526,8778.0,-0.07301415447755716,-0.08364566693603992,-0.008040683114528656,0.047584739729296416,-3.1383491713926195,-9.326014016723633,-3.7715711224126265,6.3849095012257555,-4.268614660485032,0.01666666753590107
527,8795.0,0.06829646003958768,-0.004109481145441532,-0.15500117661952972,0.21862051169355398,-3.057545157623291,-9.472957559093832,3.4713226232446246,9.37256487155721,-4.769787047910711,0.01666666753590107
528,8811.0,0.11474139121714978,0.05300006104260683,-0.1525046836286783,0.28999763955380764,-3.0156466285705563,-9.465027350616454,7.075308010738406,9.424406007357607,-5.203740128619709,0.01666666753590107
529,8828.0,0.10972960920343175,0.0871869928047061,-0.12834347131848334,0.3100490967239253,-2.9996354049682616,-9.434351641845703,6.473471014664611,8.122205682658935,-5.354619007385291,0.01666666753590107
530,8845.0,0.1020953149327077,0.02717792978286743,-0.13091302954554557,0.3259106644561514,-3.0774469589233395,-9.430461064147948,4.225198136139023,4.910905159465521,-3.7300260698992007,0.01666666753590107
531,8861.0,0.0913425598478876,0.042000528122484684,0.011675824746489524,0.32546176991118114,-3.0713115249082446,-9.284714038085937,3.029916952377496,3.5575646471300253,-1.8163050349875354,0.01666666753590107
532,8878.0,0.10889982558209449,0.09701017542183399,0.09027531420886516,0.3514986764327623,-3.022230390875041,-9.203909147533773,2.5867177165230046,2.7957927952248567,-0.6773117603412006,0.01666666753590107
533,8895.0,0.05812865610271692,0.10202040479928254,0.250757552587986,0.30795415200497955,-3.0222300986140964,-9.041552347454427,1.351996352451179,0.936287667510637,0.7078778173723597,0.01666666753590107
534,8911.0,0.11745141736082731,0.044910862611234184,0.28158056087493893,0.3667617302825674,-3.0789430426999926,-9.010876638683676,-0.41500648279692665,-1.054015155922504,2.1289168168834953,0.01666666753590107
535,8928.0,0.1092834546048194,0.015492168164253233,0.2830243299424648,0.3526957955291494,-3.1040821601316333,-9.011026860809325,-2.711027159417237,-2.321990043020477,3.4482220696979953,0.01666666753590107
536,8944.0,0.08685776085034012,0.04279372432678938,0.18718378282189368,0.31738132104184474,-3.063231386566162,-9.111732968139648,-5.442976042035869,-3.370083211489168,4.089656874041529,0.01666666753590107
537,8961.0,0.027693405024334785,0.06261661517173052,0.1179758065611124,0.24794947289731353,-3.030460751342773,-9.185504306793213,-4.886564072810889,-3.291836564357502,4.33729349324998,0.01666666753590107
538,8978.0,0.0702220852067694,0.07623012998253106,0.07959259215295314,0.2802711953094229,-3.0069670630306002,-9.227402251324056,-3.400791528554134,-2.5375663945951237,4.514454086168125,0.01666666753590107
539,8994.0,0.08739840706568211,0.0662727995917201,0.0066869304180145256,0.29044655236508693,-3.0107082953855393,-9.30252032841146,-2.5950187442420973,-1.3133308650031486,3.9709763607970334,0.01666666753590107
540,9011.0,0.08920881748851388,0.02550269004702568,-0.07113046875596046,0.28790273136748,-3.0445266860961913,-9.382726668548584,-2.1632086353851907,0.5475013471224637,3.7373416293871076,0.01666666753590107
541,9028.0,0.07880255602011457,0.04061287315636873,-0.02888940987586975,0.27727846150053664,-3.0261212608337402,-9.341576327514648,-0.7030646684416163,0.9737557374197997,3.431692798463153,0.01666666753590107
542,9044.0,0.05473397216312587,0.050047056455910205,-0.07722118684649466,0.2530371696914546,-3.01669379953593,-9.389909273529053,0.3277221880524379,0.5731312050961134,2.9207274138715564,0.01666666753590107
543,9061.0,0.03465953597621992,0.024581483548879624,-0.045699674901366234,0.23119007954252882,-3.0424317596435544,-9.358335739135741,-0.5462142299898864,-0.5175593452658616,2.151443421096432,0.01666666753590107
544,9078.0,0.0463013123226352,0.0007125321835279464,-0.08192424997091292,0.2395697853530757,-3.0647277626037597,-9.395146589660644,-0.19988807406178835,-1.1575308349405726,2.4134627111496383,0.01666666753590107
545,9095.0,-0.01777812367696315,0.010514087490737437,-0.05052607214450836,0.17073646935727446,-3.0553003013059494,-9.363722692871093,0.764407451151147,-2.038547864635526,2.7624567763201404,0.01666666753590107
546,9111.0,-0.061628298254124816,0.004019757035374641,0.08131225555241108,0.11821367043759673,-3.065924571172893,-9.230694863128662,2.0148281117519526,-2.378266959799974,2.4695298130555687,0.01666666753590107
547,9128.0,-0.13197748043928295,0.006758242088556289,0.13947919783890247,0.03965392846371978,-3.068318772833049,-9.170989459228515,2.012890259018373,-3.3197950899513033,2.305314563048714,0.01666666753590107
548,9145.0,-0.13737844443367794,-0.058551849950850006,0.19518997914493083,0.024989461561571804,-3.1358053321287036,-9.114725720214842,-0.1241097799229282,-3.468306454395829,2.553754369814877,0.01666666753590107
549,9161.0,-0.1042396243518684,-0.06295505334585905,0.14043372208476065,0.0457890793510247,-3.1344583014339205,-9.171587425121665,-2.832562905178209,-3.291947981818338,2.057960969803995,0.01666666753590107
550,9178.0,-0.12077810496496967,-0.057684711727499956,0.1459656372487545,0.020350686711864546,-3.1209912093564864,-9.168894532775878,-3.4262516990155913,-2.94664179191282,1.3044819280465738,0.01666666753590107
551,9195.0,-0.05910666168886237,-0.03766132987439632,0.1798147153586149,0.07466913687665946,-3.0934581825256346,-9.137620273590088,-2.883743220176407,-2.6534924206133996,0.5211824938162889,0.01666666753590107
552,9211.0,-0.033828181452304124,-0.05035802210122346,0.1411760648846626,0.09172783283842727,-3.099293464550376,-9.178620392498374,-1.964263367552702,-1.5569525069183963,0.2973183480140666,0.01666666753590107
553,9228.0,0.013509862640080974,-0.033868659593164915,0.11692249811589717,0.13377598122861237,-3.0793919555112717,-9.204059369659424,-1.6757196781879862,-2.0389928941486346,-0.03512488813702526,0.01666666753590107
554,9245.0,-0.0273027891383972,0.004086977052688599,0.1274088208168745,0.08783725514067336,-3.0383915443420406,-9.194632200622559,-2.4719410832759947,-1.3037049940284848,-0.6334419889107376,0.01666666753590107
555,9261.0,-0.014497010513907298,-0.004637888933718204,0.09972001890242099,0.09801263046264648,-3.0398879203796385,-9.224709358978272,-3.6714981789013614,-0.7775082875877604,-0.8246547355508312,0.01666666753590107
556,9278.0,0.02266819727346301,-0.04351765468716621,-0.04184884469211101,0.13153144457167945,-3.0674209472104907,-9.370007472229004,-3.6520257364644784,-1.5038520549897785,-0.3439345491819623,0.01666666753590107
557,9295.0,-0.00838872936721891,0.016124036327004432,-0.22314532304108142,0.09561842880249023,-3.0012811263486743,-9.553463174438477,-2.8360599620332554,-2.4413166494717733,-0.8636721911845291,0.01666666753590107
558,9311.0,-0.048666945475433016,0.05456073448807001,-0.23675123906731604,0.05027823486328125,-2.9578868057802317,-9.568726210021971,-1.6913761793129478,-2.696016111168841,-1.9865052382546138,0.01666666753590107
559,9328.0,-0.04761298857624642,-0.02478752751499414,-0.25334815360307694,0.04429272157973609,-3.035099224798381,-9.586084172058104,-0.0636305759163677,-2.869244009228939,-2.1320254067294973,0.01666666753590107
560,9344.0,-0.10579924748456104,-0.1148845625475049,-0.1735235062599182,-0.017956503318017347,-3.1274259185791013,-9.505579141235351,1.4007548317800786,-1.8834169796681999,-1.6289101506500674,0.01666666753590107
561,9361.0,-0.11599718169821426,-0.09595482115000485,-0.08518997376859187,-0.02947862620698288,-3.1144074470520016,-9.415347666168213,3.1517681675007583,-0.4113864024955406,-1.585217750694613,0.01666666753590107
562,9378.0,-0.1144635149906855,-0.06576718815714121,0.024684359401464462,-0.024690241152979433,-3.096001437267661,-9.3016225027889,4.227924235391505,0.7771078677476684,-2.12510172934522,0.01666666753590107
563,9395.0,-0.027897065237117928,-0.12486761190146208,0.11075929931104182,0.06479308242797852,-3.1631893058776854,-9.21288740375936,3.715702309436038,0.9831142705214808,-1.2702610794792233,0.01666666753590107
564,9411.0,0.020001087822904808,-0.13304536539912223,0.1312169809281826,0.11537058336562477,-3.1787513244077563,-9.189993434906006,2.739109482189744,0.7740842283794683,-1.3618443112955738,0.01666666753590107
565,9428.0,0.0770609091177117,-0.1029962640941143,0.14006722685992717,0.17447741858442312,-3.1540611197873947,-9.179369165039063,0.5703329619705237,0.1837626110811965,-0.9890160875729007,0.01666666753590107
566,9444.0,0.08828907229509204,-0.03326572526395321,0.05519464847743511,0.18375497741699218,-3.084479341778159,-9.26421310184896,-0.7202540134267169,-0.714133416878445,-0.9451526127230788,0.01666666753590107
567,9461.0,0.06709052744908257,-0.01686433330029249,0.04469546629488468,0.15981296081542967,-3.0645781249999997,-9.27588541946411,-2.2351644648478635,-1.4682406225960956,-0.7263767977699573,0.01666666753590107
568,9478.0,-0.009315488823316991,0.020403905603289602,-0.0031049802780151363,0.07990646214140579,-3.0202851020261643,-9.326014016723633,-2.4810233138814075,-1.175557304985823,-0.7117472262588777,0.01666666753590107
569,9495.0,0.014014186299871653,0.10987374864816665,-0.08918225827515125,0.10055646059340796,-2.9287068885251877,-9.412803826904296,-0.9494854072560999,-2.1526611157593982,-0.9054216157645262,0.01666666753590107
