,ms,accelX,accelY,accelZ,accelWithGX,accelWithGY,accelWithGZ,rotRateAlpha,rotRateBeta,rotRateGamma,interval
0,1.0,-0.006262129134684801,-0.03526011395156383,-0.014737550404667853,-0.5392938508849591,-2.3283606761105355,-9.534608836364745,-2.1131538074961638,-0.8379780867439989,0.5813256178311305,0.01666666753590107
1,27.0,-0.015732516258768738,0.09796294610202312,-0.07356324886083603,-0.5969043283324689,-2.4072198394224045,-9.537002453503012,2.994417897940001,0.5640012698882162,-1.742240491340327,0.01666666753590107
2,41.0,-0.019527597692795096,0.08132774538248777,0.03698620709180832,-0.5995978417327628,-2.433256782476604,-9.42402664718628,3.6384281104874523,0.05189823191298985,-1.9188712109892667,0.01666666753590107
3,59.0,-0.06034666094575077,0.08289163369834422,0.10164426496326923,-0.6388028573852033,-2.4404396797180175,-9.357138638305663,2.7090084116306747,0.8038968301678104,-1.6696705851825877,0.01666666753590107
4,74.0,-0.07675448265019803,0.07522942850738763,0.1600426779180765,-0.6528687921386211,-2.452410395757854,-9.297732509613036,0.671681763474406,1.2349479342531995,-1.104574777479877,0.01666666753590107
5,91.0,-0.058136656746082004,0.09425766184329987,0.11126315717995167,-0.6295252894194796,-2.429964755193889,-9.347711469268798,-1.2312112871686736,1.9080741760153574,-0.13617582936007142,0.01666666753590107
6,108.0,-0.02272018318902701,0.12380144397467374,0.08958850098848342,-0.5891232094695791,-2.3958473815366625,-9.370905297851563,-0.8459115649083803,1.951622821833124,0.1790097332337932,0.01666666753590107
7,124.0,0.030099808578938243,0.1229208617478609,0.06428980908095837,-0.5328594339232892,-2.393602817480266,-9.39724093159139,-0.1484527342074123,1.190429401573291,-0.0034167220910195427,0.01666666753590107
8,141.0,0.059194349105469876,0.08225128996819257,0.06285656140744686,-0.5047275644164532,-2.433256490215659,-9.398887529754639,-0.12820989445691924,-0.42227697904456724,0.22133313382790945,0.01666666753590107
9,158.0,0.08717669060640036,0.0776230456456542,0.046778117787837976,-0.48063594674374904,-2.4366981551021336,-9.415048390960694,-0.6205469119228708,-1.4621036976268391,0.3162633717809779,0.01666666753590107
10,174.0,0.08281235791705548,0.061657122489809986,0.06163315709233284,-0.49036239098813383,-2.450165831701457,-9.400533543395996,-0.6038207391408617,-1.1330568797622418,0.6822064446551609,0.01666666753590107
11,191.0,0.05447196022607386,0.04086830922216177,0.04976502464413642,-0.521486976037547,-2.4676734313413498,-9.413103102111815,-0.32402091921337856,-0.3336983901327875,0.48080465659899496,0.01666666753590107
12,208.0,0.05662157600801438,-0.005763678093254566,0.020012275937199592,-0.5202898752074688,-2.5128636954158545,-9.44317967594564,-0.07608086351496379,-0.48405849468656553,0.4588625138077703,0.01666666753590107
13,224.0,0.04879102851282805,0.000509995348751545,0.05608604435920715,-0.5295674066405743,-2.505083124542236,-9.407416873168945,0.026585417446790372,-1.2478130224417416,0.6441066356086249,0.01666666753590107
14,241.0,0.01760185379460454,-0.02494593294709921,0.049835751792788506,-0.5644329683165997,-2.528426298467815,-9.414000927734374,-1.0898819733581218,-1.9090771466062915,0.7588140598294355,0.01666666753590107
15,258.0,0.014119235843233763,-0.05255816249400377,0.035790859827399255,-0.5713162615569308,-2.5517697646543382,-9.428964103588461,-1.7701934674054274,-0.9887325280006394,0.7474804281188572,0.01666666753590107
16,274.0,0.012555493657849729,-0.0012897475495934486,0.029084055665135382,-0.5731119493346661,-2.4958053008481857,-9.436895481109618,-1.579152862876759,-0.03964754058463152,0.6102338598846805,0.01666666753590107
17,291.0,0.03550685525424778,0.003424421490728855,-0.037998014482855794,-0.5482721801757812,-2.4877248702451586,-9.504980590820312,-0.7766457627616348,0.38483206774555906,0.20006603250617894,0.01666666753590107
18,308.0,0.034847514562681314,0.015051146398484707,-0.047993338796496386,-0.5481225060394034,-2.4756042243406173,-9.515155947875977,0.08016577020588099,-0.03158034012290599,0.17533154296360912,0.01666666753590107
19,325.0,0.00045680385679006574,-0.010500351226329804,-0.06442950981259346,-0.5820902420928702,-2.503436818639934,-9.531017533874511,0.8840664957159524,-0.16636067645817917,0.11060381455095523,0.01666666753590107
20,341.0,0.019796879620850086,0.0019081717088818549,-0.02251461414694786,-0.5635351426940411,-2.4947578376218673,-9.488071541595458,1.653955600562858,-0.17970804003514768,0.08456861419853434,0.01666666753590107
21,358.0,-0.03567636660225689,-0.01650719042569399,0.04292085783779621,-0.6189010195525363,-2.5186995619624852,-9.421182948192953,1.36763567138151,-0.059726055588647596,0.24282827275446847,0.01666666753590107
22,374.0,0.023884952652081844,0.011706219884753226,0.05193944607377052,-0.5591956521850079,-2.492064360754192,-9.411756363677977,0.2940139771988085,-0.4199565823566141,-0.17036989077927087,0.01666666753590107
23,391.0,0.02369217002633959,0.016128420241177083,0.06261632291078567,-0.5602431154113262,-2.486677699279785,-9.401281731414795,-0.5360946644042779,-0.5962566248001898,0.30362912264204106,0.01666666753590107
24,408.0,-0.014363858254067599,0.028184768737852573,0.10111702621877193,-0.6001963556151837,-2.4723124893188477,-9.363273780059814,-0.5256064820469002,-0.35076836688997165,0.33944348635926735,0.01666666753590107
25,424.0,-0.07061459165569395,0.019316694888472555,0.10757833118736743,-0.6564600946288556,-2.4799437148496506,-9.357138638305663,-0.35286915698785304,0.22227153778684572,0.6028899124230358,0.01666666753590107
26,441.0,-0.060082530116848644,0.026404315061867235,0.10104162289500236,-0.6458358612945303,-2.471564009039104,-9.364021968078612,-0.7941933725130438,0.5619713163225473,0.9131397295266407,0.01666666753590107
27,458.0,-0.0508632316770032,-0.0004652794241905212,0.08956687367856501,-0.6361093439849094,-2.4961045760557052,-9.376142613983154,-0.6706829550299974,0.13232296233794952,0.6077684817594232,0.01666666753590107
28,474.0,0.005725391909480094,0.010388123023509978,0.07133738950490952,-0.5802945908477529,-2.4838342925474044,-9.394697676849365,-0.6547917728740222,-0.8122835020557927,0.16234532563900503,0.01666666753590107
29,490.0,0.03156352445594966,0.01532411812096834,0.033869536375999446,-0.5576992396147922,-2.4766516875669358,-9.432555990600585,-1.22566880210062,-1.5569734243727296,0.1378092050670565,0.01666666753590107
30,508.0,0.024158837690018115,0.03895020064115524,-0.05543196436464786,-0.5728126741271465,-2.4482205428525803,-9.522637828063964,-1.3093458765092691,-1.9138582790253005,0.861291656815368,0.01666666753590107
31,524.0,0.03587883037179708,0.07786737579554319,-0.013580781584978103,-0.5663782571654766,-2.407070201818645,-9.481038574218749,-0.515320217156861,-1.0301705386431663,0.8617656612715964,0.01666666753590107
32,541.0,0.005950652032718062,0.0536222845941782,0.046453708139061925,-0.5986999430449679,-2.431760406439006,-9.420734619903564,0.682124375663415,-0.4939404977551046,0.13569814300499364,0.01666666753590107
33,558.0,0.015176635941676795,-0.049014206276834005,0.1048778400570154,-0.5913677004607394,-2.5371049872249363,-9.361478128814698,0.06903995233688556,-0.717766970795186,-0.047380435302996654,0.01666666753590107
34,574.0,-0.039861287604086096,-0.0852305980399251,0.13188918110132217,-0.6471825266631319,-2.572270116369426,-9.3346929977417,-0.9540879942613365,-0.45271240870784984,0.6192848210302994,0.01666666753590107
35,590.0,-0.04228135435786098,-0.08878244530260562,0.09701017542183399,-0.6504745904784649,-2.5716712736934424,-9.370605438122153,-1.6707322527117017,-0.1089471735121098,1.2869789279681816,0.01666666753590107
36,608.0,0.0032721170058473944,-0.07099690550416708,0.02069733559191227,-0.6052840706756338,-2.5457842605039476,-9.44901612701416,-1.9646605857416206,-0.43775968387166386,1.0172741809948302,0.01666666753590107
37,624.0,0.037357086230814456,-0.04817015666812658,-0.018648001846671102,-0.5732616234710439,-2.5184005790159105,-9.489418280029296,-1.5581008324726047,-0.9238232126055984,0.5612361104914189,0.01666666753590107
38,641.0,0.051446986381709574,-0.026872224834561347,-0.052371992272138596,-0.5620387666564435,-2.4943089248105883,-9.523685291290283,-1.3371626756777923,-1.1493512565226593,0.3760545809710051,0.01666666753590107
39,658.0,0.03973477514758706,0.009051613722741603,-0.02941138792335987,-0.5767031787596643,-2.4585452452510594,-9.500491462707519,-0.39129222608120107,-0.5079790444595667,0.293056630137096,0.01666666753590107
40,674.0,0.04626308093778789,0.05626549257934093,0.10821896717846392,-0.5698199220519513,-2.4150012870788573,-9.361927041625975,1.3232819170153283,1.1458651920033083,-0.026048633947136128,0.01666666753590107
41,691.0,0.0653081192780286,0.04622457555830478,0.1715764638453722,-0.5473742814879864,-2.4296651877254245,-9.297582872009277,1.4714599895726987,1.393286446809493,-0.4655475080970674,0.01666666753590107
42,708.0,0.06225154471900314,-0.060008186239004134,0.23554420136511325,-0.5466260934691876,-2.5377035376399752,-9.233387755474448,-0.9370681233450168,0.9144488846914617,-0.24339032261796648,0.01666666753590107
43,725.0,0.039936216003820295,-0.1125210482865572,0.18235154035985468,-0.5660789819579571,-2.57915373840332,-9.28965207901001,-5.373547596009512,0.1306364392214853,0.8627400838062339,0.01666666753590107
44,741.0,0.038541035318374633,-0.1188351998694241,0.1302928518205881,-0.5690717705657705,-2.5700255523130298,-9.345616542816161,-6.480644847727239,-1.3346634667718025,0.9019657534879113,0.01666666753590107
45,758.0,0.019288528239913283,-0.028717706570774316,0.05421382074654102,-0.5933130258422344,-2.4649798083432017,-9.425223163494467,-4.79704334468047,-2.660407773704626,0.9533426498681589,0.01666666753590107
46,774.0,0.028818755792453882,0.04943535429835319,0.06114975748956203,-0.5933130258422344,-2.379536882726848,-9.419537519073486,-0.6455626932014541,-2.9915157078729804,0.6570037936697544,0.01666666753590107
47,791.0,0.01239895138926804,0.06703662357106804,0.10476853446364402,-0.6154593911986798,-2.363675296728313,-9.375095150756835,0.29981078009173945,-1.9626004299332154,0.9014953242088267,0.01666666753590107
48,808.0,0.000310527253895998,0.020512772805243728,0.17668050898611545,-0.6308721374511719,-2.414252952929586,-9.30192236251831,0.024665307196796982,-1.1966629096862798,1.0673709505142293,0.01666666753590107
49,824.0,0.006090352764353156,0.007865618808567523,0.3279717251718044,-0.6275800371032207,-2.426223961230367,-9.150638745117186,-2.029859223681035,-0.3110327808980704,0.7736682805311852,0.01666666753590107
50,841.0,0.0015904840618371963,-0.035394407855719325,0.32520927472114564,-0.6328173532348126,-2.4613886519834396,-9.1554271484375,-4.780572343496985,0.0511782872857882,0.323629810842116,0.01666666753590107
51,858.0,0.01765504528656602,-0.020527531982958317,0.3452455160558224,-0.6145615655761212,-2.4313116397581993,-9.139415924835205,-7.3998679279268345,1.4434675264764594,0.13067260453953197,0.01666666753590107
52,874.0,0.004079816659539937,-0.046288872966170305,0.2860679354220629,-0.622941271386668,-2.4350525798521936,-9.204508282470703,-9.932628430667208,2.661500177085005,0.7317010369496881,0.01666666753590107
53,891.0,0.08092617884427308,-0.04998465874418616,0.19858254419267177,-0.53869530046992,-2.4033294078551233,-9.301323812103272,-10.945886140264953,2.166412634436161,1.2414612666787472,0.01666666753590107
54,908.0,0.10232515989951789,-0.09153831988200545,0.004412555745244026,-0.5153518342833966,-2.4196399066649374,-9.501838201141357,-10.217996295511279,0.09997241166441882,1.8747099825803144,0.01666666753590107
55,924.0,0.06733969817087054,-0.1583738679230213,-0.10071838229000568,-0.5550058723449707,-2.4640821288511154,-9.612121115112304,-8.596178976149153,-2.5474577891737713,2.248769561344294,0.01666666753590107
56,941.0,0.00143280928209424,-0.21742212308868764,-0.2318652205914259,-0.6362590181212872,-2.50119240071401,-9.747543146514891,-6.233979822928222,-5.060435929643672,2.5073270127053613,0.01666666753590107
57,958.0,-0.06999006654918194,-0.19516236048564314,-0.25990005946457384,-0.7217020898681134,-2.4708159671507772,-9.776572841644287,-2.780146752827062,-4.609675034047742,3.252230431794714,0.01666666753590107
58,974.0,-0.055987844681739805,-0.17640388400182128,-0.253213713568449,-0.7200560762267559,-2.451811991473287,-9.769090961456298,2.394322173217735,-3.7481794320526256,4.403154872982298,0.01666666753590107
59,991.0,-0.006695405985414981,-0.12029168228805065,-0.17208382884562015,-0.6830955880980938,-2.4144025905333457,-9.682600426483154,7.395308776655851,-4.225867921564507,2.68623762815491,0.01666666753590107
60,1008.0,-0.044378436234965915,-0.1967581052444875,-0.09128595255613327,-0.73023143328242,-2.515856885882467,-9.595062428283692,10.71742485026449,-3.5172705864517697,2.346818847870531,0.01666666753590107
61,1024.0,-0.02278079080246389,-0.22495397989824412,-0.08979951339066028,-0.7173626724243164,-2.57137243687734,-9.586233809661865,9.457825269192833,-3.460708936161248,0.5711582942821847,0.01666666753590107
62,1041.0,-0.022267799779027698,-0.2528714760020375,-0.37469022172689437,-0.7290342593871056,-2.621501034136861,-9.864709390258788,3.689393701413618,-3.2288677697386854,-0.17786079402977656,0.01666666753590107
63,1058.0,0.006954129986837506,-0.10716142094954847,-0.2868377507507801,-0.7052419534545391,-2.4800934985838827,-9.775375740814209,-0.18744811178822662,-1.247024242314311,-0.6751036882485824,0.01666666753590107
64,1074.0,-0.021124986419454216,-0.06284297127351164,-0.32268998537659643,-0.7329248370848596,-2.433855479022115,-9.811737678527832,-1.1120544749512757,0.6640170105651823,-1.2257629306451192,0.01666666753590107
65,1091.0,0.03893142287544906,0.024323563265055418,-0.2748527139246464,-0.6687303781371563,-2.3475145816527307,-9.764003282928467,1.733034356834502,0.5395378801587577,-2.6581401509001816,0.01666666753590107
66,1108.0,-0.0038050183061510323,0.0685924747109413,-0.15256898103654384,-0.7095814439635724,-2.312649019976705,-9.639504796600342,4.3270383910980295,-0.5546785952796777,-3.819870805128372,0.01666666753590107
67,1125.0,-0.04860562547594308,0.10103037084862589,-0.11496727239489554,-0.7531259866576642,-2.2928967101499436,-9.598803368377684,4.7156458459073125,-0.31921102529466155,-3.9926075698984635,0.01666666753590107
68,1141.0,-0.11358356295153497,0.1277627488210797,-0.02210194169282913,-0.8143276935301721,-2.2822725864134727,-9.502137476348876,4.04527900056984,0.445450103351128,-3.2753083603397175,0.01666666753590107
69,1158.0,-0.09074914226569235,0.18749431007578968,0.006512158372998237,-0.7893382867675274,-2.2318445678159593,-9.471312129974365,3.4359789556107474,-0.387148675812957,-3.2274511458161426,0.01666666753590107
70,1174.0,-0.09197393482029438,0.2091810950964689,0.047563130685687065,-0.7897872726440429,-2.2183773296080527,-9.428216500091553,3.3077745973423154,-0.9198024723402823,-3.025897812937767,0.01666666753590107
71,1191.0,-0.08274842583537101,0.2875641653291881,0.0884480987817049,-0.7806592326842248,-2.1462517123349008,-9.38571942062378,3.3431285102599477,-0.9228044472022087,-3.1655309986783338,0.01666666753590107
72,1208.0,-0.09828085294477641,0.3140748633749783,0.15075988578796387,-0.7969698045592755,-2.127996070806682,-9.32122561340332,3.529778583812767,0.3504514567846536,-2.8440175593031434,0.01666666753590107
73,1225.0,-0.09152399909570813,0.33928251599818465,0.19895254654884337,-0.7879915483336896,-2.110338979693502,-9.271246653747559,3.62503581707235,1.1200225309483303,-3.0869445496354597,0.01666666753590107
74,1241.0,-0.04466032191626727,0.297884337683022,0.25244097563028334,-0.7390601249694824,-2.155529389898479,-9.216928203582762,2.9093867385283967,0.8004789608184537,-3.1769796763877447,0.01666666753590107
75,1258.0,-0.05010886964574456,0.29483459472358226,0.2477197923272848,-0.7422024415832013,-2.1589710547849537,-9.221716606903076,-0.26846426722620065,0.16744251438968571,-2.3772797840214954,0.01666666753590107
76,1275.0,-0.04428016349226236,0.2690092485934496,0.22869769647121427,-0.7354686763487756,-2.1799203193113206,-9.242067321014403,-2.4355479143874628,0.4762346197140217,-1.4954285107524485,0.01666666753590107
77,1291.0,-0.04251432286351919,0.2791376977674663,0.2350327447116375,-0.7327751994810998,-2.1594199675962327,-9.23847543400228,-3.2917808556270844,0.8122870772329365,-0.8651311302634144,0.01666666753590107
78,1308.0,-0.08663988031595944,0.25403905847668645,0.27660160341858864,-0.7725788751464336,-2.1730369895383714,-9.20016879196167,-2.255790142037421,1.6948997031510282,-0.5247794421879469,0.01666666753590107
79,1324.0,-0.022746669337153434,0.2644482242882252,0.25486674147248267,-0.7052419534545391,-2.1567263445980847,-9.223661311230062,-2.1125610751422537,0.8994009107328658,-0.2445448380311102,0.01666666753590107
80,1341.0,0.042847573405876756,0.2079752264380455,0.27590602236986156,-0.6391021325927227,-2.2059572623655197,-9.204508282470703,-2.8030048346581555,-0.15302910769366632,0.881328710436688,0.01666666753590107
81,1358.0,0.058915934022888534,0.097634006408602,0.23081249666810033,-0.6289267755370587,-2.3006778655454516,-9.253139919170737,-5.913077472040336,-2.779480595939574,1.264511874467071,0.01666666753590107
82,1374.0,0.07689918835051357,0.07992386993393301,0.1932785925656557,-0.6199485193114728,-2.3008276492796838,-9.294440482330321,-7.356635391801593,-3.606842754444375,1.3363960936651642,0.01666666753590107
83,1391.0,0.10960757199265062,0.1075112573005259,0.07417933493256569,-0.5979517915587872,-2.2526441947385667,-9.417891505432129,-7.998497296411664,-3.392906288600766,1.6696049513335323,0.01666666753590107
84,1408.0,0.11276793571971357,0.1358649528644979,0.006326280412077903,-0.60498468587026,-2.1990739325925706,-9.491213931274414,-5.789226078707318,-2.050298991659121,2.374135335682351,0.01666666753590107
85,1425.0,0.09443908282481134,0.09822145090773701,0.02544482237994671,-0.6287770648680627,-2.2254101508542896,-9.47445393513143,-2.9565530367287427,-1.4800788345316085,1.9122860548557281,0.01666666753590107
86,1441.0,0.10854936817660928,-0.003765197752416134,0.1168605387955904,-0.6177040283203125,-2.322824377032369,-9.383923769378661,-1.0738965559359417,-0.9552166830216811,1.0241960441101092,0.01666666753590107
87,1458.0,0.10853563191220164,-0.019448066183179617,0.16918109314143656,-0.6186017808776348,-2.3359924861632284,-9.332149158477783,-1.4841595523955737,0.24146906510963595,0.639796679520641,0.01666666753590107
88,1474.0,0.09619659401662647,-0.16317615363821386,0.14341361467838287,-0.6284778627257793,-2.4670748809263108,-9.361178853607177,-6.2224312537022,0.48059622910760375,0.5985798496133462,0.01666666753590107
89,1490.0,0.09847973651774226,-0.1287055826291442,0.013207856619358062,-0.622941271386668,-2.4120083888731894,-9.496600885009766,-8.553882175940203,0.814809444749081,0.8327411992804503,0.01666666753590107
90,1508.0,0.11086707053445279,-0.10701149108484387,-0.06297054317593574,-0.6073789605956524,-2.367566020556539,-9.578452654266357,-8.497885723803499,1.1312859397765045,0.7674415492465136,0.01666666753590107
91,1524.0,0.05998465923294425,-0.07146320784166454,-0.19030396066904068,-0.6525695169311017,-2.308459167071432,-9.711779759216308,-6.442350111485093,0.8077874766737789,0.1621570418695801,0.01666666753590107
92,1541.0,0.03277560365945101,-0.042213878612220285,-0.25413199745714665,-0.6772596484862268,-2.270151940508932,-9.777919580078125,-4.506559241261236,-0.48001598319327005,-0.09502140497023227,0.01666666753590107
93,1558.0,-0.02488667704053223,-0.035100101084262134,-0.27155484142303465,-0.7369651254516094,-2.258180786077678,-9.796324420818685,-1.8621349639880864,-1.626210411658914,0.186228602856262,0.01666666753590107
94,1574.0,-0.04097666496746242,0.024153905786573886,-0.03158522483110428,-0.7558195365905761,-2.204011973516643,-9.554959550476074,0.8938917228370158,-1.7551318330684915,-0.3441573307427811,0.01666666753590107
95,1591.0,-0.1538885392025113,-0.04884820206016302,0.050124505606293675,-0.8696936799865216,-2.2824222240172327,-9.471910680389403,1.5360143485743107,-0.9979802839717193,-0.07293812272311168,0.01666666753590107
96,1608.0,-0.13018719948902727,-0.0636217005610466,0.11380232026875019,-0.8462005761962383,-2.299331273242086,-9.407716148376464,-0.1850188723005896,-0.2982418109341935,-0.4225940225520175,0.01666666753590107
97,1624.0,-0.18986352342516183,-0.10421367705985903,0.08718260889053345,-0.904559241662547,-2.333897267449647,-9.43584743336141,-3.1007855011016674,0.20244616666894324,0.24692686650415216,0.01666666753590107
98,1641.0,-0.14031206846646962,-0.04893427290841937,0.06269932501912116,-0.8554780345641076,-2.269253822625428,-9.462483511352538,-3.5806690426580627,-0.1583696752943816,0.307216786225296,0.01666666753590107
99,1658.0,-0.13986037917621433,-0.038061142846941946,0.05065349791646003,-0.8556276721678674,-2.249501951190084,-9.476549446105956,-3.0836139786414325,0.2406018445284559,0.2310449157757271,0.01666666753590107
100,1674.0,-0.10161986117437481,0.008737287076562643,0.014358780220150946,-0.817769504547119,-2.1951835010252894,-9.514557397460937,-2.154148176007757,1.2157951233251318,-0.5132060601653305,0.01666666753590107
101,1691.0,-0.053029579398036,0.01865545450076461,0.026841245174407957,-0.7688379350524396,-2.1838108970090744,-9.502436751556395,-1.7020635043733137,1.7459592091782816,-0.676659157110347,0.01666666753590107
102,1708.0,-0.038065599826350806,0.007089666000008582,0.0005576338827610015,-0.7517793212890624,-2.19323806604594,-9.529371520233154,-1.60752450819364,1.5934766233399222,-0.6907385248672705,0.01666666753590107
103,1724.0,0.016030658955127,0.006183510940521955,0.041518589824438096,-0.6968622476439923,-2.192639661761373,-9.488819729614256,-1.9643440491622728,1.8873191521183927,-0.8192973059206025,0.01666666753590107
104,1741.0,0.03657112348489463,-0.008456716569513082,0.007073883908987045,-0.6742669694762676,-2.200271179553121,-9.525032029724121,-2.714178011058728,1.1521706305459936,-0.7966721975732295,0.01666666753590107
105,1758.0,0.03866911867745221,0.004090045792609453,0.015987842726707457,-0.6703764648437499,-2.1814168414793906,-9.517699787139891,-2.2608088369734993,1.0721839927232668,-0.8946336521356084,0.01666666753590107
106,1775.0,0.05454407561421394,0.04105740205347538,0.008778349739313126,-0.6525694438658655,-2.139966932976991,-9.526078908428548,-1.7232263119080693,1.2444253553351212,-1.1336014806268446,0.01666666753590107
107,1791.0,0.07829561114497482,0.05654737826064229,0.04608370578289032,-0.6251857623778283,-2.1202149154111742,-9.490016245922446,-1.378485640321487,1.064745809995417,-1.1465840694134521,0.01666666753590107
108,1808.0,0.06488719045221805,0.060345309238880866,0.0776554866105318,-0.6355108301024883,-2.1134815155029294,-9.459341121673583,-1.5676586149989797,0.7867051373051825,-0.9012970352794848,0.01666666753590107
109,1824.0,0.047628158745914695,0.0404344478495419,0.04922200380861759,-0.650624301147461,-2.129492592974752,-9.488819729614256,-2.0943953332709584,0.27935964625198745,-0.769468407882715,0.01666666753590107
110,1841.0,0.040960590615496034,0.05875760165601968,0.04341185622513294,-0.6554125583373009,-2.1037547789976,-9.496451247406005,-2.420161846064951,0.22944771872700193,-0.8067968858007155,0.01666666753590107
111,1858.0,0.03255151257999241,0.08487111707776784,0.04246200815439224,-0.6616973376952111,-2.071283565112203,-9.498995086669922,-2.4954181510006213,0.8139356074221424,-0.72253785793044,0.01666666753590107
112,1874.0,0.01396590844504535,0.06132701375260949,0.028005612778663633,-0.6757633455138653,-2.089389715167135,-9.515006310272216,-1.4969706394009905,1.2803648502523761,-0.40548933456002795,0.01666666753590107
113,1891.0,0.014102028980106115,0.04019654744043946,0.03485036410689354,-0.6699274059019983,-2.107196590014547,-9.509320081329346,-0.7654067932040846,1.1380054585376218,-0.16747783927429938,0.01666666753590107
114,1908.0,-0.024383915150165556,0.0012292495340108871,0.04946341134905815,-0.7061397790770977,-2.144456061089784,-9.495253562054037,-0.9060815827930787,0.29530643041667476,0.007520225039169156,0.01666666753590107
115,1925.0,-0.014054098185151815,-0.027733956230431792,0.0827490103572607,-0.6959643489561974,-2.169744816125184,-9.462782202038168,-1.8094116665677,-0.35310333109076397,0.4113983553265881,0.01666666753590107
116,1941.0,-0.007295271574705838,-0.03152253485843539,0.07770107931792736,-0.6913257293701172,-2.1646572837278244,-9.469666116333007,-2.406152274303609,-1.1090542076366419,0.7830872181183386,0.01666666753590107
117,1958.0,0.03742145670391619,-0.012908727542310953,0.07950023769438266,-0.651073140893504,-2.140565775652975,-9.468768290710448,-1.3128752700411674,-1.845641764689798,0.5482391676353837,0.01666666753590107
118,1975.0,0.01478336230777204,0.0007766834609210491,0.08861877917349338,-0.6775589967589825,-2.1236565802976486,-9.460089309692382,-1.3197919037928632,-1.0903675571194273,0.24918635177853055,0.01666666753590107
119,1991.0,-0.00650441345795989,-0.038318478608876466,0.01821019495129585,-0.7007527522765099,-2.159120546258241,-9.531166586956381,-1.9707900401914722,-0.1447246648799886,0.11915851976469043,0.01666666753590107
120,2008.0,-0.0033353549677878616,-0.06725201988741755,0.0015729484051465988,-0.697161595916748,-2.1815664790831506,-9.549273321533203,-2.5420858453915565,0.5068824255718094,0.03785353537023213,0.01666666753590107
121,2024.0,-0.021352876891195773,-0.08263648989349603,-0.06221534089446067,-0.7137712968688458,-2.192190748950094,-9.61421604156494,-2.1979508194852837,0.8349255257935321,0.0031784925632889027,0.01666666753590107
122,2041.0,-0.0011259352900087833,-0.0664186378031969,-0.08253332177996635,-0.6919242797851562,-2.172288947650045,-9.635464581298828,-1.1173234322874117,0.27472963176836507,0.019352807404702223,0.01666666753590107
123,2058.0,0.004140606936067342,-0.08034048791080713,-0.06968319255709647,-0.6866869636535644,-2.1856065482541918,-9.622745384979247,-0.21678716268758993,-0.30618809570326866,0.05907118452154617,0.01666666753590107
124,2074.0,-0.0006394669473171234,-0.06184899180009961,-0.09442249701619147,-0.6923731195311993,-2.1683983699522913,-9.647136314392089,0.1174322428128226,0.05151680853652696,-0.12838981391265356,0.01666666753590107
125,2091.0,0.008682780410349368,-0.035466450178623196,-0.05327449406981468,-0.6815992120604961,-2.1438578029356896,-9.605686698150635,0.7489753857734437,1.0343939434277614,-0.16344042374245493,0.01666666753590107
126,2108.0,0.01613353480771184,-0.01671703378409147,-0.034005729976296424,-0.6715734926085919,-2.1294924468442797,-9.585635259246825,0.946898259664546,0.6003953992721002,-0.2962250108187621,0.01666666753590107
127,2124.0,0.0028436989933252332,-0.005104337401688099,-0.007663081973791122,-0.6838437761168926,-2.121561653845012,-9.558550852966308,0.9588704073408147,-0.02633742288298073,-0.11617962347163928,0.01666666753590107
128,2141.0,0.0033694033678621053,-0.0018361293859779834,0.014388590836524962,-0.6826466022215784,-2.120963103429973,-9.535954990276693,0.8659291418183952,0.6241294528642483,0.04249651654110697,0.01666666753590107
129,2158.0,-0.006787248987331986,0.032562107039242984,0.054180502998828886,-0.6890810922484845,-2.089838627978414,-9.495703059387207,0.765828450663627,1.303368500490156,0.1084378308310546,0.01666666753590107
130,2174.0,-0.016654051550477743,0.001118190374970436,0.037113048341870306,-0.6965629724364727,-2.12275875467509,-9.51261210861206,0.24621356530313537,0.5922095242735457,0.0762293801087719,0.01666666753590107
131,2191.0,-0.017894480065628885,0.010585837552696466,0.02978431288897991,-0.6971615228515118,-2.1134812232419846,-9.519944351196289,-0.10446664945786077,0.082472079628671,0.2802536273008922,0.01666666753590107
132,2208.0,-0.039976913340389726,0.03354161959588527,0.0426946478664875,-0.7187092647276818,-2.089838481847942,-9.507225154876709,-0.26872912381952374,0.6070737234547859,0.6118997857119289,0.01666666753590107
133,2224.0,-0.047864232524111865,0.033548341597616674,0.06460369733572006,-0.7249941171508282,-2.090736453600973,-9.485228427124023,0.9368824275769569,1.081649460974141,0.333951587379754,0.01666666753590107
134,2241.0,-0.03866941093839705,0.03794789173081517,0.031658874589204786,-0.7140706451416016,-2.088342105810344,-9.517849424743652,0.8994526707601698,0.4850613585557938,0.24635088945804967,0.01666666753590107
135,2258.0,-0.055520738626644014,0.022985300398617983,0.01320844114124775,-0.7308299836974591,-2.1055505763731897,-9.535805937194823,0.7787524492337605,-0.020022165943363472,0.33787171575694463,0.01666666753590107
136,2274.0,-0.03737937112785875,0.04919043962657451,0.05459902067184448,-0.7139209344726055,-2.0805610965453085,-9.49405704574585,0.45915583841611063,-0.6989538016957677,-0.33949388568482264,0.01666666753590107
137,2291.0,-0.042612157214805484,0.03695391225740313,0.06523030480146408,-0.7220013650756328,-2.0925319587156177,-9.483283138275146,-0.4507531049114082,-1.3928296779087483,-0.11350992664066344,0.01666666753590107
138,2308.0,-0.03297346431910991,0.07906593793034553,0.08674538651704787,-0.7170632510863244,-2.0483888656064866,-9.4618849609375,-0.5400735164000748,-1.361688924491956,0.16495556513964738,0.01666666753590107
139,2324.0,-0.12561346183270214,0.0498019956536591,0.10857435648739337,-0.8120832025390118,-2.075622909490764,-9.440337145996093,-0.0024463816616281608,0.056639023527213395,-0.12793424563109898,0.01666666753590107
140,2341.0,-0.06053213704787194,0.038763153636455536,0.09339841466546057,-0.746841207299754,-2.0869955135069787,-9.455450543975829,0.2576854549835536,0.38775474838008983,-0.55432588004207,0.01666666753590107
141,2358.0,-0.06941109761744738,0.01696370202153921,0.09295242446362972,-0.7550712755065411,-2.107645356695354,-9.456198731994629,-0.8504824555669998,0.164269784798509,-0.788086863229935,0.01666666753590107
142,2374.0,-0.019764073329791427,0.007250263389199972,0.03916822730600834,-0.7067383294921368,-2.1118353557311,-9.511115732574462,-2.380823371540263,-0.48934842283788754,-0.5651370022811424,0.01666666753590107
143,2391.0,-0.02609583363458514,0.028222470399737357,-0.007832593321800231,-0.7145194848876446,-2.083703340093791,-9.559598316192627,-2.807737301979328,-0.6125500410652552,-0.41730171984274184,0.01666666753590107
144,2408.0,0.0015123042590916157,0.06591843319609761,-0.029631168153882025,-0.6902781930785625,-2.039261117907613,-9.58264250717163,-2.0127297495728778,-0.5931647369011426,-0.2527690261220402,0.01666666753590107
145,2425.0,0.027818565773963928,0.05932224980145692,-0.05933773963153362,-0.6679821901183575,-2.042852420397848,-9.612719665527344,0.08258357713078616,-1.1602762508218005,-0.1639936957456524,0.01666666753590107
146,2441.0,0.03726443951129913,0.057877311690151687,-0.03944996685683727,-0.6627448739867657,-2.0470422733031213,-9.591920038604735,1.7133666136760386,-1.8016335752069366,-0.45017227202769267,0.01666666753590107
147,2458.0,0.007708747746422886,0.011114829862862824,0.05956628769040107,-0.696413334832713,-2.099415434619039,-9.491363568878173,1.8783541019459278,-1.2990750862665683,-0.489694894855707,0.01666666753590107
148,2474.0,-0.041538171307742594,-0.054715048266947265,0.0762350984185934,-0.7489361337523907,-2.169296049444377,-9.47355669403076,0.7244534591883641,-0.7540498961616459,-0.1959848077141112,0.01666666753590107
149,2491.0,-0.027235066797584292,-0.0622708704739809,0.07412146726548671,-0.7362168643675744,-2.1757304664060473,-9.475800673565267,-0.5590381769608499,-0.6423978610165052,0.11923537273306628,0.01666666753590107
150,2508.0,-0.004996712308749557,-0.04177870206534862,0.014161796343326568,-0.7146690494261682,-2.150740840447694,-9.536703762817382,-1.1214734125384291,-0.6414386996857945,0.05691036346416273,0.01666666753590107
151,2524.0,0.03159443105086684,-0.022309300833195447,-0.010915946289896965,-0.679803560815379,-2.127696941729635,-9.562441430664062,-1.0816479668702599,-1.2582142266089076,-0.18047061998380903,0.01666666753590107
152,2541.0,0.039348479243740436,0.024005875618010757,-0.07348258484005928,-0.6757633455138653,-2.07816674875468,-9.625438861846924,-0.5187112459972136,-0.8722819647984474,-0.33204732530306913,0.01666666753590107
153,2558.0,0.03460070019476116,0.06858239170834422,-0.012089666244387625,-0.6815992120604961,-2.03507126500234,-9.56363853149414,0.47917725730753363,0.009186711155372932,-0.3183261155907482,0.01666666753590107
154,2574.0,0.04945573949925601,0.07982917738780379,0.027601708152890203,-0.6660369012694806,-2.0272901096068323,-9.523236378479004,1.4417950906251582,0.5916708998244667,-0.01529796955438895,0.01666666753590107
155,2591.0,0.08609978208988904,0.026802666729688642,0.18934125311672687,-0.630123949432373,-2.0862473254881797,-9.36013139038086,0.708744397623305,-1.0850892082731827,0.08397434772010356,0.01666666753590107
156,2608.0,0.057713572495803236,-0.04551131272241473,0.17564707428514956,-0.6622959611754864,-2.1576243163511157,-9.373748412322998,-1.5834155412490818,-2.513403319745734,0.31007908905478093,0.01666666753590107
157,2624.0,0.03914038945101201,-0.04414981511086225,0.11272621546983719,-0.6866868905883282,-2.1484965686522424,-9.437942944335937,-3.9367481484319837,-1.9920105841690556,0.7925620245184685,0.01666666753590107
158,2641.0,0.054136225465685126,0.0355501829393208,-0.04693243156671524,-0.6753144327025861,-2.0518306766234335,-9.601047932434081,-4.494038650738957,-0.3378922330048811,0.8096115640689955,0.01666666753590107
159,2658.0,0.05183189404606819,0.10069470915347337,-0.07187748773097992,-0.6763619689941406,-1.977311003820598,-9.628132338714599,-2.159806347404878,0.07325004358868441,0.585092146993275,0.01666666753590107
160,2675.0,0.08150602455884218,0.10669906413480638,-0.06216331844627857,-0.6462847375731915,-1.9701283988401292,-9.618705169677733,0.7181374018359534,-0.21700978416585004,0.45081740473914156,0.01666666753590107
161,2691.0,0.021665303841233254,0.08416296880841255,-0.012304185777902602,-0.7062894166808575,-2.0014028041563927,-9.566930558776855,2.3323781204178315,-0.7045725927834553,0.2808982264038122,0.01666666753590107
162,2708.0,0.09214746475629508,0.014071926102787255,0.05134732539951801,-0.6368575685363262,-2.077717982073873,-9.501838201141357,1.532378660223454,-0.38254176657863626,0.6852877137444829,0.01666666753590107
163,2725.0,0.0219599759388715,0.021628332831710576,0.06922785000503062,-0.706588691888377,-2.072031753131002,-9.483582413482665,0.44677678755612366,0.4993857593491915,1.477188277130518,0.01666666753590107
164,2741.0,0.05738967430368065,-0.04949439100921154,0.022406477597355843,-0.6709749421935528,-2.1404159919187427,-9.531017533874511,-0.46881602041918297,-0.1847855386311117,1.3922684284580438,0.01666666753590107
165,2758.0,0.0361766442745924,-0.038955899729579684,0.03037175738811493,-0.6922235549926757,-2.125602015276998,-9.523984566497802,-0.7239526675839847,-0.5151030918464486,1.4533972341474826,0.01666666753590107
166,2774.0,0.029668139163404703,-0.032917496348172426,-0.0019037877947092054,-0.700902462945506,-2.117222309466451,-9.556605564117431,-0.37440887890700225,-0.7059764101013044,1.356825936524613,0.01666666753590107
167,2791.0,0.02626176478601992,-0.02442044776827097,-0.052236383193731306,-0.7074865905761718,-2.1085431823179124,-9.606734161376952,0.4962440857743972,-1.223311639785025,1.3616908454826602,0.01666666753590107
168,2808.0,-0.01157521391622722,0.007325520582497119,-0.011674655702710151,-0.7478885243955999,-2.0799622538693248,-9.565283960613607,1.2890033320051497,-0.7286731820741097,0.9314679018341352,0.01666666753590107
169,2824.0,-0.008825915208086371,0.005297814147174358,-0.014205635485053061,-0.7462425838194787,-2.085648628942668,-9.566929974254965,1.1238269463160273,-0.374974450586791,0.9170940888909607,0.01666666753590107
170,2841.0,-0.04797865268401801,0.01261734338030219,0.04066343429982662,-0.7846993749205022,-2.0822069640561938,-9.511264785656332,0.7754723576065677,0.49701024090020224,1.0426052181922918,0.01666666753590107
171,2858.0,-0.011500029788166284,0.025638006864488125,0.051469490474462504,-0.7469908449035138,-2.070834652300924,-9.5001921875,0.9327958400191737,0.4853075655310316,0.8994462674578229,0.01666666753590107
172,2874.0,-0.015022212564945221,0.037034722408652306,0.08751403280198573,-0.7496842487059533,-2.0618562499448654,-9.463680027660727,1.2439471353715144,0.3611117812534568,0.7891656595928268,0.01666666753590107
173,2891.0,-0.011512012486904859,0.022457184871286152,0.08055003900825977,-0.7463922944884747,-2.0787654453001916,-9.470115029144287,0.819023564745273,-0.2064821681381861,0.409131639656643,0.01666666753590107
174,2908.0,-0.0407929058983922,0.020645897665619847,0.03733867379128933,-0.7772176408629864,-2.0805610965453085,-9.513210659027099,-0.5492009436478862,-0.010846126958568686,0.7500833705228667,0.01666666753590107
175,2924.0,-0.030976006891578433,0.026477088037133216,0.01991466078162193,-0.7673415590148419,-2.0723308822080493,-9.531166586956381,-0.9285191811033937,0.6048612757722307,0.8656840020602151,0.01666666753590107
176,2941.0,-0.046128713968396184,0.03967778426334262,-0.0046820203363895415,-0.780659305749461,-2.0566190799437463,-9.55645592651367,-0.4656970252068672,1.3236455178669255,0.7575113079669613,0.01666666753590107
177,2957.0,-0.015364157870411873,0.044359804599732156,-0.020078326910734176,-0.7480383081298321,-2.0518306766234335,-9.572018237304688,0.5964632913834356,0.8291750401209103,0.5760857955206728,0.01666666753590107
178,2974.0,-0.0060126113530248404,0.03690481241866946,0.02158347077667713,-0.7372644737243652,-2.062903713171184,-9.529670795440673,1.4596617982768538,0.6699567138221546,0.6801391384924684,0.01666666753590107
179,2991.0,-0.01177124794498086,0.017072276962548493,0.027435119414329526,-0.7425017167907207,-2.0862471793577075,-9.523086740875243,1.0769794258508505,0.502106415794678,0.5570164409665261,0.01666666753590107
180,3008.0,0.05605499163381755,0.00190685653463006,0.0010065466940402984,-0.6760626937866211,-2.102707461901754,-9.549123683929443,0.43901486453378596,-0.6834473512891347,-0.12160730266469866,0.01666666753590107
181,3025.0,0.010960954475402832,0.07933043408542871,0.04300444446802139,-0.7223006402831524,-2.0257935874387623,-9.506925879669188,0.4265484352771904,0.35913988429573296,0.2271780948905743,0.01666666753590107
182,3041.0,0.037331075006723405,0.03293064809069037,0.026776363244652747,-0.6964132617674768,-2.0723308822080493,-9.523086156353354,0.481186506862281,-0.4363219290513762,0.08604194736748692,0.01666666753590107
183,3058.0,-0.03142214322388172,0.049508419534564016,0.09116086487174034,-0.7658451829772442,-2.057367267962545,-9.458293658447266,0.7907897505114089,0.19087870770099774,0.3087487763117887,0.01666666753590107
184,3074.0,-0.027086086780950425,0.0347454424276948,0.07062427279949188,-0.7612064903259277,-2.073079070226848,-9.478644372558593,0.08156561214018981,0.3266257292472393,0.07126513992306845,0.01666666753590107
185,3091.0,-0.03872355227842927,0.037677988748252386,0.07588789241611957,-0.7713817743163556,-2.0705353770934045,-9.473407056427002,0.4694249744723719,0.21729072905631971,-0.06781115861651796,0.01666666753590107
186,3108.0,-0.02005114664286375,0.047511692759394646,0.06828501619696617,-0.7522281610351056,-2.0600605986997484,-9.48118821182251,-0.3600580378109972,-0.14429681756151078,-0.1963359488065586,0.01666666753590107
187,3124.0,-0.020905717645585537,0.02524447750225663,-0.003878887259960174,-0.753874174676463,-2.079513487188518,-9.553912087249754,-0.6072891945787587,-0.3340469432238697,-0.13370471494312838,0.01666666753590107
188,3141.0,-0.020275529983267187,0.05654153304174542,0.0005757540613412857,-0.7540238122802227,-2.046742851965129,-9.549722234344483,-0.04792554309570185,-0.05379958582319216,-0.5094949729293393,0.01666666753590107
189,3158.0,-0.01840352556630969,0.054346653345972294,0.004717676171660423,-0.75177917515859,-2.049286691229045,-9.545532381439209,0.41591617861700775,0.2201041266641303,-0.6301355903830695,0.01666666753590107
190,3174.0,-0.011446984426677227,0.049370472368597984,0.007200725159049033,-0.7448958453856408,-2.055870745794475,-9.542689266967773,0.6805620766124804,-0.12889367376607422,-0.5849950836018669,0.01666666753590107
191,3191.0,-0.007601049588248133,0.02160290612950921,0.07640694785416126,-0.7414542535644024,-2.085199716131389,-9.473107781219483,0.8868132989793553,-0.1905649458860003,-0.6800306558785416,0.01666666753590107
192,3208.0,0.04662606903128326,0.05155497680082917,0.04586801720559597,-0.6886321794372051,-2.056170167132467,-9.503334577178954,-0.1645782772292835,-0.930265254931684,-0.7460554265424103,0.01666666753590107
193,3224.0,0.024314722371473908,0.054232817707955835,0.07029051080048083,-0.7151180353026837,-2.053925456945598,-9.478494150432944,1.042545133871937,-1.4933263065919655,-0.6173564665285344,0.01666666753590107
194,3241.0,0.026031536226719616,0.07198650106340647,0.11238427016437053,-0.7170633241515606,-2.0380640170775353,-9.43569838027954,1.3946535518605534,-1.5158919709492185,-1.1110310137928316,0.01666666753590107
195,3258.0,0.0075232351116836065,0.03310951178893447,0.14162030152082442,-0.73905997883901,-2.0795136333189905,-9.405621221923827,0.8488889937779769,-2.0185185483378754,-0.9017431320096513,0.01666666753590107
196,3274.0,-0.03843209505118429,-0.02916369677260518,0.11845160737931727,-0.7906850252013653,-2.141014688464254,-9.428515775299072,-1.0328990924948807,-1.7227094586869698,-0.7638153591274716,0.01666666753590107
197,3291.0,-0.05793561774864792,-0.029498189423978326,0.08888415211141108,-0.8123825508117676,-2.1362262851439415,-9.459041846466064,-1.977389710476997,-1.210504608204428,-0.32207690330129013,0.01666666753590107
198,3308.0,-0.05550006116479635,-0.031379034734517336,0.012172668352723121,-0.8125321153502911,-2.1321860698424278,-9.536853400421142,-2.390063550270232,-1.3984624495398932,-0.3663426656210552,0.01666666753590107
199,3324.0,-0.03032324207127094,-0.0024922552071511743,-0.10860007545053958,-0.7914332132201641,-2.0950759441100058,-9.65910732269287,-1.6178800354707314,-1.6825645949533967,-0.41362475687217426,0.01666666753590107
200,3341.0,-0.047437604609876866,0.03899667013138532,-0.1563268722653389,-0.8116342166624962,-2.0524290809080004,-9.706841133770347,0.22996764019714272,-1.005250486734669,-0.4544663265815151,0.01666666753590107
201,3358.0,-0.007583148605376481,0.05391118453815579,-0.13169628887772558,-0.7736263383727521,-2.041206260626018,-9.681253688049315,2.0953246658849034,-0.6858805528200989,-0.6120222488693131,0.01666666753590107
202,3374.0,-0.01300524671934545,0.00552168603092432,-0.05225041171908378,-0.780060755334422,-2.100163622637838,-9.599401918792724,3.1043316499413733,0.3030356432361904,-0.7843409847178591,0.01666666753590107
203,3391.0,-0.025082930264994502,-0.07951002843603491,0.07338263159692288,-0.7912835025511682,-2.1932379199154672,-9.472060317993163,2.9310333155554598,0.7482168078887491,-1.0241010617919637,0.01666666753590107
204,3408.0,-0.04054353424720466,-0.07472717807367443,0.14557050045132636,-0.8031049463134259,-2.1948842258177694,-9.398737892150878,2.2825958597653706,1.6020376251342985,-0.8862073864947813,0.01666666753590107
205,3424.0,-0.0007804828532040119,-0.09540449379086494,0.14072598302960396,-0.7601589540343732,-2.217629141589254,-9.403376657867431,0.9822279467549658,1.2387677175465293,-0.5459899543251868,0.01666666753590107
206,3441.0,0.03134381729066372,-0.09432312829494476,0.0844090525239706,-0.7258918697081506,-2.2155340690061447,-9.460088725170493,-0.20248809495910214,-0.44257918274390123,-0.7210091762168265,0.01666666753590107
207,3458.0,0.0447847520135343,-0.06086597211211919,0.05295300703048706,-0.7140705720763653,-2.180967782537639,-9.491662844085694,-0.4717822968705254,-0.9609742123268845,-1.1281685987506282,0.01666666753590107
208,3474.0,0.09286196970120073,0.037666736701875925,-0.000675122782588005,-0.6690295802794396,-2.08295500594452,-9.544933831024169,-0.28604522751066636,-1.0829294811132835,-1.239930023644195,0.01666666753590107
209,3491.0,0.06892915931940079,0.08824336998984217,-0.0020481647014617918,-0.6953657985411584,-2.035669815417379,-9.545382743835448,0.8852778937982777,0.02171647974434976,-0.8745839519921533,0.01666666753590107
210,3509.0,0.03002601269036531,0.1171867020100355,0.028490181425213812,-0.732027011462301,-2.0121765654966235,-9.513808624920248,2.24456131104192,1.2046846467013423,-0.904399648709963,0.01666666753590107
211,3524.0,0.06602627748474478,0.07168751811683177,0.03508008120954036,-0.6931213075499981,-2.066046102850139,-9.505579141235351,2.2727616680210216,0.2619918625748202,-1.0031963073417878,0.01666666753590107
212,3540.0,0.044300183366984124,0.042696693693101403,0.026763503763079642,-0.7142202096801251,-2.100313260241598,-9.51276174621582,1.531375156023991,-0.33138834545029516,-0.5557936236616823,0.01666666753590107
213,3558.0,0.018799904472753405,0.061310939400643104,-0.006073182433843612,-0.7401075151305645,-2.083852977697551,-9.54508346862793,0.4888165752171257,-0.39356329066065676,-0.010539862343402371,0.01666666753590107
214,3574.0,0.016655439789965747,0.11134688994064927,0.04569266063868999,-0.7405563548766076,-2.0331258300229904,-9.49360754841268,0.8234180444242358,0.4821775246221675,0.20913469611474436,0.01666666753590107
215,3591.0,0.03756766024157405,0.09127323920503258,0.11700023952722549,-0.7184100625853985,-2.0552723415099083,-9.421931720733642,1.9173824431936155,-0.12725517541721162,0.1682932864879622,0.01666666753590107
216,3608.0,0.0522268847130239,0.08037482857182622,0.1644043802589178,-0.7043441278319805,-2.070086464282125,-9.373598774719238,1.558755036529045,-0.5519529762748724,0.3766062788290423,0.01666666753590107
217,3624.0,0.011092983357235789,0.04570113620609045,0.14312369182109833,-0.7475893222533166,-2.106148980657756,-9.394398401641846,0.33839718675578606,-0.9357584345716667,0.85459150804385,0.01666666753590107
218,3641.0,0.0044215427692979575,0.048314533574879165,0.14080956965982913,-0.7562683763366193,-2.101809490148723,-9.396941656383872,-0.9833413743113837,-0.43884077475122996,1.2062521751158604,0.01666666753590107
219,3658.0,0.015616379065811634,0.02528349433839321,0.07276713004708289,-0.746841207299754,-2.1173718009397384,-9.466523726654053,-1.7429668392698756,-0.17343878015072223,1.391473351749972,0.01666666753590107
220,3675.0,0.023970950435101984,0.036463644522428514,0.054257659888267515,-0.7392096895080059,-2.1010614482603964,-9.486126252746581,-0.9732379237033482,-0.5217161023451962,0.9336426767545495,0.01666666753590107
221,3691.0,0.03883928761258721,0.031047903084009884,0.019583236870169638,-0.7266401307921856,-2.104802242223918,-9.520991814422606,-0.23260686798111796,-1.0792874961817858,0.6843446140304923,0.01666666753590107
222,3708.0,0.0025437661986798046,0.006616933921724557,-0.017217092260718346,-0.7674912696838379,-2.127547157995403,-9.55780266494751,-0.885124427985364,-1.5040322012291374,0.6952733435893358,0.01666666753590107
223,3724.0,-0.011470146106556058,0.0029769699841737745,-0.008668459624052048,-0.785148433862254,-2.1284449836179613,-9.549572012218832,-1.224451320881065,-1.102232876368209,0.84875761935816,0.01666666753590107
224,3741.0,-0.013197700551524758,0.015744243229180572,-0.02170329776406288,-0.789637561975047,-2.1127330352231857,-9.5630399810791,-0.6867143695073693,-0.7682686424663199,0.7510289248360903,0.01666666753590107
225,3758.0,-0.02170958137437701,0.010295768564939498,0.022158055794239042,-0.8005611070495099,-2.117222309466451,-9.51919616317749,0.09575500997577395,-0.8088792930847761,0.23484186062401952,0.01666666753590107
226,3775.0,-0.045046471689641474,-0.015339461820572614,0.026492870128154752,-0.8251016740661113,-2.1431096149168907,-9.514707035064697,0.19724980677316514,-0.6324349628949838,0.23510762435184177,0.01666666753590107
227,3791.0,-0.03251856015846133,0.001986936033517122,0.04022679644823074,-0.814477404199168,-2.1259011443540454,-9.500790737915038,0.012710021550041696,-0.8199044457047932,0.137161457673816,0.01666666753590107
228,3808.0,-0.028129239158332348,-0.021224574336409566,0.07878244481384754,-0.8123824777465313,-2.1484964225217698,-9.462184236145019,-0.3364386300112849,-0.443147209022923,0.05436849255628662,0.01666666753590107
229,3825.0,0.003946984060108662,-0.0019376900643110274,0.10803425826132297,-0.7817067689757794,-2.127696941729635,-9.433154541015625,-0.8071710521011853,-0.480722587607249,-0.05238453604580948,0.01666666753590107
230,3841.0,0.018781345902755854,-0.004977057760208845,0.09153963505625724,-0.7682393846374005,-2.127696941729635,-9.450213227844237,-1.6655524079998933,-0.5949392520640236,0.010088776373490631,0.01666666753590107
231,3858.0,-0.009344970646128058,-0.01951499393954873,0.06899111863970755,-0.7984661805968731,-2.135178821917623,-9.4741552444458,-2.431010320901047,-0.24562251381609126,-0.06546015947943197,0.01666666753590107
232,3874.0,-0.015030615067109464,-0.003008680296689272,0.022658991053700447,-0.804900597558543,-2.1127330352231857,-9.521740002441407,-2.783199207055823,-0.020031664175178023,-0.1391740956427219,0.01666666753590107
233,3891.0,-0.02251373736411333,-0.002407791794091463,0.0020616087049245835,-0.8122327670775353,-2.1058497054502365,-9.543736145672202,-2.547633879988311,0.2509949378459823,-0.19608939498577702,0.01666666753590107
234,3908.0,-0.025516791637614368,0.01144464633911848,0.009811199918389319,-0.8146270418029278,-2.0862473254881797,-9.537302313232422,-1.3781683566901985,0.5431832801848404,0.024142130714629874,0.01666666753590107
235,3925.0,-0.03208681767769158,0.028422815277427432,0.05058920050859451,-0.8198643579345196,-2.068739725848287,-9.496750522613524,0.10838693791761007,0.23613959656632194,-0.5476290930042841,0.01666666753590107
236,3941.0,-0.011453121906518935,0.02803016269803047,0.040541269224882125,-0.799214368615672,-2.071283418981731,-9.50632732925415,0.8547211215555216,-0.36172516425743567,-0.9842158519685569,0.01666666753590107
237,3958.0,-0.005516644529625773,0.023955168344080447,0.04847147770226001,-0.7944259652953595,-2.076969647924602,-9.497947623443602,-0.42910818207078494,-0.4892229714727414,-0.9510033100774294,0.01666666753590107
238,3974.0,-0.017480857763439415,0.02482274495884776,0.02426525720655918,-0.8077437120299786,-2.072031753131002,-9.522937103271484,-2.0417484485919117,-0.12246273049738987,-0.5028220915536484,0.01666666753590107
239,3991.0,-0.02782777199372649,0.02107669029831886,0.017893968608975408,-0.8173205186706036,-2.0696375514708456,-9.530718258666992,-2.4216617129180036,0.7404370089806931,-0.5000602938905832,0.01666666753590107
240,4008.0,-0.024863369230180978,0.03753668058142066,0.023444003951549528,-0.8123824777465313,-2.048389011736959,-9.526378768157958,-0.9736048329278247,1.0481046944129158,-0.8770478893743826,0.01666666753590107
241,4024.0,-0.0005674976896494627,0.023854630579054355,0.018587796092033385,-0.7854477090697735,-2.0620058875486253,-9.53146644668579,0.6243142948586617,0.04423123784794476,-1.0608690373112002,0.01666666753590107
242,4041.0,-0.013428294437006116,0.004833996027708053,-0.0045101709008216855,-0.7990647310119122,-2.0823566016599533,-9.554211362457275,0.10219614516736043,-0.8106386537654362,-0.7637046353577233,0.01666666753590107
243,4058.0,-8.000643365085125e-05,0.010354513014853,0.00576046322286129,-0.7878419107299297,-2.076969794055074,-9.543736730194091,0.0923415695772072,-0.7167221119347328,-0.5772929247347668,0.01666666753590107
244,4074.0,0.0049130526132881635,0.003031184389442205,0.06171615920066833,-0.7839513330321759,-2.08460116571635,-9.487622628784179,0.09861912707425716,0.10134837461705905,-0.7158612412950467,0.01666666753590107
245,4091.0,-0.0040610388938337565,-0.021515666237473488,0.05890694699883461,-0.7929295161925256,-2.108992095129192,-9.490465158733725,-0.022138910936259183,-0.1226201450134175,-0.4939374561864898,0.01666666753590107
246,4108.0,-0.001478621185198426,-0.01860036331266165,0.09113280782103537,-0.7906850252013653,-2.105700213976949,-9.458293658447266,-0.12935661918554092,-0.2199135216976046,-0.31835276933676715,0.01666666753590107
247,4124.0,-0.009875716521963477,-0.05072948576211929,0.04200666560232639,-0.80041146944575,-2.1354780971251426,-9.507823705291747,-1.2138909946505791,-0.447028837544753,-0.17028787514837782,0.01666666753590107
248,4141.0,0.003859086580947041,-0.047030777374655004,-0.007170914542675018,-0.7881412590026855,-2.127547157995403,-9.55780266494751,-1.8682259986238567,-0.5366538861425727,-0.31745113100547256,0.01666666753590107
249,4158.0,0.011443111969158053,-0.020404051733762026,-0.03952946183383465,-0.7809585809569806,-2.096123261205852,-9.591171850585937,-1.8333322697015542,-0.10136214171710485,-0.36045920470302967,0.01666666753590107
250,4174.0,0.04402311999127269,0.02092924465164542,-0.06993570601344108,-0.7484872209411114,-2.052129805700481,-9.622146834564209,-0.32635550988820067,-0.029796059923945937,-0.175948341062173,0.01666666753590107
251,4191.0,0.04401128342300653,0.027761721020191907,-0.051039866885542864,-0.7492354820251464,-2.0468926356993613,-9.6028435836792,1.2526239302166635,-0.6105303327833413,-0.11898728478776409,0.01666666753590107
252,4208.0,0.027907340035960078,0.00039630584120750427,-0.0028057050704956054,-0.7676408342223614,-2.080710588018596,-9.553014261627197,2.6047468546108994,-0.9530349711903909,-0.25005298539032883,0.01666666753590107
253,4225.0,-0.0023582535639405247,-0.02090878638550639,0.024897709891200066,-0.7993639331541955,-2.109590499413758,-9.523535653686523,2.5620417371556297,-0.565288066855676,-0.5717765864846295,0.01666666753590107
254,4241.0,-0.01699037083275616,-0.04480477188825607,0.04538870925605297,-0.8146270418029278,-2.1401168628416953,-9.501538925933838,1.066659116736667,-0.30187669887225677,-0.5083424852286054,0.01666666753590107
255,4258.0,-0.02144764250256121,-0.03155979812890291,0.0748322458833456,-0.8185176195006817,-2.1272480289183555,-9.472060317993163,-0.1170527671074902,-0.2716889702880929,-0.17920244595400805,0.01666666753590107
256,4274.0,-0.0038519992530345916,-0.01522109613791108,0.040322073516249654,-0.8013092220030724,-2.1091417327329514,-9.506925879669188,-0.6051051348699413,-0.6165833744918535,0.031826600458996684,0.01666666753590107
257,4291.0,0.021292598071321844,-0.0017320844896137712,0.04147182807326317,-0.7784146686278283,-2.0943277560912072,-9.50587841644287,0.05880341976174052,-1.3730143386311893,-0.5510261516210134,0.01666666753590107
258,4308.0,-0.03539915709607303,0.012170038004219532,-0.06247779122292995,-0.8385691314697266,-2.081608413641155,-9.609278000640868,0.11117712355441317,-1.558548423306652,-0.9988813353336321,0.01666666753590107
259,4323.0,-0.04605111868754029,0.03487549854815006,-0.05736673181951046,-0.8520364427428692,-2.059761469622701,-9.603741409301758,0.20454709016895686,-0.7650386033191385,-1.0340703632158321,0.01666666753590107
260,4341.0,0.0068167673427611585,0.09836071324795484,0.024493805265426636,-0.8014589326720685,-2.0008042537413537,-9.520692539215087,1.852221798181459,-0.8748256232948954,-0.957089862401557,0.01666666753590107
261,4358.0,-0.03620616263002157,0.06042071256265044,0.13685352551043034,-0.8442553604125976,-2.0443487964354454,-9.407117597961426,1.8558415849981542,0.42740741160659884,-1.3540607771278155,0.01666666753590107
262,4374.0,-0.05117255335450172,0.02008767926096916,0.07593991486430168,-0.8572736858092248,-2.088192322076112,-9.467420967754721,0.7656012401520184,0.45311848479834826,-0.9709278256600029,0.01666666753590107
263,4391.0,-0.06908632264249026,-0.012755290546268224,0.06476093372404575,-0.8720878816466778,-2.120663974352926,-9.478943647766112,-0.5202932885637179,1.2861440440638532,-0.827226355134194,0.01666666753590107
264,4408.0,-0.03871317701488733,0.017446955493837592,0.028384967485070228,-0.8381200725279748,-2.087145004980266,-9.516353048706055,-0.8850254969641046,1.443974027692098,-0.6054069438538913,0.01666666753590107
265,4425.0,-0.013563538189232349,0.026709727749228477,0.027453239592909812,-0.809988276086375,-2.0757726932249962,-9.517999062347412,-0.07458892074856557,0.5042744672476281,-0.4026497100930216,0.01666666753590107
266,4441.0,0.03844977683834731,0.04218362960442901,0.021088380736112595,-0.7594107660155743,-2.0621556712828575,-9.523834928894042,1.501826156848929,-0.5777633006529985,-0.3529297482363104,0.01666666753590107
267,4458.0,0.012870002967119216,0.05712137875631451,0.060849897760152816,-0.7878419107299297,-2.0524289347775277,-9.482684003338218,1.9240664236267075,-0.6676262319330051,-0.8090257686259611,0.01666666753590107
268,4474.0,0.007457695594802498,0.032963673577457664,0.08863163865506649,-0.7948748050414025,-2.081608559771627,-9.453654892730713,1.5055025061696885,0.000907027777436537,-0.47873404206342324,0.01666666753590107
269,4491.0,-0.03805712425895035,0.02770063848271966,0.13730185379981993,-0.840215145111084,-2.088791164752096,-9.40457375869751,-0.33266212236964965,0.6187998775992285,0.2105881923866348,0.01666666753590107
270,4507.0,-0.013984613145515322,0.01993745713531971,0.07871580931842327,-0.8152254460874945,-2.0938786971494556,-9.463829665264488,-0.9368914989219485,0.021664612995339977,-0.03310838150628478,0.01666666753590107
271,4524.0,-0.009117591631039977,0.04459332109466195,0.05893675761520862,-0.8101379867553711,-2.0660462489806113,-9.484330601501464,-1.0591999098327782,-0.29288336744775983,-0.4311318657362392,0.01666666753590107
272,4540.0,0.04361526984274387,0.09366539503857493,0.0507335774153471,-0.7580640275817364,-2.014570913287252,-9.49300958251953,-0.2230194301607489,-0.5681087215394797,-0.9233831990126615,0.01666666753590107
273,4558.0,-0.007187719547003507,0.08712547187581658,0.04608370578289032,-0.8096889278136193,-2.022202431079,-9.497349073028564,0.46777644428316584,-0.22036089908824044,-1.0479406631511297,0.01666666753590107
274,4575.0,-0.008015110281854868,0.06185410636663437,0.0525590392768383,-0.8105868265014141,-2.0479400989256797,-9.490765018463135,-0.19617922798161855,0.014792268751543552,-1.103772550417518,0.01666666753590107
275,4591.0,-0.016141060527041555,0.023672405879944562,0.045400984215736385,-0.8180687797546387,-2.084900587054342,-9.498246898651123,-1.13898100165017,0.38148399439178343,-1.0445278097219446,0.01666666753590107
276,4608.0,-0.035130496222525835,0.020838059236854313,0.05559504597187042,-0.8339302926879376,-2.0820574725829064,-9.489567917633057,-1.8282286242876737,0.9994222009385325,-0.8394392669787056,0.01666666753590107
277,4624.0,-0.027696692959964273,0.009909984117746353,0.0439496163636446,-0.822857110009715,-2.087444426318258,-9.502736026763916,-1.945915345007932,1.0608792825949551,-0.6690262072694462,0.01666666753590107
278,4641.0,0.0007180120762437581,0.01016542018353939,0.03221417038440704,-0.7923310388427227,-2.081458776037395,-9.515904135894775,-1.5167932357545428,0.6619654992149455,-0.34301343413936264,0.01666666753590107
279,4658.0,-0.0021440993566066028,-0.01190013502165675,0.045101124486327165,-0.7939770524840801,-2.0991160132810474,-9.504082765197753,-0.9130885031078655,-0.06618357256207152,-0.4492982746181955,0.01666666753590107
280,4674.0,0.025521248617023228,-0.005419979222118854,0.04724807338714599,-0.7662941688537597,-2.09103558267802,-9.502287113952637,-0.543184987732133,0.0035032467139818526,-0.5171236005411559,0.01666666753590107
281,4691.0,0.03371880279369652,-0.012394932801276445,0.05361936198472976,-0.7592612014770508,-2.0971708705626426,-9.496002334594726,-0.48353257012047457,-0.39334136287348426,-0.33725497101923363,0.01666666753590107
282,4708.0,0.03945362011864781,-0.01630231550335884,0.058248190829157824,-0.7558194635253399,-2.099565072222799,-9.491513206481933,-0.7560262754310125,-0.5758706979226703,-0.2777726411261644,0.01666666753590107
283,4725.0,0.016856880646198988,-0.02882029016241431,0.08600304371714591,-0.779312494250387,-2.1100394122250377,-9.464128940472007,-1.1069574462831537,-0.1868046065827909,0.03496205749442922,0.01666666753590107
284,4741.0,0.03287387640215456,-0.03439341411963105,0.06272036780714989,-0.7634509082518518,-2.1118353557311,-9.488221179199218,-2.2395966172889668,0.002916810940712789,-0.07899100434906524,0.01666666753590107
285,4758.0,0.014936653173342347,-0.05644961697459221,0.026335633739829063,-0.7812578561645,-2.1278465793333945,-9.525929855346678,-2.460055700346526,-0.1983923426748349,-0.1894951408268206,0.01666666753590107
286,4775.0,0.04262859689295292,-0.0015258943930268286,-0.008500701841711998,-0.7546223626952618,-2.067542625018209,-9.561842880249023,-0.9490194602886581,-0.9796640644952723,-0.6789872377611164,0.01666666753590107
287,4791.0,0.04925955934002995,0.008442395783215761,0.01087386071383953,-0.7489361337523907,-2.058264947454631,-9.542240354156494,0.3678846341870385,-0.9171034804010695,-0.746713365858553,0.01666666753590107
288,4808.0,0.042047509069368244,0.0025441315248608586,0.021209376767277716,-0.7579143899779767,-2.0661958865843713,-9.53131680908203,0.10362546897289138,-0.8002406512494438,-0.40931458734077886,0.01666666753590107
289,4824.0,0.010318053461983799,-0.038003567440807816,-0.04412088127732277,-0.790834662805125,-2.1059994891844687,-9.596708441925049,-1.0723701153781495,-0.1834535450212534,0.1397054496755945,0.01666666753590107
290,4841.0,-0.0024194091666489836,-0.003716244044154882,0.02986497690975666,-0.8026560335021465,-2.0703857394896445,-9.523086740875243,-0.9291287754868174,0.42641361908236197,0.2659864560222198,0.01666666753590107
291,4858.0,0.015735767661780118,-0.005682429550588131,0.004967851540446281,-0.7835023471556604,-2.0702358096249402,-9.548524548992514,-0.89526960678036,0.016638874426679967,0.10993482953826422,0.01666666753590107
292,4874.0,0.009032835957035423,0.006259498786181211,-0.013493103301525115,-0.7893382867675274,-2.055421686852723,-9.567678746795654,-0.6641066567980387,0.30359689268689505,0.27283940359599046,0.01666666753590107
293,4891.0,0.01645860204361379,0.03152458068504929,-0.03517652732133865,-0.7797614801269024,-2.0295346736632287,-9.58967547454834,-0.11427288011529502,1.118568447707058,0.3239970669121364,0.01666666753590107
294,4908.0,0.018555939649045467,0.040865678873658176,-0.0077712185233831405,-0.7745242370605468,-2.021304459325969,-9.562291793060302,0.9549964094209481,1.432980197892728,0.4850476981774538,0.01666666753590107
295,4925.0,-0.010119973606616258,-0.005777706618607044,0.0830278272986412,-0.7993640062194317,-2.0723310283385215,-9.470863217163085,1.4178031973918421,1.145144500324166,0.18023279066247505,0.01666666753590107
296,4941.0,-0.0015004676908254623,-0.04104249674528837,0.12808335907757282,-0.7873929979186505,-2.11018919595927,-9.425522438701988,0.8306109806721997,1.7481695224267213,0.2612095391105893,0.01666666753590107
297,4958.0,0.022107859976962206,-0.0212983702249825,0.09210545224547385,-0.7601589540343732,-2.0907363074705003,-9.46173532333374,-0.41400265843234635,1.2643287400199499,0.3100986991682183,0.01666666753590107
298,4974.0,0.053072907083109015,-0.007954320005327463,0.031067338436841962,-0.7249941171508282,-2.0733783454343677,-9.523984566497802,-1.207131348528088,1.1732417641354829,0.6890147558754884,0.01666666753590107
299,4991.0,0.0111099344920367,0.02507408937141299,-0.04423427852392196,-0.7647976466856896,-2.037166045324504,-9.600149522289634,-0.10699467322441174,1.0257579162742207,0.9767142765474731,0.01666666753590107
300,5008.0,0.0730433166399598,0.012758943808078765,-0.05106207871735096,-0.7022492013793439,-2.051531255285442,-9.606584523773193,1.4562644194950072,-0.032364851382105424,0.4580508418744495,0.01666666753590107
301,5024.0,-0.001581131711602211,-0.007046119119226932,-0.01797112549841404,-0.7790132921081035,-2.080112037603557,-9.571419686889648,2.556944495044096,-0.8067314653950716,0.504938169535883,0.01666666753590107
302,5041.0,-0.018777108119055627,-0.0674994187772274,0.05367313799858093,-0.7987654558043926,-2.145952583257854,-9.498396536254882,1.4248929337503153,-1.194837008022065,0.7387428019014126,0.01666666753590107
303,5058.0,-0.04442402894236147,-0.07902823626846074,0.10750818856060504,-0.826598050103709,-2.1595696051999926,-9.443927863964438,0.5430723429716806,-0.6850713888468639,1.2018470232663194,0.01666666753590107
304,5074.0,-0.01837707595080137,-0.06313143282607198,0.11259411352276802,-0.8032546569824218,-2.1426607021056117,-9.438840769958496,0.10733850388001312,-1.4770504994083542,1.2526874296316035,0.01666666753590107
305,5091.0,0.004077697767689824,-0.0061499009318649765,-0.023524083450436592,-0.785148433862254,-2.0831047896787522,-9.575160626983642,-0.7887259128041543,-2.3013652196045657,0.7620680579995648,0.01666666753590107
306,5108.0,0.05516966016665101,0.011082096637040377,-0.03396072179079056,-0.7414542535644024,-2.0642504516050217,-9.585335984039306,-0.28275686495127544,-2.5813195192011675,0.7609036174677833,0.01666666753590107
307,5125.0,-0.006729600515961646,0.07839242258295416,-0.05781155297756195,-0.8089408859252929,-1.997811355535686,-9.60852981262207,0.016845887855469536,-1.721702432671216,0.3153605861913462,0.01666666753590107
308,5141.0,0.035136122245714066,0.07989040605574846,-0.04979541978240013,-0.7743745263915508,-2.0006546161375938,-9.598953005981445,1.3108994243803298,-2.19065895221606,0.039952324436130116,0.01666666753590107
309,5158.0,-0.04265132018141448,0.055490562684088945,0.0021896189987659453,-0.8550291217528283,-2.0298338027402756,-9.545682019042967,1.6953139968128719,0.00926162979283151,0.31262688301732794,0.01666666753590107
310,5174.0,-0.03182743608914315,0.006239771172404289,-0.02614624864757061,-0.8417113750182091,-2.0823566016599533,-9.573514613342285,0.7878012759452638,1.6058977492324134,0.5678470932777565,0.01666666753590107
311,5191.0,-0.010721811957284808,-0.03726429338082671,0.06767185273468494,-0.8150759546142071,-2.126649332372844,-9.479991110992431,0.2951549656357444,0.9578489738947805,1.2113852757205366,0.01666666753590107
312,5208.0,0.011321677546575665,-0.0680124828658998,0.07314356214404105,-0.7933784290038048,-2.156876128332317,-9.47460415725708,0.28462292065729056,-0.5975754382793841,1.1231594020463644,0.01666666753590107
313,5225.0,0.032422406307607884,-0.025104776770621538,0.030427286967635154,-0.7739256866455078,-2.1122841224119067,-9.517550149536133,0.2663873827904143,-1.2188067031405785,1.0084541656205224,0.01666666753590107
314,5241.0,0.0692209088075906,0.0010208674803376197,0.01034019222855568,-0.744147657366842,-2.0856487750731407,-9.537153260150552,0.3723707344504146,-1.9260909343853816,1.2727873956984816,0.01666666753590107
315,5258.0,0.05470160426348448,0.0035932021863758564,0.03135667677223682,-0.7646480821471661,-2.083852977697551,-9.515455223083496,0.5301618446973285,-1.8685194833147558,1.0168516697616414,0.01666666753590107
316,5274.0,0.016883038000762463,-0.004360094905644655,0.0525415036201477,-0.8068458864074199,-2.0944773936949668,-9.49330944224894,0.7544747552723617,-0.7446715128226894,0.5952619251414538,0.01666666753590107
317,5291.0,-0.004107216123118996,-0.0007524258024990558,0.06611702450811863,-0.8288426872253417,-2.096123407336324,-9.478494734954834,1.2104836907500949,0.056323340721511864,0.6604017060601299,0.01666666753590107
318,5308.0,-0.0017115531582385301,-0.007601268783956765,0.06681377460062503,-0.8264484124999493,-2.10525130116567,-9.477297634124755,0.5696683525477698,-0.10587828414065845,0.8840521950073778,0.01666666753590107
319,5324.0,-0.017811843283474443,-0.001724777965992689,0.030560557958483694,-0.8421602878294885,-2.0997145636960863,-9.513509349712729,0.08956381701912763,-0.5704091079075988,1.0396287498180472,0.01666666753590107
320,5341.0,-0.031371435949951405,0.010775514905899763,0.015366495957970619,-0.8568248460631817,-2.087145151110738,-9.528623332214355,0.29395528026062867,-0.28305557900575773,0.7969529823811404,0.01666666753590107
321,5357.0,-0.02688230783715844,0.02836187887042761,0.022419921600818633,-0.8515875299315899,-2.0724806659422814,-9.520991814422606,1.283354872283255,0.0971046927083655,0.08693730245835361,0.01666666753590107
322,5374.0,-0.023767025360837576,0.033290129052847624,0.025861001965403554,-0.8485947047911584,-2.0715826941892503,-9.516651739391683,1.8202915175852956,-0.42296629454220963,-0.09689375725688847,0.01666666753590107
323,5391.0,0.002758431862667203,0.02871113069951534,0.04791267477571964,-0.8248023988585919,-2.080261675207317,-9.49345849533081,1.3804221056728914,-1.6497480973124241,0.1592014642692422,0.01666666753590107
324,5408.0,-0.0006781915225088596,0.048425592733919616,0.08505728729963302,-0.8327331918578594,-2.062006033679098,-9.45560018157959,-0.790370707733658,-0.5767943742862087,0.44529855852891836,0.01666666753590107
325,5424.0,-0.033617169050127266,0.02217106140628457,0.05654255595505237,-0.8671497676573693,-2.0853492076046765,-9.484629876708984,-0.9289874759483627,-0.09453099205174006,0.36073622757081186,0.01666666753590107
326,5441.0,-0.02557933547981083,0.029024142171442505,0.0618611206293106,-0.8593686853270978,-2.0766705188475547,-9.479691835784912,-0.17865180197281544,0.4326448860395293,0.22941909062942606,0.01666666753590107
327,5458.0,-0.038963790775090455,0.03617518296986818,0.039350013613700864,-0.8714893312316387,-2.0696374053403734,-9.502287113952637,0.1345632643857137,0.2357015039640891,0.049496780089495686,0.01666666753590107
328,5475.0,-0.02417648294456303,0.010357874015718698,0.07139934882521629,-0.8569745567321777,-2.0952255817137657,-9.470264666748045,-0.06809840008762873,-0.22674611210599743,0.35777763508228566,0.01666666753590107
329,5491.0,-0.020519494806975125,0.016501637467741966,0.08303601060509681,-0.8544305713377892,-2.0874442801877855,-9.458891624340415,-0.9087784402981759,-0.44552790347464266,0.33886724250890043,0.01666666753590107
330,5508.0,0.004137538196146488,0.007591185781359672,0.03785889827311039,-0.8312368158202618,-2.091634133093059,-9.504980590820312,-1.4994369780216,0.14945393054998776,0.4835830494873092,0.01666666753590107
331,5525.0,0.010433058143779634,0.020231910037249324,-0.010714286237955093,-0.8251016740661113,-2.0745754462644457,-9.554510637664794,-1.6918382842989816,0.7551833873987506,0.3026640916175123,0.01666666753590107
332,5541.0,0.016060542636737226,0.004722498477250338,-0.018825111979246138,-0.8174700832091272,-2.0862471793577075,-9.56363794697225,-1.1887102216148577,0.9703934700791552,0.21085196842268686,0.01666666753590107
333,5558.0,0.06451653050892055,0.021186288152635097,-0.015628946286439894,-0.7670422838073223,-2.0696374053403734,-9.560645779418945,1.219875841189097,0.9104486349936556,0.16618722700585786,0.01666666753590107
334,5574.0,0.0691479897018522,-0.0028114041589200494,0.06859598184227943,-0.7604582292418927,-2.0979190585814416,-9.475651620483397,1.9125349298736105,1.0988710359143876,0.13931422124241294,0.01666666753590107
335,5591.0,0.07347001761943102,-0.043430853186547755,0.06685293756723404,-0.7531259866576642,-2.142211789294332,-9.476848721313477,0.7220755395009947,1.2806373107672362,0.48252138195819533,0.01666666753590107
336,5608.0,0.13434307705946266,-0.05678454801738262,0.04743687395751476,-0.6899789909362792,-2.154930985613912,-9.496600885009766,-0.4554878133884022,0.7962522476609795,1.1900441362154202,0.01666666753590107
337,5624.0,0.1417435625743121,-0.08249357429146766,0.015616671326756476,-0.6802524736266583,-2.1772269885741173,-9.529371520233154,-0.8089912975149937,0.9331642433475313,1.667641058503742,0.01666666753590107
338,5641.0,0.10306735656894743,-0.07566781992465257,0.005527823510766029,-0.7172128886900841,-2.167949457141012,-9.540145427703857,-0.585892559786636,0.4931617494680174,1.4082568340879857,0.01666666753590107
339,5658.0,0.18379509023167193,-0.032382512688636775,-0.03673603172302246,-0.6353612655639648,-2.1233574512206017,-9.58279214477539,-0.12459925902649481,0.1462890983650389,1.5461744684081162,0.01666666753590107
340,5674.0,0.06939684989638627,0.012741554281860589,-0.05087210910320282,-0.7471405555725097,-2.080261821337789,-9.596708441925049,1.554200047404587,1.3385275395730314,2.4021589615166787,0.01666666753590107
341,5691.0,0.046351489873602984,0.03213146053701639,-0.05207739323973656,-0.7680897470336407,-2.0664951617918907,-9.596858079528808,2.7604124153241907,0.6627858689672875,1.3747993658820898,0.01666666753590107
342,5708.0,-0.043242929399013516,0.04109188884496689,0.04678688561618328,-0.8533831811767071,-2.0661958865843713,-9.496451247406005,2.8862516071490942,0.608876573230552,1.5770393462154633,0.01666666753590107
343,5725.0,-0.02200958723425865,0.05377513706833124,0.11409575025737285,-0.8297404397826641,-2.064699364416301,-9.426869761657715,3.02676546040577,0.24926038996191643,1.074841363197225,0.01666666753590107
344,5741.0,-0.0671631725601852,0.07439663094505668,0.11450842271149157,-0.8728359966002405,-2.0497356040403245,-9.425372801098227,1.758027726554871,0.1858295970787716,0.5167816641958322,0.01666666753590107
345,5757.0,-0.06598090397305786,0.05448650020807981,0.06392389837801456,-0.8713396205626428,-2.0724806659422814,-9.475352345275878,1.5049623876167286,-0.9903567256409272,-0.38441988183740466,0.01666666753590107
346,5774.0,-0.16664141859598458,0.07474485986083745,-0.011198270362615585,-0.9732429017882793,-2.055122557775676,-9.549722234344483,1.2882722883205469,-0.006790488695462052,0.09676601137506807,0.01666666753590107
347,5791.0,-0.1312730950295925,0.12526698648259044,0.0034703064590692516,-0.9373298768859356,-2.0081364963255823,-9.534309561157226,1.945039373246878,1.126839059740003,0.4312561431626217,0.01666666753590107
348,5807.0,-0.16714841827005147,0.06674100162535905,0.06579846007823943,-0.9702501497130841,-2.071433202715963,-9.471162492370604,2.665240559429233,1.8338925586569068,0.10523464553309052,0.01666666753590107
349,5824.0,-0.16942761524841188,-0.02368219662159681,0.16042729332149028,-0.9681552232604473,-2.1698947459898887,-9.375095150756835,2.9455013637648393,1.719233105842845,-0.40384003063845497,0.01666666753590107
350,5841.0,-0.14102175110578535,-0.020229718080163002,0.19285949037075042,-0.9365816888671368,-2.1724384391233325,-9.341576327514648,2.2889613826284108,1.2935432733690926,-0.5837716793276412,0.01666666753590107
351,5858.0,-0.1702041525788605,-0.06436141301244497,0.16368775642216205,-0.9657610216002911,-2.218526674950868,-9.370306162914634,0.8101621947099749,1.0893426018571024,-0.5217247468033644,0.01666666753590107
352,5874.0,-0.15520853575989604,-0.06833849994987248,0.13009469889998435,-0.94974972493276,-2.221220297949016,-9.4042738989681,-0.5267260461014005,0.9168870487817447,-0.43223880994903086,0.01666666753590107
353,5891.0,-0.1291897128842771,-0.04859948799610138,0.030041502520442007,-0.9247603181701153,-2.1948842258177694,-9.50572877883911,-2.1754054322521292,0.5093609304668778,-0.2088169989368462,0.01666666753590107
354,5908.0,-0.10969298525378107,0.0058196460641920566,-0.04208557605743408,-0.9075519937377422,-2.13562758859843,-9.578751929473876,-2.0426035028986327,0.5884834426378922,-0.5208812718017207,0.01666666753590107
355,5924.0,-0.07202953648753464,0.04788096446320414,-0.08661328456997872,-0.8701425927978008,-2.091185366412252,-9.623792848205566,-0.35321130677658835,0.4349952181659541,-0.9805675704564181,0.01666666753590107
356,5941.0,-0.08234488653577864,0.06983399920463562,-0.082356796169281,-0.8806171519957482,-2.074874721471965,-9.618255672344565,2.0148291789690105,1.3306334417180834,-1.0947316211122424,0.01666666753590107
357,5958.0,-0.04098046435974538,0.06986001042872667,0.0037245734810829162,-0.8378208703856915,-2.082506385394186,-9.530568621063232,2.2908162058748927,1.8955512376155506,-1.2352367231890442,0.01666666753590107
358,5974.0,-0.05234415441714227,0.03275426861047744,0.04087503122389316,-0.8448539108276367,-2.125003464861959,-9.49256066970825,1.4515236278807835,2.0142104065188895,-1.1479129680938427,0.01666666753590107
359,5991.0,-0.012861235138773918,0.006452391009777784,0.11621464210748672,-0.8020574830871074,-2.1541827975951136,-9.41684404220581,0.19823740943846668,0.8772994857957623,-1.3316742985145698,0.01666666753590107
360,6008.0,0.004813903087750077,0.0240574596747756,0.15169687437713145,-0.7838016223631799,-2.134729616845399,-9.381828842926025,-0.19921280580866946,0.2526601166212903,-1.295168218061321,0.01666666753590107
361,6025.0,0.023626593976840374,0.03232552180439233,0.12176467745006084,-0.765246559496969,-2.1244046221859754,-9.412205276489257,-0.776147585839047,-0.3426615193145483,-1.2622550305549105,0.01666666753590107
362,6041.0,0.055813803289085626,0.031646453499048946,0.08320552195310592,-0.7359176622252911,-2.1205143367491663,-9.451559966278076,-0.8921959149321486,-0.9183457210563655,-1.1513919889806121,0.01666666753590107
363,6058.0,0.043703532648086546,0.04308174748793244,0.0655254883557558,-0.7499835969787091,-2.1077949942991134,-9.469366841125488,-0.277330919985935,0.06825845596587446,-1.060277265452642,0.01666666753590107
364,6074.0,0.047795039745420216,0.04680164479389787,0.049742812812328334,-0.7445966432433575,-2.104203691808879,-9.485228427124023,-0.00523910193894357,0.3565490014444767,-0.983122488092826,0.01666666753590107
365,6091.0,0.06260119840689003,0.01205985562801361,0.028396073400974272,-0.7281365068297833,-2.141313817541301,-9.50617769165039,0.7513510109441388,0.020965905987588827,-0.8205547544189724,0.01666666753590107
366,6108.0,0.06401968690268695,0.006487754584103823,0.011434417206048965,-0.7263408555846661,-2.1492446105405687,-9.522637828063964,0.9091675476374551,-0.4363642975685714,-0.7113775422700507,0.01666666753590107
367,6125.0,0.07843509268090128,0.0005336684852838516,0.03569149110615253,-0.7125742691040039,-2.156876274462789,-9.497947623443602,0.3709136896818069,-0.7904140367462053,-0.5764287990830544,0.01666666753590107
368,6141.0,0.06799392429590224,-0.017319237460941075,0.005445990446209907,-0.7249941902160644,-2.174084598895162,-9.528174419403076,-0.46192195830826,-1.0669690365702562,-0.6094848869535062,0.01666666753590107
369,6158.0,0.048538770784810184,0.015929682798683644,0.02539104636609554,-0.7459433816771954,-2.1387699782773852,-9.508571893310547,-0.40409029303851246,-0.9711251540939928,-0.2358058511119169,0.01666666753590107
370,6174.0,0.041594358474388714,0.03499386423081159,0.027292496073246,-0.7544726520262658,-2.119316943658143,-9.50662601993978,0.1104446924876351,-0.7733989149457928,-0.2239867690421652,0.01666666753590107
371,6191.0,0.007082870933040976,0.026537293791770934,0.02454933484494686,-0.7887397363524884,-2.128744258825481,-9.509170443725585,0.873406811577384,-0.4732322713261251,-0.44109273614535077,0.01666666753590107
372,6208.0,-0.004265913816168904,0.02119651728570461,0.04842997664809227,-0.8002618318419903,-2.1389196158811448,-9.484180963897705,1.6551031790651258,-0.9441621285717212,-0.9126484895149286,0.01666666753590107
373,6224.0,-0.00035889644026756285,0.01387786483541131,0.05828969188332557,-0.7972690067015588,-2.1505913489744066,-9.473257418823241,1.4904149384582477,-0.7644746324649364,-0.7724202235429241,0.01666666753590107
374,6241.0,-0.0241837164029479,0.01413008603081107,0.11465338414013385,-0.8198644309997558,-2.152985550634563,-9.41639512939453,0.6872968565775245,0.356959559846618,-0.571176223528756,0.01666666753590107
375,6258.0,-0.016917743987962603,-0.017526888862252236,0.11429799483120441,-0.809988276086375,-2.1832123465940354,-9.41729295501709,-1.0510519210397762,0.5025818609939343,-0.2332903404653688,0.01666666753590107
376,6273.0,-0.0243585615132004,-0.004467500802874565,0.12414426606297492,-0.8162730554442852,-2.166752356310934,-9.408314698791504,-1.1418746539807283,0.28546946390797545,-0.3203917942474275,0.01666666753590107
377,6291.0,0.036227863005176185,-0.0026033143661916254,0.11043138253092766,-0.7558194635253399,-2.161963952990621,-9.42267990875244,-0.9721670781075371,-0.575763922856036,-0.5896470293960273,0.01666666753590107
378,6308.0,0.009640373396128415,0.022700053716450928,0.04172141892015934,-0.783801695428416,-2.134280850164592,-9.491812481689452,-0.7081307478150617,-0.15642008317316608,-0.6593242437185604,0.01666666753590107
379,6324.0,0.04262465137019753,0.029898586918413638,-0.003387304350733757,-0.7514799730163068,-2.1251529563352465,-9.537302313232422,-0.921158691777353,-0.19856491167308352,-0.34242977313044387,0.01666666753590107
380,6341.0,0.040598333174362775,0.027060733143985268,-0.01859013417959213,-0.7546223626952618,-2.1266494785033165,-9.552714986419677,-0.9544001552507472,-0.16050891188677074,-0.04259690164560765,0.01666666753590107
381,6358.0,0.06177782626003027,0.021241817732155322,0.04158697888553142,-0.7338228088378905,-2.1302406348630787,-9.49300958251953,-0.9848328101496795,0.3211680879352818,0.2873222327616207,0.01666666753590107
382,6374.0,0.04814655659683049,-0.0002817395508289337,0.0460018727183342,-0.7469908449035138,-2.148945335333049,-9.489268642425536,-1.5963111518454773,-0.16936969495268714,0.3149373812670699,0.01666666753590107
383,6391.0,0.05416581688635051,-0.016381664349883793,0.044971945148706435,-0.742352079186961,-2.160467430822551,-9.491213931274414,-2.1247915960682193,-0.8322022013054011,0.416444157575935,0.01666666753590107
384,6408.0,0.07762158434092999,0.035602059257030486,0.07200315993726253,-0.7203552783690392,-2.101510361071676,-9.465625901031494,-1.5203560331803507,-0.10234302091494216,0.21994817957155713,0.01666666753590107
385,6423.0,0.07293364572040736,0.03726078624948859,0.09431026881337165,-0.7239465808592737,-2.0968714492246505,-9.444077501568197,-0.6552742617058602,0.6490913396814119,0.238121391962257,0.01666666753590107
386,6441.0,0.07331716514527797,0.0007594400651752949,0.1054839892566204,-0.7209539018493145,-2.1318867946349083,-9.433453816223144,-0.7976151905655143,0.4185148254723596,0.06617278032957437,0.01666666753590107
387,6458.0,0.04921316291503608,-0.03454655885472894,0.100033322635293,-0.7444470056395978,-2.1643581546507775,-9.439588957977294,-1.5629706506291179,-0.12746040125742936,0.244189934998534,0.01666666753590107
388,6474.0,0.06909910905882716,-0.03552738658562302,0.04038520188033581,-0.7251437547545879,-2.1588215633116663,-9.50064110031128,-2.809010491929301,-0.7978102778436829,0.011801072781901093,0.01666666753590107
389,6491.0,0.05015395089648664,-0.012729279322177172,-0.03179506818950176,-0.7445965701781213,-2.1279962169371545,-9.574562076568602,-3.688672689569359,-0.45561587943533993,0.5366551134421892,0.01666666753590107
390,6508.0,0.057806730671972034,0.001020721349865198,-0.0644277562469244,-0.738012661743164,-2.105101517431438,-9.609128363037108,-3.4731879052182726,-0.3221625207897533,1.0352513456120096,0.01666666753590107
391,6525.0,0.02937595128379762,0.021635493224859238,-0.12207096692025661,-0.7673416320800781,-2.076820010320842,-9.668384854125977,-1.0589745135901678,-0.5122330250128682,1.2609768246847661,0.01666666753590107
392,6541.0,0.023197701040282844,0.03428045526444912,-0.045991935846209524,-0.774823366137594,-2.066794290868938,-9.591620763397216,1.874908484953068,-0.8446338926467648,0.863417819998799,0.01666666753590107
393,6558.0,0.02347776009067893,0.008519114281237125,-0.029592005187273025,-0.7770680763244628,-2.1000139850340784,-9.573364975738524,3.1800449372211994,-1.265265329709888,0.5367015373842041,0.01666666753590107
394,6574.0,-0.0406450949255377,-0.0627158377625048,0.09345394424498081,-0.8427588382445276,-2.1812669116146863,-9.447968079265952,2.318778786893513,0.01007250131335896,0.6370361091571923,0.01666666753590107
395,6591.0,-0.05641060013845563,-0.06371259371489287,0.16285948890447616,-0.856525497790426,-2.18515748931244,-9.378087318310142,0.5858213764088798,0.7727559700293125,0.48554768936903986,0.01666666753590107
396,6608.0,-0.052983621364459395,-0.08274652613922953,0.14496961194872857,-0.8509889795165508,-2.202665235082805,-9.396493328094483,-0.9996583760734269,0.7000477525408805,0.6286903650433772,0.01666666753590107
397,6624.0,-0.00903181304372847,-0.03818199274763465,0.07398994984030723,-0.8060976983886211,-2.1505913489744066,-9.469216618999837,-2.225222057293852,0.026205301411223295,0.46018479574240245,0.01666666753590107
398,6641.0,0.011937471357360481,-0.0003111117757856846,-0.011917232286930084,-0.7855973466735333,-2.1071964438840745,-9.556305704388022,-2.6106790873484673,-0.35183190204893666,0.12462199074982626,0.01666666753590107
399,6657.0,0.024374708930402993,0.021538754852116107,-0.06606909371316433,-0.7742249618530272,-2.0801121837340295,-9.611522564697266,-2.2608141730587885,0.07866318194933107,0.057309342561226675,0.01666666753590107
400,6674.0,0.01216273148059845,0.09035159431546926,-0.04825578912496566,-0.7863455346923321,-2.008585263006389,-9.594314240264891,-0.6432582514085152,1.0331251290677257,0.09653273106644304,0.01666666753590107
401,6691.0,-0.019562267147377133,0.04476531666070223,0.00941430955529213,-0.8156745050292462,-2.056170167132467,-9.536404487609863,0.2753242317521264,1.5604368638904549,0.187882762615448,0.01666666753590107
402,6708.0,-0.012820464736968278,0.020566694949567317,0.06990414183139801,-0.8056487125121057,-2.0828055144712327,-9.475651620483397,1.0217841335594484,0.9919706779974602,0.005814892222060933,0.01666666753590107
403,6724.0,-0.011105039121210575,-0.03131488345712423,0.06741524762511253,-0.8034041484557092,-2.1366749056942758,-9.477745962414145,0.16799527946478074,-0.26913549339471304,-0.03367888906496596,0.01666666753590107
404,6741.0,-0.008810352312773466,0.006226473299413919,0.06267419057786465,-0.8025063958983868,-2.0956743483945726,-9.483133500671386,-1.5071106955541091,-0.5786873505425072,0.7146708673887604,0.01666666753590107
405,6758.0,0.034927228735387325,0.022275544694066046,0.05616553933620452,-0.7612064172606915,-2.074276171056926,-9.490615380859374,-1.5924320312837332,-1.1048788276196484,1.0364522849671682,0.01666666753590107
406,6775.0,0.032319530455023046,0.02543634681254625,0.06242986042797565,-0.7682393115721643,-2.0667944369994102,-9.484929151916504,-0.9683467612056785,-1.7203080068634757,0.7568263146984031,0.01666666753590107
407,6791.0,0.004053513174504041,0.01763020310625434,0.0757253953307867,-0.8025063958983868,-2.0730792163573204,-9.471461767578125,-0.357605839816404,-1.0656455806968606,0.4930500118420642,0.01666666753590107
408,6808.0,-0.007949059308320284,0.022295272307842968,0.07785480857491493,-0.8159737071715295,-2.0676921164914965,-9.469366256603598,-0.6174477135869775,0.04542310585811198,0.7938006899966209,0.01666666753590107
409,6825.0,-0.024732947783544658,-0.007937807261943817,0.01990998460650444,-0.8321346414428203,-2.096273044940084,-9.527725506591796,-1.1255613874783874,0.6260220555945765,1.1654610047320748,0.01666666753590107
410,6841.0,0.022067527966573835,-0.003963642933964729,-0.002861234650015831,-0.7846994479857384,-2.089239931432903,-9.55121861038208,-0.44261253327695793,-0.5666526639466505,0.4771350307456998,0.01666666753590107
411,6858.0,0.0262609610684216,-0.011281126340478658,-0.009685527712106705,-0.7817067689757794,-2.0958241321288047,-9.558101940155028,-0.12765507498898795,-0.3928669315304328,0.06050033490430523,0.01666666753590107
412,6874.0,0.020886282292753456,-0.008773089042305946,0.02101882263123989,-0.7879915483336896,-2.092831233923137,-9.527426231384277,-0.3009931498700921,-0.6275544192070395,-0.13074446826816255,0.01666666753590107
413,6891.0,0.0069528878778219215,-0.008118862917274237,0.023277999734878537,-0.8038531343322247,-2.089988265582174,-9.525480942535399,-0.9749706573184157,-0.4117671321809159,-0.33840161570657595,0.01666666753590107
414,6908.0,0.0001835398733615875,-0.001230564708262682,0.02815700394809246,-0.8117838542662561,-2.0808600794918832,-9.520991229900718,-1.0570324987100628,-0.45356095299051813,-0.34723646539798747,0.01666666753590107
415,6925.0,-0.019944836724177,0.020145985319465397,0.037381343889236446,-0.8321345683775841,-2.058264947454631,-9.51201355819702,-0.5109179467933762,-0.2947675391633313,-0.7444793603914299,0.01666666753590107
416,6941.0,-0.03304864844717085,-0.004438859230279923,0.028843232646584508,-0.8454523151122033,-2.0828056606017054,-9.520542901611327,-0.2769670523300731,-0.42540429854993395,-0.8440033274481551,0.01666666753590107
417,6958.0,-0.04784954641163349,-0.00031871056035161015,0.0483107341825962,-0.8604161485534161,-2.0778674735471605,-9.501239650726317,-0.8170812297000507,-0.08616272965800507,-0.6793679140856388,0.01666666753590107
418,6975.0,-0.07154102231822908,0.006326134281605482,0.06333586935698986,-0.8833105557981878,-2.069188492529094,-9.486724803161621,-1.2411423822218721,0.2967497347656631,-0.4953506650144478,0.01666666753590107
419,6991.0,-0.05105922917313874,0.015573708967864513,0.04855447981059551,-0.8623613643370568,-2.0572173380978405,-9.502136891826988,-0.9728319543345555,-0.1062806249714545,-0.29065400437483824,0.01666666753590107
420,7008.0,-0.030523367753252387,0.021767741302400827,0.03250409324169159,-0.8439560121398418,-2.048987562151998,-9.518447975158692,-0.4065011897329683,-1.1173653739177838,-0.5555538199887914,0.01666666753590107
421,7025.0,-0.037933278683573005,0.02773293331712484,0.030652912417054173,-0.854729919610545,-2.041954594775289,-9.520243626403808,-0.5359488825541805,-0.9374638474300543,-0.10009618216269886,0.01666666753590107
422,7041.0,-0.048349020366370676,0.03953603770509362,0.03005436200201511,-0.8668504924498498,-2.0287864856444298,-9.520991814422606,-0.5438393518711319,0.07621541290552775,-0.05426753382261736,0.01666666753590107
423,7058.0,-0.025861001965403554,0.03610708616971969,0.045803135275840755,-0.8438063745360821,-2.0308814120970666,-9.505579141235351,-0.48166526043441654,0.6551093766704278,-0.4097206634312773,0.01666666753590107
424,7074.0,0.03638707215487957,0.018595687137544153,0.019635843840241432,-0.7812577100340277,-2.0470419810421765,-9.53206441257894,-0.4922943688042786,0.04094047405017377,-0.6576240602237561,0.01666666753590107
425,7091.0,0.04846132163442671,0.023549217891693112,0.0402022465288639,-0.7698853252135217,-2.0415055358335374,-9.511564060863853,-0.15609746345658876,-0.44648631775341296,-0.6848152567529885,0.01666666753590107
426,7108.0,0.023834610704332588,-0.001806611030548811,0.05820902786254883,-0.7969698045592755,-2.066345231927186,-9.493457910808921,-0.11978246821754167,-1.0617688080126435,-0.5618097396599941,0.01666666753590107
427,7125.0,0.025279841076582668,-0.008771189346164464,0.01619651704132557,-0.7998129190307111,-2.0714330565854904,-9.535506661987304,-0.9908600252053926,-1.9050119033896644,-0.9114125454402736,0.01666666753590107
428,7141.0,0.03338723275177181,-0.004524930078536272,0.015678046125173567,-0.7956231391906737,-2.064549872943014,-9.536254850006102,-0.9742303288454098,-1.2571046410338977,-0.7538654810540555,0.01666666753590107
429,7158.0,0.014239610819891094,0.03501870641112327,0.06270984641313553,-0.8162730554442852,-2.022800981494039,-9.489567917633057,-0.2815696926961626,-0.2411759005838543,-0.6106661895148011,0.01666666753590107
430,7174.0,-0.004435205968469381,-0.005295622190088034,0.036488194441795345,-0.8337806550841778,-2.063053496905416,-9.515904135894775,0.25277003997824515,-0.20698023833906812,-0.7415431794611178,0.01666666753590107
431,7191.0,-0.00894837254397571,-0.02330298804566264,0.052930795198678965,-0.838120145593211,-2.0819078349791464,-9.49929436187744,0.06705532881574729,-0.3169808618089466,-0.8099330098468092,0.01666666753590107
432,7208.0,0.0044776568707078695,-0.015414719013869762,0.041355508217215536,-0.8248023257933557,-2.0735279830381272,-9.510966094970703,-0.6946634290407948,-0.3802029603964358,-0.6131572875711517,0.01666666753590107
433,7224.0,0.03532148874998092,-0.009287029913812875,-0.00417231724858284,-0.794575529833883,-2.0645497268125412,-9.55705389240682,-1.5947891935993281,-0.8796751109664573,-0.6244339298908428,0.01666666753590107
434,7241.0,0.06753777802623807,0.017929039922356605,-0.0089057755112648,-0.7644984445434063,-2.03342510523051,-9.562441430664062,-1.5128784701430675,-0.9309223404741804,-0.5845649417667147,0.01666666753590107
435,7258.0,0.05033376444280147,0.06151902919337153,0.001087210714817047,-0.7832031450133771,-1.986588681384176,-9.553014261627197,-0.5506142591975499,-0.3721183642966679,-0.5954662438471724,0.01666666753590107
436,7274.0,0.036031682845950125,0.05790770682841539,0.08714636853337288,-0.7977180656433105,-1.9921251265928148,-9.466523726654053,1.2520342927922212,-0.12471882735760971,-0.5820539401122359,0.01666666753590107
437,7291.0,0.011239844482019543,0.04067907026037573,0.13765782763063908,-0.8225577617369592,-2.0138224330075083,-9.415047806438803,1.972676453062865,-0.3482905556859908,-0.49980907099517363,0.01666666753590107
438,7308.0,0.009318667161092161,-0.02981879968047142,0.1264507894396782,-0.8254010223388671,-2.0880428306028245,-9.425373385620116,0.648089756472653,-0.7796938414004587,-0.14479587493817128,0.01666666753590107
439,7325.0,-0.011789806514978409,-0.028146920945495365,0.16036708756685256,-0.8454523881774395,-2.0856487750731407,-9.391704924774169,-0.5224336990948706,0.7153483367770611,0.5198256340489835,0.01666666753590107
440,7341.0,-0.013764686784520745,-0.0034941257260739803,0.12846914352476596,-0.8436567369323223,-2.059162919207662,-9.424325922393798,-0.016687779648354318,2.1777571517607295,1.0149422050017998,0.01666666753590107
441,7358.0,0.02471526599638164,0.008096358824521303,-0.005196984121203422,-0.7996632814269512,-2.047191910906881,-9.558550852966308,0.6012927153743106,1.9482943852732122,0.9386216712160773,0.01666666753590107
442,7374.0,0.04237674102373421,-0.019866876117140053,-0.02749941682219505,-0.7790133651733397,-2.078466170092672,-9.580397943115234,0.9732714343189636,0.38020973722475293,0.3366014339734545,0.01666666753590107
443,7391.0,0.052809068515151734,-0.0015690028823912142,-0.06345803443193436,-0.7688379350524396,-2.063053496905416,-9.615712417602538,0.8028155258448328,-0.09606276869482121,0.20346850724947665,0.01666666753590107
444,7408.0,0.022719416004046797,0.03792831024751067,-0.08004793470501899,-0.7980171947203576,-2.0272901096068323,-9.631574003601074,1.1605345173497916,1.7351709253842464,0.21641915956562907,0.01666666753590107
445,7424.0,0.034072803863137956,0.07843158554956317,0.020582184779644012,-0.7764694528441876,-1.9939209239684044,-9.530269345855713,2.8905255980222297,3.799089527691785,-0.24360963572334737,0.01666666753590107
446,7441.0,0.039811201384663576,-0.013633534685522317,0.002714519655704498,-0.7612064172606915,-2.0947766689024863,-9.547028757476806,4.249858961024177,3.812259839958862,0.07600319679358133,0.01666666753590107
447,7458.0,0.011366174275428057,0.024767946031689643,0.12244038475453853,-0.7797614801269024,-2.0682906669065355,-9.425523023223876,5.369071687669038,3.864152629064857,0.30726315680645805,0.01666666753590107
448,7475.0,-0.017036913388222455,-0.022191227411478758,0.050879707887768744,-0.7962216896057128,-2.1341313586913047,-9.493907408142089,7.208363083978017,3.167286357295027,1.4743624998048368,0.01666666753590107
449,7491.0,-0.04002250604778528,-0.016667787814885378,0.04755027120411396,-0.8108861017089337,-2.147299321691692,-9.493757770538329,8.787770051236242,3.7048990846031935,1.0635349455216208,0.01666666753590107
450,7508.0,-0.0064558981411159035,0.017637655760347842,-0.09012275399565696,-0.77093278843984,-2.1339814288266004,-9.627233928570151,10.569611872662596,2.137673759729686,0.5276112492900047,0.01666666753590107
451,7524.0,-0.038346608724817634,0.0034390345379710194,-0.047431028738617896,-0.7983166160583496,-2.1772268424436447,-9.578303016662597,13.128452598975018,2.120899668901781,1.3648502348606142,0.01666666753590107
452,7541.0,-0.06616188656315207,-0.0296093947134912,-0.03099953389763832,-0.8200139955382794,-2.2526440486080945,-9.552564764294027,13.21448310043956,2.196680617743073,1.7410116976199594,0.01666666753590107
453,7558.0,-0.06731945910044014,0.04582037867158651,-0.04822597850859165,-0.8159737802367657,-2.206406175176799,-9.563339256286621,12.216496840052317,3.9073096062224058,4.864189226863573,0.01666666753590107
454,7574.0,-0.05543057612515986,0.2169547978378832,0.06612520781457423,-0.7924806764464825,-2.064699364416301,-9.44288098526001,13.237691229465616,7.823034859275913,6.202629254637864,0.01666666753590107
455,7591.0,-0.08669796717874706,0.08344912145063281,-0.03689151454567909,-0.8046013223510236,-2.2415711581908164,-9.536853400421142,16.794004244430237,8.202665311081685,10.089562272132007,0.01666666753590107
456,7608.0,-0.12730740626901388,0.0897192877613008,-0.030505028378963468,-0.8315360910277814,-2.274790560095012,-9.521740002441407,19.74677698489679,9.416947440783952,9.262364038167286,0.01666666753590107
457,7624.0,-0.0404513259191066,0.14844561749622226,0.14208558094501494,-0.7243955667357891,-2.266859913226217,-9.337835387420654,23.03332570217623,11.894550750881887,6.940390003402675,0.01666666753590107
458,7641.0,-0.2295915765710175,-0.07210369770228862,-0.05135433966219425,-0.8774749084472656,-2.564040048162639,-9.513958847045897,23.707086297757556,13.475109458788905,5.700578334130192,0.01666666753590107
459,7658.0,-0.3361715443708002,-0.034299159964919085,-0.06482932278513907,-0.9512461740355939,-2.5849896049499512,-9.513958847045897,24.161855660622635,15.660155276167686,3.258851873308218,0.01666666753590107
460,7674.0,-0.2745693669386208,0.09768763629198074,0.015064298141002654,-0.84635017726738,-2.5139114509031173,-9.420136069488525,24.756491929763946,19.611708286512496,-3.246381868874479,0.01666666753590107
461,7691.0,-0.041414106536656614,1.6844982703134417,0.47861061492860313,-0.5084685045104473,-1.0161886748716236,-8.93725552215576,28.111175199108853,36.22760681059819,-29.225583741446254,0.01666666753590107
462,7708.0,-0.22367354816626756,0.7312082424253225,0.15483400335907935,-0.5639840920379385,-2.0491370536252855,-9.243264421844481,33.87240732061605,44.645982302273566,-37.55763588729643,0.01666666753590107
463,7725.0,-0.2361559948542155,0.13002747888267038,-0.104425420114398,-0.4402337937286123,-2.746149011938274,-9.477596909332275,40.97101267972655,40.863280105947936,-40.393199166510975,0.01666666753590107
464,7741.0,-0.0727801767583238,-0.27006372608244417,-0.3197749747127294,-0.1123778130241204,-3.2939725715637205,-9.648483052825927,47.30792558788098,34.23895966770854,-39.612300223608834,0.01666666753590107
465,7758.0,-0.21121742322966455,-0.05594692814946174,-0.08714753757715225,-0.1420060722682858,-3.1970068198055026,-9.376891386523843,47.8847009123427,28.68076687211102,-38.379157380287225,0.01666666753590107
466,7774.0,-0.2912776876932941,0.06397329047769308,-0.1385720198661089,-0.12539629368437452,-3.1892259566709398,-9.388413482013345,44.71434908077081,23.907555764992015,-37.5082160535568,0.01666666753590107
467,7791.0,-0.14180532096521928,0.12966653661578892,-0.006820201408863067,0.1337760360275395,-3.2610520064756274,-9.204508282470703,41.31843025185925,17.804891024612342,-36.68444742832907,0.01666666753590107
468,7808.0,-0.05314118654634803,0.09886574016064405,-0.03403027989566326,0.2952349556853995,-3.387046576580405,-9.19358473739624,40.08070776669914,15.790961936509891,-35.991739887990136,0.01666666753590107
469,7824.0,-0.11073796426206826,0.057144905762374396,0.03669277710318565,0.3064578125,-3.52097252420634,-9.08434928665161,39.57624365498034,13.42277825691556,-34.78805565055879,0.01666666753590107
470,7841.0,-0.06272712634149938,-0.09591302783489226,0.014770868152379988,0.41359833679199215,-3.764283560180664,-9.067440237426757,38.67944664714683,8.493552822548773,-34.07055452353271,0.01666666753590107
471,7857.0,0.10347396460846066,-0.17225860089063644,0.0019108020573854446,0.642244595336914,-3.9514799102231857,-9.031227937316894,33.98771798927879,3.2156426025148366,-32.23379371231122,0.01666666753590107
472,7875.0,0.12084865858368575,-0.2602630475580692,-0.11792846028804778,0.6931213806152343,-4.107103018133342,-9.120411949157715,26.658433236234867,-0.37581835247525786,-28.824644806977336,0.01666666753590107
473,7891.0,-0.012956548739410935,-0.5004802091702819,-0.05614274298250675,0.5823895538330078,-4.396352213940024,-9.036016340637207,18.290739455748273,-2.293476991443436,-23.145175172477067,0.01666666753590107
474,7908.0,-0.1510876564376056,-0.7368459560513496,0.06795125419795513,0.4622304849486798,-4.673032435552775,-8.89311242904663,10.166273834247711,-2.9562236935447013,-13.262127084994983,0.01666666753590107
475,7925.0,-0.20201018055379388,-0.781239809051156,0.0021101240217685697,0.4112041351318359,-4.7327378394529225,-8.952219282531738,4.143479191588052,-6.156335513103986,-7.255735568513933,0.01666666753590107
476,7941.0,-0.040480588546209034,-0.5946116142854094,0.130231477022171,0.5591957252502441,-4.54913249963969,-8.8236805809021,-0.48936821971431,-11.270412333394354,-6.514511913839924,0.01666666753590107
477,7958.0,-0.01916555944737047,-0.07990794171243906,0.37869478119313715,0.5460275795867666,-4.023754580578208,-8.582165488433837,-5.203939057879286,-16.77545857328636,-10.666299176779651,0.01666666753590107
478,7974.0,-0.14222444142643362,-0.07468085471391678,0.39171500628590583,0.39698856277465816,-3.99966321863383,-8.579023683276771,-9.407200760838345,-15.260123049311085,-11.52591861118713,0.01666666753590107
479,7991.0,-0.33557226330339907,-0.021034604722261426,0.33717619136869903,0.1822586013793945,-3.9178114493772385,-8.647108208465575,-13.108581017358512,-11.771600515632489,-11.64228625162393,0.01666666753590107
480,8008.0,-0.26511114517636597,0.11893939089626074,0.22846681032478808,0.24316110610961914,-3.728519880621135,-8.777592198944092,-16.685294953600312,-4.498923089769162,-11.548817674153243,0.01666666753590107
481,8025.0,-0.3007041808767244,0.11629384482353924,0.24240882643759248,0.21263503494262695,-3.688117727605998,-8.781632414245605,-18.199728892605147,-2.113355724963502,-10.679782823974902,0.01666666753590107
482,8041.0,-0.31230540601704265,0.02713876681625843,0.13885843559205532,0.20395605392456054,-3.732560095922649,-8.903736698913574,-17.97680517847427,-3.8379494620877495,-10.224766720526054,0.01666666753590107
483,8058.0,-0.2256902948161587,0.10963409467339515,0.15191373199820518,0.2914940521240234,-3.5910029227659104,-8.914959519195556,-18.480178167473163,-5.165082538577907,-11.608891749224444,0.01666666753590107
484,8073.0,-0.14667886355202644,0.10608809262961148,0.21503508182168005,0.36855741806030273,-3.547608017675578,-8.870966063690185,-19.845778869368832,-5.339444888370462,-9.927464807654678,0.01666666753590107
485,8091.0,-0.10330909290295094,-0.058572308216989034,0.2800181338638067,0.4041711677551269,-3.660734046117961,-8.826972608184814,-22.549978827823818,-7.639246421541918,-5.861217980106545,0.01666666753590107
486,8108.0,-0.06558131019622088,-0.167291041611135,0.3088812402546406,0.4251204322814941,-3.7126582946226,-8.821286963763832,-23.965054004972473,-9.28444518598029,-1.4696421987581232,0.01666666753590107
487,8124.0,-0.10625208755228668,-0.32955402592718597,0.20902327418625352,0.3456628281524405,-3.7998970176145432,-8.951919422802328,-22.04744082945096,-14.48526540872982,4.385723803333602,0.01666666753590107
488,8141.0,-0.13192849019840358,-0.21479835045635698,0.14927753827571869,0.27623101654052734,-3.6357445662900805,-9.032275400543213,-19.385746845748255,-16.628652194813398,7.074881123915281,0.01666666753590107
489,8158.0,-0.13783442630656062,-0.03707973059415817,0.15593173546791075,0.22520459365844725,-3.415627651159465,-9.043198945617675,-16.25482740380214,-14.922399223157928,6.265158355828861,0.01666666753590107
490,8175.0,-0.14729944313578308,0.15381664301007986,0.12363397845327853,0.1744774459838867,-3.1808462508603927,-9.093028267669677,-10.865205384467824,-7.015626244657659,2.4021946065664097,0.01666666753590107
491,8191.0,-0.14120551017485558,-0.03456336385905742,0.06046878948807716,0.1683423042297363,-3.3484403670713303,-9.164106129455567,-6.343448118529663,-2.4394978981618456,1.567661923371859,0.01666666753590107
492,8208.0,-0.20497999014481902,-0.13981179079413414,0.045371758121252055,0.09995790104521438,-3.444058503612876,-9.182810829925536,-1.8657889017506315,0.7093448139400315,4.917410487763136,0.01666666753590107
493,8224.0,-0.20241963813751934,-0.21682371880412102,0.1673182218790054,0.09651625442504883,-3.5245638266965744,-9.05980871963501,3.2745544782100775,0.24639864742138687,10.006800869958962,0.01666666753590107
494,8241.0,-0.12779615790033713,-0.3124608523070812,0.053742696103453634,0.15846624064790085,-3.632153263799846,-9.169493083190918,5.587327821275857,-3.5357421927318344,10.176322750064093,0.01666666753590107
495,8258.0,-0.06776223443187773,-0.32341946869492527,0.025934651723504065,0.19767127456665037,-3.65804086151123,-9.192537274169922,5.70549180146437,-6.195181360234788,8.164466624374741,0.01666666753590107
496,8274.0,-0.11316639698538929,-0.36995910155177114,0.07346680274903773,0.126443793443311,-3.716997785131633,-9.141212160602212,0.8879196829031917,-4.427779839374309,6.95320898781432,0.01666666753590107
497,8291.0,-0.32885475508403034,-0.4344210523292422,-0.039320787519216534,-0.10983398289335891,-3.7835865188047286,-9.253739054107665,-3.3622472769638714,-2.4740230103123793,9.162884894226988,0.01666666753590107
498,8308.0,-0.39082127231657504,-0.44902357817739247,0.0810626647055149,-0.18510171585083007,-3.7901708656311035,-9.136572810363768,-6.545203368875377,1.1709800110248567,12.510699554587799,0.01666666753590107
499,8324.0,-0.4694140763098374,-0.4472057151004672,0.1621563090711832,-0.27129297561645505,-3.773111886541545,-9.061155458068846,-8.251761564609382,5.0981560762218905,16.363333496504254,0.01666666753590107
500,8340.0,-0.5573384800110012,-0.4156830341115594,0.12174129657447337,-0.3607762626647949,-3.7346550223752852,-9.1041014503479,-6.686493515819907,6.464094445594653,18.831027909663792,0.01666666753590107
501,8358.0,-0.4849508508007973,-0.4083917080596089,0.24426702152490615,-0.2888005935226567,-3.721636550848186,-8.983642594799399,-4.071747691150932,7.663023163816378,19.361316966634412,0.01666666753590107
502,8374.0,-0.40868250769972797,-0.22519231869876383,0.2465261986285448,-0.21607669982910155,-3.544016715185344,-8.979452741894125,-3.0329320540092337,9.686496587510275,17.899350833286327,0.01666666753590107
503,8391.0,-0.4528502237934619,-0.24119886612594127,0.22025836942791938,-0.25019403695371,-3.556735911504924,-9.006687370300293,-3.8673384854258446,11.353234353496282,16.481208901200333,0.01666666753590107
504,8408.0,-0.5127192207574844,-0.26087270388901235,0.07740180411040783,-0.29987377620087935,-3.5664623557493087,-9.152883309173584,-4.85768944809466,8.549379373729872,15.668728871123344,0.01666666753590107
505,8424.0,-0.6088877211907878,-0.15121552060097454,-0.05861585509777069,-0.3910030768905766,-3.4480990111753345,-9.291896643066405,-2.268579884701681,6.753608235264922,16.1695132184268,0.01666666753590107
506,8441.0,-0.4162476822569966,-0.0924020971044898,0.19406886616051197,-0.2051531730209477,-3.399915410503745,-9.035566843304037,9.485250186257726,-1.2645035501740198,14.566669310805324,0.01666666753590107
507,8458.0,-0.4735498974729329,-0.0326473011046648,0.32659692968726156,-0.28865090111996977,-3.3783675955623385,-8.889820401763915,21.651539159494924,-10.517845015169424,13.015171350269418,0.01666666753590107
508,8474.0,-0.8387097820494324,-0.06872662248462438,0.5293991374015807,-0.7012018020851072,-3.483413485662639,-8.662520881652831,34.67201415165486,-17.239385512281135,16.111519789731517,0.01666666753590107
509,8491.0,-0.7750354014530777,-0.33538258595019577,0.5307254175692796,-0.7110779021995607,-3.8838437133237718,-8.611195183563233,46.49029730271709,-14.308175679024314,15.22326905609699,0.01666666753590107
510,8508.0,-0.6494600796736777,-0.10106441924870013,0.516131075027585,-0.6262333648847532,-3.7641330457940696,-8.58066911239624,47.633295309372876,-9.871481162122668,10.402273945544577,0.01666666753590107
511,8525.0,-0.5268080249298364,0.03150426854938269,0.31799335199296475,-0.5345055189174163,-3.739443133434653,-8.734646206665039,41.043784930238445,-9.48908704502398,6.3744896207600785,0.01666666753590107
512,8541.0,-0.5692255363553762,-0.15566694705188275,0.12244506092965603,-0.6121673730491195,-4.030937477819621,-8.885929824066162,24.14144705538264,-8.347416656388118,3.4564178698151875,0.01666666753590107
513,8558.0,-0.5621539905339479,-0.12685118693411349,0.1506798062890768,-0.6251858628425281,-4.045152757915854,-8.838943616485595,12.529081301191596,-6.118214519798853,2.6226319183959896,0.01666666753590107
514,8574.0,-0.6068526716992259,-0.12804185802340506,0.33874972429573535,-0.6842927163276356,-4.065653109630942,-8.642319805145263,4.486714980401411,-3.2741318602551828,3.5437661709027184,0.01666666753590107
515,8591.0,-0.4222214594369754,-0.18207506150603292,0.4161678950190544,-0.5131073250259273,-4.12131859049052,-8.564059338378906,-2.775906699456365,-2.287432487471386,5.801665560733204,0.01666666753590107
516,8608.0,-0.27969527685130013,-0.22504268109500408,0.35875264788269995,-0.38875845803525294,-4.152442919811606,-8.626458219146729,-6.917616872049384,-8.020853359338762,7.28445566020019,0.01666666753590107
517,8624.0,-0.11179538262682034,-0.1572606459841132,0.3265086668819189,-0.25573063742597585,-4.0655037642881275,-8.666561096954345,-8.563056827542821,-14.326432774675759,7.986466771962332,0.01666666753590107
518,8641.0,-0.06408022145088761,-0.10369856714457273,0.39227497825622554,-0.26964692544247953,-3.985148371069133,-8.611195183563233,-8.36579754921827,-14.466559228140447,7.675651329818086,0.01666666753590107
519,8658.0,-0.05998665026063099,-0.1410530230268836,0.36945758177042004,-0.2964320747817866,-4.001758145086467,-8.642170167541503,-8.245267762255994,-6.400335910353053,8.272178707585843,0.01666666753590107
520,8674.0,0.12306357642048969,-0.17172873179763554,0.24157003752589223,-0.13242924279477447,-4.013579808044433,-8.777592198944092,-7.520944130022712,-2.829700842472562,7.825496288698057,0.01666666753590107
521,8691.0,0.2877857356579974,-0.18591361675560472,-0.0024286884516477583,0.01541269145356491,-4.008492129516601,-9.029282648468017,-8.434639879636475,-6.392170419200303,6.29525259619876,0.01666666753590107
522,8707.0,0.38311672582123424,-0.22925445357114074,-0.38802667316198347,0.07092829724736512,-4.0295907393857835,-9.42297918395996,-10.638651424793085,-13.120531287085095,6.329708339240536,0.01666666753590107
523,8724.0,0.2612754760036245,-0.22888971191197632,-0.4817313772976398,-0.09157814043574035,-4.0060976355955,-9.524882392120361,-12.459018928232897,-15.432281382435843,7.406044126483819,0.01666666753590107
524,8741.0,0.25460542365517463,-0.2376812133938074,-0.48090310977995393,-0.14245492571406065,-3.9836519950315354,-9.535207386779785,-14.544758063947922,-15.072113554670022,8.546562774470887,0.01666666753590107
525,8758.0,0.24138697257656602,-0.15316314753741025,-0.27530981004238125,-0.21068967302851377,-3.849875977270305,-9.347262556457519,-14.69797969759882,-10.88519564062116,9.565062654256618,0.01666666753590107
526,8774.0,0.2680177898706868,-0.14697072263807057,0.4092366344511509,-0.21248532427363095,-3.8099230293273925,-8.674940802764892,-12.514615814303156,-4.846096909525856,10.157080399624874,0.01666666753590107
527,8791.0,0.34563016799185425,-0.16668635371625423,0.6785089178949594,-0.15068503045346587,-3.801243756048381,-8.416217385864257,-10.27472443166282,-0.9346066939228733,9.770682084125268,0.01666666753590107
528,8808.0,0.48404652237221596,-0.2915013586476445,0.9230430659234523,-0.02469016808774322,-3.8949171882629394,-8.183381274414062,-8.711586975007565,-0.07187322686239793,7.064326347213496,0.01666666753590107
529,8825.0,0.6218161398142575,-0.4079191221117973,1.1039520062595605,0.10788878537602722,-3.9885903282165525,-8.011148392486572,-9.941487186020714,-0.24130834222072908,3.6890321282744307,0.01666666753590107
530,8841.0,0.6874940422527491,-0.5377028553664684,1.0487217019468544,0.1705869048187509,-4.090044331304728,-8.077288213348389,-13.5979358968596,-0.946142349822496,-0.3902980867114204,0.01666666753590107
531,8858.0,0.7624819170892239,-0.7999222976893187,0.9292617943078278,0.24271222983095794,-4.299237701360881,-8.217049735260009,-20.42606149596936,-4.94946243110389,-7.395316460618667,0.01666666753590107
532,8874.0,0.9326892845384777,-1.0196785628139973,0.23238953672647475,0.39938283750005066,-4.462492327062785,-8.934562045288086,-27.76934301416993,-14.957699348335847,-13.80400355789253,0.01666666753590107
533,8891.0,0.9736563779599964,-1.1034963714465498,-0.11180091731846332,0.4064157683441415,-4.471919496099651,-9.304316564178466,-35.32498706649724,-25.092644812408,-19.76170436332785,0.01666666753590107
534,8908.0,0.8601944686267524,-1.1859861463457346,-0.47870472295284267,0.23059162045903503,-4.434360457555949,-9.71028338317871,-40.76658853296265,-27.698676169469685,-24.366115882846454,0.01666666753590107
535,8924.0,0.6751023973871022,-1.0447677036240697,-0.6006266367912292,0.004189999035745859,-4.196885288128256,-9.862614463806151,-41.38947446451113,-22.631507380851676,-24.408977027435576,0.01666666753590107
536,8941.0,0.6757257899824529,-1.0235019204944371,-0.6303080738276243,-0.02454049395136535,-4.080767092132568,-9.921870954895018,-39.606395525071356,-17.124914956886307,-22.184567122322722,0.01666666753590107
537,8958.0,0.6591379355359822,-0.9898848975747823,-0.69570321380198,-0.060303881249949336,-3.95806425704956,-10.014646269226073,-35.858315557648524,-11.955283939207995,-19.029629320160254,0.01666666753590107
538,8974.0,0.6469813415352255,-0.9459113158136606,-0.5529635528624057,-0.08469481066279112,-3.8124665763303636,-9.90271734161377,-28.28910333453498,-6.355873086403562,-14.916928241632748,0.01666666753590107
539,8991.0,0.6235887755099684,-0.9507529106259346,-0.35743572006523605,-0.10803820378407836,-3.7587463843196627,-9.724947868347167,-21.237706535420315,-2.1919460159877846,-12.518945300463297,0.01666666753590107
540,9008.0,0.537206450151652,-0.9547998479291796,-0.004815291327238082,-0.18704700469970703,-3.7211876380369064,-9.3852705078125,-14.17580149026759,0.8899172997920088,-11.30062226009332,0.01666666753590107
541,9024.0,0.4563135159898549,-0.9601058453828096,0.41971886549890036,-0.24779979876093566,-3.6944025069639084,-8.971672171020508,-8.214101609073225,4.780004584022227,-10.919937397834428,0.01666666753590107
542,9041.0,0.402660470931232,-0.9842635505616665,0.5557762721955776,-0.27997188356928526,-3.7006872863218185,-8.842385281372069,-8.579885559884087,6.279318191751944,-9.990463911237937,0.01666666753590107
543,9058.0,0.2598196146395057,-1.0362100108981132,0.7917039199203252,-0.3993827644348144,-3.7300162566587325,-8.614636848449706,-11.270469536228653,6.605049913269852,-9.817335691251039,0.01666666753590107
544,9074.0,0.13898279262408614,-1.0450354146495462,1.105107606035471,-0.49036235445551574,-3.701585111944377,-8.313865264892577,-11.775361388544226,5.471534770502984,-11.016522249113933,0.01666666753590107
545,9091.0,0.08660477246996015,-1.0394967774838209,1.2324468687474728,-0.5238812142303213,-3.6706101279661056,-8.194903369903564,-10.034684263471892,2.8788683860997217,-11.416699617490394,0.01666666753590107
546,9108.0,-0.03322524712309241,-1.002890217359364,1.2703484371185303,-0.6388028939178213,-3.613448563329875,-8.163031144824624,-8.13540587700363,-5.567682489675608,-10.716856237016085,0.01666666753590107
547,9124.0,-0.06270970028266311,-1.1636249691948295,1.3405670517265795,-0.6940192062377929,-3.753808635656535,-8.096741101837157,-5.351814360957355,-13.81836659194342,-8.801130755026433,0.01666666753590107
548,9141.0,-0.14506613112576305,-1.1540127989798783,1.2981973980307577,-0.809988276086375,-3.7358524154663084,-8.139088543701172,-2.425148097602472,-17.691962384422645,-8.608915571403934,0.01666666753590107
549,9158.0,-0.4057885398238897,-1.1966460720479488,1.3524609031379222,-1.1106102951049803,-3.7768528266355395,-8.08237589187622,-0.19262343416775254,-18.584707382531036,-7.540155744610665,0.01666666753590107
550,9174.0,-0.50828642594181,-1.3086238072380423,1.281037004393339,-1.267131155572459,-3.8928219695493578,-8.148515712738037,1.1601253463298256,-17.636035087951285,-6.71907650636863,0.01666666753590107
551,9191.0,-0.4668772878412157,-1.3001260280057787,1.2616606882721184,-1.2629412296019493,-3.887584361156821,-8.163928385925292,0.19223972961482858,-16.427871953971703,-7.61525025944037,0.01666666753590107
552,9208.0,-0.623408450507,-1.4052990516170858,1.1735890215873717,-1.4525321466308085,-3.994126627294719,-8.248772907257079,-0.21743240212074458,-14.730735577310908,-8.90333172935098,0.01666666753590107
553,9225.0,-0.6645622986722737,-1.4572496036067604,1.1735387527048586,-1.5207668939452617,-4.047248268890381,-8.246079430389404,-0.5405677446195487,-12.687767086178502,-10.51998457192693,0.01666666753590107
554,9241.0,-0.5747277870334685,-1.4641662511274218,1.0368342802762984,-1.4609118524413556,-4.054729856817424,-8.379855448150634,-1.3118851060549273,-11.786638884637563,-14.028095234371479,0.01666666753590107
555,9258.0,-0.6119664345163852,-1.4707909299641846,0.9533025951087474,-1.515978417559713,-4.059667897741496,-8.462156130218505,-3.0621633426661843,-11.542886508632733,-15.611981951951586,0.01666666753590107
556,9274.0,-0.5709869930699467,-1.5179989636018871,0.7288748310416936,-1.4978723405700176,-4.098124761907756,-8.686762173461913,-7.324758045171497,-15.972265892933295,-15.966257034010976,0.01666666753590107
557,9291.0,-0.4368204416211694,-1.6409227479591966,0.30578268971741196,-1.4151227456908673,-4.1895533378049725,-9.113229344177245,-14.854954520198637,-24.307309661639934,-17.009226920271924,0.01666666753590107
558,9307.0,-0.37892318312153217,-1.8397750490039586,-0.11295417900681495,-1.4137760803222656,-4.349366590881347,-9.536404487609863,-20.30788727049709,-30.334779141899645,-18.03842373007154,0.01666666753590107
559,9324.0,-0.39128567495793104,-1.959955379872024,-0.30754093156158924,-1.4924853868346661,-4.415655757085979,-9.737667064666747,-27.75330572999874,-31.712373655977856,-17.617404039442786,0.01666666753590107
560,9341.0,-0.4731177896659821,-2.2330985133998094,-0.8441144906371831,-1.6650174709044396,-4.580706034033001,-10.290727648162841,-42.35491145840868,-31.570507211822108,-14.77410044835132,0.01666666753590107
561,9358.0,-0.522365877763927,-2.446814037055522,-1.7533599173545837,-1.7872715393066405,-4.676923159381002,-11.218929704284667,-56.24295707894363,-34.19949824977879,-14.188550892127065,0.01666666753590107
562,9374.0,-0.4992300629787147,-2.499149058318138,-2.1952222256004807,-1.8445825954161583,-4.575020097351074,-11.684751564788817,-71.42298079231068,-36.50769920808207,-15.352643084260785,0.01666666753590107
563,9391.0,-0.534779369135201,-2.422412001726776,-3.0020418815881014,-1.9840449882507323,-4.240130994006246,-12.529156562805175,-86.13664943443302,-30.394218863151682,-17.45811207516704,0.01666666753590107
564,9408.0,-0.21756913034394382,-1.887054394312203,-2.9917730010300874,-1.7166425903320313,-3.4946364520750937,-12.548908726501464,-84.49105878789102,-13.825082375444836,-17.12264733408186,0.01666666753590107
565,9424.0,-0.0330111659809947,-1.6741900806583463,-2.486663086232543,-1.531989641162008,-3.091961514227092,-12.073809334564208,-69.54313514780476,8.978124862083558,-14.072416331895692,0.01666666753590107
566,9441.0,0.4499975377760827,-1.2032974927611648,-1.6577525944679974,-0.982221084948629,-2.4386437362119553,-11.280281121826171,-42.0606737391537,22.66960959113659,-7.859587470392882,0.01666666753590107
567,9458.0,0.7230737435474991,-1.2744384829111397,-1.639673916941881,-0.6566098052978515,-2.4295160615783185,-11.279832209014891,-23.828749042348406,15.428786033128087,-5.739241900587519,0.01666666753590107
568,9474.0,0.7440344062507153,-1.2072330786444245,-1.5904700333118438,-0.6121672908507287,-2.324769665881246,-11.238382592773437,-8.01478132116662,1.0226876395205942,-7.57590068585828,0.01666666753590107
