,ms,accelX,accelY,accelZ,accelWithGX,accelWithGY,accelWithGZ,rotRateAlpha,rotRateBeta,rotRateGamma,interval
0,164.0,-0.5,-0.4,-0.4,-1.4000000000000001,1.1,9.9,-5.6,-5.0,14.700000000000001,16
1,181.0,-0.4,-0.4,-0.5,-1.2000000000000002,1.1,9.4,-5.6,-5.0,14.700000000000001,16
2,198.0,-0.1,-0.2,-1.0,-0.9,1.3,9.200000000000001,-0.5,-6.600000000000001,19.5,16
3,216.0,0.30000000000000004,0.0,-0.7000000000000001,-0.5,1.4000000000000001,9.3,2.9,-10.9,22.4,16
4,231.0,0.4,0.0,-0.7000000000000001,-0.30000000000000004,1.5,9.200000000000001,0.6000000000000001,-8.8,21.900000000000002,16
5,247.0,0.5,0.1,-0.6000000000000001,-0.2,1.6,9.4,0.6000000000000001,-8.8,21.900000000000002,16
6,264.0,0.5,0.1,-0.4,-0.2,1.6,9.4,-1.6,-7.300000000000001,19.799999999999997,16
7,281.0,0.4,0.0,-0.30000000000000004,-0.2,1.5,9.600000000000001,-7.200000000000001,-1.8000000000000003,14.600000000000001,16
8,301.0,0.30000000000000004,0.0,0.0,-0.2,1.4000000000000001,9.8,-7.200000000000001,-1.2000000000000002,13.6,16
9,314.0,0.30000000000000004,0.0,0.1,-0.2,1.4000000000000001,10.100000000000001,-7.200000000000001,-1.2000000000000002,13.6,16
10,331.0,0.4,-0.1,0.7000000000000001,-0.1,1.3,10.5,1.2000000000000002,-3.5,12.7,16
11,348.0,0.4,-0.2,0.7000000000000001,-0.1,1.3,10.5,1.2000000000000002,-3.5,12.7,16
12,364.0,0.5,-0.1,0.2,0.0,1.2000000000000002,9.8,8.600000000000001,-3.0,11.6,16
13,381.0,0.30000000000000004,-0.4,-0.4,0.0,1.2000000000000002,9.3,12.7,-2.2,10.200000000000001,16
14,398.0,0.5,-0.2,-0.4,0.30000000000000004,1.3,9.5,8.5,-4.5,9.899999999999999,16
15,417.0,0.7000000000000001,-0.2,0.2,0.4,1.3,10.100000000000001,6.699999999999999,-2.3,7.699999999999999,16
16,431.0,0.7000000000000001,-0.30000000000000004,0.30000000000000004,0.4,1.2000000000000002,10.0,6.699999999999999,-2.3,7.699999999999999,16
17,447.0,0.6000000000000001,-0.30000000000000004,-0.1,0.30000000000000004,1.2000000000000002,9.600000000000001,5.300000000000001,3.9,4.800000000000001,16
18,465.0,0.30000000000000004,-0.30000000000000004,-0.8,0.1,1.2000000000000002,9.0,2.4000000000000004,-0.5,4.9,16
19,484.0,0.2,-0.2,-0.7000000000000001,0.0,1.3,9.3,-0.4,-6.500000000000001,5.7,16
20,499.0,0.1,-0.1,-0.2,-0.1,1.4000000000000001,9.700000000000001,-0.4,-6.500000000000001,5.7,16
21,515.0,0.0,0.0,0.0,0.0,1.5,10.100000000000001,1.5,-9.2,7.1000000000000005,16
22,531.0,0.0,0.0,0.30000000000000004,0.0,1.6,10.0,1.5,-9.2,7.1000000000000005,16
23,547.0,0.2,0.2,0.2,0.2,1.9000000000000001,10.0,3.8,-6.1000000000000005,8.8,16
24,586.0,0.30000000000000004,0.6000000000000001,-0.8,0.30000000000000004,2.3000000000000003,8.9,10.0,3.2,6.699999999999999,16
25,598.0,0.30000000000000004,0.6000000000000001,-1.0,0.2,2.2,8.8,10.0,3.2,6.699999999999999,16
26,614.0,0.30000000000000004,0.6000000000000001,-0.9,0.30000000000000004,2.4000000000000004,8.9,9.2,0.7,5.4,16
27,631.0,0.30000000000000004,0.7000000000000001,-0.7000000000000001,0.30000000000000004,2.5,9.0,6.500000000000001,-1.2000000000000002,3.0,16
28,647.0,0.30000000000000004,0.7000000000000001,-0.5,0.30000000000000004,2.5,9.200000000000001,6.500000000000001,-1.2000000000000002,3.0,16
29,664.0,0.1,0.6000000000000001,-0.4,0.0,2.4000000000000004,9.1,6.2,0.5,0.8,16
30,681.0,-0.1,0.5,-0.7000000000000001,-0.1,2.3000000000000003,8.9,3.1,3.0,1.3,16
31,698.0,-0.1,0.5,-0.7000000000000001,-0.1,2.3000000000000003,8.9,3.1,3.0,1.3,16
32,714.0,0.2,0.5,-0.2,0.30000000000000004,2.5,9.5,1.9,0.5,2.3,16
33,731.0,0.4,0.7000000000000001,-0.1,0.5,2.7,9.5,1.9,-0.2,2.7,16
34,747.0,0.2,0.7000000000000001,-0.1,0.2,2.7,9.4,2.7,0.30000000000000004,0.0,16
35,764.0,0.2,0.7000000000000001,-0.2,0.1,2.6,9.5,2.7,0.30000000000000004,0.0,16
36,781.0,0.0,0.6000000000000001,0.1,0.0,2.5,9.700000000000001,1.3,1.9,0.4,16
37,801.0,0.0,0.5,0.2,-0.1,2.6,9.700000000000001,2.0,12.100000000000001,4.1,16
38,814.0,-0.1,0.6000000000000001,0.1,-0.1,2.6,9.700000000000001,2.0,12.100000000000001,4.1,16
39,831.0,0.0,0.5,-0.1,-0.1,2.6,9.3,5.6,12.9,6.4,16
40,848.0,-0.1,0.5,-0.5,-0.2,2.7,9.0,10.9,8.4,9.5,16
41,866.0,-0.1,0.5,-0.5,-0.2,2.7,9.0,8.0,5.9,10.700000000000001,16
42,883.0,-0.1,0.4,-0.2,-0.2,2.6,9.3,4.800000000000001,4.6,12.0,16
43,898.0,-0.1,0.30000000000000004,0.2,-0.2,2.5,10.0,4.800000000000001,4.6,12.0,16
44,914.0,0.0,0.2,0.9,-0.1,2.5,10.600000000000001,5.2,5.0,16.0,16
45,931.0,0.1,0.2,1.3,0.1,2.6,11.0,5.2,5.0,16.0,16
46,947.0,0.4,0.2,1.5,0.30000000000000004,2.6,11.0,8.5,8.600000000000001,17.400000000000002,16
47,964.0,0.5,0.1,1.0,0.30000000000000004,2.5,10.4,13.399999999999999,19.6,14.300000000000002,16
48,981.0,0.4,-0.1,0.0,0.30000000000000004,2.5,10.4,11.700000000000001,22.2,12.9,16
49,997.0,0.30000000000000004,-0.1,-0.5,-0.1,2.3000000000000003,8.9,11.700000000000001,22.2,12.9,16
50,1014.0,0.1,-0.2,-0.8,-0.30000000000000004,2.2,8.8,7.400000000000001,19.5,11.6,16
51,1031.0,0.0,-0.2,-0.7000000000000001,-0.30000000000000004,2.3000000000000003,9.1,-1.5,5.300000000000001,10.5,16
52,1047.0,0.0,-0.2,-0.1,-0.30000000000000004,2.3000000000000003,9.1,-1.5,5.300000000000001,10.5,16
53,1065.0,0.2,-0.1,0.7000000000000001,-0.1,2.3000000000000003,10.700000000000001,-3.3000000000000007,-0.2,9.5,16
54,1081.0,0.30000000000000004,-0.2,1.6,-0.1,2.2,11.200000000000001,-1.6,3.5,4.6,16
55,1097.0,0.2,-0.30000000000000004,1.3,-0.2,2.1,10.9,2.5,9.3,2.8,16
56,1114.0,0.1,-0.4,0.8,-0.4,2.0,9.9,2.5,9.3,2.8,16
57,1131.0,-0.2,-0.6000000000000001,-0.1,-0.6000000000000001,1.8,9.600000000000001,5.2,8.4,1.6,16
58,1148.0,-0.1,-0.8,0.0,-0.4,1.7000000000000002,9.700000000000001,6.1000000000000005,1.4,2.9,16
59,1164.0,0.0,-0.8,0.1,-0.4,1.7000000000000002,9.700000000000001,6.1000000000000005,1.4,2.9,16
60,1181.0,-0.1,-0.9,-0.2,-0.6000000000000001,1.6,9.1,7.200000000000001,4.7,2.2,16
61,1197.0,-0.5,-1.0,-0.9,-1.0,1.4000000000000001,8.700000000000001,6.600000000000001,6.500000000000001,0.9000000000000001,16
62,1215.0,-0.7000000000000001,-1.2000000000000002,-0.9,-1.2000000000000002,1.3,8.700000000000001,4.7,1.8000000000000003,4.300000000000001,16
63,1231.0,-0.7000000000000001,-1.1,-0.8,-1.0,1.5,8.9,4.7,1.8000000000000003,4.300000000000001,16
64,1247.0,-0.5,-1.0,-0.2,-0.8,1.5,9.5,5.2,-5.300000000000001,6.9,16
65,1264.0,-0.2,-0.8,0.1,-0.6000000000000001,1.7000000000000002,9.600000000000001,9.700000000000001,-9.4,8.2,16
66,1283.0,0.0,-0.5,-0.4,-0.4,2.0,9.1,8.3,-8.8,5.2,16
67,1298.0,0.0,-0.5,-0.6000000000000001,-0.4,2.1,8.9,8.3,-8.8,5.2,16
68,1314.0,-0.1,-0.30000000000000004,-0.8,-0.4,2.2,8.9,-0.8,-12.200000000000001,-1.5,16
69,1332.0,-0.2,-0.30000000000000004,0.0,-0.5,2.1,9.600000000000001,-3.5,-12.5,-4.6,16
70,1347.0,-0.30000000000000004,-0.5,0.4,-0.7000000000000001,2.0,10.100000000000001,-3.5,-12.5,-4.6,16
71,1365.0,-0.5,-0.5,0.4,-0.8,1.9000000000000001,9.8,-2.8,-7.500000000000001,-5.4,16
72,1381.0,-0.7000000000000001,-0.7000000000000001,-0.1,-0.9,1.8,9.3,1.8000000000000003,-1.5,-3.8,16
73,1397.0,-0.7000000000000001,-0.7000000000000001,-0.4,-0.9,1.8,9.3,1.8000000000000003,-1.5,-3.8,16
74,1414.0,-0.7000000000000001,-0.6000000000000001,-0.8,-1.0,1.9000000000000001,8.700000000000001,3.4,-3.1,-2.3,16
75,1430.0,-0.7000000000000001,-0.5,-0.9,-0.9,2.0,8.5,3.6000000000000005,-9.100000000000001,-0.1,16
76,1448.0,-0.5,-0.4,-0.9,-0.7000000000000001,2.1,8.6,0.7,-8.5,-0.6000000000000001,16
77,1464.0,-0.5,-0.4,-0.8,-0.8,2.0,8.700000000000001,0.7,-8.5,-0.6000000000000001,16
78,1481.0,-0.6000000000000001,-0.30000000000000004,-0.8,-0.9,2.1,8.700000000000001,-3.7000000000000006,-4.300000000000001,-1.0,16
79,1498.0,-0.9,-0.2,-0.7000000000000001,-1.1,2.2,8.8,-7.6,-3.8,-0.4,16
80,1514.0,-1.0,-0.30000000000000004,-0.5,-1.3,2.1,9.1,-7.6,-3.8,-0.4,16
81,1530.0,-0.9,-0.2,-0.2,-1.2000000000000002,2.1,9.200000000000001,-4.300000000000001,-7.699999999999999,1.7,16
82,1548.0,-0.7000000000000001,-0.1,-0.2,-1.0,2.3000000000000003,9.200000000000001,3.4,-10.5,6.0,16
83,1564.0,-0.6000000000000001,0.0,-0.2,-1.0,2.3000000000000003,9.200000000000001,3.4,-10.5,6.0,16
84,1581.0,-0.4,0.2,-0.30000000000000004,-0.6000000000000001,2.7,9.0,3.4,-8.600000000000001,5.9,16
85,1597.0,-0.4,0.30000000000000004,-0.4,-0.8,2.7,9.0,0.9000000000000001,-5.8,4.6,16
86,1614.0,-0.5,0.2,-0.4,-0.8,2.7,9.0,-0.5,-6.600000000000001,4.800000000000001,16
87,1631.0,-0.7000000000000001,0.1,-0.30000000000000004,-1.0,2.5,9.1,-0.5,-6.600000000000001,4.800000000000001,16
88,1647.0,-0.4,0.2,0.0,-0.5,2.7,9.600000000000001,1.8000000000000003,-13.100000000000001,7.9,16
89,1664.0,0.1,0.4,0.7000000000000001,0.0,2.9000000000000004,10.100000000000001,5.2,-16.900000000000002,9.8,16
90,1681.0,0.5,0.6000000000000001,0.9,0.30000000000000004,3.1,10.200000000000001,5.500000000000001,-7.500000000000001,5.500000000000001,16
91,1697.0,0.5,0.7000000000000001,0.6000000000000001,0.0,3.1,9.600000000000001,5.500000000000001,-7.500000000000001,5.500000000000001,16
92,1714.0,-0.2,0.4,-0.30000000000000004,-0.6000000000000001,2.8000000000000003,8.8,3.5,1.0,0.0,16
93,1731.0,-0.9,0.1,-0.9,-1.1,2.6,8.4,-4.7,-2.2,0.0,16
94,1747.0,-1.0,-0.1,-0.9,-1.4000000000000001,2.2,8.700000000000001,-4.7,-2.2,0.0,16
95,1764.0,-1.2000000000000002,-0.1,-0.1,-0.9,2.4000000000000004,9.4,-7.9,-12.100000000000001,5.2,16
96,1780.0,-0.1,0.1,0.5,0.0,2.6,10.100000000000001,-12.0,-20.7,12.7,16
97,1797.0,0.5,0.4,1.5,0.5,2.7,10.9,-12.7,-19.400000000000002,9.8,16
98,1814.0,0.7000000000000001,0.4,1.8,0.8,2.8000000000000003,11.3,-12.7,-19.400000000000002,9.8,16
99,1832.0,0.7000000000000001,0.5,1.9000000000000001,0.7000000000000001,2.8000000000000003,11.3,-13.000000000000002,-14.700000000000001,6.1000000000000005,16
100,1847.0,0.4,0.30000000000000004,1.7000000000000002,0.4,2.6,11.200000000000001,-14.600000000000001,-5.4,-2.9,16
101,1864.0,0.2,0.2,1.6,0.1,2.2,11.0,-14.600000000000001,-5.4,-2.9,16
102,1882.0,-0.1,-0.2,1.5,0.0,1.9000000000000001,11.0,-15.399999999999999,-2.8,-3.9,16
103,1898.0,-0.2,-0.4,1.5,0.0,1.7000000000000002,11.100000000000001,-8.2,-6.4,0.9000000000000001,16
104,1915.0,0.1,-0.5,1.6,0.2,1.7000000000000002,11.100000000000001,0.6000000000000001,-6.2,3.6000000000000005,16
105,1931.0,0.2,-0.4,1.5,0.6000000000000001,1.8,10.9,0.6000000000000001,-6.2,3.6000000000000005,16
106,1947.0,0.6000000000000001,-0.4,0.9,0.8,1.8,10.100000000000001,10.1,-0.9000000000000001,3.9,16
107,1965.0,0.7000000000000001,-0.5,-0.2,0.8,1.7000000000000002,9.200000000000001,22.000000000000004,15.299999999999999,-1.7,16
108,1980.0,0.6000000000000001,-0.6000000000000001,-0.7000000000000001,0.5,1.6,8.3,22.000000000000004,15.299999999999999,-1.7,16
109,1997.0,0.30000000000000004,-0.9,-1.5,0.4,1.4000000000000001,8.0,22.3,15.6,-3.3000000000000007,16
110,2015.0,0.5,-0.9,-1.3,0.7000000000000001,1.6,8.200000000000001,15.299999999999999,-2.5,0.9000000000000001,16
111,2036.0,1.2000000000000002,-0.5,-0.7000000000000001,1.3,2.0,8.700000000000001,10.700000000000001,-8.8,-1.0,16
112,2052.0,1.5,-0.2,-0.2,1.6,2.3000000000000003,9.200000000000001,6.600000000000001,-8.100000000000001,-6.699999999999999,16
113,2064.0,1.4000000000000001,-0.1,-0.1,1.4000000000000001,2.4000000000000004,9.4,6.600000000000001,-8.100000000000001,-6.699999999999999,16
114,2081.0,0.8,-0.30000000000000004,0.0,0.9,2.2,9.5,-5.0,-0.4,-18.0,16
115,2097.0,0.5,-0.4,0.2,0.30000000000000004,1.9000000000000001,9.9,-5.0,-0.4,-18.0,16
116,2114.0,-0.1,-0.7000000000000001,0.4,-0.1,1.7000000000000002,9.8,-9.100000000000001,4.7,-17.5,16
117,2131.0,-0.1,-0.6000000000000001,0.30000000000000004,0.1,1.9000000000000001,9.700000000000001,-4.9,10.0,-6.699999999999999,16
118,2147.0,0.2,-0.30000000000000004,0.1,0.1,1.9000000000000001,9.700000000000001,-4.9,10.0,-6.699999999999999,16
119,2164.0,0.6000000000000001,0.2,-0.30000000000000004,0.6000000000000001,2.7,8.8,2.7,12.600000000000001,-5.0,16
120,2181.0,0.7000000000000001,0.30000000000000004,-1.1,0.6000000000000001,2.8000000000000003,8.200000000000001,14.800000000000002,16.1,-9.8,16
121,2199.0,0.5,0.2,-1.5,0.30000000000000004,2.7,7.9,15.2,14.700000000000001,-11.000000000000002,16
122,2214.0,0.4,0.1,-1.7000000000000002,0.2,2.7,7.800000000000001,15.2,14.700000000000001,-11.000000000000002,16
123,2231.0,0.4,0.1,-1.5,0.2,2.8000000000000003,7.9,12.200000000000001,12.100000000000001,-9.700000000000001,16
124,2247.0,0.5,0.4,-1.6,0.2,3.0,7.7,6.1000000000000005,12.600000000000001,-8.3,16
125,2264.0,0.5,0.4,-1.7000000000000002,0.2,3.0,7.7,6.1000000000000005,12.600000000000001,-8.3,16
126,2281.0,0.5,0.4,-1.6,0.30000000000000004,3.1,7.800000000000001,3.7000000000000006,8.600000000000001,-9.8,16
127,2297.0,0.6000000000000001,0.6000000000000001,-1.3,0.4,3.2,8.3,-0.7,-2.2,-12.100000000000001,16
128,2314.0,0.6000000000000001,0.5,-0.30000000000000004,0.30000000000000004,3.1,9.1,-1.8000000000000003,-1.2000000000000002,-13.3,16
129,2331.0,0.5,0.30000000000000004,0.2,-0.1,2.4000000000000004,9.8,-1.8000000000000003,-1.2000000000000002,-13.3,16
130,2347.0,-0.1,-0.8,0.6000000000000001,-0.4,2.0,9.8,-1.5,5.1000000000000005,-10.4,16
131,2364.0,-0.5,-0.2,0.1,-0.7000000000000001,2.5,9.200000000000001,-2.0,21.7,21.8,16
132,2382.0,0.8,0.30000000000000004,-1.0,0.4,2.9000000000000004,8.3,-6.4,17.300000000000004,35.8,16
133,2398.0,1.0,0.7000000000000001,-1.1,0.7000000000000001,3.5,8.6,-6.4,17.300000000000004,35.8,16
134,2414.0,1.3,1.2000000000000002,0.0,0.9,3.7,9.700000000000001,-13.700000000000001,3.6000000000000005,24.1,16
135,2431.0,1.3,1.0,1.6,0.9,3.5,11.0,-8.2,1.4,13.3,16
136,2447.0,1.2000000000000002,0.8,2.3000000000000003,0.7000000000000001,3.2,11.5,-8.2,1.4,13.3,16
137,2464.0,0.9,0.4,1.9000000000000001,0.4,2.8000000000000003,11.100000000000001,0.9000000000000001,6.1000000000000005,4.4,16
138,2481.0,0.7000000000000001,0.1,1.0,0.30000000000000004,2.7,10.100000000000001,0.8,20.0,2.6,16
139,2503.0,0.5,0.30000000000000004,0.1,0.0,2.9000000000000004,9.5,-6.1000000000000005,21.400000000000002,2.2,16
140,2514.0,0.30000000000000004,0.30000000000000004,-0.1,-0.4,2.8000000000000003,9.200000000000001,-6.1000000000000005,21.400000000000002,2.2,16
141,2532.0,-0.2,0.30000000000000004,0.1,-0.9,2.7,9.700000000000001,-16.6,5.300000000000001,1.0,16
142,2547.0,-0.6000000000000001,0.0,1.4000000000000001,-1.1,2.4000000000000004,10.9,-18.700000000000003,1.1,3.4,16
143,2564.0,-0.6000000000000001,-0.1,1.9000000000000001,-1.1,2.3000000000000003,11.600000000000001,-18.700000000000003,1.1,3.4,16
144,2582.0,-0.6000000000000001,-0.1,2.3000000000000003,-1.2000000000000002,2.1,11.9,-15.299999999999999,-3.1,7.6,16
145,2598.0,-0.7000000000000001,-0.4,2.5,-1.1,1.9000000000000001,12.0,-1.1,-4.1,17.1,16
146,2615.0,-0.5,-0.6000000000000001,2.3000000000000003,-1.1,1.9000000000000001,12.0,-1.1,-4.1,17.1,16
147,2631.0,-0.2,-0.6000000000000001,0.9,-0.8,1.9000000000000001,9.9,7.0,4.1,19.9,16
148,2647.0,-0.30000000000000004,-0.4,-0.8,-0.9,1.9000000000000001,8.4,12.299999999999999,7.6,17.300000000000004,16
149,2664.0,-0.5,-0.6000000000000001,-1.3,-0.9,1.9000000000000001,8.4,12.299999999999999,7.6,17.300000000000004,16
150,2680.0,-0.9,-1.0,-1.2000000000000002,-1.5,1.4000000000000001,8.6,5.0,2.1,15.8,16
151,2697.0,-0.8,-1.3,-0.30000000000000004,-0.7000000000000001,0.6000000000000001,9.200000000000001,-4.7,1.7,18.1,16
152,2714.0,0.5,-1.7000000000000002,1.1,-0.2,0.8,10.700000000000001,-14.900000000000002,0.2,14.5,16
153,2731.0,0.0,-1.1,1.7000000000000002,-0.2,0.8,10.700000000000001,-14.900000000000002,0.2,14.5,16
154,2748.0,-0.5,-0.2,1.7000000000000002,-1.1,2.1,10.8,-8.899999999999999,9.899999999999999,13.5,16
155,2764.0,-0.6000000000000001,-0.2,0.5,-1.2000000000000002,2.0,9.8,4.300000000000001,15.299999999999999,16.1,16
156,2780.0,-0.6000000000000001,-0.5,-0.1,-1.2000000000000002,2.0,9.8,4.300000000000001,15.299999999999999,16.1,16
157,2797.0,-0.9,-0.6000000000000001,-0.7000000000000001,-1.6,1.7000000000000002,8.4,4.4,14.900000000000002,18.1,16
158,2814.0,-0.7000000000000001,-0.9,-1.3,-1.4000000000000001,1.4000000000000001,8.3,3.7000000000000006,13.3,22.000000000000004,16
159,2830.0,-1.0,-1.1,-1.0,-1.6,1.2000000000000002,8.4,5.9,4.5,28.500000000000004,16
160,2848.0,-0.9,-1.1,-1.1,-1.4000000000000001,1.3,8.200000000000001,5.9,4.5,28.500000000000004,16
161,2864.0,-0.5,-0.9,-1.5,-0.9,1.6,7.7,10.1,0.4,34.0,16
162,2881.0,0.0,-0.5,-2.3000000000000003,-0.5,2.0,7.0,14.800000000000002,-13.8,35.2,16
163,2897.0,0.1,-0.30000000000000004,-2.6,-0.30000000000000004,2.2,6.800000000000001,10.0,-17.7,31.5,16
164,2914.0,0.1,-0.2,-2.5,-0.4,2.3000000000000003,7.0,10.0,-17.7,31.5,16
165,2931.0,-0.2,-0.2,-2.0,-0.6000000000000001,2.3000000000000003,7.6000000000000005,2.5,-17.1,27.800000000000004,16
166,2947.0,-0.30000000000000004,-0.1,-1.0,-0.6000000000000001,2.4000000000000004,8.4,-5.2,-17.9,23.900000000000006,16
167,2964.0,-0.30000000000000004,0.0,-0.5,-0.6000000000000001,2.5,9.1,-5.2,-17.9,23.900000000000006,16
168,2980.0,-0.4,0.1,-0.2,-0.6000000000000001,2.6,9.200000000000001,-1.4,-19.0,22.6,16
169,2997.0,-0.4,0.2,-0.2,-0.5,2.7,9.1,3.2,-12.200000000000001,19.799999999999997,16
170,3017.0,-0.4,0.30000000000000004,-0.4,-0.5,2.8000000000000003,8.9,3.0,-5.8,17.9,16
171,3033.0,-0.4,0.2,-0.7000000000000001,-0.5,2.7,8.4,3.0,-5.8,17.9,16
172,3050.0,-0.5,0.2,-1.1,-0.6000000000000001,2.7,8.200000000000001,2.3,-3.6000000000000005,16.1,16
173,3066.0,-0.4,0.30000000000000004,-1.0,-0.4,2.8000000000000003,8.4,-4.2,-17.799999999999997,14.400000000000002,16
174,3083.0,0.0,0.30000000000000004,0.1,0.1,2.8000000000000003,9.4,-7.400000000000001,-25.6,12.600000000000001,16
175,3099.0,0.4,0.4,0.6000000000000001,0.8,2.9000000000000004,10.3,-7.400000000000001,-25.6,12.600000000000001,16
176,3115.0,0.8,0.5,1.5,1.1,2.8000000000000003,11.0,-15.299999999999999,-22.1,-0.7,16
177,3135.0,0.9,0.30000000000000004,1.9000000000000001,1.0,2.4000000000000004,11.5,-15.299999999999999,-22.1,-0.7,16
178,3148.0,0.6000000000000001,-0.2,2.2,0.7000000000000001,2.0,11.5,-20.400000000000002,-10.5,-8.0,16
179,3168.0,0.30000000000000004,-0.4,1.7000000000000002,0.4,1.8,11.0,-23.099999999999998,2.6,-11.5,16
180,3180.0,0.1,-0.4,1.4000000000000001,0.30000000000000004,1.8,10.9,-24.900000000000002,5.0,-12.600000000000001,16
181,3197.0,0.1,-0.4,1.6,0.4,1.6,11.200000000000001,-24.900000000000002,5.0,-12.600000000000001,16
182,3214.0,0.2,-0.6000000000000001,1.7000000000000002,0.5,1.3,11.4,-23.700000000000003,-1.0,-13.100000000000001,16
183,3231.0,0.4,-0.7000000000000001,2.3000000000000003,0.8,1.3,12.0,-19.799999999999997,-7.200000000000001,-9.3,16
184,3247.0,0.8,-0.6000000000000001,2.8000000000000003,0.8,1.3,12.0,-19.799999999999997,-7.200000000000001,-9.3,16
185,3264.0,1.1,-0.7000000000000001,3.0,1.3,1.1,12.3,-13.399999999999999,-0.7,-8.700000000000001,16
186,3280.0,1.0,-0.9,2.1,1.1,0.9,11.200000000000001,-5.300000000000001,11.3,-8.0,16
187,3297.0,0.9,-1.0,0.4,1.0,1.0,9.9,2.8,26.6,-2.5,16
188,3314.0,1.0,-0.8,0.0,1.1,1.1,9.200000000000001,2.8,26.6,-2.5,16
189,3330.0,1.1,-0.6000000000000001,-0.4,1.1,1.4000000000000001,9.4,3.2,21.0,0.1,16
190,3348.0,1.4000000000000001,-0.4,0.1,1.4000000000000001,1.6,9.8,4.7,4.7,0.5,16
191,3364.0,1.4000000000000001,-0.30000000000000004,0.30000000000000004,1.4000000000000001,1.6,9.8,4.7,4.7,0.5,16
192,3381.0,1.4000000000000001,-0.4,0.1,1.2000000000000002,1.5,9.3,6.4,7.300000000000001,-1.1,16
193,3397.0,0.9,-0.5,-0.6000000000000001,0.7000000000000001,1.5,8.9,6.300000000000001,14.200000000000001,-2.0,16
194,3415.0,0.7000000000000001,-0.1,-1.2000000000000002,0.5,1.9000000000000001,8.4,3.3000000000000007,20.0,2.3,16
195,3437.0,0.6000000000000001,0.30000000000000004,-1.1,0.4,2.3000000000000003,8.5,4.4,10.200000000000001,3.3000000000000007,16
196,3448.0,0.6000000000000001,0.30000000000000004,-0.8,0.4,2.2,8.8,4.4,10.200000000000001,3.3000000000000007,16
197,3464.0,0.5,0.0,-0.5,0.4,2.0,9.0,20.2,-0.2,5.500000000000001,16
198,3481.0,0.6000000000000001,-0.1,-0.6000000000000001,0.6000000000000001,2.1,8.6,25.0,8.0,7.8,16
199,3497.0,0.8,0.2,-1.4000000000000001,0.6000000000000001,2.6,7.6000000000000005,25.0,8.0,7.8,16
200,3514.0,0.7000000000000001,0.8,-2.5,0.4,3.2,6.9,18.5,17.9,4.6,16
201,3530.0,0.4,1.1,-2.5,0.1,3.4000000000000004,7.0,12.299999999999999,11.000000000000002,0.4,16
202,3547.0,0.30000000000000004,1.0,-2.1,-0.1,3.3000000000000003,7.6000000000000005,12.299999999999999,11.000000000000002,0.4,16
203,3564.0,0.0,0.8,-1.3,-0.30000000000000004,3.2,8.3,8.5,5.6,-1.9,16
204,3580.0,-0.1,0.8,-0.6000000000000001,-0.4,3.2,8.9,8.4,4.4,0.30000000000000004,16
205,3598.0,-0.2,0.8,-0.4,-0.4,3.2,8.9,8.4,4.4,0.30000000000000004,16
206,3616.0,-0.2,0.7000000000000001,0.2,-0.4,3.1,9.600000000000001,10.700000000000001,5.9,2.7,16
207,3631.0,0.0,0.6000000000000001,0.30000000000000004,-0.4,3.1,9.600000000000001,17.200000000000003,14.0,8.0,16
208,3647.0,-0.1,0.4,0.0,-0.5,2.9000000000000004,9.3,20.7,12.299999999999999,9.899999999999999,16
209,3664.0,-0.2,0.2,-0.1,-0.6000000000000001,2.7,9.200000000000001,20.7,12.299999999999999,9.899999999999999,16
210,3680.0,-0.1,-0.1,-0.2,-0.5,2.6,9.1,22.8,7.1000000000000005,13.3,16
211,3698.0,-0.1,-0.30000000000000004,0.2,-0.4,2.5,9.600000000000001,17.5,-3.3000000000000007,21.1,16
212,3714.0,0.1,-0.2,0.6000000000000001,-0.4,2.5,9.600000000000001,17.5,-3.3000000000000007,21.1,16
213,3731.0,0.7000000000000001,0.0,1.3,0.5,3.0,10.600000000000001,14.5,-3.1,23.3,16
214,3755.0,0.9,0.5,0.8,0.7000000000000001,3.2,10.200000000000001,5.500000000000001,2.4000000000000004,14.0,16
215,3764.0,0.7000000000000001,0.7000000000000001,0.8,0.30000000000000004,3.5,10.200000000000001,5.500000000000001,2.4000000000000004,14.0,16
216,3780.0,0.4,0.7000000000000001,1.1,-0.30000000000000004,3.2,10.8,-7.1000000000000005,0.9000000000000001,5.8,16
217,3797.0,-0.5,-0.1,2.0,-1.0,2.4000000000000004,11.600000000000001,-18.900000000000002,0.5,-1.3,16
218,3814.0,-1.0,-0.8,2.6,-1.4000000000000001,1.7000000000000002,12.0,-18.700000000000003,0.2,4.4,16
219,3831.0,-1.2000000000000002,-1.1,2.6,-1.4000000000000001,1.7000000000000002,12.0,-18.700000000000003,0.2,4.4,16
220,3848.0,-1.3,-1.4000000000000001,2.5,-1.4000000000000001,1.2000000000000002,11.8,-6.600000000000001,-8.2,15.100000000000001,16
221,3864.0,-0.9,-1.4000000000000001,1.8,-1.0,1.3,11.0,19.300000000000004,-13.8,34.800000000000004,16
222,3880.0,-0.30000000000000004,-1.3,0.4,-1.0,1.3,11.0,21.500000000000004,-6.500000000000001,38.0,16
223,3897.0,0.0,-1.1,-0.4,0.30000000000000004,1.8,8.4,21.500000000000004,-6.500000000000001,38.0,16
224,3914.0,0.7000000000000001,-0.9,-1.6,0.7000000000000001,1.9000000000000001,7.6000000000000005,15.000000000000002,0.4,36.0,16
225,3931.0,0.8,-0.8,-2.1,0.7000000000000001,1.9000000000000001,7.300000000000001,-9.0,-4.6,22.000000000000004,16
226,3948.0,0.7000000000000001,-0.8,-2.0,0.7000000000000001,1.9000000000000001,7.300000000000001,-9.0,-4.6,22.000000000000004,16
227,3966.0,0.6000000000000001,-0.9,-0.9,0.6000000000000001,1.7000000000000002,9.1,-19.5,-16.0,15.2,16
228,3981.0,0.5,-1.0,0.6000000000000001,0.6000000000000001,1.5,10.3,-25.5,-22.8,5.4,16
229,3999.0,0.2,-1.2000000000000002,1.5,0.30000000000000004,1.3,10.9,-21.8,-10.9,2.4000000000000004,16
230,4014.0,0.0,-1.3,1.4000000000000001,0.0,1.1,10.600000000000001,-21.8,-10.9,2.4000000000000004,16
231,4034.0,-0.30000000000000004,-1.3,0.5,-0.2,1.2000000000000002,9.4,-17.5,4.6,2.5,16
232,4049.0,-0.4,-0.9,-1.1,-0.30000000000000004,1.4000000000000001,8.200000000000001,-13.6,12.9,6.9,16
233,4068.0,-0.5,-0.7000000000000001,-1.6,-0.4,1.5,7.9,-12.9,1.3,9.899999999999999,16
234,4084.0,-0.6000000000000001,-0.7000000000000001,-1.4000000000000001,-0.4,1.7000000000000002,8.3,-12.9,1.3,9.899999999999999,16
235,4099.0,-0.5,-0.4,-0.9,-0.2,1.9000000000000001,8.700000000000001,-0.8,-19.9,15.2,16
236,4114.0,-0.4,-0.30000000000000004,-0.7000000000000001,-0.2,1.9000000000000001,8.700000000000001,-0.8,-19.9,15.2,16
237,4132.0,-0.8,-0.4,-0.8,-0.5,2.1,7.9,4.4,-15.2,13.900000000000002,16
238,4149.0,-0.5,0.0,-1.7000000000000002,-0.30000000000000004,2.3000000000000003,7.6000000000000005,2.4000000000000004,-2.6,15.100000000000001,16
239,4168.0,-0.6000000000000001,0.2,-1.9000000000000001,-0.4,2.5,7.6000000000000005,-6.600000000000001,-0.4,13.8,16
240,4181.0,-0.7000000000000001,0.2,-1.5,-0.4,2.4000000000000004,7.9,-7.500000000000001,-8.0,14.200000000000001,16
241,4202.0,-1.0,0.2,-0.8,-0.6000000000000001,2.4000000000000004,8.5,-6.4,-16.3,15.8,16
242,4216.0,-1.0,0.30000000000000004,-0.30000000000000004,-0.6000000000000001,2.5,9.3,-2.8,-22.1,18.1,16
243,4237.0,-0.9,0.2,0.5,-0.4,2.4000000000000004,9.9,3.8,-21.300000000000004,19.700000000000003,16
244,4250.0,-0.7000000000000001,0.0,0.4,-0.2,2.2,9.8,6.500000000000001,-14.5,21.0,16
245,4265.0,-0.6000000000000001,0.0,0.2,0.0,2.2,9.5,6.500000000000001,-14.5,21.0,16
246,4282.0,-0.1,0.0,-0.1,0.5,2.3000000000000003,9.3,4.800000000000001,-7.500000000000001,21.500000000000004,16
247,4298.0,0.1,0.1,-0.2,1.1,2.4000000000000004,9.1,4.800000000000001,-7.500000000000001,21.500000000000004,16
248,4315.0,0.7000000000000001,0.2,-0.1,1.6,2.4000000000000004,9.4,1.7,-12.9,17.6,16
249,4330.0,1.3,0.30000000000000004,0.2,2.1,2.6,9.700000000000001,-15.5,-20.2,0.2,16
250,4348.0,1.4000000000000001,0.5,1.1,2.2,2.6,10.600000000000001,-28.1,-20.7,-13.100000000000001,16
251,4364.0,1.2000000000000002,0.4,1.7000000000000002,1.8,2.3000000000000003,11.700000000000001,-28.1,-20.7,-13.100000000000001,16
252,4381.0,0.7000000000000001,0.0,3.0,1.4000000000000001,1.8,12.700000000000001,-36.7,-20.0,-24.7,16
253,4397.0,0.4,-0.2,3.5,1.4000000000000001,1.8,12.700000000000001,-40.7,-16.8,-32.400000000000006,16
254,4414.0,-0.30000000000000004,-0.7000000000000001,4.2,0.2,0.9,14.200000000000001,-39.9,-11.2,-35.1,16
255,4430.0,-1.0,-1.0,4.9,-0.30000000000000004,0.4,14.700000000000001,-35.0,-3.1,-32.300000000000004,16
256,4447.0,-1.2000000000000002,-1.6,4.7,-0.4,0.0,14.100000000000001,-5.9,19.5,-11.2,16
257,4464.0,-1.1,-1.7000000000000002,4.0,-0.4,0.0,14.100000000000001,-5.9,19.5,-11.2,16
258,4481.0,-0.5,-1.6,1.9000000000000001,0.4,0.30000000000000004,10.8,10.9,27.6,3.0,16
259,4497.0,0.30000000000000004,-1.2000000000000002,0.1,1.1,0.7000000000000001,9.5,23.5,27.400000000000002,14.900000000000002,16
260,4514.0,1.2000000000000002,-0.7000000000000001,-1.1,1.9000000000000001,1.2000000000000002,8.6,28.900000000000002,7.6,24.0,16
261,4530.0,1.7000000000000002,-0.4,-1.2000000000000002,2.7,1.8,8.700000000000001,28.900000000000002,7.6,24.0,16
262,4549.0,2.4000000000000004,0.1,-0.8,3.1,2.2,9.0,23.900000000000006,-3.3000000000000007,19.9,16
263,4567.0,2.5,0.4,-0.5,3.1,2.4000000000000004,9.200000000000001,14.300000000000002,-4.800000000000001,-1.3,16
264,4582.0,2.0,0.30000000000000004,-0.30000000000000004,2.6,2.3000000000000003,9.3,11.4,3.7000000000000006,-12.600000000000001,16
265,4601.0,1.2000000000000002,-0.1,-0.8,1.9000000000000001,2.0,8.9,11.4,3.7000000000000006,-12.600000000000001,16
266,4614.0,0.8,-0.2,-1.3,1.2000000000000002,1.9000000000000001,8.1,9.8,16.200000000000003,-19.799999999999997,16
267,4636.0,0.30000000000000004,-0.30000000000000004,-2.1,0.8,1.9000000000000001,7.4,9.8,26.400000000000006,-20.900000000000002,16
268,4652.0,0.30000000000000004,-0.2,-2.7,0.7000000000000001,2.0,6.9,11.8,20.0,-18.4,16
269,4664.0,0.5,-0.2,-2.8000000000000003,0.9,2.1,6.800000000000001,11.8,20.0,-18.4,16
270,4680.0,0.4,-0.1,-2.8000000000000003,0.8,2.2,6.800000000000001,13.100000000000001,5.1000000000000005,-15.100000000000001,16
271,4697.0,0.30000000000000004,0.0,-2.5,0.6000000000000001,2.3000000000000003,6.9,12.100000000000001,1.3,-14.100000000000001,16
272,4717.0,0.2,0.0,-2.4000000000000004,0.5,2.4000000000000004,7.2,12.100000000000001,1.3,-14.100000000000001,16
273,4737.0,0.0,0.2,-2.0,0.4,2.6,7.5,6.8,-1.5,-9.8,16
274,4747.0,0.2,0.4,-1.5,0.5,2.8000000000000003,8.0,6.2,-5.300000000000001,-8.3,16
275,4764.0,0.2,0.5,-1.1,0.6000000000000001,2.9000000000000004,8.6,6.2,-5.300000000000001,-8.3,16
276,4781.0,0.2,0.5,-0.6000000000000001,0.6000000000000001,3.0,8.9,7.9,-8.100000000000001,-8.100000000000001,16
277,4798.0,0.1,0.6000000000000001,-0.2,0.5,3.1,9.200000000000001,10.700000000000001,-3.9,-7.6,16
278,4817.0,0.0,0.6000000000000001,-0.1,0.4,3.0,9.3,11.1,4.1,-7.1000000000000005,16
279,4831.0,0.1,0.4,-0.30000000000000004,0.4,2.8000000000000003,9.200000000000001,11.1,4.1,-7.1000000000000005,16
280,4848.0,-0.30000000000000004,0.1,-0.2,0.0,2.6,9.1,7.400000000000001,15.700000000000001,-4.2,16
281,4864.0,-0.4,-0.1,-0.6000000000000001,-0.1,2.5,8.8,5.2,12.8,0.0,16
282,4880.0,-0.4,0.0,-0.7000000000000001,-0.2,2.5,8.9,5.2,12.8,0.0,16
283,4897.0,-0.30000000000000004,0.0,-0.1,0.1,2.6,9.5,2.7,2.0,4.9,16
284,4914.0,0.1,0.1,0.9,0.5,2.7,10.4,-2.3,-20.3,11.6,16
285,4931.0,0.30000000000000004,0.30000000000000004,1.3,0.5,2.7,10.4,-2.3,-20.3,11.6,16
286,4947.0,0.4,0.8,2.8000000000000003,1.0,3.2,12.200000000000001,-8.0,-25.0,11.900000000000002,16
287,4964.0,0.6000000000000001,0.8,3.4000000000000004,1.0,3.2,12.8,-18.8,-10.1,6.2,16
288,4981.0,0.30000000000000004,0.8,3.3000000000000003,0.7000000000000001,3.0,12.8,-18.8,-10.1,6.2,16
289,4997.0,0.0,0.5,3.6,0.4,2.6,13.200000000000001,-20.0,-4.2,4.2,16
290,5014.0,-0.5,-0.1,3.5,0.0,2.1,13.3,-14.200000000000001,-2.1,5.300000000000001,16
291,5033.0,-0.7000000000000001,-0.6000000000000001,3.6,0.0,1.7000000000000002,12.9,18.0,-5.1000000000000005,18.1,16
292,5049.0,-0.5,-1.0,1.7000000000000002,0.1,1.5,11.200000000000001,31.2,-1.8000000000000003,24.900000000000002,16
293,5064.0,-0.5,-1.0,0.5,0.2,1.6,9.4,31.2,-1.8000000000000003,24.900000000000002,16
294,5080.0,-0.1,-0.8,-1.0,0.7000000000000001,1.8,8.3,29.200000000000003,-6.500000000000001,31.9,16
295,5097.0,0.4,-0.8,-1.5,1.1,1.8,8.0,21.0,-15.6,30.799999999999997,16
296,5116.0,0.6000000000000001,-0.8,-1.3,1.5,2.0,8.5,21.0,-15.6,30.799999999999997,16
297,5130.0,0.6000000000000001,-0.6000000000000001,-0.2,1.6,2.1,9.700000000000001,12.4,-24.8,27.400000000000002,16
298,5149.0,0.6000000000000001,-0.8,1.3,1.7000000000000002,1.9000000000000001,10.8,10.8,-31.799999999999997,18.700000000000003,16
299,5165.0,0.6000000000000001,-0.9,1.7000000000000002,1.7000000000000002,1.9000000000000001,10.8,10.8,-31.799999999999997,18.700000000000003,16
300,5180.0,0.30000000000000004,-1.1,1.2000000000000002,1.3,1.6,10.200000000000001,14.700000000000001,-20.1,15.299999999999999,16
301,5197.0,0.0,-1.3,0.0,1.0,1.5,9.0,14.800000000000002,10.5,10.4,16
302,5214.0,-0.30000000000000004,-1.4000000000000001,-1.5,0.7000000000000001,1.4000000000000001,7.800000000000001,13.399999999999999,14.5,9.899999999999999,16
303,5231.0,-0.5,-1.5,-2.0,0.5,1.3,7.0,13.399999999999999,14.5,9.899999999999999,16
304,5249.0,-0.7000000000000001,-1.5,-2.5,0.4,1.3,6.9,11.8,9.4,10.9,16
305,5265.0,-0.7000000000000001,-1.5,-2.3000000000000003,0.4,1.4000000000000001,7.0,12.200000000000001,-8.5,15.8,16
306,5280.0,-0.8,-1.5,-2.2,0.4,1.4000000000000001,7.0,12.200000000000001,-8.5,15.8,16
307,5297.0,-0.7000000000000001,-1.4000000000000001,-2.3000000000000003,0.5,1.7000000000000002,6.9,12.600000000000001,-12.7,17.7,16
308,5314.0,-0.5,-1.0,-2.2,0.7000000000000001,2.0,7.1000000000000005,3.5,-8.700000000000001,16.900000000000002,16
309,5330.0,-0.4,-0.8,-2.1,0.7000000000000001,2.0,7.1000000000000005,3.5,-8.700000000000001,16.900000000000002,16
310,5347.0,-0.2,-0.5,-1.7000000000000002,1.1,2.5,7.6000000000000005,-1.1,-5.6,13.200000000000003,16
311,5364.0,-0.2,-0.30000000000000004,-1.4000000000000001,1.0,2.6,7.9,-4.5,-3.1,7.9,16
312,5381.0,-0.5,-0.30000000000000004,-0.8,0.7000000000000001,2.5,8.5,-11.3,4.5,-1.6,16
313,5398.0,-0.8,-0.5,-0.30000000000000004,0.4,2.3000000000000003,8.9,-12.0,10.200000000000001,-2.6,16
314,5421.0,-0.9,-0.5,-0.30000000000000004,0.30000000000000004,2.2,8.9,-11.2,14.600000000000001,-1.7,16
315,5430.0,-0.9,-0.6000000000000001,-0.6000000000000001,0.30000000000000004,2.1,8.6,-11.4,12.600000000000001,-0.1,16
316,5448.0,-0.6000000000000001,-0.5,-0.7000000000000001,0.5,2.2,8.6,-12.600000000000001,3.3000000000000007,2.0,16
317,5467.0,-0.2,-0.30000000000000004,-0.4,0.9,2.3000000000000003,8.8,-13.6,-11.4,2.6,16
318,5484.0,0.0,-0.2,-0.2,1.4000000000000001,2.4000000000000004,9.200000000000001,-13.6,-11.4,2.6,16
319,5499.0,0.6000000000000001,-0.1,0.5,1.9000000000000001,2.4000000000000004,9.9,-24.7,-31.9,-4.5,16
320,5514.0,0.8,-0.1,1.0,2.4000000000000004,2.4000000000000004,10.8,-24.7,-31.9,-4.5,16
321,5531.0,1.0,0.0,2.1,2.4000000000000004,2.3000000000000003,11.700000000000001,-36.400000000000006,-27.9,-12.5,16
322,5547.0,0.7000000000000001,-0.1,3.0,2.1,2.0,12.600000000000001,-52.400000000000006,-9.899999999999999,-29.500000000000004,16
323,5564.0,0.5,-0.30000000000000004,3.4000000000000004,2.1,2.0,12.600000000000001,-52.400000000000006,-9.899999999999999,-29.500000000000004,16
324,5581.0,0.0,-0.8,3.6,1.2000000000000002,1.0,13.100000000000001,-47.1,-8.5,-33.2,16
325,5597.0,-0.5,-1.2000000000000002,3.8000000000000003,0.8,0.5,13.3,-38.900000000000006,-9.4,-32.2,16
326,5615.0,-0.8,-1.5,3.7,0.6000000000000001,0.30000000000000004,13.200000000000001,-21.300000000000004,0.9000000000000001,-16.5,16
327,5634.0,-0.6000000000000001,-1.6,3.2,0.7000000000000001,0.1,12.8,-9.899999999999999,8.5,-4.9,16
328,5649.0,-0.4,-1.5,2.7,1.2000000000000002,0.4,11.9,-9.899999999999999,8.5,-4.9,16
329,5665.0,0.4,-1.0,1.4000000000000001,1.9000000000000001,0.8,10.600000000000001,9.2,12.9,11.8,16
330,5681.0,0.8,-0.8,0.5,1.9000000000000001,0.8,10.600000000000001,9.2,12.9,11.8,16
331,5697.0,1.4000000000000001,-0.30000000000000004,-0.7000000000000001,3.0,1.7000000000000002,8.700000000000001,9.4,6.1000000000000005,12.200000000000001,16
332,5714.0,1.9000000000000001,0.2,-0.7000000000000001,3.4000000000000004,2.1,9.0,3.7000000000000006,-1.9,8.700000000000001,16
333,5730.0,2.1,0.6000000000000001,-0.1,3.5,2.4000000000000004,9.600000000000001,-5.7,-4.4,-8.0,16
334,5750.0,1.9000000000000001,0.7000000000000001,0.2,2.9000000000000004,2.3000000000000003,9.9,-5.7,-4.4,-8.0,16
335,5766.0,1.2000000000000002,0.2,0.1,2.3000000000000003,1.8,9.3,-4.0,5.9,-17.1,16
336,5781.0,0.6000000000000001,-0.2,-1.2000000000000002,1.7000000000000002,1.6,8.1,4.0,35.4,-20.900000000000002,16
337,5798.0,0.2,-0.1,-2.6,1.2000000000000002,1.7000000000000002,6.9,5.4,39.599999999999994,-17.6,16
338,5816.0,0.1,0.0,-3.1,1.1,2.0,6.300000000000001,5.4,39.599999999999994,-17.6,16
339,5832.0,0.1,0.30000000000000004,-3.4000000000000004,1.1,2.2,6.2,6.9,31.7,-14.0,16
340,5847.0,0.30000000000000004,0.5,-2.8000000000000003,1.3,2.4000000000000004,6.800000000000001,9.3,4.0,-8.700000000000001,16
341,5864.0,0.4,0.6000000000000001,-2.3000000000000003,1.4000000000000001,2.6,7.5,9.3,4.0,-8.700000000000001,16
342,5880.0,0.5,0.6000000000000001,-1.7000000000000002,1.4000000000000001,2.5,7.9,10.200000000000001,-1.6,-8.2,16
343,5897.0,0.4,0.6000000000000001,-1.2000000000000002,1.3,2.6,8.4,8.100000000000001,4.800000000000001,-7.500000000000001,16
344,5914.0,0.30000000000000004,0.7000000000000001,-0.8,1.3,2.6,8.4,8.100000000000001,4.800000000000001,-7.500000000000001,16
345,5931.0,0.2,0.7000000000000001,-0.30000000000000004,1.0,2.8000000000000003,9.5,9.700000000000001,8.5,-5.9,16
346,5951.0,0.2,0.6000000000000001,0.1,1.0,2.7,9.5,15.399999999999999,9.4,-4.1,16
347,5965.0,0.0,0.4,-0.30000000000000004,0.8,2.6,9.0,24.7,17.7,-3.1,16
348,5981.0,-0.1,0.30000000000000004,-0.7000000000000001,0.5,2.5,8.6,24.7,17.7,-3.1,16
349,5997.0,-0.30000000000000004,0.2,-0.7000000000000001,0.30000000000000004,2.5,8.8,21.8,19.700000000000003,-0.8,16
350,6014.0,-0.30000000000000004,0.1,-0.2,0.30000000000000004,2.5,9.3,16.3,8.600000000000001,7.6,16
351,6032.0,-0.2,0.0,0.5,0.5,2.4000000000000004,9.9,15.5,3.4,12.0,16
352,6047.0,-0.1,0.0,0.7000000000000001,0.6000000000000001,2.4000000000000004,10.3,15.5,3.4,12.0,16
353,6064.0,0.2,0.0,1.2000000000000002,1.0,2.5,10.5,13.100000000000001,1.3,15.100000000000001,16
354,6081.0,0.4,0.0,1.0,1.0,2.5,10.5,8.8,2.5,15.700000000000001,16
355,6101.0,0.7000000000000001,0.4,0.7000000000000001,1.4000000000000001,3.1,10.4,-1.6,2.6,12.600000000000001,16
356,6117.0,0.5,0.7000000000000001,1.7000000000000002,1.1,2.9000000000000004,11.5,-17.1,-1.9,7.0,16
357,6130.0,-0.2,-0.1,2.7,0.4,2.0,12.3,-36.0,-6.0,-4.2,16
358,6147.0,-1.1,-0.8,3.6,0.4,2.0,12.3,-36.0,-6.0,-4.2,16
359,6164.0,-1.4000000000000001,-1.1,4.0,-0.8,0.9,13.8,-34.2,-4.5,0.0,16
360,6185.0,-1.6,-1.3,4.3,-0.8,0.7000000000000001,13.8,-4.4,-0.1,22.1,16
361,6197.0,-1.2000000000000002,-1.4000000000000001,3.1,-0.8,0.7000000000000001,13.8,-4.4,-0.1,22.1,16
362,6214.0,-1.1,-1.3,1.9000000000000001,-0.2,0.9,10.4,12.9,5.7,31.799999999999997,16
363,6231.0,-0.8,-1.1,-0.2,0.1,1.1,9.0,19.9,10.4,37.2,16
364,6247.0,-0.5,-0.9,-1.5,0.2,1.3,8.1,8.8,5.2,39.2,16
365,6264.0,-0.5,-0.8,-1.7000000000000002,0.2,1.3,8.1,8.8,5.2,39.2,16
366,6282.0,-0.4,-0.6000000000000001,-0.7000000000000001,0.5,1.5,9.3,1.2000000000000002,-8.3,38.60000000000001,16
367,6300.0,-0.2,-0.6000000000000001,0.4,0.7000000000000001,1.5,10.200000000000001,1.8000000000000003,-19.5,36.300000000000004,16
368,6315.0,-0.2,-0.6000000000000001,0.7000000000000001,0.7000000000000001,1.5,10.3,7.500000000000001,-12.8,34.800000000000004,16
369,6336.0,-0.4,-0.6000000000000001,0.0,0.6000000000000001,1.5,9.600000000000001,12.299999999999999,-4.6,33.300000000000004,16
370,6347.0,-0.5,-0.6000000000000001,-0.5,0.5,1.6,8.700000000000001,12.299999999999999,-4.6,33.300000000000004,16
371,6369.0,-0.6000000000000001,-0.6000000000000001,-1.3,0.4,1.6,8.1,13.8,4.6,32.0,16
372,6381.0,-0.6000000000000001,-0.6000000000000001,-1.6,0.4,1.6,8.1,13.8,4.6,32.0,16
373,6397.0,-0.6000000000000001,-0.5,-1.8,0.4,1.8,7.7,13.700000000000001,2.7,31.400000000000002,16
374,6414.0,-0.6000000000000001,-0.5,-1.7000000000000002,0.4,1.8,7.800000000000001,14.600000000000001,-5.2,30.5,16
375,6430.0,-0.6000000000000001,-0.4,-1.6,0.4,1.8,7.800000000000001,14.600000000000001,-5.2,30.5,16
376,6447.0,-0.6000000000000001,-0.2,-1.4000000000000001,0.6000000000000001,2.1,8.0,15.8,-6.500000000000001,30.1,16
377,6464.0,-0.5,-0.1,-1.4000000000000001,0.6000000000000001,2.3000000000000003,8.0,16.200000000000003,-5.6,28.400000000000002,16
378,6480.0,-0.5,0.0,-1.5,0.7000000000000001,2.4000000000000004,8.0,12.600000000000001,-5.1000000000000005,24.1,16
379,6497.0,-0.5,0.1,-1.3,0.7000000000000001,2.4000000000000004,8.0,12.600000000000001,-5.1000000000000005,24.1,16
380,6514.0,-0.4,0.2,-0.5,0.9,2.7,9.200000000000001,11.3,-8.5,21.400000000000002,16
381,6530.0,-0.4,0.2,0.2,0.9,2.7,9.600000000000001,14.700000000000001,-4.0,14.200000000000001,16
382,6547.0,-0.4,0.2,0.2,0.8,2.7,9.5,15.000000000000002,4.9,9.4,16
383,6565.0,-0.5,0.0,-0.1,0.7000000000000001,2.5,8.9,15.000000000000002,4.9,9.4,16
384,6580.0,-0.6000000000000001,-0.2,-0.7000000000000001,0.6000000000000001,2.3000000000000003,8.700000000000001,11.5,11.3,6.0,16
385,6600.0,-0.5,-0.30000000000000004,-0.30000000000000004,0.7000000000000001,2.2,9.1,0.1,2.1,4.2,16
386,6616.0,-0.30000000000000004,-0.4,0.8,0.9,2.1,10.100000000000001,-1.0,-6.1000000000000005,4.0,16
387,6635.0,0.0,-0.5,1.4000000000000001,1.2000000000000002,2.1,10.700000000000001,0.4,-11.1,3.2,16
388,6647.0,0.30000000000000004,-0.5,1.5,1.6,2.0,10.700000000000001,-0.5,-9.100000000000001,1.2000000000000002,16
389,6666.0,0.6000000000000001,-0.5,1.2000000000000002,1.9000000000000001,2.0,10.5,-6.9,-0.1,-2.2,16
390,6683.0,0.9,-0.2,0.5,2.1,2.2,9.9,-16.1,8.100000000000001,-8.2,16
391,6697.0,0.9,-0.1,0.2,2.2,2.3000000000000003,9.5,-16.1,8.100000000000001,-8.2,16
392,6715.0,1.1,0.0,0.1,2.2,2.3000000000000003,9.600000000000001,-36.7,3.6000000000000005,-23.800000000000004,16
393,6731.0,0.9,0.0,0.5,2.2,2.3000000000000003,9.600000000000001,-36.7,3.6000000000000005,-23.800000000000004,16
394,6747.0,0.5,-0.1,2.3000000000000003,1.5,1.9000000000000001,12.5,-42.2,-5.0,-30.1,16
395,6765.0,0.0,-0.6000000000000001,4.1000000000000005,1.0,1.3,13.700000000000001,-26.6,2.4000000000000004,-32.300000000000004,16
396,6780.0,-0.30000000000000004,-1.0,4.3,1.0,1.3,13.700000000000001,-26.6,2.4000000000000004,-32.300000000000004,16
397,6797.0,-0.4,-1.5,3.1,0.7000000000000001,0.6000000000000001,11.600000000000001,-10.4,23.0,-24.7,16
398,6814.0,0.0,-1.2000000000000002,0.6000000000000001,1.0,1.0,9.600000000000001,2.7,40.2,-14.300000000000002,16
399,6831.0,0.6000000000000001,-0.8,-1.3,1.5,1.3,8.200000000000001,9.2,30.5,-2.6,16
400,6847.0,0.9,-0.7000000000000001,-1.7000000000000002,1.9000000000000001,1.5,7.7,9.2,30.5,-2.6,16
401,6864.0,1.2000000000000002,-0.5,-1.7000000000000002,2.2,1.7000000000000002,8.4,5.0,12.0,-1.8000000000000003,16
402,6881.0,1.8,-0.1,-0.1,2.6,2.0,9.700000000000001,-2.1,-6.2,-5.7,16
403,6897.0,1.8,-0.1,0.6000000000000001,2.5,2.0,10.100000000000001,0.9000000000000001,4.800000000000001,-12.5,16
404,6914.0,1.5,-0.2,0.30000000000000004,2.0,1.8,9.4,0.9000000000000001,4.800000000000001,-12.5,16
405,6931.0,1.0,-0.30000000000000004,-1.2000000000000002,1.4000000000000001,1.8,7.9,2.2,22.5,-17.400000000000002,16
406,6948.0,0.2,-0.30000000000000004,-2.7,0.7000000000000001,1.8,6.7,-1.1,35.2,-18.8,16
407,6964.0,-0.1,-0.30000000000000004,-3.2,0.1,1.7000000000000002,6.300000000000001,-1.1,35.2,-18.8,16
408,6981.0,-0.4,-0.4,-3.0,0.1,1.7000000000000002,6.9,-1.9,20.0,-13.5,16
409,6997.0,0.0,-0.2,-1.9000000000000001,0.6000000000000001,2.0,7.7,4.4,-12.5,1.2000000000000002,16
410,7015.0,0.30000000000000004,0.1,-1.4000000000000001,0.6000000000000001,2.0,7.7,4.4,-12.5,1.2000000000000002,16
411,7031.0,0.4,0.2,-1.3,1.2000000000000002,2.4000000000000004,8.4,5.8,-15.000000000000002,3.7000000000000006,16
412,7051.0,0.9,0.5,-0.8,1.5,2.7,8.8,3.0,-9.600000000000001,4.9,16
413,7065.0,1.0,0.8,-0.4,1.5,2.9000000000000004,9.1,2.0,7.0,1.5,16
414,7081.0,1.0,0.8,-0.4,1.4000000000000001,2.9000000000000004,8.9,2.0,7.0,1.5,16
415,7097.0,0.7000000000000001,0.7000000000000001,-0.8,1.0,2.7,8.6,5.0,10.9,-2.1,16
416,7114.0,0.2,0.4,-0.9,0.6000000000000001,2.5,8.6,4.5,13.5,-2.7,16
417,7130.0,0.1,0.30000000000000004,-0.8,0.6000000000000001,2.5,8.6,4.5,13.5,-2.7,16
418,7148.0,0.0,0.30000000000000004,-0.4,0.30000000000000004,2.5,9.3,4.6,13.000000000000002,0.2,16
419,7167.0,-0.1,0.1,0.2,0.2,2.2,9.700000000000001,6.300000000000001,10.1,3.0,16
420,7195.0,0.0,-0.2,0.6000000000000001,0.5,2.1,10.100000000000001,9.3,4.6,12.100000000000001,16
421,7197.0,0.0,-0.2,0.6000000000000001,0.5,2.1,10.100000000000001,9.3,4.6,12.100000000000001,16
422,7214.0,0.2,-0.1,0.8,0.8,2.2,10.5,8.899999999999999,-0.4,16.6,16
423,7230.0,0.9,0.0,1.6,1.4000000000000001,2.3000000000000003,11.100000000000001,4.0,-7.1000000000000005,18.8,16
424,7247.0,1.3,0.2,1.7000000000000002,1.7000000000000002,2.5,11.100000000000001,-1.0,-4.800000000000001,14.200000000000001,16
425,7264.0,1.3,0.4,1.6,1.7000000000000002,2.8000000000000003,11.0,-1.0,-4.800000000000001,14.200000000000001,16
426,7281.0,1.0,0.7000000000000001,1.6,1.3,2.8000000000000003,11.200000000000001,-10.1,-3.1,7.1000000000000005,16
427,7297.0,0.2,0.2,2.2,0.6000000000000001,2.3000000000000003,11.8,-28.200000000000003,-6.500000000000001,-6.500000000000001,16
428,7314.0,-0.30000000000000004,-0.1,2.6,-0.1,1.6,12.700000000000001,-28.200000000000003,-6.500000000000001,-6.500000000000001,16
429,7331.0,-1.0,-0.8,3.5,-0.6000000000000001,1.0,13.200000000000001,-26.5,-7.400000000000001,-5.7,16
430,7347.0,-1.3,-1.3,3.3000000000000003,-0.8,0.7000000000000001,12.600000000000001,1.7,8.899999999999999,10.4,16
431,7366.0,-1.1,-1.4000000000000001,1.1,-0.6000000000000001,0.7000000000000001,10.700000000000001,14.0,15.2,19.9,16
432,7380.0,-1.1,-1.1,0.0,-0.5,1.2000000000000002,9.0,14.0,15.2,19.9,16
433,7400.0,-0.8,-0.6000000000000001,-1.3,-0.2,1.6,8.200000000000001,17.0,10.5,26.200000000000003,16
434,7414.0,-0.4,-0.4,-1.2000000000000002,0.2,1.7000000000000002,8.5,7.0,-15.6,27.6,16
435,7432.0,0.0,-0.5,0.2,0.6000000000000001,1.6,9.700000000000001,7.0,-15.6,27.6,16
436,7451.0,0.2,-0.5,0.7000000000000001,0.9,1.6,10.5,1.1,-19.799999999999997,26.1,16
437,7464.0,0.4,-0.5,1.2000000000000002,1.1,1.7000000000000002,10.8,3.5,-13.700000000000001,20.3,16
438,7481.0,0.4,-0.4,1.2000000000000002,1.1,1.7000000000000002,10.8,3.5,-13.700000000000001,20.3,16
439,7497.0,0.30000000000000004,-0.2,0.8,1.0,1.9000000000000001,10.200000000000001,7.1000000000000005,-9.4,16.700000000000003,16
440,7515.0,0.0,-0.4,0.2,0.7000000000000001,1.7000000000000002,9.600000000000001,12.9,1.4,10.0,16
441,7531.0,-0.2,-0.6000000000000001,-0.6000000000000001,0.6000000000000001,1.6,8.9,15.8,8.700000000000001,8.600000000000001,16
442,7550.0,-0.30000000000000004,-0.6000000000000001,-1.7000000000000002,0.5,1.7000000000000002,7.9,17.400000000000002,12.200000000000001,7.8,16
443,7564.0,-0.30000000000000004,-0.6000000000000001,-2.3000000000000003,0.4,1.8,7.0,17.400000000000002,12.200000000000001,7.8,16
444,7580.0,-0.30000000000000004,-0.30000000000000004,-2.9000000000000004,0.5,2.0,6.6000000000000005,14.400000000000002,2.1,6.300000000000001,16
445,7598.0,-0.2,-0.2,-2.6,0.5,2.2,6.9,12.0,-6.8,5.0,16
446,7614.0,-0.2,-0.2,-2.2,0.6000000000000001,2.2,7.5,12.0,-6.8,5.0,16
447,7632.0,-0.2,-0.2,-1.6,0.6000000000000001,2.2,7.9,11.4,-11.5,1.9,16
448,7649.0,-0.2,-0.1,-1.7000000000000002,0.6000000000000001,2.3000000000000003,7.7,7.699999999999999,-7.200000000000001,-0.1,16
449,7664.0,-0.30000000000000004,0.0,-1.8,0.6000000000000001,2.6,7.800000000000001,7.699999999999999,-7.200000000000001,-0.1,16
450,7682.0,-0.1,0.30000000000000004,-1.2000000000000002,0.7000000000000001,2.8000000000000003,8.5,1.4,-4.5,-2.4000000000000004,16
451,7698.0,-0.1,0.4,-0.30000000000000004,0.7000000000000001,2.8000000000000003,9.200000000000001,0.6000000000000001,-3.1,-10.1,16
452,7714.0,-0.2,0.30000000000000004,0.0,0.7000000000000001,2.8000000000000003,9.200000000000001,0.6000000000000001,-3.1,-10.1,16
453,7730.0,-0.4,0.0,-0.4,0.30000000000000004,2.4000000000000004,8.700000000000001,4.5,1.5,-13.000000000000002,16
454,7747.0,-0.5,0.0,-1.0,0.30000000000000004,2.4000000000000004,8.4,0.4,2.9,-12.8,16
455,7764.0,-0.4,-0.1,-0.8,0.4,2.4000000000000004,8.6,-3.7000000000000006,-9.3,-11.5,16
456,7780.0,-0.30000000000000004,-0.2,-0.30000000000000004,0.7000000000000001,2.4000000000000004,9.600000000000001,-3.7000000000000006,-9.3,-11.5,16
457,7797.0,0.2,0.0,1.0,1.3,2.5,10.700000000000001,-5.4,-23.800000000000004,-10.299999999999999,16
458,7814.0,0.7000000000000001,0.0,2.0,1.7000000000000002,2.4000000000000004,11.4,-6.600000000000001,-33.9,-16.5,16
459,7830.0,0.8,-0.1,2.2,1.7000000000000002,2.4000000000000004,11.4,-6.600000000000001,-33.9,-16.5,16
460,7847.0,0.6000000000000001,-0.30000000000000004,2.3000000000000003,1.5,2.0,11.600000000000001,-12.100000000000001,-22.1,-21.6,16
461,7864.0,0.2,-0.5,1.7000000000000002,1.2000000000000002,1.8,11.0,-24.599999999999998,0.4,-26.300000000000004,16
462,7881.0,0.1,-0.5,1.4000000000000001,1.2000000000000002,1.8,11.0,-24.599999999999998,0.4,-26.300000000000004,16
463,7900.0,0.1,-0.6000000000000001,1.3,1.4000000000000001,1.6,11.200000000000001,-26.5,-5.8,-26.200000000000003,16
464,7914.0,0.5,-0.5,2.4000000000000004,1.7000000000000002,1.7000000000000002,12.200000000000001,-24.8,-18.4,-24.900000000000002,16
465,7931.0,0.6000000000000001,-0.4,3.1,1.7000000000000002,1.7000000000000002,12.600000000000001,-10.200000000000001,-22.8,-28.900000000000002,16
466,7948.0,0.5,-0.6000000000000001,3.0,1.5,1.3,12.4,-10.200000000000001,-22.8,-28.900000000000002,16
467,7966.0,0.1,-1.0,2.4000000000000004,1.2000000000000002,0.9,11.4,-4.4,-7.8,-30.4,16
468,7980.0,0.0,-1.4000000000000001,0.9,1.0,0.7000000000000001,10.100000000000001,0.1,23.900000000000006,-22.3,16
469,7998.0,0.0,-1.2000000000000002,-0.7000000000000001,1.0,0.9,8.8,1.7,19.200000000000003,-16.5,16
470,8014.0,0.2,-1.0,-1.3,1.4000000000000001,1.3,8.1,1.7,19.200000000000003,-16.5,16
471,8031.0,0.6000000000000001,-0.5,-1.4000000000000001,1.7000000000000002,1.7000000000000002,8.4,0.7,3.3000000000000007,-13.100000000000001,16
472,8049.0,0.9,-0.2,-0.30000000000000004,2.0,1.9000000000000001,9.4,-4.4,-16.0,-17.1,16
473,8064.0,1.0,-0.2,0.1,2.0,1.9000000000000001,9.4,-4.4,-16.0,-17.1,16
474,8081.0,0.6000000000000001,-0.4,-0.2,1.3,1.5,9.0,-4.800000000000001,-5.6,-23.0,16
475,8097.0,-0.2,-0.7000000000000001,-1.4000000000000001,0.7000000000000001,1.4000000000000001,8.0,-8.700000000000001,21.7,-24.5,16
476,8114.0,-0.5,-0.5,-2.1,0.30000000000000004,1.5,7.4,-8.3,20.8,-20.400000000000002,16
477,8130.0,-0.6000000000000001,-0.4,-2.3000000000000003,0.30000000000000004,1.7000000000000002,7.2,-8.3,20.8,-20.400000000000002,16
478,8147.0,-0.30000000000000004,-0.2,-2.1,0.6000000000000001,1.9000000000000001,7.6000000000000005,-6.2,13.3,-15.700000000000001,16
479,8165.0,0.0,0.0,-1.8,0.8,2.0,7.7,5.0,0.8,-10.5,16
480,8181.0,0.0,0.1,-1.9000000000000001,0.7000000000000001,2.2,7.4,5.0,0.8,-10.5,16
481,8197.0,-0.1,0.2,-2.3000000000000003,0.6000000000000001,2.3000000000000003,7.2,5.500000000000001,2.1,-10.299999999999999,16
482,8214.0,0.0,0.5,-2.0,0.7000000000000001,2.6,7.6000000000000005,-5.300000000000001,6.500000000000001,-9.3,16
483,8231.0,0.1,0.6000000000000001,-1.6,0.7000000000000001,2.6,7.6000000000000005,-5.300000000000001,6.500000000000001,-9.3,16
484,8247.0,0.1,0.6000000000000001,-1.0,0.7000000000000001,2.6,8.6,-6.1000000000000005,6.2,-9.5,16
485,8264.0,-0.1,0.5,-0.8,0.6000000000000001,2.6,8.8,-3.5,5.4,-8.700000000000001,16
486,8280.0,-0.1,0.6000000000000001,-0.5,0.6000000000000001,2.7,9.0,1.3,5.9,-4.0,16
487,8297.0,0.0,0.7000000000000001,-0.30000000000000004,0.7000000000000001,2.9000000000000004,9.3,1.3,5.9,-4.0,16
488,8314.0,0.1,0.9,-0.1,0.6000000000000001,2.9000000000000004,9.3,3.4,9.4,-3.1,16
489,8330.0,-0.2,0.8,-0.30000000000000004,0.30000000000000004,2.7,9.200000000000001,3.4,14.5,-2.8,16
490,8348.0,-0.4,0.30000000000000004,0.0,0.30000000000000004,2.7,9.200000000000001,3.4,14.5,-2.8,16
491,8364.0,-0.5,0.2,0.30000000000000004,0.1,2.2,10.100000000000001,0.9000000000000001,12.600000000000001,1.1,16
492,8381.0,-0.30000000000000004,0.1,0.9,0.30000000000000004,2.2,10.600000000000001,0.9000000000000001,8.3,7.200000000000001,16
493,8398.0,0.30000000000000004,0.2,1.4000000000000001,0.9,2.4000000000000004,10.9,7.6,-4.300000000000001,16.6,16
494,8417.0,0.9,0.30000000000000004,1.7000000000000002,1.5,2.4000000000000004,11.100000000000001,7.9,-4.800000000000001,15.6,16
495,8430.0,1.2000000000000002,0.30000000000000004,1.6,1.9000000000000001,2.5,10.9,7.9,-4.800000000000001,15.6,16
496,8447.0,1.3,0.5,1.0,1.8,2.6,10.5,-6.600000000000001,-0.9000000000000001,4.0,16
497,8464.0,0.9,0.4,1.2000000000000002,1.5,2.4000000000000004,10.8,-19.700000000000003,-6.0,-1.9,16
498,8480.0,0.7000000000000001,0.2,1.7000000000000002,1.1,2.0,11.9,-19.700000000000003,-6.0,-1.9,16
499,8497.0,0.2,-0.30000000000000004,3.4000000000000004,0.7000000000000001,1.4000000000000001,13.4,-28.0,-13.6,-4.9,16
500,8514.0,-0.30000000000000004,-1.0,4.800000000000001,0.4,0.8,14.4,-6.2,-18.3,3.4,16
501,8531.0,-0.5,-1.4000000000000001,4.7,0.30000000000000004,0.30000000000000004,13.700000000000001,-6.2,-18.3,3.4,16
502,8547.0,-0.4,-1.7000000000000002,2.7,0.5,0.5,11.3,16.4,-9.2,13.8,16
503,8564.0,0.0,-1.2000000000000002,-0.1,0.9,1.0,9.200000000000001,30.799999999999997,0.6000000000000001,27.099999999999998,16
504,8580.0,0.30000000000000004,-1.0,-1.0,0.9,1.0,9.200000000000001,30.799999999999997,0.6000000000000001,27.099999999999998,16
505,8597.0,0.6000000000000001,-0.5,-1.9000000000000001,1.5,1.7000000000000002,7.7,20.400000000000002,-3.4,24.7,16
506,8614.0,0.5,-0.4,-1.5,1.3,1.6,8.5,4.2,-7.699999999999999,18.0,16
507,8631.0,0.1,-0.7000000000000001,0.0,1.0,1.3,9.700000000000001,-18.0,-5.300000000000001,6.9,16
508,8647.0,-0.1,-0.9,0.5,0.6000000000000001,1.0,10.3,-18.0,-5.300000000000001,6.9,16
509,8664.0,-0.6000000000000001,-1.1,0.6000000000000001,0.30000000000000004,0.8,10.100000000000001,-15.000000000000002,-2.0,7.6,16
510,8680.0,-0.6000000000000001,-1.0,0.30000000000000004,0.4,1.0,9.8,0.0,-4.800000000000001,16.900000000000002,16
511,8698.0,-0.4,-0.6000000000000001,-0.1,0.6000000000000001,1.3,9.5,5.1000000000000005,-7.1000000000000005,19.9,16
512,8717.0,-0.30000000000000004,-0.5,-0.2,0.7000000000000001,1.6,9.4,5.1000000000000005,-7.1000000000000005,19.9,16
513,8733.0,-0.30000000000000004,-0.30000000000000004,-0.2,0.8,1.6,9.3,8.100000000000001,-8.100000000000001,20.8,16
514,8747.0,-0.2,-0.30000000000000004,-0.5,0.8,1.7000000000000002,9.0,13.5,0.2,20.900000000000002,16
515,8764.0,-0.2,-0.2,-0.9,0.9,1.9000000000000001,8.3,13.5,0.2,20.900000000000002,16
516,8781.0,-0.2,-0.1,-1.7000000000000002,0.9,2.1,7.6000000000000005,16.0,3.9,20.599999999999998,16
517,8798.0,-0.1,0.1,-2.2,1.0,2.3000000000000003,7.300000000000001,15.299999999999999,-1.1,18.5,16
518,8816.0,0.0,0.30000000000000004,-2.3000000000000003,1.1,2.5,7.2,12.0,-6.1000000000000005,15.700000000000001,16
519,8830.0,0.1,0.5,-2.0,1.2000000000000002,2.7,7.9,12.0,-6.1000000000000005,15.700000000000001,16
520,8848.0,0.1,0.5,-1.1,1.2000000000000002,2.6,8.4,6.9,-6.2,6.300000000000001,16
521,8865.0,-0.2,0.4,-0.9,0.9,2.6,8.6,6.0,-1.3,2.9,16
522,8883.0,-0.5,0.4,-0.6000000000000001,0.6000000000000001,2.6,8.8,5.9,2.5,1.4,16
523,8897.0,-0.6000000000000001,0.30000000000000004,-0.7000000000000001,0.5,2.6,8.700000000000001,5.9,2.5,1.4,16
524,8915.0,-0.7000000000000001,0.30000000000000004,-0.9,0.4,2.6,8.5,9.2,1.9,1.4,16
525,8943.0,-0.5,0.2,-1.1,0.7000000000000001,2.5,8.5,7.699999999999999,-2.6,2.3,16
526,8948.0,-0.5,0.2,-1.1,0.7000000000000001,2.5,8.5,7.699999999999999,-2.6,2.3,16
527,8964.0,-0.30000000000000004,0.2,-0.4,0.9,2.5,9.1,-1.5,-9.8,1.6,16
528,8980.0,-0.1,0.2,-0.1,0.9,2.5,9.1,-1.5,-9.8,1.6,16
529,8997.0,0.0,0.1,0.4,1.4000000000000001,2.3000000000000003,10.100000000000001,-6.699999999999999,-11.2,-0.2,16
530,9018.0,0.30000000000000004,-0.1,1.0,1.6,2.1,10.5,-11.6,-9.700000000000001,-1.7,16
531,9031.0,0.5,-0.1,1.1,1.8,2.1,10.5,-16.6,-2.6,-5.8,16
532,9050.0,0.7000000000000001,-0.1,0.9,1.9000000000000001,2.1,10.3,-18.900000000000002,-0.6000000000000001,-9.3,16
533,9064.0,0.8,0.0,0.6000000000000001,2.1,2.1,10.0,-18.900000000000002,-0.6000000000000001,-9.3,16
534,9082.0,0.9,0.0,0.6000000000000001,2.1,1.9000000000000001,10.3,-29.600000000000005,-10.9,-19.1,16
535,9097.0,0.8,-0.1,1.2000000000000002,2.1,1.9000000000000001,10.3,-29.600000000000005,-10.9,-19.1,16
536,9116.0,0.4,-0.4,2.8000000000000003,1.7000000000000002,1.2000000000000002,13.0,-32.6,-19.0,-21.8,16
537,9130.0,0.2,-0.9,4.3,1.5,0.8,14.0,-27.800000000000004,-21.7,-21.8,16
538,9147.0,0.1,-1.3,4.4,1.4000000000000001,0.4,13.700000000000001,1.4,1.8000000000000003,-12.4,16
539,9164.0,0.1,-1.5,3.5,1.4000000000000001,0.4,13.700000000000001,1.4,1.8000000000000003,-12.4,16
540,9180.0,0.2,-1.3,1.2000000000000002,1.8,0.6000000000000001,10.100000000000001,14.0,13.700000000000001,-6.699999999999999,16
541,9198.0,0.9,-1.1,-0.5,2.3000000000000003,0.9,8.9,19.0,12.100000000000001,-1.9,16
542,9214.0,1.4000000000000001,-0.7000000000000001,-1.4000000000000001,2.7,1.3,8.1,13.100000000000001,5.7,-4.9,16
543,9231.0,1.5,-0.5,-1.7000000000000002,2.9000000000000004,1.7000000000000002,7.9,13.100000000000001,5.7,-4.9,16
544,9247.0,1.6,-0.2,-1.4000000000000001,2.9000000000000004,1.7000000000000002,8.5,3.2,-1.0,-11.4,16
545,9264.0,1.4000000000000001,-0.4,-0.30000000000000004,2.6,1.5,9.4,-14.0,2.1,-25.8,16
546,9280.0,1.1,-0.4,0.1,2.6,1.5,9.4,-14.0,2.1,-25.8,16
547,9297.0,0.5,-0.7000000000000001,-0.1,1.4000000000000001,1.1,9.0,-13.200000000000003,13.100000000000001,-29.300000000000004,16
548,9314.0,0.0,-0.8,-1.5,0.9,1.1,7.9,-4.5,25.0,-25.7,16
549,9331.0,-0.30000000000000004,-0.8,-2.1,0.9,1.1,7.9,-4.5,25.0,-25.7,16
550,9348.0,-0.4,-0.4,-2.4000000000000004,0.6000000000000001,1.5,7.300000000000001,-2.6,16.700000000000003,-20.5,16
551,9364.0,-0.2,-0.2,-1.9000000000000001,0.8,1.7000000000000002,7.800000000000001,-0.5,6.2,-15.5,16
552,9381.0,0.1,0.1,-1.4000000000000001,1.1,2.0,8.200000000000001,3.6000000000000005,5.1000000000000005,-10.600000000000001,16
553,9399.0,0.4,0.4,-1.5,1.3,2.3000000000000003,8.0,4.1,13.3,-11.4,16
554,9414.0,0.4,0.5,-1.9000000000000001,1.3,2.4000000000000004,7.4,4.1,13.3,-11.4,16
555,9431.0,0.30000000000000004,0.6000000000000001,-2.5,1.0,2.5,7.0,-1.1,15.899999999999999,-14.900000000000002,16
556,9450.0,0.2,0.8,-2.2,0.9,2.7,7.4,-5.2,10.0,-14.800000000000002,16
557,9464.0,0.2,0.8,-1.7000000000000002,0.9,2.7,8.3,-5.2,10.0,-14.800000000000002,16
558,9480.0,0.2,0.8,-0.6000000000000001,0.9,2.6,9.200000000000001,-6.600000000000001,5.2,-15.100000000000001,16
559,9502.0,0.1,0.6000000000000001,0.30000000000000004,0.8,2.5,9.8,-2.8,14.100000000000001,-14.400000000000002,16
560,9514.0,0.1,0.6000000000000001,0.4,0.7000000000000001,2.4000000000000004,9.9,-2.8,14.100000000000001,-14.400000000000002,16
561,9531.0,0.0,0.5,0.0,0.4,2.3000000000000003,9.4,1.2000000000000002,21.500000000000004,-13.8,16
562,9547.0,-0.2,0.30000000000000004,-0.2,0.30000000000000004,2.2,9.4,2.3,17.1,-8.100000000000001,16
563,9567.0,-0.1,0.1,0.2,0.4,2.0,9.8,1.4,8.4,-3.1,16
564,9583.0,0.1,0.1,0.5,0.7000000000000001,2.0,10.4,1.4,8.4,-3.1,16
565,9601.0,0.7000000000000001,0.1,1.3,1.3,2.1,10.9,0.5,0.4,1.0,16
566,9614.0,1.4000000000000001,0.30000000000000004,1.7000000000000002,2.0,2.2,11.3,-5.8,-2.8,-0.30000000000000004,16
567,9631.0,1.8,0.5,1.9000000000000001,2.5,2.6,11.700000000000001,-5.8,-2.8,-0.30000000000000004,16
568,9647.0,1.9000000000000001,0.8,2.5,2.0,2.5,12.200000000000001,-12.200000000000001,-1.4,-8.0,16
569,9665.0,0.9,0.30000000000000004,2.9000000000000004,1.1,1.9000000000000001,12.600000000000001,-28.500000000000004,11.900000000000002,-26.200000000000003,16
570,9681.0,0.4,-0.1,3.1,1.1,1.9000000000000001,12.600000000000001,-28.500000000000004,11.900000000000002,-26.200000000000003,16
571,9700.0,-0.5,-0.7000000000000001,2.7,-0.4,0.8,12.100000000000001,-32.5,25.200000000000003,-27.0,16
572,9714.0,-0.7000000000000001,-0.8,1.9000000000000001,-0.5,0.7000000000000001,11.5,-30.799999999999997,34.800000000000004,-22.1,16
573,9730.0,-0.6000000000000001,-0.6000000000000001,1.1,-0.5,0.8,10.8,-16.6,31.3,-7.9,16
574,9747.0,-0.30000000000000004,-0.5,0.9,0.0,1.0,10.5,-16.6,31.3,-7.9,16
575,9764.0,0.2,-0.4,0.30000000000000004,0.1,0.9,9.700000000000001,-7.200000000000001,20.3,-4.300000000000001,16
576,9780.0,-0.2,-0.9,-0.6000000000000001,-0.4,0.5,9.1,5.0,-1.2000000000000002,-5.500000000000001,16
577,9797.0,-0.6000000000000001,-1.1,-0.7000000000000001,-0.4,0.5,9.1,5.0,-1.2000000000000002,-5.500000000000001,16
578,9814.0,-0.6000000000000001,-1.1,-0.7000000000000001,-0.30000000000000004,0.4,9.0,1.2000000000000002,1.0,-1.3,16
579,9831.0,0.1,-0.8,-0.9,0.1,0.1,8.700000000000001,-4.5,8.8,2.5,16
580,9850.0,0.2,-0.9,-1.1,0.30000000000000004,0.4,8.5,-19.400000000000002,29.500000000000004,3.5,16
581,9866.0,1.4000000000000001,-0.9,-1.9000000000000001,0.8,0.5,8.1,-19.400000000000002,29.500000000000004,3.5,16
582,9880.0,0.5,-0.4,-1.3,0.8,0.7000000000000001,8.5,-23.6,22.8,-1.5,16
583,9897.0,1.2000000000000002,-0.7000000000000001,-0.9,0.7000000000000001,0.4,8.8,-5.500000000000001,-3.8,-7.300000000000001,16
584,9914.0,0.1,-0.8,-1.2000000000000002,-0.2,0.4,8.5,10.700000000000001,-12.299999999999999,-4.5,16
585,9930.0,-0.4,-0.8,-1.7000000000000002,-0.9,0.5,7.5,10.700000000000001,-12.299999999999999,-4.5,16
586,9947.0,-0.7000000000000001,-0.5,-3.6,-0.5,1.0,5.5,23.900000000000006,-16.200000000000003,5.2,16
587,9964.0,0.30000000000000004,0.0,-4.800000000000001,0.4,1.4000000000000001,4.9,13.200000000000003,-30.200000000000003,22.000000000000004,16
588,9981.0,0.6000000000000001,0.1,-4.3,0.6000000000000001,1.5,5.800000000000001,13.200000000000003,-30.200000000000003,22.000000000000004,16
589,9997.0,0.5,0.30000000000000004,-3.1,0.8,1.5,7.0,-4.800000000000001,-26.700000000000003,25.5,16
590,10019.0,1.1,0.0,-1.3,1.3,1.1,8.6,-14.800000000000002,-25.5,26.9,16
591,10032.0,0.8,-0.5,0.0,1.1,0.7000000000000001,9.600000000000001,5.0,-27.2,25.8,16
592,10047.0,0.6000000000000001,-0.8,-0.30000000000000004,1.0,0.4,8.8,5.0,-27.2,25.8,16
593,10064.0,0.9,-1.0,-1.6,1.5,0.6000000000000001,7.5,28.200000000000003,-26.799999999999997,29.600000000000005,16
594,10080.0,0.8,-0.4,-3.0,1.4000000000000001,1.3,6.4,45.5,-44.5,31.7,16
595,10097.0,0.4,-0.1,-3.1,1.0,1.7000000000000002,6.6000000000000005,45.5,-44.5,31.7,16
596,10113.0,0.30000000000000004,0.0,-2.3000000000000003,1.4000000000000001,1.6,7.4,39.0,-63.900000000000006,32.2,16
597,10130.0,0.1,-0.7000000000000001,-1.3,1.4000000000000001,0.8,8.200000000000001,27.700000000000003,-98.0,31.099999999999998,16
598,10148.0,-0.2,-1.5,-0.7000000000000001,1.4000000000000001,0.8,8.200000000000001,27.700000000000003,-98.0,31.099999999999998,16
599,10163.0,0.2,-2.1,0.6000000000000001,2.6,-0.1,9.9,24.900000000000002,-105.5,39.300000000000004,16
600,10180.0,1.3,-1.4000000000000001,0.6000000000000001,3.8000000000000003,0.8,9.9,5.1000000000000005,-92.8,46.800000000000004,16
601,10197.0,2.2,-0.2,1.5,4.800000000000001,1.6,10.700000000000001,-10.8,-85.60000000000001,32.8,16
602,10214.0,2.5,-0.2,2.1,5.2,1.2000000000000002,11.100000000000001,-10.8,-85.60000000000001,32.8,16
603,10230.0,2.2,-1.1,1.8,4.9,0.2,10.600000000000001,-23.900000000000006,-72.80000000000001,13.200000000000003,16
604,10247.0,1.5,-1.8,0.8,4.3,-0.4,9.8,-54.0,-42.900000000000006,-10.299999999999999,16
605,10265.0,1.0,-1.9000000000000001,0.6000000000000001,4.3,-0.4,9.8,-54.0,-42.900000000000006,-10.299999999999999,16
606,10280.0,0.30000000000000004,-1.7000000000000002,1.0,3.4000000000000004,-0.30000000000000004,10.8,-67.4,-45.2,-11.3,16
607,10297.0,-0.1,-0.8,3.2,3.3000000000000003,0.30000000000000004,12.600000000000001,-69.9,-70.6,-5.500000000000001,16
608,10318.0,-0.30000000000000004,-0.30000000000000004,4.6000000000000005,3.3000000000000003,0.4,13.600000000000001,-55.900000000000006,-70.5,-3.6000000000000005,16
609,10333.0,-0.5,-0.4,4.3,3.3000000000000003,0.2,13.3,-44.2,-55.900000000000006,-0.9000000000000001,16
610,10349.0,-0.5,-0.5,3.6,3.5,-0.2,12.0,-44.2,-55.900000000000006,-0.9000000000000001,16
611,10364.0,-0.4,-1.1,1.6,3.5,-0.8,10.200000000000001,-34.60000000000001,-31.099999999999998,3.6000000000000005,16
612,10382.0,-0.5,-1.4000000000000001,0.6000000000000001,3.5,-0.8,10.200000000000001,-34.60000000000001,-31.099999999999998,3.6000000000000005,16
613,10398.0,-0.4,-1.7000000000000002,-0.7000000000000001,3.8000000000000003,-1.6,7.9,-39.50000000000001,-37.400000000000006,9.5,16
614,10414.0,-0.1,-1.6,-0.5,4.4,-1.5,8.6,-56.400000000000006,-67.10000000000001,22.6,16
615,10430.0,0.2,-1.3,0.4,4.4,-1.5,8.6,-56.400000000000006,-67.10000000000001,22.6,16
616,10447.0,0.9,-0.6000000000000001,1.5,5.6000000000000005,-0.6000000000000001,10.3,-59.699999999999996,-68.2,22.8,16
617,10464.0,0.7000000000000001,0.2,1.6,5.2,-0.2,9.9,-62.199999999999996,-55.0,14.200000000000001,16
618,10480.0,-0.1,0.4,0.7000000000000001,4.5,-0.30000000000000004,9.0,-71.39999999999999,-9.700000000000001,-16.0,16
619,10497.0,-0.7000000000000001,0.30000000000000004,0.2,4.5,-0.30000000000000004,9.0,-71.39999999999999,-9.700000000000001,-16.0,16
620,10515.0,-1.8,0.1,-0.5,2.6,-1.0,7.800000000000001,-76.0,5.300000000000001,-26.000000000000004,16
621,10530.0,-2.7,-0.1,-0.8,1.9000000000000001,-1.3,7.7,-71.8,5.1000000000000005,-22.5,16
622,10547.0,-2.9000000000000004,-0.1,-0.7000000000000001,2.0,-1.1,8.200000000000001,-62.300000000000004,-2.5,-11.8,16
623,10564.0,-2.5,0.4,0.0,2.5,-0.9,8.5,-62.300000000000004,-2.5,-11.8,16
624,10580.0,-1.9000000000000001,0.8,0.2,2.9000000000000004,-0.6000000000000001,8.5,-48.6,-10.4,-2.9,16
625,10597.0,-1.6,1.0,-0.1,3.1,-0.5,8.1,-27.800000000000004,-18.3,4.4,16
626,10614.0,-1.6,1.1,-0.30000000000000004,3.1,-0.5,8.1,-27.800000000000004,-18.3,4.4,16
627,10630.0,-1.5,1.3,-0.5,3.3000000000000003,-0.30000000000000004,7.800000000000001,-28.3,-15.2,6.1000000000000005,16
628,10647.0,-1.4000000000000001,1.6,-0.1,3.4000000000000004,-0.2,8.3,-36.8,-4.9,9.0,16
629,10664.0,-1.2000000000000002,1.9000000000000001,1.1,3.6,0.0,9.4,-38.7,6.4,10.4,16
630,10680.0,-1.1,2.0,1.8,3.7,0.1,10.5,-38.7,6.4,10.4,16
631,10697.0,-0.7000000000000001,2.2,2.4000000000000004,3.9000000000000004,0.2,10.5,-36.1,23.0,10.1,16
632,10713.0,-0.6000000000000001,1.9000000000000001,1.5,4.0,-0.30000000000000004,9.700000000000001,-21.7,32.6,4.5,16
633,10730.0,-0.6000000000000001,1.5,1.2000000000000002,4.0,-0.30000000000000004,9.700000000000001,-21.7,32.6,4.5,16
634,10747.0,-0.7000000000000001,0.9,1.0,3.8000000000000003,-1.3,9.700000000000001,-22.8,25.8,7.9,16
635,10764.0,-0.1,1.2000000000000002,2.3000000000000003,4.4,-1.1,11.200000000000001,-32.400000000000006,6.4,25.4,16
636,10780.0,0.30000000000000004,1.3,3.4000000000000004,4.4,-1.1,11.200000000000001,-32.400000000000006,6.4,25.4,16
637,10798.0,1.0,1.3,5.300000000000001,5.4,-1.2000000000000002,14.200000000000001,-28.400000000000002,-1.8000000000000003,26.6,16
638,10814.0,1.2000000000000002,1.2000000000000002,6.1000000000000005,5.5,-1.3,14.5,-25.300000000000004,2.9,24.8,16
639,10833.0,0.9,1.3,5.6000000000000005,5.1000000000000005,-1.3,14.0,-24.8,25.6,20.7,16
640,10847.0,0.7000000000000001,1.4000000000000001,5.300000000000001,4.4,-1.2000000000000002,13.700000000000001,-24.8,25.6,20.7,16
641,10865.0,-0.2,1.8,5.1000000000000005,3.7,-0.8,13.700000000000001,-24.0,28.3,24.1,16
642,10883.0,-0.6000000000000001,2.5,5.1000000000000005,3.4000000000000004,-0.2,13.700000000000001,2.3,7.6,41.900000000000006,16
643,10897.0,-0.6000000000000001,2.8000000000000003,5.0,3.4000000000000004,-0.2,13.700000000000001,2.3,7.6,41.900000000000006,16
644,10917.0,0.5,2.6,4.2,4.4,-0.1,13.0,41.50000000000001,-14.800000000000002,50.400000000000006,16
645,10938.0,0.6000000000000001,1.9000000000000001,3.4000000000000004,4.5,-0.6000000000000001,12.4,52.00000000000001,-13.000000000000002,47.1,16
646,10947.0,0.5,1.4000000000000001,3.1,4.4,-1.2000000000000002,11.8,56.400000000000006,-7.0,43.4,16
647,10964.0,0.30000000000000004,1.0,2.7,4.1000000000000005,-1.9000000000000001,11.5,56.400000000000006,-7.0,43.4,16
648,10980.0,-0.2,-0.1,2.5,3.5,-2.7,11.3,60.00000000000001,-5.300000000000001,40.6,16
649,10997.0,-0.9,-0.8,2.2,2.9000000000000004,-3.0,11.3,68.3,-4.2,53.10000000000001,16
650,11015.0,-1.1,-0.5,2.0,2.8000000000000003,-2.5,11.100000000000001,77.60000000000001,-5.0,64.50000000000001,16
651,11030.0,-1.0,-0.2,1.6,3.0,-1.8,10.4,77.60000000000001,-5.0,64.50000000000001,16
652,11047.0,-0.6000000000000001,0.30000000000000004,0.8,3.3000000000000003,-1.4000000000000001,9.8,88.20000000000002,-8.600000000000001,70.8,16
653,11065.0,-0.30000000000000004,0.5,0.0,3.5,-1.1,9.200000000000001,101.80000000000001,-9.4,66.1,16
654,11080.0,-0.2,0.4,-0.4,3.7,-1.2000000000000002,8.4,101.80000000000001,-9.4,66.1,16
655,11102.0,-0.1,-0.30000000000000004,-1.2000000000000002,3.6,-1.7000000000000002,8.0,104.60000000000001,-10.600000000000001,57.3,16
656,11113.0,-0.30000000000000004,-1.2000000000000002,-1.3,3.5,-2.2,8.0,99.00000000000001,-8.899999999999999,40.6,16
657,11131.0,-0.5,-1.8,-1.4000000000000001,3.5,-2.2,8.0,99.00000000000001,-8.899999999999999,40.6,16
658,11147.0,-0.4,-1.9000000000000001,-1.5,3.6,-2.4000000000000004,7.6000000000000005,96.9,-7.6,37.1,16
659,11164.0,-0.1,-1.9000000000000001,-2.1,3.9000000000000004,-2.1,7.0,97.60000000000001,-10.1,33.7,16
660,11180.0,0.1,-2.0,-2.8000000000000003,4.0,-2.0,6.300000000000001,94.7,-22.4,17.0,16
661,11197.0,0.1,-2.1,-3.1,4.1000000000000005,-1.9000000000000001,5.800000000000001,94.7,-22.4,17.0,16
662,11214.0,0.0,-2.2,-3.4000000000000004,4.1000000000000005,-1.8,5.6000000000000005,87.10000000000001,-27.2,5.2,16
663,11230.0,-0.2,-2.2,-3.4000000000000004,3.8000000000000003,-1.7000000000000002,5.6000000000000005,65.2,-32.1,-19.9,16
664,11249.0,-0.8,-2.5,-3.1,3.5,-1.7000000000000002,5.9,54.6,-31.9,-29.0,16
665,11264.0,-1.0,-2.6,-2.7,3.2,-1.9000000000000001,6.5,54.6,-31.9,-29.0,16
666,11280.0,-1.4000000000000001,-3.1,-1.8,3.0,-2.2,7.300000000000001,44.6,-28.900000000000002,-34.1,16
667,11297.0,-1.3,-3.4000000000000004,-0.8,3.1,-2.3000000000000003,8.0,31.3,-22.000000000000004,-32.2,16
668,11314.0,-1.1,-3.5,-0.7000000000000001,3.4000000000000004,-2.5,8.0,31.3,-22.000000000000004,-32.2,16
669,11330.0,-0.9,-3.8000000000000003,-0.8,3.7,-2.7,7.9,26.6,-22.4,-30.4,16
670,11347.0,-0.8,-4.1000000000000005,-0.6000000000000001,3.8000000000000003,-3.0,8.0,7.9,-26.300000000000004,-25.900000000000002,16
671,11369.0,-0.30000000000000004,-4.5,-0.8,4.4,-3.2,7.800000000000001,-9.5,-22.4,-22.000000000000004,16
672,11380.0,0.1,-4.5,-0.6000000000000001,4.9,-3.3000000000000003,8.200000000000001,-9.5,-22.4,-22.000000000000004,16
673,11397.0,0.30000000000000004,-4.3,0.1,5.0,-3.2,8.8,-26.200000000000003,-21.900000000000002,-21.7,16
674,11414.0,0.2,-4.0,0.7000000000000001,4.9,-3.0,9.600000000000001,-48.70000000000001,-8.4,-22.1,16
675,11430.0,0.30000000000000004,-3.7,2.3000000000000003,5.2,-2.7,11.9,-48.70000000000001,-8.4,-22.1,16
676,11447.0,0.0,-3.3000000000000003,1.9000000000000001,4.1000000000000005,-2.3000000000000003,10.4,-36.1,15.100000000000001,-23.3,16
677,11465.0,-1.3,-2.8000000000000003,1.4000000000000001,3.3000000000000003,-1.9000000000000001,9.9,-0.6000000000000001,-7.200000000000001,-15.000000000000002,16
678,11480.0,-1.4000000000000001,-2.5,0.9,3.3000000000000003,-1.9000000000000001,9.9,-0.6000000000000001,-7.200000000000001,-15.000000000000002,16
679,11497.0,-0.9,-1.8,-0.30000000000000004,4.2,-0.9,8.0,-0.2,-9.100000000000001,0.7,16
680,11513.0,0.2,-1.4000000000000001,-0.6000000000000001,5.300000000000001,-0.8,7.9,-23.5,-19.700000000000003,19.9,16
681,11533.0,1.3,-1.5,-0.9,6.1000000000000005,-1.0,7.7,-41.0,-16.200000000000003,17.6,16
682,11548.0,1.4000000000000001,-1.6,-0.7000000000000001,6.1000000000000005,-1.4000000000000001,8.3,-41.0,-16.200000000000003,17.6,16
683,11565.0,1.2000000000000002,-1.7000000000000002,0.2,6.1000000000000005,-1.6,9.0,-55.60000000000001,-12.200000000000001,13.900000000000002,16
684,11582.0,1.1,-1.6,1.1,5.9,-1.5,9.700000000000001,-63.30000000000001,-2.6,13.200000000000003,16
685,11600.0,0.9,-0.8,1.3,5.800000000000001,-1.0,9.9,-58.60000000000001,6.2,13.6,16
686,11615.0,0.9,-0.4,1.1,5.7,-0.4,9.4,-58.60000000000001,6.2,13.6,16
687,11636.0,0.4,0.4,0.30000000000000004,5.0,0.1,8.700000000000001,-48.400000000000006,20.900000000000002,4.2,16
688,11647.0,0.0,0.8,-0.1,5.0,0.1,8.700000000000001,-48.400000000000006,20.900000000000002,4.2,16
689,11665.0,-0.7000000000000001,1.2000000000000002,-1.0,3.7,0.6000000000000001,7.300000000000001,-44.9,26.1,1.6,16
690,11680.0,-1.2000000000000002,1.4000000000000001,-1.6,3.3000000000000003,0.6000000000000001,7.0,-41.50000000000001,26.6,1.3,16
691,11697.0,-1.3,1.3,-1.8,3.3000000000000003,0.4,6.800000000000001,-29.500000000000004,18.1,6.699999999999999,16
692,11714.0,-1.0,1.1,-2.0,3.3000000000000003,0.4,6.800000000000001,-29.500000000000004,18.1,6.699999999999999,16
693,11733.0,-0.8,1.0,-2.0,3.7,0.0,6.7,-23.800000000000004,11.700000000000001,8.600000000000001,16
694,11749.0,-0.5,1.1,-2.0,4.0,0.1,6.7,-21.500000000000004,10.8,15.100000000000001,16
695,11763.0,-0.1,1.4000000000000001,-1.9000000000000001,4.3,0.4,6.800000000000001,-22.2,9.600000000000001,14.800000000000002,16
696,11780.0,0.0,1.6,-1.8,4.4,0.6000000000000001,6.9,-22.2,9.600000000000001,14.800000000000002,16
697,11797.0,0.1,2.0,-1.5,4.5,0.8,7.300000000000001,-23.400000000000002,5.7,11.8,16
698,11813.0,0.30000000000000004,2.1,-0.5,4.6000000000000005,0.9,8.3,-26.300000000000004,2.5,5.2,16
699,11832.0,0.2,2.4000000000000004,0.2,4.6000000000000005,0.9,8.3,-26.300000000000004,2.5,5.2,16
700,11847.0,0.4,2.5,0.6000000000000001,4.9,1.1,9.3,-23.700000000000003,10.600000000000001,3.4,16
701,11864.0,0.9,2.2,0.7000000000000001,5.2,0.6000000000000001,9.4,-15.6,16.3,-4.300000000000001,16
702,11882.0,0.9,1.4000000000000001,0.8,5.1000000000000005,-0.1,9.5,-14.700000000000001,15.700000000000001,-7.0,16
703,11897.0,0.7000000000000001,1.0,0.7000000000000001,4.800000000000001,-0.7000000000000001,9.4,-14.700000000000001,15.700000000000001,-7.0,16
704,11914.0,0.5,0.6000000000000001,1.0,4.6000000000000005,-0.8,9.9,-18.1,14.700000000000001,-4.300000000000001,16
705,11931.0,0.5,0.9,1.8,4.800000000000001,-0.6000000000000001,10.600000000000001,-26.1,4.9,7.500000000000001,16
706,11947.0,0.9,1.0,2.2,4.800000000000001,-0.6000000000000001,10.600000000000001,-26.1,4.9,7.500000000000001,16
707,11964.0,1.7000000000000002,1.2000000000000002,3.3000000000000003,6.0,-0.4,12.4,-26.1,-3.5,9.5,16
708,11980.0,2.0,1.4000000000000001,4.1000000000000005,6.2,-0.30000000000000004,12.9,-26.400000000000006,-4.0,5.7,16
709,11997.0,1.8,1.5,4.5,6.0,-0.30000000000000004,13.3,-24.8,-1.7,4.4,16
710,12014.0,1.5,1.6,4.7,5.4,0.0,13.5,-24.8,-1.7,4.4,16
711,12031.0,0.8,2.1,4.9,5.0,0.4,13.8,-19.400000000000002,-0.1,6.500000000000001,16
712,12048.0,0.7000000000000001,2.6,5.1000000000000005,5.0,0.9,13.9,7.200000000000001,1.0,18.900000000000002,16
713,12065.0,1.2000000000000002,2.9000000000000004,4.5,5.4,1.2000000000000002,13.4,27.700000000000003,1.0,20.400000000000002,16
714,12080.0,1.4000000000000001,2.8000000000000003,4.0,5.7,0.9,12.4,27.700000000000003,1.0,20.400000000000002,16
715,12097.0,1.3,1.8,2.6,5.4,0.0,11.4,54.4,-2.7,6.9,16
716,12114.0,0.6000000000000001,0.5,1.7000000000000002,4.9,-1.0,10.700000000000001,53.0,0.4,2.9,16
717,12130.0,0.30000000000000004,-0.1,1.5,4.3,-1.7000000000000002,10.700000000000001,53.0,0.4,2.9,16
718,12147.0,-0.2,-0.8,2.1,3.9000000000000004,-2.1,11.4,49.800000000000004,2.9,4.800000000000001,16
719,12164.0,-0.5,-0.9,2.3000000000000003,3.7,-1.8,11.3,61.599999999999994,9.600000000000001,23.900000000000006,16
720,12180.0,-0.5,-0.6000000000000001,2.0,3.8000000000000003,-1.2000000000000002,10.700000000000001,61.599999999999994,9.600000000000001,23.900000000000006,16
721,12197.0,-0.2,-0.2,0.9,4.0,-0.7000000000000001,9.5,76.60000000000001,7.1000000000000005,32.8,16
722,12213.0,-0.1,0.1,-0.6000000000000001,4.0,-0.30000000000000004,8.4,93.10000000000001,2.3,35.9,16
723,12230.0,0.0,0.0,-1.3,4.1000000000000005,-0.2,7.9,94.6,-2.0,31.6,16
724,12247.0,0.1,-0.2,-1.5,4.2,-0.4,7.6000000000000005,94.6,-2.0,31.6,16
725,12266.0,0.0,-0.8,-1.8,4.2,-0.7000000000000001,7.300000000000001,94.6,-4.800000000000001,24.3,16
726,12280.0,0.0,-1.4000000000000001,-1.9000000000000001,4.1000000000000005,-1.0,7.300000000000001,90.6,-3.0,8.600000000000001,16
727,12299.0,-0.2,-1.9000000000000001,-2.3000000000000003,3.9000000000000004,-1.2000000000000002,6.800000000000001,87.3,0.2,1.3,16
728,12316.0,-0.4,-2.1,-2.7,3.7,-1.4000000000000001,6.2,87.3,0.2,1.3,16
729,12334.0,-0.5,-2.6,-3.0,3.7,-1.6,6.1000000000000005,74.89999999999999,-3.3000000000000007,-6.500000000000001,16
730,12352.0,-0.4,-2.8000000000000003,-2.9000000000000004,3.8000000000000003,-1.6,6.1000000000000005,68.3,-8.8,-9.4,16
731,12368.0,-0.5,-2.9000000000000004,-2.3000000000000003,3.7,-1.5,6.5,62.6,-12.600000000000001,-12.5,16
732,12380.0,-0.5,-2.9000000000000004,-2.2,3.6,-1.4000000000000001,6.7,62.6,-12.600000000000001,-12.5,16
733,12397.0,-0.7000000000000001,-2.9000000000000004,-2.0,3.5,-1.3,6.800000000000001,48.10000000000001,-6.500000000000001,-21.300000000000004,16
734,12414.0,-0.7000000000000001,-2.9000000000000004,-2.0,3.6,-1.2000000000000002,6.800000000000001,48.10000000000001,-6.500000000000001,-21.300000000000004,16
735,12430.0,-0.6000000000000001,-3.0,-2.0,3.6,-1.3,6.800000000000001,39.50000000000001,-1.5,-26.400000000000006,16
736,12447.0,-0.6000000000000001,-3.5,-2.0,3.5,-1.7000000000000002,6.7,22.4,-0.9000000000000001,-37.0,16
737,12464.0,-0.9,-4.1000000000000005,-2.1,3.2,-2.2,6.6000000000000005,10.9,-6.2,-37.50000000000001,16
738,12480.0,-1.0,-4.4,-1.8,3.2,-2.6,7.300000000000001,10.9,-6.2,-37.50000000000001,16
739,12497.0,-0.9,-4.6000000000000005,-0.8,3.4000000000000004,-2.6,8.1,-2.2,-9.899999999999999,-32.6,16
740,12514.0,-0.7000000000000001,-4.4,-0.4,3.4000000000000004,-2.6,8.1,-13.8,-10.299999999999999,-25.200000000000003,16
741,12530.0,0.0,-4.1000000000000005,0.1,4.5,-2.2,8.8,-22.3,-11.3,-20.0,16
742,12547.0,0.6000000000000001,-3.9000000000000004,-0.1,4.9,-2.2,8.5,-30.699999999999996,-11.700000000000001,-18.900000000000002,16
743,12563.0,1.0,-3.7,-0.4,5.300000000000001,-2.2,8.3,-58.7,-11.4,-24.5,16
744,12580.0,1.2000000000000002,-3.7,-0.4,5.300000000000001,-2.2,8.3,-58.7,-11.4,-24.5,16
745,12597.0,0.8,-3.7,0.0,4.6000000000000005,-2.5,9.3,-77.00000000000001,-13.6,-30.200000000000003,16
746,12613.0,-0.30000000000000004,-3.3000000000000003,1.6,3.8000000000000003,-2.2,10.8,-95.1,-13.8,-31.799999999999997,16
747,12631.0,-0.8,-2.4000000000000004,3.2,3.5,-1.7000000000000002,12.100000000000001,-100.4,-6.600000000000001,-14.0,16
748,12647.0,-0.7000000000000001,-2.0,3.8000000000000003,3.8000000000000003,-1.2000000000000002,12.700000000000001,-100.4,-6.600000000000001,-14.0,16
749,12663.0,-0.4,-1.3,3.5,4.0,-1.1,11.8,-83.5,-3.8,-3.4,16
750,12680.0,-0.30000000000000004,-1.3,1.7000000000000002,4.1000000000000005,-1.3,10.200000000000001,-53.400000000000006,-2.6,13.6,16
751,12697.0,-0.2,-1.4000000000000001,0.8,4.1000000000000005,-1.3,10.200000000000001,-53.400000000000006,-2.6,13.6,16
752,12714.0,0.1,-1.3,-0.4,4.5,-1.4000000000000001,8.200000000000001,-51.50000000000001,-4.6,21.400000000000002,16
753,12730.0,0.2,-0.5,-0.8,4.6000000000000005,-0.8,8.1,-54.9,-6.8,25.7,16
754,12748.0,0.5,0.5,-0.4,4.9,-0.1,8.4,-60.00000000000001,-5.0,22.5,16
755,12763.0,0.6000000000000001,0.9,-0.4,4.9,0.5,8.3,-60.00000000000001,-5.0,22.5,16
756,12781.0,0.4,1.7000000000000002,-0.9,4.6000000000000005,0.8,7.6000000000000005,-58.0,2.3,14.800000000000002,16
757,12797.0,0.0,2.1,-1.6,4.2,1.0,7.0,-56.0,15.000000000000002,-2.9,16
758,12814.0,-0.6000000000000001,2.2,-2.5,3.7,0.9,6.300000000000001,-55.3,12.0,-9.4,16
759,12830.0,-0.8,2.1,-2.7,3.4000000000000004,0.7000000000000001,6.0,-55.3,12.0,-9.4,16
760,12849.0,-0.9,1.9000000000000001,-2.5,3.4000000000000004,0.30000000000000004,6.4,-57.9,1.2000000000000002,-14.900000000000002,16
761,12865.0,-0.9,1.6,-1.9000000000000001,3.3000000000000003,0.0,6.9,-60.400000000000006,1.1,-15.8,16
762,12883.0,-1.0,1.6,-1.0,3.2,-0.1,7.5,-61.39999999999999,4.2,-14.700000000000001,16
763,12898.0,-1.0,1.7000000000000002,-0.8,3.3000000000000003,-0.1,7.800000000000001,-61.39999999999999,4.2,-14.700000000000001,16
764,12913.0,-0.8,1.9000000000000001,-0.5,3.4000000000000004,0.0,8.1,-56.300000000000004,4.9,-9.8,16
765,12930.0,-0.7000000000000001,2.0,-0.30000000000000004,3.4000000000000004,0.0,8.1,-56.300000000000004,4.9,-9.8,16
766,12947.0,-0.6000000000000001,2.3000000000000003,-0.1,3.7,0.2,8.5,-51.50000000000001,2.7,-6.2,16
767,12964.0,-0.5,2.6,0.2,3.8000000000000003,0.4,8.700000000000001,-43.6,0.4,-2.0,16
768,12980.0,-0.2,2.9000000000000004,0.5,4.0,0.6000000000000001,9.0,-39.9,0.4,-2.0,16
769,12997.0,-0.1,2.9000000000000004,0.7000000000000001,4.3,0.5,9.3,-39.9,0.4,-2.0,16
770,13014.0,0.1,2.7,1.0,4.3,0.2,9.5,-36.6,0.7,-4.0,16
771,13030.0,0.2,2.4000000000000004,1.6,4.4,-0.2,10.100000000000001,-34.60000000000001,1.3,-2.8,16
772,13047.0,0.30000000000000004,2.2,2.0,4.4,-0.2,10.100000000000001,-34.60000000000001,1.3,-2.8,16
773,13063.0,0.8,2.1,2.9000000000000004,5.300000000000001,-0.6000000000000001,11.700000000000001,-31.5,-0.30000000000000004,0.7,16
774,13080.0,1.5,1.8,3.9000000000000004,6.0,-0.9,12.4,-18.900000000000002,-7.6,2.0,16
775,13097.0,1.9000000000000001,1.6,4.1000000000000005,6.5,-1.3,12.700000000000001,-17.400000000000002,-8.0,-2.8,16
776,13120.0,2.1,0.9,4.800000000000001,6.4,-1.7000000000000002,13.100000000000001,-19.9,-6.1000000000000005,-6.0,16
777,13135.0,2.0,0.8,5.300000000000001,6.2,-2.0,14.100000000000001,-19.9,-6.1000000000000005,-6.0,16
778,13152.0,1.3,1.0,6.5,5.5,-1.7000000000000002,15.100000000000001,-13.100000000000001,3.8,2.2,16
779,13167.0,0.7000000000000001,1.8,7.0,5.1000000000000005,-0.9,15.600000000000001,7.400000000000001,8.8,13.700000000000001,16
780,13182.0,0.8,2.1,6.7,5.300000000000001,-0.4,14.600000000000001,7.400000000000001,8.8,13.700000000000001,16
781,13197.0,1.3,2.3000000000000003,4.800000000000001,5.800000000000001,-0.30000000000000004,13.100000000000001,57.699999999999996,0.6000000000000001,25.1,16
782,13214.0,1.8,1.7000000000000002,3.2,6.2,-0.8,12.0,69.20000000000002,-7.9,21.1,16
783,13230.0,1.9000000000000001,1.2000000000000002,2.8000000000000003,6.300000000000001,-1.4000000000000001,11.5,69.20000000000002,-7.9,21.1,16
784,13249.0,1.8,0.2,2.8000000000000003,6.1000000000000005,-2.1,11.8,70.6,-11.900000000000002,13.700000000000001,16
785,13263.0,1.3,-0.6000000000000001,3.2,5.6000000000000005,-2.5,12.100000000000001,66.7,7.0,2.7,16
786,13285.0,0.5,-0.7000000000000001,2.5,4.800000000000001,-2.4000000000000004,11.5,71.10000000000001,19.5,3.2,16
787,13297.0,0.1,-0.6000000000000001,1.7000000000000002,4.1000000000000005,-2.1,10.3,71.10000000000001,19.5,3.2,16
788,13313.0,-0.5,-0.6000000000000001,0.2,3.6,-1.9000000000000001,9.1,85.80000000000001,18.900000000000002,9.0,16
789,13330.0,-0.9,-0.8,-0.9,3.3000000000000003,-1.9000000000000001,8.3,88.9,12.600000000000001,13.100000000000001,16
790,13347.0,-1.0,-0.9,-1.1,3.0,-1.9000000000000001,8.0,88.9,12.600000000000001,13.100000000000001,16
791,13364.0,-1.1,-1.1,-1.5,3.0,-1.8,7.6000000000000005,91.50000000000001,7.6,17.400000000000002,16
792,13382.0,-1.0,-1.3,-1.9000000000000001,3.0,-1.8,7.300000000000001,95.0,4.4,20.599999999999998,16
793,13397.0,-1.0,-1.5,-2.1,3.0,-1.8,7.300000000000001,95.0,4.4,20.599999999999998,16
794,13414.0,-0.8,-1.7000000000000002,-2.8000000000000003,3.3000000000000003,-1.8,6.4,93.2,6.1000000000000005,20.1,16
795,13430.0,-0.6000000000000001,-1.9000000000000001,-2.8000000000000003,3.4000000000000004,-1.7000000000000002,6.4,85.30000000000001,3.3000000000000007,16.4,16
796,13447.0,-0.5,-2.0,-2.9000000000000004,3.4000000000000004,-1.7000000000000002,6.4,85.30000000000001,3.3000000000000007,16.4,16
797,13464.0,-0.4,-2.1,-3.3000000000000003,3.5,-1.5,5.9,80.30000000000001,2.8,12.5,16
798,13480.0,-0.5,-2.2,-3.4000000000000004,3.5,-1.6,5.7,74.10000000000001,2.5,7.300000000000001,16
799,13498.0,-0.5,-2.5,-3.6,3.4000000000000004,-1.7000000000000002,5.4,58.1,3.1,-5.8,16
800,13514.0,-0.6000000000000001,-2.7,-3.7,3.3000000000000003,-1.9000000000000001,5.4,58.1,3.1,-5.8,16
801,13532.0,-0.7000000000000001,-3.1,-3.6,3.1,-2.1,5.6000000000000005,47.0,3.8,-11.3,16
802,13552.0,-0.9,-3.2,-3.1,2.9000000000000004,-2.1,6.0,25.300000000000004,8.4,-17.0,16
803,13569.0,-0.9,-3.5,-2.7,2.9000000000000004,-2.3000000000000003,6.300000000000001,18.900000000000002,7.1000000000000005,-18.4,16
804,13580.0,-0.9,-3.6,-2.7,2.9000000000000004,-2.6,6.2,18.900000000000002,7.1000000000000005,-18.4,16
805,13597.0,-0.9,-3.9000000000000004,-2.7,3.0,-2.8000000000000003,6.300000000000001,11.2,3.2,-19.799999999999997,16
806,13613.0,-0.7000000000000001,-4.2,-2.4000000000000004,3.1,-3.1,6.7,-15.899999999999999,-1.4,-20.7,16
807,13630.0,-0.8,-4.2,-2.0,3.0,-3.2,7.2,-15.899999999999999,-1.4,-20.7,16
808,13647.0,-0.8,-4.2,-1.5,2.9000000000000004,-3.2,7.6000000000000005,-31.3,0.4,-20.2,16
809,13664.0,-0.7000000000000001,-3.9000000000000004,-1.1,3.2,-3.1,8.0,-58.3,0.6000000000000001,-17.9,16
810,13680.0,0.0,-3.7,-0.5,3.8000000000000003,-3.2,8.5,-72.2,-2.4000000000000004,-18.0,16
811,13697.0,0.4,-3.7,-0.2,4.4,-3.4000000000000004,9.0,-72.2,-2.4000000000000004,-18.0,16
812,13714.0,0.6000000000000001,-3.6,0.8,4.3,-3.4000000000000004,10.3,-88.50000000000001,-5.0,-20.2,16
813,13730.0,0.2,-2.8000000000000003,3.0,3.9000000000000004,-2.9000000000000004,12.3,-114.6,3.7000000000000006,-12.8,16
814,13749.0,0.0,-2.1,4.1000000000000005,3.8000000000000003,-1.9000000000000001,13.9,-114.6,3.7000000000000006,-12.8,16
815,13764.0,0.30000000000000004,-0.7000000000000001,5.2,4.3,-1.1,14.5,-105.3,8.100000000000001,-1.7,16
816,13780.0,1.2000000000000002,0.1,5.0,5.2,-0.8,13.9,-56.400000000000006,0.1,14.100000000000001,16
817,13797.0,1.8,0.1,4.4,5.2,-0.8,13.9,-56.400000000000006,0.1,14.100000000000001,16
818,13813.0,2.5,0.0,3.2,6.6000000000000005,-1.1,11.8,-37.50000000000001,-9.8,13.8,16
819,13830.0,2.9000000000000004,0.1,2.4000000000000004,6.800000000000001,-1.0,11.4,-29.300000000000004,-15.100000000000001,9.4,16
820,13847.0,2.7,0.5,2.4000000000000004,6.5,-0.7000000000000001,11.5,-31.0,-2.9,-12.5,16
821,13865.0,2.1,1.0,2.1,6.1000000000000005,-0.30000000000000004,11.200000000000001,-28.1,12.4,-27.2,16
822,13880.0,1.7000000000000002,1.2000000000000002,1.5,5.300000000000001,-0.1,10.100000000000001,-28.1,12.4,-27.2,16
823,13897.0,0.7000000000000001,1.2000000000000002,0.0,4.3,-0.2,8.8,-17.0,38.300000000000004,-48.400000000000006,16
824,13914.0,-0.4,0.9,-1.7000000000000002,3.3000000000000003,-0.4,7.4,-10.299999999999999,38.1,-48.9,16
825,13930.0,-0.8,0.7000000000000001,-2.4000000000000004,2.6,-0.7000000000000001,6.4,-10.299999999999999,38.1,-48.9,16
826,13947.0,-1.3,0.4,-3.4000000000000004,2.2,-0.9,5.6000000000000005,-4.800000000000001,30.3,-44.2,16
827,13964.0,-1.4000000000000001,0.1,-3.8000000000000003,2.2,-1.1,5.4,-3.5,6.9,-27.6,16
828,13981.0,-1.3,0.0,-3.6,2.4000000000000004,-1.1,5.7,-3.5,6.9,-27.6,16
829,13997.0,-1.2000000000000002,0.1,-3.1,2.5,-0.9,6.300000000000001,-5.4,-0.7,-19.0,16
830,14013.0,-0.8,0.6000000000000001,-2.5,2.8000000000000003,-0.5,6.5,-9.2,2.0,-7.1000000000000005,16
831,14030.0,-0.6000000000000001,0.9,-2.6,2.8000000000000003,-0.5,6.5,-9.2,1.8000000000000003,-7.300000000000001,16
832,14048.0,-0.2,1.3,-2.2,3.5,0.1,6.800000000000001,-9.2,1.8000000000000003,-7.300000000000001,16
833,14064.0,-0.1,1.3,-2.4000000000000004,3.5,0.1,6.7,-8.8,1.2000000000000002,-9.600000000000001,16
834,14080.0,-0.30000000000000004,1.2000000000000002,-2.1,3.3000000000000003,0.0,7.0,-14.300000000000002,-0.6000000000000001,-14.0,16
835,14097.0,-0.30000000000000004,1.2000000000000002,-1.8,3.2,0.0,7.5,-14.300000000000002,-0.6000000000000001,-14.0,16
836,14114.0,-0.4,1.3,-1.1,3.3000000000000003,-0.1,8.3,-17.1,-0.1,-13.399999999999999,16
837,14130.0,-0.1,1.0,0.1,3.5,-0.30000000000000004,9.3,-16.6,1.8000000000000003,-9.600000000000001,16
838,14147.0,0.0,1.0,0.6000000000000001,3.5,-0.30000000000000004,9.3,-16.6,1.8000000000000003,-9.600000000000001,16
839,14163.0,0.5,0.9,1.2000000000000002,4.2,-0.5,10.3,-14.100000000000001,4.6,-6.2,16
840,14180.0,0.9,0.7000000000000001,1.4000000000000001,4.5,-0.7000000000000001,10.4,-12.100000000000001,3.5,-5.6,16
841,14197.0,1.1,0.30000000000000004,1.5,4.7,-1.1,10.600000000000001,-17.799999999999997,2.0,-8.3,16
842,14214.0,1.2000000000000002,0.0,1.7000000000000002,4.800000000000001,-1.7000000000000002,11.100000000000001,-17.799999999999997,2.0,-8.3,16
843,14231.0,1.1,-0.7000000000000001,2.6,4.5,-2.3000000000000003,12.0,-25.6,-2.7,-10.600000000000001,16
844,14247.0,0.5,-1.0,3.6,4.1000000000000005,-2.6,12.9,-39.2,-7.8,-1.8000000000000003,16
845,14265.0,0.1,-0.4,4.9,3.7,-2.1,13.9,-39.2,-7.8,-1.8000000000000003,16
846,14280.0,-0.2,0.30000000000000004,5.5,3.3000000000000003,-1.1,14.8,-39.8,-4.6,10.600000000000001,16
847,14297.0,-0.30000000000000004,1.4000000000000001,5.7,3.3000000000000003,-0.2,14.5,-9.600000000000001,4.5,36.7,16
848,14314.0,-0.2,2.0,5.0,3.3000000000000003,-0.2,14.5,-9.600000000000001,4.5,36.7,16
849,14330.0,0.2,2.1,2.6,3.8000000000000003,0.0,11.100000000000001,9.100000000000001,1.6,42.5,16
850,14347.0,0.2,1.5,1.9000000000000001,3.9000000000000004,-0.6000000000000001,11.3,17.799999999999997,-10.8,44.2,16
851,14363.0,0.5,1.2000000000000002,2.9000000000000004,4.2,-0.7000000000000001,12.200000000000001,24.200000000000003,-27.6,49.199999999999996,16
852,14380.0,0.7000000000000001,1.2000000000000002,3.4000000000000004,4.2,-0.7000000000000001,12.200000000000001,24.200000000000003,-27.6,49.199999999999996,16
853,14397.0,0.8,1.1,4.0,4.4,-0.8,13.100000000000001,32.5,-23.6,46.50000000000001,16
854,14414.0,0.30000000000000004,0.8,3.5,3.8000000000000003,-0.8,12.4,48.50000000000001,6.2,40.300000000000004,16
855,14430.0,-0.30000000000000004,0.8,1.7000000000000002,3.3000000000000003,-0.8,10.8,59.300000000000004,8.2,41.800000000000004,16
856,14447.0,-0.5,0.7000000000000001,0.8,3.1,-0.7000000000000001,9.600000000000001,59.300000000000004,8.2,41.800000000000004,16
857,14464.0,-0.4,0.7000000000000001,0.1,3.5,-0.6000000000000001,9.600000000000001,68.3,-1.5,45.7,16
858,14480.0,0.4,0.7000000000000001,0.5,4.2,-0.30000000000000004,9.8,84.0,-13.100000000000001,44.6,16
859,14497.0,0.7000000000000001,0.8,0.2,4.2,-0.30000000000000004,9.8,84.0,-13.100000000000001,44.6,16
860,14513.0,1.1,0.30000000000000004,-0.5,4.800000000000001,-0.5,8.6,89.70000000000002,-8.8,32.6,16
861,14530.0,0.9,-0.4,-1.5,4.5,-1.0,7.800000000000001,87.10000000000001,6.699999999999999,1.8000000000000003,16
862,14547.0,0.8,-0.8,-1.9000000000000001,4.5,-1.0,7.800000000000001,87.10000000000001,6.699999999999999,1.8000000000000003,16
863,14563.0,0.30000000000000004,-1.6,-2.5,3.8000000000000003,-1.7000000000000002,6.6000000000000005,81.3,12.100000000000001,-8.600000000000001,16
864,14580.0,0.0,-2.1,-3.1,3.6,-2.0,6.2,76.1,11.900000000000002,-14.700000000000001,16
865,14597.0,-0.1,-2.6,-3.3000000000000003,3.5,-2.1,6.1000000000000005,65.89999999999999,-0.5,-19.200000000000003,16
866,14615.0,-0.30000000000000004,-2.8000000000000003,-3.1,3.3000000000000003,-2.2,6.2,60.00000000000001,-4.2,-20.2,16
867,14633.0,-0.5,-2.8000000000000003,-2.9000000000000004,3.0,-2.0,6.300000000000001,60.00000000000001,-4.2,-20.2,16
868,14648.0,-0.7000000000000001,-2.6,-3.2,2.9000000000000004,-1.7000000000000002,6.0,47.5,-3.4,-23.3,16
869,14664.0,-0.8,-2.6,-3.2,2.9000000000000004,-1.7000000000000002,6.0,47.5,-3.4,-23.3,16
870,14680.0,-1.0,-2.7,-3.0,2.6,-1.6,6.2,39.9,-4.6,-25.200000000000003,16
871,14697.0,-1.0,-2.7,-2.8000000000000003,2.7,-1.6,6.4,31.7,-5.2,-25.5,16
872,14716.0,-0.7000000000000001,-3.1,-2.5,3.0,-1.9000000000000001,6.6000000000000005,17.7,-14.800000000000002,-25.300000000000004,16
873,14731.0,-0.6000000000000001,-3.2,-2.3000000000000003,3.0,-1.9000000000000001,6.6000000000000005,17.7,-14.800000000000002,-25.300000000000004,16
874,14747.0,-0.30000000000000004,-3.6,-1.5,3.6,-2.4000000000000004,7.9,8.5,-20.2,-23.800000000000004,16
875,14763.0,0.0,-3.6,-0.6000000000000001,3.9000000000000004,-2.3000000000000003,8.5,-12.200000000000001,-21.8,-23.400000000000002,16
876,14780.0,0.5,-3.3000000000000003,-0.1,4.3,-2.2,8.9,-23.800000000000004,-18.3,-27.099999999999998,16
877,14797.0,0.7000000000000001,-3.2,0.1,4.7,-2.1,9.1,-23.800000000000004,-18.3,-27.099999999999998,16
878,14814.0,0.9,-3.0,0.1,4.800000000000001,-2.0,8.9,-35.699999999999996,-13.399999999999999,-33.300000000000004,16
879,14830.0,0.7000000000000001,-2.9000000000000004,-0.6000000000000001,4.4,-2.1,8.4,-62.800000000000004,-5.300000000000001,-49.699999999999996,16
880,14847.0,0.30000000000000004,-3.1,-0.7000000000000001,3.9000000000000004,-2.5,8.5,-62.800000000000004,-5.300000000000001,-49.699999999999996,16
881,14867.0,-0.5,-3.2,0.1,3.0,-2.6,9.600000000000001,-77.60000000000001,-9.4,-51.9,16
882,14882.0,-1.5,-2.6,1.7000000000000002,2.3000000000000003,-2.1,10.9,-84.0,-20.1,-29.1,16
883,14899.0,-1.8,-1.6,2.7,2.2,-1.4000000000000001,11.600000000000001,-73.7,-20.3,-11.700000000000001,16
884,14914.0,-1.7000000000000002,-1.1,2.7,2.6,-0.9,11.5,-73.7,-20.3,-11.700000000000001,16
885,14934.0,-1.1,-0.5,2.1,3.1,-0.7000000000000001,10.8,-62.7,-18.700000000000003,2.7,16
886,14948.0,-0.7000000000000001,-0.5,1.3,3.5,-1.0,10.200000000000001,-50.5,-20.599999999999998,20.1,16
887,14963.0,-0.5,-0.6000000000000001,1.1,4.0,-1.1,9.9,-50.5,-20.599999999999998,20.1,16
888,14980.0,0.0,-0.30000000000000004,1.0,4.4,-0.9,10.100000000000001,-49.800000000000004,-23.900000000000006,27.400000000000002,16
889,14997.0,0.4,0.2,1.5,4.800000000000001,-0.5,10.600000000000001,-46.1,-26.9,33.7,16
890,15013.0,0.7000000000000001,0.7000000000000001,2.0,4.800000000000001,-0.5,10.600000000000001,-46.1,-26.9,33.7,16
891,15030.0,0.9,1.6,2.3000000000000003,5.2,0.8,10.700000000000001,-38.2,-17.1,31.099999999999998,16
892,15047.0,0.6000000000000001,2.2,0.9,4.9,1.1,9.200000000000001,-28.3,-1.6,23.3,16
893,15063.0,0.30000000000000004,2.3000000000000003,-0.9,4.5,1.0,7.800000000000001,-19.200000000000003,16.8,2.3,16
894,15081.0,0.0,2.1,-1.5,4.0,0.6000000000000001,7.0,-19.200000000000003,16.8,2.3,16
895,15098.0,-0.6000000000000001,1.6,-2.0,3.5,0.2,6.9,-19.200000000000003,15.100000000000001,-4.1,16
896,15115.0,-0.8,1.3,-1.7000000000000002,3.5,0.0,7.2,-15.899999999999999,4.1,-2.1,16
897,15133.0,-0.4,1.4000000000000001,-1.2000000000000002,3.8000000000000003,0.1,7.7,-11.1,0.7,-0.9000000000000001,16
898,15150.0,-0.2,1.5,-1.0,4.1000000000000005,0.2,7.800000000000001,-11.1,0.7,-0.9000000000000001,16
899,15163.0,0.0,1.6,-1.1,4.2,0.30000000000000004,7.7,-8.3,3.4,-2.7,16
900,15180.0,0.1,1.6,-1.4000000000000001,4.2,0.30000000000000004,7.4,-8.899999999999999,12.8,-9.8,16
901,15197.0,0.1,1.6,-1.6,4.1000000000000005,0.30000000000000004,7.1000000000000005,-8.899999999999999,12.8,-9.8,16
902,15214.0,0.0,1.5,-1.9000000000000001,4.2,0.2,7.0,-9.0,10.4,-12.8,16
903,15230.0,0.1,1.5,-1.6,4.2,0.2,7.300000000000001,-14.900000000000002,6.0,-16.4,16
904,15247.0,0.2,1.5,-1.2000000000000002,4.2,0.2,7.300000000000001,-14.900000000000002,6.0,-16.4,16
905,15263.0,0.2,1.5,-0.7000000000000001,4.3,0.0,8.1,-15.899999999999999,9.600000000000001,-18.3,16
906,15280.0,0.30000000000000004,1.1,-0.7000000000000001,4.3,-0.4,8.200000000000001,-14.400000000000002,12.0,-20.599999999999998,16
907,15297.0,0.2,0.4,-0.4,4.2,-1.0,8.5,-16.1,5.0,-20.5,16
908,15314.0,0.1,0.1,-0.1,4.1000000000000005,-1.5,9.200000000000001,-16.1,5.0,-20.5,16
909,15330.0,0.2,-0.1,1.0,4.5,-1.6,10.100000000000001,-19.400000000000002,-0.9000000000000001,-13.399999999999999,16
910,15347.0,0.9,0.0,2.0,5.2,-1.5,11.0,-22.9,-14.200000000000001,-1.7,16
911,15363.0,1.5,-0.1,3.0,5.7,-1.7000000000000002,11.8,-27.3,-17.0,-3.6000000000000005,16
912,15380.0,1.6,-0.30000000000000004,3.6,5.7,-2.2,12.8,-27.3,-17.0,-3.6000000000000005,16
913,15397.0,1.2000000000000002,-0.6000000000000001,4.7,5.2,-2.3000000000000003,13.600000000000001,-33.400000000000006,-14.5,-5.6,16
914,15414.0,0.1,-0.2,5.300000000000001,4.3,-1.9000000000000001,14.0,-38.1,-6.500000000000001,-3.5,16
915,15436.0,-0.9,0.6000000000000001,4.9,3.3000000000000003,-1.3,13.700000000000001,-23.400000000000002,5.1000000000000005,16.900000000000002,16
916,15449.0,-1.3,1.0,4.6000000000000005,2.8000000000000003,-0.7000000000000001,13.3,-23.400000000000002,5.1000000000000005,16.900000000000002,16
917,15464.0,-1.3,1.6,4.0,3.0,-0.4,12.8,14.5,-6.4,47.400000000000006,16
918,15480.0,-1.0,1.6,3.6,3.0,-0.4,12.8,34.60000000000001,-17.0,57.699999999999996,16
919,15497.0,-0.6000000000000001,1.5,2.8000000000000003,3.8000000000000003,-0.5,11.3,34.60000000000001,-17.0,57.699999999999996,16
920,15515.0,-0.30000000000000004,1.2000000000000002,2.1,4.0,-0.7000000000000001,10.9,54.0,-22.2,63.10000000000001,16
921,15531.0,-0.1,0.8,1.6,4.1000000000000005,-1.0,10.5,56.6,-17.7,60.2,16
922,15547.0,-0.2,0.5,1.4000000000000001,3.9000000000000004,-1.5,10.0,56.6,-17.7,60.2,16
923,15564.0,-0.5,-0.1,0.9,3.7,-1.8,9.9,58.0,-15.700000000000001,58.60000000000001,16
924,15582.0,-0.5,-0.2,1.1,3.8000000000000003,-1.7000000000000002,10.200000000000001,64.60000000000001,-20.0,69.9,16
925,15599.0,-0.1,0.30000000000000004,1.1,4.2,-1.1,10.100000000000001,73.30000000000001,-21.400000000000002,73.0,16
926,15614.0,0.1,0.6000000000000001,0.7000000000000001,4.4,-0.4,9.4,73.30000000000001,-21.400000000000002,73.0,16
927,15631.0,0.1,1.0,-0.1,4.5,-0.2,8.8,82.39999999999999,-18.700000000000003,59.60000000000001,16
928,15652.0,0.1,0.8,-0.7000000000000001,4.5,-0.2,8.200000000000001,80.2,-15.000000000000002,47.3,16
929,15664.0,0.1,0.5,-0.9,4.4,-0.6000000000000001,8.0,80.2,-15.000000000000002,47.3,16
930,15683.0,-0.2,-0.2,-1.0,4.2,-1.0,8.1,76.3,-12.8,36.300000000000004,16
931,15697.0,-0.30000000000000004,-0.7000000000000001,-0.7000000000000001,4.1000000000000005,-1.3,8.3,73.6,-14.900000000000002,23.6,16
932,15721.0,-0.30000000000000004,-1.2000000000000002,-0.6000000000000001,4.2,-1.5,8.3,74.89999999999999,-14.5,19.6,16
933,15730.0,-0.2,-1.3,-0.7000000000000001,4.3,-1.5,8.200000000000001,74.89999999999999,-14.5,19.6,16
934,15747.0,-0.1,-1.4000000000000001,-1.0,4.4,-1.4000000000000001,7.800000000000001,73.5,-7.200000000000001,5.300000000000001,16
935,15765.0,-0.1,-1.5,-1.8,4.4,-1.4000000000000001,7.1000000000000005,68.4,-2.9,-6.300000000000001,16
936,15780.0,-0.30000000000000004,-1.7000000000000002,-2.2,4.0,-1.5,6.4,68.4,-2.9,-6.300000000000001,16
937,15797.0,-0.8,-2.1,-2.7,3.7,-1.7000000000000002,6.2,58.5,1.7,-17.1,16
938,15814.0,-1.0,-2.4000000000000004,-2.6,3.4000000000000004,-1.7000000000000002,6.4,47.3,4.800000000000001,-24.400000000000002,16
939,15834.0,-1.1,-2.5,-2.5,3.3000000000000003,-1.7000000000000002,6.4,36.0,4.9,-30.3,16
940,15849.0,-1.1,-2.5,-2.6,3.4000000000000004,-1.8,6.2,36.0,4.9,-30.3,16
941,15864.0,-0.9,-3.0,-2.6,3.6,-2.2,6.300000000000001,26.9,-3.4,-34.0,16
942,15881.0,-0.8,-3.7,-2.0,3.7,-2.7,6.800000000000001,17.7,-4.1,-34.50000000000001,16
943,15897.0,-0.6000000000000001,-4.0,-1.8,3.9000000000000004,-3.2,7.300000000000001,17.7,-4.1,-34.50000000000001,16
944,15913.0,-0.4,-4.4,-1.2000000000000002,4.1000000000000005,-3.4000000000000004,7.7,6.699999999999999,-1.9,-33.2,16
945,15932.0,-0.1,-4.3,-0.8,4.4,-3.2,8.0,-13.000000000000002,2.7,-28.0,16
946,15949.0,0.4,-3.9000000000000004,-0.8,4.4,-3.2,8.0,-13.000000000000002,2.7,-28.0,16
947,15964.0,0.5,-3.8000000000000003,-0.9,4.9,-2.9000000000000004,7.7,-21.8,1.7,-28.900000000000002,16
948,15980.0,0.5,-3.7,-1.4000000000000001,4.800000000000001,-3.0,7.300000000000001,-49.6,4.4,-33.9,16
949,16000.0,0.2,-3.8000000000000003,-1.7000000000000002,4.5,-3.3000000000000003,7.1000000000000005,-67.60000000000001,1.4,-32.9,16
950,16023.0,-0.1,-3.9000000000000004,-0.7000000000000001,4.2,-3.5,8.0,-82.50000000000001,-6.4,-25.200000000000003,16
951,16031.0,-0.30000000000000004,-3.6,0.2,4.0,-3.2,9.5,-82.50000000000001,-6.4,-25.200000000000003,16
952,16047.0,-0.6000000000000001,-2.6,1.9000000000000001,3.8000000000000003,-2.4000000000000004,10.8,-80.9,-19.200000000000003,6.500000000000001,16
953,16065.0,-0.2,-1.0,2.6,4.2,-1.3,11.4,-69.10000000000001,-19.6,21.200000000000003,16
954,16087.0,0.7000000000000001,0.2,2.2,5.1000000000000005,-0.4,11.100000000000001,-58.400000000000006,-19.1,27.099999999999998,16
955,16097.0,1.0,0.6000000000000001,1.8,5.6000000000000005,0.0,10.3,-53.7,-21.400000000000002,24.5,16
956,16114.0,1.1,0.6000000000000001,1.4000000000000001,5.6000000000000005,0.0,10.3,-53.7,-21.400000000000002,24.5,16
957,16130.0,1.3,0.30000000000000004,1.9000000000000001,6.0,-0.6000000000000001,10.700000000000001,-55.2,-25.200000000000003,20.3,16
958,16147.0,1.4000000000000001,0.5,2.3000000000000003,6.2,-0.5,11.0,-57.00000000000001,-23.700000000000003,17.1,16
959,16163.0,1.4000000000000001,0.9,2.5,6.2,-0.2,11.200000000000001,-53.599999999999994,-10.4,3.4,16
960,16180.0,1.3,1.2000000000000002,2.6,6.0,0.0,11.100000000000001,-53.599999999999994,-10.4,3.4,16
961,16197.0,0.8,1.5,2.2,5.300000000000001,0.2,10.3,-48.6,3.5,-7.400000000000001,16
962,16217.0,-0.1,1.8,0.8,4.5,0.30000000000000004,9.1,-36.300000000000004,30.4,-26.5,16
963,16230.0,-0.8,1.7000000000000002,-0.9,3.8000000000000003,0.2,7.7,-31.2,34.2,-30.9,16
964,16247.0,-1.1,1.6,-1.6,3.3000000000000003,0.1,6.7,-31.2,34.2,-30.9,16
965,16263.0,-1.4000000000000001,1.5,-2.3000000000000003,3.1,-0.1,6.4,-28.1,31.3,-31.7,16
966,16281.0,-1.4000000000000001,1.2000000000000002,-2.3000000000000003,3.1,-0.4,6.4,-21.300000000000004,16.5,-28.500000000000004,16
967,16297.0,-1.3,1.1,-2.2,3.3000000000000003,-0.5,6.5,-21.300000000000004,16.5,-28.500000000000004,16
968,16313.0,-1.1,1.0,-2.2,3.4000000000000004,-0.6000000000000001,6.6000000000000005,-18.5,12.4,-26.799999999999997,16
969,16330.0,-0.9,0.9,-2.0,3.5,-0.6000000000000001,6.7,-19.0,17.799999999999997,-25.5,16
970,16347.0,-0.5,1.1,-2.1,3.8000000000000003,-0.5,6.6000000000000005,-19.0,17.799999999999997,-25.5,16
971,16363.0,-0.4,1.1,-2.1,4.0,-0.5,6.6000000000000005,-20.2,19.5,-26.6,16
972,16380.0,-0.2,1.0,-2.0,4.0,-0.6000000000000001,6.7,-21.0,17.200000000000003,-28.900000000000002,16
973,16397.0,-0.2,1.0,-1.6,4.0,-0.6000000000000001,7.1000000000000005,-27.9,16.1,-30.9,16
974,16413.0,-0.2,1.0,-1.3,4.0,-0.6000000000000001,7.6000000000000005,-27.9,16.1,-30.9,16
975,16432.0,-0.1,1.1,-0.7000000000000001,4.2,-0.6000000000000001,8.1,-30.000000000000004,18.1,-29.400000000000002,16
976,16447.0,0.2,1.1,-0.4,4.4,-0.6000000000000001,8.4,-28.3,19.0,-25.4,16
977,16469.0,0.2,0.8,-0.2,4.2,-1.0,8.5,-29.400000000000002,17.300000000000004,-23.700000000000003,16
978,16480.0,0.0,0.6000000000000001,-0.2,4.0,-1.4000000000000001,8.6,-29.400000000000002,17.300000000000004,-23.700000000000003,16
979,16497.0,0.0,0.0,0.1,4.3,-2.1,9.0,-32.5,12.0,-18.4,16
980,16516.0,0.7000000000000001,-0.6000000000000001,1.1,4.9,-2.6,9.9,-42.1,-12.0,-2.1,16
981,16531.0,1.1,-0.7000000000000001,1.6,5.5,-3.0,11.0,-42.1,-12.0,-2.1,16
982,16547.0,1.6,-1.0,3.4000000000000004,6.0,-3.2,12.600000000000001,-49.50000000000001,-24.900000000000002,3.9,16
983,16563.0,2.1,-0.7000000000000001,5.6000000000000005,6.4,-3.0,14.5,-56.9,-30.699999999999996,18.200000000000003,16
984,16580.0,2.1,-0.2,6.6000000000000005,6.4,-2.0,15.9,-56.9,-30.699999999999996,18.200000000000003,16
985,16597.0,1.9000000000000001,1.3,7.5,6.1000000000000005,-0.9,15.700000000000001,-49.1,-20.400000000000002,23.099999999999998,16
986,16613.0,1.3,2.4000000000000004,6.4,5.4,-0.1,14.600000000000001,-35.3,-7.6,24.5,16
987,16630.0,0.2,3.2,5.0,4.5,0.4,13.5,-5.8,8.3,25.1,16
988,16647.0,-0.1,3.3000000000000003,4.4,4.0,0.5,12.5,-5.8,8.3,25.1,16
989,16665.0,-0.30000000000000004,3.0,3.5,4.1000000000000005,-0.1,12.0,12.7,5.300000000000001,28.200000000000003,16
990,16682.0,-0.1,1.9000000000000001,2.7,4.2,-0.8,11.3,49.50000000000001,-7.400000000000001,33.400000000000006,16
991,16699.0,-0.30000000000000004,0.9,1.7000000000000002,4.0,-1.6,10.5,60.00000000000001,-9.8,36.6,16
992,16716.0,-0.4,0.4,1.3,3.8000000000000003,-2.3000000000000003,9.9,60.00000000000001,-9.8,36.6,16
993,16730.0,-0.5,-0.30000000000000004,0.9,3.8000000000000003,-2.6,9.700000000000001,64.0,-8.0,43.300000000000004,16
994,16747.0,-0.2,-0.30000000000000004,0.5,4.1000000000000005,-2.5,9.4,68.3,-6.8,59.40000000000001,16
995,16763.0,0.0,-0.2,0.30000000000000004,4.4,-2.0,8.9,68.3,-6.8,59.40000000000001,16
996,16781.0,0.4,0.30000000000000004,-0.30000000000000004,4.7,-1.6,8.5,72.2,-11.5,62.4,16
997,16797.0,0.6000000000000001,0.6000000000000001,-0.7000000000000001,4.9,-1.2000000000000002,8.200000000000001,74.89999999999999,-20.599999999999998,55.0,16
998,16814.0,0.7000000000000001,0.7000000000000001,-0.8,4.9,-1.2000000000000002,8.200000000000001,74.89999999999999,-20.599999999999998,55.0,16
999,16830.0,0.7000000000000001,0.7000000000000001,-0.7000000000000001,5.0,-0.9,8.3,73.4,-20.5,44.300000000000004,16
1000,16847.0,0.5,0.5,-0.7000000000000001,4.800000000000001,-1.0,8.200000000000001,67.5,-5.8,16.900000000000002,16
1001,16864.0,0.1,0.0,-1.1,4.4,-1.2000000000000002,7.9,64.7,2.8,4.7,16
1002,16882.0,-0.2,-0.30000000000000004,-1.4000000000000001,3.8000000000000003,-1.7000000000000002,7.4,64.7,2.8,4.7,16
1003,16901.0,-0.8,-1.0,-1.9000000000000001,3.4000000000000004,-2.0,7.0,61.9,8.3,-3.3000000000000007,16
1004,16915.0,-1.1,-1.4000000000000001,-2.2,3.2,-2.2,6.800000000000001,55.5,8.600000000000001,-7.6,16
1005,16931.0,-1.1,-1.7000000000000002,-2.3000000000000003,3.2,-2.3000000000000003,6.7,52.60000000000001,6.0,-8.0,16
1006,16949.0,-1.1,-1.8,-2.4000000000000004,3.1,-2.3000000000000003,6.6000000000000005,52.60000000000001,6.0,-8.0,16
1007,16966.0,-1.2000000000000002,-1.9000000000000001,-2.5,2.9000000000000004,-2.3000000000000003,6.5,44.6,5.2,-9.600000000000001,16
1008,16980.0,-1.4000000000000001,-2.0,-2.7,2.7,-2.2,6.4,40.1,7.699999999999999,-10.299999999999999,16
1009,16997.0,-1.6,-2.0,-2.7,2.5,-2.1,6.300000000000001,40.1,7.699999999999999,-10.299999999999999,16
1010,17019.0,-1.4000000000000001,-2.1,-3.2,2.6,-2.2,6.0,31.400000000000002,12.7,-9.3,16
1011,17036.0,-1.2000000000000002,-2.3000000000000003,-3.6,2.9000000000000004,-2.5,5.4,24.900000000000002,3.7000000000000006,-10.700000000000001,16
1012,17047.0,-1.0,-2.6,-3.6,2.9000000000000004,-2.5,5.4,24.900000000000002,3.7000000000000006,-10.700000000000001,16
1013,17063.0,-0.4,-3.4000000000000004,-2.8000000000000003,4.0,-3.5,6.7,14.400000000000002,-10.4,-11.000000000000002,16
1014,17080.0,0.2,-3.6,-1.2000000000000002,4.6000000000000005,-3.6,8.1,-10.600000000000001,-26.799999999999997,-8.4,16
1015,17097.0,0.9,-3.4000000000000004,0.7000000000000001,5.2,-3.4000000000000004,9.700000000000001,-18.0,-26.6,-9.5,16
1016,17114.0,1.2000000000000002,-3.1,1.4000000000000001,5.7,-3.0,10.700000000000001,-18.0,-26.6,-9.5,16
1017,17131.0,1.4000000000000001,-2.6,1.9000000000000001,5.800000000000001,-2.8000000000000003,10.5,-22.5,-20.1,-16.0,16
1018,17147.0,1.7000000000000002,-2.5,1.0,6.0,-2.8000000000000003,9.600000000000001,-39.8,0.6000000000000001,-36.400000000000006,16
1019,17163.0,1.7000000000000002,-2.5,0.30000000000000004,6.0,-2.8000000000000003,9.600000000000001,-39.8,0.6000000000000001,-36.400000000000006,16
1020,17184.0,1.2000000000000002,-3.2,0.0,5.300000000000001,-4.0,9.4,-57.1,-2.1,-47.0,16
1021,17200.0,0.2,-3.5,2.0,4.3,-4.1000000000000005,11.4,-85.9,-12.9,-41.50000000000001,16
1022,17213.0,-0.5,-3.1,3.3000000000000003,4.3,-4.1000000000000005,11.4,-85.9,-12.9,-41.50000000000001,16
1023,17230.0,-1.8,-1.5,4.800000000000001,2.4000000000000004,-1.9000000000000001,13.5,-76.80000000000001,-5.500000000000001,-24.1,16
1024,17247.0,-2.0,0.0,4.0,2.6,-0.9,12.200000000000001,-54.6,5.6,-2.9,16
1025,17263.0,-1.3,0.7000000000000001,1.8,3.2,-0.6000000000000001,10.3,-9.100000000000001,5.9,30.200000000000003,16
1026,17280.0,-0.8,0.6000000000000001,0.8,3.2,-0.6000000000000001,10.3,-9.100000000000001,5.9,30.200000000000003,16
1027,17298.0,0.1,0.2,-0.1,4.9,-1.1,8.700000000000001,2.4000000000000004,-6.9,39.9,16
1028,17314.0,1.0,0.30000000000000004,-0.2,5.6000000000000005,-1.0,8.6,6.500000000000001,-20.2,43.2,16
1029,17332.0,1.4000000000000001,0.5,-0.1,5.800000000000001,-0.8,8.700000000000001,3.3000000000000007,-14.600000000000001,34.800000000000004,16
1030,17347.0,1.4000000000000001,0.8,0.0,5.800000000000001,-0.30000000000000004,8.700000000000001,3.3000000000000007,-14.600000000000001,34.800000000000004,16
1031,17363.0,1.4000000000000001,1.5,-0.5,5.9,0.30000000000000004,8.1,-0.8,-1.9,23.099999999999998,16
1032,17380.0,1.4000000000000001,2.1,-1.3,5.800000000000001,0.7000000000000001,7.4,-5.7,22.3,-11.900000000000002,16
1033,17397.0,1.3,2.2,-1.9000000000000001,5.800000000000001,0.7000000000000001,7.4,-5.7,22.3,-11.900000000000002,16
1034,17413.0,0.6000000000000001,1.9000000000000001,-3.0,4.6000000000000005,0.30000000000000004,5.7,-8.899999999999999,28.0,-31.099999999999998,16
1035,17430.0,-0.30000000000000004,1.2000000000000002,-3.3000000000000003,3.8000000000000003,-0.30000000000000004,5.7,-15.899999999999999,20.7,-53.0,16
1036,17447.0,-0.6000000000000001,0.8,-3.1,3.8000000000000003,-0.30000000000000004,5.7,-15.899999999999999,20.7,-53.0,16
1037,17466.0,-0.7000000000000001,0.30000000000000004,-2.2,3.5,-0.9,6.6000000000000005,-16.900000000000002,15.2,-53.400000000000006,16
1038,17483.0,-0.6000000000000001,0.2,-1.8,3.8000000000000003,-1.1,7.2,-15.5,12.100000000000001,-52.7,16
1039,17499.0,-0.1,0.0,-1.5,4.1000000000000005,-1.2000000000000002,7.4,-10.200000000000001,20.400000000000002,-51.300000000000004,16
1040,17513.0,0.1,-0.1,-1.5,4.2,-1.3,7.0,-10.200000000000001,20.400000000000002,-51.300000000000004,16
1041,17530.0,0.1,-0.30000000000000004,-2.3000000000000003,4.0,-1.5,6.4,-9.0,25.5,-52.400000000000006,16
1042,17547.0,-0.2,-0.6000000000000001,-2.6,3.8000000000000003,-1.8,6.300000000000001,-15.2,22.8,-51.4,16
1043,17564.0,-0.7000000000000001,-0.8,-2.5,3.8000000000000003,-1.8,6.300000000000001,-15.2,22.8,-51.4,16
1044,17580.0,-0.9,-0.7000000000000001,-2.3000000000000003,2.9000000000000004,-1.6,6.9,-19.9,18.4,-44.5,16
1045,17597.0,-1.1,-0.30000000000000004,-1.7000000000000002,3.0,-1.3,7.4,-23.6,14.200000000000001,-33.7,16
1046,17613.0,-0.5,0.2,-1.0,3.5,-1.0,7.9,-26.300000000000004,4.300000000000001,-16.3,16
1047,17630.0,-0.30000000000000004,0.2,-0.8,3.8000000000000003,-1.2000000000000002,8.3,-26.300000000000004,4.300000000000001,-16.3,16
1048,17647.0,-0.1,-0.2,-0.2,3.9000000000000004,-1.8,8.9,-30.200000000000003,-0.4,-12.7,16
1049,17663.0,0.1,-0.7000000000000001,0.7000000000000001,4.1000000000000005,-2.2,9.8,-43.300000000000004,-8.899999999999999,3.1,16
1050,17680.0,0.5,-0.7000000000000001,1.8,4.1000000000000005,-2.2,9.8,-46.199999999999996,-18.6,13.6,16
1051,17697.0,0.9,-0.6000000000000001,2.4000000000000004,5.300000000000001,-2.3000000000000003,11.600000000000001,-46.199999999999996,-18.6,13.6,16
1052,17713.0,1.7000000000000002,-0.1,3.7,6.0,-1.9000000000000001,12.8,-48.6,-28.500000000000004,21.8,16
1053,17730.0,2.2,0.5,4.800000000000001,6.4,-1.6,13.5,-52.80000000000001,-33.6,24.1,16
1054,17747.0,2.0,0.7000000000000001,5.2,5.9,-1.2000000000000002,14.0,-52.80000000000001,-33.6,24.1,16
1055,17764.0,0.9,1.4000000000000001,5.4,4.800000000000001,-0.8,13.9,-54.0,-25.200000000000003,21.8,16
1056,17780.0,-0.30000000000000004,2.2,5.2,3.9000000000000004,-0.2,13.8,-40.4,-7.1000000000000005,30.799999999999997,16
1057,17798.0,-0.7000000000000001,3.0,5.0,3.6,0.4,13.600000000000001,-17.7,-9.3,40.7,16
1058,17816.0,-0.30000000000000004,3.0,4.3,4.0,0.4,13.0,-17.7,-9.3,40.7,16
1059,17831.0,-0.1,2.8000000000000003,3.6,4.4,0.1,11.9,9.0,-16.8,47.3,16
1060,17847.0,0.2,2.2,2.4000000000000004,4.5,-0.4,11.0,40.800000000000004,-22.5,48.400000000000006,16
1061,17863.0,0.0,1.9000000000000001,1.9000000000000001,4.4,-0.8,10.200000000000001,40.800000000000004,-22.5,48.400000000000006,16
1062,17880.0,-0.1,1.4000000000000001,1.1,4.3,-1.1,9.700000000000001,44.6,-17.6,47.5,16
1063,17897.0,0.0,1.0,0.7000000000000001,4.4,-1.4000000000000001,9.4,49.699999999999996,-17.9,48.0,16
1064,17914.0,0.0,0.8,0.6000000000000001,4.4,-1.4000000000000001,9.4,49.699999999999996,-17.9,48.0,16
1065,17930.0,0.1,0.7000000000000001,0.7000000000000001,4.6000000000000005,-1.5,9.700000000000001,54.1,-21.500000000000004,50.7,16
1066,17947.0,0.4,0.7000000000000001,0.9,4.9,-1.3,9.5,62.1,-25.1,54.1,16
1067,17963.0,0.4,0.8,0.1,5.0,-1.0,8.8,81.10000000000001,-26.300000000000004,52.400000000000006,16
1068,17980.0,0.6000000000000001,0.9,-0.4,5.2,-0.8,8.1,81.10000000000001,-26.300000000000004,52.400000000000006,16
1069,17997.0,0.7000000000000001,0.8,-1.0,5.300000000000001,-0.8,7.800000000000001,82.7,-24.3,44.6,16
1070,18014.0,0.6000000000000001,0.4,-1.0,5.2,-1.0,7.800000000000001,75.60000000000001,-16.0,21.7,16
1071,18031.0,0.30000000000000004,-0.1,-1.2000000000000002,5.0,-1.3,7.6000000000000005,72.7,-12.200000000000001,11.700000000000001,16
1072,18047.0,0.1,-0.30000000000000004,-1.4000000000000001,4.7,-1.6,7.300000000000001,72.7,-12.200000000000001,11.700000000000001,16
1073,18063.0,-0.1,-0.8,-1.6,4.6000000000000005,-1.7000000000000002,7.2,69.7,-10.299999999999999,3.6000000000000005,16
1074,18080.0,-0.2,-1.0,-1.5,4.6000000000000005,-1.7000000000000002,7.2,64.0,-9.100000000000001,-9.2,16
1075,18097.0,-0.2,-1.1,-1.6,4.5,-1.6,7.0,64.0,-9.100000000000001,-9.2,16
1076,18113.0,-0.4,-1.2000000000000002,-1.9000000000000001,4.3,-1.6,6.800000000000001,60.2,-4.9,-17.300000000000004,16
1077,18130.0,-0.7000000000000001,-1.4000000000000001,-2.3000000000000003,3.9000000000000004,-1.7000000000000002,6.4,49.50000000000001,6.1000000000000005,-34.900000000000006,16
1078,18148.0,-1.2000000000000002,-1.9000000000000001,-2.9000000000000004,3.9000000000000004,-1.7000000000000002,6.4,49.50000000000001,6.1000000000000005,-34.900000000000006,16
1079,18164.0,-1.3,-2.1,-3.2,3.3000000000000003,-2.3000000000000003,5.5,44.00000000000001,6.9,-40.7,16
1080,18180.0,-1.4000000000000001,-2.8000000000000003,-3.2,3.4000000000000004,-2.8000000000000003,5.7,29.700000000000006,-8.600000000000001,-42.60000000000001,16
1081,18199.0,-1.0,-3.6,-2.4000000000000004,3.8000000000000003,-3.4000000000000004,6.4,21.7,-19.300000000000004,-39.599999999999994,16
1082,18216.0,-0.4,-4.3,-1.0,4.4,-3.9000000000000004,7.6000000000000005,13.100000000000001,-24.7,-34.900000000000006,16
1083,18230.0,0.0,-4.5,-0.2,5.1000000000000005,-4.1000000000000005,8.8,13.100000000000001,-24.7,-34.900000000000006,16
1084,18247.0,0.7000000000000001,-4.3,0.9,5.6000000000000005,-3.8000000000000003,9.600000000000001,-5.0,-10.299999999999999,-31.5,16
1085,18264.0,0.7000000000000001,-3.9000000000000004,1.0,5.6000000000000005,-3.8000000000000003,9.600000000000001,-5.0,-10.299999999999999,-31.5,16
1086,18280.0,0.4,-3.7,0.6000000000000001,5.1000000000000005,-3.4000000000000004,8.9,-13.8,1.4,-37.6,16
1087,18297.0,0.1,-3.8000000000000003,-0.30000000000000004,4.800000000000001,-3.7,8.200000000000001,-41.900000000000006,11.6,-48.400000000000006,16
1088,18314.0,-0.1,-4.0,-0.6000000000000001,4.800000000000001,-3.7,8.200000000000001,-61.199999999999996,7.1000000000000005,-47.2,16
1089,18332.0,-0.9,-4.4,0.4,3.9000000000000004,-4.4,9.0,-78.2,2.9,-37.6,16
1090,18348.0,-1.3,-3.8000000000000003,1.6,3.3000000000000003,-3.6,11.0,-78.2,2.9,-37.6,16
1091,18363.0,-1.8,-2.2,3.8000000000000003,3.0,-2.4000000000000004,12.600000000000001,-65.7,5.8,-0.6000000000000001,16
1092,18380.0,-1.5,-1.3,4.1000000000000005,3.0,-2.4000000000000004,12.600000000000001,-65.7,5.8,-0.6000000000000001,16
1093,18397.0,-0.5,-0.1,3.0,4.5,-0.5,10.8,-39.1,9.2,13.900000000000002,16
1094,18413.0,0.30000000000000004,0.2,0.7000000000000001,5.1000000000000005,-0.6000000000000001,9.0,-11.000000000000002,5.500000000000001,15.6,16
1095,18437.0,0.7000000000000001,-0.2,-0.7000000000000001,5.4,-1.0,8.1,-16.0,0.1,12.600000000000001,16
1096,18447.0,0.7000000000000001,-0.4,-0.8,5.5,-1.3,8.1,-16.0,0.1,12.600000000000001,16
1097,18463.0,0.8,-0.4,-0.2,5.6000000000000005,-1.2000000000000002,8.700000000000001,-24.400000000000002,-3.3000000000000007,10.5,16
1098,18481.0,1.0,0.1,0.30000000000000004,5.7,-0.8,9.0,-29.300000000000004,2.3,1.3,16
1099,18496.0,0.9,0.4,0.2,5.7,-0.8,9.0,-29.300000000000004,2.3,1.3,16
1100,18514.0,0.8,0.9,-0.7000000000000001,5.300000000000001,0.0,7.6000000000000005,-28.200000000000003,12.200000000000001,-7.1000000000000005,16
1101,18530.0,0.4,1.2000000000000002,-1.9000000000000001,4.9,0.1,6.6000000000000005,-29.700000000000006,24.8,-26.000000000000004,16
1102,18547.0,-0.2,1.1,-2.8000000000000003,4.3,-0.1,5.9,-31.400000000000002,21.7,-32.1,16
1103,18563.0,-0.5,0.9,-3.1,3.8000000000000003,-0.5,5.6000000000000005,-31.400000000000002,21.7,-32.1,16
1104,18580.0,-0.9,0.4,-3.0,3.5,-0.9,5.9,-33.800000000000004,15.299999999999999,-34.400000000000006,16
1105,18597.0,-1.1,0.1,-2.5,3.3000000000000003,-1.2000000000000002,6.300000000000001,-38.50000000000001,8.5,-28.200000000000003,16
1106,18613.0,-1.1,0.1,-2.2,3.3000000000000003,-1.2000000000000002,6.300000000000001,-38.50000000000001,8.5,-28.200000000000003,16
1107,18630.0,-0.7000000000000001,0.4,-1.8,3.8000000000000003,-0.9,6.9,-38.7,8.100000000000001,-23.700000000000003,16
1108,18647.0,-0.4,0.7000000000000001,-1.7000000000000002,4.0,-0.6000000000000001,6.9,-37.0,6.1000000000000005,-21.900000000000002,16
1109,18663.0,-0.4,0.9,-1.8,4.0,-0.6000000000000001,6.9,-37.0,6.1000000000000005,-21.900000000000002,16
1110,18681.0,-0.4,1.3,-1.7000000000000002,4.0,-0.2,7.0,-38.900000000000006,4.9,-23.6,16
1111,18698.0,-0.5,1.6,-1.4000000000000001,4.0,0.1,7.300000000000001,-41.50000000000001,5.7,-25.4,16
1112,18713.0,-0.2,2.0,-0.9,4.2,0.30000000000000004,7.7,-40.300000000000004,8.4,-29.300000000000004,16
1113,18731.0,-0.1,2.1,-0.8,4.2,0.30000000000000004,7.7,-40.300000000000004,8.4,-29.300000000000004,16
1114,18748.0,0.1,2.1,-0.7000000000000001,4.6000000000000005,0.30000000000000004,7.9,-36.9,7.6,-33.2,16
1115,18768.0,0.2,1.8,-0.7000000000000001,4.6000000000000005,-0.1,7.9,-38.800000000000004,3.8,-40.300000000000004,16
1116,18782.0,0.0,1.2000000000000002,-0.2,4.4,-0.7000000000000001,8.4,-46.300000000000004,1.5,-40.7,16
1117,18799.0,-0.1,0.9,0.4,4.3,-1.2000000000000002,9.5,-46.300000000000004,1.5,-40.7,16
1118,18815.0,-0.2,0.6000000000000001,2.0,4.3,-1.5,10.8,-53.7,0.1,-36.6,16
1119,18831.0,0.0,0.5,3.2,4.6000000000000005,-1.6,11.8,-52.60000000000001,-7.1000000000000005,-22.2,16
1120,18847.0,0.2,0.5,3.7,5.0,-1.7000000000000002,12.700000000000001,-52.60000000000001,-7.1000000000000005,-22.2,16
1121,18863.0,0.7000000000000001,0.6000000000000001,4.800000000000001,5.5,-1.7000000000000002,13.5,-48.800000000000004,-11.3,-14.200000000000001,16
1122,18880.0,1.3,0.7000000000000001,5.5,6.0,-1.7000000000000002,14.0,-37.7,-14.700000000000001,-3.1,16
1123,18897.0,1.4000000000000001,0.7000000000000001,5.800000000000001,6.0,-1.7000000000000002,14.200000000000001,-32.8,-12.7,0.5,16
1124,18914.0,1.1,0.8,5.9,5.4,-1.5,14.5,-32.8,-12.7,0.5,16
1125,18930.0,0.30000000000000004,1.6,6.300000000000001,4.800000000000001,-0.6000000000000001,14.700000000000001,-26.400000000000006,-7.1000000000000005,8.5,16
1126,18947.0,-0.2,2.8000000000000003,5.6000000000000005,4.4,0.30000000000000004,13.9,13.5,3.7000000000000006,31.400000000000002,16
1127,18963.0,-0.1,3.2,4.9,4.7,0.8,12.4,13.5,3.7000000000000006,31.400000000000002,16
1128,18980.0,0.2,2.9000000000000004,2.9000000000000004,4.800000000000001,0.0,11.0,38.60000000000001,-0.5,36.2,16
1129,18996.0,-0.1,1.4000000000000001,1.6,4.5,-1.0,10.200000000000001,64.7,-19.400000000000002,39.300000000000004,16
1130,19015.0,-0.2,1.0,1.3,4.2,-1.6,9.8,71.5,-29.800000000000004,46.300000000000004,16
1131,19030.0,-0.7000000000000001,0.2,1.1,4.0,-1.9000000000000001,9.700000000000001,71.5,-29.800000000000004,46.300000000000004,16
1132,19049.0,-0.5,0.0,1.1,4.4,-1.9000000000000001,9.8,77.1,-39.2,54.9,16
1133,19065.0,-0.1,0.0,1.1,4.800000000000001,-1.7000000000000002,9.700000000000001,81.90000000000002,-44.2,62.0,16
1134,19082.0,-0.1,0.0,1.4000000000000001,4.9,-1.6,10.0,82.3,-37.400000000000006,61.39999999999999,16
1135,19096.0,0.0,0.0,1.5,4.9,-1.5,10.200000000000001,82.3,-37.400000000000006,61.39999999999999,16
1136,19113.0,-0.2,0.1,1.3,4.800000000000001,-1.3,9.8,91.90000000000002,-14.700000000000001,57.400000000000006,16
1137,19130.0,-0.30000000000000004,0.2,0.30000000000000004,4.6000000000000005,-1.0,8.9,98.2,-8.600000000000001,52.1,16
1138,19147.0,-0.4,0.1,-0.4,4.5,-1.1,7.800000000000001,98.2,-8.600000000000001,52.1,16
1139,19164.0,-0.5,-0.5,-1.3,4.5,-1.4000000000000001,7.4,100.30000000000001,-7.300000000000001,45.2,16
1140,19180.0,-0.5,-0.9,-1.4000000000000001,4.5,-1.6,7.300000000000001,94.10000000000001,-8.5,32.6,16
1141,19198.0,-0.5,-1.2000000000000002,-1.4000000000000001,4.4,-1.9000000000000001,7.2,94.10000000000001,-8.5,32.6,16
1142,19213.0,-0.7000000000000001,-1.7000000000000002,-1.5,4.3,-2.1,7.2,90.6,-8.700000000000001,26.5,16
1143,19231.0,-0.9,-2.1,-1.4000000000000001,4.2,-2.2,7.2,81.50000000000001,-1.7,19.700000000000003,16
1144,19247.0,-0.8,-2.2,-1.5,4.2,-2.2,7.2,81.50000000000001,-1.7,19.700000000000003,16
1145,19263.0,-0.8,-2.1,-1.8,4.3,-1.9000000000000001,6.800000000000001,77.4,3.6000000000000005,15.700000000000001,16
1146,19280.0,-0.7000000000000001,-2.3000000000000003,-2.2,4.3,-2.0,6.300000000000001,73.30000000000001,7.400000000000001,9.2,16
1147,19296.0,-0.8,-2.4000000000000004,-2.8000000000000003,4.1000000000000005,-2.0,5.800000000000001,58.2,16.0,-4.5,16
1148,19313.0,-0.9,-2.5,-3.1,3.9000000000000004,-1.9000000000000001,5.300000000000001,58.2,16.0,-4.5,16
1149,19332.0,-0.9,-2.5,-3.6,4.0,-1.9000000000000001,5.0,48.10000000000001,17.400000000000002,-9.8,16
1150,19347.0,-0.6000000000000001,-3.0,-3.8000000000000003,4.2,-2.4000000000000004,4.9,27.099999999999998,-0.7,-24.200000000000003,16
1151,19365.0,-0.5,-3.5,-3.6,4.4,-3.1,5.1000000000000005,11.3,-8.899999999999999,-27.800000000000004,16
1152,19382.0,-0.30000000000000004,-4.1000000000000005,-3.1,4.6000000000000005,-3.4000000000000004,5.9,11.3,-8.899999999999999,-27.800000000000004,16
1153,19396.0,0.0,-4.4,-1.6,5.0,-3.6,7.300000000000001,-3.4,-18.200000000000003,-27.800000000000004,16
