,ms,accelX,accelY,accelZ,accelWithGX,accelWithGY,accelWithGZ,rotRateAlpha,rotRateBeta,rotRateGamma,interval
0,155.0,-0.1,-0.1,0.5,-0.30000000000000004,7.0,7.300000000000001,-5.8,0.9000000000000001,2.6,16
1,172.0,-0.1,-0.1,0.4,-0.2,6.9,7.4,-4.5,0.9000000000000001,3.7000000000000006,16
2,189.0,0.0,-0.1,0.4,-0.2,6.9,7.4,-3.8,0.8,3.2,16
3,205.0,0.0,0.0,0.30000000000000004,-0.1,7.0,7.300000000000001,-2.1,0.8,2.3,16
4,222.0,0.0,-0.1,0.30000000000000004,-0.2,6.9,7.4,-0.4,0.30000000000000004,1.7,16
5,239.0,-0.1,0.0,0.2,-0.2,7.0,7.300000000000001,2.0,-3.0,2.4000000000000004,16
6,255.0,0.0,-0.1,0.2,-0.2,7.0,7.300000000000001,2.8,-3.4,2.7,16
7,272.0,0.0,-0.1,0.1,-0.1,7.0,7.2,2.8,-1.1,2.6,16
8,290.0,0.1,-0.1,0.0,-0.1,6.9,7.2,2.4000000000000004,1.0,1.3,16
9,305.0,0.0,-0.1,0.0,-0.1,7.0,7.1000000000000005,1.8000000000000003,1.7,0.9000000000000001,16
10,322.0,0.0,0.0,0.1,-0.1,7.0,7.2,1.2000000000000002,2.4000000000000004,2.0,16
11,340.0,0.2,0.0,0.0,0.1,7.0,7.2,1.7,1.5,2.1,16
12,355.0,0.30000000000000004,0.0,0.0,0.2,7.0,7.1000000000000005,2.2,1.8000000000000003,1.2000000000000002,16
13,372.0,0.1,0.0,-0.1,0.0,7.0,7.0,2.4000000000000004,3.1,-1.0,16
14,389.0,0.0,0.0,-0.1,-0.1,7.1000000000000005,7.0,1.2000000000000002,2.8,-1.6,16
15,405.0,0.0,0.0,0.0,-0.1,7.1000000000000005,7.0,0.2,1.4,-1.5,16
16,423.0,0.0,0.0,0.1,-0.1,7.0,7.2,0.4,0.9000000000000001,-0.2,16
17,439.0,0.0,-0.1,0.1,-0.1,7.0,7.2,3.7000000000000006,-0.1,0.1,16
18,455.0,0.1,-0.1,0.0,-0.1,6.9,6.9,5.7,-0.6000000000000001,-0.6000000000000001,16
19,472.0,-0.1,-0.1,-0.30000000000000004,-0.2,7.0,6.800000000000001,4.800000000000001,-0.2,-1.2000000000000002,16
20,489.0,-0.1,0.0,-0.2,-0.2,7.0,6.800000000000001,1.2000000000000002,0.9000000000000001,-0.30000000000000004,16
21,505.0,-0.1,-0.1,-0.1,-0.2,7.0,7.0,-2.1,1.5,0.9000000000000001,16
22,523.0,0.0,-0.1,-0.1,-0.1,7.0,7.0,-2.3,2.4000000000000004,1.6,16
23,539.0,0.1,-0.1,-0.1,-0.1,6.9,6.9,-0.30000000000000004,4.300000000000001,1.5,16
24,555.0,0.0,0.0,-0.30000000000000004,-0.1,7.0,6.7,1.1,4.800000000000001,0.9000000000000001,16
25,572.0,0.0,0.0,-0.4,-0.1,7.1000000000000005,6.6000000000000005,0.30000000000000004,4.7,0.5,16
26,589.0,-0.1,0.1,-0.6000000000000001,-0.30000000000000004,7.1000000000000005,6.4,-4.5,5.2,0.9000000000000001,16
27,605.0,-0.1,0.0,-0.2,-0.30000000000000004,7.1000000000000005,6.800000000000001,-9.899999999999999,8.600000000000001,4.5,16
28,623.0,0.1,0.0,0.0,-0.1,7.0,7.0,-8.700000000000001,0.1,2.6,16
29,639.0,0.1,-0.1,-0.1,0.0,6.9,6.9,-7.0,-0.8,-0.5,16
30,655.0,-0.1,0.2,-0.1,-0.30000000000000004,7.2,7.0,-5.2,0.9000000000000001,-3.5,16
31,672.0,-0.2,0.1,-0.1,-0.4,7.1000000000000005,6.9,-3.8,-2.3,-2.9,16
32,689.0,-0.30000000000000004,0.1,-0.2,-0.5,7.1000000000000005,6.9,-3.1,-4.6,-2.3,16
33,705.0,-0.4,0.2,-0.4,-0.6000000000000001,7.1000000000000005,6.7,-2.3,-4.7,2.6,16
34,724.0,-0.30000000000000004,0.30000000000000004,-0.5,-0.5,7.2,6.6000000000000005,-2.6,-2.6,6.699999999999999,16
35,739.0,-0.30000000000000004,0.4,-0.6000000000000001,-0.4,7.300000000000001,6.5,-3.2,-2.6,7.500000000000001,16
36,755.0,-0.2,0.5,-0.4,-0.30000000000000004,7.4,6.6000000000000005,-5.8,-3.1,9.2,16
37,772.0,-0.2,0.5,-0.30000000000000004,-0.30000000000000004,7.4,6.7,-5.6,-5.0,10.1,16
38,789.0,-0.2,0.5,-0.2,-0.30000000000000004,7.5,6.800000000000001,-4.300000000000001,-5.2,10.600000000000001,16
39,805.0,0.1,0.7000000000000001,-0.2,0.0,7.6000000000000005,6.9,-0.7,-5.1000000000000005,12.299999999999999,16
40,824.0,0.30000000000000004,0.7000000000000001,-0.1,0.30000000000000004,7.7,6.9,2.7,-7.699999999999999,11.4,16
41,839.0,0.4,0.6000000000000001,-0.2,0.4,7.5,6.7,4.1,-8.5,10.200000000000001,16
42,855.0,0.2,0.30000000000000004,-0.4,0.30000000000000004,7.300000000000001,6.6000000000000005,5.2,-6.4,6.699999999999999,16
43,872.0,0.0,0.1,-0.7000000000000001,0.1,7.2,6.2,4.9,0.2,4.5,16
44,889.0,-0.1,0.1,-1.0,0.0,7.2,6.0,2.2,8.4,2.1,16
45,905.0,-0.2,0.1,-1.0,-0.2,7.1000000000000005,5.9,0.30000000000000004,9.5,0.5,16
46,922.0,-0.4,0.2,-1.0,-0.4,7.300000000000001,6.0,-5.500000000000001,5.9,-1.0,16
47,939.0,-0.6000000000000001,0.0,-0.7000000000000001,-0.6000000000000001,7.1000000000000005,6.300000000000001,-10.0,1.9,-0.6000000000000001,16
48,955.0,-0.6000000000000001,0.0,-0.5,-0.6000000000000001,7.0,6.5,-10.8,0.5,0.30000000000000004,16
49,972.0,-0.5,0.1,-0.2,-0.5,7.1000000000000005,6.800000000000001,-11.2,-2.5,3.8,16
50,989.0,-0.1,0.1,0.1,-0.1,7.0,7.1000000000000005,-10.700000000000001,-4.7,6.699999999999999,16
51,1005.0,0.1,0.0,0.30000000000000004,0.1,7.0,7.300000000000001,-9.899999999999999,-5.6,6.2,16
52,1022.0,0.2,-0.1,0.5,0.30000000000000004,6.800000000000001,7.5,-7.400000000000001,-4.9,2.4000000000000004,16
53,1039.0,0.2,-0.2,0.6000000000000001,0.30000000000000004,6.800000000000001,7.6000000000000005,-5.0,-1.6,-0.9000000000000001,16
54,1056.0,0.30000000000000004,-0.1,0.5,0.4,6.800000000000001,7.6000000000000005,-5.300000000000001,-2.4000000000000004,-1.6,16
55,1072.0,0.5,-0.2,0.5,0.6000000000000001,6.7,7.6000000000000005,-5.300000000000001,-0.5,-0.7,16
56,1089.0,0.6000000000000001,-0.30000000000000004,0.5,0.6000000000000001,6.6000000000000005,7.6000000000000005,-2.3,0.2,-3.5,16
57,1105.0,0.5,-0.30000000000000004,0.30000000000000004,0.6000000000000001,6.5,7.4,2.2,-4.0,-6.1000000000000005,16
58,1122.0,0.5,-0.5,0.0,0.6000000000000001,6.4,7.1000000000000005,3.7000000000000006,-4.300000000000001,-8.0,16
59,1139.0,0.4,-0.4,-0.5,0.5,6.5,6.5,0.1,-0.8,-10.9,16
60,1155.0,0.5,-0.30000000000000004,-0.6000000000000001,0.5,6.6000000000000005,6.5,-7.699999999999999,3.6000000000000005,-12.4,16
61,1172.0,0.4,-0.2,-0.5,0.4,6.6000000000000005,6.6000000000000005,-11.2,3.9,-13.399999999999999,16
62,1189.0,0.30000000000000004,0.0,-0.30000000000000004,0.30000000000000004,6.800000000000001,6.800000000000001,-14.600000000000001,3.0,-13.5,16
63,1205.0,0.30000000000000004,0.1,-0.2,0.2,6.800000000000001,7.0,-13.5,-0.5,-14.400000000000002,16
64,1222.0,0.30000000000000004,0.1,-0.2,0.30000000000000004,6.9,6.9,-12.4,-3.4,-15.299999999999999,16
65,1239.0,0.30000000000000004,0.2,-0.30000000000000004,0.30000000000000004,7.0,6.800000000000001,-11.5,-7.1000000000000005,-17.7,16
66,1255.0,0.30000000000000004,0.30000000000000004,-0.30000000000000004,0.2,7.1000000000000005,6.9,-11.900000000000002,-3.8,-19.799999999999997,16
67,1272.0,0.1,0.5,-0.4,0.0,7.2,6.9,-13.700000000000001,-4.6,-19.799999999999997,16
68,1289.0,0.1,0.5,-0.4,-0.1,7.2,6.800000000000001,-13.900000000000002,-2.2,-18.1,16
69,1305.0,0.1,0.7000000000000001,-0.5,-0.1,7.300000000000001,6.7,-12.7,1.6,-16.5,16
70,1322.0,0.0,0.8,-0.8,-0.30000000000000004,7.5,6.5,-11.700000000000001,-0.2,-15.100000000000001,16
71,1339.0,0.0,0.9,-0.9,-0.30000000000000004,7.5,6.4,-11.6,-2.7,-13.900000000000002,16
72,1355.0,0.1,0.9,-0.9,-0.2,7.6000000000000005,6.4,-12.0,-7.6,-11.4,16
73,1372.0,0.2,0.9,-1.0,0.0,7.5,6.4,-11.3,-7.699999999999999,-9.3,16
74,1389.0,0.30000000000000004,0.9,-0.9,0.1,7.5,6.4,-9.899999999999999,-7.500000000000001,-8.3,16
75,1405.0,0.6000000000000001,0.9,-1.0,0.30000000000000004,7.5,6.300000000000001,-4.7,-8.899999999999999,-8.700000000000001,16
76,1422.0,0.5,0.9,-1.3,0.30000000000000004,7.5,6.0,-1.9,-11.6,-12.299999999999999,16
77,1439.0,0.4,1.0,-1.4000000000000001,0.0,7.5,5.9,-3.6000000000000005,-12.4,-13.900000000000002,16
78,1455.0,0.2,1.0,-1.2000000000000002,-0.1,7.6000000000000005,6.1000000000000005,-9.4,-11.2,-14.0,16
79,1472.0,0.4,1.1,-0.9,0.2,7.7,6.4,-13.399999999999999,-7.500000000000001,-12.0,16
80,1489.0,0.6000000000000001,1.1,-0.7000000000000001,0.4,7.7,6.7,-9.100000000000001,-3.5,-13.900000000000002,16
81,1505.0,0.5,1.2000000000000002,-0.6000000000000001,0.30000000000000004,7.7,6.7,-4.7,-2.5,-16.5,16
82,1522.0,0.0,1.4000000000000001,-0.7000000000000001,-0.30000000000000004,8.0,6.7,5.0,-3.0,-19.0,16
83,1539.0,-0.2,1.6,-0.7000000000000001,-0.5,8.200000000000001,6.6000000000000005,12.200000000000001,-10.700000000000001,-15.000000000000002,16
84,1555.0,0.0,1.7000000000000002,-0.8,-0.30000000000000004,8.3,6.5,14.5,-14.300000000000002,-12.0,16
85,1572.0,0.30000000000000004,1.8,-0.7000000000000001,0.0,8.5,6.5,16.3,-17.9,-10.200000000000001,16
86,1589.0,0.1,2.0,-0.4,-0.2,8.8,6.800000000000001,17.5,-23.0,-10.700000000000001,16
87,1605.0,0.1,1.9000000000000001,-0.4,-0.1,8.700000000000001,6.800000000000001,18.3,-26.700000000000003,-11.3,16
88,1622.0,0.1,1.9000000000000001,-0.2,-0.1,8.8,6.9,16.700000000000003,-30.200000000000003,-12.0,16
89,1639.0,0.0,1.8,0.2,-0.1,8.700000000000001,7.300000000000001,10.5,-32.2,-10.600000000000001,16
90,1655.0,-0.2,1.5,0.5,-0.30000000000000004,8.5,7.6000000000000005,6.699999999999999,-26.9,-9.100000000000001,16
91,1672.0,-0.4,1.4000000000000001,0.6000000000000001,-0.4,8.4,7.7,5.300000000000001,-22.000000000000004,-7.300000000000001,16
92,1689.0,-0.6000000000000001,1.3,0.6000000000000001,-0.6000000000000001,8.3,7.7,2.7,-12.100000000000001,-1.4,16
93,1705.0,-0.7000000000000001,1.4000000000000001,0.7000000000000001,-0.7000000000000001,8.5,7.800000000000001,-1.0,-3.3000000000000007,2.3,16
94,1722.0,-0.8,1.5,0.9,-0.8,8.5,7.9,-3.2,0.0,2.7,16
95,1739.0,-1.4000000000000001,1.1,1.1,-1.4000000000000001,8.200000000000001,8.200000000000001,-8.100000000000001,5.300000000000001,4.2,16
96,1755.0,-1.9000000000000001,0.9,1.5,-1.9000000000000001,7.9,8.6,-15.700000000000001,1.6,8.8,16
97,1772.0,-1.9000000000000001,0.5,1.7000000000000002,-2.0,7.5,8.9,-19.400000000000002,0.7,12.100000000000001,16
98,1789.0,-1.9000000000000001,-0.2,2.0,-1.9000000000000001,6.800000000000001,9.200000000000001,-23.800000000000004,0.6000000000000001,18.0,16
99,1805.0,-1.6,-0.8,2.0,-1.6,6.1000000000000005,9.3,-21.7,8.5,23.3,16
100,1822.0,-1.5,-1.0,1.8,-1.4000000000000001,5.6000000000000005,8.9,-18.0,15.399999999999999,24.8,16
101,1839.0,-1.5,-1.2000000000000002,1.0,-1.5,5.6000000000000005,8.5,-9.0,29.700000000000006,23.3,16
102,1855.0,-1.6,-1.1,0.1,-1.7000000000000002,5.6000000000000005,7.5,-5.6,40.4,19.0,16
103,1872.0,-1.7000000000000002,-0.7000000000000001,-0.4,-1.9000000000000001,6.0,7.1000000000000005,-10.600000000000001,36.300000000000004,16.8,16
104,1889.0,-1.6,-0.6000000000000001,-0.4,-1.9000000000000001,6.1000000000000005,7.1000000000000005,-15.299999999999999,30.200000000000003,17.300000000000004,16
105,1905.0,-1.4000000000000001,-0.6000000000000001,-0.1,-1.6,6.1000000000000005,7.4,-24.0,14.100000000000001,18.1,16
106,1922.0,-1.2000000000000002,-0.5,0.30000000000000004,-1.4000000000000001,6.1000000000000005,7.9,-25.7,1.9,17.799999999999997,16
107,1939.0,-0.9,-0.6000000000000001,0.30000000000000004,-1.1,5.9,7.9,-22.8,2.6,16.8,16
108,1955.0,-0.6000000000000001,-0.8,-0.1,-0.8,5.7,7.6000000000000005,-14.700000000000001,13.8,11.1,16
109,1972.0,-0.9,-0.6000000000000001,-0.4,-1.1,5.9,7.300000000000001,-9.8,21.6,7.400000000000001,16
110,1989.0,-1.0,-0.6000000000000001,-0.6000000000000001,-1.3,5.800000000000001,7.0,-9.100000000000001,22.5,7.8,16
111,2005.0,-1.0,-0.6000000000000001,-0.9,-1.3,5.800000000000001,6.800000000000001,-7.8,28.3,11.5,16
112,2022.0,-0.7000000000000001,-0.4,-0.8,-1.1,6.1000000000000005,6.9,-3.2,35.1,16.200000000000003,16
113,2039.0,-0.5,-0.30000000000000004,-0.8,-0.8,6.2,6.800000000000001,5.0,38.800000000000004,18.4,16
114,2056.0,-0.30000000000000004,-0.2,-0.9,-0.8,6.300000000000001,6.7,9.899999999999999,42.60000000000001,19.400000000000002,16
115,2072.0,-0.30000000000000004,-0.1,-1.2000000000000002,-0.9,6.4,6.4,19.400000000000002,46.800000000000004,20.8,16
116,2089.0,-0.5,-0.1,-1.3,-1.2000000000000002,6.5,6.2,26.200000000000003,48.10000000000001,24.400000000000002,16
117,2105.0,-0.5,0.1,-1.3,-1.2000000000000002,6.7,6.2,29.300000000000004,47.1,27.099999999999998,16
118,2122.0,-0.4,0.5,-1.1,-1.1,7.2,6.300000000000001,33.7,36.400000000000006,30.699999999999996,16
119,2139.0,-0.4,0.8,-0.7000000000000001,-1.2000000000000002,7.6000000000000005,6.5,32.8,17.200000000000003,29.500000000000004,16
120,2155.0,-0.5,0.8,-0.4,-1.2000000000000002,7.6000000000000005,6.800000000000001,30.599999999999998,8.5,29.500000000000004,16
121,2172.0,-0.30000000000000004,0.7000000000000001,0.5,-0.9,7.6000000000000005,7.7,26.000000000000004,-13.6,30.3,16
122,2189.0,0.9,0.2,1.0,0.4,7.2,8.1,22.5,-27.6,28.200000000000003,16
123,2205.0,1.8,0.1,0.9,1.4000000000000001,7.1000000000000005,8.1,19.799999999999997,-24.0,22.000000000000004,16
124,2222.0,2.1,-0.6000000000000001,0.30000000000000004,1.7000000000000002,6.5,7.4,11.900000000000002,15.2,-4.4,16
125,2239.0,0.5,-0.4,-0.1,-0.1,6.6000000000000005,7.0,-6.4,55.1,-26.799999999999997,16
126,2256.0,-0.7000000000000001,0.0,0.4,-1.4000000000000001,6.9,7.5,-35.2,55.5,-29.500000000000004,16
127,2272.0,-0.7000000000000001,-0.1,0.9,-1.6,6.7,8.1,-50.900000000000006,44.00000000000001,-24.900000000000002,16
128,2289.0,-0.4,-0.6000000000000001,1.9000000000000001,-1.3,6.1000000000000005,9.200000000000001,-72.30000000000001,19.6,-10.4,16
129,2305.0,0.1,-1.3,2.6,-0.9,5.2,10.100000000000001,-73.9,9.600000000000001,2.0,16
130,2322.0,0.30000000000000004,-1.5,2.7,-0.7000000000000001,4.9,10.4,-65.89999999999999,15.000000000000002,6.8,16
131,2339.0,0.5,-1.5,2.6,-0.5,4.7,10.3,-38.0,23.099999999999998,13.100000000000001,16
132,2355.0,1.1,-1.3,1.7000000000000002,0.1,5.0,9.4,-5.9,15.2,14.800000000000002,16
133,2372.0,1.5,-1.1,1.1,0.5,5.1000000000000005,8.9,6.8,4.1,12.0,16
134,2389.0,1.7000000000000002,-1.0,0.0,0.8,5.300000000000001,7.800000000000001,20.5,-21.200000000000003,2.6,16
135,2405.0,1.4000000000000001,-0.9,-1.1,0.5,5.4,6.7,17.400000000000002,-36.7,-5.1000000000000005,16
136,2422.0,1.1,-0.8,-1.5,0.30000000000000004,5.5,6.2,9.3,-37.800000000000004,-7.6,16
137,2439.0,0.9,-1.0,-2.0,0.2,5.300000000000001,5.7,-14.900000000000002,-22.9,-6.600000000000001,16
138,2455.0,1.0,-1.1,-1.7000000000000002,0.2,5.1000000000000005,6.1000000000000005,-36.400000000000006,3.7000000000000006,-1.5,16
139,2472.0,1.0,-1.1,-1.4000000000000001,0.1,4.9,6.6000000000000005,-41.300000000000004,13.200000000000003,0.6000000000000001,16
140,2489.0,0.8,-1.2000000000000002,-1.2000000000000002,0.1,4.9,6.7,-37.1,19.1,4.300000000000001,16
141,2506.0,0.9,-1.0,-1.1,0.1,4.9,6.800000000000001,-18.1,14.300000000000002,9.100000000000001,16
142,2522.0,0.9,-0.8,-1.2000000000000002,0.1,5.1000000000000005,6.7,5.1000000000000005,1.0,9.700000000000001,16
143,2539.0,0.8,-0.7000000000000001,-1.4000000000000001,0.0,5.300000000000001,6.5,15.2,-6.8,9.3,16
144,2555.0,0.30000000000000004,-0.30000000000000004,-1.2000000000000002,-0.4,5.7,6.6000000000000005,30.699999999999996,-19.300000000000004,10.0,16
145,2572.0,-0.4,0.2,-0.1,-1.0,6.4,7.6000000000000005,43.2,-47.2,13.8,16
146,2589.0,-0.30000000000000004,0.2,0.1,-0.8,6.4,7.7,50.0,-59.60000000000001,15.299999999999999,16
147,2605.0,0.30000000000000004,0.1,0.2,0.0,6.4,7.800000000000001,61.300000000000004,-64.7,11.6,16
148,2622.0,0.0,0.4,-0.5,-0.1,6.9,6.9,62.199999999999996,-46.4,-3.7000000000000006,16
149,2639.0,-0.4,0.7000000000000001,-0.8,-0.5,7.300000000000001,6.5,57.20000000000001,-26.5,-11.5,16
150,2655.0,-1.0,1.6,-0.7000000000000001,-1.2000000000000002,8.3,6.6000000000000005,34.800000000000004,10.600000000000001,-20.1,16
151,2672.0,-1.6,2.2,0.6000000000000001,-1.8,9.0,7.800000000000001,5.8,23.6,-21.7,16
152,2689.0,-2.4000000000000004,2.5,1.7000000000000002,-2.8000000000000003,9.3,8.9,-14.900000000000002,18.5,-22.1,16
153,2705.0,-2.9000000000000004,2.8000000000000003,2.1,-3.3000000000000003,9.5,9.4,-20.8,22.1,-19.200000000000003,16
154,2722.0,-3.3000000000000003,3.4000000000000004,3.1,-3.9000000000000004,10.100000000000001,10.5,-29.900000000000006,28.0,-5.7,16
155,2739.0,-2.9000000000000004,3.1,4.0,-3.5,9.700000000000001,11.5,-40.0,12.299999999999999,10.4,16
156,2755.0,-2.6,2.8000000000000003,4.4,-3.2,9.4,12.0,-43.50000000000001,6.2,18.6,16
157,2772.0,-1.8,1.7000000000000002,5.300000000000001,-2.4000000000000004,8.200000000000001,13.0,-40.300000000000004,5.500000000000001,33.7,16
158,2789.0,-1.5,0.9,5.0,-2.0,7.300000000000001,12.8,-25.200000000000003,21.0,45.2,16
159,2806.0,-1.1,0.4,4.7,-1.4000000000000001,6.4,11.8,-12.7,35.2,50.400000000000006,16
160,2822.0,-0.7000000000000001,-0.1,3.1,-1.3,6.300000000000001,10.9,13.6,62.199999999999996,58.7,16
161,2843.0,-0.5,-0.5,1.3,-1.1,6.1000000000000005,9.0,33.6,78.10000000000001,59.60000000000001,16
162,2856.0,-0.4,-0.6000000000000001,0.5,-1.1,6.0,7.6000000000000005,39.599999999999994,76.1,58.3,16
163,2872.0,-0.5,-0.9,-0.4,-1.2000000000000002,5.800000000000001,7.2,42.800000000000004,49.4,52.2,16
164,2889.0,-0.7000000000000001,-1.3,-1.0,-1.4000000000000001,5.5,6.5,35.3,9.4,47.900000000000006,16
165,2905.0,-0.7000000000000001,-1.9000000000000001,-0.8,-1.2000000000000002,5.0,6.6000000000000005,26.400000000000006,-10.0,52.900000000000006,16
166,2922.0,-0.4,-2.2,-0.7000000000000001,-0.9,4.7,6.7,25.4,-8.4,56.6,16
167,2939.0,0.5,-2.5,-0.4,0.2,4.5,6.9,30.699999999999996,7.1000000000000005,60.1,16
168,2955.0,0.9,-2.5,-0.6000000000000001,0.7000000000000001,4.6000000000000005,6.6000000000000005,44.00000000000001,15.700000000000001,47.900000000000006,16
169,2972.0,0.8,-2.5,-1.2000000000000002,0.6000000000000001,4.6000000000000005,5.9,49.1,14.900000000000002,37.1,16
170,2989.0,-0.1,-2.1,-2.2,-0.30000000000000004,5.1000000000000005,4.800000000000001,48.70000000000001,15.000000000000002,21.6,16
171,3005.0,-0.8,-1.9000000000000001,-2.0,-0.9,5.4,4.9,34.2,-2.8,21.6,16
172,3022.0,-0.8,-1.8,-1.8,-0.9,5.5,5.1000000000000005,26.9,-10.200000000000001,25.8,16
173,3039.0,-0.1,-1.8,-1.5,-0.1,5.6000000000000005,5.300000000000001,16.900000000000002,-9.600000000000001,33.9,16
174,3056.0,0.6000000000000001,-1.5,-1.2000000000000002,0.6000000000000001,5.9,5.5,10.200000000000001,7.200000000000001,27.0,16
175,3072.0,0.2,-0.8,-0.7000000000000001,0.30000000000000004,6.6000000000000005,6.0,7.699999999999999,20.0,11.900000000000002,16
176,3089.0,0.0,-0.4,0.0,0.0,7.0,6.7,8.5,17.6,6.9,16
177,3105.0,0.2,-0.1,0.6000000000000001,0.30000000000000004,7.4,7.300000000000001,14.200000000000001,-7.300000000000001,-0.5,16
178,3125.0,1.0,-0.2,0.5,1.1,7.300000000000001,7.1000000000000005,19.200000000000003,-18.6,-13.200000000000003,16
179,3139.0,1.2000000000000002,-0.2,0.30000000000000004,1.3,7.300000000000001,6.9,16.900000000000002,-20.599999999999998,-20.900000000000002,16
180,3155.0,1.1,-0.30000000000000004,0.4,1.2000000000000002,7.1000000000000005,7.0,1.1,-22.3,-35.2,16
181,3172.0,1.0,-0.8,0.2,1.0,6.7,6.800000000000001,-17.1,-11.3,-44.6,16
182,3189.0,0.9,-1.0,0.0,0.9,6.4,6.7,-22.1,11.3,-47.2,16
183,3205.0,0.5,-0.8,0.2,0.2,6.6000000000000005,6.9,-32.2,43.70000000000001,-52.5,16
184,3222.0,0.30000000000000004,-0.30000000000000004,1.1,-0.2,7.0,8.0,-47.400000000000006,25.200000000000003,-53.0,16
185,3239.0,0.1,-0.4,1.6,-0.5,6.5,8.9,-53.50000000000001,6.2,-51.0,16
186,3256.0,0.1,-0.8,2.0,-0.6000000000000001,6.300000000000001,9.1,-54.4,-14.0,-39.1,16
187,3272.0,0.30000000000000004,-1.1,2.3000000000000003,-0.30000000000000004,5.800000000000001,9.5,-44.9,-13.200000000000003,-25.6,16
188,3289.0,0.6000000000000001,-1.0,1.8,0.0,5.7,9.1,-34.60000000000001,-7.500000000000001,-16.700000000000003,16
189,3305.0,0.9,-1.1,1.4000000000000001,0.2,5.6000000000000005,8.8,-31.9,-3.1,-13.3,16
190,3323.0,1.2000000000000002,-1.2000000000000002,0.7000000000000001,0.5,5.5,8.200000000000001,-26.799999999999997,10.600000000000001,-5.4,16
191,3339.0,1.4000000000000001,-1.2000000000000002,0.1,0.7000000000000001,5.4,7.6000000000000005,-16.4,16.700000000000003,1.3,16
192,3355.0,1.6,-1.1,-0.30000000000000004,0.9,5.5,7.2,-9.8,11.700000000000001,2.8,16
193,3372.0,1.9000000000000001,-1.0,-1.0,1.2000000000000002,5.5,6.5,-0.30000000000000004,-8.3,-2.0,16
194,3389.0,1.5,-1.0,-1.6,0.8,5.5,5.800000000000001,0.6000000000000001,-15.8,-12.7,16
195,3405.0,1.2000000000000002,-1.1,-1.8,0.5,5.5,5.7,-1.2000000000000002,-13.6,-16.900000000000002,16
196,3422.0,0.6000000000000001,-1.1,-1.5,0.0,5.4,6.0,-6.0,-7.300000000000001,-21.200000000000003,16
197,3439.0,0.5,-1.1,-1.0,-0.2,5.4,6.5,-7.1000000000000005,-12.9,-24.3,16
198,3456.0,0.6000000000000001,-1.1,-0.8,-0.1,5.4,6.9,-2.2,-15.899999999999999,-26.6,16
199,3472.0,0.6000000000000001,-0.9,-0.4,-0.2,5.5,7.1000000000000005,2.2,-17.200000000000003,-26.200000000000003,16
200,3489.0,0.5,-0.8,-0.30000000000000004,-0.2,5.7,7.2,14.900000000000002,-20.7,-24.8,16
201,3505.0,0.5,-0.4,-0.4,-0.2,6.1000000000000005,7.1000000000000005,27.9,-24.1,-23.3,16
202,3522.0,0.5,-0.4,-0.6000000000000001,-0.2,6.2,6.800000000000001,33.7,-21.400000000000002,-22.6,16
203,3539.0,0.0,0.0,-0.8,-0.7000000000000001,6.7,6.5,38.400000000000006,-11.8,-20.599999999999998,16
204,3555.0,-0.6000000000000001,0.7000000000000001,-0.5,-1.4000000000000001,7.4,6.7,38.400000000000006,-6.1000000000000005,-11.700000000000001,16
205,3572.0,-0.7000000000000001,0.9,-0.4,-1.4000000000000001,7.7,6.7,38.60000000000001,-6.9,-6.2,16
206,3589.0,-0.4,1.4000000000000001,-0.2,-1.1,8.3,6.800000000000001,38.2,-11.4,0.0,16
207,3605.0,0.0,1.8,0.4,-0.7000000000000001,8.8,7.4,32.9,-26.000000000000004,-1.8000000000000003,16
208,3622.0,0.0,1.7000000000000002,0.9,-0.7000000000000001,8.8,7.9,27.400000000000002,-39.1,-4.300000000000001,16
209,3639.0,-0.4,1.4000000000000001,1.7000000000000002,-0.9,8.5,8.700000000000001,18.200000000000003,-53.0,-9.600000000000001,16
210,3655.0,-1.0,1.2000000000000002,1.5,-1.5,8.4,8.4,23.5,-25.200000000000003,-4.2,16
211,3672.0,-1.5,1.7000000000000002,0.7000000000000001,-2.0,9.0,7.5,33.400000000000006,24.1,6.500000000000001,16
212,3689.0,-1.5,2.0,0.5,-2.1,9.3,7.300000000000001,33.7,33.7,12.5,16
213,3706.0,-1.4000000000000001,2.2,0.2,-1.9000000000000001,9.600000000000001,7.0,30.1,32.0,16.8,16
214,3724.0,-1.7000000000000002,1.8,0.4,-2.2,9.3,7.1000000000000005,3.2,-3.3000000000000007,21.7,16
215,3743.0,-1.6,1.3,0.6000000000000001,-2.1,8.8,7.300000000000001,-6.8,-11.8,24.200000000000003,16
216,3755.0,-1.3,0.30000000000000004,1.1,-1.7000000000000002,7.7,7.9,-22.4,-13.200000000000003,29.1,16
217,3772.0,-0.9,-0.6000000000000001,1.5,-1.3,6.7,8.3,-29.1,-6.9,31.9,16
218,3789.0,-0.9,-0.9,1.5,-1.1,6.4,8.4,-28.1,-1.1,32.7,16
219,3805.0,-0.9,-1.0,1.5,-1.1,6.300000000000001,8.5,-20.900000000000002,6.9,31.099999999999998,16
220,3822.0,-0.8,-0.9,1.1,-0.9,6.300000000000001,8.1,-12.4,7.500000000000001,28.500000000000004,16
221,3839.0,-0.6000000000000001,-1.0,0.8,-0.5,6.0,7.5,-8.5,6.600000000000001,26.799999999999997,16
222,3856.0,-0.30000000000000004,-1.4000000000000001,0.0,-0.4,5.800000000000001,7.1000000000000005,-3.1,-0.2,18.6,16
223,3872.0,0.1,-1.7000000000000002,-0.30000000000000004,0.0,5.5,6.7,-4.0,-8.4,9.2,16
224,3889.0,-0.1,-1.7000000000000002,-0.30000000000000004,-0.1,5.4,6.800000000000001,-10.9,-15.399999999999999,2.1,16
225,3905.0,-0.1,-1.8,-0.2,-0.1,5.300000000000001,6.800000000000001,-12.8,-11.8,1.7,16
226,3922.0,-0.1,-2.1,-0.6000000000000001,-0.1,4.9,6.5,-12.5,4.5,2.3,16
227,3939.0,-0.2,-2.1,-1.1,-0.30000000000000004,4.9,6.0,-7.0,23.800000000000004,0.8,16
228,3955.0,-0.30000000000000004,-1.9000000000000001,-1.3,-0.4,5.1000000000000005,5.800000000000001,-3.6000000000000005,31.2,0.9000000000000001,16
229,3973.0,-0.4,-1.3,-1.1,-0.5,5.6000000000000005,6.0,5.2,31.7,3.5,16
230,3989.0,-0.5,-0.8,-1.1,-0.7000000000000001,6.2,6.0,16.5,20.1,6.4,16
231,4005.0,-0.5,-0.6000000000000001,-1.2000000000000002,-0.8,6.4,5.800000000000001,20.400000000000002,12.0,7.400000000000001,16
232,4022.0,-0.8,0.0,-1.2000000000000002,-1.0,7.0,5.800000000000001,24.0,7.300000000000001,8.4,16
233,4039.0,-0.6000000000000001,-0.2,-0.2,-0.8,7.0,6.6000000000000005,31.2,24.7,12.9,16
234,4055.0,-0.2,0.7000000000000001,0.0,-0.5,7.9,6.800000000000001,21.8,8.0,12.7,16
235,4072.0,-0.30000000000000004,1.1,0.2,-0.6000000000000001,8.4,7.0,14.700000000000001,4.7,10.1,16
236,4089.0,0.30000000000000004,0.5,0.7000000000000001,0.1,7.800000000000001,7.5,-2.5,7.9,3.2,16
237,4105.0,1.1,-0.4,0.7000000000000001,0.8,6.800000000000001,7.5,-25.200000000000003,1.7,-10.9,16
238,4124.0,1.1,-0.7000000000000001,1.1,0.8,6.4,8.1,-47.0,9.2,-24.900000000000002,16
239,4141.0,1.0,-1.0,1.6,0.6000000000000001,6.0,8.6,-53.50000000000001,15.5,-29.500000000000004,16
240,4155.0,-0.30000000000000004,0.0,2.4000000000000004,-0.9,6.9,9.600000000000001,-39.9,41.1,-26.6,16
241,4172.0,-0.6000000000000001,0.4,2.9000000000000004,-1.2000000000000002,7.300000000000001,10.100000000000001,-20.400000000000002,51.50000000000001,-19.400000000000002,16
242,4189.0,0.30000000000000004,0.4,1.9000000000000001,-0.4,7.300000000000001,9.1,20.2,29.0,-9.2,16
243,4205.0,0.9,0.5,0.7000000000000001,0.1,7.5,7.800000000000001,36.400000000000006,-11.000000000000002,-14.800000000000002,16
244,4222.0,0.9,0.5,0.2,0.2,7.5,7.300000000000001,33.9,-30.599999999999998,-21.1,16
245,4244.0,0.6000000000000001,-0.30000000000000004,-0.30000000000000004,-0.1,6.800000000000001,6.7,-3.8,-48.2,-34.800000000000004,16
246,4257.0,0.30000000000000004,-0.6000000000000001,-0.2,-0.4,6.5,6.9,-21.300000000000004,-38.2,-32.1,16
247,4272.0,0.0,-0.7000000000000001,0.4,-0.6000000000000001,6.2,7.6000000000000005,-50.7,-12.600000000000001,-16.3,16
248,4289.0,0.1,-0.8,0.4,-0.5,6.0,7.6000000000000005,-59.00000000000001,-1.4,-6.300000000000001,16
249,4305.0,0.8,-0.9,0.1,0.1,5.800000000000001,7.5,-69.00000000000001,7.300000000000001,8.700000000000001,16
250,4322.0,1.0,-1.8,-0.7000000000000001,0.30000000000000004,4.7,6.9,-70.9,11.900000000000002,12.4,16
251,4339.0,1.2000000000000002,-1.4000000000000001,-0.4,0.6000000000000001,5.0,7.2,-69.7,17.799999999999997,13.900000000000002,16
252,4356.0,1.9000000000000001,-2.4000000000000004,-1.0,1.3,3.8000000000000003,6.800000000000001,-62.50000000000001,-7.1000000000000005,12.0,16
253,4372.0,0.8,-2.9000000000000004,-1.6,0.2,3.1,6.300000000000001,-59.1,-19.1,-7.400000000000001,16
254,4389.0,-0.2,-1.9000000000000001,-2.4000000000000004,-0.7000000000000001,4.1000000000000005,5.5,-60.300000000000004,-18.900000000000002,-9.5,16
255,4406.0,0.5,-1.6,-1.4000000000000001,0.0,4.1000000000000005,6.7,-59.80000000000001,-8.0,5.9,16
256,4422.0,0.8,-2.0,-3.3000000000000003,0.4,3.5,4.800000000000001,-75.1,-32.300000000000004,2.9,16
257,4439.0,0.9,-1.9000000000000001,-2.4000000000000004,0.4,3.5,7.0,-78.10000000000001,-23.5,-1.0,16
258,4455.0,0.6000000000000001,-1.5,-1.1,0.30000000000000004,3.7,7.300000000000001,-75.3,-51.50000000000001,-13.3,16
259,4472.0,0.4,0.0,-1.7000000000000002,0.30000000000000004,5.0,6.800000000000001,-77.5,-82.10000000000001,-27.2,16
260,4489.0,0.1,0.5,-2.0,0.2,5.2,6.6000000000000005,-109.60000000000001,-89.5,-32.0,16
261,4505.0,-0.1,0.9,-1.1,0.1,5.4,7.6000000000000005,-127.00000000000003,-84.3,-31.400000000000002,16
262,4522.0,0.1,-0.7000000000000001,-0.8,0.5,3.4000000000000004,8.1,-124.7,-39.2,-37.300000000000004,16
263,4539.0,-0.6000000000000001,-0.4,0.7000000000000001,-0.4,3.3000000000000003,9.8,-95.4,11.4,-46.300000000000004,16
264,4555.0,-0.5,-0.6000000000000001,1.6,-0.4,3.1,10.700000000000001,-68.4,22.3,-44.6,16
265,4572.0,0.1,-0.30000000000000004,3.9000000000000004,0.1,3.3000000000000003,13.100000000000001,4.0,23.6,-44.4,16
266,4589.0,0.7000000000000001,0.2,3.9000000000000004,0.6000000000000001,4.0,13.0,87.89999999999999,17.799999999999997,-51.300000000000004,16
267,4605.0,0.6000000000000001,1.0,3.6,0.4,5.1000000000000005,12.600000000000001,121.9,31.6,-58.5,16
268,4622.0,-0.7000000000000001,2.9000000000000004,1.2000000000000002,-1.1,7.4,10.100000000000001,120.3,46.7,-63.30000000000001,16
269,4639.0,-0.4,-0.2,-5.5,-0.9,4.4,3.2,2.2,6.699999999999999,-46.4,16
270,4656.0,-1.4000000000000001,-0.8,-3.8000000000000003,-2.0,3.5,5.0,-106.60000000000001,39.8,-43.70000000000001,16
271,4672.0,-2.3000000000000003,-1.9000000000000001,-2.9000000000000004,-3.1,2.1,6.0,-146.60000000000002,56.2,-44.6,16
272,4689.0,-1.1,-2.7,-0.1,-2.2,0.7000000000000001,9.1,-205.10000000000002,106.20000000000002,-39.9,16
273,4705.0,-1.9000000000000001,0.1,8.200000000000001,-3.4000000000000004,2.8000000000000003,17.5,-190.0,113.60000000000001,-36.300000000000004,16
274,4722.0,-2.2,0.7000000000000001,10.100000000000001,-4.0,3.3000000000000003,19.5,-150.00000000000003,73.5,-28.800000000000004,16
275,4739.0,-0.1,0.7000000000000001,5.9,-1.8,3.0,15.4,-41.199999999999996,-3.6000000000000005,-15.899999999999999,16
276,4755.0,1.1,0.5,0.6000000000000001,-0.6000000000000001,2.8000000000000003,10.200000000000001,7.8,-38.400000000000006,-34.0,16
277,4772.0,1.0,-0.1,-0.8,-0.7000000000000001,2.2,8.700000000000001,0.5,-41.4,-50.1,16
278,4789.0,0.8,-0.6000000000000001,-1.4000000000000001,-0.8,1.5,8.200000000000001,-29.600000000000005,-30.599999999999998,-72.0,16
279,4805.0,-0.6000000000000001,-0.30000000000000004,0.8,-2.2,1.7000000000000002,10.4,-47.900000000000006,-1.1,-79.6,16
280,4822.0,-0.5,-0.1,0.9,-2.1,1.7000000000000002,10.600000000000001,-46.4,17.7,-77.5,16
281,4839.0,0.30000000000000004,0.0,-0.4,-1.6,1.7000000000000002,9.200000000000001,-30.9,56.2,-73.4,16
282,4855.0,0.2,0.4,-0.4,-1.9000000000000001,2.0,9.200000000000001,-14.200000000000001,57.1,-70.7,16
283,4872.0,-1.0,1.7000000000000002,-1.0,-3.2,3.2,8.6,-2.6,30.4,-61.9,16
284,4889.0,-1.0,1.7000000000000002,-1.5,-3.3000000000000003,3.2,8.0,0.0,32.2,-51.70000000000001,16
285,4905.0,-1.8,1.4000000000000001,-1.8,-4.3,2.9000000000000004,7.7,-0.8,41.7,-20.7,16
286,4922.0,-0.1,0.5,-0.2,-2.7,2.1,9.3,9.4,52.00000000000001,21.200000000000003,16
287,4939.0,0.8,-0.2,0.0,-1.9000000000000001,1.4000000000000001,9.4,16.1,50.60000000000001,34.300000000000004,16
288,4957.0,0.6000000000000001,0.0,0.0,-2.3000000000000003,1.7000000000000002,9.3,30.1,70.9,36.300000000000004,16
289,4972.0,0.30000000000000004,0.4,-0.30000000000000004,-2.8000000000000003,2.2,8.9,41.6,93.10000000000001,32.7,16
290,4989.0,0.1,0.2,-0.1,-3.2,2.2,9.0,47.0,100.2,30.200000000000003,16
291,5005.0,-0.5,0.8,1.0,-4.1000000000000005,3.0,10.0,65.5,94.10000000000001,28.900000000000002,16
292,5022.0,0.1,0.4,1.7000000000000002,-3.7,2.8000000000000003,10.600000000000001,91.30000000000001,60.8,26.6,16
293,5039.0,0.2,0.2,2.2,-3.6,2.9000000000000004,11.3,103.89999999999999,42.7,19.9,16
294,5055.0,0.4,-0.2,2.0,-3.5,2.8000000000000003,10.700000000000001,121.30000000000001,2.7,-2.7,16
295,5072.0,-0.1,0.0,1.5,-3.9000000000000004,3.3000000000000003,10.100000000000001,119.7,-17.6,-23.700000000000003,16
296,5089.0,-0.1,0.1,1.6,-3.9000000000000004,3.8000000000000003,10.100000000000001,111.80000000000001,-10.299999999999999,-25.8,16
297,5105.0,0.2,0.30000000000000004,1.6,-3.7,4.1000000000000005,10.0,107.8,-6.0,-21.0,16
298,5122.0,0.5,0.7000000000000001,1.5,-3.4000000000000004,4.6000000000000005,9.9,102.8,-6.500000000000001,-16.700000000000003,16
299,5141.0,0.1,1.1,-0.4,-3.7,5.300000000000001,7.800000000000001,56.50000000000001,5.300000000000001,-16.200000000000003,16
300,5156.0,0.0,0.9,-0.4,-3.9000000000000004,5.1000000000000005,7.800000000000001,33.50000000000001,10.600000000000001,-15.6,16
301,5172.0,-0.5,0.6000000000000001,1.5,-4.4,4.800000000000001,9.700000000000001,-2.3,3.4,-9.600000000000001,16
302,5189.0,0.1,0.30000000000000004,3.0,-3.8000000000000003,4.5,11.200000000000001,-4.6,-27.0,-2.7,16
303,5205.0,0.8,0.0,2.9000000000000004,-3.1,4.3,11.200000000000001,0.5,-33.7,-4.300000000000001,16
304,5223.0,1.5,0.2,2.0,-2.3000000000000003,4.5,10.3,6.8,-20.1,-10.8,16
305,5247.0,1.7000000000000002,0.30000000000000004,1.3,-2.1,4.6000000000000005,9.3,8.100000000000001,15.299999999999999,-7.300000000000001,16
306,5257.0,1.7000000000000002,0.30000000000000004,1.1,-2.1,4.6000000000000005,9.3,10.4,22.8,-5.7,16
307,5272.0,1.6,0.2,0.2,-2.3000000000000003,4.5,8.4,18.4,13.900000000000002,-9.3,16
308,5289.0,1.5,-0.2,-0.7000000000000001,-2.4000000000000004,4.2,7.5,22.1,2.6,-18.200000000000003,16
309,5305.0,1.2000000000000002,-0.2,-1.3,-2.7,4.2,6.800000000000001,18.0,7.8,-22.5,16
310,5322.0,0.8,-0.4,-3.7,-3.2,4.0,4.4,14.100000000000001,14.5,-21.8,16
311,5339.0,0.6000000000000001,-0.2,-2.3000000000000003,-3.4000000000000004,4.1000000000000005,5.800000000000001,-31.9,21.8,-9.3,16
312,5355.0,1.4000000000000001,-1.0,-2.2,-2.6,3.2,5.9,-45.7,-1.6,-3.7000000000000006,16
313,5372.0,1.4000000000000001,-1.1,-2.1,-2.6,3.0,6.0,-45.3,-3.6000000000000005,-8.3,16
314,5389.0,1.3,-0.6000000000000001,-2.3000000000000003,-2.7,3.3000000000000003,5.9,-41.6,-11.6,-15.2,16
315,5405.0,0.7000000000000001,-0.30000000000000004,-2.5,-3.2,3.5,5.800000000000001,-32.1,-24.3,-12.600000000000001,16
316,5422.0,0.30000000000000004,-0.1,-2.2,-3.6,3.7,6.1000000000000005,-27.2,-36.2,-9.3,16
317,5439.0,-0.1,0.2,-1.3,-3.9000000000000004,3.9000000000000004,7.1000000000000005,-16.3,-66.5,-3.8,16
318,5455.0,0.4,-0.30000000000000004,0.1,-3.1,3.5,8.5,8.600000000000001,-76.3,-8.8,16
319,5472.0,0.0,0.5,1.0,-3.4000000000000004,4.3,9.5,46.0,-64.2,-17.400000000000002,16
320,5489.0,-0.4,0.8,1.8,-3.6,4.7,10.3,62.50000000000001,-67.8,-19.400000000000002,16
321,5506.0,-0.7000000000000001,0.9,-0.4,-3.7,5.0,8.1,52.300000000000004,-122.79999999999998,-15.6,16
322,5522.0,-1.2000000000000002,0.6000000000000001,0.5,-3.9000000000000004,4.7,9.1,6.300000000000001,-83.89999999999999,-10.4,16
323,5539.0,-1.3,0.2,1.8,-4.0,4.3,10.5,-13.399999999999999,-71.10000000000001,-2.8,16
324,5556.0,-1.3,0.0,1.3,-3.7,4.0,10.100000000000001,-30.699999999999996,-36.400000000000006,9.0,16
325,5572.0,-2.0,1.1,2.0,-4.5,5.0,10.8,-34.60000000000001,6.2,22.700000000000003,16
326,5589.0,-2.0,1.3,2.3000000000000003,-4.5,5.2,11.100000000000001,-36.2,5.6,29.1,16
327,5605.0,-1.5,1.0,3.1,-3.9000000000000004,4.9,12.100000000000001,-29.800000000000004,-8.899999999999999,30.4,16
328,5623.0,-1.5,0.8,3.5,-3.8000000000000003,4.6000000000000005,12.5,-4.4,-15.5,32.5,16
329,5639.0,-1.3,0.4,3.6,-3.6,4.3,12.600000000000001,11.5,-16.0,36.1,16
330,5655.0,-0.6000000000000001,-0.30000000000000004,2.4000000000000004,-2.9000000000000004,3.6,11.4,31.0,-9.700000000000001,42.5,16
331,5672.0,-0.5,-0.5,0.6000000000000001,-2.6,3.6,9.600000000000001,27.5,6.0,46.300000000000004,16
332,5689.0,-0.2,-0.4,0.1,-2.4000000000000004,3.8000000000000003,9.1,19.1,12.4,45.5,16
333,5705.0,0.0,-0.4,0.1,-2.1,3.8000000000000003,9.0,-0.9000000000000001,9.8,34.400000000000006,16
334,5722.0,0.2,-0.7000000000000001,0.30000000000000004,-1.9000000000000001,3.5,9.3,-13.8,-3.8,15.700000000000001,16
335,5739.0,0.0,-1.0,-0.1,-2.1,3.1,8.9,-15.399999999999999,-2.1,6.4,16
336,5755.0,-0.1,-1.1,-0.6000000000000001,-2.1,3.0,8.3,-15.399999999999999,6.300000000000001,7.200000000000001,16
337,5772.0,-0.1,-1.0,-1.8,-2.2,3.0,7.2,-18.6,25.4,16.700000000000003,16
338,5789.0,0.30000000000000004,-0.8,-2.2,-1.9000000000000001,3.1,6.800000000000001,-22.1,28.0,27.2,16
339,5805.0,0.5,-0.7000000000000001,-2.3000000000000003,-1.7000000000000002,3.3000000000000003,6.6000000000000005,-22.700000000000003,20.7,30.4,16
340,5822.0,0.6000000000000001,-0.5,-2.5,-1.6,3.4000000000000004,6.5,-29.300000000000004,-9.700000000000001,29.300000000000004,16
341,5839.0,0.30000000000000004,-0.4,-2.2,-1.7000000000000002,3.4000000000000004,6.800000000000001,-39.0,-22.3,30.9,16
342,5855.0,0.4,-0.4,-1.9000000000000001,-1.6,3.3000000000000003,7.2,-39.0,-14.300000000000002,37.800000000000004,16
343,5872.0,0.30000000000000004,-0.30000000000000004,-1.8,-1.5,3.3000000000000003,7.300000000000001,-36.8,-11.4,39.2,16
344,5889.0,0.5,0.0,-1.6,-1.3,3.6,7.5,-35.0,-9.3,39.699999999999996,16
345,5905.0,0.6000000000000001,0.30000000000000004,-1.1,-1.2000000000000002,3.7,8.1,-34.400000000000006,-0.30000000000000004,36.300000000000004,16
346,5922.0,0.30000000000000004,0.1,-0.5,-1.4000000000000001,3.5,8.6,-34.50000000000001,5.9,32.9,16
347,5939.0,0.2,0.8,0.6000000000000001,-1.6,4.1000000000000005,9.8,-36.7,12.7,28.600000000000005,16
348,5955.0,0.5,0.1,-0.2,-1.2000000000000002,3.3000000000000003,9.1,-37.2,21.1,23.2,16
349,5972.0,0.2,0.1,0.30000000000000004,-1.6,3.2,9.600000000000001,-42.3,31.6,18.0,16
350,5989.0,0.7000000000000001,-0.30000000000000004,1.4000000000000001,-1.1,2.7,10.700000000000001,-49.800000000000004,33.1,10.700000000000001,16
351,6005.0,0.6000000000000001,0.30000000000000004,2.9000000000000004,-1.4000000000000001,3.2,12.200000000000001,-53.400000000000006,16.200000000000003,-5.2,16
352,6022.0,-0.1,0.5,2.0,-2.1,3.2,11.4,-43.300000000000004,17.1,-11.3,16
353,6039.0,0.0,0.4,1.4000000000000001,-2.0,3.0,10.8,-34.60000000000001,37.400000000000006,-10.0,16
354,6055.0,0.7000000000000001,-0.6000000000000001,1.7000000000000002,-1.5,1.9000000000000001,11.100000000000001,-19.799999999999997,60.00000000000001,-19.0,16
355,6072.0,0.30000000000000004,-0.4,1.9000000000000001,-2.1,2.1,11.3,-15.6,26.5,-43.300000000000004,16
356,6089.0,-0.30000000000000004,0.0,2.2,-2.8000000000000003,2.4000000000000004,11.600000000000001,-17.9,8.899999999999999,-46.1,16
357,6105.0,-0.5,0.1,2.1,-3.0,2.5,11.600000000000001,-18.900000000000002,-13.399999999999999,-25.7,16
358,6122.0,0.4,-0.2,1.7000000000000002,-2.0,2.1,11.200000000000001,-5.6,-14.400000000000002,-3.5,16
359,6139.0,0.7000000000000001,-0.30000000000000004,1.4000000000000001,-1.6,2.0,10.9,4.1,-13.200000000000003,0.0,16
360,6155.0,0.9,-0.1,0.7000000000000001,-1.4000000000000001,2.2,10.3,20.2,-18.200000000000003,-4.4,16
361,6172.0,1.0,0.0,-0.2,-1.2000000000000002,2.4000000000000004,9.4,21.8,-33.7,-6.2,16
362,6189.0,1.1,0.1,-0.30000000000000004,-1.0,2.5,9.200000000000001,18.200000000000003,-40.4,-4.300000000000001,16
363,6205.0,1.4000000000000001,-0.1,-0.6000000000000001,-0.6000000000000001,2.4000000000000004,9.0,11.3,-46.4,-0.9000000000000001,16
364,6222.0,1.4000000000000001,-0.2,-0.8,-0.5,2.3000000000000003,8.8,10.200000000000001,-36.7,-2.3,16
365,6239.0,0.9,-0.2,-1.2000000000000002,-0.9,2.4000000000000004,8.4,17.0,-17.0,-6.0,16
366,6255.0,0.6000000000000001,-0.2,-1.4000000000000001,-1.1,2.4000000000000004,8.200000000000001,22.3,-5.7,-6.8,16
367,6272.0,0.4,-0.5,-1.9000000000000001,-1.4000000000000001,2.2,7.6000000000000005,34.2,3.3000000000000007,-8.700000000000001,16
368,6288.0,-0.2,-0.4,-2.2,-2.0,2.4000000000000004,7.2,44.7,9.899999999999999,-11.2,16
369,6305.0,-0.4,-0.4,-2.1,-2.2,2.5,7.300000000000001,48.0,9.5,-11.700000000000001,16
370,6322.0,-0.6000000000000001,0.1,-1.7000000000000002,-2.4000000000000004,3.1,7.6000000000000005,51.9,-1.7,-11.8,16
371,6339.0,-0.6000000000000001,0.4,-1.2000000000000002,-2.5,3.6,8.1,54.199999999999996,-14.0,-13.700000000000001,16
372,6356.0,-0.7000000000000001,0.30000000000000004,-0.9,-2.5,3.6,8.3,55.3,-15.399999999999999,-14.300000000000002,16
373,6372.0,-1.2000000000000002,0.5,-0.1,-3.0,4.0,9.1,59.60000000000001,-13.5,-11.000000000000002,16
374,6389.0,-1.3,0.9,0.4,-3.1,4.6000000000000005,9.5,66.4,-14.300000000000002,0.2,16
375,6405.0,-1.0,1.0,0.7000000000000001,-2.8000000000000003,4.800000000000001,9.8,68.9,-16.8,4.300000000000001,16
376,6422.0,-0.5,1.0,1.4000000000000001,-2.1,5.1000000000000005,10.5,65.4,-29.400000000000002,1.5,16
377,6439.0,-0.7000000000000001,1.1,2.0,-2.3000000000000003,5.300000000000001,11.0,52.00000000000001,-33.400000000000006,-8.2,16
378,6455.0,-1.1,1.1,2.1,-3.0,5.300000000000001,10.9,45.6,-25.5,-8.100000000000001,16
379,6472.0,-1.7000000000000002,0.8,1.7000000000000002,-3.3000000000000003,5.2,10.600000000000001,39.699999999999996,5.7,1.2000000000000002,16
380,6488.0,-1.8,0.5,1.2000000000000002,-3.5,5.0,10.100000000000001,37.300000000000004,25.900000000000002,8.3,16
381,6505.0,-2.1,1.1,0.9,-3.8000000000000003,5.7,9.700000000000001,18.5,18.900000000000002,12.8,16
382,6522.0,-2.0,1.1,1.1,-3.7,5.7,9.9,4.800000000000001,12.4,16.4,16
383,6539.0,-1.3,0.0,1.8,-3.0,4.6000000000000005,10.600000000000001,-18.0,-5.2,18.4,16
384,6555.0,-1.5,-0.9,1.8,-3.2,3.7,10.700000000000001,-23.900000000000006,-12.4,19.300000000000004,16
385,6572.0,-1.8,-1.0,1.6,-3.4000000000000004,3.5,10.5,-20.2,-6.600000000000001,23.700000000000003,16
386,6589.0,-1.4000000000000001,-1.2000000000000002,0.8,-3.0,3.3000000000000003,9.700000000000001,-8.100000000000001,8.700000000000001,32.5,16
387,6605.0,-0.9,-0.9,-0.30000000000000004,-2.5,3.6,8.6,-3.4,16.900000000000002,34.60000000000001,16
388,6622.0,-0.7000000000000001,-0.9,-0.7000000000000001,-2.0,3.5,7.9,-4.1,17.6,34.50000000000001,16
389,6639.0,-0.2,-1.0,-1.3,-1.8,3.4000000000000004,7.6000000000000005,-9.700000000000001,5.9,28.400000000000002,16
390,6655.0,-0.1,-1.1,-1.6,-1.7000000000000002,3.3000000000000003,7.300000000000001,-16.4,-8.3,19.400000000000002,16
391,6672.0,-0.30000000000000004,-1.2000000000000002,-2.0,-1.8,3.1,6.9,-21.1,-5.7,17.9,16
392,6689.0,-0.2,-1.3,-2.3000000000000003,-1.7000000000000002,3.0,6.7,-23.3,0.0,20.900000000000002,16
393,6705.0,0.0,-1.2000000000000002,-1.9000000000000001,-1.4000000000000001,3.1,7.1000000000000005,-26.5,4.0,29.1,16
394,6722.0,0.1,-0.9,-1.5,-1.3,3.3000000000000003,7.5,-25.1,-3.0,32.5,16
395,6742.0,0.1,-0.7000000000000001,-1.6,-1.2000000000000002,3.4000000000000004,7.4,-18.700000000000003,0.8,33.400000000000006,16
396,6755.0,0.0,-0.5,-1.6,-1.4000000000000001,3.6,7.4,-16.3,8.100000000000001,33.7,16
397,6772.0,-0.4,0.0,-1.7000000000000002,-1.8,4.1000000000000005,7.300000000000001,-17.6,24.599999999999998,39.699999999999996,16
398,6789.0,-0.4,0.0,-1.8,-1.4000000000000001,3.6,7.0,-20.3,29.700000000000006,43.2,16
399,6805.0,-0.2,-0.7000000000000001,-1.8,-1.6,3.3000000000000003,7.300000000000001,-34.7,27.3,40.300000000000004,16
400,6822.0,0.0,0.1,-0.2,-1.4000000000000001,4.0,8.9,-58.5,17.400000000000002,29.1,16
401,6839.0,-0.5,0.7000000000000001,0.8,-2.0,4.3,10.0,-81.7,12.299999999999999,13.399999999999999,16
402,6855.0,-0.6000000000000001,0.6000000000000001,0.9,-2.1,4.1000000000000005,10.200000000000001,-89.5,24.0,7.9,16
403,6872.0,-0.6000000000000001,0.30000000000000004,0.7000000000000001,-2.2,3.5,10.100000000000001,-99.30000000000001,58.2,10.0,16
404,6889.0,-0.2,-0.30000000000000004,0.6000000000000001,-2.1,2.5,10.0,-109.7,98.9,19.1,16
405,6905.0,-0.1,-0.30000000000000004,1.3,-2.2,2.3000000000000003,10.700000000000001,-119.1,106.80000000000001,20.1,16
406,6922.0,-0.6000000000000001,-0.30000000000000004,1.9000000000000001,-3.0,1.9000000000000001,11.4,-126.89999999999999,104.3,27.800000000000004,16
407,6939.0,-0.7000000000000001,-0.1,0.5,-3.4000000000000004,1.8,9.9,-120.10000000000001,112.7,52.80000000000001,16
408,6956.0,-0.30000000000000004,-0.30000000000000004,0.30000000000000004,-3.2,1.4000000000000001,9.700000000000001,-116.1,123.9,66.60000000000001,16
409,6972.0,1.7000000000000002,-1.8,1.4000000000000001,-1.5,-0.4,10.8,-117.60000000000001,121.10000000000001,60.8,16
410,6988.0,1.8,-1.1,3.1,-1.6,-0.1,12.4,-128.9,58.60000000000001,34.1,16
411,7005.0,0.8,-0.4,3.6,-3.4000000000000004,0.6000000000000001,13.4,-122.20000000000002,41.1,33.0,16
412,7022.0,0.1,-0.30000000000000004,4.3,-3.5,0.30000000000000004,13.700000000000001,-71.9,20.8,53.50000000000001,16
413,7039.0,0.8,-1.2000000000000002,2.9000000000000004,-2.7,-0.6000000000000001,12.3,-11.6,-28.0,62.4,16
414,7055.0,2.2,-1.4000000000000001,0.8,-1.2000000000000002,-0.7000000000000001,10.3,33.6,-39.8,47.5,16
415,7072.0,2.6,-1.8,0.2,-0.7000000000000001,-1.0,9.700000000000001,44.6,-33.6,38.0,16
416,7089.0,2.7,-1.1,-2.3000000000000003,-0.5,-0.1,7.2,36.2,-6.300000000000001,12.9,16
417,7105.0,2.4000000000000004,-0.5,-3.2,-0.9,0.5,6.300000000000001,-0.30000000000000004,24.1,-21.8,16
418,7122.0,1.4000000000000001,0.7000000000000001,-3.1,-1.9000000000000001,1.7000000000000002,6.4,-22.8,25.4,-34.60000000000001,16
419,7141.0,0.2,0.5,-1.5,-3.2,1.3,8.0,-42.60000000000001,7.200000000000001,-39.0,16
420,7155.0,1.4000000000000001,0.7000000000000001,0.5,-1.9000000000000001,1.3,9.9,-20.599999999999998,-21.500000000000004,-28.0,16
421,7172.0,1.4000000000000001,0.4,-1.2000000000000002,-1.9000000000000001,1.0,8.3,-1.8000000000000003,-28.700000000000003,-13.5,16
422,7189.0,1.3,0.2,-4.1000000000000005,-2.0,0.8,5.300000000000001,14.300000000000002,43.900000000000006,18.6,16
423,7205.0,1.6,0.4,0.0,-2.1,1.1,9.3,25.1,101.50000000000001,8.0,16
424,7222.0,1.1,0.6000000000000001,0.0,-2.6,1.4000000000000001,9.3,41.6,-7.300000000000001,-24.900000000000002,16
425,7240.0,0.6000000000000001,1.2000000000000002,0.7000000000000001,-3.0,2.1,10.0,55.2,-54.50000000000001,-36.9,16
426,7255.0,1.1,-0.2,1.5,-2.2,0.9,10.8,90.0,-123.00000000000001,-51.6,16
427,7272.0,1.9000000000000001,-0.7000000000000001,0.5,-0.9,0.7000000000000001,9.9,119.60000000000002,-142.10000000000002,-63.4,16
428,7289.0,1.4000000000000001,-0.5,0.30000000000000004,-1.2000000000000002,1.1,9.8,127.80000000000001,-139.9,-70.10000000000001,16
429,7305.0,-0.6000000000000001,0.1,0.6000000000000001,-2.8000000000000003,2.1,10.100000000000001,127.1,-139.70000000000002,-86.5,16
430,7322.0,-1.7000000000000002,0.6000000000000001,-1.1,-3.6,2.8000000000000003,8.4,57.699999999999996,-92.3,-125.4,16
431,7343.0,-3.4000000000000004,1.8,1.2000000000000002,-5.2,3.9000000000000004,10.8,-10.8,-78.80000000000001,-118.3,16
432,7355.0,-4.3,3.1,2.3000000000000003,-6.0,5.1000000000000005,12.0,-22.8,-49.300000000000004,-93.00000000000001,16
433,7372.0,-5.1000000000000005,4.2,4.5,-6.9,6.2,14.200000000000001,-20.7,5.8,-38.800000000000004,16
434,7388.0,-5.1000000000000005,3.7,4.3,-7.0,5.7,14.0,-22.1,2.9,-18.1,16
435,7405.0,-5.6000000000000005,3.9000000000000004,7.4,-7.5,5.800000000000001,17.2,-24.200000000000003,-28.500000000000004,7.500000000000001,16
436,7422.0,-0.8,-2.0,9.1,-2.5,-0.1,19.0,30.200000000000003,-62.7,2.3,16
437,7441.0,-2.8000000000000003,-2.3000000000000003,8.5,-4.3,-0.1,18.400000000000002,111.10000000000002,-59.5,-29.400000000000002,16
438,7455.0,-2.9000000000000004,-2.7,7.800000000000001,-4.3,-0.2,17.7,142.7,-25.300000000000004,-31.099999999999998,16
439,7473.0,-2.2,-1.1,4.5,-3.7,1.8,14.3,160.4,-5.6,-7.699999999999999,16
440,7488.0,-2.1,-2.1,3.5,-3.7,1.3,13.100000000000001,144.5,45.400000000000006,4.9,16
441,7505.0,-2.2,-2.1,3.8000000000000003,-3.8000000000000003,1.6,13.4,139.3,39.1,-0.8,16
442,7522.0,-0.4,-2.2,3.6,-2.2,1.9000000000000001,13.0,165.8,7.500000000000001,-19.0,16
443,7541.0,0.5,-2.4000000000000004,2.4000000000000004,-1.3,2.3000000000000003,11.600000000000001,191.39999999999998,1.4,-34.50000000000001,16
444,7556.0,-0.5,-2.6,1.2000000000000002,-2.3000000000000003,2.4000000000000004,10.200000000000001,203.29999999999998,0.30000000000000004,-28.400000000000002,16
445,7572.0,-0.7000000000000001,-3.4000000000000004,-0.4,-2.6,2.2,8.200000000000001,223.2,19.6,-14.900000000000002,16
446,7588.0,1.6,-3.0,-0.6000000000000001,-0.4,3.2,7.5,225.70000000000002,18.4,-22.2,16
447,7605.0,2.6,-3.3000000000000003,-0.8,0.6000000000000001,2.8000000000000003,6.0,220.10000000000002,19.300000000000004,-28.700000000000003,16
448,7622.0,3.4000000000000004,-4.5,-2.5,1.2000000000000002,2.5,4.800000000000001,210.7,38.800000000000004,-46.1,16
449,7642.0,1.2000000000000002,-3.8000000000000003,-2.8000000000000003,-1.4000000000000001,3.5,4.0,179.2,102.60000000000001,-92.3,16
450,7656.0,0.1,-2.1,-2.3000000000000003,-2.9000000000000004,5.5,3.9000000000000004,143.8,156.70000000000002,-65.5,16
451,7672.0,1.5,-1.4000000000000001,-1.5,-1.8,6.300000000000001,4.4,127.19999999999999,179.8,-49.800000000000004,16
452,7688.0,2.4000000000000004,-1.7000000000000002,-0.4,-1.4000000000000001,6.1000000000000005,5.0,101.80000000000001,198.3,-51.4,16
453,7706.0,1.1,-1.5,0.8,-3.2,6.4,5.6000000000000005,97.89999999999999,201.60000000000002,-68.1,16
454,7722.0,0.7000000000000001,-1.4000000000000001,0.9,-3.9000000000000004,6.5,5.4,102.8,200.4,-65.8,16
455,7742.0,2.1,-1.2000000000000002,0.4,-2.9000000000000004,6.7,4.3,109.00000000000001,184.1,-64.10000000000001,16
456,7755.0,-0.4,-0.5,-0.1,-5.800000000000001,7.5,3.3000000000000003,107.9,165.9,-80.4,16
457,7772.0,-0.6000000000000001,-0.30000000000000004,0.7000000000000001,-6.2,7.6000000000000005,3.8000000000000003,106.80000000000001,171.60000000000002,-70.9,16
458,7789.0,1.6,-0.7000000000000001,0.2,-4.3,7.300000000000001,2.7,103.7,162.0,-40.4,16
459,7805.0,2.2,-0.8,0.0,-3.9000000000000004,7.1000000000000005,1.8,94.80000000000001,152.6,-35.4,16
460,7822.0,1.7000000000000002,-0.5,0.2,-4.4,7.5,1.5,93.49999999999999,151.0,-31.400000000000002,16
461,7841.0,2.3000000000000003,-0.8,-0.4,-3.9000000000000004,7.2,0.6000000000000001,102.8,137.4,-11.2,16
462,7856.0,3.4000000000000004,-0.7000000000000001,-2.3000000000000003,-2.9000000000000004,7.300000000000001,-1.9000000000000001,106.20000000000002,121.0,-3.4,16
463,7872.0,2.4000000000000004,0.0,-2.9000000000000004,-3.9000000000000004,8.0,-3.0,99.30000000000001,88.9,-23.800000000000004,16
464,7888.0,1.8,-0.1,-3.5,-4.5,7.800000000000001,-3.8000000000000003,92.3,55.0,-33.6,16
465,7905.0,0.0,1.0,-4.0,-6.4,8.8,-4.6000000000000005,59.1,17.1,-37.300000000000004,16
466,7922.0,1.6,1.1,-3.1,-4.9,8.8,-3.8000000000000003,17.1,0.9000000000000001,-18.5,16
467,7939.0,2.5,0.6000000000000001,-3.0,-4.0,8.4,-3.7,-3.9,5.500000000000001,-14.800000000000002,16
468,7955.0,2.0,-0.30000000000000004,-1.6,-4.6000000000000005,7.4,-2.2,-40.6,19.1,-16.700000000000003,16
469,7972.0,0.7000000000000001,-1.0,0.2,-5.9,6.7,-0.30000000000000004,-48.2,2.7,-9.8,16
470,7988.0,0.8,-1.3,0.4,-5.7,6.300000000000001,-0.1,-40.5,-11.6,-0.9000000000000001,16
471,8005.0,3.1,-2.2,0.30000000000000004,-3.4000000000000004,5.5,0.0,-22.3,-20.400000000000002,8.100000000000001,16
472,8024.0,3.3000000000000003,-2.8000000000000003,0.6000000000000001,-3.2,4.800000000000001,0.30000000000000004,-12.4,-24.900000000000002,-8.5,16
473,8039.0,1.4000000000000001,-2.6,1.1,-5.1000000000000005,5.0,0.9,-6.699999999999999,-34.300000000000004,-10.700000000000001,16
474,8055.0,1.5,-2.5,0.9,-5.0,5.1000000000000005,0.8,-3.7000000000000006,-34.0,-2.4000000000000004,16
475,8072.0,2.6,-2.8000000000000003,0.9,-3.9000000000000004,4.800000000000001,0.9,-0.8,-20.599999999999998,8.3,16
476,8088.0,2.0,-2.5,1.1,-4.4,5.1000000000000005,1.1,6.1000000000000005,-20.7,7.200000000000001,16
477,8105.0,1.8,-2.4000000000000004,1.0,-4.6000000000000005,5.2,1.0,12.9,-23.3,9.700000000000001,16
478,8123.0,1.9000000000000001,-1.6,0.2,-4.5,6.0,0.2,29.300000000000004,-21.1,13.900000000000002,16
479,8139.0,0.9,-1.1,-1.0,-5.4,6.5,-1.0,28.3,-23.6,7.400000000000001,16
480,8155.0,0.1,-0.5,-1.3,-6.2,7.1000000000000005,-1.3,17.6,-22.4,7.6,16
481,8172.0,-0.1,0.5,-0.7000000000000001,-6.4,8.200000000000001,-0.7000000000000001,-9.8,-13.8,16.900000000000002,16
482,8189.0,0.30000000000000004,1.4000000000000001,0.5,-6.0,9.1,0.5,-21.6,-5.2,22.2,16
483,8205.0,0.0,2.0,0.8,-6.2,9.700000000000001,0.9,-19.400000000000002,2.5,22.1,16
484,8222.0,-0.1,2.8000000000000003,0.6000000000000001,-6.300000000000001,10.600000000000001,0.7000000000000001,-6.1000000000000005,15.299999999999999,17.7,16
485,8239.0,0.1,2.7,-0.2,-6.0,10.5,-0.1,4.4,6.300000000000001,2.0,16
486,8255.0,-2.2,3.2,-0.4,-8.3,11.0,-0.4,7.1000000000000005,5.7,-9.8,16
487,8272.0,-3.3000000000000003,3.8000000000000003,0.2,-9.4,11.700000000000001,0.2,10.1,13.900000000000002,-4.9,16
488,8288.0,-3.2,3.6,-0.1,-9.4,11.5,-0.2,27.700000000000003,16.900000000000002,9.700000000000001,16
489,8305.0,-2.4000000000000004,3.1,-1.7000000000000002,-8.5,11.100000000000001,-2.0,31.5,16.8,12.8,16
490,8322.0,-1.4000000000000001,2.5,-2.2,-7.6000000000000005,10.4,-2.5,18.1,14.200000000000001,6.9,16
491,8339.0,-1.6,1.5,-1.4000000000000001,-7.800000000000001,9.5,-1.7000000000000002,-33.7,-0.9000000000000001,-16.8,16
492,8355.0,-2.5,0.8,1.9000000000000001,-8.8,8.700000000000001,1.8,-77.20000000000002,6.2,-14.400000000000002,16
493,8372.0,-2.8000000000000003,0.1,3.4000000000000004,-9.1,8.0,3.5,-79.1,13.000000000000002,-4.300000000000001,16
494,8389.0,-2.1,-1.0,4.1000000000000005,-8.4,6.9,4.3,-43.2,13.100000000000001,20.5,16
495,8405.0,-0.1,-1.9000000000000001,2.1,-6.300000000000001,6.1000000000000005,2.3000000000000003,11.5,8.0,28.700000000000003,16
496,8422.0,0.5,-2.1,0.5,-5.4,6.0,-0.9,27.5,3.3000000000000007,23.700000000000003,16
497,8439.0,0.6000000000000001,-1.8,-2.4000000000000004,-5.5,6.300000000000001,-2.3000000000000003,18.5,-6.600000000000001,10.200000000000001,16
498,8455.0,0.7000000000000001,-1.3,-3.3000000000000003,-5.300000000000001,6.800000000000001,-3.2,-30.4,-1.0,13.900000000000002,16
499,8472.0,1.7000000000000002,-1.6,-1.9000000000000001,-4.3,6.4,-1.6,-76.3,9.700000000000001,22.8,16
500,8488.0,1.9000000000000001,-2.0,-0.9,-4.1000000000000005,6.1000000000000005,-0.5,-88.8,12.4,23.700000000000003,16
501,8505.0,1.7000000000000002,-2.3000000000000003,0.9,-4.2,5.800000000000001,1.5,-86.3,12.8,26.9,16
502,8522.0,2.2,-2.5,1.4000000000000001,-3.6,5.6000000000000005,2.2,-55.400000000000006,3.3000000000000007,30.4,16
503,8539.0,2.6,-2.7,1.1,-3.2,5.4,2.0,-35.2,-6.1000000000000005,29.400000000000002,16
504,8555.0,2.6,-2.7,-0.30000000000000004,-3.0,5.4,0.6000000000000001,-3.5,-20.5,23.2,16
505,8572.0,2.2,-2.8000000000000003,-1.7000000000000002,-3.3000000000000003,5.4,-0.8,8.8,-28.800000000000004,21.900000000000002,16
506,8588.0,2.0,-2.7,-2.1,-3.6,5.7,-1.5,8.3,-30.1,23.900000000000006,16
507,8605.0,1.9000000000000001,-2.4000000000000004,-2.7,-3.5,5.800000000000001,-1.7000000000000002,2.7,-38.1,30.000000000000004,16
508,8622.0,1.8,-2.3000000000000003,-3.2,-3.5,5.9,-2.1,-5.0,-50.5,32.9,16
509,8638.0,1.4000000000000001,-2.2,-3.7,-3.7,6.1000000000000005,-2.5,-14.700000000000001,-69.20000000000002,35.0,16
510,8655.0,1.3,-2.2,-3.9000000000000004,-3.8000000000000003,6.1000000000000005,-2.7,-20.900000000000002,-79.1,40.300000000000004,16
511,8672.0,1.8,-2.3000000000000003,-4.0,-3.1,6.1000000000000005,-2.5,-35.599999999999994,-102.8,51.800000000000004,16
512,8688.0,2.4000000000000004,-2.6,-3.1,-2.2,5.9,-1.3,-44.5,-122.0,62.1,16
513,8705.0,2.8000000000000003,-2.0,-2.9000000000000004,-1.6,6.5,-1.0,-44.7,-132.2,67.8,16
514,8722.0,3.7,-2.7,-3.1,-0.4,5.800000000000001,-0.8,-50.3,-167.50000000000003,78.9,16
515,8738.0,3.1,-2.7,-2.9000000000000004,-0.5,5.800000000000001,-0.2,-54.800000000000004,-194.5,95.80000000000001,16
516,8755.0,2.5,-3.0,-2.6,-0.8,5.6000000000000005,0.2,-53.10000000000001,-201.0,109.10000000000001,16
517,8774.0,3.1,-4.4,-3.7,0.30000000000000004,4.3,-0.5,-51.70000000000001,-213.0,148.20000000000002,16
518,8788.0,6.2,-5.2,-4.7,4.3,3.4000000000000004,-1.1,-83.2,-225.60000000000002,162.7,16
519,8805.0,6.300000000000001,-5.300000000000001,-4.5,4.9,2.9000000000000004,0.30000000000000004,-107.9,-235.3,154.29999999999998,16
520,8822.0,5.2,-6.2,-2.8000000000000003,4.5,2.2,1.5,-150.1,-259.70000000000005,149.4,16
521,8838.0,4.4,-6.2,-1.2000000000000002,4.6000000000000005,2.0,3.4000000000000004,-166.00000000000003,-275.0,189.8,16
522,8855.0,9.5,-8.3,-1.1,10.9,-0.6000000000000001,4.0,-172.00000000000003,-297.8,223.1,16
523,8872.0,11.9,-8.9,-1.0,13.9,-1.4000000000000001,4.3,-177.4,-322.90000000000003,205.4,16
524,8888.0,9.9,-7.6000000000000005,0.1,13.0,-0.7000000000000001,5.5,-184.1,-371.6000000000001,151.7,16
525,8905.0,8.5,-7.800000000000001,1.3,12.8,-1.4000000000000001,6.6000000000000005,-179.6,-364.50000000000006,152.4,16
526,8922.0,4.7,-6.300000000000001,0.9,9.4,-0.2,6.2,-177.8,-346.8,182.4,16
527,8939.0,10.8,-7.6000000000000005,2.3000000000000003,16.6,-2.5,7.5,-232.1,-242.50000000000003,268.20000000000005,16
528,8955.0,10.200000000000001,-5.7,9.1,16.8,-1.5,14.200000000000001,-251.9,-199.20000000000002,216.90000000000003,16
529,8972.0,7.4,-4.9,9.600000000000001,14.3,-1.2000000000000002,14.700000000000001,-223.2,-194.90000000000003,194.10000000000002,16
530,8989.0,3.4000000000000004,-3.5,6.1000000000000005,10.9,-0.6000000000000001,11.100000000000001,-152.5,-149.20000000000002,191.70000000000002,16
531,9005.0,2.0,-2.8000000000000003,2.0,9.8,-0.7000000000000001,6.800000000000001,-140.10000000000002,-79.6,212.1,16
532,9022.0,2.0,-2.3000000000000003,1.3,10.5,-0.4,6.800000000000001,-182.70000000000002,-41.6,217.80000000000004,16
533,9038.0,2.1,-0.8,3.1,10.3,-0.1,8.0,-207.90000000000003,-52.2,214.70000000000002,16
534,9055.0,1.2000000000000002,-0.5,5.2,9.5,-0.7000000000000001,9.9,-228.5,-98.50000000000001,204.5,16
535,9073.0,1.0,-0.1,5.7,9.5,-1.2000000000000002,10.0,-197.70000000000002,-160.10000000000002,190.9,16
536,9088.0,1.2000000000000002,0.2,4.9,9.8,-1.4000000000000001,8.8,-172.6,-182.8,181.2,16
537,9105.0,1.3,1.1,2.6,10.100000000000001,-1.0,5.9,-141.4,-191.9,159.1,16
538,9133.0,2.1,2.0,1.7000000000000002,10.9,-1.1,4.1000000000000005,-176.3,-143.1,144.0,16
539,9141.0,2.7,1.8,2.1,11.5,-1.6,4.2,-204.4,-138.20000000000002,143.70000000000002,16
540,9155.0,3.7,1.4000000000000001,3.0,12.5,-2.2,4.800000000000001,-233.2,-135.3,141.70000000000002,16
541,9172.0,5.7,0.1,7.6000000000000005,14.5,-4.1000000000000005,8.6,-265.1,-128.70000000000002,123.8,16
542,9188.0,5.300000000000001,0.1,10.3,14.0,-4.2,11.0,-253.40000000000003,-123.30000000000003,112.20000000000002,16
543,9205.0,4.1000000000000005,0.30000000000000004,13.9,12.700000000000001,-4.3,14.100000000000001,-163.10000000000002,-118.40000000000002,86.1,16
544,9222.0,2.1,2.5,13.200000000000001,10.600000000000001,-2.3000000000000003,13.0,-11.6,-123.9,70.5,16
545,9238.0,2.6,2.5,7.6000000000000005,11.0,-2.6,7.300000000000001,102.89999999999999,-138.50000000000003,71.8,16
546,9255.0,2.7,3.1,5.5,11.0,-2.0,5.1000000000000005,121.70000000000002,-144.60000000000002,72.9,16
547,9272.0,4.6000000000000005,2.0,1.8,12.8,-3.3000000000000003,1.2000000000000002,105.80000000000001,-143.70000000000002,89.30000000000001,16
548,9288.0,7.300000000000001,0.5,1.1,15.3,-5.1000000000000005,0.30000000000000004,60.2,-104.00000000000001,87.80000000000001,16
549,9305.0,7.9,0.1,1.7000000000000002,15.9,-5.6000000000000005,0.9,40.300000000000004,-88.20000000000002,76.5,16
550,9322.0,9.1,-0.6000000000000001,3.5,17.0,-6.5,2.5,23.400000000000002,-82.10000000000001,39.9,16
551,9338.0,9.200000000000001,-1.1,4.4,17.1,-7.1000000000000005,3.2,36.5,-110.4,-16.6,16
552,9355.0,8.6,-1.0,4.6000000000000005,16.6,-6.9,3.3000000000000003,50.1,-129.60000000000002,-40.5,16
553,9372.0,8.1,-0.8,4.7,16.2,-6.5,3.2,98.0,-151.3,-60.00000000000001,16
554,9388.0,8.0,0.5,2.5,16.2,-5.1000000000000005,0.9,156.3,-150.5,-68.4,16
555,9405.0,7.800000000000001,0.9,0.9,15.9,-4.2,-2.0,166.70000000000002,-144.3,-81.2,16
556,9422.0,6.9,1.5,-0.9,15.4,-3.8000000000000003,-2.6,141.4,-119.7,-121.70000000000002,16
557,9439.0,5.7,1.0,0.2,14.5,-4.0,-1.6,103.60000000000001,-85.69999999999999,-167.0,16
558,9455.0,4.1000000000000005,-0.2,0.1,13.200000000000001,-4.6000000000000005,-1.7000000000000002,106.4,-36.2,-206.80000000000004,16
559,9472.0,3.2,-1.1,-0.9,12.4,-5.2,-2.6,111.9,5.4,-219.9,16
560,9488.0,1.4000000000000001,-2.6,-2.1,11.100000000000001,-6.0,-3.5,111.20000000000002,92.3,-238.1,16
561,9505.0,0.9,-4.4,-2.4000000000000004,10.9,-7.0,-3.2,108.3,143.6,-255.60000000000002,16
562,9522.0,0.8,-5.300000000000001,-2.5,10.9,-7.5,-3.0,109.60000000000001,151.1,-269.29999999999995,16
563,9538.0,-0.30000000000000004,-7.4,-2.7,9.9,-8.6,-2.7,117.20000000000002,138.20000000000002,-299.70000000000005,16
564,9555.0,-3.8000000000000003,-7.800000000000001,-3.1,6.5,-8.0,-2.7,128.3,96.60000000000001,-300.70000000000005,16
565,9572.0,-4.800000000000001,-7.9,-3.6,5.5,-7.7,-3.0,127.9,64.30000000000001,-282.2,16
566,9588.0,-6.0,-7.800000000000001,-3.7,4.2,-6.800000000000001,-3.1,108.7,4.4,-228.6,16
567,9605.0,-6.0,-7.6000000000000005,-3.1,4.1000000000000005,-6.0,-2.7,80.60000000000001,-45.6,-160.8,16
568,9622.0,-4.7,-7.7,-2.5,5.2,-5.7,-2.4000000000000004,50.400000000000006,-83.10000000000001,-102.5,16
569,9638.0,-3.8000000000000003,-8.1,-2.1,6.0,-6.0,-2.3000000000000003,35.1,-92.39999999999999,-82.0,16
570,9655.0,-2.9000000000000004,-8.8,-0.8,6.9,-6.6000000000000005,-1.3,13.5,-88.7,-56.10000000000001,16
571,9672.0,-2.7,-9.5,-0.4,7.0,-7.2,-1.1,13.399999999999999,-55.8,-45.0,16
572,9688.0,-3.6,-9.0,-0.6000000000000001,6.1000000000000005,-6.7,-1.4000000000000001,15.899999999999999,-27.099999999999998,-42.400000000000006,16
573,9705.0,-5.4,-8.1,-1.0,4.2,-5.7,-1.7000000000000002,17.300000000000004,33.800000000000004,-26.9,16
574,9722.0,-5.9,-7.7,-1.6,3.6,-5.4,-2.2,11.2,61.9,-1.9,16
575,9739.0,-6.300000000000001,-7.6000000000000005,-1.7000000000000002,2.9000000000000004,-5.1000000000000005,-2.3000000000000003,6.2,61.199999999999996,10.700000000000001,16
576,9755.0,-6.9,-7.2,-2.2,2.6,-5.1000000000000005,-2.5,-8.0,38.0,44.2,16
577,9772.0,-6.800000000000001,-7.2,-2.4000000000000004,2.8000000000000003,-5.4,-2.7,-33.0,0.9000000000000001,95.20000000000002,16
578,9789.0,-6.300000000000001,-7.2,-2.1,4.1000000000000005,-6.2,-2.1,-47.3,-18.5,125.30000000000001,16
579,9805.0,-4.4,-7.5,-1.3,5.1000000000000005,-6.6000000000000005,-1.7000000000000002,-68.2,-46.50000000000001,183.5,16
580,9822.0,-2.3000000000000003,-7.1000000000000005,-0.6000000000000001,7.300000000000001,-6.9,-1.1,-73.7,-43.70000000000001,227.4,16
581,9838.0,0.4,-6.0,0.5,10.0,-6.7,-0.2,-67.5,-22.3,235.4,16
582,9855.0,0.9,-5.2,0.8,10.4,-6.2,0.1,-59.00000000000001,-11.8,224.2,16
583,9872.0,0.5,-3.3000000000000003,0.30000000000000004,10.0,-5.0,-0.4,-41.7,12.200000000000001,197.6,16
584,9888.0,0.7000000000000001,-1.7000000000000002,-0.6000000000000001,10.0,-4.1000000000000005,-1.2000000000000002,-42.900000000000006,43.1,185.7,16
585,9905.0,0.8,-1.0,-0.8,10.100000000000001,-3.6,-1.4000000000000001,-51.2,56.800000000000004,182.9,16
586,9922.0,1.2000000000000002,0.1,-0.9,10.3,-3.1,-1.3,-76.1,76.3,179.8,16
587,9938.0,1.8,0.5,-0.30000000000000004,10.700000000000001,-3.2,-0.5,-102.3,75.7,172.4,16
588,9955.0,1.9000000000000001,0.7000000000000001,0.1,10.700000000000001,-3.2,-0.2,-113.89999999999999,68.9,166.10000000000002,16
589,9972.0,2.1,1.1,0.9,10.700000000000001,-3.3000000000000003,0.6000000000000001,-132.5,53.10000000000001,150.70000000000002,16
590,9988.0,2.7,1.7000000000000002,2.4000000000000004,11.200000000000001,-3.0,2.0,-135.9,33.1,130.70000000000002,16
591,10005.0,2.9000000000000004,2.1,2.5,10.9,-2.6,2.0,-130.9,22.1,117.60000000000001,16
592,10022.0,2.7,2.4000000000000004,2.8000000000000003,10.9,-2.7,2.3000000000000003,-119.30000000000003,18.200000000000003,98.9,16
593,10038.0,2.7,2.0,2.1,10.8,-3.4000000000000004,1.4000000000000001,-113.5,20.599999999999998,87.80000000000001,16
594,10055.0,2.7,1.9000000000000001,2.1,10.600000000000001,-3.7,1.3,-124.0,28.200000000000003,88.3,16
595,10072.0,3.0,2.0,2.5,10.8,-3.7,1.6,-130.5,29.700000000000006,92.0,16
596,10088.0,4.2,2.3000000000000003,3.3000000000000003,11.9,-3.6,2.2,-137.5,31.799999999999997,100.6,16
597,10105.0,6.4,1.9000000000000001,3.8000000000000003,13.9,-4.1000000000000005,2.6,-135.1,38.50000000000001,106.30000000000001,16
598,10125.0,8.3,2.0,4.7,15.700000000000001,-4.3,3.4000000000000004,-128.70000000000002,45.7,104.10000000000001,16
599,10138.0,8.8,2.5,5.9,16.1,-3.8000000000000003,4.5,-117.60000000000001,38.300000000000004,100.80000000000001,16
600,10155.0,9.5,4.6000000000000005,8.6,16.7,-1.9000000000000001,7.1000000000000005,-65.89999999999999,-15.8,95.20000000000002,16
601,10172.0,10.700000000000001,5.2,9.200000000000001,19.0,-1.2000000000000002,7.4,-28.0,-54.699999999999996,90.5,16
602,10188.0,12.9,5.7,8.4,20.0,-1.0,6.7,42.5,-114.2,52.1,16
603,10205.0,13.9,5.5,6.6000000000000005,21.0,-1.2000000000000002,4.9,80.50000000000001,-112.9,-12.299999999999999,16
604,10222.0,13.200000000000001,3.9000000000000004,4.6000000000000005,20.5,-2.6,2.9000000000000004,86.00000000000001,-53.0,-88.10000000000001,16
605,10239.0,12.100000000000001,3.1,3.8000000000000003,19.6,-3.3000000000000003,2.2,81.3,-9.600000000000001,-122.69999999999999,16
606,10255.0,8.700000000000001,2.1,2.3000000000000003,16.6,-3.9000000000000004,1.1,66.5,67.2,-174.3,16
607,10272.0,6.1000000000000005,1.3,1.4000000000000001,14.5,-4.2,0.5,47.80000000000001,114.10000000000001,-194.3,16
608,10289.0,5.2,1.0,1.3,13.8,-4.2,0.7000000000000001,39.699999999999996,124.90000000000002,-199.0,16
609,10307.0,4.5,0.4,2.1,13.5,-4.2,1.9000000000000001,31.5,128.3,-205.6,16
610,10322.0,4.5,-0.8,3.1,13.8,-4.7,3.4000000000000004,43.6,133.3,-213.60000000000002,16
611,10339.0,4.4,-1.3,3.2,13.9,-4.9,3.8000000000000003,56.50000000000001,139.9,-219.20000000000002,16
612,10355.0,4.1000000000000005,-2.7,2.5,13.8,-5.5,3.7,81.90000000000002,154.9,-231.5,16
613,10372.0,3.4000000000000004,-4.1000000000000005,1.8,13.3,-6.1000000000000005,3.7,98.10000000000001,171.8,-234.2,16
614,10389.0,3.4000000000000004,-5.0,1.9000000000000001,13.3,-6.800000000000001,4.7,104.00000000000001,182.60000000000002,-229.8,16
615,10405.0,3.6,-6.1000000000000005,2.0,13.5,-6.9,4.9,119.49999999999999,206.6,-218.00000000000003,16
616,10422.0,4.1000000000000005,-7.2,2.1,13.700000000000001,-7.2,5.9,135.6,255.1,-208.8,16
617,10438.0,3.4000000000000004,-6.2,1.4000000000000001,12.700000000000001,-5.4,6.0,148.0,236.70000000000005,-197.6,16
618,10455.0,3.5,-8.8,-0.7000000000000001,12.5,-7.6000000000000005,4.2,155.20000000000002,234.2,-192.40000000000003,16
619,10472.0,3.1,-10.0,-2.1,11.600000000000001,-8.1,3.5,148.5,248.20000000000002,-198.20000000000002,16
620,10488.0,1.6,-7.800000000000001,-1.5,9.4,-5.0,4.7,132.9,257.0,-184.9,16
621,10505.0,2.1,-8.3,-1.5,9.700000000000001,-5.300000000000001,4.9,124.39999999999999,254.2,-173.5,16
622,10522.0,2.0,-8.1,-2.9000000000000004,8.8,-4.5,4.0,104.3,254.39999999999998,-159.2,16
623,10539.0,0.30000000000000004,-7.1000000000000005,-2.5,6.300000000000001,-3.0,4.9,69.4,245.59999999999997,-140.9,16
624,10555.0,0.2,-7.0,-2.6,5.7,-2.8000000000000003,4.9,54.9,237.70000000000005,-124.3,16
625,10572.0,0.5,-6.800000000000001,-2.1,5.4,-2.3000000000000003,5.800000000000001,31.0,205.0,-93.49999999999999,16
626,10588.0,0.6000000000000001,-5.4,-3.3000000000000003,4.800000000000001,-0.8,4.800000000000001,25.7,180.29999999999998,-64.80000000000001,16
627,10606.0,-0.1,-4.5,-3.9000000000000004,3.3000000000000003,-0.2,3.7,25.900000000000002,177.3,-23.800000000000004,16
628,10622.0,-0.30000000000000004,-5.0,-4.800000000000001,3.2,-0.30000000000000004,3.5,20.599999999999998,169.0,-8.700000000000001,16
629,10639.0,0.30000000000000004,-4.6000000000000005,-3.9000000000000004,3.3000000000000003,0.1,4.5,6.600000000000001,132.4,-0.5,16
630,10655.0,0.0,-3.6,-2.3000000000000003,2.7,1.1,6.2,9.4,102.8,2.8,16
631,10672.0,-0.1,-2.5,-2.2,2.5,2.2,6.300000000000001,20.1,87.3,10.8,16
632,10688.0,0.5,-2.4000000000000004,-4.5,2.9000000000000004,2.3000000000000003,4.0,30.699999999999996,75.3,34.1,16
633,10705.0,-0.1,-0.8,-5.2,2.2,3.9000000000000004,3.3000000000000003,2.7,54.1,53.300000000000004,16
634,10722.0,0.30000000000000004,-0.7000000000000001,-5.300000000000001,2.6,3.9000000000000004,3.2,-16.3,36.1,66.80000000000001,16
635,10738.0,1.3,-1.2000000000000002,-5.6000000000000005,3.8000000000000003,3.3000000000000003,2.9000000000000004,-54.4,4.6,81.50000000000001,16
636,10755.0,2.7,-2.7,-4.800000000000001,5.2,1.5,3.8000000000000003,-68.60000000000001,28.200000000000003,70.7,16
637,10772.0,2.3000000000000003,-3.3000000000000003,-3.7,3.9000000000000004,0.9,6.7,-59.80000000000001,43.800000000000004,51.6,16
638,10789.0,0.6000000000000001,-2.0,-1.3,3.0,1.9000000000000001,7.4,-17.6,33.0,6.699999999999999,16
639,10805.0,-0.7000000000000001,-0.7000000000000001,-3.3000000000000003,1.7000000000000002,3.3000000000000003,5.4,28.800000000000004,-2.5,-16.200000000000003,16
640,10822.0,0.30000000000000004,-0.2,-4.7,2.7,3.9000000000000004,3.8000000000000003,32.0,-17.9,-15.6,16
641,10838.0,0.4,-0.7000000000000001,-4.5,2.8000000000000003,3.4000000000000004,4.0,25.0,-12.5,-9.0,16
642,10855.0,0.5,-0.7000000000000001,-3.8000000000000003,2.9000000000000004,3.5,4.6000000000000005,6.1000000000000005,6.300000000000001,0.1,16
643,10872.0,0.4,0.5,-3.3000000000000003,2.7,4.7,5.1000000000000005,1.7,33.800000000000004,-10.700000000000001,16
644,10888.0,-0.30000000000000004,0.9,-2.8000000000000003,2.0,5.0,5.6000000000000005,2.5,37.7,-23.5,16
645,10905.0,-1.3,0.5,-2.7,0.8,4.800000000000001,5.800000000000001,-0.1,26.300000000000004,-51.300000000000004,16
646,10924.0,-1.5,0.8,-3.0,0.4,5.1000000000000005,5.4,-7.500000000000001,61.199999999999996,-62.4,16
647,10939.0,-0.30000000000000004,0.6000000000000001,-2.7,1.3,4.800000000000001,5.800000000000001,-17.5,116.6,-66.2,16
648,10956.0,0.1,-0.8,-2.0,1.1,3.4000000000000004,6.6000000000000005,-29.0,174.00000000000003,-86.5,16
649,10972.0,-0.9,-1.1,-3.2,-0.4,3.1,5.5,-37.0,150.4,-61.199999999999996,16
650,10988.0,-1.5,0.1,-1.0,-4.7,7.1000000000000005,12.100000000000001,-40.9,144.70000000000002,-39.50000000000001,16
651,11005.0,-3.9000000000000004,0.5,3.4000000000000004,-4.0,4.4,12.200000000000001,-81.50000000000001,23.2,20.3,16
652,11022.0,-2.1,0.30000000000000004,3.4000000000000004,-2.1,3.8000000000000003,12.3,-91.30000000000001,28.3,18.1,16
653,11038.0,-0.8,1.3,3.3000000000000003,-1.0,4.7,12.4,-42.1,69.80000000000001,22.5,16
654,11055.0,-1.8,1.6,3.4000000000000004,-2.1,5.0,12.5,-24.900000000000002,48.9,30.9,16
655,11072.0,-1.5,0.4,2.7,-1.6,3.7,11.9,-26.700000000000003,-52.1,39.1,16
656,11088.0,-0.6000000000000001,0.7000000000000001,3.9000000000000004,-0.5,4.0,13.0,-18.1,-96.5,23.099999999999998,16
657,11106.0,-0.7000000000000001,0.4,1.9000000000000001,-0.4,3.7,11.100000000000001,-8.700000000000001,-89.10000000000001,16.4,16
658,11123.0,-2.8000000000000003,0.9,2.6,-2.4000000000000004,4.1000000000000005,11.8,-6.4,-15.000000000000002,15.899999999999999,16
659,11138.0,-2.9000000000000004,1.7000000000000002,0.4,-2.5,4.9,9.600000000000001,-17.9,5.1000000000000005,41.800000000000004,16
660,11156.0,-2.0,1.3,0.7000000000000001,-0.6000000000000001,3.7,11.0,-17.0,43.4,61.50000000000001,16
661,11172.0,0.1,-0.4,3.5,0.4,2.7,12.700000000000001,-24.3,27.700000000000003,61.39999999999999,16
662,11188.0,1.0,-0.30000000000000004,1.1,1.3,2.7,10.4,-16.4,5.4,40.9,16
663,11205.0,1.4000000000000001,-1.0,1.4000000000000001,1.8,1.7000000000000002,11.200000000000001,0.5,24.1,29.400000000000002,16
664,11222.0,0.8,-1.0,1.5,1.1,2.0,10.8,23.099999999999998,8.100000000000001,7.300000000000001,16
665,11243.0,-0.5,-0.30000000000000004,1.1,-0.2,2.9000000000000004,10.4,52.300000000000004,3.9,2.0,16
666,11255.0,-0.1,-0.6000000000000001,0.0,0.30000000000000004,2.8000000000000003,9.200000000000001,72.9,6.500000000000001,12.8,16
667,11272.0,0.2,-0.7000000000000001,-0.6000000000000001,0.5,2.8000000000000003,8.6,80.0,12.4,15.100000000000001,16
668,11288.0,0.4,-0.7000000000000001,-1.1,0.7000000000000001,3.1,8.0,85.69999999999999,31.6,16.8,16
669,11305.0,0.4,-0.6000000000000001,-1.5,0.5,3.4000000000000004,7.4,81.4,52.1,14.200000000000001,16
670,11322.0,0.0,-0.5,-1.6,0.0,3.6,7.2,77.3,61.199999999999996,13.200000000000003,16
671,11338.0,-0.30000000000000004,-0.5,-1.5,-0.5,3.8000000000000003,7.2,67.9,90.1,7.8,16
672,11355.0,-0.2,-0.9,-0.5,-0.7000000000000001,3.7,8.1,78.7,119.30000000000003,9.2,16
673,11372.0,-0.9,0.0,2.1,-1.7000000000000002,5.6000000000000005,8.700000000000001,96.9,94.5,8.2,16
674,11388.0,-0.1,-0.4,-1.0,-0.8,4.7,7.4,113.89999999999999,4.9,8.700000000000001,16
675,11405.0,0.7000000000000001,0.1,-1.3,0.1,5.4,6.800000000000001,102.2,-28.400000000000002,-7.300000000000001,16
676,11422.0,0.6000000000000001,0.5,-2.1,0.0,6.0,6.0,62.4,-32.0,-9.899999999999999,16
677,11442.0,1.1,-0.30000000000000004,-0.2,0.6000000000000001,5.300000000000001,7.800000000000001,9.899999999999999,-6.4,-7.300000000000001,16
678,11461.0,0.7000000000000001,0.1,0.6000000000000001,0.2,5.7,8.6,-5.0,13.5,-12.0,16
679,11472.0,1.1,1.1,1.9000000000000001,0.5,6.7,9.9,-9.700000000000001,45.9,-9.2,16
680,11488.0,1.8,0.30000000000000004,2.2,1.1,5.9,10.200000000000001,-10.4,32.300000000000004,-12.100000000000001,16
681,11505.0,1.3,0.4,1.2000000000000002,0.5,6.0,9.3,3.1,7.300000000000001,-35.4,16
682,11522.0,0.1,0.30000000000000004,-0.30000000000000004,-0.8,5.9,7.7,-1.4,-0.8,-45.0,16
683,11539.0,-0.30000000000000004,0.5,-0.5,-1.2000000000000002,6.0,7.5,-12.8,2.0,-42.1,16
684,11555.0,-0.4,0.7000000000000001,0.7000000000000001,-1.4000000000000001,6.2,8.8,-34.900000000000006,5.7,-29.600000000000005,16
685,11572.0,0.30000000000000004,0.1,2.0,-0.7000000000000001,5.5,10.100000000000001,-36.6,-6.0,-18.900000000000002,16
686,11588.0,1.1,-0.30000000000000004,1.8,0.1,4.9,10.100000000000001,-21.900000000000002,-23.099999999999998,-17.9,16
687,11605.0,1.3,-0.4,1.4000000000000001,0.30000000000000004,4.800000000000001,9.700000000000001,-15.100000000000001,-29.500000000000004,-20.7,16
688,11622.0,1.2000000000000002,-0.8,1.2000000000000002,0.30000000000000004,4.4,9.5,-7.0,-37.7,-22.9,16
689,11638.0,0.6000000000000001,-0.9,1.0,-0.2,4.3,9.3,4.2,-46.50000000000001,-15.6,16
690,11655.0,0.6000000000000001,-0.9,0.6000000000000001,-0.1,4.3,9.0,8.2,-52.00000000000001,-10.700000000000001,16
691,11672.0,0.9,-0.7000000000000001,-0.4,0.30000000000000004,4.5,7.9,13.000000000000002,-50.3,-4.0,16
692,11688.0,0.9,-0.5,-1.3,0.4,4.800000000000001,7.0,12.5,-33.1,2.6,16
693,11705.0,1.0,-0.4,-1.5,0.6000000000000001,4.800000000000001,6.800000000000001,10.5,-25.4,5.6,16
694,11722.0,1.3,-0.5,-1.7000000000000002,1.0,4.800000000000001,6.5,6.600000000000001,-21.0,0.7,16
695,11738.0,0.30000000000000004,-0.5,-2.0,-0.1,4.800000000000001,6.2,5.9,-13.6,-7.500000000000001,16
696,11755.0,-0.1,-0.5,-1.5,-0.4,4.800000000000001,6.7,7.200000000000001,-11.4,-7.8,16
697,11772.0,-0.30000000000000004,-0.30000000000000004,-1.2000000000000002,-0.6000000000000001,5.1000000000000005,7.0,17.7,-12.200000000000001,-6.0,16
698,11788.0,-0.30000000000000004,0.1,-1.0,-0.5,5.5,7.1000000000000005,32.300000000000004,-16.5,-3.5,16
699,11805.0,-0.2,0.2,-1.3,-0.5,5.7,6.7,39.9,-23.6,-3.4,16
700,11822.0,-0.2,0.2,-1.5,-0.4,5.800000000000001,6.5,37.6,-27.0,-5.0,16
701,11839.0,-0.1,0.8,-0.8,-0.2,6.4,7.1000000000000005,24.3,-22.9,-8.100000000000001,16
702,11855.0,-0.30000000000000004,1.0,1.0,-0.4,6.7,8.9,16.4,-16.8,-11.1,16
703,11872.0,-0.4,0.9,1.6,-0.5,6.7,9.5,17.200000000000003,-18.5,-10.4,16
704,11888.0,-0.5,0.9,2.0,-0.6000000000000001,6.7,9.8,22.2,-20.900000000000002,-6.699999999999999,16
705,11905.0,-0.6000000000000001,1.2000000000000002,1.6,-0.7000000000000001,7.1000000000000005,9.4,19.799999999999997,-6.2,-5.4,16
706,11922.0,-0.6000000000000001,1.4000000000000001,1.5,-0.7000000000000001,7.300000000000001,9.3,15.5,10.299999999999999,-3.7000000000000006,16
707,11938.0,-1.5,1.9000000000000001,1.8,-1.7000000000000002,7.800000000000001,9.600000000000001,7.500000000000001,41.0,-1.0,16
708,11955.0,-1.9000000000000001,1.9000000000000001,2.0,-2.2,7.9,9.8,12.200000000000001,46.50000000000001,7.500000000000001,16
709,11972.0,-1.4000000000000001,1.7000000000000002,1.7000000000000002,-1.3,7.5,9.3,17.1,42.60000000000001,12.100000000000001,16
710,11988.0,-1.0,1.2000000000000002,1.2000000000000002,-1.4000000000000001,7.300000000000001,9.0,17.1,22.2,7.699999999999999,16
711,12005.0,-2.1,1.1,1.1,-2.5,7.2,8.8,4.4,5.1000000000000005,7.1000000000000005,16
712,12022.0,-1.9000000000000001,0.5,1.5,-2.4000000000000004,6.6000000000000005,9.3,-7.200000000000001,8.5,23.099999999999998,16
713,12038.0,-1.7000000000000002,0.30000000000000004,1.7000000000000002,-2.1,6.4,9.5,-6.2,17.6,32.0,16
714,12055.0,-0.9,0.0,1.6,-1.3,6.1000000000000005,9.4,4.7,27.400000000000002,41.0,16
715,12072.0,-0.1,-0.5,-0.1,-0.5,5.6000000000000005,7.7,18.3,34.60000000000001,35.599999999999994,16
716,12088.0,-0.30000000000000004,-0.6000000000000001,-0.30000000000000004,-0.7000000000000001,5.6000000000000005,7.5,23.0,33.800000000000004,28.600000000000005,16
717,12105.0,-0.30000000000000004,-1.2000000000000002,-2.1,-0.7000000000000001,5.0,5.6000000000000005,9.5,10.200000000000001,17.9,16
718,12122.0,-0.9,-1.5,-2.4000000000000004,-1.3,4.6000000000000005,5.300000000000001,-22.2,25.5,21.0,16
719,12142.0,-0.1,-1.0,-1.4000000000000001,-0.6000000000000001,5.0,6.4,-38.0,43.6,32.9,16
720,12155.0,1.1,-1.1,-1.5,0.6000000000000001,5.0,6.2,-39.8,44.4,34.1,16
721,12172.0,1.9000000000000001,-1.2000000000000002,-1.3,1.3,4.7,6.6000000000000005,-41.199999999999996,33.400000000000006,17.6,16
722,12188.0,1.4000000000000001,-1.2000000000000002,-1.3,0.2,4.6000000000000005,6.5,-32.2,10.0,1.0,16
723,12205.0,0.2,-0.9,-1.4000000000000001,-0.4,4.9,6.5,-26.9,1.9,-0.2,16
724,12222.0,-0.5,-0.30000000000000004,-0.8,-1.1,5.4,7.1000000000000005,-15.8,-0.1,12.0,16
725,12238.0,0.30000000000000004,-0.2,0.2,-0.2,5.5,8.200000000000001,5.300000000000001,1.0,23.2,16
726,12255.0,0.7000000000000001,-0.2,0.4,0.1,5.5,8.3,20.3,-0.6000000000000001,21.900000000000002,16
727,12272.0,0.9,-0.1,-0.30000000000000004,0.4,5.7,7.6000000000000005,49.300000000000004,0.7,10.600000000000001,16
728,12288.0,0.5,0.6000000000000001,-0.6000000000000001,0.1,6.6000000000000005,7.1000000000000005,57.00000000000001,-9.4,-2.6,16
729,12305.0,0.2,0.8,-0.5,-0.30000000000000004,6.9,7.1000000000000005,53.300000000000004,-20.1,-8.700000000000001,16
730,12322.0,-0.1,0.8,0.5,-0.5,7.0,8.1,42.0,-39.0,-16.1,16
731,12338.0,0.2,0.6000000000000001,1.5,-0.1,6.9,9.0,32.6,-46.7,-19.0,16
732,12355.0,0.4,0.5,1.9000000000000001,0.1,6.9,9.4,28.1,-45.5,-18.900000000000002,16
733,12372.0,0.8,0.2,2.1,0.6000000000000001,6.6000000000000005,9.600000000000001,20.900000000000002,-31.400000000000002,-17.799999999999997,16
734,12388.0,0.6000000000000001,0.5,1.4000000000000001,0.4,6.9,8.9,19.300000000000004,-1.4,-17.300000000000004,16
735,12405.0,0.30000000000000004,0.8,0.2,0.0,7.300000000000001,7.6000000000000005,19.300000000000004,20.3,-17.400000000000002,16
736,12422.0,0.0,0.9,-0.1,-0.30000000000000004,7.4,7.300000000000001,15.2,20.900000000000002,-17.5,16
737,12439.0,-0.30000000000000004,1.0,-0.1,-0.7000000000000001,7.5,7.300000000000001,1.3,5.0,-16.4,16
738,12455.0,-0.4,1.0,0.4,-0.8,7.5,7.800000000000001,-12.4,-17.1,-12.100000000000001,16
739,12472.0,0.0,1.0,0.7000000000000001,-0.4,7.5,8.1,-16.900000000000002,-25.1,-10.0,16
740,12488.0,0.7000000000000001,0.4,1.3,0.4,6.800000000000001,8.8,-20.0,-34.0,-10.299999999999999,16
741,12505.0,1.0,-0.2,1.1,0.8,6.2,8.6,-17.400000000000002,-38.1,-15.2,16
742,12522.0,0.8,-0.30000000000000004,0.7000000000000001,0.5,6.1000000000000005,8.200000000000001,-17.5,-39.300000000000004,-17.6,16
743,12538.0,0.4,-0.4,-0.30000000000000004,0.30000000000000004,5.9,7.300000000000001,-25.4,-46.800000000000004,-16.900000000000002,16
744,12555.0,1.0,-0.7000000000000001,-1.1,1.0,5.5,6.5,-40.7,-47.60000000000001,-7.0,16
745,12572.0,1.3,-0.8,-1.0,1.1,4.9,7.0,-44.300000000000004,-38.60000000000001,-2.3,16
746,12588.0,1.2000000000000002,-1.8,-0.7000000000000001,1.3,4.2,7.1000000000000005,-37.400000000000006,-35.599999999999994,1.8000000000000003,16
747,12605.0,1.5,-1.1,-1.4000000000000001,1.7000000000000002,4.9,6.5,-14.400000000000002,-37.9,-4.6,16
748,12622.0,1.2000000000000002,-1.5,-3.2,1.6,4.4,4.7,-9.4,-42.900000000000006,3.7000000000000006,16
749,12639.0,0.7000000000000001,-1.7000000000000002,-3.4000000000000004,1.2000000000000002,4.2,4.4,-18.0,-49.0,1.0,16
750,12655.0,-0.4,-1.0,-2.3000000000000003,0.2,4.800000000000001,5.5,-28.0,-54.50000000000001,-3.5,16
751,12672.0,-0.5,-1.0,-2.6,0.30000000000000004,4.800000000000001,5.300000000000001,-31.0,-52.300000000000004,17.5,16
752,12688.0,0.0,-1.2000000000000002,-2.9000000000000004,0.8,4.5,5.0,-36.5,-39.2,26.1,16
753,12705.0,-0.1,-1.8,-1.0,0.8,3.7,7.0,-45.9,-6.8,18.4,16
754,12722.0,0.0,-1.1,2.2,0.9,4.3,10.200000000000001,-33.2,-18.8,4.300000000000001,16
755,12741.0,-0.9,-1.6,1.4000000000000001,0.2,3.8000000000000003,9.5,-13.000000000000002,-44.5,8.4,16
756,12756.0,-1.0,-1.1,1.3,0.1,4.2,9.4,-9.100000000000001,-24.3,11.700000000000001,16
757,12772.0,-0.1,0.0,2.7,1.0,5.4,10.8,2.1,17.1,24.8,16
758,12788.0,1.8,0.6000000000000001,2.4000000000000004,2.9000000000000004,5.9,10.5,15.5,16.6,1.5,16
759,12805.0,1.9000000000000001,0.4,1.8,2.9000000000000004,5.800000000000001,10.0,16.8,10.8,-23.800000000000004,16
760,12822.0,-0.8,0.9,2.1,0.2,6.4,10.200000000000001,19.0,-1.6,-55.60000000000001,16
761,12838.0,-3.1,2.5,2.1,-2.3000000000000003,8.1,10.100000000000001,53.300000000000004,-0.1,-44.10000000000001,16
762,12855.0,-2.7,2.6,0.5,-1.9000000000000001,8.3,8.4,73.6,-8.899999999999999,-28.400000000000002,16
763,12872.0,-1.6,3.3000000000000003,-2.6,-0.7000000000000001,9.3,5.2,65.5,-47.3,-18.200000000000003,16
764,12888.0,-2.3000000000000003,3.8000000000000003,-1.5,-1.3,9.9,6.2,18.900000000000002,-85.80000000000001,-23.2,16
765,12905.0,-2.8000000000000003,2.8000000000000003,-0.7000000000000001,-1.7000000000000002,8.9,7.0,2.2,-96.0,-20.0,16
766,12922.0,-3.2,1.5,1.4000000000000001,-1.9000000000000001,7.6000000000000005,9.1,-3.7000000000000006,-84.2,1.9,16
767,12939.0,-1.5,1.0,0.4,0.1,7.1000000000000005,8.0,7.699999999999999,-54.800000000000004,39.699999999999996,16
768,12955.0,0.6000000000000001,0.7000000000000001,-0.6000000000000001,2.3000000000000003,6.800000000000001,7.0,6.500000000000001,-42.0,44.2,16
769,12972.0,0.5,0.5,-0.2,2.3000000000000003,6.6000000000000005,7.4,-1.9,-36.0,29.0,16
770,12988.0,-0.2,0.0,-1.2000000000000002,1.8,6.1000000000000005,6.300000000000001,5.0,-68.5,12.5,16
771,13005.0,-0.6000000000000001,-0.2,-1.3,1.3,5.6000000000000005,5.9,5.1000000000000005,-59.9,15.100000000000001,16
772,13022.0,-1.1,-0.6000000000000001,-2.1,1.2000000000000002,5.5,5.300000000000001,17.799999999999997,-78.2,25.300000000000004,16
773,13041.0,-1.1,-1.2000000000000002,-2.0,1.5,5.0,5.2,40.5,-126.70000000000002,33.9,16
774,13056.0,-1.8,-1.9000000000000001,-1.7000000000000002,1.3,4.3,5.2,91.0,-204.9,35.5,16
775,13072.0,-1.7000000000000002,-2.2,-3.2,1.7000000000000002,4.2,3.3000000000000003,120.00000000000001,-231.00000000000006,39.0,16
776,13088.0,-1.9000000000000001,-1.9000000000000001,-6.5,2.2,4.7,-0.6000000000000001,129.10000000000002,-218.79999999999998,49.699999999999996,16
777,13105.0,-2.7,-3.1,-7.7,1.7000000000000002,3.6,-2.3000000000000003,90.4,-160.3,57.60000000000001,16
778,13122.0,-3.3000000000000003,-3.2,-6.800000000000001,1.3,3.5,-1.6,70.7,-124.60000000000001,61.599999999999994,16
779,13138.0,-4.4,-3.2,-3.7,0.6000000000000001,3.4000000000000004,1.1,60.00000000000001,-110.6,77.1,16
780,13155.0,-4.0,-3.7,-5.4,1.4000000000000001,2.8000000000000003,-1.0,71.8,-133.60000000000002,100.4,16
781,13171.0,-3.3000000000000003,-3.9000000000000004,-6.300000000000001,2.3000000000000003,2.6,-2.2,61.9,-125.4,111.9,16
782,13188.0,-1.4000000000000001,-4.5,-6.5,4.5,1.7000000000000002,-2.6,15.399999999999999,-78.10000000000001,123.8,16
783,13205.0,0.2,-5.300000000000001,-3.3000000000000003,6.5,0.6000000000000001,0.5,-23.5,-33.400000000000006,115.20000000000002,16
784,13222.0,-1.2000000000000002,-6.6000000000000005,-1.2000000000000002,5.300000000000001,-1.0,2.6,-21.500000000000004,-52.300000000000004,99.30000000000001,16
785,13238.0,-2.6,-6.300000000000001,-1.8,4.1000000000000005,-0.8,1.9000000000000001,-22.1,-80.7,113.4,16
786,13255.0,-2.1,-6.9,-3.4000000000000004,4.9,-1.9000000000000001,0.1,-87.00000000000001,-136.3,191.1,16
787,13272.0,1.4000000000000001,-8.6,2.4000000000000004,9.0,-4.5,5.800000000000001,-164.5,-142.60000000000002,261.2,16
788,13288.0,2.8000000000000003,-9.0,5.4,10.700000000000001,-5.5,8.700000000000001,-166.5,-141.9,279.09999999999997,16
789,13305.0,5.300000000000001,-10.200000000000001,6.300000000000001,13.700000000000001,-7.6000000000000005,9.4,-112.7,-119.8,277.5,16
790,13322.0,3.8000000000000003,-8.4,3.5,12.5,-6.7,6.5,-57.699999999999996,-55.900000000000006,248.4,16
791,13338.0,2.6,-7.5,2.0,11.4,-6.300000000000001,4.9,-50.1,-21.7,237.39999999999998,16
792,13355.0,0.4,-5.9,-0.2,9.200000000000001,-5.4,2.9000000000000004,-69.4,23.0,217.80000000000004,16
793,13372.0,-0.8,-5.9,-1.2000000000000002,8.0,-6.2,1.9000000000000001,-110.80000000000001,41.7,208.8,16
794,13388.0,-0.9,-6.6000000000000005,-1.4000000000000001,7.800000000000001,-7.800000000000001,1.9000000000000001,-152.1,44.5,209.3,16
795,13405.0,-0.4,-7.0,-1.2000000000000002,8.200000000000001,-8.6,2.0,-169.1,36.300000000000004,211.60000000000002,16
796,13422.0,1.9000000000000001,-7.300000000000001,-0.8,10.3,-9.8,2.3000000000000003,-193.4,7.0,204.5,16
797,13439.0,3.2,-7.1000000000000005,0.1,11.5,-10.4,3.0,-212.9,16.3,176.5,16
798,13455.0,3.1,-6.800000000000001,0.5,11.3,-10.4,3.4000000000000004,-219.10000000000002,22.2,158.6,16
799,13472.0,2.5,-6.0,1.7000000000000002,10.5,-10.3,4.3,-225.4,38.2,129.20000000000002,16
800,13488.0,1.9000000000000001,-5.2,2.2,9.600000000000001,-10.100000000000001,4.6000000000000005,-222.70000000000002,31.9,110.9,16
801,13505.0,1.3,-5.0,2.3000000000000003,9.0,-10.100000000000001,4.6000000000000005,-217.70000000000005,31.9,109.60000000000001,16
802,13522.0,0.0,-3.6,2.8000000000000003,7.4,-9.200000000000001,4.9,-208.70000000000002,32.400000000000006,127.3,16
803,13541.0,1.2000000000000002,-2.2,3.7,8.3,-8.4,5.4,-194.4,9.2,155.9,16
804,13555.0,2.4000000000000004,-1.7000000000000002,3.7,10.200000000000001,-7.800000000000001,5.0,-177.5,-32.9,163.90000000000003,16
805,13572.0,4.1000000000000005,-0.7000000000000001,3.6,10.700000000000001,-7.5,4.6000000000000005,-171.20000000000002,-51.2,159.9,16
806,13588.0,5.7,-0.9,5.2,12.0,-8.1,5.7,-164.4,-60.2,143.6,16
807,13605.0,5.4,0.30000000000000004,6.7,11.5,-7.2,6.800000000000001,-135.9,-68.4,118.69999999999999,16
808,13622.0,5.4,0.7000000000000001,7.0,11.3,-6.9,6.9,-118.80000000000003,-68.4,110.80000000000001,16
809,13638.0,5.6000000000000005,1.6,7.0,11.3,-6.2,6.6000000000000005,-84.4,-63.0,101.10000000000001,16
810,13655.0,7.2,1.8,7.2,12.8,-6.2,6.6000000000000005,-55.60000000000001,-64.9,96.30000000000001,16
811,13673.0,8.1,2.0,7.1000000000000005,13.5,-6.1000000000000005,6.300000000000001,-42.60000000000001,-66.60000000000001,92.50000000000001,16
812,13688.0,9.5,2.3000000000000003,6.6000000000000005,14.700000000000001,-5.9,5.7,-23.099999999999998,-40.1,82.60000000000001,16
813,13705.0,8.9,4.0,7.800000000000001,14.0,-4.3,7.0,-5.300000000000001,-7.6,70.6,16
814,13722.0,9.9,4.2,7.7,14.9,-4.1000000000000005,6.9,7.200000000000001,3.1,67.4,16
815,13738.0,11.3,5.2,7.5,16.3,-3.1,6.800000000000001,49.800000000000004,-0.6000000000000001,44.7,16
816,13784.0,11.100000000000001,5.0,0.8,16.3,-3.3000000000000003,0.9,129.70000000000002,-46.4,-22.8,16
817,13792.0,11.0,4.9,0.1,16.400000000000002,-3.3000000000000003,0.30000000000000004,123.8,-54.1,-24.7,16
818,13898.0,6.800000000000001,-0.8,3.4000000000000004,14.100000000000001,-7.6000000000000005,4.3,23.700000000000003,3.7000000000000006,-199.30000000000004,16
819,13982.0,1.0,-5.9,3.3000000000000003,10.4,-9.700000000000001,4.3,76.89999999999999,-37.400000000000006,-252.30000000000004,16
820,13988.0,0.5,-6.4,3.2,10.100000000000001,-9.8,4.2,93.89999999999999,-47.3,-251.60000000000002,16
821,14005.0,0.1,-7.0,2.6,9.8,-9.9,3.6,110.4,-58.0,-251.3,16
822,14022.0,-0.9,-8.200000000000001,0.7000000000000001,9.1,-10.4,1.6,129.10000000000002,-61.199999999999996,-247.29999999999998,16
823,14041.0,-1.7000000000000002,-9.1,-0.30000000000000004,8.5,-10.5,0.6000000000000001,125.80000000000001,-42.60000000000001,-237.20000000000002,16
824,14055.0,-1.9000000000000001,-9.5,-0.6000000000000001,8.200000000000001,-10.5,0.2,120.80000000000001,-34.50000000000001,-231.6,16
825,14072.0,-2.5,-10.0,-0.5,7.7,-10.200000000000001,0.30000000000000004,108.39999999999999,-27.2,-223.00000000000003,16
826,14088.0,-3.3000000000000003,-10.9,-0.2,6.800000000000001,-10.4,0.4,101.9,-35.5,-216.4,16
827,14105.0,-3.8000000000000003,-11.4,-0.30000000000000004,6.4,-10.700000000000001,0.2,99.9,-40.6,-210.0,16
828,14122.0,-4.9,-12.3,-1.0,5.1000000000000005,-11.0,-0.7000000000000001,93.49999999999999,-42.2,-189.70000000000002,16
829,14138.0,-6.1000000000000005,-11.9,-1.2000000000000002,3.7,-10.100000000000001,-1.1,76.89999999999999,-31.7,-160.0,16
830,14155.0,-6.6000000000000005,-12.200000000000001,-1.1,2.4000000000000004,-9.8,-1.4000000000000001,69.60000000000001,-23.900000000000006,-144.4,16
831,14171.0,-7.5,-11.600000000000001,-1.6,2.1,-9.3,-1.6,54.699999999999996,-3.3000000000000007,-111.10000000000002,16
832,14205.0,-8.700000000000001,-10.9,-2.7,0.7000000000000001,-8.3,-2.7,12.7,25.7,-54.9,16
833,14222.0,-9.200000000000001,-10.5,-2.6,0.2,-7.800000000000001,-2.6,0.1,31.6,-34.900000000000006,16
834,14238.0,-9.700000000000001,-9.8,-2.3000000000000003,-0.4,-7.2,-2.2,-20.5,33.6,15.399999999999999,16
835,14255.0,-8.6,-9.1,-1.8,0.6000000000000001,-6.800000000000001,-1.6,-36.5,26.300000000000004,75.60000000000001,16
836,14272.0,-7.5,-9.1,-1.6,1.8,-7.1000000000000005,-1.4000000000000001,-40.300000000000004,16.4,102.4,16
837,14288.0,-5.1000000000000005,-9.0,-2.0,4.2,-7.4,-1.7000000000000002,-46.7,1.9,147.1,16
838,14305.0,-2.7,-8.6,-1.7000000000000002,6.6000000000000005,-7.7,-1.4000000000000001,-54.0,-2.8,175.4,16
839,14321.0,-2.0,-8.200000000000001,-1.6,7.4,-7.6000000000000005,-1.3,-55.5,-6.2,182.9,16
840,14338.0,-1.5,-6.9,-1.6,7.9,-7.0,-1.3,-56.400000000000006,-12.200000000000001,191.70000000000002,16
841,14355.0,-1.3,-5.4,-1.6,8.0,-6.2,-1.4000000000000001,-60.7,-9.600000000000001,202.8,16
842,14372.0,-1.0,-4.7,-1.6,9.0,-5.5,-1.4000000000000001,-71.30000000000001,2.7,213.9,16
843,14388.0,0.5,-3.4000000000000004,-1.4000000000000001,9.700000000000001,-5.2,-1.2000000000000002,-77.3,11.1,215.0,16
844,14405.0,1.8,-2.2,-1.0,10.8,-4.7,-0.8,-87.10000000000001,27.6,209.00000000000003,16
845,14421.0,2.7,-0.9,-0.4,11.5,-4.0,-0.2,-92.7,33.300000000000004,193.70000000000002,16
846,14439.0,2.9000000000000004,-0.1,-0.2,11.600000000000001,-3.5,0.0,-93.00000000000001,31.5,183.9,16
847,14455.0,3.3000000000000003,0.9,-0.7000000000000001,11.8,-3.0,-0.6000000000000001,-99.8,23.700000000000003,162.7,16
848,14472.0,3.9000000000000004,1.4000000000000001,-0.9,12.3,-3.0,-0.9,-119.30000000000003,23.2,147.5,16
849,14507.0,4.5,2.0,0.7000000000000001,12.600000000000001,-2.9000000000000004,0.5,-163.20000000000002,27.3,132.1,16
850,14523.0,5.7,2.0,2.8000000000000003,13.600000000000001,-3.2,2.3000000000000003,-176.20000000000002,15.8,121.2,16
851,14554.0,7.0,1.5,4.4,14.700000000000001,-4.0,3.5,-172.29999999999998,-7.400000000000001,95.4,16
852,14572.0,6.7,1.7000000000000002,5.1000000000000005,14.3,-4.0,3.9000000000000004,-165.9,4.6,91.50000000000001,16
853,14588.0,7.0,2.6,6.6000000000000005,14.5,-3.2,5.2,-153.50000000000003,32.2,91.0,16
854,14605.0,7.300000000000001,2.9000000000000004,7.300000000000001,14.700000000000001,-3.0,5.800000000000001,-140.20000000000002,41.800000000000004,88.3,16
855,14621.0,7.9,3.2,8.8,15.200000000000001,-2.8000000000000003,7.2,-98.10000000000001,34.900000000000006,81.3,16
856,14638.0,8.6,4.9,9.700000000000001,15.9,-1.3,8.200000000000001,-26.000000000000004,-8.5,75.60000000000001,16
857,14655.0,9.1,5.4,9.4,16.400000000000002,-0.8,7.9,19.5,-38.1,68.2,16
858,14672.0,10.0,6.0,5.800000000000001,17.2,-0.30000000000000004,4.3,95.30000000000001,-98.10000000000001,43.2,16
859,14688.0,10.3,6.4,2.2,17.400000000000002,-0.1,0.7000000000000001,114.2,-114.2,12.299999999999999,16
860,14705.0,10.5,6.2,1.0,17.7,-0.2,-0.5,103.7,-105.3,-2.0,16
861,14722.0,11.200000000000001,4.9,0.2,18.5,-1.4000000000000001,-1.3,66.80000000000001,-65.4,-38.60000000000001,16
862,14741.0,10.100000000000001,3.2,0.7000000000000001,17.6,-2.9000000000000004,-0.8,26.799999999999997,-15.399999999999999,-88.9,16
863,14755.0,8.700000000000001,2.5,1.4000000000000001,15.100000000000001,-3.9000000000000004,0.7000000000000001,1.4,18.900000000000002,-131.79999999999998,16
864,14772.0,5.9,1.3,2.7,13.9,-4.3,1.3,-2.8,28.600000000000005,-145.60000000000002,16
865,14788.0,3.8000000000000003,0.5,3.3000000000000003,12.100000000000001,-4.6000000000000005,2.0,0.30000000000000004,37.800000000000004,-161.3,16
866,14805.0,2.3000000000000003,-0.4,3.0,11.0,-5.0,1.9000000000000001,10.5,43.50000000000001,-167.40000000000003,16
867,14821.0,1.5,-0.6000000000000001,3.0,10.3,-5.0,2.0,16.200000000000003,49.6,-168.8,16
868,14842.0,-0.2,-0.8,3.2,8.9,-4.7,2.4000000000000004,32.0,61.7,-168.0,16
869,14855.0,-0.7000000000000001,-1.2000000000000002,3.5,8.700000000000001,-4.6000000000000005,3.1,61.9,61.7,-163.00000000000003,16
870,14872.0,-0.5,-1.6,3.1,8.9,-4.800000000000001,2.8000000000000003,81.90000000000002,56.10000000000001,-162.0,16
871,14888.0,-0.5,-2.6,1.5,9.1,-5.2,1.4000000000000001,116.69999999999999,38.400000000000006,-167.79999999999998,16
872,14905.0,-1.0,-3.5,0.0,8.700000000000001,-5.6000000000000005,0.1,132.2,18.5,-175.5,16
873,14921.0,-1.1,-4.1000000000000005,-0.6000000000000001,8.6,-5.9,-0.4,134.10000000000002,10.4,-176.00000000000003,16
874,14939.0,-1.3,-5.2,-1.9000000000000001,8.5,-6.4,-1.6,129.3,0.8,-172.2,16
875,14956.0,-1.3,-6.0,-3.0,8.6,-6.7,-2.8000000000000003,106.30000000000001,0.9000000000000001,-166.3,16
876,14972.0,-1.4000000000000001,-6.6000000000000005,-3.2,8.5,-6.9,-2.9000000000000004,70.2,6.9,-156.70000000000002,16
877,14988.0,-1.3,-7.0,-2.9000000000000004,8.6,-7.0,-2.6,52.400000000000006,8.8,-149.4,16
878,15005.0,-0.7000000000000001,-8.0,-2.2,9.200000000000001,-7.6000000000000005,-1.9000000000000001,24.3,6.4,-134.6,16
879,15022.0,-0.9,-8.200000000000001,-1.6,8.9,-7.5,-1.3,8.0,3.1,-122.39999999999999,16
880,15041.0,-1.3,-8.1,-1.0,8.5,-7.0,-0.7000000000000001,-0.8,4.7,-110.10000000000001,16
881,15055.0,-1.1,-8.3,-0.7000000000000001,8.700000000000001,-7.1000000000000005,-0.4,-2.5,8.0,-103.7,16
882,15072.0,0.30000000000000004,-9.3,-0.9,10.0,-7.9,-0.5,2.2,17.7,-96.5,16
883,15088.0,0.6000000000000001,-8.8,-1.2000000000000002,10.3,-7.2,-0.9,5.500000000000001,26.5,-99.2,16
884,15106.0,1.5,-7.2,-2.2,11.100000000000001,-5.300000000000001,-1.7000000000000002,0.4,37.6,-109.50000000000001,16
885,15122.0,1.4000000000000001,-5.4,-3.0,11.0,-3.2,-2.4000000000000004,-26.799999999999997,49.50000000000001,-111.30000000000001,16
886,15144.0,2.2,-3.4000000000000004,-2.2,11.700000000000001,-0.9,-1.4000000000000001,-69.20000000000002,62.6,-93.8,16
887,15155.0,3.4000000000000004,-2.9000000000000004,-1.3,12.9,-0.30000000000000004,-0.4,-85.5,65.10000000000001,-83.10000000000001,16
888,15172.0,6.2,-2.3000000000000003,-0.2,15.600000000000001,0.5,1.1,-98.8,67.60000000000001,-78.2,16
889,15188.0,7.1000000000000005,-1.9000000000000001,0.6000000000000001,16.400000000000002,1.2000000000000002,2.2,-96.7,77.80000000000001,-107.7,16
890,15205.0,6.800000000000001,-1.3,1.0,16.1,1.9000000000000001,2.8000000000000003,-89.9,84.5,-128.1,16
891,15222.0,4.2,-0.2,0.8,13.3,3.4000000000000004,3.0,-66.3,79.19999999999999,-168.4,16
892,15243.0,2.2,0.6000000000000001,-0.1,11.0,4.800000000000001,2.3000000000000003,-52.60000000000001,64.9,-179.9,16
893,15255.0,4.2,0.0,0.30000000000000004,12.8,4.4,2.9000000000000004,-50.3,55.2,-184.4,16
894,15272.0,-0.9,2.0,0.9,7.4,6.9,3.7,-30.4,62.6,-191.49999999999997,16
895,15288.0,5.4,-0.4,2.4000000000000004,13.3,5.0,5.300000000000001,-7.500000000000001,29.1,-192.9,16
896,15305.0,4.2,-0.1,0.7000000000000001,11.9,5.6000000000000005,3.7,14.400000000000002,15.700000000000001,-223.60000000000002,16
897,15322.0,-0.4,0.2,-0.1,6.800000000000001,6.7,2.8000000000000003,44.7,47.400000000000006,-266.9,16
898,15340.0,-3.5,0.30000000000000004,-0.1,3.0,7.4,2.9000000000000004,53.7,39.50000000000001,-256.5,16
899,15355.0,-4.1000000000000005,0.4,-0.5,1.4000000000000001,8.0,1.5,59.300000000000004,28.900000000000002,-244.30000000000004,16
900,15372.0,-4.9,0.1,-2.0,0.6000000000000001,8.0,0.8,52.60000000000001,33.400000000000006,-215.0,16
901,15388.0,-3.2,0.8,-2.0,1.7000000000000002,9.1,0.8,24.3,46.6,-178.0,16
902,15405.0,1.8,-0.30000000000000004,-2.2,6.1000000000000005,8.200000000000001,0.6000000000000001,-10.299999999999999,54.300000000000004,-172.1,16
903,15422.0,1.9000000000000001,-1.2000000000000002,-1.7000000000000002,6.0,7.5,1.2000000000000002,-26.1,82.10000000000001,-188.4,16
904,15439.0,-2.2,-2.1,0.5,1.1,6.800000000000001,3.7,-29.500000000000004,149.0,-223.2,16
905,15455.0,-3.7,-1.1,1.7000000000000002,-1.3,8.0,5.1000000000000005,0.5,135.9,-213.40000000000003,16
906,15471.0,-3.2,-1.5,1.1,-1.2000000000000002,7.6000000000000005,4.5,16.6,122.50000000000001,-203.50000000000003,16
907,15488.0,-1.7000000000000002,-2.0,1.0,-0.5,7.300000000000001,4.4,35.2,121.70000000000002,-191.8,16
908,15505.0,-0.2,-3.3000000000000003,1.0,0.2,6.1000000000000005,4.3,46.1,80.30000000000001,-196.20000000000002,16
909,15522.0,0.2,-3.5,0.8,0.30000000000000004,5.9,4.0,45.9,57.800000000000004,-204.5,16
910,15541.0,-0.8,-2.7,-0.4,-1.5,6.7,2.7,34.60000000000001,25.5,-224.50000000000003,16
911,15555.0,-2.0,-3.2,-2.0,-3.4000000000000004,6.1000000000000005,1.0,9.700000000000001,13.900000000000002,-240.9,16
912,15572.0,-3.0,-2.7,-0.8,-5.300000000000001,6.4,2.2,-30.5,66.0,-238.89999999999998,16
913,15588.0,-3.9000000000000004,-1.4000000000000001,-0.2,-6.6000000000000005,7.6000000000000005,2.8000000000000003,-41.300000000000004,83.00000000000001,-233.1,16
914,15605.0,-4.800000000000001,2.3000000000000003,1.0,-8.4,11.0,4.1000000000000005,-37.50000000000001,127.19999999999999,-206.99999999999997,16
915,15622.0,-1.4000000000000001,-1.3,2.9000000000000004,-5.6000000000000005,7.1000000000000005,5.800000000000001,9.8,149.4,-166.8,16
916,15638.0,0.2,-2.2,1.8,-4.3,6.1000000000000005,4.5,28.900000000000002,150.8,-157.8,16
917,15655.0,2.9000000000000004,-1.5,1.6,-2.2,6.7,3.9000000000000004,53.50000000000001,142.50000000000003,-171.0,16
918,15671.0,3.9000000000000004,-1.6,0.30000000000000004,-1.7000000000000002,6.2,2.2,69.20000000000002,132.3,-194.00000000000003,16
919,15688.0,4.5,-1.6,-0.2,-1.5,6.0,1.5,68.60000000000001,126.10000000000001,-206.00000000000003,16
920,15705.0,4.6000000000000005,-2.0,-1.1,-2.0,5.1000000000000005,0.30000000000000004,52.900000000000006,125.2,-223.00000000000003,16
921,15722.0,5.0,-2.7,-0.4,-2.1,3.9000000000000004,0.5,38.7,139.60000000000002,-224.9,16
922,15738.0,5.2,-3.1,-0.2,-2.1,3.2,0.5,44.8,138.29999999999998,-224.50000000000003,16
923,15755.0,4.9,-3.6,-1.5,-2.9000000000000004,2.1,-1.3,62.0,125.80000000000001,-229.60000000000002,16
924,15772.0,4.7,-4.2,-2.3000000000000003,-3.4000000000000004,0.9,-2.6,67.7,113.60000000000001,-223.9,16
925,15788.0,4.4,-4.5,-2.7,-4.1000000000000005,-0.1,-3.4000000000000004,59.40000000000001,94.80000000000001,-214.60000000000002,16
926,15805.0,4.1000000000000005,-4.3,-2.7,-4.5,-0.2,-3.5,52.2,91.0,-209.70000000000002,16
927,15821.0,2.7,-3.9000000000000004,-2.2,-6.1000000000000005,-0.5,-3.4000000000000004,40.9,96.1,-198.70000000000002,16
928,15838.0,0.2,-3.8000000000000003,-1.2000000000000002,-8.8,-1.0,-2.7,28.800000000000004,92.39999999999999,-180.39999999999998,16
929,15856.0,-0.9,-3.5,-0.4,-9.9,-0.9,-2.1,24.8,84.3,-166.3,16
930,15891.0,-1.9000000000000001,-0.7000000000000001,0.0,-11.100000000000001,0.9,-2.1,46.9,38.300000000000004,-110.10000000000001,16
931,15999.0,-2.7,-1.0,-2.9000000000000004,-12.100000000000001,-0.7000000000000001,-5.0,19.799999999999997,-9.100000000000001,-34.1,16
932,16069.0,-1.6,2.3000000000000003,0.0,-11.100000000000001,2.7,-2.1,37.50000000000001,-3.5,57.400000000000006,16
933,16073.0,-1.6,2.3000000000000003,0.0,-8.700000000000001,2.5,-3.0,42.800000000000004,-9.3,57.400000000000006,16
934,16088.0,2.4000000000000004,1.7000000000000002,-1.7000000000000002,-7.1000000000000005,2.3000000000000003,-3.8000000000000003,42.800000000000004,-14.100000000000001,47.7,16
935,16105.0,2.0,1.2000000000000002,-1.5,-7.5,1.9000000000000001,-3.6,34.0,-16.900000000000002,20.0,16
936,16125.0,0.2,0.8,-0.6000000000000001,-9.3,1.5,-2.6,30.9,-21.200000000000003,14.700000000000001,16
937,16138.0,0.1,0.30000000000000004,-0.6000000000000001,-9.4,1.0,-2.5,30.1,-18.5,21.6,16
938,16155.0,1.2000000000000002,-0.1,-0.2,-8.3,0.7000000000000001,-2.1,25.7,-2.4000000000000004,40.5,16
939,16171.0,3.7,-0.5,0.5,-5.800000000000001,0.5,-1.4000000000000001,22.000000000000004,6.600000000000001,45.3,16
940,16191.0,4.3,-0.5,0.6000000000000001,-5.1000000000000005,0.5,-1.3,21.6,2.4000000000000004,39.400000000000006,16
941,16205.0,4.2,-0.30000000000000004,1.5,-5.2,0.8,-0.4,24.3,-4.4,27.5,16
942,16222.0,3.2,-0.30000000000000004,1.7000000000000002,-6.2,0.8,-0.30000000000000004,37.800000000000004,-10.700000000000001,26.1,16
943,16238.0,2.8000000000000003,-0.5,1.3,-6.6000000000000005,0.7000000000000001,-0.6000000000000001,43.6,-12.5,29.900000000000006,16
944,16255.0,1.7000000000000002,-0.30000000000000004,0.9,-7.6000000000000005,1.0,-1.0,45.9,-10.4,37.800000000000004,16
945,16324.0,-1.4000000000000001,1.2000000000000002,-0.5,-10.600000000000001,2.9000000000000004,-2.5,38.50000000000001,12.4,31.3,16
946,16338.0,-1.9000000000000001,0.9,-0.6000000000000001,-11.200000000000001,2.0,-3.1,39.2,14.300000000000002,28.200000000000003,16
947,16355.0,-1.4000000000000001,-0.30000000000000004,-1.8,-10.600000000000001,1.5,-3.9000000000000004,41.4,22.2,23.800000000000004,16
948,16371.0,-1.2000000000000002,-1.3,-2.7,-10.4,0.5,-5.0,32.9,26.200000000000003,4.800000000000001,16
949,16391.0,-2.6,-1.0,-2.5,-11.9,0.6000000000000001,-4.9,21.200000000000003,11.1,-14.700000000000001,16
950,16405.0,-3.4000000000000004,-0.9,-2.6,-12.600000000000001,0.8,-4.9,16.0,5.1000000000000005,-18.700000000000003,16
951,16426.0,-4.800000000000001,-0.2,-2.0,-14.100000000000001,1.3,-4.4,2.2,1.0,-20.1,16
952,16438.0,-5.1000000000000005,0.6000000000000001,-1.1,-14.5,2.1,-3.5,-17.1,-7.699999999999999,-15.000000000000002,16
953,16455.0,-5.7,1.1,-0.4,-15.100000000000001,2.6,-2.7,-28.600000000000005,-14.900000000000002,-12.4,16
954,16478.0,-3.9000000000000004,1.8,1.2000000000000002,-13.4,3.5,-1.1,-51.2,-20.7,21.200000000000003,16
955,16488.0,-2.1,1.2000000000000002,1.4000000000000001,-11.600000000000001,2.9000000000000004,-0.8,-54.4,-5.4,30.1,16
956,16505.0,-0.5,0.30000000000000004,1.8,-9.9,2.0,-0.4,-56.400000000000006,11.4,31.099999999999998,16
957,16667.0,4.4,-0.5,1.1,-4.800000000000001,1.6,-1.0,-27.400000000000002,19.200000000000003,-6.0,16
958,16738.0,0.1,0.2,1.4000000000000001,-9.0,2.1,-0.8,1.7,7.1000000000000005,-26.1,16
959,16755.0,-1.0,1.3,0.8,-10.200000000000001,3.1,-1.5,-1.7,2.8,-26.9,16
960,16771.0,-2.8000000000000003,1.7000000000000002,-0.1,-12.0,3.5,-2.3000000000000003,0.1,0.30000000000000004,-23.400000000000002,16
961,16788.0,-3.1,1.6,-0.7000000000000001,-12.4,3.3000000000000003,-2.9000000000000004,1.4,-2.7,-17.6,16
962,16805.0,-1.8,1.1,-1.5,-11.0,2.9000000000000004,-3.7,0.8,0.9000000000000001,-4.9,16
963,16821.0,-1.2000000000000002,0.8,-0.7000000000000001,-10.4,2.5,-3.0,-2.8,18.700000000000003,-7.400000000000001,16
964,16838.0,-1.9000000000000001,0.8,-0.1,-11.200000000000001,2.5,-2.4000000000000004,1.6,19.200000000000003,-12.299999999999999,16
965,16855.0,-4.800000000000001,0.0,0.5,-14.100000000000001,1.7000000000000002,-1.9000000000000001,24.400000000000002,22.6,-12.0,16
966,16871.0,-5.2,-1.0,-1.5,-14.600000000000001,0.6000000000000001,-3.9000000000000004,48.10000000000001,12.9,5.4,16
967,16888.0,-5.4,-0.9,-2.3000000000000003,-15.5,1.9000000000000001,-5.2,49.1,11.3,8.5,16
968,16905.0,-6.2,2.0,-2.6,-15.600000000000001,3.6,-5.2,41.4,-2.9,16.5,16
969,16921.0,-3.2,4.1000000000000005,-2.1,-12.600000000000001,5.800000000000001,-4.6000000000000005,40.1,-17.799999999999997,37.1,16
970,16938.0,-0.1,3.5,-1.9000000000000001,-9.5,5.300000000000001,-4.4,50.5,-23.0,40.1,16
971,16967.0,-0.1,1.4000000000000001,-2.5,-9.3,2.3000000000000003,-4.9,33.50000000000001,2.5,36.2,16
972,16971.0,0.0,0.30000000000000004,-2.4000000000000004,-9.3,2.3000000000000003,-4.9,33.50000000000001,2.5,36.2,16
973,16988.0,1.0,-1.3,-0.6000000000000001,-8.3,0.7000000000000001,-3.3000000000000003,5.8,15.399999999999999,38.400000000000006,16
974,17005.0,1.4000000000000001,-1.3,0.4,-7.9,0.8,-2.3000000000000003,-2.0,16.1,38.2,16
975,17023.0,2.8000000000000003,-0.8,1.8,-6.4,1.4000000000000001,-0.9,2.8,3.1,37.9,16
976,17038.0,4.3,-0.30000000000000004,2.2,-4.9,2.0,-0.5,24.200000000000003,-4.7,31.400000000000002,16
977,17055.0,4.4,-0.5,2.1,-4.7,1.9000000000000001,-0.6000000000000001,34.900000000000006,-4.9,25.6,16
978,17072.0,3.7,-0.5,1.4000000000000001,-5.4,1.9000000000000001,-1.3,49.4,-8.700000000000001,17.1,16
979,17088.0,3.6,-1.1,0.5,-5.5,1.3,-2.1,42.5,-10.700000000000001,16.700000000000003,16
980,17105.0,3.5,-1.2000000000000002,0.5,-5.6000000000000005,1.1,-2.2,33.7,-9.899999999999999,16.6,16
981,17122.0,2.9000000000000004,-0.8,1.0,-6.2,1.6,-1.6,19.700000000000003,-6.600000000000001,16.700000000000003,16
982,17138.0,2.8000000000000003,-0.30000000000000004,0.8,-6.300000000000001,2.2,-1.8,21.500000000000004,-11.3,17.400000000000002,16
983,17155.0,2.4000000000000004,-0.2,-0.2,-6.6000000000000005,2.3000000000000003,-2.7,29.800000000000004,-12.0,11.5,16
984,17171.0,1.9000000000000001,0.0,-0.5,-7.1000000000000005,2.4000000000000004,-3.0,31.2,-11.4,6.4,16
985,17188.0,-0.4,1.4000000000000001,-1.7000000000000002,-9.4,3.8000000000000003,-4.3,27.2,-9.899999999999999,-2.9,16
986,17205.0,-1.5,1.4000000000000001,-3.4000000000000004,-10.5,3.8000000000000003,-6.0,8.5,-8.100000000000001,-1.3,16
987,17222.0,-1.8,1.0,-4.2,-10.8,3.4000000000000004,-6.800000000000001,-6.4,-1.6,-1.4,16
988,17238.0,-2.4000000000000004,-0.5,-4.800000000000001,-11.4,2.0,-7.4,-42.900000000000006,16.900000000000002,-4.1,16
989,17255.0,-2.7,-1.5,-3.8000000000000003,-11.700000000000001,1.0,-6.5,-75.2,26.5,-9.8,16
990,17272.0,-2.8000000000000003,-1.7000000000000002,-2.7,-11.8,0.8,-5.4,-83.5,28.500000000000004,-12.9,16
991,17288.0,-2.1,-1.9000000000000001,-1.5,-11.200000000000001,0.6000000000000001,-4.2,-80.50000000000001,18.700000000000003,-26.200000000000003,16
992,17305.0,-3.3000000000000003,-1.3,-1.2000000000000002,-12.4,1.1,-3.9000000000000004,-56.300000000000004,10.299999999999999,-46.0,16
993,17322.0,-3.8000000000000003,-1.0,-1.6,-13.9,2.0,-4.6000000000000005,-47.60000000000001,-12.9,-51.300000000000004,16
994,17338.0,-5.9,0.4,-2.4000000000000004,-15.200000000000001,2.6,-5.0,-56.7,-26.200000000000003,-48.6,16
995,17355.0,-6.7,0.8,-2.8000000000000003,-16.1,3.0,-5.300000000000001,-96.80000000000001,-33.1,-12.0,16
996,17371.0,-4.1000000000000005,-1.5,-3.1,-13.5,1.0,-5.4,-150.4,-16.6,44.6,16
997,17388.0,-2.9000000000000004,-2.9000000000000004,-2.9000000000000004,-12.3,-0.30000000000000004,-5.2,-178.8,-0.9000000000000001,65.6,16
998,17405.0,-2.3000000000000003,-4.9,-0.9,-11.600000000000001,-1.9000000000000001,-3.1,-227.20000000000002,18.200000000000003,84.0,16
999,17421.0,-2.8000000000000003,-5.4,0.2,-12.0,-2.0,-1.7000000000000002,-249.80000000000004,-4.0,96.30000000000001,16
1000,17438.0,-2.6,-5.5,0.0,-11.700000000000001,-1.8,-1.7000000000000002,-258.3,-17.0,109.00000000000001,16
1001,17455.0,-1.5,-6.2,-0.5,-10.5,-2.0,-1.8,-280.20000000000005,-12.4,146.7,16
1002,17471.0,-0.6000000000000001,-7.4,-1.5,-9.3,-2.6,-2.4000000000000004,-307.3,32.300000000000004,182.4,16
1003,17488.0,0.1,-8.3,-1.5,-8.4,-3.3000000000000003,-2.2,-325.2,57.3,196.5,16
1004,17505.0,1.6,-9.9,-0.8,-6.6000000000000005,-4.3,-1.1,-361.90000000000003,82.8,203.60000000000002,16
1005,17521.0,1.5,-11.3,0.0,-6.300000000000001,-5.300000000000001,0.30000000000000004,-395.50000000000006,99.9,188.6,16
1006,17539.0,0.4,-11.3,1.0,-7.2,-5.1000000000000005,1.5,-407.20000000000005,113.1,181.0,16
1007,17555.0,-2.2,-9.700000000000001,3.0,-9.4,-3.3000000000000003,4.1000000000000005,-403.1,131.4,179.0,16
1008,17571.0,-2.7,-8.1,3.4000000000000004,-9.600000000000001,-1.4000000000000001,5.0,-375.00000000000006,142.0,189.0,16
1009,17588.0,-1.6,-7.300000000000001,3.2,-8.200000000000001,-0.6000000000000001,5.4,-355.40000000000003,154.5,180.70000000000002,16
1010,17605.0,-1.6,-7.2,3.5,-8.1,-0.30000000000000004,5.9,-349.1,160.4,166.60000000000002,16
1011,17621.0,-2.7,-6.1000000000000005,5.4,-9.0,0.7000000000000001,8.3,-328.0,167.3,141.5,16
1012,17638.0,-5.0,-3.5,6.4,-11.200000000000001,3.2,9.700000000000001,-289.5,198.3,140.4,16
1013,17655.0,-6.1000000000000005,-2.1,6.1000000000000005,-12.3,4.6000000000000005,9.4,-267.1,227.90000000000003,153.20000000000002,16
1014,17671.0,-4.1000000000000005,-1.0,3.5,-10.200000000000001,5.800000000000001,6.800000000000001,-240.00000000000003,282.3,183.4,16
1015,17688.0,1.7000000000000002,-3.3000000000000003,4.9,-4.3,3.5,8.3,-259.70000000000005,250.90000000000003,154.2,16
1016,17705.0,1.2000000000000002,-3.3000000000000003,6.5,-7.6000000000000005,4.7,12.0,-266.3,189.60000000000002,110.6,16
1017,17721.0,-3.9000000000000004,-0.4,9.600000000000001,-9.9,6.300000000000001,13.5,-239.5,103.10000000000001,71.8,16
1018,17738.0,-4.9,-1.0,9.4,-10.8,5.5,13.700000000000001,-176.3,78.10000000000001,112.0,16
1019,17755.0,-3.7,-0.9,8.5,-9.4,5.7,13.0,-110.30000000000001,101.50000000000001,163.00000000000003,16
1020,17771.0,-1.4000000000000001,-0.30000000000000004,8.4,-7.0,6.5,12.9,-84.9,93.2,180.70000000000002,16
1021,17788.0,2.9000000000000004,0.8,8.200000000000001,-2.4000000000000004,7.800000000000001,12.9,-68.4,18.6,157.3,16
1022,17805.0,2.3000000000000003,2.8000000000000003,6.800000000000001,-2.6,9.9,11.700000000000001,-71.7,-15.8,112.1,16
1023,17821.0,1.9000000000000001,3.1,6.300000000000001,-2.9000000000000004,10.200000000000001,11.3,-79.8,12.4,105.0,16
1024,17839.0,1.8,2.3000000000000003,6.5,-2.9000000000000004,9.4,11.700000000000001,-90.0,90.19999999999999,106.1,16
1025,17855.0,1.7000000000000002,0.6000000000000001,5.9,-2.9000000000000004,7.9,11.200000000000001,-68.80000000000001,125.00000000000001,106.70000000000002,16
1026,17871.0,2.5,0.4,5.7,-2.1,7.7,10.9,-51.50000000000001,125.80000000000001,105.4,16
1027,17888.0,4.2,0.0,3.9000000000000004,-0.4,7.4,9.0,-11.1,104.00000000000001,78.10000000000001,16
1028,17905.0,4.1000000000000005,-0.8,1.8,-0.5,6.7,6.800000000000001,19.1,97.3,46.199999999999996,16
1029,17922.0,3.5,-1.3,0.9,-1.0,6.2,5.800000000000001,27.400000000000002,101.0,38.50000000000001,16
1030,17938.0,2.4000000000000004,-2.2,0.30000000000000004,-2.2,5.4,5.0,35.8,99.30000000000001,42.3,16
1031,17955.0,2.7,-1.0,0.2,-1.9000000000000001,6.7,4.5,38.7,76.2,65.3,16
1032,17971.0,5.4,-1.1,-0.1,1.0,6.800000000000001,4.1000000000000005,39.50000000000001,46.1,54.699999999999996,16
1033,17988.0,5.5,-1.3,-0.8,1.1,6.6000000000000005,3.3000000000000003,36.5,32.400000000000006,30.5,16
1034,18005.0,3.3000000000000003,-1.3,-1.5,-1.1,6.6000000000000005,2.5,22.8,35.5,0.1,16
1035,18021.0,1.0,-2.2,-0.4,-3.4000000000000004,5.800000000000001,3.5,15.8,47.0,6.0,16
1036,18038.0,0.4,-2.2,0.30000000000000004,-4.0,5.800000000000001,4.1000000000000005,21.300000000000004,46.800000000000004,15.299999999999999,16
1037,18055.0,0.5,-1.7000000000000002,0.6000000000000001,-3.9000000000000004,6.4,4.3,49.50000000000001,25.7,27.5,16
1038,18071.0,0.8,-1.4000000000000001,-0.6000000000000001,-3.5,6.800000000000001,2.9000000000000004,69.7,-4.5,25.900000000000002,16
1039,18088.0,0.6000000000000001,-0.9,-1.1,-3.6,7.300000000000001,2.2,69.4,-11.000000000000002,24.1,16
1040,18105.0,-0.2,0.1,-1.0,-4.4,8.4,2.2,61.10000000000001,-4.800000000000001,26.1,16
1041,18121.0,-0.5,0.9,-0.9,-4.6000000000000005,9.4,2.1,51.1,-9.899999999999999,30.000000000000004,16
1042,18138.0,0.1,1.2000000000000002,-1.2000000000000002,-3.2,10.100000000000001,1.8,41.6,-9.3,32.2,16
1043,18155.0,0.9,1.8,-0.9,-3.1,10.4,2.0,17.1,9.600000000000001,26.799999999999997,16
1044,18171.0,0.2,2.0,-0.4,-3.8000000000000003,10.700000000000001,2.5,2.1,33.0,20.400000000000002,16
1045,18188.0,-1.6,2.2,0.2,-5.5,10.8,3.0,6.8,30.1,20.0,16
1046,18205.0,-2.1,2.6,0.30000000000000004,-6.0,11.3,3.1,14.400000000000002,20.3,24.7,16
1047,18221.0,-0.7000000000000001,3.2,0.2,-4.5,12.0,2.9000000000000004,31.2,2.7,35.2,16
1048,18238.0,1.3,2.8000000000000003,-0.2,-2.5,11.700000000000001,2.4000000000000004,36.8,-3.4,17.9,16
1049,18255.0,1.0,2.6,-1.1,-2.7,11.5,1.4000000000000001,32.2,-12.9,-5.500000000000001,16
1050,18272.0,-0.9,2.0,-2.7,-4.7,10.9,-0.2,-5.1000000000000005,-10.0,-36.9,16
1051,18288.0,-3.2,1.6,-1.0,-7.2,10.4,1.6,-51.50000000000001,21.200000000000003,-26.000000000000004,16
1052,18305.0,-2.7,1.3,0.5,-6.7,10.100000000000001,3.1,-58.900000000000006,29.600000000000005,-12.9,16
1053,18321.0,0.2,0.4,1.7000000000000002,-3.8000000000000003,9.200000000000001,4.5,-40.0,14.800000000000002,-9.600000000000001,16
1054,18338.0,1.9000000000000001,-0.5,0.5,-2.2,8.200000000000001,3.4000000000000004,-11.700000000000001,-8.5,-43.900000000000006,16
1055,18355.0,0.8,-1.1,-1.3,-3.5,7.4,1.5,-8.4,-1.0,-66.0,16
1056,18371.0,-0.4,-1.8,-1.4000000000000001,-4.800000000000001,6.800000000000001,1.4000000000000001,-15.6,11.6,-62.6,16
1057,18388.0,-1.3,-2.0,-0.7000000000000001,-5.9,6.4,2.2,-22.2,33.50000000000001,-31.099999999999998,16
1058,18410.0,0.1,-2.7,-0.5,-4.5,5.6000000000000005,2.4000000000000004,-14.300000000000002,26.300000000000004,-4.2,16
1059,18435.0,0.6000000000000001,-3.2,-0.7000000000000001,-4.0,5.2,2.2,-7.8,26.6,4.6,16
1060,18441.0,0.6000000000000001,-3.2,-0.7000000000000001,-4.0,5.2,2.2,-7.8,26.6,4.6,16
1061,18475.0,-0.2,-3.6,-1.5,-4.800000000000001,4.800000000000001,1.3,-5.0,25.900000000000002,30.599999999999998,16
1062,18488.0,0.1,-3.5,-1.5,-4.4,4.800000000000001,1.3,-7.500000000000001,23.5,37.0,16
1063,18586.0,0.8,2.3000000000000003,-0.7000000000000001,-3.3000000000000003,10.8,2.1,0.30000000000000004,-15.899999999999999,10.299999999999999,16
1064,18661.0,1.0,4.9,1.7000000000000002,-3.0,13.5,4.7,-1.2000000000000002,-10.4,-21.400000000000002,16
1065,18674.0,0.0,4.800000000000001,1.4000000000000001,-4.1000000000000005,13.4,4.5,-0.9000000000000001,-23.800000000000004,-34.7,16
1066,18688.0,-1.3,4.800000000000001,1.8,-5.4,13.3,4.800000000000001,-6.4,-22.4,-39.0,16
1067,18705.0,-2.7,3.5,3.9000000000000004,-7.0,12.100000000000001,7.1000000000000005,-19.300000000000004,3.1,-25.300000000000004,16
1068,18722.0,-1.7000000000000002,1.4000000000000001,5.300000000000001,-6.0,9.9,8.5,-9.4,0.5,-10.9,16
1069,18738.0,-0.7000000000000001,-0.8,4.5,-5.1000000000000005,7.7,7.800000000000001,13.000000000000002,-7.500000000000001,-13.399999999999999,16
1070,18755.0,-0.9,-1.3,3.7,-5.300000000000001,7.1000000000000005,7.0,23.5,-5.0,-13.5,16
1071,18771.0,-1.5,-1.8,1.9000000000000001,-5.9,6.7,5.0,45.400000000000006,-5.2,-2.1,16
1072,18788.0,0.1,-2.2,-0.4,-4.3,6.300000000000001,2.6,61.10000000000001,-14.100000000000001,14.5,16
1073,18805.0,0.9,-2.4000000000000004,-1.4000000000000001,-3.5,6.2,1.5,60.900000000000006,-14.700000000000001,16.8,16
1074,18821.0,2.2,-2.3000000000000003,-3.0,-2.1,6.300000000000001,-0.2,44.5,-10.0,6.4,16
1075,18838.0,1.2000000000000002,-2.0,-3.5,-3.1,6.6000000000000005,-0.8,18.0,-7.6,-9.100000000000001,16
1076,18855.0,0.9,-2.2,-3.5,-3.4000000000000004,6.5,-0.9,5.300000000000001,-9.5,-7.9,16
1077,18875.0,1.7000000000000002,-2.6,-2.7,-2.6,6.0,0.0,-18.8,-11.900000000000002,-0.7,16
1078,18912.0,2.2,-2.9000000000000004,0.1,-2.0,5.5,2.9000000000000004,-25.7,-20.400000000000002,-4.9,16
1079,18921.0,2.0,-3.1,0.5,-2.2,5.4,3.4000000000000004,-21.900000000000002,-20.2,-7.699999999999999,16
1080,18938.0,0.8,-2.3000000000000003,0.9,-3.4000000000000004,6.1000000000000005,3.9000000000000004,-10.8,-25.5,-13.100000000000001,16
1081,18955.0,-0.2,-1.2000000000000002,1.2000000000000002,-4.4,7.2,4.3,-1.2000000000000002,-26.300000000000004,-7.300000000000001,16
1082,18971.0,-0.6000000000000001,-0.6000000000000001,1.6,-4.800000000000001,7.800000000000001,4.6000000000000005,4.300000000000001,-27.9,-2.9,16
1083,18988.0,-0.30000000000000004,0.5,1.6,-4.5,8.9,4.7,17.0,-30.200000000000003,6.8,16
1084,19005.0,0.7000000000000001,1.5,0.4,-3.4000000000000004,9.9,3.5,20.2,-21.300000000000004,4.300000000000001,16
1085,19022.0,0.30000000000000004,1.6,-0.2,-3.8000000000000003,10.0,2.8000000000000003,15.000000000000002,-13.200000000000003,-3.0,16
1086,19038.0,-1.4000000000000001,2.2,-0.7000000000000001,-5.6000000000000005,10.600000000000001,2.3000000000000003,-9.100000000000001,4.5,-7.6,16
1087,19055.0,-2.1,3.0,0.0,-6.300000000000001,11.4,3.2,-31.3,21.6,9.4,16
1088,19071.0,-1.9000000000000001,3.3000000000000003,0.8,-6.1000000000000005,11.8,4.0,-35.0,29.800000000000004,18.6,16
1089,19088.0,-1.1,4.3,1.9000000000000001,-5.2,12.8,5.1000000000000005,-24.200000000000003,26.700000000000003,22.2,16
1090,19105.0,-0.7000000000000001,4.2,1.2000000000000002,-4.800000000000001,12.700000000000001,4.4,-4.4,16.8,17.200000000000003,16
1091,19122.0,-0.1,4.3,0.6000000000000001,-4.2,12.8,3.8000000000000003,1.1,1.4,3.8,16
1092,19139.0,-0.30000000000000004,3.8000000000000003,0.0,-4.4,12.4,3.2,0.7,-6.1000000000000005,-6.500000000000001,16
1093,19155.0,-1.5,1.4000000000000001,-0.9,-5.7,10.0,2.3000000000000003,-13.5,0.8,-18.5,16
1094,19171.0,-2.9000000000000004,-0.1,-0.2,-7.2,8.5,3.1,-26.400000000000006,12.4,-10.200000000000001,16
1095,19188.0,-2.3000000000000003,-0.30000000000000004,0.1,-6.5,8.3,3.4000000000000004,-22.8,11.6,-2.1,16
1096,19205.0,-0.2,-0.8,-0.5,-4.4,7.7,2.8000000000000003,-7.300000000000001,0.7,-3.0,16
1097,19223.0,0.4,-1.3,-1.7000000000000002,-3.9000000000000004,7.1000000000000005,1.6,-5.300000000000001,6.1000000000000005,-15.5,16
1098,19238.0,-0.1,-1.8,-2.1,-4.4,6.7,1.2000000000000002,-12.0,14.200000000000001,-18.6,16
1099,19255.0,-0.5,-2.4000000000000004,-2.1,-4.9,6.0,1.3,-28.800000000000004,21.400000000000002,-14.0,16
1100,19271.0,-0.1,-2.7,-1.4000000000000001,-4.5,5.6000000000000005,2.0,-41.1,22.9,-1.6,16
1101,19288.0,0.4,-2.8000000000000003,-1.0,-4.1000000000000005,5.5,2.5,-43.00000000000001,23.3,3.4,16
1102,19305.0,0.4,-3.2,-0.6000000000000001,-4.1000000000000005,5.0,2.9000000000000004,-40.7,29.0,7.0,16
1103,19321.0,-0.2,-3.2,-0.4,-4.7,5.0,3.1,-35.5,26.1,12.5,16
1104,19340.0,0.1,-3.1,-0.2,-4.1000000000000005,5.2,3.5,-32.7,18.5,16.5,16
1105,19355.0,0.7000000000000001,-2.5,-0.1,-3.7,5.6000000000000005,3.6,-24.900000000000002,10.5,24.3,16
1106,19372.0,1.6,-2.1,0.1,-2.8000000000000003,6.0,3.8000000000000003,-20.7,18.5,28.3,16
1107,19388.0,1.8,-1.7000000000000002,0.30000000000000004,-2.3000000000000003,6.800000000000001,4.1000000000000005,-11.900000000000002,22.2,22.6,16
1108,19405.0,1.9000000000000001,-1.0,0.4,-2.4000000000000004,7.1000000000000005,4.1000000000000005,-4.4,21.400000000000002,16.1,16
1109,19421.0,0.8,0.1,0.4,-3.5,8.3,4.0,8.8,17.1,3.8,16
1110,19438.0,-0.2,1.1,0.5,-4.5,9.200000000000001,4.1000000000000005,20.900000000000002,14.900000000000002,2.3,16
1111,19455.0,-0.30000000000000004,1.1,0.6000000000000001,-4.6000000000000005,9.3,4.2,29.900000000000006,9.5,1.8000000000000003,16
1112,19471.0,0.4,1.7000000000000002,-0.9,-3.9000000000000004,10.0,2.5,44.300000000000004,-0.2,-3.4,16
1113,19488.0,0.4,1.9000000000000001,-1.8,-3.9000000000000004,10.200000000000001,1.5,25.4,7.200000000000001,-11.3,16
1114,19505.0,-0.2,2.5,-1.6,-5.0,11.100000000000001,2.1,8.8,10.5,-11.5,16
1115,19521.0,-0.9,3.0,-0.5,-5.300000000000001,11.3,2.8000000000000003,-15.8,15.000000000000002,2.3,16
1116,19538.0,-0.30000000000000004,4.6000000000000005,0.9,-4.7,12.9,4.2,-17.200000000000003,7.300000000000001,10.4,16
1117,19555.0,0.0,4.4,0.9,-4.4,12.8,4.3,-18.6,-5.0,0.8,16
1118,19572.0,-0.8,4.4,1.4000000000000001,-5.1000000000000005,12.700000000000001,4.9,-24.8,-6.9,-3.9,16
1119,19588.0,-1.8,3.4000000000000004,2.9000000000000004,-6.2,11.700000000000001,6.5,-33.2,-17.7,-4.1,16
1120,19605.0,-1.2000000000000002,1.3,4.4,-5.5,9.600000000000001,8.1,-27.099999999999998,-25.0,-0.7,16
1121,19621.0,-0.8,0.4,4.6000000000000005,-5.1000000000000005,8.700000000000001,8.4,-16.8,-28.500000000000004,-1.6,16
1122,19638.0,0.7000000000000001,-1.7000000000000002,3.3000000000000003,-3.6,6.6000000000000005,7.2,9.4,-22.3,-6.300000000000001,16
1123,19655.0,-0.1,-2.5,1.9000000000000001,-4.4,5.800000000000001,5.7,25.0,-6.9,-17.7,16
1124,19671.0,-0.9,-2.4000000000000004,1.5,-5.2,5.9,5.300000000000001,31.7,-6.8,-16.200000000000003,16
1125,19688.0,-0.2,-2.2,0.5,-4.5,6.1000000000000005,4.2,45.9,-22.4,-1.3,16
1126,19705.0,1.8,-2.2,-0.9,-2.5,6.2,2.7,49.199999999999996,-19.5,1.5,16
1127,19721.0,1.2000000000000002,-2.1,-1.6,-3.1,6.2,1.9000000000000001,40.800000000000004,-7.500000000000001,-5.4,16
1128,19741.0,0.8,-2.0,-1.7000000000000002,-3.5,6.4,1.7000000000000002,37.400000000000006,-10.200000000000001,-5.4,16
1129,19755.0,1.3,-2.1,-1.9000000000000001,-2.9000000000000004,6.300000000000001,1.5,32.8,-20.1,-1.7,16
1130,19771.0,1.7000000000000002,-2.1,-1.7000000000000002,-2.6,6.300000000000001,1.6,23.5,-28.400000000000002,-4.0,16
1131,19788.0,1.6,-2.2,-1.6,-2.6,6.2,1.6,17.9,-26.000000000000004,-4.0,16
