,ms,accelX,accelY,accelZ,accelWithGX,accelWithGY,accelWithGZ,rotRateAlpha,rotRateBeta,rotRateGamma,interval
0,0.0,0.0,0.0,0.0,0.5,3.8000000000000003,8.8,-7.300000000000001,18.6,9.200000000000001,16
1,17.0,0.0,0.0,0.0,0.6000000000000001,3.7,8.8,-7.300000000000001,18.6,9.200000000000001,16
2,34.0,0.1,-0.1,0.0,0.6000000000000001,3.7,8.8,-9.9,6.6000000000000005,8.600000000000001,16
3,50.0,0.2,0.2,-0.1,0.9,4.1000000000000005,8.5,-4.2,-8.5,0.7,16
4,67.0,0.2,0.4,-0.6000000000000001,1.0,4.4,7.9,0.7,-5.500000000000001,0.0,16
5,84.0,0.2,0.5,-0.7000000000000001,1.0,4.4,7.9,0.7,-5.500000000000001,0.0,16
6,100.0,-0.2,0.6000000000000001,0.1,0.4,4.6000000000000005,9.1,-10.600000000000001,14.700000000000001,5.4,16
7,117.0,-0.5,0.4,1.1,0.1,4.3,9.8,-15.7,10.8,8.600000000000001,16
8,134.0,-0.5,0.2,1.2000000000000002,0.1,4.3,9.8,-15.7,10.8,8.600000000000001,16
9,150.0,-0.8,-0.5,1.0,-0.30000000000000004,3.5,9.8,-13.200000000000001,-3.9,7.1000000000000005,16
10,167.0,-0.7000000000000001,-0.30000000000000004,0.4,-0.2,3.7,9.3,-5.9,-12.000000000000002,3.0000000000000004,16
11,184.0,-0.7000000000000001,-0.1,-0.1,-0.2,4.0,8.3,1.0,-16.3,0.0,16
12,200.0,-0.6000000000000001,0.30000000000000004,-1.2000000000000002,-0.1,4.3,7.6000000000000005,1.7,-11.700000000000001,1.8,16
13,217.0,-0.6000000000000001,0.6000000000000001,-1.1,-0.2,4.5,7.800000000000001,-4.3999999999999995,-1.9,3.7000000000000006,16
14,234.0,-0.7000000000000001,0.6000000000000001,-0.6000000000000001,-0.4,4.4,8.5,-10.1,1.6,5.4,16
15,250.0,-0.8,0.30000000000000004,-0.1,-0.4,4.2,8.700000000000001,-9.600000000000001,-3.1,5.4,16
16,270.0,-0.5,0.30000000000000004,-0.1,-0.30000000000000004,4.3,8.700000000000001,-5.9,-4.300000000000001,3.4,16
17,284.0,-0.6000000000000001,0.4,-0.1,-0.5,4.4,8.6,0.1,-1.2000000000000002,2.7,16
18,300.0,-0.8,0.4,-0.4,-0.6000000000000001,4.4,8.3,3.5,2.6,5.300000000000001,16
19,317.0,-0.9,0.30000000000000004,-0.5,-0.6000000000000001,4.4,8.3,3.5,2.6,5.300000000000001,16
20,334.0,-0.9,0.0,-0.30000000000000004,-0.8,3.8000000000000003,8.6,1.4,7.6,11.2,16
21,350.0,-0.8,-0.4,0.0,-0.7000000000000001,3.6,8.700000000000001,6.000000000000001,5.9,10.700000000000001,16
22,367.0,-0.7000000000000001,-0.5,0.0,-0.7000000000000001,3.6,8.700000000000001,6.000000000000001,5.9,10.700000000000001,16
23,384.0,-0.4,0.1,-0.30000000000000004,-0.30000000000000004,4.6000000000000005,8.1,25.700000000000003,-2.0,2.5,16
24,400.0,-0.30000000000000004,1.0,-1.0,-0.2,5.4,7.300000000000001,30.7,-2.5,1.7,16
25,417.0,-0.30000000000000004,1.3,-1.6,-0.2,5.4,7.300000000000001,30.7,-2.5,1.7,16
26,434.0,-0.5,1.4000000000000001,-2.0,-0.9,5.7,7.0,-1.0999999999999999,33.900000000000006,21.3,16
27,451.0,-1.3,1.1,0.30000000000000004,-1.6,5.300000000000001,9.3,-32.6,49.8,35.8,16
28,467.0,-1.6,0.7000000000000001,1.9000000000000001,-1.6,5.300000000000001,9.3,-32.6,49.8,35.8,16
29,484.0,-1.7000000000000002,-0.4,3.5,-1.9000000000000001,3.5,12.0,-36.1,3.7000000000000006,45.5,16
30,500.0,-1.5,-0.8,3.2,-1.9000000000000001,3.5,12.0,-36.1,3.7000000000000006,45.5,16
31,517.0,-0.30000000000000004,-0.8,0.7000000000000001,-0.1,3.6,8.4,1.9,-33.900000000000006,35.9,16
32,534.0,0.2,0.0,-1.0,0.30000000000000004,4.3,7.800000000000001,-4.2,-15.9,32.1,16
33,551.0,0.30000000000000004,0.4,-0.9,0.30000000000000004,4.3,7.800000000000001,-4.2,-15.9,32.1,16
34,567.0,0.1,0.30000000000000004,0.0,-0.1,4.2,9.1,-19.9,18.900000000000002,29.200000000000003,16
35,584.0,-0.30000000000000004,0.1,0.4,-0.4,4.1000000000000005,9.200000000000001,-20.0,16.400000000000002,25.700000000000003,16
36,600.0,-0.5,0.1,0.30000000000000004,-0.4,4.1000000000000005,9.200000000000001,-20.0,16.400000000000002,25.700000000000003,16
37,617.0,-0.7000000000000001,0.1,0.0,-0.8,4.0,8.8,-21.700000000000003,4.5,19.1,16
38,634.0,-0.8,0.2,-0.2,-0.9,4.0,8.700000000000001,-20.6,0.30000000000000004,18.0,16
39,651.0,-0.8,0.2,-0.30000000000000004,-0.9,4.0,8.700000000000001,-20.6,0.30000000000000004,18.0,16
40,667.0,-0.9,0.30000000000000004,-0.6000000000000001,-0.9,4.1000000000000005,8.1,-10.0,-7.1000000000000005,15.299999999999999,16
41,684.0,-0.8,0.4,-0.9,-0.9,4.1000000000000005,8.1,-3.8,-7.2,13.9,16
42,701.0,-0.9,0.4,-1.4000000000000001,-0.9,4.1000000000000005,7.7,-3.8,-7.2,13.9,16
43,717.0,-1.1,0.5,-1.8,-1.1,4.2,6.9,4.1000000000000005,-4.5,16.900000000000002,16
44,734.0,-1.1,0.5,-1.9000000000000001,-1.1,4.2,6.9,3.9,-3.6,21.1,16
45,750.0,-1.1,0.30000000000000004,-2.3000000000000003,-1.1,4.1000000000000005,6.6000000000000005,3.9,-3.6,21.1,16
46,767.0,-0.8,0.30000000000000004,-2.4000000000000004,-0.8,4.1000000000000005,6.4,-6.9,-3.6,26.9,16
47,784.0,-0.9,0.30000000000000004,-2.2,-0.8,4.1000000000000005,6.4,-6.9,-3.6,26.9,16
48,801.0,-0.8,0.2,-1.8,-0.6000000000000001,3.7,7.2,-23.3,5.4,34.7,16
49,817.0,-0.5,-0.2,-0.8,-0.4,3.4000000000000004,8.200000000000001,-27.400000000000002,11.9,31.900000000000002,16
50,834.0,-0.4,-0.30000000000000004,-0.2,-0.4,3.4000000000000004,8.200000000000001,-27.400000000000002,11.9,31.900000000000002,16
51,850.0,-0.30000000000000004,-0.4,0.4,-0.1,3.3000000000000003,8.9,-7.0,7.2,14.500000000000002,16
52,867.0,-0.1,-0.1,-0.2,-0.2,3.6,8.4,5.0,4.1000000000000005,5.2,16
53,884.0,-0.2,0.2,-0.4,-0.2,3.6,8.4,5.0,4.1000000000000005,5.2,16
54,900.0,-0.6000000000000001,0.7000000000000001,-0.4,-0.7000000000000001,4.4,8.3,10.5,8.1,-2.9,16
55,917.0,-0.7000000000000001,0.9,-0.5,-0.6000000000000001,4.6000000000000005,8.1,10.3,6.8,-1.8,16
56,933.0,-0.4,1.1,-0.5,-0.6000000000000001,4.6000000000000005,8.1,10.3,6.8,-1.8,16
57,950.0,0.2,1.3,-0.4,0.2,5.0,8.3,1.7,5.4,-1.5000000000000002,16
58,967.0,0.30000000000000004,1.3,-0.30000000000000004,0.2,5.2,8.3,-3.4,9.1,-3.4,16
59,983.0,0.4,1.5,-0.30000000000000004,0.2,5.2,8.3,-3.4,9.1,-3.4,16
60,1000.0,0.5,1.8,0.2,0.5,5.6000000000000005,9.200000000000001,-21.6,14.3,-8.9,16
61,1017.0,0.7000000000000001,1.9000000000000001,1.4000000000000001,0.5,5.6000000000000005,10.200000000000001,-28.6,22.900000000000002,-10.5,16
62,1034.0,0.7000000000000001,1.8,1.8,0.5,5.6000000000000005,10.200000000000001,-28.6,22.900000000000002,-10.5,16
63,1050.0,0.5,2.0,2.3000000000000003,0.1,5.7,11.100000000000001,-28.8,24.3,-18.5,16
64,1067.0,0.4,2.2,2.3000000000000003,0.1,5.7,11.100000000000001,-34.0,31.5,-16.3,16
65,1084.0,0.2,2.9000000000000004,3.2,-0.7000000000000001,6.4,13.4,-44.6,57.2,-5.500000000000001,16
66,1100.0,-0.4,2.3000000000000003,5.7,-1.3,5.2,15.100000000000001,-39.699999999999996,68.3,8.700000000000001,16
67,1117.0,-0.6000000000000001,1.4000000000000001,6.300000000000001,-1.3,5.2,15.100000000000001,-39.699999999999996,68.3,8.700000000000001,16
68,1134.0,-0.6000000000000001,-0.5,5.0,-1.4000000000000001,2.6,12.9,5.8,17.599999999999998,19.700000000000003,16
69,1150.0,0.0,-0.5,2.1,-0.7000000000000001,3.1,11.100000000000001,1.3,-16.900000000000002,9.600000000000001,16
70,1168.0,0.30000000000000004,-0.1,1.5,-0.7000000000000001,3.1,11.100000000000001,1.3,-16.900000000000002,9.600000000000001,16
71,1184.0,0.6000000000000001,0.2,2.8000000000000003,-0.1,3.2,12.8,-30.7,-34.900000000000006,-11.6,16
72,1200.0,0.9,-0.4,3.3000000000000003,0.30000000000000004,2.7,12.3,-8.0,-44.9,-16.2,16
73,1217.0,1.0,-0.6000000000000001,2.4000000000000004,0.30000000000000004,2.7,12.3,-8.0,-44.9,-16.2,16
74,1234.0,0.8,-0.8,-0.6000000000000001,0.2,2.7,7.800000000000001,35.8,-61.0,-30.799999999999997,16
75,1250.0,0.1,-0.4,-3.0,-0.4,3.1,6.0,30.799999999999997,-59.400000000000006,-31.099999999999998,16
76,1267.0,-0.5,-0.1,-3.8000000000000003,-0.4,3.1,6.0,30.799999999999997,-59.400000000000006,-31.099999999999998,16
77,1284.0,-1.6,1.0,-3.7,-1.8,4.3,6.1000000000000005,-29.000000000000004,-27.400000000000002,4.300000000000001,16
78,1300.0,-1.9000000000000001,0.2,-2.0,-1.8,4.3,6.1000000000000005,-53.400000000000006,-19.700000000000003,29.1,16
79,1317.0,-1.6,-0.6000000000000001,-1.4000000000000001,-1.8,3.1,7.5,-53.400000000000006,-19.700000000000003,29.1,16
80,1334.0,-0.9,-2.0,-1.0,-0.8,0.8,8.1,-25.700000000000003,-32.7,49.3,16
81,1350.0,-1.1,-2.2,-1.4000000000000001,-0.8,0.8,8.1,-25.700000000000003,-32.7,49.3,16
82,1367.0,-2.2,-2.0,-2.0,-1.8,1.5,7.300000000000001,20.0,-53.50000000000001,59.20000000000001,16
83,1384.0,-2.1,-0.8,-2.2,-1.1,2.6,7.1000000000000005,24.8,-74.4,74.2,16
84,1401.0,-1.6,-0.2,-2.1,-1.1,2.6,7.1000000000000005,24.8,-74.4,74.2,16
85,1417.0,-0.5,-0.6000000000000001,-1.6,1.3,2.0,7.9,4.5,-104.4,80.7,16
86,1434.0,0.4,-1.0,-0.8,2.3000000000000003,2.2,8.3,3.6,-127.2,69.4,16
87,1451.0,0.7000000000000001,-0.6000000000000001,-0.6000000000000001,2.3000000000000003,2.2,8.3,3.6,-127.2,69.4,16
88,1467.0,0.8,0.9,-0.6000000000000001,3.6,4.4,8.3,-1.0,-165.4,39.1,16
89,1484.0,1.3,2.1,0.1,4.9,4.9,9.4,-19.3,-156.9,36.9,16
90,1500.0,2.2,1.9000000000000001,1.4000000000000001,4.9,4.9,9.4,-19.3,-156.9,36.9,16
91,1517.0,1.3,0.4,3.5,5.0,2.7,12.700000000000001,-22.900000000000002,-81.0,46.300000000000004,16
92,1534.0,1.2000000000000002,-0.5,4.2,5.2,2.0,12.5,-3.8,-67.0,49.2,16
93,1550.0,1.1,-0.7000000000000001,3.6,5.2,2.0,12.5,-3.8,-67.0,49.2,16
94,1567.0,1.3,-1.2000000000000002,1.8,5.5,1.5,9.3,30.200000000000003,-44.00000000000001,32.300000000000004,16
95,1584.0,1.1,-1.0,0.5,5.5,1.5,9.3,34.0,-23.8,26.3,16
96,1600.0,-1.8,-0.1,-2.2,3.6,2.2,7.0,34.0,-23.8,26.3,16
97,1617.0,-1.1,0.9,-2.3000000000000003,3.7,3.2,6.800000000000001,-4.800000000000001,47.6,84.80000000000001,16
98,1634.0,-0.5,0.6000000000000001,-1.2000000000000002,3.7,3.2,6.800000000000001,-4.800000000000001,47.6,84.80000000000001,16
99,1651.0,1.6,-1.7000000000000002,3.0,6.4,-0.30000000000000004,12.3,-17.1,-27.8,98.30000000000001,16
100,1667.0,1.9000000000000001,-3.0,3.9000000000000004,6.5,-1.1,12.100000000000001,-6.8,-81.8,79.39999999999999,16
101,1684.0,1.7000000000000002,-3.2,3.5,6.5,-1.1,12.100000000000001,-6.8,-81.8,79.39999999999999,16
102,1700.0,1.2000000000000002,-3.1,1.1,6.5,-1.1,8.200000000000001,45.800000000000004,-78.10000000000001,47.7,16
103,1717.0,1.8,-2.8000000000000003,-1.0,7.6000000000000005,-0.7000000000000001,6.9,84.5,-24.1,35.1,16
104,1734.0,2.5,-2.5,-1.5,7.6000000000000005,-0.7000000000000001,6.9,84.5,-24.1,35.1,16
105,1752.0,1.9000000000000001,-1.3,-2.2,6.5,1.5,5.800000000000001,113.4,120.7,12.9,16
106,1767.0,0.9,-0.6000000000000001,-2.1,5.5,1.9000000000000001,6.9,84.0,174.10000000000002,19.200000000000003,16
107,1784.0,0.7000000000000001,-0.9,-0.6000000000000001,5.5,1.9000000000000001,6.9,84.0,174.10000000000002,19.200000000000003,16
108,1800.0,-0.7000000000000001,-1.5,1.0,3.4000000000000004,1.0,9.5,34.0,47.300000000000004,7.2,16
109,1817.0,-0.8,-1.9000000000000001,-0.2,3.3000000000000003,1.1,7.800000000000001,41.300000000000004,14.100000000000001,-9.0,16
110,1833.0,-0.9,-1.6,-1.4000000000000001,3.3000000000000003,1.1,7.800000000000001,41.300000000000004,14.100000000000001,-9.0,16
111,1850.0,-1.3,-0.6000000000000001,-3.8000000000000003,2.8000000000000003,3.0,4.5,46.1,25.900000000000002,-13.0,16
112,1869.0,-1.0,0.9,-3.9000000000000004,3.0,4.2,4.6000000000000005,37.5,17.9,-2.8,16
113,1884.0,-0.8,1.2000000000000002,-3.6,3.0,4.2,4.6000000000000005,37.5,17.9,-2.8,16
114,1900.0,-0.30000000000000004,0.5,-3.2,3.7,3.6,5.300000000000001,4.1000000000000005,-4.7,7.500000000000001,16
115,1917.0,-0.30000000000000004,0.1,-2.8000000000000003,3.7,3.6,5.300000000000001,-13.5,-7.0,8.799999999999999,16
116,1934.0,-0.8,-0.5,-2.5,3.2,2.9000000000000004,6.0,-26.700000000000003,-7.8,7.8,16
117,1950.0,-0.6000000000000001,0.1,-1.5,3.6,3.2,7.2,-31.3,-14.200000000000001,5.0,16
118,1967.0,-0.30000000000000004,0.1,-0.8,3.6,3.2,7.2,-31.3,-14.200000000000001,5.0,16
119,1984.0,0.1,-0.9,0.5,4.1000000000000005,1.7000000000000002,8.6,-10.8,-39.6,-22.000000000000004,16
120,2000.0,-0.30000000000000004,-1.5,0.0,4.0,1.6,8.0,3.7000000000000006,-70.10000000000001,-48.400000000000006,16
121,2017.0,-0.2,-1.4000000000000001,-0.30000000000000004,4.0,1.6,8.0,3.7000000000000006,-70.10000000000001,-48.400000000000006,16
122,2034.0,0.5,-0.7000000000000001,-0.4,5.800000000000001,3.0,7.9,23.400000000000002,-98.0,-76.0,16
123,2050.0,4.800000000000001,0.1,0.2,9.3,4.0,8.3,29.200000000000003,-61.599999999999994,-88.5,16
124,2067.0,4.4,0.9,0.9,9.3,4.0,8.3,29.200000000000003,-61.599999999999994,-88.5,16
125,2083.0,-0.30000000000000004,1.5,3.8000000000000003,3.9000000000000004,5.1000000000000005,12.3,21.400000000000002,63.0,-72.5,16
126,2100.0,-0.5,1.2000000000000002,4.7,3.9000000000000004,5.1000000000000005,12.3,21.400000000000002,63.0,-72.5,16
127,2117.0,-0.9,2.0,4.4,3.4000000000000004,5.800000000000001,12.100000000000001,8.3,37.6,-67.1,16
128,2134.0,-1.8,5.300000000000001,3.2,2.1,10.0,9.700000000000001,-12.000000000000002,-52.6,-56.0,16
129,2150.0,-1.0,5.1000000000000005,0.1,4.0,8.6,7.9,-12.100000000000001,-64.9,-7.0,16
130,2167.0,0.9,3.1,0.0,4.0,8.6,7.9,-12.100000000000001,-64.9,-7.0,16
131,2183.0,1.9000000000000001,-1.3,0.5,6.2,1.7000000000000002,8.8,-23.0,30.799999999999997,32.0,16
132,2200.0,1.8,-2.8000000000000003,1.2000000000000002,6.2,1.7000000000000002,8.8,-33.5,61.1,19.0,16
133,2217.0,1.5,-3.3000000000000003,1.5,4.6000000000000005,1.4000000000000001,9.0,-47.400000000000006,44.2,-7.6,16
134,2234.0,-0.6000000000000001,-1.5,0.5,3.1,2.6,8.6,-53.6,24.5,-8.3,16
135,2250.0,-1.4000000000000001,-0.5,-0.2,3.1,2.6,8.6,-33.5,21.6,6.6000000000000005,16
136,2267.0,-1.6,-0.4,-1.3,2.0,3.5,6.300000000000001,-5.2,32.300000000000004,15.8,16
137,2284.0,-1.9000000000000001,0.0,-3.1,2.2,3.3000000000000003,4.6000000000000005,8.0,29.300000000000004,24.5,16
138,2304.0,-1.5,-0.7000000000000001,-4.5,2.4000000000000004,2.7,3.9000000000000004,0.9,38.800000000000004,33.2,16
139,2317.0,-1.4000000000000001,-1.1,-4.0,2.2,1.8,5.300000000000001,-14.700000000000001,71.0,40.2,16
140,2333.0,-1.7000000000000002,-2.3000000000000003,-1.8,1.8,0.7000000000000001,6.800000000000001,-13.4,95.80000000000001,42.1,16
141,2350.0,-1.8,-2.9000000000000004,-1.6,1.8,0.7000000000000001,6.800000000000001,-13.4,95.80000000000001,42.1,16
142,2367.0,-1.3,-2.9000000000000004,-2.0,2.1,0.30000000000000004,6.5,2.8,103.80000000000001,28.400000000000002,16
143,2384.0,-0.9,-2.8000000000000003,-2.1,2.0,0.4,6.9,-2.7,93.7,19.400000000000002,16
144,2400.0,-0.7000000000000001,-2.7,-1.5,2.0,0.4,6.9,-2.7,93.7,19.400000000000002,16
145,2417.0,-0.5,-2.8000000000000003,-0.8,1.9000000000000001,0.2,8.0,-16.3,108.0,-1.6,16
146,2434.0,-0.1,-2.7,-1.0,2.1,0.5,8.0,-24.6,108.10000000000001,-22.6,16
147,2450.0,0.1,-2.1,-0.8,2.1,0.5,8.0,-24.6,108.10000000000001,-22.6,16
148,2467.0,0.1,-0.6000000000000001,0.4,1.9000000000000001,2.5,10.200000000000001,-29.800000000000004,41.4,-50.9,16
149,2485.0,0.6000000000000001,-0.1,2.3000000000000003,2.2,2.6,11.600000000000001,-19.9,-5.0,-50.0,16
150,2500.0,0.7000000000000001,-0.30000000000000004,2.8000000000000003,2.2,2.3000000000000003,12.600000000000001,-6.4,-40.2,-56.1,16
151,2517.0,0.6000000000000001,-0.4,3.9000000000000004,2.3000000000000003,2.4000000000000004,13.100000000000001,12.3,-71.4,-66.1,16
152,2533.0,0.5,-0.4,4.0,2.3000000000000003,2.4000000000000004,13.100000000000001,12.3,-71.4,-66.1,16
153,2550.0,0.2,0.0,4.1000000000000005,2.2,3.3000000000000003,13.100000000000001,61.199999999999996,-120.9,-80.0,16
154,2567.0,0.1,0.2,4.2,2.7,3.6,13.0,88.2,-132.9,-77.3,16
155,2584.0,0.4,0.1,4.1000000000000005,2.7,3.6,13.0,88.2,-132.9,-77.3,16
156,2600.0,1.5,0.5,3.4000000000000004,4.2,5.2,11.100000000000001,115.3,-54.800000000000004,-62.900000000000006,16
157,2617.0,0.30000000000000004,2.0,1.4000000000000001,2.2,6.9,9.4,114.80000000000001,-18.900000000000002,-51.800000000000004,16
158,2634.0,-1.3,2.9000000000000004,0.7000000000000001,2.2,6.9,9.4,114.80000000000001,-18.900000000000002,-51.800000000000004,16
159,2650.0,-0.8,4.5,1.1,3.4000000000000004,9.200000000000001,9.1,113.80000000000001,28.200000000000003,31.5,16
160,2669.0,2.0,2.3000000000000003,0.5,4.5,6.2,8.6,61.50000000000001,82.7,60.900000000000006,16
161,2684.0,1.6,-0.5,0.8,4.5,6.2,8.6,61.50000000000001,82.7,60.900000000000006,16
162,2700.0,-0.30000000000000004,-3.1,2.6,2.2,2.0,10.8,-19.200000000000003,84.4,63.900000000000006,16
163,2717.0,-0.1,-4.2,3.9000000000000004,2.4000000000000004,0.8,12.100000000000001,-56.800000000000004,24.1,53.400000000000006,16
164,2734.0,-0.2,-3.4000000000000004,2.1,2.5,0.9,11.100000000000001,-59.00000000000001,-21.5,26.200000000000003,16
165,2750.0,-0.9,-2.2,-0.4,2.0,2.4000000000000004,7.2,-9.9,-19.1,7.9,16
166,2767.0,-0.7000000000000001,-2.1,-1.4000000000000001,2.0,2.4000000000000004,7.2,-9.9,-19.1,7.9,16
167,2784.0,-0.9,-2.5,-2.9000000000000004,1.4000000000000001,1.9000000000000001,4.9,28.8,37.300000000000004,10.9,16
168,2800.0,-1.6,-2.6,-3.7,0.8,2.1,4.3,35.5,43.800000000000004,6.8,16
169,2817.0,-1.8,-2.4000000000000004,-4.1000000000000005,0.8,2.1,4.3,35.5,43.800000000000004,6.8,16
170,2837.0,-2.1,-1.9000000000000001,-4.7,0.30000000000000004,3.0,3.2,22.6,34.900000000000006,3.9,16
171,2850.0,-2.0,-1.6,-5.2,0.4,3.2,2.9000000000000004,3.3000000000000003,30.000000000000004,10.1,16
172,2868.0,-1.8,-1.5,-5.300000000000001,0.4,3.2,2.9000000000000004,3.3000000000000003,30.000000000000004,10.1,16
173,2884.0,-1.1,-1.3,-4.4,1.0,3.1,4.800000000000001,-45.5,23.5,19.500000000000004,16
174,2900.0,-1.5,-1.6,-2.2,0.8,2.7,6.4,-53.8,24.1,26.8,16
175,2917.0,-1.2000000000000002,-1.7000000000000002,-1.5,0.8,2.7,6.4,-53.8,24.1,26.8,16
176,2933.0,-0.4,-1.6,-0.8,2.2,2.6,7.9,-39.8,-1.9,29.500000000000004,16
177,2950.0,0.30000000000000004,-1.2000000000000002,0.1,2.5,3.0,8.6,-27.7,-6.1000000000000005,26.500000000000004,16
178,2967.0,0.2,-0.9,0.4,2.5,3.0,8.6,-27.7,-6.1000000000000005,26.500000000000004,16
179,2984.0,-0.1,-0.1,-0.30000000000000004,2.4000000000000004,4.3,7.6000000000000005,-1.0,-18.400000000000002,25.700000000000003,16
180,3000.0,0.2,1.0,-1.4000000000000001,2.9000000000000004,5.2,7.0,-5.0,-10.9,33.6,16
181,3017.0,0.8,1.6,-1.3,2.9000000000000004,5.2,7.0,-5.0,-10.9,33.6,16
182,3033.0,2.3000000000000003,1.9000000000000001,0.30000000000000004,4.9,5.4,10.0,-45.7,40.2,35.0,16
183,3051.0,2.6,1.0,3.8000000000000003,4.9,4.5,12.8,-52.800000000000004,57.5,17.1,16
184,3067.0,2.4000000000000004,0.6000000000000001,5.2,4.2,3.9000000000000004,14.9,-39.6,59.5,-10.3,16
185,3084.0,1.3,0.5,6.7,2.9000000000000004,4.5,15.200000000000001,-11.3,53.50000000000001,-35.6,16
186,3100.0,0.5,1.4000000000000001,6.300000000000001,2.9000000000000004,4.5,15.200000000000001,-11.3,53.50000000000001,-35.6,16
187,3117.0,-1.1,3.3000000000000003,3.9000000000000004,1.5,7.300000000000001,11.600000000000001,26.200000000000003,-9.4,-25.2,16
188,3133.0,1.3,3.1,1.8,4.5,5.9,11.200000000000001,-1.3,-24.400000000000002,-3.3000000000000003,16
189,3151.0,3.4000000000000004,1.5,2.8000000000000003,4.5,5.9,11.200000000000001,-1.3,-24.400000000000002,-3.3000000000000003,16
190,3167.0,2.5,-2.4000000000000004,4.4,4.9,0.4,13.5,-23.5,-31.2,-16.8,16
191,3184.0,3.2,-3.8000000000000003,4.6000000000000005,5.300000000000001,-0.30000000000000004,13.200000000000001,-13.200000000000001,-31.7,-27.1,16
192,3200.0,3.0,-4.0,3.9000000000000004,5.300000000000001,-0.30000000000000004,13.200000000000001,-13.200000000000001,-31.7,-27.1,16
193,3218.0,2.4000000000000004,-3.2,1.8,4.6000000000000005,1.1,9.700000000000001,11.1,-58.3,-68.2,16
194,3233.0,2.2,-2.3000000000000003,0.6000000000000001,4.6000000000000005,1.1,9.700000000000001,11.1,-58.3,-68.2,16
195,3250.0,1.2000000000000002,-1.2000000000000002,-1.1,4.0,2.2,8.1,14.900000000000002,-47.400000000000006,-71.10000000000001,16
196,3267.0,0.4,-1.2000000000000002,-1.8,2.6,2.4000000000000004,6.7,7.9,3.1,-44.2,16
197,3283.0,0.1,-1.4000000000000001,-2.1,2.6,2.4000000000000004,6.7,7.9,3.1,-44.2,16
198,3301.0,-0.4,-1.7000000000000002,-2.6,2.1,2.1,6.300000000000001,7.6,19.1,-32.5,16
199,3317.0,-0.8,-1.8,-2.9000000000000004,1.2000000000000002,2.0,5.7,-6.000000000000001,32.9,-16.8,16
200,3333.0,-1.4000000000000001,-2.1,-2.6,1.2000000000000002,2.0,5.7,-23.1,33.400000000000006,-12.100000000000001,16
201,3350.0,-1.4000000000000001,-2.5,-2.1,0.4,1.0,6.6000000000000005,-28.0,28.6,-9.600000000000001,16
202,3367.0,-2.1,-2.7,-2.4000000000000004,-0.1,1.0,6.300000000000001,-23.8,26.8,-14.200000000000001,16
203,3384.0,-1.9000000000000001,-2.5,-2.6,0.0,1.3,6.2,-23.8,26.8,-14.200000000000001,16
204,3400.0,-1.9000000000000001,-2.1,-2.6,0.0,1.5,6.2,-16.1,-1.9,-31.8,16
205,3417.0,-1.6,-1.9000000000000001,-2.6,0.2,1.6,6.300000000000001,-19.200000000000003,-17.0,-35.0,16
206,3433.0,-1.4000000000000001,-1.8,-2.4000000000000004,0.2,1.6,6.300000000000001,-19.200000000000003,-17.0,-35.0,16
207,3450.0,-1.0,-1.5,-1.4000000000000001,0.8,2.1,8.0,-20.6,-14.3,-32.4,16
208,3467.0,-0.7000000000000001,-1.0,-0.1,1.1,2.4000000000000004,8.8,-13.5,-8.4,-27.8,16
209,3484.0,-0.5,-0.8,0.1,1.1,2.4000000000000004,8.8,-13.5,-8.4,-27.8,16
210,3500.0,0.5,-0.7000000000000001,0.5,2.7,2.4000000000000004,9.8,-28.200000000000003,-4.2,-29.400000000000002,16
211,3521.0,1.3,-1.1,1.7000000000000002,3.0,2.0,11.0,-50.9,-4.9,-43.400000000000006,16
212,3533.0,1.2000000000000002,-1.2000000000000002,2.6,3.0,2.0,11.0,-50.9,-4.9,-43.400000000000006,16
213,3550.0,0.9,-0.7000000000000001,3.5,2.2,2.6,12.700000000000001,-77.3,-28.900000000000002,-77.3,16
214,3567.0,-0.30000000000000004,0.5,3.9000000000000004,1.3,3.2,13.100000000000001,-78.10000000000001,-35.1,-74.8,16
215,3583.0,-0.7000000000000001,0.7000000000000001,4.0,1.3,3.2,13.100000000000001,-78.10000000000001,-35.1,-74.8,16
216,3600.0,-0.8,0.8,3.9000000000000004,1.1,3.2,12.700000000000001,-51.5,-42.6,-41.1,16
217,3617.0,-0.5,1.1,2.2,1.6,3.6,11.0,-32.9,-56.900000000000006,-25.1,16
218,3633.0,-0.1,1.7000000000000002,0.9,2.1,4.6000000000000005,9.3,-26.0,-62.300000000000004,-2.1999999999999997,16
219,3650.0,-0.30000000000000004,2.5,-0.1,2.3000000000000003,4.2,9.4,-37.2,-41.300000000000004,31.5,16
220,3667.0,0.2,1.8,0.30000000000000004,2.3000000000000003,4.2,9.4,-37.2,-41.300000000000004,31.5,16
221,3683.0,0.4,-0.6000000000000001,1.7000000000000002,3.2,0.9,11.200000000000001,-44.7,-16.0,45.1,16
222,3700.0,0.7000000000000001,-1.1,2.1,3.1,0.8,11.4,-36.6,-20.2,29.200000000000003,16
223,3717.0,0.5,-0.8,2.1,3.1,0.8,11.4,-36.6,-20.2,29.200000000000003,16
224,3733.0,0.0,0.2,0.6000000000000001,2.7,2.1,8.9,5.300000000000001,-11.3,26.8,16
225,3750.0,0.1,0.4,-1.3,2.7,2.1,7.7,7.1000000000000005,22.1,37.7,16
226,3767.0,0.1,0.4,-1.8,2.7,2.1,7.7,7.1000000000000005,22.1,37.7,16
227,3783.0,0.0,-0.5,-1.2000000000000002,2.3000000000000003,0.6000000000000001,8.6,-6.6000000000000005,89.9,56.2,16
228,3800.0,0.0,-1.5,-0.4,2.1,-0.1,9.0,2.1999999999999997,101.7,49.2,16
229,3817.0,0.2,-1.7000000000000002,-0.6000000000000001,2.1,-0.1,9.0,2.1999999999999997,101.7,49.2,16
230,3833.0,0.30000000000000004,-1.7000000000000002,-1.9000000000000001,1.7000000000000002,0.0,7.300000000000001,29.800000000000004,111.10000000000001,13.3,16
231,3850.0,-0.2,-1.4000000000000001,-2.4000000000000004,0.7000000000000001,0.4,7.2,40.5,117.1,-2.7,16
232,3867.0,-0.8,-1.1,-2.3000000000000003,0.7000000000000001,0.4,7.2,40.5,117.1,-2.7,16
233,3884.0,-1.6,-0.7000000000000001,-1.7000000000000002,-1.3,1.5,7.7,71.4,104.60000000000001,-4.300000000000001,16
234,3900.0,-2.0,-0.2,-2.4000000000000004,-1.7000000000000002,2.0,6.9,81.9,81.4,5.4,16
235,3917.0,-1.9000000000000001,-0.1,-2.9000000000000004,-1.3,1.9000000000000001,5.9,78.7,59.1,18.1,16
236,3933.0,-1.0,-0.4,-3.4000000000000004,-0.7000000000000001,2.3000000000000003,6.1000000000000005,54.7,28.1,20.8,16
237,3950.0,-0.5,-0.2,-3.1,-0.7000000000000001,2.3000000000000003,6.1000000000000005,54.7,28.1,20.8,16
238,3967.0,-0.1,-0.2,-2.4000000000000004,0.1,2.6,7.6000000000000005,11.2,-33.900000000000006,17.200000000000003,16
239,3983.0,0.2,-0.1,-0.8,0.5,2.6,8.700000000000001,3.9,-47.0,13.6,16
240,4000.0,0.4,-0.1,-0.30000000000000004,0.5,2.6,8.700000000000001,3.9,-47.0,13.6,16
241,4017.0,0.9,0.30000000000000004,0.0,1.3,3.4000000000000004,9.600000000000001,0.1,-34.800000000000004,-3.4,16
242,4033.0,0.7000000000000001,0.8,1.4000000000000001,1.3,3.7,11.200000000000001,-13.100000000000001,-12.700000000000001,-11.2,16
243,4050.0,0.9,1.1,2.6,1.3,3.7,11.200000000000001,-13.100000000000001,-12.700000000000001,-11.2,16
244,4067.0,0.30000000000000004,0.7000000000000001,6.4,0.6000000000000001,3.3000000000000003,16.900000000000002,-6.2,36.9,-38.400000000000006,16
245,4083.0,-0.1,1.3,8.4,-0.2,4.5,17.400000000000002,31.6,43.50000000000001,-62.199999999999996,16
246,4100.0,-0.7000000000000001,2.3000000000000003,7.7,-0.2,4.5,17.400000000000002,31.6,43.50000000000001,-62.199999999999996,16
247,4117.0,-2.6,4.800000000000001,2.9000000000000004,-2.7,8.4,11.0,57.00000000000001,4.5,-67.7,16
248,4133.0,-1.4000000000000001,5.300000000000001,0.7000000000000001,-1.0,7.7,10.600000000000001,15.2,-4.6000000000000005,-27.400000000000002,16
249,4150.0,-0.30000000000000004,3.3000000000000003,2.2,-1.0,7.7,10.600000000000001,15.2,-4.6000000000000005,-27.400000000000002,16
250,4167.0,1.2000000000000002,-0.7000000000000001,2.7,1.6,1.9000000000000001,11.9,12.8,18.6,13.6,16
251,4184.0,2.4000000000000004,-2.4000000000000004,2.2,2.4000000000000004,0.7000000000000001,11.200000000000001,28.1,9.9,5.500000000000001,16
252,4200.0,2.9000000000000004,-3.0,1.2000000000000002,3.1,0.4,9.1,40.2,-15.5,-15.6,16
253,4217.0,3.2,-2.6,-1.6,2.9000000000000004,1.4000000000000001,6.9,36.0,-35.6,-41.0,16
254,4233.0,2.8000000000000003,-1.8,-2.7,2.9000000000000004,1.4000000000000001,6.9,19.6,-36.0,-53.8,16
255,4250.0,1.5,-0.2,-3.7,0.9,3.6,5.9,-2.3000000000000003,-12.6,-47.400000000000006,16
256,4267.0,0.4,0.1,-2.5,0.2,3.4000000000000004,7.1000000000000005,-10.600000000000001,21.1,-28.0,16
257,4284.0,0.1,-0.30000000000000004,-1.7000000000000002,0.2,3.4000000000000004,7.1000000000000005,-10.600000000000001,21.1,-28.0,16
258,4300.0,0.0,-1.4000000000000001,-0.7000000000000001,-0.2,1.5,9.0,5.500000000000001,66.1,4.3999999999999995,16
259,4317.0,0.1,-2.6,-0.30000000000000004,-0.5,0.9,8.5,17.7,53.7,3.4,16
260,4333.0,-0.1,-2.7,-0.9,-0.5,0.9,8.5,17.7,53.7,3.4,16
261,4350.0,-0.30000000000000004,-2.1,-1.6,-1.3,1.6,7.300000000000001,7.8,10.2,-0.5,16
262,4367.0,-1.0,-1.7000000000000002,-1.8,-1.7000000000000002,1.9000000000000001,7.4,-3.6,-13.100000000000001,8.799999999999999,16
263,4383.0,-1.1,-1.6,-1.6,-1.7000000000000002,1.9000000000000001,7.4,-3.6,-13.100000000000001,8.799999999999999,16
264,4400.0,-0.4,-1.8,-2.0,-0.5,1.5,6.7,-7.1000000000000005,-46.7,33.5,16
265,4419.0,0.4,-2.3000000000000003,-3.0,0.30000000000000004,1.1,6.0,-10.700000000000001,-55.1,34.0,16
266,4433.0,0.8,-2.5,-3.2,0.30000000000000004,1.1,6.0,-10.700000000000001,-55.1,34.0,16
267,4450.0,1.0,-2.4000000000000004,-2.8000000000000003,1.0,1.0,6.6000000000000005,-22.000000000000004,-50.800000000000004,13.6,16
268,4467.0,0.5,-2.0,-1.6,0.7000000000000001,1.3,7.6000000000000005,-16.0,-36.0,6.5,16
269,4483.0,0.4,-1.7000000000000002,-1.2000000000000002,0.7000000000000001,1.8,7.800000000000001,-4.1000000000000005,-18.3,3.9,16
270,4500.0,0.30000000000000004,-1.1,-1.4000000000000001,0.6000000000000001,2.2,7.800000000000001,-2.7,2.4000000000000004,3.9,16
271,4517.0,0.2,-1.0,-0.4,0.5,2.1,8.9,-11.9,20.1,3.3000000000000003,16
272,4533.0,0.1,-1.1,0.7000000000000001,0.30000000000000004,1.8,11.200000000000001,-21.700000000000003,28.700000000000003,-1.9,16
273,4550.0,-0.1,-1.4000000000000001,3.3000000000000003,-0.1,1.8,12.8,-19.500000000000004,23.3,-13.6,16
274,4567.0,-0.30000000000000004,-1.1,4.0,-0.1,1.8,12.8,-19.500000000000004,23.3,-13.6,16
275,4584.0,-0.7000000000000001,-0.30000000000000004,4.5,-0.6000000000000001,3.4000000000000004,13.200000000000001,11.5,2.7,-32.7,16
276,4600.0,-0.7000000000000001,1.4000000000000001,2.6,-1.0,5.1000000000000005,10.700000000000001,22.2,-5.9,-42.0,16
277,4617.0,-1.4000000000000001,2.5,0.6000000000000001,-1.0,5.1000000000000005,10.700000000000001,22.2,-5.9,-42.0,16
278,4633.0,-2.7,4.6000000000000005,0.2,-2.7,7.300000000000001,11.3,-49.4,54.5,8.600000000000001,16
279,4650.0,-3.2,1.7000000000000002,5.2,-3.3000000000000003,3.4000000000000004,15.600000000000001,-77.60000000000001,59.9,41.7,16
280,4667.0,-2.7,-0.8,7.5,-3.3000000000000003,3.4000000000000004,15.600000000000001,-77.60000000000001,59.9,41.7,16
281,4683.0,-0.9,-4.3,8.8,-0.2,-1.8,16.6,-36.7,-60.599999999999994,37.6,16
282,4700.0,1.1,-2.9000000000000004,3.4000000000000004,1.0,0.1,11.8,-9.1,-112.60000000000001,4.7,16
283,4717.0,0.8,-1.5,0.7000000000000001,1.0,0.1,11.8,-9.1,-112.60000000000001,4.7,16
284,4733.0,-0.6000000000000001,0.6000000000000001,-2.4000000000000004,-0.30000000000000004,3.4000000000000004,7.0,-9.8,-69.10000000000001,-1.4,16
285,4750.0,-1.1,0.9,-1.9000000000000001,-0.4,3.0,7.9,-15.8,-14.900000000000002,25.2,16
286,4767.0,-0.9,0.1,-1.0,-0.4,3.0,7.9,-15.8,-14.900000000000002,25.2,16
287,4783.0,-0.30000000000000004,-1.1,-0.2,0.4,1.2000000000000002,9.4,-3.1,28.900000000000002,42.900000000000006,16
288,4800.0,-0.2,-1.2000000000000002,-0.2,0.4,1.2000000000000002,9.4,-3.1,28.900000000000002,42.900000000000006,16
289,4817.0,-0.5,-0.8,-1.0,-0.2,1.8,8.0,10.700000000000001,9.600000000000001,27.400000000000002,16
290,4833.0,-1.0,-0.30000000000000004,-2.1,-0.5,2.2,7.1000000000000005,12.6,-1.5000000000000002,28.400000000000002,16
291,4850.0,-1.1,0.0,-2.6,-0.5,2.2,7.1000000000000005,12.6,-1.5000000000000002,28.400000000000002,16
292,4867.0,-1.0,0.2,-3.5,-0.30000000000000004,2.6,5.800000000000001,5.8,-19.200000000000003,40.3,16
293,4884.0,-0.8,0.1,-3.3000000000000003,0.1,2.5,6.4,-0.2,-21.1,46.800000000000004,16
294,4900.0,-0.5,0.0,-2.8000000000000003,0.1,2.5,6.4,-0.2,-21.1,46.800000000000004,16
295,4917.0,0.2,-0.4,-2.1,1.5,1.9000000000000001,7.5,1.2000000000000002,-30.799999999999997,44.6,16
296,4933.0,0.9,-0.5,-1.6,2.1,1.9000000000000001,7.9,3.7000000000000006,-35.8,34.0,16
297,4950.0,1.2000000000000002,-0.4,-1.2000000000000002,2.1,1.9000000000000001,7.9,3.7000000000000006,-35.8,34.0,16
298,4967.0,1.6,-0.1,-0.5,3.1,2.4000000000000004,8.9,18.6,-30.5,10.2,16
299,4983.0,2.1,0.30000000000000004,-0.5,3.6,2.9000000000000004,8.6,28.500000000000004,-27.3,-1.0999999999999999,16
300,5000.0,2.3000000000000003,0.5,-0.8,3.6,2.9000000000000004,8.6,28.500000000000004,-27.3,-1.0999999999999999,16
301,5017.0,2.9000000000000004,1.1,-0.9,4.7,3.7,8.3,25.6,-24.3,-15.7,16
302,5033.0,3.6,0.8,-0.5,5.300000000000001,3.4000000000000004,8.8,12.3,-27.8,-23.700000000000003,16
303,5050.0,3.8000000000000003,0.5,-0.2,5.300000000000001,3.4000000000000004,8.8,12.3,-27.8,-23.700000000000003,16
304,5067.0,4.0,0.1,0.6000000000000001,5.800000000000001,2.9000000000000004,9.9,-14.500000000000002,-37.6,-49.6,16
305,5083.0,3.8000000000000003,0.7000000000000001,0.4,5.5,3.6,9.5,-23.2,-37.4,-65.0,16
306,5100.0,3.2,1.2000000000000002,0.30000000000000004,4.6000000000000005,4.0,9.9,-41.1,-14.900000000000002,-69.7,16
307,5117.0,2.2,0.8,2.3000000000000003,3.9000000000000004,2.7,12.5,-54.7,14.500000000000002,-64.7,16
308,5133.0,1.9000000000000001,-0.30000000000000004,3.9000000000000004,3.9000000000000004,2.7,12.5,-54.7,14.500000000000002,-64.7,16
309,5150.0,1.6,-2.3000000000000003,5.7,2.9000000000000004,-0.2,14.700000000000001,-11.000000000000002,37.6,-82.10000000000001,16
310,5167.0,1.0,-2.4000000000000004,3.8000000000000003,2.4000000000000004,0.6000000000000001,12.0,17.200000000000003,15.9,-102.80000000000001,16
311,5184.0,0.9,-1.5,1.6,2.4000000000000004,0.6000000000000001,12.0,17.200000000000003,15.9,-102.80000000000001,16
312,5200.0,0.7000000000000001,0.2,-1.1,1.9000000000000001,3.4000000000000004,7.9,-4.2,-7.6,-112.9,16
313,5217.0,0.30000000000000004,1.2000000000000002,-1.4000000000000001,1.5,3.9000000000000004,7.9,-23.5,0.2,-99.4,16
314,5233.0,0.30000000000000004,1.3,-1.4000000000000001,1.5,3.9000000000000004,7.9,-23.5,0.2,-99.4,16
315,5250.0,0.2,1.1,-1.6,1.2000000000000002,3.3000000000000003,7.800000000000001,-44.7,42.800000000000004,-57.699999999999996,16
316,5267.0,0.2,0.30000000000000004,-1.5,1.0,2.5,8.200000000000001,-56.5,50.9,-44.6,16
317,5283.0,0.2,-0.2,-0.9,1.0,2.5,8.200000000000001,-56.5,50.9,-44.6,16
318,5300.0,0.1,-1.5,0.6000000000000001,0.5,0.4,10.100000000000001,-41.1,33.7,-45.3,16
319,5317.0,-0.2,-1.6,-0.2,0.2,0.5,9.0,-10.700000000000001,19.6,-55.5,16
320,5333.0,-0.30000000000000004,-1.2000000000000002,-1.2000000000000002,0.2,0.5,9.0,-10.700000000000001,19.6,-55.5,16
321,5350.0,-0.8,-0.4,-2.9000000000000004,-0.5,2.1,6.2,25.700000000000003,8.4,-63.6,16
322,5367.0,-0.7000000000000001,0.2,-4.2,-0.4,2.4000000000000004,5.0,31.2,7.1000000000000005,-58.5,16
323,5383.0,-0.5,0.1,-4.9,-0.1,2.7,4.3,25.6,-0.4,-55.1,16
324,5400.0,0.1,0.8,-5.5,0.5,3.2,4.0,8.700000000000001,-8.600000000000001,-50.7,16
325,5417.0,0.8,1.2000000000000002,-4.4,1.0,3.5,5.300000000000001,-14.0,-14.3,-46.1,16
326,5433.0,1.0,1.3,-3.1,1.4000000000000001,3.5,7.300000000000001,-26.200000000000003,-13.200000000000001,-40.3,16
327,5450.0,1.4000000000000001,1.1,-0.7000000000000001,1.7000000000000002,3.2,9.200000000000001,-23.1,-5.2,-36.5,16
328,5467.0,1.6,0.9,0.30000000000000004,1.7000000000000002,3.2,9.200000000000001,-23.1,-5.2,-36.5,16
329,5483.0,2.1,0.6000000000000001,1.5,2.4000000000000004,2.9000000000000004,10.8,11.6,9.5,-40.4,16
330,5500.0,2.2,0.8,0.8,2.2,3.1,9.700000000000001,27.3,13.200000000000001,-45.5,16
331,5517.0,2.0,1.0,-0.1,2.2,3.1,9.700000000000001,27.3,13.200000000000001,-45.5,16
332,5533.0,1.1,1.5,-0.5,0.8,3.7,9.4,9.4,38.400000000000006,-41.800000000000004,16
333,5550.0,0.7000000000000001,0.6000000000000001,0.9,0.4,2.8000000000000003,10.3,4.300000000000001,47.400000000000006,-33.400000000000006,16
334,5567.0,0.5,0.0,1.1,0.4,2.8000000000000003,10.3,4.300000000000001,47.400000000000006,-33.400000000000006,16
335,5583.0,0.5,-0.4,0.7000000000000001,-0.1,2.2,10.4,3.0000000000000004,61.4,-35.0,16
336,5600.0,-0.2,0.30000000000000004,1.8,-1.2000000000000002,2.9000000000000004,11.200000000000001,-12.3,63.10000000000001,-39.6,16
337,5617.0,-0.9,0.9,2.1,-1.2000000000000002,2.9000000000000004,11.200000000000001,-12.3,63.10000000000001,-39.6,16
338,5633.0,-1.8,1.8,4.6000000000000005,-3.3000000000000003,4.2,15.0,-49.3,73.30000000000001,-16.5,16
339,5650.0,-3.0,1.7000000000000002,7.1000000000000005,-4.5,3.2,16.7,-51.1,53.8,3.4,16
340,5667.0,-3.2,-0.2,7.800000000000001,-4.1000000000000005,1.2000000000000002,17.0,-39.300000000000004,2.7,24.000000000000004,16
341,5683.0,-1.0,-0.8,5.800000000000001,-1.5,1.0,14.200000000000001,-23.2,-52.900000000000006,28.700000000000003,16
342,5701.0,0.7000000000000001,-1.3,2.0,-1.5,1.0,14.200000000000001,-16.400000000000002,-86.80000000000001,13.3,16
343,5717.0,0.6000000000000001,-1.4000000000000001,0.6000000000000001,-0.2,0.7000000000000001,9.4,-14.4,-84.60000000000001,-2.0,16
344,5733.0,0.2,-0.6000000000000001,-1.1,-0.9,1.5,8.5,-15.399999999999999,-57.5,-13.6,16
345,5750.0,-0.5,-0.1,-1.3,-0.9,1.5,8.5,-15.399999999999999,-57.5,-13.6,16
346,5767.0,-1.6,0.30000000000000004,-0.5,-1.9000000000000001,1.9000000000000001,9.200000000000001,-10.600000000000001,-6.1000000000000005,5.1,16
347,5784.0,-1.0,0.0,-0.5,-1.5,1.5,9.1,-3.3000000000000003,3.0000000000000004,16.900000000000002,16
348,5800.0,-0.8,-0.30000000000000004,-0.7000000000000001,-1.5,1.5,9.1,-3.3000000000000003,3.0000000000000004,16.900000000000002,16
349,5817.0,-0.4,-0.7000000000000001,-1.6,-0.7000000000000001,1.0,7.5,14.100000000000001,-16.1,18.400000000000002,16
350,5834.0,-0.2,-0.5,-2.9000000000000004,-0.6000000000000001,1.3,6.4,17.400000000000002,-25.1,15.8,16
351,5850.0,-0.2,-0.4,-3.6,-0.6000000000000001,1.3,6.4,17.400000000000002,-25.1,15.8,16
352,5867.0,-0.4,-0.1,-3.4000000000000004,-0.8,1.7000000000000002,6.300000000000001,11.1,-20.1,20.0,16
353,5883.0,-0.4,-0.2,-3.1,-0.6000000000000001,1.6,6.5,14.200000000000001,-17.1,23.8,16
354,5900.0,-0.30000000000000004,-0.4,-2.9000000000000004,-0.6000000000000001,1.6,6.5,14.200000000000001,-17.1,23.8,16
355,5917.0,-0.1,-0.5,-2.9000000000000004,-0.2,1.5,6.6000000000000005,24.7,-10.3,21.200000000000003,16
356,5933.0,-0.1,-0.4,-2.9000000000000004,-0.30000000000000004,1.7000000000000002,6.6000000000000005,26.3,-3.7000000000000006,17.0,16
357,5950.0,-0.30000000000000004,-0.2,-2.9000000000000004,-0.6000000000000001,2.0,6.800000000000001,24.000000000000004,5.7,15.399999999999999,16
358,5967.0,-0.7000000000000001,-0.1,-2.3000000000000003,-0.9,2.1,7.2,20.900000000000002,15.299999999999999,18.400000000000002,16
359,5984.0,-0.8,-0.1,-2.1,-0.9,2.1,7.2,14.900000000000002,18.1,21.6,16
360,6000.0,-0.5,-0.1,-1.7000000000000002,-0.5,2.2,7.9,4.800000000000001,12.4,21.900000000000002,16
361,6017.0,-0.1,0.0,-1.2000000000000002,-0.30000000000000004,2.2,8.200000000000001,-6.7,5.8,17.5,16
362,6033.0,0.0,0.0,-1.0,-0.30000000000000004,2.2,8.200000000000001,-6.7,5.8,17.5,16
363,6050.0,0.1,0.2,-0.5,-0.1,2.6,9.8,-35.4,24.200000000000003,7.699999999999999,16
364,6067.0,0.30000000000000004,1.0,2.1,-0.1,2.9000000000000004,12.200000000000001,-42.6,39.699999999999996,4.6000000000000005,16
365,6084.0,0.30000000000000004,0.8,3.4000000000000004,-0.1,2.9000000000000004,12.200000000000001,-42.6,39.699999999999996,4.6000000000000005,16
366,6100.0,0.8,0.5,5.5,0.1,2.7,14.700000000000001,-7.1000000000000005,37.7,-20.2,16
367,6117.0,0.30000000000000004,1.7000000000000002,3.7,-0.7000000000000001,3.9000000000000004,12.4,10.3,18.8,-37.4,16
368,6133.0,-0.30000000000000004,2.3000000000000003,1.9000000000000001,-0.7000000000000001,3.9000000000000004,12.4,10.3,18.8,-37.4,16
369,6150.0,-0.8,2.0,1.2000000000000002,-0.9,2.8000000000000003,11.700000000000001,-44.3,0.0,-3.5,16
370,6167.0,1.2000000000000002,-0.7000000000000001,3.8000000000000003,0.9,0.5,13.4,-51.5,-7.300000000000001,6.9,16
371,6183.0,2.3000000000000003,-1.9000000000000001,3.9000000000000004,0.9,0.5,13.4,-51.5,-7.300000000000001,6.9,16
372,6200.0,3.3000000000000003,-2.6,3.7,2.4000000000000004,-1.1,13.200000000000001,-21.700000000000003,4.2,-25.3,16
373,6219.0,3.1,-2.0,3.2,2.4000000000000004,-1.1,13.200000000000001,-3.7000000000000006,12.100000000000001,-45.4,16
374,6233.0,2.3000000000000003,-2.1,2.5,0.8,-0.5,11.600000000000001,13.0,34.1,-54.9,16
375,6250.0,1.7000000000000002,-1.3,1.7000000000000002,0.6000000000000001,0.4,11.5,20.3,63.2,-51.0,16
376,6267.0,1.5,-0.9,1.8,0.6000000000000001,0.4,11.5,20.3,63.2,-51.0,16
377,6283.0,0.8,-1.1,2.4000000000000004,-0.8,0.30000000000000004,12.100000000000001,28.900000000000002,91.60000000000001,-44.3,16
378,6300.0,0.6000000000000001,-1.2000000000000002,2.4000000000000004,-1.1,0.4,11.600000000000001,41.800000000000004,79.00000000000001,-42.300000000000004,16
379,6317.0,0.6000000000000001,-1.2000000000000002,1.7000000000000002,-1.1,0.4,11.600000000000001,41.800000000000004,79.00000000000001,-42.300000000000004,16
380,6333.0,0.8,-1.1,-0.30000000000000004,-1.2000000000000002,0.9,8.4,57.2,34.1,-48.9,16
381,6350.0,1.0,-0.7000000000000001,-2.3000000000000003,-1.2000000000000002,1.4000000000000001,6.7,59.20000000000001,11.9,-50.0,16
382,6367.0,1.0,-0.5,-3.2,-1.2000000000000002,1.4000000000000001,6.7,59.20000000000001,11.9,-50.0,16
383,6383.0,1.1,-0.2,-4.9,-1.2000000000000002,2.2,4.1000000000000005,43.400000000000006,-15.100000000000001,-45.4,16
384,6400.0,0.9,0.2,-5.300000000000001,-1.2000000000000002,2.5,4.0,27.0,-25.5,-40.6,16
385,6417.0,0.9,0.30000000000000004,-5.2,-1.2000000000000002,2.5,4.0,27.0,-25.5,-40.6,16
386,6433.0,0.8,0.4,-4.7,-1.1,2.7,5.1000000000000005,0.1,-30.200000000000003,-29.300000000000004,16
387,6450.0,0.9,0.5,-3.3000000000000003,-1.0,2.7,6.2,-8.200000000000001,-29.700000000000003,-27.400000000000002,16
388,6467.0,1.0,0.5,-2.6,-1.0,2.7,6.2,-8.200000000000001,-29.700000000000003,-27.400000000000002,16
389,6483.0,0.8,0.9,-1.1,-1.1,3.1,8.6,-12.4,-39.8,-30.000000000000004,16
390,6500.0,0.2,1.2000000000000002,0.1,-1.1,3.1,8.6,-8.5,-44.8,-25.700000000000003,16
391,6516.0,0.2,1.3,0.30000000000000004,-1.3,3.4000000000000004,9.700000000000001,-3.8,-48.50000000000001,-18.6,16
392,6533.0,0.2,1.3,0.6000000000000001,-1.3,3.5,10.3,-2.9,-51.1,-14.100000000000001,16
393,6550.0,0.0,1.4000000000000001,1.1,-1.5,3.6,11.200000000000001,-2.9,-51.1,-14.100000000000001,16
394,6567.0,-0.6000000000000001,1.5,2.1,-2.0,3.5,11.600000000000001,-2.7,-69.80000000000001,-5.0,16
395,6583.0,-1.2000000000000002,1.4000000000000001,2.1,-2.2,3.4000000000000004,11.700000000000001,-8.600000000000001,-84.80000000000001,2.8,16
396,6600.0,-1.4000000000000001,1.3,2.3000000000000003,-2.2,3.4000000000000004,11.700000000000001,-8.600000000000001,-84.80000000000001,2.8,16
397,6616.0,-1.2000000000000002,1.1,3.4000000000000004,-1.0,3.1,13.100000000000001,-12.5,-105.7,24.000000000000004,16
398,6633.0,-0.1,1.3,2.3000000000000003,-0.1,3.3000000000000003,11.100000000000001,0.7,-116.4,26.8,16
399,6650.0,-0.2,1.3,0.7000000000000001,-0.1,3.3000000000000003,11.100000000000001,0.7,-116.4,26.8,16
400,6667.0,-0.30000000000000004,1.9000000000000001,-0.30000000000000004,0.1,3.5,10.9,-39.6,-50.1,39.400000000000006,16
401,6683.0,-0.6000000000000001,0.2,4.4,0.0,1.3,15.100000000000001,-46.800000000000004,0.7,53.00000000000001,16
402,6700.0,-0.5,-1.5,6.800000000000001,0.0,1.3,15.100000000000001,-46.800000000000004,0.7,53.00000000000001,16
403,6717.0,-0.30000000000000004,-4.3,7.9,0.4,-2.8000000000000003,16.5,44.00000000000001,29.500000000000004,30.7,16
404,6733.0,0.2,-4.1000000000000005,3.7,0.7000000000000001,-1.9000000000000001,12.5,76.4,6.5,-4.0,16
405,6750.0,0.2,-3.3000000000000003,1.2000000000000002,0.7000000000000001,-1.9000000000000001,12.5,76.4,6.5,-4.0,16
406,6767.0,-0.7000000000000001,-1.2000000000000002,-1.5,-0.5,1.6,7.7,53.8,-12.9,-36.2,16
407,6783.0,-1.2000000000000002,-0.1,-2.3000000000000003,-0.8,2.3000000000000003,7.4,35.4,-1.9,-24.7,16
408,6800.0,-1.1,-0.1,-2.0,-0.6000000000000001,2.3000000000000003,7.9,23.6,17.3,-10.2,16
409,6817.0,-0.8,-0.4,-1.5,-0.5,2.0,8.1,22.3,30.599999999999998,-3.4,16
410,6833.0,-0.7000000000000001,-0.6000000000000001,-1.5,-0.5,2.0,8.1,22.3,30.599999999999998,-3.4,16
411,6850.0,-0.7000000000000001,-0.7000000000000001,-1.6,-0.6000000000000001,1.9000000000000001,7.5,32.5,35.7,-3.9,16
412,6866.0,-0.6000000000000001,-0.8,-2.7,-0.6000000000000001,2.2,6.4,41.1,29.1,-5.2,16
413,6883.0,-0.6000000000000001,-0.5,-3.4000000000000004,-0.6000000000000001,2.2,6.4,41.1,29.1,-5.2,16
414,6900.0,-0.7000000000000001,0.0,-4.5,-1.0,3.1,4.800000000000001,35.8,23.2,1.5000000000000002,16
415,6917.0,-0.9,0.1,-4.2,-1.1,3.1,5.300000000000001,25.1,20.8,11.000000000000002,16
416,6933.0,-0.9,-0.1,-3.6,-1.1,3.1,5.300000000000001,25.1,20.8,11.000000000000002,16
417,6950.0,-0.6000000000000001,-0.6000000000000001,-2.3000000000000003,-0.8,2.5,7.300000000000001,21.5,10.0,19.9,16
418,6967.0,-0.4,-0.7000000000000001,-1.5,-0.6000000000000001,2.6,7.800000000000001,27.3,4.800000000000001,15.9,16
419,6984.0,-0.30000000000000004,-0.6000000000000001,-1.3,-0.6000000000000001,2.6,7.800000000000001,27.3,4.800000000000001,15.9,16
420,7000.0,-0.4,-0.6000000000000001,-0.30000000000000004,-0.8,2.9000000000000004,9.1,36.6,-2.1,2.7,16
421,7017.0,-0.7000000000000001,-0.6000000000000001,0.30000000000000004,-1.0,2.8000000000000003,9.3,49.6,-2.3000000000000003,-2.4000000000000004,16
422,7033.0,-0.8,-1.0,0.1,-1.0,2.8000000000000003,9.3,49.6,-2.3000000000000003,-2.4000000000000004,16
423,7050.0,-1.4000000000000001,-0.6000000000000001,-0.1,-1.8,3.2,8.700000000000001,63.800000000000004,-3.4,-12.000000000000002,16
424,7066.0,-1.8,-0.8,-0.9,-2.1,3.3000000000000003,8.0,55.5,4.800000000000001,-11.3,16
425,7083.0,-1.8,-0.4,-0.5,-1.7000000000000002,3.9000000000000004,9.1,27.6,26.9,-6.8,16
426,7100.0,-0.5,-0.30000000000000004,2.1,-0.5,3.5,12.200000000000001,8.5,49.1,-9.0,16
427,7117.0,0.30000000000000004,-1.4000000000000001,5.6000000000000005,-0.5,3.5,12.200000000000001,26.500000000000004,56.0,-32.1,16
428,7133.0,-0.1,-1.3,5.4,-0.9,4.5,12.4,65.89999999999999,33.900000000000006,-60.20000000000001,16
429,7150.0,0.0,2.7,0.9,-1.3,8.1,8.5,67.2,6.000000000000001,-70.3,16
430,7167.0,-0.6000000000000001,4.4,-0.9,-1.3,8.1,8.5,67.2,6.000000000000001,-70.3,16
431,7185.0,-0.1,4.6000000000000005,0.2,-1.5,7.800000000000001,10.200000000000001,-16.3,9.1,-6.9,16
432,7200.0,-0.1,1.7000000000000002,2.9000000000000004,-0.5,5.5,11.8,-18.400000000000002,18.6,27.8,16
433,7217.0,1.2000000000000002,0.30000000000000004,3.3000000000000003,-0.5,5.5,11.8,-18.400000000000002,18.6,27.8,16
434,7233.0,1.9000000000000001,-1.4000000000000001,2.4000000000000004,1.4000000000000001,3.0,10.4,-16.2,-16.400000000000002,29.1,16
435,7250.0,2.8000000000000003,-1.1,0.9,1.8,3.5,9.600000000000001,-28.400000000000002,-32.0,9.8,16
436,7267.0,2.6,-0.5,0.7000000000000001,1.8,3.5,9.600000000000001,-28.400000000000002,-32.0,9.8,16
437,7284.0,2.0,0.2,0.1,1.0,4.6000000000000005,8.700000000000001,-31.3,-13.700000000000001,-12.9,16
438,7300.0,1.4000000000000001,0.5,-0.7000000000000001,0.6000000000000001,4.6000000000000005,8.1,-30.299999999999997,9.9,-11.8,16
439,7317.0,1.2000000000000002,0.5,-0.9,0.6000000000000001,4.6000000000000005,8.1,-30.299999999999997,9.9,-11.8,16
440,7333.0,1.0,0.0,-0.5,0.1,3.5,8.8,-37.2,30.5,-5.1,16
441,7350.0,1.0,-0.6000000000000001,-0.1,0.1,3.5,8.8,-37.2,30.5,-5.1,16
442,7367.0,1.0,-1.6,0.0,0.0,2.1,8.5,-17.7,0.8,-15.100000000000001,16
443,7384.0,1.0,-1.5,-1.4000000000000001,0.0,2.5,7.2,-10.1,-16.8,-22.900000000000002,16
444,7400.0,0.9,-1.2000000000000002,-2.1,0.0,2.5,7.2,-10.1,-16.8,-22.900000000000002,16
445,7417.0,0.4,-0.5,-2.7,-0.6000000000000001,3.4000000000000004,6.0,-7.400000000000001,-22.5,-21.900000000000002,16
446,7433.0,0.30000000000000004,-0.2,-3.2,-0.5,3.4000000000000004,5.9,-6.000000000000001,-16.900000000000002,-14.100000000000001,16
447,7450.0,0.30000000000000004,-0.2,-3.0,-0.5,3.4000000000000004,5.9,-6.000000000000001,-16.900000000000002,-14.100000000000001,16
448,7467.0,0.6000000000000001,-0.5,-2.1,0.0,3.0,7.2,-5.0,-17.5,-7.400000000000001,16
449,7484.0,0.9,-0.7000000000000001,-1.5,0.2,2.9000000000000004,7.7,-4.3999999999999995,-26.0,-12.100000000000001,16
450,7500.0,0.9,-0.6000000000000001,-1.1,0.2,2.9000000000000004,7.7,-4.3999999999999995,-26.0,-12.100000000000001,16
451,7517.0,0.6000000000000001,-0.4,-0.30000000000000004,-0.2,3.3000000000000003,8.9,3.9,-39.00000000000001,-20.900000000000002,16
452,7533.0,0.2,0.0,0.2,-0.4,3.7,9.3,8.200000000000001,-38.2,-18.400000000000002,16
453,7550.0,0.1,0.2,0.5,-0.4,3.7,9.3,8.200000000000001,-38.2,-18.400000000000002,16
454,7567.0,0.2,-0.1,1.3,-0.1,3.2,10.5,4.1000000000000005,-35.5,-9.5,16
455,7583.0,0.2,-0.7000000000000001,1.7000000000000002,0.0,2.9000000000000004,10.9,-3.6,-31.3,-12.000000000000002,16
456,7600.0,0.4,-0.7000000000000001,2.1,0.0,2.9000000000000004,10.9,-3.6,-31.3,-12.000000000000002,16
457,7617.0,0.30000000000000004,-0.30000000000000004,3.5,0.1,3.4000000000000004,12.700000000000001,-8.700000000000001,-23.900000000000002,-21.900000000000002,16
458,7633.0,0.2,0.0,3.7,0.1,3.4000000000000004,12.700000000000001,4.2,-28.0,-24.200000000000003,16
459,7650.0,0.2,0.2,1.8,0.4,4.2,9.8,5.8,-27.5,-26.3,16
460,7667.0,0.4,1.5,0.4,0.1,5.4,9.9,-12.4,-8.0,-29.300000000000004,16
461,7684.0,0.0,2.1,1.0,0.1,5.4,9.9,-12.4,-8.0,-29.300000000000004,16
462,7700.0,-0.9,1.3,3.6,-1.4000000000000001,3.7,13.700000000000001,-26.8,17.8,-18.3,16
463,7717.0,-1.3,-0.7000000000000001,4.800000000000001,-1.4000000000000001,2.4000000000000004,13.700000000000001,-11.5,2.7,-19.1,16
464,7734.0,-1.1,-1.2000000000000002,4.2,-1.4000000000000001,2.4000000000000004,13.700000000000001,-11.5,2.7,-19.1,16
465,7750.0,-1.1,-0.9,2.0,-1.6,2.3000000000000003,10.200000000000001,6.2,-35.5,-38.900000000000006,16
466,7768.0,-1.3,-0.5,-0.1,-1.5,3.2,9.0,4.5,-35.5,-38.5,16
467,7783.0,-1.4000000000000001,0.1,-0.6000000000000001,-1.5,3.2,9.0,4.5,-35.5,-38.5,16
468,7800.0,-1.7000000000000002,0.2,-1.9000000000000001,-1.8,3.6,7.0,4.5,-8.9,-24.3,16
469,7817.0,-1.6,0.0,-2.4000000000000004,-1.7000000000000002,3.3000000000000003,7.1000000000000005,3.6,1.8,-15.7,16
470,7833.0,-1.5,-0.30000000000000004,-1.9000000000000001,-1.7000000000000002,3.3000000000000003,7.1000000000000005,3.6,1.8,-15.7,16
471,7850.0,-1.4000000000000001,-0.7000000000000001,-1.8,-1.5,2.8000000000000003,7.0,30.299999999999997,8.9,-7.8,16
472,7867.0,-1.3,-0.7000000000000001,-3.0,-1.5,3.0,5.9,43.300000000000004,7.500000000000001,-6.6000000000000005,16
473,7883.0,-1.4000000000000001,-0.4,-3.7,-1.5,3.0,5.9,43.300000000000004,7.500000000000001,-6.6000000000000005,16
474,7900.0,-1.5,-0.1,-4.4,-1.8,3.8000000000000003,4.6000000000000005,32.1,0.8,5.300000000000001,16
475,7917.0,-1.6,0.0,-4.4,-1.8,3.8000000000000003,4.6000000000000005,18.400000000000002,-2.8,14.700000000000001,16
476,7934.0,-1.2000000000000002,-0.2,-3.5,-1.3,3.6,5.800000000000001,8.700000000000001,-3.3000000000000003,21.3,16
477,7950.0,-1.0,-0.30000000000000004,-2.7,-1.1,3.7,6.6000000000000005,2.4000000000000004,1.0,23.1,16
478,7967.0,-0.7000000000000001,-0.5,-1.0,-1.1,3.7,6.6000000000000005,2.4000000000000004,1.0,23.1,16
479,7984.0,-0.8,-0.7000000000000001,-0.2,-1.1,3.3000000000000003,9.0,8.700000000000001,7.6,15.7,16
480,8000.0,-0.9,-0.4,0.2,-1.1,3.7,8.9,17.400000000000002,9.200000000000001,8.200000000000001,16
481,8017.0,-0.9,-0.2,0.1,-1.1,3.7,8.9,17.400000000000002,9.200000000000001,8.200000000000001,16
482,8033.0,-1.0,0.30000000000000004,0.1,-1.3,4.5,9.200000000000001,11.4,7.2,-3.8,16
483,8050.0,-1.0,0.7000000000000001,0.7000000000000001,-1.2000000000000002,4.9,9.5,7.2,1.2000000000000002,-7.9,16
484,8067.0,-0.9,1.0,0.7000000000000001,-1.2000000000000002,4.9,9.5,7.2,1.2000000000000002,-7.9,16
485,8084.0,-0.30000000000000004,1.8,0.5,-0.4,6.1000000000000005,9.5,-7.699999999999999,-11.3,-14.900000000000002,16
486,8100.0,0.1,2.4000000000000004,1.2000000000000002,-0.2,6.6000000000000005,10.200000000000001,-14.100000000000001,-11.1,-19.400000000000002,16
487,8117.0,0.2,2.8000000000000003,1.6,-0.2,6.6000000000000005,10.200000000000001,-14.100000000000001,-11.1,-19.400000000000002,16
488,8133.0,-0.1,3.1,2.7,-0.7000000000000001,7.4,11.5,-5.500000000000001,5.0,-28.0,16
489,8150.0,-0.4,3.4000000000000004,2.6,-0.7000000000000001,7.4,11.5,-5.500000000000001,5.0,-28.0,16
490,8167.0,-1.2000000000000002,3.6,1.8,-1.4000000000000001,7.6000000000000005,10.9,-6.2,-1.3,-25.3,16
491,8184.0,0.0,1.6,2.7,0.0,4.800000000000001,11.9,-23.3,-15.299999999999999,4.7,16
492,8200.0,0.5,0.4,3.0,0.0,4.800000000000001,11.9,-23.3,-15.299999999999999,4.7,16
493,8217.0,1.3,-1.6,3.1,1.2000000000000002,1.8,11.8,-2.8,-3.4,6.7,16
494,8233.0,1.6,-2.1,1.7000000000000002,1.4000000000000001,2.1,10.100000000000001,3.7000000000000006,-14.200000000000001,-8.0,16
495,8250.0,1.7000000000000002,-1.7000000000000002,0.7000000000000001,1.4000000000000001,2.1,10.100000000000001,3.7000000000000006,-14.200000000000001,-8.0,16
496,8269.0,1.0,-0.5,-0.8,0.5,3.8000000000000003,8.200000000000001,-10.2,-10.0,-19.0,16
497,8284.0,0.5,0.30000000000000004,-1.0,0.1,4.2,8.1,-18.5,15.000000000000002,-9.600000000000001,16
498,8300.0,0.30000000000000004,0.4,-0.9,0.1,4.2,8.1,-18.5,15.000000000000002,-9.600000000000001,16
499,8317.0,-0.1,-0.2,-0.6000000000000001,-0.7000000000000001,3.2,8.4,-40.1,49.3,10.4,16
500,8333.0,-0.4,-1.0,-0.7000000000000001,-1.0,2.4000000000000004,8.4,-50.2,44.6,16.700000000000003,16
501,8351.0,-0.5,-1.4000000000000001,-0.7000000000000001,-1.0,2.4000000000000004,8.4,-50.2,44.6,16.700000000000003,16
502,8367.0,-0.2,-2.1,-1.4000000000000001,-0.7000000000000001,0.9,7.4,-49.1,5.300000000000001,17.9,16
503,8384.0,0.2,-2.5,-2.5,-0.30000000000000004,0.6000000000000001,6.6000000000000005,-42.7,-17.200000000000003,11.000000000000002,16
504,8400.0,0.4,-2.5,-2.8000000000000003,-0.30000000000000004,0.6000000000000001,6.6000000000000005,-42.7,-17.200000000000003,11.000000000000002,16
505,8417.0,0.8,-2.4000000000000004,-3.1,0.4,0.7000000000000001,5.800000000000001,-18.900000000000002,-31.6,-9.5,16
506,8433.0,0.8,-2.1,-3.6,0.4,0.7000000000000001,5.800000000000001,-18.900000000000002,-31.6,-9.5,16
507,8450.0,0.6000000000000001,-1.3,-4.1000000000000005,0.30000000000000004,1.3,5.2,-9.4,-25.1,-20.1,16
508,8467.0,0.4,-0.7000000000000001,-3.4000000000000004,0.1,2.1,6.5,-12.200000000000001,-2.9,-30.799999999999997,16
509,8484.0,0.4,-0.7000000000000001,-2.5,0.1,2.1,6.5,-12.200000000000001,-2.9,-30.799999999999997,16
510,8500.0,0.0,-0.5,-1.0,-0.5,2.6,8.6,-1.0,4.300000000000001,-38.900000000000006,16
511,8517.0,-0.2,0.1,-0.2,-0.7000000000000001,3.0,9.200000000000001,3.3000000000000003,3.3000000000000003,-37.0,16
512,8533.0,-0.4,0.7000000000000001,0.1,-0.7000000000000001,3.0,9.200000000000001,1.0999999999999999,0.8,-33.1,16
513,8550.0,-0.5,1.0,0.2,-1.1,4.1000000000000005,9.600000000000001,-7.400000000000001,4.0,-26.200000000000003,16
514,8567.0,-0.8,1.4000000000000001,0.6000000000000001,-1.5,4.1000000000000005,10.3,-20.2,11.2,-16.8,16
515,8583.0,-1.0,1.4000000000000001,1.3,-1.5,4.1000000000000005,10.3,-20.2,11.2,-16.8,16
516,8600.0,-1.4000000000000001,1.0,3.4000000000000004,-2.0,3.4000000000000004,13.0,-28.3,14.600000000000001,1.7,16
517,8617.0,-1.1,0.8,3.8000000000000003,-1.6,3.4000000000000004,13.100000000000001,-22.8,3.2,7.8,16
518,8634.0,-0.9,1.0,3.6,-1.6,3.4000000000000004,13.100000000000001,-22.8,3.2,7.8,16
519,8650.0,-0.7000000000000001,1.7000000000000002,1.6,-1.3,4.9,9.700000000000001,-19.8,-32.5,13.5,16
520,8667.0,-1.0,3.5,-1.3,-1.7000000000000002,5.5,8.4,-42.2,-23.900000000000002,22.900000000000002,16
521,8684.0,-1.4000000000000001,2.7,-0.8,-1.7000000000000002,5.5,8.4,-42.2,-23.900000000000002,22.900000000000002,16
522,8700.0,-2.1,2.5,3.8000000000000003,-2.9000000000000004,3.5,15.3,-76.3,46.6,52.50000000000001,16
523,8717.0,-2.4000000000000004,1.2000000000000002,6.4,-2.8000000000000003,0.8,17.7,-42.5,51.0,62.8,16
524,8733.0,-1.8,-1.8,8.200000000000001,-2.8000000000000003,0.8,17.7,-42.5,51.0,62.8,16
525,8750.0,-1.0,-1.8,4.7,-1.6,0.30000000000000004,13.0,19.9,-13.0,37.900000000000006,16
526,8767.0,-0.8,-1.4000000000000001,2.7,-1.6,0.30000000000000004,13.0,19.200000000000003,-35.4,29.600000000000005,16
527,8784.0,-0.6000000000000001,-0.4,-0.5,-1.4000000000000001,1.9000000000000001,8.6,5.4,-39.699999999999996,28.500000000000004,16
528,8800.0,-1.0,0.0,-1.3,-1.2000000000000002,1.9000000000000001,8.4,-1.9,-27.1,38.300000000000004,16
529,8817.0,-0.8,-0.1,-1.3,-1.2000000000000002,1.9000000000000001,8.4,-1.9,-27.1,38.300000000000004,16
530,8833.0,-0.2,-0.5,-2.1,-0.5,1.4000000000000001,7.0,7.8,7.2,47.2,16
531,8850.0,0.0,-0.5,-3.2,-0.30000000000000004,1.4000000000000001,6.2,7.300000000000001,8.700000000000001,43.2,16
532,8867.0,0.0,-0.7000000000000001,-3.7,-0.30000000000000004,1.4000000000000001,6.2,7.300000000000001,8.700000000000001,43.2,16
533,8884.0,-0.30000000000000004,-0.7000000000000001,-4.5,-0.5,1.6,4.800000000000001,2.5,-9.5,35.5,16
534,8900.0,-0.1,-0.4,-5.2,-0.4,1.6,4.2,-0.1,-8.4,36.0,16
535,8918.0,-0.2,-0.5,-5.5,-0.4,1.6,4.2,-0.1,-8.4,36.0,16
536,8934.0,-0.1,-0.4,-5.2,-0.1,1.6,5.0,-24.8,4.1000000000000005,38.1,16
537,8950.0,0.30000000000000004,-0.5,-3.1,0.1,1.2000000000000002,6.9,-28.700000000000003,11.6,35.6,16
538,8967.0,0.4,-0.9,-1.9000000000000001,0.1,1.2000000000000002,6.9,-28.700000000000003,11.6,35.6,16
539,8984.0,0.4,-1.3,-0.1,0.1,0.5,9.9,-3.3000000000000003,6.9,17.0,16
540,9000.0,0.0,-1.0,0.6000000000000001,-0.4,1.0,10.200000000000001,15.100000000000001,-0.7,8.4,16
541,9017.0,-0.5,-0.5,0.7000000000000001,-0.4,1.0,10.200000000000001,15.100000000000001,-0.7,8.4,16
542,9033.0,-1.2000000000000002,0.30000000000000004,1.3,-1.3,2.3000000000000003,10.8,28.500000000000004,-3.1,14.800000000000002,16
543,9050.0,-1.1,0.4,1.3,-1.3,2.3000000000000003,10.8,28.500000000000004,-3.1,14.800000000000002,16
544,9067.0,-0.2,0.2,1.3,0.30000000000000004,2.1,11.200000000000001,1.2000000000000002,-34.1,11.6,16
545,9084.0,0.8,0.0,2.3000000000000003,1.1,2.0,12.100000000000001,-12.000000000000002,-48.9,-8.3,16
546,9100.0,1.2000000000000002,0.0,2.7,1.1,2.0,12.100000000000001,-12.000000000000002,-48.9,-8.3,16
547,9117.0,1.6,1.1,3.9000000000000004,1.8,4.0,13.4,6.5,-38.2,-61.599999999999994,16
548,9133.0,0.8,3.3000000000000003,2.8000000000000003,0.6000000000000001,5.9,11.3,26.3,-26.6,-72.7,16
549,9150.0,-0.1,4.3,0.9,0.6000000000000001,5.9,11.3,26.3,-26.6,-72.7,16
550,9167.0,-0.2,2.8000000000000003,0.4,1.0,3.2,11.5,-19.1,-3.1,-12.5,16
551,9183.0,1.8,-0.30000000000000004,3.8000000000000003,2.7,1.2000000000000002,13.700000000000001,-25.900000000000002,-0.6000000000000001,-3.9,16
552,9201.0,2.8000000000000003,-1.3,4.2,2.7,1.2000000000000002,13.700000000000001,-25.900000000000002,-0.6000000000000001,-3.9,16
553,9217.0,3.1,-2.1,3.8000000000000003,4.0,-0.2,12.8,6.8,-3.5,-23.6,16
554,9233.0,3.5,-2.2,1.5,3.8000000000000003,-0.1,10.8,9.4,-13.0,-39.400000000000006,16
555,9250.0,3.2,-1.9000000000000001,0.6000000000000001,3.8000000000000003,-0.1,10.8,9.4,-13.0,-39.400000000000006,16
556,9267.0,2.5,-1.1,-0.1,2.5,1.2000000000000002,9.1,11.8,5.4,-56.6,16
557,9284.0,2.0,-0.8,-0.7000000000000001,2.5,1.2000000000000002,9.1,19.8,20.3,-56.5,16
558,9300.0,1.2000000000000002,-0.6000000000000001,-2.3000000000000003,1.7000000000000002,1.5,7.800000000000001,19.8,20.3,-56.5,16
559,9317.0,0.30000000000000004,-0.5,-2.3000000000000003,0.1,1.7000000000000002,7.300000000000001,9.600000000000001,50.300000000000004,-49.1,16
560,9333.0,0.0,-0.5,-2.3000000000000003,0.1,1.7000000000000002,7.300000000000001,8.799999999999999,56.5,-43.7,16
561,9350.0,-0.4,-0.8,-2.1,-0.4,1.5,7.5,8.799999999999999,56.5,-43.7,16
562,9367.0,-0.6000000000000001,-1.0,-2.6,-1.2000000000000002,1.2000000000000002,6.6000000000000005,15.399999999999999,44.2,-39.8,16
563,9384.0,-0.7000000000000001,-1.0,-3.1,-1.2000000000000002,1.2000000000000002,6.6000000000000005,15.399999999999999,44.2,-39.8,16
564,9403.0,-0.9,-0.8,-4.3,-1.7000000000000002,1.7000000000000002,4.800000000000001,4.7,12.8,-35.7,16
565,9417.0,-0.9,-0.6000000000000001,-4.5,-1.6,1.7000000000000002,5.0,-8.4,-3.4,-30.7,16
566,9433.0,-0.9,-0.6000000000000001,-4.4,-1.6,1.7000000000000002,5.0,-8.4,-3.4,-30.7,16
567,9450.0,-0.7000000000000001,-0.1,-4.2,-1.2000000000000002,2.3000000000000003,5.5,-24.3,-25.8,-18.7,16
568,9467.0,-0.30000000000000004,0.4,-3.0,-0.8,2.5,6.9,-29.600000000000005,-21.3,-13.0,16
569,9484.0,-0.2,0.4,-2.1,-0.8,2.5,6.9,-29.600000000000005,-21.3,-13.0,16
570,9500.0,0.5,-0.1,-0.1,0.1,1.7000000000000002,10.100000000000001,-23.2,-13.3,-10.0,16
571,9517.0,0.7000000000000001,-0.2,1.4000000000000001,0.2,1.8,11.0,-10.8,-5.8,-15.100000000000001,16
572,9533.0,0.7000000000000001,-0.1,1.8,0.2,1.8,11.0,-10.8,-5.8,-15.100000000000001,16
573,9550.0,0.4,0.0,2.5,-0.4,2.1,12.0,12.200000000000001,16.900000000000002,-20.1,16
574,9567.0,0.1,0.30000000000000004,2.6,-0.8,2.3000000000000003,12.100000000000001,20.7,28.700000000000003,-17.7,16
575,9584.0,-0.30000000000000004,0.4,2.6,-0.8,2.3000000000000003,12.100000000000001,20.7,28.700000000000003,-17.7,16
576,9600.0,-0.4,0.6000000000000001,2.9000000000000004,-1.1,2.8000000000000003,12.600000000000001,17.599999999999998,32.4,-9.8,16
577,9617.0,-0.2,0.7000000000000001,3.3000000000000003,-1.0,3.1,12.700000000000001,17.599999999999998,32.4,-9.8,16
578,9633.0,-0.1,1.0,2.9000000000000004,-1.0,3.1,12.700000000000001,18.2,15.8,-8.200000000000001,16
579,9650.0,-0.9,1.3,0.2,-2.0,3.8000000000000003,9.600000000000001,5.6,5.300000000000001,0.6000000000000001,16
580,9667.0,-1.3,1.6,0.0,-2.0,3.8000000000000003,9.600000000000001,-27.0,30.799999999999997,19.3,16
581,9684.0,-1.7000000000000002,0.5,3.4000000000000004,-2.6,1.7000000000000002,14.3,-34.1,41.800000000000004,37.0,16
582,9700.0,-1.1,-1.4000000000000001,5.6000000000000005,-2.1,0.30000000000000004,15.0,-10.5,29.000000000000004,40.7,16
583,9717.0,-0.8,-2.0,5.300000000000001,-2.1,0.30000000000000004,15.0,-10.5,29.000000000000004,40.7,16
584,9733.0,-0.2,-1.5,1.9000000000000001,-1.5,0.7000000000000001,10.0,25.400000000000002,-27.1,16.3,16
585,9750.0,-0.6000000000000001,-1.2000000000000002,-1.2000000000000002,-1.6,1.3,7.7,19.200000000000003,-34.400000000000006,10.9,16
586,9767.0,-0.6000000000000001,-0.6000000000000001,-2.3000000000000003,-1.6,1.3,7.7,19.200000000000003,-34.400000000000006,10.9,16
587,9784.0,-1.1,-0.2,-2.7,-2.0,2.1,7.0,-5.8,13.8,20.5,16
588,9800.0,-1.0,-0.30000000000000004,-2.1,-2.0,1.8,7.9,-12.700000000000001,43.6,27.2,16
589,9817.0,-1.0,-0.6000000000000001,-1.2000000000000002,-2.0,1.8,7.9,-12.700000000000001,43.6,27.2,16
590,9833.0,-0.8,-1.0,0.0,-1.9000000000000001,1.1,9.5,-2.1,46.0,24.1,16
591,9850.0,-0.6000000000000001,-1.1,0.0,-1.9000000000000001,1.1,9.5,-2.1,46.0,24.1,16
592,9866.0,-0.2,-0.7000000000000001,-1.4000000000000001,-1.6,1.3,8.6,11.700000000000001,20.0,15.8,16
593,9883.0,-0.30000000000000004,-0.1,-3.2,-1.7000000000000002,2.3000000000000003,5.9,16.700000000000003,-9.200000000000001,8.5,16
594,9900.0,-0.5,0.1,-3.6,-1.7000000000000002,2.3000000000000003,5.9,6.5,-9.1,12.700000000000001,16
595,9917.0,-0.6000000000000001,0.30000000000000004,-3.1,-1.9000000000000001,2.6,6.0,6.5,-9.1,12.700000000000001,16
596,9933.0,-0.4,-0.2,-2.0,-1.5,2.1,7.7,-2.3000000000000003,-7.9,24.400000000000002,16
597,9950.0,-0.2,-0.30000000000000004,-1.5,-1.5,2.1,7.7,-2.3000000000000003,-7.9,24.400000000000002,16
598,9967.0,0.1,-0.30000000000000004,-0.5,-0.8,2.0,9.0,-0.6000000000000001,-30.200000000000003,23.400000000000002,16
599,9983.0,0.5,-0.30000000000000004,-0.2,-0.30000000000000004,2.2,9.200000000000001,1.3,-43.50000000000001,19.700000000000003,16
600,10000.0,0.7000000000000001,0.0,-0.2,-0.30000000000000004,2.2,9.200000000000001,1.3,-43.50000000000001,19.700000000000003,16
601,10016.0,1.2000000000000002,0.5,-0.4,0.7000000000000001,3.1,8.8,5.7,-49.5,13.8,16
602,10033.0,1.6,0.7000000000000001,-0.6000000000000001,1.2000000000000002,3.1,8.9,2.7,-38.7,9.9,16
603,10050.0,1.9000000000000001,0.7000000000000001,-0.30000000000000004,1.2000000000000002,3.1,8.9,2.7,-38.7,9.9,16
604,10067.0,2.2,0.5,1.1,1.7000000000000002,2.8000000000000003,11.100000000000001,3.1,-1.8,-5.2,16
605,10083.0,2.0,0.1,2.1,1.6,2.5,11.8,10.0,10.9,-16.3,16
606,10100.0,2.0,0.0,2.6,1.6,2.5,11.8,10.0,10.9,-16.3,16
607,10117.0,2.1,0.8,3.4000000000000004,1.6,4.1000000000000005,12.100000000000001,23.6,-14.0,-49.4,16
608,10133.0,2.0,1.7000000000000002,2.4000000000000004,1.6,4.1000000000000005,12.100000000000001,20.5,-34.0,-53.9,16
609,10150.0,1.1,3.3000000000000003,-1.7000000000000002,0.9,5.5,8.9,20.5,-34.0,-53.9,16
610,10167.0,0.9,1.9000000000000001,1.1,0.6000000000000001,2.8000000000000003,13.700000000000001,-79.7,30.599999999999998,-18.900000000000002,16
611,10184.0,1.5,-2.1,8.9,0.6000000000000001,2.8000000000000003,13.700000000000001,-55.900000000000006,43.50000000000001,-19.9,16
612,10200.0,1.6,-3.4000000000000004,9.5,1.0,-0.4,18.7,-55.900000000000006,43.50000000000001,-19.9,16
613,10217.0,2.7,-2.5,3.8000000000000003,2.3000000000000003,0.8,11.5,52.50000000000001,-14.700000000000001,-56.400000000000006,16
614,10233.0,3.0,-1.1,0.9,2.3000000000000003,0.8,11.5,52.50000000000001,-14.700000000000001,-56.400000000000006,16
615,10250.0,2.2,0.4,-1.3,1.2000000000000002,3.1,8.1,2.1,-37.0,-75.1,16
616,10267.0,1.2000000000000002,0.8,-1.1,0.5,3.1,8.8,-14.4,-19.8,-65.4,16
617,10284.0,0.9,0.6000000000000001,-0.6000000000000001,0.5,3.1,8.8,-14.4,-19.8,-65.4,16
618,10300.0,0.8,-0.4,0.1,0.0,1.5,9.600000000000001,-7.699999999999999,9.700000000000001,-52.6,16
619,10317.0,0.4,-1.0,-0.5,-0.4,1.3,8.700000000000001,1.5000000000000002,7.1000000000000005,-56.2,16
620,10334.0,0.2,-1.0,-1.2000000000000002,-0.4,1.3,8.700000000000001,1.5000000000000002,7.1000000000000005,-56.2,16
621,10350.0,-0.2,-0.9,-2.7,-1.1,1.5,6.2,8.4,-10.1,-61.50000000000001,16
622,10367.0,-0.5,-0.5,-4.0,-1.3,1.8,5.4,1.2000000000000002,-16.8,-59.00000000000001,16
623,10384.0,-0.6000000000000001,-0.4,-4.2,-1.3,1.8,5.4,1.2000000000000002,-16.8,-59.00000000000001,16
624,10400.0,-0.30000000000000004,-0.30000000000000004,-3.9000000000000004,-0.8,1.9000000000000001,5.7,-9.700000000000001,-31.099999999999998,-49.6,16
625,10417.0,0.0,-0.1,-3.8000000000000003,-0.8,1.9000000000000001,5.7,-8.5,-36.4,-48.00000000000001,16
626,10433.0,0.0,0.0,-3.8000000000000003,-0.6000000000000001,2.1,5.7,-8.5,-36.4,-48.00000000000001,16
627,10450.0,0.0,0.1,-2.4000000000000004,-0.5,2.3000000000000003,7.7,-16.400000000000002,-29.400000000000002,-44.2,16
628,10467.0,-0.1,0.30000000000000004,-1.6,-0.5,2.3000000000000003,7.7,-13.700000000000001,-14.4,-38.800000000000004,16
629,10484.0,-0.1,0.7000000000000001,-0.30000000000000004,-0.5,2.6,8.700000000000001,-13.700000000000001,-14.4,-38.800000000000004,16
630,10500.0,0.1,0.1,1.6,-0.30000000000000004,1.9000000000000001,11.700000000000001,-3.8,13.700000000000001,-25.700000000000003,16
631,10517.0,0.1,-0.2,2.5,-0.30000000000000004,1.9000000000000001,11.700000000000001,-3.8,13.700000000000001,-25.700000000000003,16
632,10533.0,0.0,-0.4,2.7,-0.7000000000000001,1.7000000000000002,12.0,19.6,11.000000000000002,-28.6,16
633,10550.0,-0.5,-0.2,2.2,-1.5,2.0,11.700000000000001,20.3,14.900000000000002,-26.8,16
634,10567.0,-1.0,-0.1,2.2,-1.5,2.0,11.700000000000001,20.3,14.900000000000002,-26.8,16
635,10584.0,-1.3,-0.1,2.5,-2.0,2.0,12.4,14.100000000000001,22.3,-8.700000000000001,16
636,10600.0,-0.9,0.1,2.8000000000000003,-1.5,2.4000000000000004,12.0,19.3,15.9,-2.9,16
637,10621.0,-0.4,0.5,1.8,-1.2000000000000002,2.7,11.200000000000001,21.8,4.300000000000001,-0.2,16
638,10633.0,-0.30000000000000004,0.4,1.3,-1.2000000000000002,2.8000000000000003,10.3,20.4,-3.3000000000000003,0.8,16
639,10650.0,-0.4,0.7000000000000001,0.2,-1.4000000000000001,3.0,9.8,13.0,2.1999999999999997,2.0,16
640,10667.0,-0.6000000000000001,0.6000000000000001,0.4,-1.4000000000000001,3.0,9.8,13.0,2.1999999999999997,2.0,16
641,10684.0,-1.3,0.30000000000000004,1.2000000000000002,-2.3000000000000003,2.6,10.700000000000001,7.699999999999999,29.700000000000003,15.2,16
642,10700.0,-1.3,-0.2,1.3,-2.4000000000000004,2.2,10.9,2.1999999999999997,33.1,22.4,16
643,10717.0,-1.3,-0.4,1.4000000000000001,-2.4000000000000004,2.2,10.9,2.1999999999999997,33.1,22.4,16
644,10733.0,-0.8,-0.9,1.5,-1.8,1.3,10.9,-15.6,7.0,25.3,16
645,10750.0,-0.5,-1.3,0.9,-1.6,1.1,10.100000000000001,-18.7,-9.600000000000001,21.200000000000003,16
646,10767.0,-0.5,-1.2000000000000002,0.2,-1.6,1.1,10.100000000000001,-18.7,-9.600000000000001,21.200000000000003,16
647,10784.0,-0.5,-0.9,-1.4000000000000001,-1.4000000000000001,1.5,7.6000000000000005,-13.4,-19.8,17.7,16
648,10800.0,-0.4,-0.7000000000000001,-2.2,-1.4000000000000001,1.5,7.6000000000000005,-10.2,-10.4,21.3,16
649,10817.0,-0.30000000000000004,-0.5,-3.3000000000000003,-1.2000000000000002,1.7000000000000002,5.9,-7.9,1.6,25.2,16
650,10833.0,-0.2,-0.6000000000000001,-3.9000000000000004,-1.1,1.5,5.5,-7.9,10.4,26.9,16
651,10850.0,-0.2,-0.7000000000000001,-4.0,-1.1,1.5,5.5,-7.9,10.4,26.9,16
652,10867.0,-0.1,-0.6000000000000001,-4.2,-1.1,1.7000000000000002,5.1000000000000005,-7.300000000000001,15.5,26.500000000000004,16
653,10883.0,-0.30000000000000004,-0.30000000000000004,-4.5,-1.4000000000000001,1.8,5.0,-15.6,16.0,28.700000000000003,16
654,10901.0,-0.4,-0.30000000000000004,-4.3,-1.4000000000000001,1.8,5.0,-15.6,16.0,28.700000000000003,16
655,10916.0,-0.5,-0.1,-3.1,-1.5,1.6,7.4,-37.800000000000004,16.400000000000002,39.50000000000001,16
656,10933.0,-0.4,-0.7000000000000001,-0.6000000000000001,-1.4000000000000001,1.1,9.1,-34.2,11.8,42.0,16
657,10950.0,-0.30000000000000004,-0.8,0.1,-1.4000000000000001,1.1,9.1,-34.2,11.8,42.0,16
658,10967.0,0.0,-0.8,0.7000000000000001,-1.0,1.0,9.9,-7.6,-9.3,39.300000000000004,16
659,10983.0,0.1,-0.6000000000000001,0.0,-0.8,1.2000000000000002,9.5,-9.3,-19.6,35.9,16
660,11000.0,0.2,-0.4,0.2,-0.8,1.2000000000000002,9.5,-9.3,-19.6,35.9,16
661,11017.0,0.4,-0.2,1.5,-0.2,1.5,11.4,-23.5,-34.1,29.600000000000005,16
662,11033.0,0.7000000000000001,-0.2,2.5,-0.2,1.5,11.4,-17.9,-33.900000000000006,23.700000000000003,16
663,11050.0,0.9,-0.2,2.7,0.1,1.4000000000000001,12.100000000000001,-17.9,-33.900000000000006,23.700000000000003,16
664,11067.0,1.0,0.0,2.8000000000000003,0.5,1.6,12.4,-8.3,-30.000000000000004,14.100000000000001,16
665,11084.0,1.0,0.4,2.8000000000000003,0.6000000000000001,2.0,12.4,2.3000000000000003,-21.200000000000003,2.7,16
666,11100.0,0.6000000000000001,0.7000000000000001,3.0,0.0,2.5,12.9,17.0,1.0999999999999999,-20.0,16
667,11117.0,0.5,0.9,3.7,0.0,2.9000000000000004,13.4,31.4,3.5,-35.0,16
668,11133.0,0.5,1.2000000000000002,3.8000000000000003,0.0,2.9000000000000004,13.4,31.4,3.5,-35.0,16
669,11150.0,-0.1,2.7,1.1,-0.8,5.4,9.1,63.2,-13.9,-57.699999999999996,16
670,11166.0,-0.30000000000000004,3.9000000000000004,-1.7000000000000002,-0.8,6.0,7.800000000000001,35.5,-17.1,-40.4,16
671,11184.0,-0.30000000000000004,3.6,-1.7000000000000002,-0.8,6.0,7.800000000000001,35.5,-17.1,-40.4,16
672,11200.0,0.5,1.4000000000000001,0.7000000000000001,0.8,2.6,11.0,-18.2,-8.4,4.800000000000001,16
673,11217.0,2.0,-0.6000000000000001,2.4000000000000004,2.0,1.3,12.100000000000001,-16.0,-6.2,7.6,16
674,11234.0,2.7,-1.2000000000000002,2.6,2.0,1.3,12.100000000000001,-16.0,-6.2,7.6,16
675,11250.0,3.4000000000000004,-1.1,1.8,3.0,1.3,11.0,-4.800000000000001,-22.1,-23.900000000000002,16
676,11267.0,2.6,-0.6000000000000001,1.2000000000000002,2.1,1.6,11.100000000000001,-13.8,-18.900000000000002,-37.300000000000004,16
677,11284.0,1.8,-0.4,1.7000000000000002,2.1,1.6,11.100000000000001,-13.8,-18.900000000000002,-37.300000000000004,16
678,11301.0,0.5,0.2,1.9000000000000001,0.0,2.2,11.200000000000001,-13.8,-0.6000000000000001,-28.6,16
679,11317.0,0.1,0.2,1.4000000000000001,0.0,2.2,11.200000000000001,-12.3,4.5,-14.600000000000001,16
680,11333.0,-0.30000000000000004,-0.30000000000000004,0.30000000000000004,-0.4,1.8,10.4,-12.3,4.5,-14.600000000000001,16
681,11350.0,-0.4,-0.9,-0.8,-0.6000000000000001,0.9,8.5,-13.8,-11.2,2.8,16
682,11367.0,-0.4,-1.1,-1.4000000000000001,-0.6000000000000001,0.9,8.5,-9.4,-22.7,4.5,16
683,11384.0,-0.30000000000000004,-1.4000000000000001,-2.7,-0.4,0.30000000000000004,6.4,-4.5,-29.900000000000006,1.8,16
684,11400.0,-0.4,-1.5,-3.8000000000000003,-0.4,0.30000000000000004,5.6000000000000005,-3.1,-30.9,-3.1,16
685,11417.0,-0.4,-1.4000000000000001,-4.2,-0.4,0.30000000000000004,5.6000000000000005,-3.1,-30.9,-3.1,16
686,11433.0,-0.5,-1.3,-4.6000000000000005,-0.4,0.4,5.0,-1.0999999999999999,-23.1,-8.799999999999999,16
687,11450.0,-0.6000000000000001,-1.2000000000000002,-4.6000000000000005,-0.30000000000000004,0.5,5.1000000000000005,-2.4000000000000004,-20.1,-10.5,16
688,11468.0,-0.6000000000000001,-1.2000000000000002,-4.4,-0.30000000000000004,0.5,5.1000000000000005,-2.4000000000000004,-20.1,-10.5,16
689,11483.0,-0.4,-1.3,-3.5,0.0,0.4,6.5,-9.4,-20.5,-13.8,16
690,11500.0,-0.2,-1.3,-2.2,0.1,0.30000000000000004,7.6000000000000005,-8.600000000000001,-18.3,-16.1,16
691,11516.0,-0.30000000000000004,-1.3,-1.6,0.1,0.30000000000000004,7.6000000000000005,-8.600000000000001,-18.3,-16.1,16
692,11533.0,-0.6000000000000001,-1.2000000000000002,-0.7000000000000001,-0.30000000000000004,0.5,9.1,-9.9,-8.700000000000001,-18.0,16
693,11550.0,-0.9,-0.9,0.2,-0.6000000000000001,0.6000000000000001,10.100000000000001,-15.9,1.0,-12.700000000000001,16
694,11567.0,-1.0,-1.0,1.0,-0.6000000000000001,0.6000000000000001,10.100000000000001,-15.9,1.0,-12.700000000000001,16
695,11583.0,-0.9,-1.2000000000000002,2.7,-0.6000000000000001,0.2,12.5,-19.400000000000002,10.8,-6.3,16
696,11600.0,-1.0,-1.2000000000000002,3.1,-0.5,0.30000000000000004,12.700000000000001,-14.4,2.8,-8.700000000000001,16
697,11617.0,-0.6000000000000001,-0.9,3.0,-0.5,0.30000000000000004,12.700000000000001,-14.4,2.8,-8.700000000000001,16
698,11633.0,0.1,0.1,1.7000000000000002,0.4,1.8,10.600000000000001,-1.8,-16.400000000000002,-19.6,16
699,11650.0,0.1,0.6000000000000001,0.6000000000000001,0.4,1.8,10.600000000000001,-1.8,-16.400000000000002,-19.6,16
700,11667.0,-0.6000000000000001,1.4000000000000001,-1.7000000000000002,-0.7000000000000001,2.7,8.6,-38.900000000000006,27.2,-9.4,16
701,11684.0,-1.5,0.9,1.3,-1.3,1.4000000000000001,12.600000000000001,-70.39999999999999,65.8,9.4,16
702,11700.0,-1.4000000000000001,-0.1,4.0,-1.3,1.4000000000000001,12.600000000000001,-70.39999999999999,65.8,9.4,16
703,11717.0,-0.7000000000000001,-2.2,8.0,-1.3,-2.2,18.0,-19.6,68.9,5.8,16
704,11733.0,-0.6000000000000001,-3.0,6.5,-0.6000000000000001,-1.6,14.8,28.200000000000003,33.2,-10.3,16
705,11750.0,0.1,-1.9000000000000001,3.8000000000000003,-0.6000000000000001,-1.6,14.8,28.200000000000003,33.2,-10.3,16
706,11767.0,-1.3,0.1,-0.5,-2.3000000000000003,1.2000000000000002,8.5,24.9,-18.3,-39.50000000000001,16
707,11783.0,-2.3000000000000003,0.8,-2.1,-2.7,2.1,7.5,2.0,-25.8,-29.900000000000006,16
708,11800.0,-2.4000000000000004,1.4000000000000001,-2.4000000000000004,-2.7,2.1,7.5,2.0,-25.8,-29.900000000000006,16
709,11816.0,-2.5,1.6,-1.8,-2.7,2.3000000000000003,8.4,-28.700000000000003,0.4,14.600000000000001,16
710,11833.0,-1.9000000000000001,1.0,-0.9,-2.1,1.7000000000000002,9.0,-30.4,13.4,33.7,16
711,11850.0,-1.5,0.7000000000000001,-0.6000000000000001,-2.1,1.7000000000000002,9.0,-30.4,13.4,33.7,16
712,11866.0,-1.0,0.30000000000000004,-0.7000000000000001,-1.2000000000000002,1.0,8.9,-21.5,-0.30000000000000004,44.2,16
713,11884.0,-0.7000000000000001,0.30000000000000004,-0.9,-1.2000000000000002,1.0,8.9,-13.9,-17.8,43.7,16
714,11900.0,-0.5,0.30000000000000004,-1.8,-0.9,1.0,8.3,-13.9,-17.8,43.7,16
715,11916.0,-0.7000000000000001,0.5,-2.8000000000000003,-0.9,1.2000000000000002,6.6000000000000005,-8.5,-32.6,46.5,16
716,11933.0,-0.7000000000000001,0.6000000000000001,-3.4000000000000004,-0.8,1.2000000000000002,6.4,-18.400000000000002,-33.300000000000004,51.2,16
717,11950.0,-0.7000000000000001,0.5,-3.0,-0.6000000000000001,0.9,7.6000000000000005,-28.3,-35.9,56.0,16
718,11966.0,-0.2,0.1,-1.5,0.0,0.4,8.5,-22.900000000000002,-39.400000000000006,55.6,16
719,11983.0,0.0,-0.1,-1.0,0.0,0.4,8.5,-22.900000000000002,-39.400000000000006,55.6,16
720,12000.0,0.1,0.30000000000000004,-0.7000000000000001,0.30000000000000004,0.8,9.0,6.3,-34.7,38.800000000000004,16
721,12017.0,-0.2,0.5,-0.9,0.1,0.9,8.9,12.100000000000001,-26.3,31.5,16
722,12033.0,-0.30000000000000004,0.5,-0.7000000000000001,0.1,0.9,8.9,12.100000000000001,-26.3,31.5,16
723,12050.0,-0.4,0.2,0.7000000000000001,0.0,0.6000000000000001,11.0,15.8,-9.8,17.0,16
724,12066.0,-0.5,-0.1,1.6,0.1,0.4,11.200000000000001,27.900000000000002,-4.0,11.6,16
725,12084.0,-0.30000000000000004,-0.30000000000000004,1.4000000000000001,0.1,0.4,11.200000000000001,27.900000000000002,-4.0,11.6,16
726,12100.0,0.4,-0.7000000000000001,1.2000000000000002,1.1,-0.1,11.200000000000001,24.000000000000004,1.2000000000000002,6.1000000000000005,16
727,12117.0,0.9,-1.1,2.3000000000000003,1.6,-0.2,12.4,14.800000000000002,-2.1999999999999997,-3.6,16
728,12133.0,1.3,-0.8,3.0,1.6,-0.2,12.4,14.800000000000002,-2.1999999999999997,-3.6,16
729,12150.0,1.8,0.30000000000000004,2.7,2.1,1.5,11.8,19.400000000000002,-24.3,-31.5,16
730,12166.0,0.8,0.8,1.0,2.1,1.5,11.8,8.200000000000001,-16.5,-27.2,16
731,12184.0,0.6000000000000001,0.5,0.9,1.4000000000000001,1.6,10.700000000000001,8.200000000000001,-16.5,-27.2,16
732,12200.0,1.1,-1.3,4.5,2.1,-1.0,15.3,-25.3,13.200000000000001,-3.1,16
733,12216.0,2.2,-2.7,6.2,2.7,-2.1,15.700000000000001,8.200000000000001,7.9,-11.3,16
734,12233.0,1.9000000000000001,-3.2,5.2,2.5,-2.1,13.100000000000001,53.50000000000001,-6.2,-27.2,16
735,12250.0,1.9000000000000001,-2.5,0.6000000000000001,2.4000000000000004,-1.0,9.1,72.10000000000001,-21.400000000000002,-44.5,16
736,12266.0,1.3,-1.2000000000000002,-3.3000000000000003,1.9000000000000001,0.30000000000000004,6.2,56.6,-28.6,-54.0,16
737,12283.0,0.9,-0.5,-4.3,1.4000000000000001,1.6,5.2,20.4,-27.900000000000002,-53.8,16
738,12300.0,0.2,0.6000000000000001,-4.4,1.0,2.0,5.7,-19.400000000000002,-12.9,-41.800000000000004,16
739,12317.0,0.1,0.7000000000000001,-3.8000000000000003,1.0,2.0,5.7,-19.400000000000002,-12.9,-41.800000000000004,16
740,12333.0,-0.4,0.2,-1.3,0.5,1.0,9.200000000000001,-58.3,28.700000000000003,-8.200000000000001,16
741,12350.0,-0.30000000000000004,-0.5,-0.1,0.4,0.30000000000000004,9.5,-50.800000000000004,35.5,1.3,16
742,12368.0,-0.30000000000000004,-0.8,-0.4,0.4,0.30000000000000004,9.5,-50.800000000000004,35.5,1.3,16
743,12384.0,0.0,-0.8,-1.3,0.6000000000000001,-0.1,8.200000000000001,-45.5,11.9,1.2000000000000002,16
744,12400.0,0.2,-0.7000000000000001,-1.9000000000000001,0.7000000000000001,-0.2,7.800000000000001,-47.300000000000004,-2.7,-3.9,16
745,12416.0,0.2,-0.7000000000000001,-2.0,0.7000000000000001,-0.2,7.800000000000001,-47.300000000000004,-2.7,-3.9,16
746,12433.0,0.1,-0.5,-1.9000000000000001,0.7000000000000001,-0.2,8.0,-45.1,-11.8,-14.800000000000002,16
747,12450.0,0.0,-0.4,-1.5,0.6000000000000001,-0.30000000000000004,8.3,-37.300000000000004,-9.4,-19.500000000000004,16
748,12466.0,0.0,-0.4,-1.3,0.6000000000000001,-0.30000000000000004,8.3,-37.300000000000004,-9.4,-19.500000000000004,16
749,12483.0,-0.1,-0.6000000000000001,-0.2,0.5,-0.6000000000000001,9.600000000000001,-7.699999999999999,-2.7,-32.5,16
750,12500.0,-0.30000000000000004,-0.4,-0.6000000000000001,0.30000000000000004,-0.2,8.9,12.700000000000001,1.8,-39.6,16
751,12516.0,-0.4,-0.1,-1.2000000000000002,0.1,0.4,8.0,22.900000000000002,8.1,-42.300000000000004,16
752,12533.0,-0.7000000000000001,0.5,-2.0,-0.2,0.8,7.7,19.3,12.5,-39.00000000000001,16
753,12550.0,-0.8,0.8,-1.8,-0.2,0.8,7.7,10.1,9.8,-32.1,16
754,12566.0,-0.7000000000000001,0.9,-1.4000000000000001,0.0,1.1,8.700000000000001,2.5,4.6000000000000005,-24.5,16
755,12583.0,-0.4,0.6000000000000001,-0.5,0.1,0.8,9.3,-1.0,2.4000000000000004,-19.9,16
756,12600.0,-0.4,0.5,-0.30000000000000004,0.1,0.8,9.3,-1.0,2.4000000000000004,-19.9,16
757,12616.0,-0.6000000000000001,0.4,0.7000000000000001,-0.2,0.4,11.4,-9.9,20.3,-8.700000000000001,16
758,12633.0,-0.6000000000000001,0.1,1.9000000000000001,-0.2,0.4,11.4,-9.9,20.3,-8.700000000000001,16
759,12650.0,-0.5,-0.30000000000000004,3.3000000000000003,-0.2,0.0,12.8,-4.1000000000000005,26.1,-3.9,16
760,12667.0,-0.4,-0.4,3.4000000000000004,-0.1,0.2,13.0,18.900000000000002,16.6,-8.4,16
761,12683.0,-0.1,0.7000000000000001,2.7,0.1,1.4000000000000001,12.100000000000001,28.3,3.7000000000000006,-16.6,16
762,12700.0,-0.2,1.4000000000000001,1.9000000000000001,0.1,1.4000000000000001,12.100000000000001,28.3,3.7000000000000006,-16.6,16
763,12716.0,-0.7000000000000001,2.4000000000000004,0.2,-0.9,3.3000000000000003,9.5,18.400000000000002,-11.6,-19.500000000000004,16
764,12733.0,-2.0,3.0,-0.30000000000000004,-1.9000000000000001,3.4000000000000004,10.100000000000001,-10.0,6.2,-2.1999999999999997,16
765,12750.0,-2.4000000000000004,2.6,1.1,-1.9000000000000001,3.4000000000000004,10.100000000000001,-10.0,6.2,-2.1999999999999997,16
766,12766.0,-1.5,0.5,5.300000000000001,-1.1,-0.2,16.1,-23.700000000000003,31.900000000000002,50.800000000000004,16
767,12783.0,-0.6000000000000001,-2.7,6.6000000000000005,-0.30000000000000004,-2.5,16.0,19.500000000000004,14.600000000000001,55.0,16
768,12800.0,0.4,-3.4000000000000004,5.1000000000000005,1.7000000000000002,-2.6,12.4,64.30000000000001,-15.299999999999999,41.300000000000004,16
769,12816.0,1.9000000000000001,-2.7,-0.1,1.8,-1.8,8.5,68.60000000000001,-37.6,11.2,16
770,12833.0,1.5,-2.3000000000000003,-2.0,1.8,-1.8,8.5,68.60000000000001,-37.6,11.2,16
771,12850.0,0.4,-1.6,-3.5,0.2,-0.4,6.7,14.900000000000002,-45.800000000000004,-12.5,16
772,12866.0,-0.8,-1.2000000000000002,-2.5,-0.5,-0.2,7.7,-5.7,-26.400000000000002,-8.200000000000001,16
773,12885.0,-1.5,-0.9,-1.2000000000000002,-1.0,-0.1,8.8,-15.2,-5.9,1.2000000000000002,16
774,12900.0,-1.7000000000000002,-0.9,-0.6000000000000001,-1.1,-0.1,9.5,-15.7,6.6000000000000005,14.0,16
775,12916.0,-1.4000000000000001,-0.9,-0.30000000000000004,-0.9,0.0,9.3,-12.5,9.0,22.000000000000004,16
776,12933.0,-1.2000000000000002,-0.7000000000000001,-0.7000000000000001,-0.9,0.0,9.3,-12.5,9.0,22.000000000000004,16
777,12950.0,-1.0,-0.2,-1.8,-0.4,0.7000000000000001,7.7,-26.400000000000002,-15.5,26.500000000000004,16
778,12967.0,-0.7000000000000001,0.2,-2.5,-0.1,0.8,7.1000000000000005,-33.400000000000006,-25.400000000000002,27.400000000000002,16
779,12983.0,-0.5,0.30000000000000004,-2.9000000000000004,-0.1,0.8,7.1000000000000005,-33.400000000000006,-25.400000000000002,27.400000000000002,16
780,13000.0,-0.6000000000000001,0.5,-3.2,0.0,0.9,6.7,-41.6,-21.6,25.700000000000003,16
781,13016.0,-0.6000000000000001,0.5,-2.6,0.2,0.6000000000000001,7.300000000000001,-36.4,-6.3,25.8,16
782,13033.0,-0.5,0.2,-2.1,0.2,0.6000000000000001,7.300000000000001,-36.4,-6.3,25.8,16
783,13050.0,-0.5,0.1,-1.1,0.2,0.30000000000000004,8.9,-23.0,6.2,17.1,16
784,13066.0,-0.4,0.2,-0.30000000000000004,0.30000000000000004,0.1,9.4,-6.6000000000000005,21.400000000000002,9.600000000000001,16
785,13083.0,-0.4,0.0,-0.2,0.30000000000000004,-0.5,9.200000000000001,8.4,33.0,1.4,16
786,13100.0,-0.6000000000000001,-0.4,-0.4,-0.30000000000000004,0.2,9.8,16.0,46.4,-9.5,16
787,13116.0,-0.8,0.4,0.30000000000000004,-0.30000000000000004,0.2,9.8,25.0,42.0,-13.200000000000001,16
788,13133.0,-0.7000000000000001,0.30000000000000004,0.7000000000000001,-0.30000000000000004,0.30000000000000004,10.5,32.1,21.0,-14.700000000000001,16
789,13150.0,-0.1,0.0,0.6000000000000001,0.2,0.30000000000000004,10.100000000000001,35.5,-0.7,-20.8,16
790,13166.0,0.0,0.0,0.2,0.2,0.30000000000000004,10.100000000000001,35.5,-0.7,-20.8,16
791,13183.0,0.0,0.1,-0.4,0.2,0.6000000000000001,9.5,18.3,-12.3,-29.1,16
792,13200.0,0.0,0.1,0.4,0.30000000000000004,0.5,10.5,9.4,-5.1,-22.8,16
793,13217.0,0.1,-0.2,1.1,0.30000000000000004,0.5,10.5,9.4,-5.1,-22.8,16
794,13233.0,0.4,-0.8,2.4000000000000004,0.8,-0.30000000000000004,12.5,16.8,14.900000000000002,-19.700000000000003,16
795,13250.0,0.9,-0.8,3.0,1.2000000000000002,0.0,12.600000000000001,26.8,10.3,-31.900000000000002,16
796,13270.0,1.1,-0.5,2.8000000000000003,1.2000000000000002,0.0,12.600000000000001,33.800000000000004,-2.9,-51.300000000000004,16
797,13283.0,0.30000000000000004,0.8,1.0,-0.2,2.2,10.200000000000001,24.6,-8.4,-63.900000000000006,16
798,13300.0,-1.5,2.4000000000000004,0.5,-1.7000000000000002,3.3000000000000003,10.8,0.5,-2.1,-57.1,16
799,13316.0,-2.3000000000000003,2.5,1.7000000000000002,-1.7000000000000002,3.3000000000000003,10.8,0.5,-2.1,-57.1,16
800,13333.0,-2.5,1.2000000000000002,4.7,-1.8,1.2000000000000002,15.5,-9.9,-17.599999999999998,-10.9,16
801,13350.0,-0.4,-0.8,5.300000000000001,-1.8,1.2000000000000002,15.5,20.2,-44.7,-3.1,16
802,13366.0,0.1,-1.4000000000000001,3.5,0.6000000000000001,-0.5,11.700000000000001,45.9,-60.1,-15.2,16
803,13383.0,0.1,-1.0,0.2,0.6000000000000001,0.2,9.0,50.5,-71.9,-25.8,16
804,13400.0,-0.2,-0.8,-1.3,0.6000000000000001,0.2,9.0,39.9,-75.3,-24.6,16
805,13416.0,-1.0,-0.4,-2.9000000000000004,0.5,1.3,6.6000000000000005,21.8,-66.1,-10.600000000000001,16
806,13433.0,0.0,0.4,-3.1,1.2000000000000002,1.8,6.800000000000001,-2.0,-52.300000000000004,0.5,16
807,13450.0,-0.1,0.5,-2.7,1.2000000000000002,1.8,6.800000000000001,-2.0,-52.300000000000004,0.5,16
808,13466.0,-0.7000000000000001,-0.1,-1.3,1.0,0.7000000000000001,9.0,-40.3,-28.1,37.4,16
809,13483.0,-0.1,-0.9,0.30000000000000004,1.5,-0.1,10.4,-44.6,-15.9,50.9,16
810,13500.0,0.2,-1.3,1.1,1.5,-0.1,10.4,-44.6,-15.9,50.9,16
811,13516.0,0.8,-1.9000000000000001,1.7000000000000002,2.5,-1.2000000000000002,11.200000000000001,-27.8,-15.2,48.2,16
812,13533.0,1.1,-1.8,0.9,2.8000000000000003,-1.1,10.3,-16.6,-26.400000000000002,36.800000000000004,16
813,13550.0,1.1,-1.7000000000000002,0.1,2.8000000000000003,-1.1,10.3,-16.6,-26.400000000000002,36.800000000000004,16
814,13566.0,0.9,-1.3,-1.3,2.5,-0.6000000000000001,8.200000000000001,-0.6000000000000001,-12.6,10.4,16
815,13583.0,0.4,-0.9,-1.6,2.1,-0.30000000000000004,8.0,4.9,2.8,2.8,16
816,13600.0,0.2,-0.8,-1.6,2.1,-0.30000000000000004,8.0,4.9,2.8,2.8,16
817,13616.0,-0.2,-0.7000000000000001,-1.7000000000000002,1.4000000000000001,0.0,7.9,19.9,25.400000000000002,-6.7,16
818,13633.0,-0.4,-0.4,-1.9000000000000001,1.2000000000000002,0.4,7.6000000000000005,20.1,25.0,-9.9,16
819,13650.0,-0.5,-0.1,-2.1,1.2000000000000002,0.4,7.6000000000000005,20.1,25.0,-9.9,16
820,13666.0,-0.7000000000000001,0.30000000000000004,-2.1,0.8,1.2000000000000002,7.6000000000000005,5.1,7.0,-5.8,16
821,13683.0,-0.8,0.5,-1.9000000000000001,0.8,1.2000000000000002,7.6000000000000005,-2.1999999999999997,0.2,-0.5,16
822,13700.0,-0.6000000000000001,0.5,-1.5,1.0,1.3,8.200000000000001,-6.9,-2.9,4.0,16
823,13716.0,-0.5,0.7000000000000001,-1.3,1.1,1.4000000000000001,8.3,-9.700000000000001,-4.9,7.9,16
824,13733.0,-0.4,0.7000000000000001,-1.3,1.1,1.4000000000000001,8.3,-9.700000000000001,-4.9,7.9,16
825,13750.0,-0.2,0.8,-1.3,1.5,1.5,8.3,-14.600000000000001,-9.200000000000001,13.700000000000001,16
826,13766.0,0.0,1.0,-1.3,1.5,1.7000000000000002,8.200000000000001,-16.5,-5.1,16.400000000000002,16
827,13784.0,-0.1,1.2000000000000002,-1.4000000000000001,1.5,1.7000000000000002,8.200000000000001,-16.5,-5.1,16.400000000000002,16
828,13800.0,-0.2,1.3,-1.2000000000000002,1.3,1.7000000000000002,8.6,-32.1,13.100000000000001,28.0,16
829,13816.0,-0.1,1.2000000000000002,-0.9,1.5,1.4000000000000001,8.8,-48.00000000000001,14.200000000000001,36.5,16
830,13833.0,0.0,0.9,-0.6000000000000001,1.5,1.4000000000000001,8.8,-48.00000000000001,14.200000000000001,36.5,16
831,13850.0,0.4,0.1,0.6000000000000001,2.2,-0.1,10.8,-66.4,8.5,42.2,16
832,13866.0,1.1,-0.30000000000000004,2.2,2.6,-0.5,12.0,-57.6,14.4,30.4,16
833,13883.0,1.2000000000000002,-0.4,2.7,2.6,-0.5,12.0,-57.6,14.4,30.4,16
834,13900.0,0.5,0.1,2.7,1.9000000000000001,0.4,12.0,-3.2,34.6,-2.5,16
835,13916.0,1.0,1.4000000000000001,1.6,1.9000000000000001,1.1,11.0,8.9,39.400000000000006,-17.400000000000002,16
836,13933.0,0.30000000000000004,1.5,0.8,1.9000000000000001,1.1,11.0,8.9,39.400000000000006,-17.400000000000002,16
837,13950.0,-1.2000000000000002,2.4000000000000004,1.1,-0.6000000000000001,1.7000000000000002,11.4,-25.2,46.900000000000006,-15.6,16
838,13967.0,-1.7000000000000002,1.0,4.0,-0.7000000000000001,0.4,14.4,-35.5,49.4,10.4,16
839,13983.0,-1.1,0.2,6.0,0.4,-1.1,16.5,-6.6000000000000005,35.6,35.7,16
840,14000.0,0.4,-1.5,6.300000000000001,1.1,-2.3000000000000003,15.3,37.1,3.6,42.800000000000004,16
841,14016.0,0.5,-2.0,4.9,1.1,-2.3000000000000003,15.3,37.1,3.6,42.800000000000004,16
842,14034.0,0.30000000000000004,-2.7,0.9,1.4000000000000001,-2.8000000000000003,9.1,79.10000000000001,-139.0,24.3,16
843,14049.0,0.0,-2.5,-2.1,1.6,-2.1,7.5,67.0,-178.8,11.3,16
844,14066.0,-0.1,-2.0,-2.3000000000000003,1.6,-2.1,7.5,67.0,-178.8,11.3,16
845,14083.0,0.6000000000000001,-1.7000000000000002,-3.4000000000000004,2.6,-1.4000000000000001,6.300000000000001,23.400000000000002,-31.6,15.299999999999999,16
846,14100.0,0.1,-1.3,-2.1,2.1,-0.7000000000000001,7.9,10.9,11.2,14.100000000000001,16
847,14116.0,-0.2,-0.7000000000000001,-1.2000000000000002,2.1,-0.7000000000000001,7.9,10.9,11.2,14.100000000000001,16
848,14133.0,-0.9,-0.2,-0.30000000000000004,1.1,0.2,9.4,19.400000000000002,-19.200000000000003,34.900000000000006,16
849,14150.0,-1.2000000000000002,-0.1,-0.2,1.2000000000000002,0.2,9.3,26.6,-41.4,57.00000000000001,16
850,14166.0,-1.1,-0.2,-0.30000000000000004,1.2000000000000002,0.2,9.3,26.6,-41.4,57.00000000000001,16
851,14183.0,-0.6000000000000001,-0.30000000000000004,-0.9,2.5,0.1,8.3,19.9,-35.8,99.10000000000001,16
852,14200.0,0.1,-0.30000000000000004,-1.3,2.5,0.1,8.3,19.9,-35.8,99.10000000000001,16
853,14217.0,1.5,-0.30000000000000004,-3.2,3.7,0.0,7.1000000000000005,8.0,-21.5,101.0,16
854,14233.0,1.3,0.1,-2.9000000000000004,3.4000000000000004,0.2,7.2,-80.30000000000001,29.400000000000002,40.4,16
855,14252.0,0.0,0.4,-1.0,2.5,0.2,8.6,-102.0,0.9,19.0,16
856,14267.0,-0.2,0.7000000000000001,-0.5,2.5,0.30000000000000004,9.0,-102.80000000000001,-21.900000000000002,14.700000000000001,16
857,14283.0,-0.1,1.0,0.1,2.7,0.2,9.8,-92.7,-22.3,12.6,16
858,14300.0,0.0,1.1,0.7000000000000001,2.7,0.2,9.8,-72.9,-27.5,5.8,16
859,14317.0,-0.30000000000000004,1.2000000000000002,1.1,2.4000000000000004,0.0,10.3,-48.6,-33.800000000000004,-4.7,16
860,14333.0,-0.5,1.3,0.8,2.4000000000000004,0.0,9.9,-24.200000000000003,-25.2,-15.6,16
861,14350.0,-0.4,1.2000000000000002,0.6000000000000001,2.4000000000000004,0.0,9.9,-24.200000000000003,-25.2,-15.6,16
862,14366.0,0.1,1.1,1.3,3.0,-0.1,10.600000000000001,25.6,26.3,-33.5,16
863,14384.0,0.1,0.9,1.0,2.7,-0.2,10.100000000000001,53.400000000000006,39.8,-37.800000000000004,16
864,14400.0,-0.1,0.7000000000000001,0.6000000000000001,2.7,-0.2,10.100000000000001,53.400000000000006,39.8,-37.800000000000004,16
865,14417.0,-0.7000000000000001,-0.30000000000000004,-0.30000000000000004,1.8,-1.1,9.200000000000001,37.900000000000006,10.9,-43.7,16
866,14433.0,-0.9,-0.6000000000000001,-0.4,1.8,-1.2000000000000002,9.1,29.200000000000003,-2.7,-51.1,16
867,14450.0,-0.8,-0.7000000000000001,-0.2,1.8,-1.2000000000000002,9.1,29.200000000000003,-2.7,-51.1,16
868,14466.0,-0.2,-0.4,0.7000000000000001,2.9000000000000004,-0.6000000000000001,10.5,9.4,-25.5,-51.2,16
869,14484.0,0.2,-0.2,1.3,3.6,-0.4,11.100000000000001,12.000000000000002,-32.7,-51.2,16
870,14500.0,0.9,-0.2,1.9000000000000001,3.6,-0.4,11.100000000000001,12.000000000000002,-32.7,-51.2,16
871,14516.0,0.9,-0.2,2.1,3.7,0.0,11.4,30.7,-34.800000000000004,-70.2,16
872,14533.0,0.1,1.0,1.6,3.1,1.3,10.700000000000001,39.00000000000001,-49.2,-79.2,16
873,14550.0,-0.4,1.8,1.1,2.7,2.8000000000000003,10.100000000000001,39.1,-50.4,-76.0,16
874,14567.0,-0.6000000000000001,3.0,0.6000000000000001,2.9000000000000004,3.8000000000000003,9.9,31.2,-33.5,-59.1,16
875,14584.0,-0.4,3.4000000000000004,0.6000000000000001,2.9000000000000004,3.8000000000000003,9.9,31.2,-33.5,-59.1,16
876,14600.0,0.2,2.5,0.9,3.8000000000000003,2.3000000000000003,10.0,13.5,-2.1,-13.5,16
877,14616.0,0.5,0.5,0.7000000000000001,4.0,0.7000000000000001,9.8,16.900000000000002,11.1,-5.6,16
878,14633.0,0.6000000000000001,-0.4,0.4,4.0,0.7000000000000001,9.8,16.900000000000002,11.1,-5.6,16
879,14650.0,0.30000000000000004,-1.2000000000000002,-0.5,3.6,-0.4,8.200000000000001,43.2,14.0,-8.200000000000001,16
880,14666.0,0.1,-1.2000000000000002,-1.6,3.2,-0.1,7.4,50.6,8.3,-11.9,16
881,14683.0,-0.2,-1.0,-2.1,3.2,-0.1,7.4,50.6,8.3,-11.9,16
882,14700.0,-0.5,0.0,-3.5,2.9000000000000004,1.7000000000000002,5.300000000000001,42.2,-1.0,-4.6000000000000005,16
883,14716.0,0.0,0.9,-4.1000000000000005,3.4000000000000004,2.4000000000000004,5.2,20.6,18.400000000000002,8.5,16
884,14734.0,0.30000000000000004,1.2000000000000002,-3.8000000000000003,3.4000000000000004,2.4000000000000004,5.2,20.6,18.400000000000002,8.5,16
885,14750.0,-0.2,1.1,-2.2,2.5,2.0,7.800000000000001,-24.200000000000003,84.3,31.2,16
886,14766.0,-0.5,-0.1,0.30000000000000004,2.5,2.0,7.800000000000001,-31.4,115.0,47.0,16
887,14783.0,-0.30000000000000004,-0.7000000000000001,1.6,2.3000000000000003,0.8,10.100000000000001,-31.4,115.0,47.0,16
888,14800.0,-0.1,-1.7000000000000002,3.2,2.1,-0.9,12.700000000000001,6.3,139.5,51.0,16
889,14817.0,0.30000000000000004,-2.1,3.1,2.1,-0.9,12.700000000000001,38.900000000000006,124.39999999999999,36.5,16
890,14833.0,0.9,-2.4000000000000004,1.5,2.4000000000000004,-0.9,10.100000000000001,66.5,105.10000000000001,13.4,16
891,14850.0,1.0,-1.7000000000000002,-0.7000000000000001,1.9000000000000001,0.1,8.4,81.10000000000001,95.80000000000001,-7.6,16
892,14866.0,0.8,-1.1,-1.5,1.9000000000000001,0.1,8.4,81.10000000000001,95.80000000000001,-7.6,16
893,14886.0,-0.1,0.1,-2.1,0.1,2.3000000000000003,7.300000000000001,73.60000000000001,103.2,-14.800000000000002,16
894,14900.0,-0.7000000000000001,0.4,-2.4000000000000004,-0.6000000000000001,2.4000000000000004,7.1000000000000005,57.400000000000006,99.8,-5.8,16
895,14917.0,-0.8,0.30000000000000004,-2.4000000000000004,-0.6000000000000001,2.4000000000000004,7.1000000000000005,57.400000000000006,99.8,-5.8,16
896,14933.0,-0.6000000000000001,0.0,-2.2,-0.9,2.4000000000000004,7.4,29.500000000000004,91.2,2.1999999999999997,16
897,14950.0,-0.9,0.1,-1.6,-1.6,2.6,8.200000000000001,22.2,88.4,1.5000000000000002,16
898,14968.0,-1.1,0.4,-0.9,-1.6,2.6,8.200000000000001,22.2,88.4,1.5000000000000002,16
899,14983.0,-1.2000000000000002,0.4,0.4,-2.1,2.7,10.0,21.5,67.3,16.6,16
900,15000.0,-0.7000000000000001,-0.2,1.1,-1.6,2.6,10.600000000000001,31.0,43.6,19.200000000000003,16
901,15016.0,-0.1,0.4,1.6,-1.6,2.6,10.600000000000001,31.0,43.6,19.200000000000003,16
902,15033.0,-0.2,0.1,-0.2,-1.3,2.8000000000000003,8.8,48.300000000000004,28.3,7.300000000000001,16
903,15050.0,0.30000000000000004,-0.2,-0.30000000000000004,-1.0,2.7,8.9,34.300000000000004,32.1,-1.2000000000000002,16
904,15067.0,0.5,-0.2,-0.30000000000000004,-1.0,2.7,8.9,34.300000000000004,32.1,-1.2000000000000002,16
905,15083.0,-0.2,0.1,-0.7000000000000001,-2.0,3.3000000000000003,8.5,12.000000000000002,14.0,-28.0,16
906,15100.0,-0.8,0.6000000000000001,-0.2,-2.4000000000000004,3.7,9.0,0.7,22.4,-20.6,16
907,15116.0,-0.8,0.8,0.0,-2.2,3.9000000000000004,9.1,-6.8,11.1,-10.4,16
908,15133.0,-0.4,0.9,-0.2,-1.9000000000000001,3.8000000000000003,8.8,-16.5,-7.699999999999999,-5.4,16
909,15150.0,-0.1,0.9,-0.4,-1.9000000000000001,3.8000000000000003,8.8,-16.5,-7.699999999999999,-5.4,16
910,15166.0,0.4,0.9,-0.2,-0.9,3.6,9.5,-45.0,-0.4,1.0,16
911,15183.0,0.9,0.7000000000000001,0.7000000000000001,-0.6000000000000001,3.3000000000000003,10.200000000000001,-47.300000000000004,2.7,1.4,16
912,15200.0,1.0,0.6000000000000001,1.1,-0.6000000000000001,3.3000000000000003,10.200000000000001,-47.300000000000004,2.7,1.4,16
913,15217.0,1.3,0.8,1.3,-0.1,3.4000000000000004,10.4,-35.3,-19.6,-5.1,16
914,15233.0,1.5,1.1,0.8,-0.2,3.5,10.100000000000001,-36.7,-13.0,-9.700000000000001,16
915,15250.0,1.1,1.2000000000000002,0.7000000000000001,-0.2,3.5,10.100000000000001,-36.7,-13.0,-9.700000000000001,16
916,15266.0,-0.5,0.7000000000000001,2.1,-2.8000000000000003,2.5,12.8,-66.4,51.1,-9.5,16
917,15283.0,-1.9000000000000001,0.1,5.6000000000000005,-3.8000000000000003,1.8,15.5,-59.20000000000001,74.5,8.1,16
918,15300.0,-1.9000000000000001,-0.2,6.7,-3.8000000000000003,1.8,15.5,-59.20000000000001,74.5,8.1,16
919,15316.0,-1.1,-1.0,5.6000000000000005,-2.8000000000000003,0.6000000000000001,13.8,12.200000000000001,6.6000000000000005,44.5,16
920,15333.0,-0.30000000000000004,-1.5,1.7000000000000002,-2.0,0.5,10.5,34.900000000000006,-63.10000000000001,38.7,16
921,15350.0,0.1,-1.4000000000000001,-0.2,-2.0,0.5,10.5,34.900000000000006,-63.10000000000001,38.7,16
922,15366.0,0.7000000000000001,-0.30000000000000004,-2.5,-0.30000000000000004,2.1,7.0,1.4,-116.9,20.1,16
923,15384.0,1.0,0.1,-2.6,-0.30000000000000004,2.1,7.0,-24.200000000000003,-87.60000000000001,16.8,16
924,15400.0,0.6000000000000001,0.1,-1.4000000000000001,-0.6000000000000001,1.9000000000000001,8.9,-33.400000000000006,-56.0,16.3,16
925,15416.0,-0.30000000000000004,-0.30000000000000004,-0.30000000000000004,-1.0,1.6,9.5,-29.900000000000006,-38.6,21.8,16
926,15433.0,-0.4,-0.30000000000000004,-0.1,-1.0,1.6,9.5,-29.900000000000006,-38.6,21.8,16
927,15450.0,-0.5,-0.5,0.0,-0.9,1.2000000000000002,9.700000000000001,-16.2,-34.7,30.200000000000003,16
928,15466.0,-0.4,-0.5,0.0,-0.5,1.2000000000000002,9.700000000000001,-8.4,-33.800000000000004,33.800000000000004,16
929,15483.0,-0.2,-0.5,0.0,-0.5,1.2000000000000002,9.700000000000001,-8.4,-33.800000000000004,33.800000000000004,16
930,15500.0,0.0,-0.6000000000000001,-0.6000000000000001,0.0,1.1,8.8,9.3,-42.7,30.200000000000003,16
931,15516.0,0.0,-0.5,-1.2000000000000002,0.1,1.3,8.4,15.299999999999999,-46.5,25.8,16
932,15533.0,0.1,-0.5,-1.4000000000000001,0.1,1.3,8.4,15.299999999999999,-46.5,25.8,16
933,15550.0,0.1,-0.30000000000000004,-1.9000000000000001,0.30000000000000004,1.6,7.6000000000000005,18.1,-46.6,16.400000000000002,16
934,15566.0,-0.2,-0.2,-2.1,0.1,1.7000000000000002,7.5,16.6,-43.6,10.2,16
935,15584.0,-0.5,-0.1,-2.1,0.1,1.7000000000000002,7.5,16.6,-43.6,10.2,16
936,15600.0,-1.2000000000000002,0.0,-2.3000000000000003,-0.6000000000000001,2.0,7.2,19.200000000000003,-36.4,4.7,16
937,15617.0,-1.4000000000000001,0.1,-2.5,-0.6000000000000001,2.2,7.0,21.400000000000002,-29.200000000000003,8.1,16
938,15633.0,-1.3,0.2,-2.6,-0.6000000000000001,2.2,7.0,21.400000000000002,-29.200000000000003,8.1,16
939,15650.0,-1.1,0.1,-2.4000000000000004,-0.1,2.3000000000000003,7.1000000000000005,18.8,-5.1,15.8,16
940,15666.0,-1.0,0.1,-2.2,-0.1,2.3000000000000003,7.1000000000000005,18.8,-5.1,15.8,16
941,15683.0,-0.9,0.1,-1.6,-0.2,2.5,8.1,6.7,5.8,10.600000000000001,16
942,15700.0,-1.1,0.4,-1.1,-0.30000000000000004,2.8000000000000003,8.3,4.800000000000001,2.3000000000000003,8.9,16
943,15716.0,-1.2000000000000002,0.6000000000000001,-1.1,-0.30000000000000004,2.8000000000000003,8.3,4.800000000000001,2.3000000000000003,8.9,16
944,15733.0,-1.0,0.8,-1.0,0.0,3.1,8.6,2.4000000000000004,4.7,14.500000000000002,16
945,15750.0,-0.6000000000000001,0.7000000000000001,-0.5,0.30000000000000004,2.9000000000000004,8.9,3.9,10.9,16.3,16
946,15766.0,-0.4,0.6000000000000001,-0.4,0.30000000000000004,2.9000000000000004,8.9,3.9,10.9,16.3,16
947,15783.0,-0.30000000000000004,0.4,-0.5,0.5,2.8000000000000003,8.700000000000001,12.100000000000001,19.9,15.399999999999999,16
948,15800.0,0.1,0.5,-0.5,0.8,2.9000000000000004,8.9,9.700000000000001,26.400000000000002,14.100000000000001,16
949,15816.0,0.2,0.5,-0.30000000000000004,0.8,2.9000000000000004,8.9,9.700000000000001,26.400000000000002,14.100000000000001,16
950,15833.0,0.1,0.6000000000000001,-0.1,0.6000000000000001,3.0,9.3,0.30000000000000004,29.1,6.7,16
951,15850.0,0.1,0.6000000000000001,0.0,0.6000000000000001,3.0,9.5,-7.699999999999999,29.1,5.300000000000001,16
952,15866.0,0.2,0.6000000000000001,0.2,0.6000000000000001,3.0,9.5,-7.699999999999999,29.1,5.300000000000001,16
953,15883.0,0.2,0.6000000000000001,0.8,0.6000000000000001,2.8000000000000003,10.3,-17.8,23.2,-4.7,16
954,15900.0,0.5,0.7000000000000001,1.0,0.8,3.0,10.3,-13.8,9.4,-13.5,16
955,15916.0,0.5,0.9,0.8,0.8,3.0,10.3,-13.8,9.4,-13.5,16
956,15933.0,0.30000000000000004,1.6,0.6000000000000001,0.7000000000000001,4.1000000000000005,10.200000000000001,-3.0000000000000004,0.1,-22.900000000000002,16
957,15949.0,0.4,2.0,0.8,0.7000000000000001,4.5,10.4,-2.1,11.5,-12.9,16
958,15966.0,0.4,2.2,1.0,0.6000000000000001,4.2,10.600000000000001,-7.0,29.300000000000004,3.6,16
959,15983.0,0.6000000000000001,1.4000000000000001,1.6,0.8,3.3000000000000003,11.3,-17.9,47.2,20.1,16
960,16001.0,0.9,0.9,2.1,0.8,3.3000000000000003,11.3,-27.8,54.7,27.2,16
961,16016.0,1.2000000000000002,-0.4,2.9000000000000004,1.1,1.1,12.600000000000001,-31.0,44.3,22.6,16
962,16033.0,1.5,-1.3,3.1,1.2000000000000002,0.4,12.5,-24.6,13.0,6.1000000000000005,16
963,16050.0,1.4000000000000001,-1.7000000000000002,2.8000000000000003,1.2000000000000002,0.4,12.5,-24.6,13.0,6.1000000000000005,16
964,16066.0,0.8,-1.5,1.7000000000000002,0.6000000000000001,0.8,10.8,3.2,-43.0,-19.8,16
965,16083.0,0.6000000000000001,-0.7000000000000001,0.5,0.6000000000000001,1.4000000000000001,9.9,13.5,-50.5,-17.3,16
966,16100.0,0.5,-0.4,0.0,0.6000000000000001,1.4000000000000001,9.9,13.5,-50.5,-17.3,16
967,16116.0,0.30000000000000004,-0.1,-0.6000000000000001,0.4,1.9000000000000001,9.1,11.700000000000001,-22.7,-0.6000000000000001,16
968,16133.0,0.0,-0.30000000000000004,-0.30000000000000004,0.2,1.6,9.4,6.7,-3.3000000000000003,11.2,16
969,16149.0,-0.2,-0.5,-0.1,0.2,1.6,9.4,6.7,-3.3000000000000003,11.2,16
970,16166.0,-0.30000000000000004,-0.9,0.1,0.0,1.0,9.600000000000001,1.4,-3.6,27.0,16
971,16183.0,-0.30000000000000004,-1.1,-0.2,0.1,0.9,9.3,-2.8,-15.000000000000002,28.8,16
972,16200.0,-0.30000000000000004,-1.1,-0.5,0.1,0.9,9.3,-2.8,-15.000000000000002,28.8,16
973,16216.0,-0.4,-0.9,-0.8,0.0,1.0,8.8,-17.5,-24.9,27.7,16
974,16233.0,-0.7000000000000001,-0.9,-0.7000000000000001,-0.1,0.9,8.8,-22.1,-24.400000000000002,26.3,16
975,16250.0,-0.7000000000000001,-1.0,-0.8,-0.1,0.8,8.700000000000001,-21.8,-25.5,24.3,16
976,16267.0,-0.8,-0.9,-1.0,0.1,0.9,8.6,-18.6,-25.3,22.4,16
977,16283.0,-0.4,-0.8,-1.2000000000000002,0.1,0.9,8.6,-15.2,-24.1,18.900000000000002,16
978,16300.0,-0.4,-0.7000000000000001,-1.5,0.5,1.1,7.9,-12.5,-24.1,12.6,16
979,16316.0,-0.4,-0.30000000000000004,-1.7000000000000002,0.5,1.4000000000000001,7.800000000000001,-11.3,-22.1,8.700000000000001,16
980,16334.0,-0.4,0.0,-1.7000000000000002,0.5,1.4000000000000001,7.800000000000001,-11.3,-22.1,8.700000000000001,16
981,16350.0,-0.4,0.4,-1.8,0.8,2.0,7.7,-13.5,-12.000000000000002,11.5,16
982,16366.0,-0.1,0.7000000000000001,-1.5,1.2000000000000002,2.2,8.200000000000001,-17.7,-1.7,15.299999999999999,16
983,16383.0,0.2,0.7000000000000001,-1.2000000000000002,1.2000000000000002,2.2,8.200000000000001,-17.7,-1.7,15.299999999999999,16
984,16400.0,0.30000000000000004,0.5,-0.5,1.3,1.8,9.200000000000001,-17.7,17.5,15.6,16
985,16416.0,0.2,0.5,-0.1,1.2000000000000002,1.9000000000000001,9.600000000000001,-16.0,19.200000000000003,14.800000000000002,16
986,16433.0,0.30000000000000004,0.6000000000000001,0.2,1.2000000000000002,1.9000000000000001,9.600000000000001,-16.0,19.200000000000003,14.800000000000002,16
987,16450.0,0.30000000000000004,0.7000000000000001,0.7000000000000001,1.2000000000000002,2.0,10.4,-13.0,12.100000000000001,12.200000000000001,16
988,16466.0,0.30000000000000004,0.9,0.9,1.2000000000000002,2.1,10.5,-8.0,3.0000000000000004,10.0,16
989,16483.0,0.30000000000000004,1.0,0.9,1.2000000000000002,2.1,10.5,-8.0,3.0000000000000004,10.0,16
990,16500.0,0.30000000000000004,1.5,0.6000000000000001,1.3,2.8000000000000003,10.200000000000001,0.7,-2.9,11.6,16
991,16516.0,0.4,1.7000000000000002,0.9,1.3,2.9000000000000004,10.600000000000001,0.4,11.1,17.0,16
992,16533.0,0.4,1.5,1.2000000000000002,1.2000000000000002,2.5,11.3,0.7,26.9,21.400000000000002,16
993,16550.0,0.30000000000000004,1.0,2.0,1.2000000000000002,2.1,11.9,5.7,31.3,22.8,16
994,16566.0,0.5,0.6000000000000001,2.4000000000000004,1.2000000000000002,2.1,11.9,14.500000000000002,23.1,19.3,16
995,16583.0,0.6000000000000001,0.5,2.2,1.3,1.8,11.4,23.6,5.8,10.4,16
996,16599.0,0.6000000000000001,0.6000000000000001,1.3,1.4000000000000001,2.2,10.8,26.6,-5.500000000000001,2.0,16
997,16616.0,0.7000000000000001,0.9,1.0,1.4000000000000001,2.2,10.8,26.6,-5.500000000000001,2.0,16
998,16633.0,0.5,1.3,1.1,0.8,3.1,11.0,22.8,10.700000000000001,-5.500000000000001,16
999,16650.0,-0.6000000000000001,1.6,1.7000000000000002,-0.2,3.2,11.4,20.4,32.800000000000004,3.5,16
1000,16666.0,-1.1,1.4000000000000001,1.8,-0.2,3.2,11.4,20.4,32.800000000000004,3.5,16
1001,16683.0,-1.7000000000000002,0.30000000000000004,2.3000000000000003,-1.2000000000000002,1.5,12.3,2.3000000000000003,58.1,41.0,16
1002,16700.0,-1.1,-1.1,3.1,-0.6000000000000001,0.2,12.9,-8.5,43.900000000000006,52.900000000000006,16
1003,16719.0,-0.4,-2.0,3.3000000000000003,-0.6000000000000001,0.2,12.9,-8.5,43.900000000000006,52.900000000000006,16
1004,16733.0,0.9,-3.1,2.4000000000000004,1.2000000000000002,-1.9000000000000001,11.100000000000001,6.1000000000000005,-40.3,21.3,16
1005,16749.0,0.7000000000000001,-3.7,-0.5,1.2000000000000002,-1.9000000000000001,8.8,19.1,-79.6,-4.1000000000000005,16
1006,16766.0,0.5,-3.3000000000000003,-1.6,1.2000000000000002,-1.9000000000000001,8.8,19.1,-79.6,-4.1000000000000005,16
1007,16783.0,0.2,-2.3000000000000003,-3.4000000000000004,1.1,-0.2,6.0,31.900000000000002,-91.50000000000001,-31.8,16
1008,16799.0,-0.1,-1.2000000000000002,-3.8000000000000003,1.0,0.8,5.800000000000001,30.100000000000005,-54.4,-33.6,16
1009,16816.0,-0.4,-0.7000000000000001,-3.6,0.4,1.7000000000000002,6.4,25.400000000000002,2.0,-27.400000000000002,16
1010,16833.0,-1.2000000000000002,0.0,-2.5,-0.4,2.1,7.5,20.2,51.400000000000006,-12.200000000000001,16
1011,16850.0,-1.6,0.1,-1.8,-0.4,2.1,7.5,20.2,51.400000000000006,-12.200000000000001,16
1012,16867.0,-1.7000000000000002,-0.2,-0.4,-1.0,1.6,9.5,6.9,75.5,28.6,16
1013,16883.0,-1.2000000000000002,-0.8,0.2,-0.4,1.0,9.8,-3.2,48.800000000000004,41.9,16
1014,16900.0,-0.7000000000000001,-1.2000000000000002,0.30000000000000004,-0.4,1.0,9.8,-3.2,48.800000000000004,41.9,16
1015,16917.0,0.4,-1.6,-0.1,1.3,0.30000000000000004,9.200000000000001,-28.700000000000003,-24.200000000000003,35.3,16
1016,16933.0,1.1,-1.5,-0.4,1.8,0.4,9.200000000000001,-39.9,-37.2,20.4,16
1017,16950.0,1.2000000000000002,-1.4000000000000001,-0.30000000000000004,1.8,0.4,9.200000000000001,-39.9,-37.2,20.4,16
1018,16967.0,1.2000000000000002,-1.1,0.2,1.8,0.7000000000000001,10.0,-34.2,-21.1,-9.5,16
1019,16983.0,0.6000000000000001,-0.6000000000000001,0.6000000000000001,1.3,1.1,10.200000000000001,-16.900000000000002,-9.3,-23.8,16
1020,17000.0,0.2,-0.30000000000000004,0.6000000000000001,1.3,1.1,10.200000000000001,-16.900000000000002,-9.3,-23.8,16
1021,17016.0,-0.4,0.0,-0.1,0.4,1.7000000000000002,9.1,20.1,-9.600000000000001,-39.699999999999996,16
1022,17033.0,-0.8,0.30000000000000004,-0.9,0.0,2.0,8.5,25.1,-6.5,-41.7,16
1023,17050.0,-1.0,0.4,-1.2000000000000002,0.0,2.0,8.5,25.1,-6.5,-41.7,16
1024,17066.0,-1.3,0.6000000000000001,-1.2000000000000002,-0.5,2.3000000000000003,8.4,12.8,1.2000000000000002,-36.0,16
1025,17083.0,-1.3,0.4,-1.0,-0.5,2.2,8.5,5.4,-3.8,-30.799999999999997,16
1026,17100.0,-1.3,0.30000000000000004,-1.1,-0.4,2.1,8.3,-0.6000000000000001,-14.3,-28.0,16
1027,17116.0,-1.2000000000000002,0.30000000000000004,-1.3,-0.30000000000000004,2.2,8.200000000000001,-7.300000000000001,-22.4,-25.400000000000002,16
1028,17133.0,-1.1,0.5,-1.3,-0.30000000000000004,2.2,8.200000000000001,-7.300000000000001,-22.4,-25.400000000000002,16
1029,17150.0,-1.0,0.8,-0.9,0.0,2.7,9.0,-21.700000000000003,-18.7,-16.8,16
1030,17167.0,-0.9,0.9,-0.1,0.1,2.5,9.600000000000001,-24.000000000000004,-11.8,-11.5,16
1031,17183.0,-0.9,0.8,0.30000000000000004,0.1,2.5,9.600000000000001,-24.000000000000004,-11.8,-11.5,16
1032,17200.0,-0.6000000000000001,0.5,0.9,0.5,2.0,10.700000000000001,-18.900000000000002,-2.6,-9.200000000000001,16
1033,17216.0,-0.4,0.2,1.5,0.6000000000000001,1.6,11.200000000000001,-11.000000000000002,6.5,-13.200000000000001,16
1034,17233.0,-0.4,0.0,1.8,0.6000000000000001,1.6,11.200000000000001,-11.000000000000002,6.5,-13.200000000000001,16
1035,17250.0,-0.6000000000000001,-0.2,1.9000000000000001,0.2,1.5,11.5,11.2,7.400000000000001,-28.900000000000002,16
1036,17266.0,-0.7000000000000001,0.1,1.8,0.2,1.7000000000000002,11.3,20.6,-0.1,-36.1,16
1037,17284.0,-0.6000000000000001,0.2,1.6,0.2,1.7000000000000002,11.3,20.6,-0.1,-36.1,16
1038,17300.0,-0.2,0.30000000000000004,1.1,0.7000000000000001,2.3000000000000003,10.3,35.199999999999996,-21.0,-54.1,16
1039,17316.0,-0.2,0.8,0.0,0.8,2.9000000000000004,9.4,37.5,-30.599999999999998,-64.50000000000001,16
1040,17333.0,-0.2,1.1,-0.4,0.8,2.9000000000000004,9.4,37.5,-30.599999999999998,-64.50000000000001,16
1041,17350.0,-0.4,2.2,0.0,0.4,4.7,9.700000000000001,24.6,-4.7,-69.2,16
1042,17367.0,-0.6000000000000001,2.6,0.4,0.4,4.7,9.700000000000001,18.5,26.3,-55.7,16
1043,17383.0,-0.6000000000000001,2.5,1.3,0.1,4.4,11.3,15.000000000000002,56.1,-38.1,16
1044,17400.0,-0.7000000000000001,1.7000000000000002,2.3000000000000003,-0.2,3.8000000000000003,12.0,15.5,67.0,-23.900000000000002,16
1045,17416.0,-0.7000000000000001,1.2000000000000002,2.6,-0.2,3.8000000000000003,12.0,15.5,67.0,-23.900000000000002,16
1046,17433.0,-0.6000000000000001,0.1,2.5,-0.4,2.1,11.8,19.1,40.0,-6.8,16
1047,17450.0,-0.4,-0.9,1.8,-0.2,1.5,11.0,20.6,11.5,-4.800000000000001,16
1048,17466.0,-0.2,-1.2000000000000002,1.2000000000000002,-0.2,1.5,11.0,20.6,11.5,-4.800000000000001,16
1049,17483.0,0.5,-1.6,-0.2,0.9,0.9,8.700000000000001,18.7,-35.6,-4.1000000000000005,16
1050,17500.0,0.9,-1.9000000000000001,-1.3,1.4000000000000001,0.8,8.0,13.8,-38.6,-7.0,16
1051,17517.0,1.1,-1.9000000000000001,-1.6,1.4000000000000001,0.8,8.0,13.8,-38.6,-7.0,16
1052,17537.0,1.3,-1.9000000000000001,-1.8,1.7000000000000002,0.8,7.6000000000000005,5.8,-23.3,-16.0,16
1053,17550.0,1.1,-1.9000000000000001,-2.0,1.6,0.9,7.300000000000001,4.9,-22.6,-19.700000000000003,16
1054,17568.0,1.0,-1.8,-2.2,1.6,0.9,7.300000000000001,4.9,-22.6,-19.700000000000003,16
1055,17583.0,1.2000000000000002,-1.4000000000000001,-2.5,2.0,1.5,6.800000000000001,-3.4,-25.1,-19.9,16
1056,17600.0,1.4000000000000001,-1.0,-2.4000000000000004,2.2,1.8,7.1000000000000005,-12.8,-15.399999999999999,-18.1,16
1057,17616.0,1.5,-0.8,-2.1,2.2,1.8,7.1000000000000005,-12.8,-15.399999999999999,-18.1,16
1058,17633.0,1.4000000000000001,-0.8,-1.0,2.0,1.7000000000000002,8.700000000000001,-23.0,17.599999999999998,-12.000000000000002,16
1059,17650.0,1.3,-0.8,-0.6000000000000001,2.0,1.7000000000000002,8.700000000000001,-21.8,27.900000000000002,-8.700000000000001,16
1060,17666.0,1.1,-0.8,0.2,1.6,1.7000000000000002,10.0,-21.3,38.300000000000004,-4.1000000000000005,16
1061,17683.0,1.0,-0.6000000000000001,1.1,1.4000000000000001,1.8,11.0,-23.400000000000002,52.300000000000004,1.8,16
1062,17700.0,1.0,-0.6000000000000001,1.7000000000000002,1.4000000000000001,1.8,11.0,-23.400000000000002,52.300000000000004,1.8,16
1063,17716.0,1.1,-1.1,2.6,1.1,0.9,12.100000000000001,-18.5,60.1,2.8,16
1064,17733.0,1.0,-1.6,2.3000000000000003,0.9,0.6000000000000001,11.5,-9.0,43.800000000000004,-6.6000000000000005,16
1065,17750.0,1.0,-1.6,1.7000000000000002,0.9,0.6000000000000001,11.5,-9.0,43.800000000000004,-6.6000000000000005,16
1066,17767.0,0.7000000000000001,-1.5,0.0,0.4,1.0,9.0,1.3,8.5,-26.9,16
1067,17783.0,0.5,-0.7000000000000001,-0.9,0.30000000000000004,1.7000000000000002,8.8,-1.8,10.8,-28.8,16
1068,17800.0,0.5,-0.2,-0.7000000000000001,0.30000000000000004,1.7000000000000002,8.8,-1.8,10.8,-28.8,16
1069,17816.0,0.30000000000000004,0.30000000000000004,-0.2,-0.2,2.4000000000000004,9.3,-4.7,33.300000000000004,-26.400000000000002,16
1070,17833.0,0.0,0.2,-0.2,-0.6000000000000001,2.3000000000000003,9.3,-3.8,29.800000000000004,-23.2,16
1071,17850.0,-0.2,0.2,-0.30000000000000004,-0.6000000000000001,2.3000000000000003,9.3,-3.8,29.800000000000004,-23.2,16
1072,17866.0,0.0,0.30000000000000004,0.1,-0.5,2.4000000000000004,9.700000000000001,-7.6,5.0,-13.200000000000001,16
1073,17883.0,0.1,0.30000000000000004,0.2,-0.4,2.4000000000000004,9.700000000000001,-6.7,-5.0,-12.200000000000001,16
1074,17900.0,0.2,0.4,0.1,-0.4,2.4000000000000004,9.700000000000001,-6.7,-5.0,-12.200000000000001,16
1075,17916.0,0.2,0.5,-0.4,-0.2,2.5,8.9,-5.7,-28.3,-5.500000000000001,16
1076,17933.0,0.30000000000000004,0.7000000000000001,-1.0,-0.1,2.8000000000000003,8.5,-13.700000000000001,-37.0,-2.8,16
1077,17950.0,0.30000000000000004,1.0,-1.0,-0.1,2.8000000000000003,8.5,-13.700000000000001,-37.0,-2.8,16
1078,17966.0,0.5,1.3,-0.4,0.30000000000000004,3.1,9.4,-37.0,-21.200000000000003,1.0,16
1079,17983.0,0.5,1.2000000000000002,0.0,0.30000000000000004,3.1,9.4,-37.0,-21.200000000000003,1.0,16
1080,18000.0,0.2,0.8,0.7000000000000001,-0.1,2.2,10.600000000000001,-35.5,6.2,2.5,16
1081,18016.0,0.1,0.30000000000000004,1.1,-0.1,1.9000000000000001,10.8,-29.000000000000004,7.400000000000001,0.9,16
1082,18033.0,0.1,0.30000000000000004,1.2000000000000002,-0.1,1.9000000000000001,10.8,-29.000000000000004,7.400000000000001,0.9,16
1083,18050.0,0.0,0.1,1.0,-0.30000000000000004,1.5,10.600000000000001,-13.9,-1.0,-7.9,16
1084,18066.0,0.0,0.1,0.8,-0.30000000000000004,1.6,10.3,-6.4,-7.1000000000000005,-11.9,16
1085,18084.0,0.0,0.2,0.5,-0.30000000000000004,1.6,10.3,-6.4,-7.1000000000000005,-11.9,16
1086,18100.0,0.1,0.4,-0.1,0.1,2.0,9.4,6.000000000000001,-20.7,-16.5,16
1087,18116.0,0.5,0.7000000000000001,-0.6000000000000001,0.5,2.2,8.9,9.200000000000001,-22.000000000000004,-18.900000000000002,16
1088,18133.0,0.7000000000000001,0.7000000000000001,-0.9,0.5,2.2,8.9,9.200000000000001,-22.000000000000004,-18.900000000000002,16
1089,18150.0,0.8,0.8,-1.0,0.8,2.3000000000000003,8.9,10.0,2.3000000000000003,-24.200000000000003,16
1090,18166.0,0.8,0.8,-0.5,0.7000000000000001,2.3000000000000003,9.3,11.4,18.0,-26.400000000000002,16
1091,18184.0,0.8,0.7000000000000001,-0.2,0.7000000000000001,2.3000000000000003,9.3,11.4,18.0,-26.400000000000002,16
1092,18200.0,0.7000000000000001,0.5,0.30000000000000004,0.5,2.1,10.0,21.5,28.900000000000002,-31.7,16
1093,18216.0,0.8,0.4,0.4,0.5,2.1,10.0,21.5,28.900000000000002,-31.7,16
1094,18233.0,0.9,0.4,0.30000000000000004,0.5,2.1,10.0,28.0,21.6,-34.6,16
1095,18250.0,0.9,0.5,-0.1,0.5,2.5,9.3,32.300000000000004,0.9,-41.0,16
1096,18266.0,0.9,0.6000000000000001,-0.30000000000000004,0.5,2.5,9.3,29.800000000000004,-3.7000000000000006,-43.800000000000004,16
1097,18283.0,1.1,0.8,-0.4,0.8,3.0,9.3,27.0,-2.4000000000000004,-46.0,16
1098,18300.0,1.3,0.9,-0.1,0.9,3.1,9.600000000000001,28.3,2.8,-47.300000000000004,16
1099,18316.0,1.4000000000000001,0.9,0.1,0.9,3.1,9.600000000000001,28.3,2.8,-47.300000000000004,16
1100,18333.0,1.7000000000000002,0.9,0.30000000000000004,1.2000000000000002,3.4000000000000004,9.700000000000001,42.6,2.0,-50.1,16
1101,18350.0,1.5,1.2000000000000002,0.0,0.7000000000000001,3.8000000000000003,9.5,47.400000000000006,6.7,-48.6,16
1102,18367.0,1.2000000000000002,1.3,0.0,0.7000000000000001,3.8000000000000003,9.5,47.400000000000006,6.7,-48.6,16
1103,18384.0,0.6000000000000001,1.6,0.6000000000000001,-0.5,4.2,10.5,36.1,56.6,-31.8,16
1104,18400.0,-0.1,1.1,1.6,-1.3,3.7,11.0,30.9,66.60000000000001,-21.1,16
1105,18416.0,-0.5,0.6000000000000001,1.7000000000000002,-1.3,3.7,11.0,30.9,66.60000000000001,-21.1,16
1106,18433.0,-1.1,-0.30000000000000004,1.1,-2.6,2.5,9.9,30.299999999999997,29.300000000000004,-4.800000000000001,16
1107,18450.0,-1.5,-0.5,-0.1,-2.6,2.5,9.9,30.299999999999997,29.300000000000004,-4.800000000000001,16
1108,18467.0,-1.5,-0.5,-0.5,-2.8000000000000003,2.6,9.0,24.3,5.500000000000001,3.5,16
1109,18484.0,-1.0,-0.6000000000000001,-0.4,-2.1,2.4000000000000004,9.0,6.6000000000000005,-3.0000000000000004,12.6,16
1110,18500.0,-0.6000000000000001,-1.0,-0.1,-2.1,2.4000000000000004,9.0,7.8,5.0,13.700000000000001,16
1111,18516.0,-0.6000000000000001,-1.3,-0.1,-1.9000000000000001,2.0,9.1,7.8,5.0,13.700000000000001,16
1112,18533.0,-0.8,-1.5,-0.30000000000000004,-2.1,1.8,8.8,18.400000000000002,2.7,10.0,16
1113,18549.0,-0.9,-1.3,-0.6000000000000001,-2.1,1.8,8.8,18.400000000000002,2.7,10.0,16
1114,18566.0,-0.9,-1.1,-0.6000000000000001,-2.3000000000000003,2.2,8.6,14.4,-1.9,3.0000000000000004,16
1115,18583.0,-1.1,-0.9,-0.4,-2.6,2.5,8.8,12.5,5.300000000000001,0.1,16
1116,18600.0,-1.4000000000000001,-0.8,-0.30000000000000004,-2.6,2.5,8.8,12.5,5.300000000000001,0.1,16
1117,18616.0,-1.7000000000000002,-0.8,-0.2,-3.0,2.6,8.8,11.1,-1.9,2.4000000000000004,16
1118,18633.0,-1.5,-0.7000000000000001,-0.4,-2.7,2.7,8.5,12.3,-19.0,4.6000000000000005,16
1119,18650.0,-1.3,-0.6000000000000001,-0.7000000000000001,-2.7,2.7,8.5,12.3,-19.0,4.6000000000000005,16
1120,18666.0,-0.9,-0.4,-1.5,-1.8,3.1,7.4,9.600000000000001,-42.5,8.700000000000001,16
1121,18683.0,-0.6000000000000001,-0.4,-1.7000000000000002,-1.8,3.1,7.4,3.8,-33.1,9.600000000000001,16
1122,18700.0,-0.2,-0.2,-1.7000000000000002,-1.3,3.2,7.300000000000001,3.8,-33.1,9.600000000000001,16
1123,18716.0,-0.30000000000000004,-0.2,-1.1,-1.3,3.2,8.200000000000001,-7.8,1.6,6.2,16
1124,18733.0,-0.6000000000000001,-0.30000000000000004,-0.5,-1.6,3.1,8.700000000000001,-12.000000000000002,8.200000000000001,4.0,16
1125,18749.0,-0.7000000000000001,-0.2,-0.2,-1.6,3.1,8.700000000000001,-12.000000000000002,8.200000000000001,4.0,16
1126,18766.0,-0.6000000000000001,0.0,0.30000000000000004,-1.6,3.4000000000000004,9.4,-21.200000000000003,1.6,0.7,16
1127,18784.0,-0.6000000000000001,0.1,0.30000000000000004,-1.6,3.4000000000000004,9.5,-21.200000000000003,1.6,0.7,16
1128,18800.0,-0.6000000000000001,0.2,0.5,-1.6,3.4000000000000004,9.5,-24.5,-0.30000000000000004,-2.1,16
1129,18816.0,-0.5,0.2,0.7000000000000001,-1.6,3.4000000000000004,9.9,-21.0,-1.6,-4.5,16
1130,18833.0,-0.6000000000000001,0.2,0.6000000000000001,-1.6,3.4000000000000004,9.9,-21.0,-1.6,-4.5,16
1131,18850.0,-0.4,0.30000000000000004,0.30000000000000004,-1.2000000000000002,3.4000000000000004,9.1,-8.799999999999999,-14.0,-0.4,16
1132,18866.0,0.1,0.30000000000000004,-0.5,-0.8,3.3000000000000003,8.6,-7.400000000000001,-17.0,1.9,16
1133,18884.0,0.30000000000000004,0.30000000000000004,-0.7000000000000001,-0.8,3.3000000000000003,8.6,-7.400000000000001,-17.0,1.9,16
1134,18900.0,0.6000000000000001,0.2,-1.0,-0.2,3.2,8.200000000000001,-12.8,-14.600000000000001,2.0,16
1135,18916.0,0.7000000000000001,0.30000000000000004,-0.9,-0.1,3.3000000000000003,8.6,-18.6,-7.699999999999999,1.3,16
1136,18933.0,0.7000000000000001,0.30000000000000004,-0.5,-0.1,3.3000000000000003,8.6,-18.6,-7.699999999999999,1.3,16
1137,18950.0,0.5,0.0,0.2,-0.4,2.8000000000000003,9.600000000000001,-21.6,-4.800000000000001,-2.8,16
1138,18966.0,0.2,0.0,0.30000000000000004,-0.6000000000000001,2.8000000000000003,9.5,-19.6,-10.4,-4.1000000000000005,16
1139,18983.0,0.1,0.1,0.2,-0.6000000000000001,2.8000000000000003,9.5,-19.6,-10.4,-4.1000000000000005,16
1140,19000.0,0.2,0.30000000000000004,0.2,-0.6000000000000001,2.8000000000000003,9.700000000000001,-29.500000000000004,-10.4,-3.1,16
1141,19016.0,0.1,0.0,0.7000000000000001,-0.6000000000000001,2.5,10.200000000000001,-32.9,-10.0,-5.300000000000001,16
1142,19033.0,0.1,-0.1,0.9,-0.6000000000000001,2.5,10.200000000000001,-32.9,-10.0,-5.300000000000001,16
1143,19049.0,-0.1,-0.2,1.1,-0.7000000000000001,2.3000000000000003,10.5,-21.900000000000002,-12.200000000000001,-12.200000000000001,16
1144,19066.0,-0.1,-0.1,1.2000000000000002,-0.8,2.3000000000000003,10.600000000000001,-12.8,-10.1,-15.000000000000002,16
1145,19083.0,-0.2,-0.1,1.2000000000000002,-0.8,2.3000000000000003,10.600000000000001,-12.8,-10.1,-15.000000000000002,16
1146,19100.0,-0.4,-0.1,1.0,-1.0,2.2,10.3,10.4,-8.799999999999999,-19.9,16
1147,19116.0,-0.4,-0.1,0.4,-1.0,2.2,10.3,10.4,-8.799999999999999,-19.9,16
1148,19133.0,-0.30000000000000004,-0.1,0.0,-0.7000000000000001,2.5,9.200000000000001,22.900000000000002,-18.8,-21.400000000000002,16
1149,19149.0,-0.1,0.1,-0.5,-0.6000000000000001,2.7,8.8,22.8,-21.1,-23.5,16
1150,19166.0,-0.1,0.2,-0.7000000000000001,-0.6000000000000001,2.7,8.8,22.8,-21.1,-23.5,16
1151,19183.0,0.0,0.30000000000000004,-1.3,-0.5,3.0,8.1,13.6,-17.8,-25.0,16
1152,19200.0,-0.2,0.6000000000000001,-1.0,-0.7000000000000001,3.2,8.6,5.4,-4.5,-23.5,16
1153,19217.0,-0.30000000000000004,0.6000000000000001,-0.6000000000000001,-0.7000000000000001,3.2,8.6,5.4,-4.5,-23.5,16
1154,19233.0,-0.4,0.30000000000000004,0.30000000000000004,-0.9,2.8000000000000003,10.0,-1.4,15.399999999999999,-18.8,16
1155,19250.0,-0.30000000000000004,-0.1,0.9,-0.9,2.5,10.3,1.4,12.9,-18.5,16
1156,19266.0,-0.30000000000000004,-0.30000000000000004,0.9,-0.9,2.5,10.3,1.4,12.9,-18.5,16
1157,19283.0,-0.1,-0.4,0.8,-0.6000000000000001,2.3000000000000003,10.100000000000001,7.1000000000000005,-0.8,-20.1,16
1158,19300.0,0.1,-0.4,0.4,-0.6000000000000001,2.3000000000000003,10.100000000000001,7.1000000000000005,-0.8,-20.1,16
1159,19316.0,0.1,-0.30000000000000004,0.2,-0.5,2.3000000000000003,9.700000000000001,8.5,-8.600000000000001,-23.1,16
1160,19333.0,0.1,0.0,-0.1,-0.5,2.7,9.200000000000001,7.2,-11.4,-25.3,16
1161,19350.0,0.1,0.0,-0.2,-0.5,2.7,9.200000000000001,5.1,-10.8,-24.9,16
1162,19366.0,0.2,0.1,-0.30000000000000004,-0.4,2.8000000000000003,9.1,5.1,-10.8,-24.9,16
1163,19383.0,0.1,0.30000000000000004,-0.1,-0.6000000000000001,3.1,9.4,0.6000000000000001,-1.2000000000000002,-22.6,16
1164,19400.0,-0.1,0.4,0.1,-0.6000000000000001,3.1,9.4,0.6000000000000001,-1.2000000000000002,-22.6,16
1165,19416.0,-0.1,0.4,0.8,-0.8,3.0,10.4,-5.500000000000001,0.30000000000000004,-19.400000000000002,16
1166,19433.0,-0.2,0.1,1.1,-0.8,2.7,10.600000000000001,-4.0,-6.8,-20.1,16
1167,19450.0,-0.1,0.0,1.2000000000000002,-0.8,2.7,10.600000000000001,-4.0,-6.8,-20.1,16
1168,19466.0,0.1,0.0,1.1,-0.4,2.7,10.5,7.0,-16.900000000000002,-26.700000000000003,16
1169,19483.0,0.2,0.1,1.0,-0.4,2.8000000000000003,10.4,15.7,-17.5,-32.800000000000004,16
