,ms,accelX,accelY,accelZ,accelWithGX,accelWithGY,accelWithGZ,rotRateAlpha,rotRateBeta,rotRateGamma,interval
0,188.0,0.1,0.0,0.4,1.0,2.7,9.8,-0.4,2.6,1.5,16
1,204.0,0.0,0.1,0.2,0.9,2.8000000000000003,9.600000000000001,2.6,2.1,1.2000000000000002,16
2,221.0,-0.1,0.0,0.0,0.8,2.8000000000000003,9.4,3.4,1.0,1.1,16
3,238.0,0.0,0.0,0.0,0.8,2.8000000000000003,9.3,2.6,-0.4,1.8000000000000003,16
4,254.0,0.0,0.0,0.0,0.9,2.8000000000000003,9.4,0.9000000000000001,-0.30000000000000004,2.5,16
5,271.0,0.0,0.0,0.0,0.9,2.8000000000000003,9.4,-0.30000000000000004,0.5,2.4000000000000004,16
6,287.0,0.1,0.1,0.1,1.0,2.8000000000000003,9.600000000000001,-0.4,1.6,1.7,16
7,304.0,0.1,0.0,0.2,0.9,2.7,9.5,0.2,2.2,1.6,16
8,321.0,0.0,-0.1,0.0,0.8,2.7,9.3,0.30000000000000004,1.9,3.0,16
9,338.0,0.0,0.0,0.0,0.9,2.7,9.3,-0.1,0.6000000000000001,3.8,16
10,354.0,0.1,0.0,0.0,0.9,2.7,9.3,0.1,-1.1,3.9,16
11,371.0,0.1,0.0,-0.1,0.9,2.8000000000000003,9.3,0.2,-1.9,3.8,16
12,387.0,0.1,0.0,-0.1,1.0,2.7,9.3,-0.30000000000000004,-2.1,3.6000000000000005,16
13,404.0,0.2,0.0,0.2,1.1,2.7,9.5,-0.30000000000000004,-2.1,3.4,16
14,421.0,0.2,0.0,0.2,1.1,2.7,9.600000000000001,2.3,-0.6000000000000001,1.8000000000000003,16
15,438.0,0.1,-0.1,-0.2,1.0,2.7,9.200000000000001,4.7,0.6000000000000001,0.5,16
16,454.0,0.1,-0.1,-0.2,0.9,2.7,9.0,3.2,-1.7,0.5,16
17,471.0,-0.1,-0.1,-0.4,0.9,2.7,8.9,-0.8,-3.2,1.3,16
18,487.0,0.0,0.0,-0.30000000000000004,1.0,2.8000000000000003,9.3,-4.4,-1.7,0.9000000000000001,16
19,504.0,0.1,0.0,0.0,1.1,2.8000000000000003,9.600000000000001,-5.300000000000001,-0.5,0.2,16
20,521.0,0.1,0.0,0.4,1.0,2.7,9.600000000000001,-5.0,3.9,-1.4,16
21,539.0,0.1,0.0,0.2,1.0,2.7,9.4,-4.300000000000001,5.2,-2.1,16
22,554.0,0.0,0.0,0.1,0.9,2.7,9.4,-2.8,2.9,-2.3,16
23,571.0,0.0,-0.1,0.2,0.9,2.6,9.600000000000001,-1.0,1.9,-1.6,16
24,587.0,0.0,-0.1,0.2,0.9,2.6,9.600000000000001,-0.1,2.0,-0.7,16
25,604.0,0.1,0.1,-0.1,0.9,2.8000000000000003,9.3,1.7,1.4,-0.2,16
26,623.0,0.2,0.30000000000000004,-0.5,1.1,3.0,8.9,1.5,-2.1,-2.1,16
27,637.0,0.2,0.30000000000000004,-0.5,1.2000000000000002,3.2,8.8,-0.4,-8.2,-6.4,16
28,654.0,0.30000000000000004,0.5,-0.5,1.1,3.1,9.1,-0.30000000000000004,-12.5,-11.4,16
29,671.0,0.0,0.30000000000000004,0.30000000000000004,0.7000000000000001,2.9000000000000004,9.9,10.1,-7.400000000000001,-13.700000000000001,16
30,687.0,-0.6000000000000001,-0.30000000000000004,0.4,0.30000000000000004,1.1,8.8,12.8,-5.0,-10.9,16
31,704.0,-1.4000000000000001,-1.9000000000000001,-0.2,-0.9,1.5,9.4,0.1,-3.7000000000000006,15.2,16
32,723.0,-1.3,-0.8,-0.8,0.2,2.7,7.6000000000000005,-20.400000000000002,6.4,32.7,16
33,737.0,-0.4,0.8,-1.8,0.6000000000000001,3.4000000000000004,7.6000000000000005,-28.0,-14.200000000000001,26.700000000000003,16
34,754.0,0.0,-1.8,-3.9000000000000004,1.1,0.8,5.5,-38.300000000000004,-67.10000000000001,31.5,16
35,771.0,0.7000000000000001,0.2,-0.5,2.2,2.6,8.9,-59.40000000000001,-84.80000000000001,37.50000000000001,16
36,787.0,1.1,1.7000000000000002,-0.1,2.8000000000000003,3.9000000000000004,9.3,-64.0,-72.10000000000001,28.200000000000003,16
37,804.0,1.3,1.3,1.5,3.2,3.3000000000000003,10.9,-57.20000000000001,-71.8,15.899999999999999,16
38,824.0,0.8,0.6000000000000001,2.7,2.8000000000000003,2.5,12.100000000000001,-34.0,-45.9,0.6000000000000001,16
39,839.0,0.8,0.6000000000000001,2.7,2.4000000000000004,1.5,13.3,-12.299999999999999,-3.7000000000000006,-6.1000000000000005,16
40,854.0,0.30000000000000004,-1.1,2.1,1.8,1.2000000000000002,11.9,2.8,11.8,2.9,16
41,872.0,-0.1,-0.2,1.5,2.2,1.6,10.8,13.5,10.8,6.500000000000001,16
42,887.0,0.2,-0.4,1.7000000000000002,2.2,1.7000000000000002,10.600000000000001,17.5,15.000000000000002,8.5,16
43,907.0,0.2,0.1,0.9,1.9000000000000001,2.3000000000000003,9.8,20.599999999999998,16.200000000000003,8.0,16
44,921.0,0.0,0.5,-0.6000000000000001,1.9000000000000001,2.5,8.8,22.1,5.7,6.8,16
45,940.0,-0.1,0.5,-1.1,1.7000000000000002,2.6,8.0,24.1,-14.600000000000001,4.5,16
46,955.0,-0.1,0.6000000000000001,-1.2000000000000002,1.8,2.8000000000000003,8.200000000000001,18.3,-25.0,5.300000000000001,16
47,971.0,0.30000000000000004,0.9,-0.5,2.4000000000000004,3.1,8.9,14.0,-23.800000000000004,4.7,16
48,987.0,0.5,0.9,0.2,2.6,3.1,9.600000000000001,7.500000000000001,-14.100000000000001,0.6000000000000001,16
49,1004.0,0.30000000000000004,0.7000000000000001,0.0,2.4000000000000004,2.9000000000000004,9.4,6.600000000000001,-2.7,-4.2,16
50,1020.0,0.30000000000000004,0.7000000000000001,0.0,2.3000000000000003,2.9000000000000004,9.0,6.699999999999999,-0.6000000000000001,-5.7,16
51,1037.0,0.0,0.5,-0.6000000000000001,1.9000000000000001,2.1,7.4,10.4,-23.2,0.0,16
52,1054.0,-0.30000000000000004,0.30000000000000004,-1.4000000000000001,2.0,3.1,8.200000000000001,13.6,-48.9,0.0,16
53,1071.0,0.0,0.6000000000000001,-0.5,2.5,2.8000000000000003,9.1,13.399999999999999,-53.599999999999994,-1.1,16
54,1087.0,0.2,0.4,0.30000000000000004,2.8000000000000003,2.8000000000000003,9.9,10.700000000000001,-49.199999999999996,-2.6,16
55,1105.0,0.30000000000000004,0.4,1.1,2.9000000000000004,2.8000000000000003,10.200000000000001,7.500000000000001,-30.1,-6.0,16
56,1126.0,0.1,0.30000000000000004,1.0,2.5,2.2,10.9,3.4,-5.500000000000001,-8.100000000000001,16
57,1138.0,-0.30000000000000004,-0.7000000000000001,1.4000000000000001,2.3000000000000003,1.7000000000000002,10.5,-13.000000000000002,38.400000000000006,1.8000000000000003,16
58,1154.0,-0.1,0.6000000000000001,-0.6000000000000001,2.3000000000000003,3.0,8.6,-14.0,36.400000000000006,3.4,16
59,1170.0,-0.1,0.6000000000000001,-1.0,2.3000000000000003,2.9000000000000004,8.200000000000001,-8.600000000000001,20.599999999999998,2.1,16
60,1187.0,-0.2,0.6000000000000001,-0.8,2.3000000000000003,2.9000000000000004,8.4,4.5,-11.1,-0.8,16
61,1204.0,-0.2,0.6000000000000001,-0.8,2.2,2.7,8.4,8.100000000000001,-22.8,0.2,16
62,1221.0,-0.30000000000000004,0.4,-1.0,2.2,3.0,7.800000000000001,4.0,-29.1,2.6,16
63,1247.0,0.2,0.9,-2.0,2.9000000000000004,3.3000000000000003,7.1000000000000005,-0.5,-53.599999999999994,4.5,16
64,1255.0,0.2,0.9,-2.0,3.1,3.3000000000000003,7.0,-1.8000000000000003,-63.4,4.800000000000001,16
65,1271.0,0.30000000000000004,0.6000000000000001,-1.8,3.2,2.6,7.5,-2.8,-70.8,6.699999999999999,16
66,1288.0,0.0,0.0,-1.7000000000000002,3.3000000000000003,2.4000000000000004,7.6000000000000005,-4.800000000000001,-84.9,13.200000000000003,16
67,1304.0,0.2,0.0,-0.5,3.6,2.4000000000000004,8.4,1.4,-102.7,20.2,16
68,1321.0,0.9,-0.30000000000000004,0.6000000000000001,4.6000000000000005,2.1,9.4,14.5,-102.89999999999999,23.900000000000006,16
69,1337.0,0.9,0.0,-0.2,4.9,2.3000000000000003,8.4,18.1,-95.5,25.8,16
70,1354.0,0.7000000000000001,-0.2,-0.8,5.0,2.1,7.7,14.300000000000002,-85.60000000000001,28.3,16
71,1370.0,1.2000000000000002,0.6000000000000001,-1.0,5.7,2.9000000000000004,7.4,-2.6,-69.5,31.7,16
72,1388.0,1.2000000000000002,0.6000000000000001,-1.0,6.2,2.5,7.4,-18.700000000000003,-60.6,30.4,16
73,1404.0,1.5,0.9,0.2,6.800000000000001,3.4000000000000004,9.600000000000001,-21.1,-42.900000000000006,18.8,16
74,1421.0,2.0,0.8,1.0,6.2,3.1,9.200000000000001,-22.3,-25.8,8.899999999999999,16
75,1437.0,1.1,1.0,1.5,5.800000000000001,2.8000000000000003,10.700000000000001,-25.8,3.1,3.6000000000000005,16
76,1454.0,0.6000000000000001,0.6000000000000001,3.0,5.4,2.6,11.700000000000001,-24.8,23.2,1.7,16
77,1470.0,0.30000000000000004,0.7000000000000001,3.5,4.6000000000000005,2.5,11.8,-20.2,64.2,-1.9,16
78,1487.0,-0.5,0.6000000000000001,2.7,3.7,2.9000000000000004,9.5,-17.0,99.9,-2.9,16
79,1504.0,-0.7000000000000001,1.9000000000000001,-0.8,3.6,3.7,7.800000000000001,-15.100000000000001,86.89999999999999,-7.300000000000001,16
80,1521.0,-0.9,2.1,-2.5,3.1,3.9000000000000004,6.300000000000001,-13.200000000000003,41.50000000000001,-16.0,16
81,1537.0,-1.6,1.7000000000000002,-2.7,2.4000000000000004,3.6,6.0,-13.900000000000002,18.4,-19.799999999999997,16
82,1554.0,-1.8,1.4000000000000001,-2.0,2.2,3.2,6.7,-22.2,-14.800000000000002,-24.3,16
83,1571.0,-1.5,1.2000000000000002,-0.6000000000000001,2.6,2.9000000000000004,8.1,-33.2,-29.900000000000006,-27.099999999999998,16
84,1588.0,-1.5,1.2000000000000002,-0.6000000000000001,2.9000000000000004,2.6,8.8,-38.7,-29.200000000000003,-29.600000000000005,16
85,1604.0,-1.0,0.30000000000000004,1.1,3.1,1.6,10.200000000000001,-41.300000000000004,-9.4,-29.700000000000006,16
86,1622.0,-0.9,0.1,1.4000000000000001,3.4000000000000004,1.9000000000000001,9.9,-39.0,-5.300000000000001,-33.2,16
87,1638.0,-0.7000000000000001,0.6000000000000001,0.5,3.5,2.1,8.9,-36.2,-15.2,-37.0,16
88,1656.0,-0.9,0.30000000000000004,0.0,3.0,1.4000000000000001,8.4,-26.300000000000004,-45.3,-41.800000000000004,16
89,1671.0,-1.4000000000000001,-0.2,-0.5,3.0,1.3,8.200000000000001,-24.1,-72.7,-36.0,16
90,1687.0,-1.0,-0.4,0.7000000000000001,3.5,1.0,9.200000000000001,-35.2,-69.00000000000001,-25.8,16
91,1704.0,-1.3,-1.4000000000000001,2.1,3.4000000000000004,0.0,10.600000000000001,-54.199999999999996,-29.900000000000006,-7.200000000000001,16
92,1721.0,-1.0,-1.1,1.8,3.7,0.1,10.4,-69.80000000000001,4.5,9.700000000000001,16
93,1737.0,-0.2,-0.7000000000000001,1.7000000000000002,4.5,0.30000000000000004,10.200000000000001,-69.60000000000001,5.500000000000001,15.100000000000001,16
94,1755.0,0.5,-0.30000000000000004,1.1,5.300000000000001,0.5,9.600000000000001,-50.400000000000006,-22.1,21.200000000000003,16
95,1773.0,1.0,-0.8,1.1,5.9,-0.1,9.600000000000001,-24.1,-60.8,23.700000000000003,16
96,1787.0,1.0,-0.8,1.1,6.9,-1.0,8.700000000000001,-6.699999999999999,-93.2,24.3,16
97,1804.0,1.6,-1.9000000000000001,0.2,5.7,-0.8,8.200000000000001,2.6,-108.90000000000002,39.50000000000001,16
98,1822.0,0.7000000000000001,-2.2,0.0,7.0,-2.3000000000000003,8.200000000000001,7.699999999999999,-104.60000000000001,59.40000000000001,16
99,1837.0,1.4000000000000001,-2.7,0.4,7.5,-2.8000000000000003,7.2,15.299999999999999,-97.40000000000002,66.1,16
100,1854.0,1.6,-4.0,-1.5,6.5,-2.0,6.300000000000001,24.200000000000003,-90.0,80.7,16
101,1870.0,1.2000000000000002,-3.0,-2.9000000000000004,7.4,-2.7,4.6000000000000005,28.500000000000004,-82.50000000000001,93.4,16
102,1887.0,1.3,-2.5,-2.4000000000000004,7.7,-2.4000000000000004,5.0,16.200000000000003,-60.00000000000001,95.4,16
103,1904.0,1.6,-1.8,-0.30000000000000004,8.1,-1.8,7.0,8.0,-11.900000000000002,89.9,16
104,1923.0,0.7000000000000001,-0.7000000000000001,-5.1000000000000005,7.2,-0.9,2.2,13.5,-45.5,76.0,16
105,1938.0,-3.1,-3.5,-5.6000000000000005,3.7,-3.8000000000000003,1.5,12.0,-73.6,82.0,16
106,1954.0,-4.3,-4.800000000000001,-3.9000000000000004,2.7,-5.4,3.0,3.2,-112.0,119.7,16
107,1971.0,-4.3,-4.800000000000001,-3.9000000000000004,2.5,-6.300000000000001,4.0,-2.0,-132.8,164.3,16
108,1987.0,-5.0,-6.5,-2.3000000000000003,2.4000000000000004,-9.0,5.2,6.4,-151.6,215.9,16
109,2004.0,-5.5,-9.200000000000001,0.9,1.7000000000000002,-11.700000000000001,6.7,6.1000000000000005,-132.3,277.8,16
110,2021.0,-5.6000000000000005,-10.600000000000001,0.8,2.6,-13.4,7.0,8.700000000000001,-131.4,308.80000000000007,16
111,2038.0,-2.8000000000000003,-9.0,1.0,6.1000000000000005,-11.5,6.4,30.3,-153.89999999999998,349.80000000000007,16
112,2054.0,-1.0,-8.6,0.9,6.4,-12.3,6.2,59.1,-163.6,371.90000000000003,16
113,2071.0,-2.3000000000000003,-10.200000000000001,0.30000000000000004,4.800000000000001,-14.8,5.300000000000001,60.5,-138.40000000000003,413.1,16
114,2087.0,-3.9000000000000004,-16.0,4.4,2.7,-21.400000000000002,9.200000000000001,53.50000000000001,-71.9,485.6,16
115,2107.0,-0.8,-18.3,7.2,4.800000000000001,-24.700000000000003,12.100000000000001,63.70000000000001,-11.1,570.7,16
116,2123.0,5.7,-17.1,8.8,10.0,-24.3,13.9,81.60000000000001,7.500000000000001,603.0,16
117,2138.0,16.2,-9.0,7.9,18.900000000000002,-16.7,13.3,115.50000000000003,43.2,628.3000000000001,16
118,2155.0,26.400000000000002,1.0,4.9,27.6,-6.800000000000001,10.700000000000001,148.20000000000002,55.400000000000006,573.0,16
119,2170.0,26.400000000000002,1.0,4.9,30.900000000000002,-2.6,9.8,180.29999999999998,80.10000000000001,428.59999999999997,16
120,2187.0,32.4,9.8,1.0,33.0,6.0,3.0,176.9,103.7,241.00000000000003,16
121,2204.0,33.9,14.5,-5.6000000000000005,29.700000000000003,5.800000000000001,1.6,151.5,115.60000000000001,138.7,16
122,2227.0,25.700000000000003,8.700000000000001,-2.6,20.200000000000003,-3.2,6.4,85.0,172.9,-54.0,16
123,2239.0,17.8,-0.5,-0.30000000000000004,13.200000000000001,-9.0,4.800000000000001,100.70000000000002,150.1,-79.19999999999999,16
124,2254.0,14.600000000000001,-3.1,-4.5,13.200000000000001,-9.600000000000001,2.7,154.00000000000003,23.900000000000006,-104.2,16
125,2271.0,15.600000000000001,-0.6000000000000001,-9.3,14.600000000000001,-6.7,-1.7000000000000002,157.0,-76.89999999999999,-147.0,16
126,2287.0,16.7,1.6,-11.3,16.3,-4.2,-3.4000000000000004,124.60000000000001,-142.3,-212.1,16
127,2304.0,10.9,-2.1,-6.2,11.3,-7.7,1.8,88.8,-135.0,-235.20000000000002,16
128,2323.0,2.5,-5.7,-1.3,3.5,-11.3,6.800000000000001,16.8,-46.199999999999996,-246.50000000000006,16
129,2337.0,2.5,-5.7,-1.3,0.0,-10.600000000000001,7.1000000000000005,-6.500000000000001,7.1000000000000005,-220.9,16
130,2354.0,-1.3,-5.2,-1.0,-0.2,-9.9,6.7,0.30000000000000004,3.1,-194.3,16
131,2371.0,-1.9000000000000001,-4.3,-1.2000000000000002,-1.0,-9.5,7.1000000000000005,10.9,-18.6,-166.20000000000002,16
132,2387.0,-4.3,-4.6000000000000005,-1.0,-2.8000000000000003,-10.100000000000001,7.5,28.3,-61.7,-131.29999999999998,16
133,2404.0,-6.2,-6.1000000000000005,0.9,-2.7,-11.0,10.200000000000001,30.1,-64.0,-108.39999999999999,16
134,2423.0,-4.800000000000001,-5.800000000000001,3.1,-1.4000000000000001,-10.600000000000001,11.3,29.600000000000005,-46.6,-66.5,16
135,2438.0,-3.7,-5.0,2.8000000000000003,-0.9,-9.8,10.8,43.4,-40.4,-28.1,16
136,2454.0,-1.9000000000000001,-2.9000000000000004,0.7000000000000001,1.0,-7.6000000000000005,8.8,60.5,-49.199999999999996,0.2,16
137,2470.0,0.5,-0.4,-1.2000000000000002,3.6,-5.0,7.0,68.60000000000001,-68.2,4.6,16
138,2487.0,0.7000000000000001,0.5,-1.3,4.0,-3.8000000000000003,6.800000000000001,67.7,-87.2,4.1,16
139,2504.0,-1.2000000000000002,1.0,2.5,2.4000000000000004,-3.2,10.600000000000001,50.900000000000006,-114.00000000000001,3.0,16
140,2521.0,-1.2000000000000002,2.5,7.2,2.6,-1.6,15.200000000000001,35.5,-108.39999999999999,5.6,16
141,2538.0,-1.2000000000000002,2.5,7.2,3.1,-0.6000000000000001,14.600000000000001,26.9,-83.4,-6.1000000000000005,16
142,2554.0,-0.5,3.7,6.9,3.6,-0.7000000000000001,14.9,9.2,-45.5,-27.700000000000003,16
143,2571.0,-1.1,3.1,6.7,2.2,-1.6,14.600000000000001,-1.8000000000000003,-9.4,-46.9,16
144,2589.0,-2.7,2.2,6.1000000000000005,0.4,-1.6,14.8,1.2000000000000002,28.900000000000002,-49.800000000000004,16
145,2604.0,-3.1,1.7000000000000002,5.6000000000000005,2.8000000000000003,-1.3,12.8,12.100000000000001,43.70000000000001,-49.9,16
146,2623.0,-0.4,4.1000000000000005,3.5,3.8000000000000003,0.6000000000000001,9.8,41.6,39.0,-80.0,16
147,2637.0,-0.7000000000000001,3.4000000000000004,0.6000000000000001,3.6,0.0,8.700000000000001,50.5,22.2,-106.5,16
148,2654.0,-0.9,1.8,-2.3000000000000003,3.4000000000000004,-1.4000000000000001,5.9,35.0,17.300000000000004,-123.00000000000001,16
149,2671.0,-3.8000000000000003,-3.7,-5.4,0.6000000000000001,-6.6000000000000005,2.9000000000000004,-5.9,22.4,-96.20000000000002,16
150,2688.0,-2.5,-4.6000000000000005,-9.0,1.9000000000000001,-7.6000000000000005,-0.7000000000000001,-28.600000000000005,11.900000000000002,-68.3,16
151,2704.0,-0.30000000000000004,-2.7,-7.4,4.2,-5.7,0.7000000000000001,-65.0,-36.6,-44.00000000000001,16
152,2724.0,0.6000000000000001,1.2000000000000002,-4.0,5.4,-2.0,3.9000000000000004,-68.4,-59.9,-32.5,16
153,2741.0,1.8,3.0,-4.800000000000001,6.800000000000001,-0.30000000000000004,2.9000000000000004,-54.1,-79.5,-53.0,16
154,2754.0,1.8,3.0,-4.800000000000001,6.2,-0.2,3.5,-46.1,-98.8,-105.0,16
155,2771.0,1.9000000000000001,4.6000000000000005,-2.5,4.6000000000000005,-4.3,8.700000000000001,-45.8,-85.1,-129.5,16
156,2790.0,-3.2,-3.4000000000000004,2.4000000000000004,1.4000000000000001,-7.4,10.100000000000001,-49.4,28.600000000000005,-133.70000000000002,16
157,2804.0,-4.800000000000001,-5.6000000000000005,3.2,1.5,-8.1,8.9,-40.6,43.900000000000006,-118.2,16
158,2822.0,-2.0,-3.8000000000000003,-2.3000000000000003,5.300000000000001,-4.9,0.5,-29.400000000000002,36.6,-94.9,16
159,2838.0,-0.5,-1.3,-10.100000000000001,5.2,-4.0,-2.6,-64.50000000000001,-65.2,-93.2,16
160,2854.0,-4.0,-1.0,-7.2,2.0,-3.8000000000000003,0.0,-114.3,-129.4,-41.300000000000004,16
161,2872.0,-3.3000000000000003,2.1,-4.2,3.1,-1.1,2.6,-167.9,-155.20000000000002,62.900000000000006,16
162,2887.0,3.0,3.0,2.3000000000000003,9.5,-0.8,8.6,-199.4,-117.4,108.60000000000001,16
163,2904.0,3.0,3.0,2.3000000000000003,14.100000000000001,-3.2,12.700000000000001,-256.6,-44.7,97.89999999999999,16
164,2922.0,8.6,0.4,12.5,11.4,-2.9000000000000004,15.700000000000001,-231.10000000000005,56.300000000000004,30.799999999999997,16
165,2938.0,5.0,2.1,10.100000000000001,10.100000000000001,-2.7,15.200000000000001,-180.9,58.800000000000004,-9.4,16
166,2954.0,3.2,1.0,8.1,9.1,-5.2,10.5,-134.4,72.30000000000001,-26.799999999999997,16
167,2970.0,1.4000000000000001,-0.4,1.6,6.5,-6.6000000000000005,4.1000000000000005,-130.5,67.4,-18.900000000000002,16
168,2989.0,1.4000000000000001,-1.1,-2.5,9.3,-6.5,2.1,-135.5,20.900000000000002,14.300000000000002,16
169,3004.0,4.5,0.2,-1.9000000000000001,10.5,-5.800000000000001,3.0,-137.5,-35.2,24.900000000000002,16
170,3022.0,6.0,1.7000000000000002,2.0,12.0,-4.5,6.6000000000000005,-148.60000000000002,-13.200000000000003,14.800000000000002,16
171,3037.0,4.6000000000000005,0.8,3.1,10.600000000000001,-5.6000000000000005,7.4,-149.9,39.8,6.300000000000001,16
172,3054.0,2.3000000000000003,-1.3,-3.2,8.3,-7.9,0.9,-126.49999999999999,39.699999999999996,3.4,16
173,3070.0,1.7000000000000002,-2.7,-3.3000000000000003,7.800000000000001,-9.3,0.7000000000000001,-61.10000000000001,2.6,-28.500000000000004,16
174,3087.0,1.7000000000000002,-2.7,-3.3000000000000003,9.600000000000001,-12.4,1.1,-25.0,63.900000000000006,-87.60000000000001,16
175,3106.0,0.7000000000000001,-1.0,-0.9,7.0,-7.300000000000001,3.3000000000000003,-57.3,127.3,-130.3,16
176,3121.0,0.7000000000000001,-1.0,-0.9,6.7,-6.7,5.7,-83.2,193.1,-133.10000000000002,16
177,3137.0,0.0,-1.4000000000000001,1.7000000000000002,5.6000000000000005,-8.200000000000001,6.4,-62.900000000000006,224.40000000000003,-122.30000000000001,16
178,3154.0,-2.0,-2.3000000000000003,0.6000000000000001,2.7,-7.7,4.1000000000000005,-42.7,207.90000000000003,-111.6,16
179,3171.0,-3.8000000000000003,-1.3,-0.4,2.2,-6.9,5.300000000000001,-9.700000000000001,128.9,-81.50000000000001,16
180,3188.0,-3.7,-1.0,0.9,1.7000000000000002,-6.800000000000001,5.9,23.700000000000003,63.500000000000014,-66.60000000000001,16
181,3204.0,-5.2,-1.4000000000000001,0.30000000000000004,0.9,-6.9,5.7,50.900000000000006,17.1,-44.6,16
182,3223.0,-4.6000000000000005,-2.0,1.3,1.2000000000000002,-7.5,7.9,47.900000000000006,40.7,-0.5,16
183,3237.0,-3.8000000000000003,-2.4000000000000004,2.6,2.1,-7.800000000000001,8.3,34.0,109.10000000000001,38.400000000000006,16
184,3254.0,-2.5,-3.2,1.8,3.0,-8.6,7.9,38.2,140.10000000000002,55.2,16
185,3270.0,-3.6,-5.5,-2.1,1.5,-11.0,4.4,71.10000000000001,169.2,105.20000000000002,16
186,3288.0,-3.9000000000000004,-5.2,-5.2,0.6000000000000001,-10.700000000000001,1.6,137.0,83.4,171.70000000000002,16
187,3304.0,-3.9000000000000004,-5.2,-5.2,1.0,-8.1,-2.8000000000000003,190.50000000000003,-68.5,216.6,16
188,3324.0,-3.8000000000000003,-0.2,-10.4,4.3,-1.6,-4.2,204.0,-188.8,244.0,16
189,3338.0,6.5,9.600000000000001,-12.5,15.700000000000001,6.1000000000000005,-1.7000000000000002,171.0,-229.99999999999997,147.8,16
190,3354.0,11.100000000000001,7.800000000000001,-5.6000000000000005,11.200000000000001,-0.6000000000000001,4.0,141.0,-209.3,77.3,16
191,3371.0,0.7000000000000001,1.5,-1.1,1.1,-4.5,7.0,69.10000000000001,-103.60000000000001,26.000000000000004,16
192,3387.0,-5.6000000000000005,-0.5,-2.4000000000000004,-0.6000000000000001,-5.4,4.5,13.8,-31.3,77.60000000000001,16
193,3404.0,-2.7,2.4000000000000004,-4.0,2.2,-2.6,2.8000000000000003,-3.0,-54.50000000000001,112.5,16
194,3424.0,4.5,9.1,-3.9000000000000004,9.5,3.9000000000000004,2.8000000000000003,-11.8,-120.3,80.50000000000001,16
195,3439.0,11.200000000000001,12.5,-0.30000000000000004,16.400000000000002,7.2,6.1000000000000005,-31.9,-121.70000000000002,44.4,16
196,3454.0,14.200000000000001,12.0,5.5,19.5,6.5,11.700000000000001,-125.9,-29.0,-58.0,16
197,3470.0,12.9,4.6000000000000005,13.5,18.2,-1.1,19.5,-263.5,191.0,-171.0,16
198,3487.0,12.9,4.6000000000000005,13.5,15.9,-5.5,21.1,-323.40000000000003,428.1000000000001,-242.20000000000002,16
199,3508.0,6.9,-4.2,15.700000000000001,8.5,-13.9,16.400000000000002,-201.60000000000002,456.5,-236.6,16
200,3527.0,-0.7000000000000001,-7.300000000000001,-5.300000000000001,3.6,-13.100000000000001,1.4000000000000001,-21.1,183.10000000000002,-184.4,16
201,3539.0,-0.7000000000000001,-7.300000000000001,-5.300000000000001,3.8000000000000003,-12.8,5.7,34.800000000000004,2.8,-139.5,16
202,3557.0,-0.5,-9.4,3.7,7.5,-11.600000000000001,9.1,84.6,15.5,-80.0,16
203,3572.0,4.1000000000000005,-2.7,-1.3,6.4,-5.2,7.0,101.30000000000001,25.1,-76.80000000000001,16
204,3587.0,1.2000000000000002,-3.6,-5.4,5.800000000000001,-8.4,1.8,116.80000000000001,60.5,-50.3,16
205,3604.0,2.5,-2.7,-3.2,7.1000000000000005,-7.2,4.2,127.6,44.5,-61.199999999999996,16
206,3624.0,4.800000000000001,0.1,-5.7,9.5,-4.0,1.9000000000000001,119.30000000000003,11.3,-124.60000000000001,16
207,3637.0,-4.0,-14.4,-4.800000000000001,0.9,-18.0,2.8000000000000003,107.00000000000001,-17.5,-125.9,16
208,3654.0,-13.100000000000001,-17.900000000000002,-10.700000000000001,-8.1,-21.3,-3.0,61.0,-43.800000000000004,-51.2,16
209,3671.0,-13.100000000000001,-17.900000000000002,-10.700000000000001,-10.5,-16.8,1.2000000000000002,23.2,-150.5,111.30000000000001,16
210,3687.0,-17.0,-9.5,-3.2,-9.4,-13.600000000000001,6.2,31.7,-189.70000000000002,275.7,16
211,3704.0,-10.0,-8.5,-1.5,-0.2,-7.800000000000001,5.2,87.3,-231.6,367.3,16
212,3724.0,1.9000000000000001,1.0,-6.300000000000001,15.100000000000001,0.0,-1.8,72.10000000000001,-327.80000000000007,339.8,16
213,3738.0,16.900000000000002,8.700000000000001,-4.4,27.6,6.300000000000001,11.100000000000001,27.5,-319.6,259.90000000000003,16
214,3754.0,20.5,11.200000000000001,8.1,20.400000000000002,7.2,12.200000000000001,-79.1,-70.6,35.699999999999996,16
215,3770.0,8.0,12.9,4.9,13.9,7.7,10.700000000000001,-130.20000000000002,71.10000000000001,-84.1,16
216,3787.0,5.300000000000001,9.3,1.8,11.200000000000001,4.1000000000000005,7.6000000000000005,-103.8,89.4,-154.9,16
217,3804.0,3.7,3.8000000000000003,-4.800000000000001,9.9,-1.2000000000000002,1.0,-108.3,11.3,-233.29999999999998,16
218,3827.0,-3.4000000000000004,-4.3,2.8000000000000003,0.30000000000000004,-7.2,11.8,-112.7,-25.1,-240.00000000000003,16
219,3838.0,-5.4,0.1,6.5,1.5,-4.3,11.9,-92.0,9.4,-228.10000000000002,16
220,3858.0,-8.6,-5.6000000000000005,0.30000000000000004,-1.4000000000000001,-9.700000000000001,5.7,-52.1,7.6,-184.9,16
221,3870.0,-8.6,-5.6000000000000005,0.30000000000000004,-0.6000000000000001,-2.4000000000000004,6.800000000000001,85.0,-78.5,-96.9,16
222,3888.0,-4.2,1.2000000000000002,-3.1,4.1000000000000005,-1.1,1.7000000000000002,87.89999999999999,-120.80000000000001,-103.40000000000002,16
223,3904.0,-3.3000000000000003,4.7,-3.7,3.2,1.3,0.6000000000000001,0.7,-63.2,-139.60000000000002,16
224,3927.0,-4.2,-0.4,-6.7,5.300000000000001,-7.6000000000000005,-4.3,-21.200000000000003,-109.50000000000001,-109.9,16
225,3937.0,-5.1000000000000005,-4.3,-5.0,1.9000000000000001,-6.9,-1.2000000000000002,-13.100000000000001,-131.0,-89.8,16
226,3954.0,-7.1000000000000005,-4.0,-8.8,1.4000000000000001,-6.7,-4.7,-18.900000000000002,-233.0,-59.9,16
227,3971.0,-6.5,-3.7,-6.6000000000000005,2.4000000000000004,-6.2,-3.3000000000000003,-6.300000000000001,-351.50000000000006,-18.5,16
228,3987.0,-5.5,-5.2,-5.300000000000001,3.7,-7.800000000000001,-3.1,38.400000000000006,-427.7,44.10000000000001,16
229,4004.0,-3.7,-3.5,-1.6,5.7,-6.300000000000001,-0.8,48.400000000000006,-454.40000000000003,69.10000000000001,16
230,4023.0,-0.8,0.1,9.5,8.5,-3.0,9.200000000000001,113.5,-320.90000000000003,145.7,16
231,4038.0,2.2,-6.300000000000001,4.2,11.3,-10.0,3.4000000000000004,167.79999999999998,-260.2,169.8,16
232,4054.0,2.2,-6.300000000000001,4.2,14.100000000000001,-16.3,-1.9000000000000001,263.2,-313.70000000000005,231.3,16
233,4071.0,6.4,-11.700000000000001,-1.5,15.3,-17.5,-1.8,345.6,-410.1000000000001,271.6,16
234,4087.0,7.4,-10.5,0.1,15.8,-12.9,-1.1,398.70000000000005,-386.0,308.20000000000005,16
235,4106.0,10.3,-4.2,1.8,22.1,-8.3,-0.8,347.1,-228.80000000000004,243.60000000000002,16
236,4128.0,20.0,-0.7000000000000001,0.2,23.5,-10.700000000000001,-1.9000000000000001,246.9,-88.4,79.39999999999999,16
237,4149.0,3.1,-8.4,1.0,9.5,-15.9,0.1,237.60000000000005,28.500000000000004,-11.5,16
238,4154.0,3.1,-8.4,1.0,9.5,-15.9,0.1,242.50000000000003,42.60000000000001,-24.599999999999998,16
239,4171.0,1.5,-9.700000000000001,0.8,7.9,-17.1,0.7000000000000001,250.00000000000003,63.70000000000001,-45.099999999999994,16
240,4187.0,2.7,-8.200000000000001,0.4,9.200000000000001,-15.5,1.0,273.70000000000005,99.7,-64.0,16
241,4204.0,2.8000000000000003,-7.1000000000000005,-4.6000000000000005,9.4,-14.200000000000001,-3.0,286.90000000000003,134.00000000000003,-65.6,16
242,4221.0,2.8000000000000003,-7.1000000000000005,-4.6000000000000005,8.200000000000001,-14.8,-6.300000000000001,274.0,168.3,-44.300000000000004,16
243,4238.0,0.1,-3.2,-11.700000000000001,6.6000000000000005,-9.8,-8.4,174.10000000000002,189.70000000000002,-17.5,16
244,4254.0,0.1,-3.2,-11.700000000000001,6.6000000000000005,-10.4,-2.7,142.20000000000002,196.0,-2.1,16
245,4270.0,1.4000000000000001,-3.2,-2.9000000000000004,7.800000000000001,-8.5,1.3,184.5,125.50000000000001,-3.0,16
246,4287.0,2.3000000000000003,-1.4000000000000001,-2.9000000000000004,8.1,-6.800000000000001,2.5,188.6,109.8,-14.400000000000002,16
247,4304.0,2.1,-0.4,-1.5,8.1,-5.4,4.7,175.10000000000002,117.30000000000001,-27.0,16
248,4320.0,3.0,1.4000000000000001,-0.9,8.700000000000001,-4.1000000000000005,4.800000000000001,149.60000000000002,183.6,-34.1,16
249,4338.0,5.300000000000001,2.1,-2.0,10.8,-3.1,4.3,140.8,208.4,-54.699999999999996,16
250,4354.0,1.9000000000000001,2.2,-2.9000000000000004,7.1000000000000005,-2.6,3.9000000000000004,147.1,188.9,-52.900000000000006,16
251,4370.0,-0.5,1.7000000000000002,-6.2,4.4,-2.6,1.2000000000000002,161.6,124.39999999999999,-32.6,16
252,4387.0,-2.5,2.1,-9.9,2.2,-1.9000000000000001,-2.3000000000000003,157.8,87.00000000000001,-18.5,16
253,4404.0,-2.7,2.3000000000000003,-10.8,1.9000000000000001,-1.3,-3.0,143.9,16.1,20.400000000000002,16
254,4420.0,-2.7,2.3000000000000003,-10.8,2.8000000000000003,-1.1,-3.0,122.79999999999998,-36.0,57.3,16
255,4437.0,-0.1,2.5,-10.4,6.800000000000001,-0.7000000000000001,-1.6,72.60000000000001,-24.7,69.4,16
256,4455.0,3.0,1.9000000000000001,-9.8,8.700000000000001,-2.0,-2.3000000000000003,5.4,18.200000000000003,59.300000000000004,16
257,4471.0,3.8000000000000003,2.0,-11.100000000000001,7.0,-1.2000000000000002,-3.0,-68.60000000000001,19.400000000000002,25.4,16
258,4487.0,-0.1,1.0,-8.0,2.1,-5.5,2.8000000000000003,-101.9,8.3,33.2,16
259,4504.0,-3.1,-4.800000000000001,-2.7,2.9000000000000004,-6.300000000000001,5.4,-98.0,-28.700000000000003,102.5,16
260,4520.0,-0.2,-1.0,-2.0,4.3,-5.4,5.5,-49.4,-130.20000000000002,124.50000000000001,16
261,4538.0,-2.5,-0.1,3.8000000000000003,2.2,-4.7,11.100000000000001,24.599999999999998,-179.30000000000004,153.60000000000002,16
262,4554.0,0.30000000000000004,2.1,1.2000000000000002,5.2,-2.7,8.3,60.1,-220.20000000000002,169.50000000000003,16
263,4570.0,-4.6000000000000005,-1.3,-1.5,0.5,-6.2,5.2,59.20000000000001,-221.3,173.3,16
264,4587.0,-4.4,-3.4000000000000004,0.2,0.8,-8.700000000000001,6.7,44.00000000000001,-212.8,245.70000000000005,16
265,4604.0,-1.9000000000000001,-5.6000000000000005,1.0,3.0,-11.3,7.2,22.700000000000003,-185.20000000000002,312.6,16
266,4621.0,-1.9000000000000001,-5.6000000000000005,1.0,3.3000000000000003,-11.3,7.9,25.300000000000004,-182.9,365.9000000000001,16
267,4637.0,-0.2,-5.7,0.0,6.4,-11.5,2.6,18.700000000000003,-191.60000000000002,385.3,16
268,4654.0,2.0,-4.0,-5.1000000000000005,7.9,-9.9,-0.7000000000000001,-3.5,-208.20000000000002,386.90000000000003,16
269,4670.0,4.7,-2.8000000000000003,-8.200000000000001,8.1,-10.0,-4.1000000000000005,-32.7,-202.20000000000002,373.2,16
270,4687.0,5.6000000000000005,-1.3,-8.8,10.200000000000001,-8.3,-2.8000000000000003,-119.0,-153.4,338.59999999999997,16
271,4704.0,8.8,0.9,-6.5,11.9,-7.0,-1.4000000000000001,-172.8,-121.5,264.0,16
272,4720.0,10.8,3.0,-5.0,12.9,-5.7,-1.1,-219.00000000000003,-69.3,178.4,16
273,4738.0,12.5,2.6,-6.1000000000000005,14.3,-6.5,-2.9000000000000004,-270.09999999999997,-8.700000000000001,103.89999999999999,16
274,4754.0,17.0,6.4,-4.2,18.7,-3.0,-2.0,-321.90000000000003,29.500000000000004,18.4,16
275,4771.0,20.400000000000002,8.0,-3.5,22.200000000000003,-1.6,-2.2,-340.1,42.5,-27.400000000000002,16
276,4788.0,20.8,6.1000000000000005,-0.6000000000000001,23.0,-3.4000000000000004,-0.4,-369.59999999999997,64.4,-129.5,16
277,4805.0,20.5,3.7,5.2,23.5,-5.6000000000000005,4.3,-386.30000000000007,101.9,-222.60000000000002,16
278,4820.0,20.5,3.7,5.2,22.5,-7.0,7.4,-401.70000000000005,220.5,-312.90000000000003,16
279,4837.0,18.400000000000002,0.6000000000000001,11.0,21.400000000000002,-9.3,10.4,-383.5,384.80000000000007,-396.5,16
280,4854.0,14.700000000000001,-1.4000000000000001,12.9,17.7,-9.700000000000001,9.600000000000001,-357.8,453.1,-427.00000000000006,16
281,4870.0,9.3,-2.6,9.600000000000001,15.0,-8.700000000000001,5.9,-277.1,517.8000000000001,-442.80000000000007,16
282,4888.0,5.9,-3.8000000000000003,5.9,12.600000000000001,-9.600000000000001,4.6000000000000005,-182.4,488.4000000000001,-413.79999999999995,16
283,4904.0,4.2,-5.7,3.7,12.8,-10.4,3.4000000000000004,-97.50000000000001,451.20000000000005,-374.8,16
284,4920.0,1.9000000000000001,-9.9,2.4000000000000004,11.0,-13.600000000000001,3.3000000000000003,-32.7,431.2,-340.5,16
285,4937.0,-1.8,-13.4,-0.4,7.4,-16.2,1.7000000000000002,12.8,390.09999999999997,-287.8,16
286,4954.0,-4.0,-12.8,-1.7000000000000002,5.1000000000000005,-14.8,1.4000000000000001,34.2,359.90000000000003,-250.20000000000002,16
287,4970.0,-3.1,-6.6000000000000005,-2.6,5.7,-8.0,1.4000000000000001,79.3,272.1,-200.4,16
288,4988.0,0.6000000000000001,-3.1,-2.2,9.200000000000001,-3.9000000000000004,2.3000000000000003,127.1,186.20000000000002,-171.60000000000002,16
289,5004.0,0.6000000000000001,-3.1,-2.2,11.4,-2.9000000000000004,1.8,144.60000000000002,168.1,-183.6,16
290,5020.0,3.3000000000000003,-2.2,-2.4000000000000004,11.700000000000001,-3.3000000000000003,1.2000000000000002,119.1,201.9,-200.5,16
291,5038.0,2.6,-5.6000000000000005,-5.9,8.9,-6.1000000000000005,-1.7000000000000002,45.8,215.7,-180.60000000000002,16
292,5054.0,-0.5,-8.1,-8.6,5.6000000000000005,-6.6000000000000005,-1.5,-2.0,209.4,-158.79999999999998,16
293,5070.0,-2.4000000000000004,-6.6000000000000005,-6.7,5.1000000000000005,-4.0,1.4000000000000001,-73.4,196.5,-103.7,16
294,5087.0,-0.8,-3.8000000000000003,-2.6,7.800000000000001,-1.3,5.1000000000000005,-84.1,205.6,-63.70000000000001,16
295,5106.0,1.8,-2.1,-2.2,8.1,-0.5,5.800000000000001,-63.4,220.3,-53.400000000000006,16
296,5123.0,3.3000000000000003,-2.0,-3.2,9.0,-0.7000000000000001,4.7,-25.4,212.40000000000003,-37.800000000000004,16
297,5137.0,3.0,-4.2,-8.8,8.4,-3.0,-0.7000000000000001,-3.1,100.2,4.5,16
298,5154.0,1.7000000000000002,-1.2000000000000002,-5.800000000000001,6.800000000000001,0.0,2.4000000000000004,-12.4,66.60000000000001,9.899999999999999,16
299,5171.0,1.7000000000000002,-1.9000000000000001,-4.1000000000000005,6.800000000000001,-0.8,4.2,-44.8,17.5,9.8,16
300,5187.0,1.7000000000000002,-1.9000000000000001,-4.1000000000000005,6.9,-0.6000000000000001,6.6000000000000005,-75.8,-3.3000000000000007,14.400000000000002,16
301,5204.0,2.5,-0.8,0.8,8.0,0.30000000000000004,11.200000000000001,-80.4,11.4,13.5,16
302,5220.0,3.1,-0.1,4.6000000000000005,8.200000000000001,0.6000000000000001,14.5,-62.4,51.50000000000001,8.600000000000001,16
303,5237.0,2.9000000000000004,0.1,5.800000000000001,7.2,-0.1,12.0,-49.1,68.0,3.1,16
304,5254.0,1.4000000000000001,-0.5,2.4000000000000004,5.4,0.1,10.100000000000001,-18.0,51.2,-6.9,16
305,5270.0,-0.30000000000000004,-0.5,0.30000000000000004,3.8000000000000003,-0.6000000000000001,6.7,14.5,15.100000000000001,-14.5,16
306,5287.0,-1.6,-1.4000000000000001,-1.9000000000000001,3.2,-1.0,6.7,37.7,-40.1,8.0,16
307,5304.0,-0.9,-0.2,-0.4,4.0,0.2,8.1,36.1,-32.8,30.5,16
308,5321.0,0.0,0.0,-1.6,4.9,0.5,6.800000000000001,20.7,-17.6,40.9,16
309,5337.0,0.8,-0.1,-3.5,5.9,0.4,4.9,10.200000000000001,-21.1,36.2,16
310,5354.0,0.7000000000000001,0.30000000000000004,-1.5,5.9,0.7000000000000001,6.800000000000001,-8.100000000000001,-51.300000000000004,18.3,16
311,5371.0,2.5,0.2,2.7,7.9,0.6000000000000001,10.9,-2.9,-68.2,5.9,16
312,5387.0,2.5,0.2,2.7,8.5,0.6000000000000001,12.200000000000001,9.899999999999999,-30.1,-12.200000000000001,16
313,5404.0,1.8,-0.30000000000000004,4.3,6.1000000000000005,-0.5,11.0,26.000000000000004,-5.7,-5.8,16
314,5420.0,-0.30000000000000004,-1.3,2.0,4.6000000000000005,-0.9,9.1,29.400000000000002,-8.4,17.5,16
315,5439.0,-0.7000000000000001,-1.1,0.0,5.6000000000000005,-0.30000000000000004,8.0,24.1,-20.400000000000002,30.799999999999997,16
316,5454.0,1.0,-0.30000000000000004,0.1,7.0,0.8,8.6,21.300000000000004,-21.500000000000004,29.500000000000004,16
317,5471.0,1.8,0.7000000000000001,0.5,7.300000000000001,1.2000000000000002,8.6,17.1,-9.5,21.300000000000004,16
318,5487.0,3.3000000000000003,1.0,-0.5,8.9,1.6,7.5,7.200000000000001,-8.4,0.9000000000000001,16
319,5504.0,2.2,0.9,1.1,7.7,1.5,9.200000000000001,-7.9,32.300000000000004,-17.0,16
320,5523.0,0.4,-1.0,0.4,5.9,-0.4,8.5,-17.799999999999997,47.80000000000001,-9.8,16
321,5537.0,-1.0,-0.6000000000000001,3.5,4.3,0.0,11.700000000000001,-16.3,65.8,-8.100000000000001,16
322,5555.0,-0.1,-2.2,-0.2,5.0,-1.7000000000000002,8.200000000000001,8.100000000000001,91.90000000000002,12.5,16
323,5571.0,-0.1,-2.2,-0.2,5.800000000000001,-0.8,8.5,12.200000000000001,63.4,16.8,16
324,5587.0,0.8,-1.2000000000000002,0.4,5.800000000000001,-0.30000000000000004,9.5,10.299999999999999,50.8,15.399999999999999,16
325,5604.0,1.0,0.0,2.3000000000000003,5.6000000000000005,1.3,12.200000000000001,16.5,80.10000000000001,16.8,16
326,5621.0,2.4000000000000004,0.30000000000000004,0.6000000000000001,8.3,1.2000000000000002,9.3,23.400000000000002,69.9,12.299999999999999,16
327,5637.0,2.7,0.8,2.6,5.0,1.3,11.200000000000001,32.2,77.00000000000001,-15.700000000000001,16
328,5654.0,-0.5,-0.1,1.4000000000000001,1.4000000000000001,-1.3,9.5,37.50000000000001,98.60000000000001,-15.5,16
329,5671.0,-3.1,-2.5,0.2,0.7000000000000001,-1.6,9.200000000000001,21.7,107.8,20.400000000000002,16
330,5687.0,-2.6,-1.9000000000000001,-2.1,1.0,-1.0,7.0,25.300000000000004,54.699999999999996,45.2,16
331,5704.0,0.4,-0.5,-1.0,3.8000000000000003,0.4,8.1,40.300000000000004,26.799999999999997,46.50000000000001,16
332,5721.0,0.9,0.4,-0.1,4.3,1.4000000000000001,9.1,46.0,26.1,44.9,16
333,5737.0,0.9,0.30000000000000004,-2.6,4.3,1.4000000000000001,6.6000000000000005,42.900000000000006,22.8,37.7,16
334,5754.0,0.9,0.30000000000000004,-2.6,6.7,4.3,6.5,44.00000000000001,-12.9,31.2,16
335,5770.0,3.3000000000000003,3.1,-2.6,7.5,4.9,8.1,28.700000000000003,-28.0,6.2,16
336,5787.0,4.2,3.7,-0.5,6.6000000000000005,4.4,7.800000000000001,2.0,-26.6,-22.700000000000003,16
337,5804.0,1.3,1.8,-0.2,3.4000000000000004,1.7000000000000002,9.1,-7.6,-26.5,-26.6,16
338,5821.0,-1.6,-0.9,-0.4,1.8,-1.0,8.5,-3.7000000000000006,-48.2,-16.900000000000002,16
339,5840.0,-2.6,-3.2,-0.30000000000000004,0.6000000000000001,-3.0,8.6,7.1000000000000005,-69.60000000000001,0.30000000000000004,16
340,5854.0,-4.5,-5.300000000000001,0.8,-0.4,-4.0,9.600000000000001,-1.8000000000000003,-51.300000000000004,23.5,16
341,5871.0,-5.7,-6.6000000000000005,1.2000000000000002,-1.6,-5.4,10.0,-14.300000000000002,-23.2,62.300000000000004,16
342,5888.0,-3.4000000000000004,-2.6,0.9,0.8,-1.5,9.700000000000001,1.3,-33.2,73.0,16
343,5905.0,-1.3,1.1,-0.9,3.1,2.1,7.800000000000001,11.000000000000002,-51.4,70.6,16
344,5924.0,1.0,2.8000000000000003,-1.0,5.6000000000000005,3.8000000000000003,7.6000000000000005,20.5,-91.90000000000002,39.9,16
345,5939.0,1.6,3.6,-0.9,6.5,4.6000000000000005,7.6000000000000005,12.7,-83.10000000000001,30.9,16
346,5955.0,1.6,3.6,-0.9,6.2,4.4,6.1000000000000005,-8.899999999999999,-70.6,8.100000000000001,16
347,5970.0,0.5,2.5,-2.9000000000000004,4.6000000000000005,2.1,5.0,-18.6,-86.4,-0.4,16
348,5987.0,-1.3,0.0,-1.8,4.0,-0.4,8.0,-29.600000000000005,-74.4,6.600000000000001,16
349,6004.0,-1.5,-2.1,2.0,4.3,-1.0,11.4,-37.50000000000001,-49.199999999999996,10.5,16
350,6020.0,-0.4,-1.4000000000000001,2.5,5.7,-0.1,10.8,-26.5,-34.800000000000004,7.0,16
351,6037.0,0.0,-0.5,2.5,5.1000000000000005,0.4,9.700000000000001,-1.1,-41.0,-9.600000000000001,16
352,6054.0,-1.5,0.0,0.8,4.2,0.7000000000000001,8.700000000000001,4.6,-40.800000000000004,-12.200000000000001,16
353,6070.0,-2.1,1.0,-1.2000000000000002,3.8000000000000003,1.7000000000000002,6.6000000000000005,-4.7,-41.4,-1.4,16
354,6087.0,-0.6000000000000001,1.7000000000000002,0.7000000000000001,5.300000000000001,2.4000000000000004,8.5,-17.0,-24.0,7.0,16
355,6108.0,0.9,2.8000000000000003,0.4,6.9,3.5,8.1,-13.399999999999999,-17.0,-0.4,16
356,6127.0,1.1,3.3000000000000003,-0.5,7.2,4.0,7.2,-11.8,-24.200000000000003,-13.000000000000002,16
357,6138.0,1.1,3.3000000000000003,-0.5,7.1000000000000005,3.0,8.0,-24.0,-9.2,-19.700000000000003,16
358,6154.0,0.8,1.2000000000000002,1.2000000000000002,6.4,0.6000000000000001,9.4,-48.300000000000004,36.400000000000006,-25.0,16
359,6172.0,1.0,-1.5,2.5,8.200000000000001,2.1,6.1000000000000005,-46.9,45.8,-27.800000000000004,16
360,6187.0,2.3000000000000003,1.9000000000000001,1.5,6.0,0.7000000000000001,8.700000000000001,-54.6,58.3,-41.800000000000004,16
361,6204.0,-0.8,1.0,-0.4,5.0,1.9000000000000001,9.600000000000001,-42.2,36.400000000000006,-42.60000000000001,16
362,6231.0,-1.4000000000000001,-0.2,4.4,4.2,0.30000000000000004,12.4,-6.8,5.6,-33.7,16
363,6238.0,-1.4000000000000001,-0.2,4.4,4.2,0.30000000000000004,12.4,-19.0,35.5,-24.400000000000002,16
364,6254.0,-0.7000000000000001,1.1,-1.1,4.800000000000001,1.6,7.0,-18.200000000000003,12.7,-20.1,16
365,6270.0,-0.9,-0.9,-0.5,4.5,-0.4,7.7,-17.200000000000003,10.5,-12.299999999999999,16
366,6287.0,-1.5,-1.1,-0.7000000000000001,4.0,-0.6000000000000001,7.4,-8.4,-1.3,-12.7,16
367,6304.0,-0.1,-0.7000000000000001,0.5,5.4,-0.30000000000000004,8.700000000000001,-13.000000000000002,-8.600000000000001,8.8,16
368,6323.0,-0.4,-1.7000000000000002,-1.5,5.2,-1.3,6.6000000000000005,-18.700000000000003,-36.5,11.4,16
369,6337.0,-0.4,-1.7000000000000002,-1.5,5.6000000000000005,-1.7000000000000002,8.3,-15.6,-22.5,22.6,16
370,6354.0,1.3,-2.0,0.8,5.300000000000001,-0.5,3.5,-45.7,-5.6,26.1,16
371,6370.0,1.9000000000000001,0.1,-2.8000000000000003,8.8,0.1,8.5,-45.3,-15.899999999999999,22.000000000000004,16
372,6387.0,0.8,-1.3,-0.5,3.9000000000000004,-2.2,7.9,-60.400000000000006,-13.399999999999999,9.100000000000001,16
373,6404.0,-2.0,-2.2,-0.30000000000000004,4.1000000000000005,-2.7,7.300000000000001,-56.400000000000006,-34.300000000000004,24.3,16
374,6424.0,0.0,-1.7000000000000002,0.30000000000000004,8.200000000000001,-0.8,8.4,-52.5,-33.50000000000001,32.7,16
375,6437.0,1.8,-1.2000000000000002,1.8,7.7,-1.8,9.600000000000001,-25.0,-38.900000000000006,14.0,16
376,6454.0,1.6,0.0,0.5,7.6000000000000005,-0.7000000000000001,8.3,2.8,-53.7,3.0,16
377,6471.0,0.0,-0.8,3.4000000000000004,6.2,-1.4000000000000001,11.0,21.500000000000004,-54.0,-0.8,16
378,6487.0,0.2,0.6000000000000001,-0.6000000000000001,6.6000000000000005,0.1,6.9,51.70000000000001,-74.4,-2.4000000000000004,16
379,6504.0,0.30000000000000004,0.7000000000000001,-0.1,6.800000000000001,0.30000000000000004,7.2,45.6,-94.9,2.8,16
380,6524.0,-0.4,-1.4000000000000001,-1.5,6.300000000000001,-1.8,5.6000000000000005,18.1,-74.60000000000001,-1.1,16
381,6537.0,-0.4,-1.4000000000000001,-1.5,6.1000000000000005,-1.0,5.6000000000000005,-4.2,-66.60000000000001,4.0,16
382,6555.0,-1.3,-1.8,-0.8,5.9,-1.4000000000000001,7.1000000000000005,-21.0,-39.8,18.8,16
383,6573.0,-0.1,-0.6000000000000001,0.4,6.9,-0.6000000000000001,6.5,-33.2,-21.300000000000004,20.0,16
384,6587.0,-0.30000000000000004,0.5,-0.7000000000000001,6.1000000000000005,-0.7000000000000001,6.2,-33.400000000000006,-25.5,18.900000000000002,16
385,6604.0,1.1,0.2,1.3,10.200000000000001,-0.7000000000000001,8.4,-27.6,-8.3,19.799999999999997,16
386,6621.0,3.5,0.0,2.9000000000000004,10.600000000000001,-0.7000000000000001,9.700000000000001,-28.3,32.8,-0.8,16
387,6637.0,0.30000000000000004,-1.2000000000000002,-3.2,7.300000000000001,-2.0,3.6,-16.6,-5.6,-16.200000000000003,16
388,6654.0,-1.4000000000000001,-2.2,-1.1,5.6000000000000005,-3.0,5.7,-18.1,-26.1,-3.2,16
389,6670.0,-0.4,-0.4,-1.3,6.7,-1.2000000000000002,5.4,-20.3,-42.7,-1.1,16
390,6687.0,-1.1,-0.1,-0.4,6.1000000000000005,-1.0,6.2,-18.8,-59.9,1.2000000000000002,16
391,6704.0,-1.1,-0.1,-0.4,6.1000000000000005,0.0,10.100000000000001,-20.0,-31.7,1.4,16
392,6724.0,0.1,-0.6000000000000001,3.6,7.4,-1.6,10.0,-34.300000000000004,-5.2,-1.6,16
393,6737.0,0.1,-0.6000000000000001,3.6,7.9,-0.8,8.0,-45.2,27.099999999999998,-8.3,16
394,6754.0,1.3,-0.4,0.6000000000000001,8.8,-0.2,6.300000000000001,-35.8,18.1,-9.899999999999999,16
395,6770.0,1.3,0.30000000000000004,0.30000000000000004,10.200000000000001,-1.5,12.100000000000001,-34.2,30.799999999999997,-11.900000000000002,16
396,6787.0,-0.6000000000000001,-1.1,-4.6000000000000005,5.0,-2.0,7.1000000000000005,-34.400000000000006,4.9,-16.0,16
397,6804.0,-3.8000000000000003,-0.2,0.4,3.4000000000000004,-1.4000000000000001,6.9,-7.1000000000000005,-2.9,8.8,16
398,6825.0,0.2,0.9,-2.1,6.9,-2.3000000000000003,7.800000000000001,-78.2,58.2,19.5,16
399,6837.0,1.0,-0.4,2.2,7.9,-1.9000000000000001,9.0,-46.4,58.0,0.8,16
400,6856.0,2.1,-0.4,-0.5,9.0,-2.0,6.4,-36.1,40.9,-13.900000000000002,16
401,6870.0,-2.1,-2.7,0.30000000000000004,4.7,-4.4,7.2,-27.800000000000004,28.3,-0.7,16
402,6887.0,-2.1,-2.7,0.30000000000000004,8.200000000000001,-1.4000000000000001,6.5,-26.400000000000006,6.8,12.0,16
403,6904.0,1.4000000000000001,0.30000000000000004,-0.30000000000000004,7.9,-1.1,7.1000000000000005,-32.400000000000006,-6.0,2.2,16
404,6921.0,0.6000000000000001,0.8,-0.30000000000000004,7.2,-2.0,7.0,-29.800000000000004,-11.8,0.9000000000000001,16
405,6937.0,-0.8,-0.7000000000000001,-2.9000000000000004,7.7,-2.9000000000000004,13.100000000000001,-9.0,-3.7000000000000006,11.700000000000001,16
406,6954.0,1.5,1.2000000000000002,2.3000000000000003,8.0,-1.0,2.2,-18.0,2.9,4.800000000000001,16
407,6970.0,-1.6,-1.4000000000000001,0.30000000000000004,6.4,-2.4000000000000004,10.8,0.0,-27.3,12.4,16
408,6987.0,0.7000000000000001,0.8,-0.8,7.7,-1.2000000000000002,5.9,9.899999999999999,-31.6,22.2,16
409,7004.0,-0.2,-0.4,2.7,6.800000000000001,-2.4000000000000004,9.3,11.000000000000002,-25.900000000000002,21.8,16
410,7021.0,0.2,0.9,-1.4000000000000001,7.2,-1.1,5.1000000000000005,-6.300000000000001,-17.200000000000003,14.100000000000001,16
411,7038.0,0.2,-0.5,2.5,7.2,-2.6,9.0,-15.6,21.500000000000004,11.8,16
412,7054.0,1.1,0.1,-1.0,8.0,-2.0,5.5,-30.699999999999996,36.9,-2.7,16
413,7071.0,0.6000000000000001,0.30000000000000004,0.4,7.5,-1.8,7.1000000000000005,-31.799999999999997,44.6,-17.200000000000003,16
414,7087.0,0.6000000000000001,0.30000000000000004,0.4,6.800000000000001,-2.1,7.7,6.4,-53.300000000000004,-6.4,16
415,7105.0,1.0,1.4000000000000001,-1.4000000000000001,8.4,-2.2,8.200000000000001,16.200000000000003,-63.2,-9.0,16
416,7124.0,-1.9000000000000001,0.30000000000000004,4.4,8.200000000000001,-0.1,2.0,-20.8,-41.4,-8.700000000000001,16
417,7138.0,1.4000000000000001,0.9,0.5,5.1000000000000005,-0.8,8.9,0.8,-35.699999999999996,-8.5,16
418,7154.0,-1.6,0.0,-0.2,5.800000000000001,-2.7,5.7,-0.4,-25.900000000000002,0.7,16
419,7170.0,-2.3000000000000003,-1.4000000000000001,0.0,4.800000000000001,-5.0,10.4,-3.0,-16.900000000000002,7.500000000000001,16
420,7187.0,-1.9000000000000001,-0.9,-4.3,5.5,-3.1,1.8,-15.399999999999999,-41.50000000000001,1.7,16
421,7204.0,-1.3,1.0,1.3,6.1000000000000005,-1.1,7.2,6.1000000000000005,-44.00000000000001,-5.500000000000001,16
422,7224.0,0.2,0.7000000000000001,0.1,7.7,-1.4000000000000001,6.0,10.600000000000001,-41.6,1.8000000000000003,16
423,7237.0,0.30000000000000004,0.9,1.2000000000000002,8.0,-1.2000000000000002,7.0,14.400000000000002,-54.699999999999996,-7.0,16
424,7254.0,0.1,1.1,-0.6000000000000001,7.800000000000001,-0.9,5.2,40.5,-45.8,-0.1,16
425,7270.0,0.1,1.1,-0.6000000000000001,8.1,-1.0,4.3,23.5,-54.50000000000001,0.4,16
426,7287.0,-0.1,-0.9,0.0,7.300000000000001,-2.0,5.5,19.700000000000003,-50.1,8.100000000000001,16
427,7304.0,0.4,1.3,0.4,8.700000000000001,0.1,6.0,16.5,-43.300000000000004,8.0,16
428,7328.0,-3.8000000000000003,7.5,1.3,4.2,5.6000000000000005,6.6000000000000005,-80.7,-16.5,-27.6,16
429,7337.0,-3.8000000000000003,7.5,1.3,4.7,5.5,7.6000000000000005,-131.2,5.0,-82.2,16
430,7357.0,1.0,-0.5,5.1000000000000005,9.700000000000001,-6.300000000000001,-2.3000000000000003,-208.5,39.300000000000004,-49.9,16
431,7371.0,1.6,-0.6000000000000001,-4.5,9.5,-2.7,0.8,-212.2,19.200000000000003,-58.800000000000004,16
432,7387.0,4.3,-0.30000000000000004,-4.1000000000000005,12.3,-2.5,1.2000000000000002,-131.7,-1.4,-97.50000000000001,16
433,7404.0,2.4000000000000004,-2.8000000000000003,-2.0,10.5,-4.9,3.2,-16.4,-36.8,-45.0,16
434,7420.0,-1.0,-1.3,0.30000000000000004,7.2,-3.4000000000000004,5.300000000000001,34.60000000000001,-48.70000000000001,-3.3000000000000007,16
435,7437.0,1.0,0.30000000000000004,-1.8,9.200000000000001,-1.9000000000000001,3.1,13.6,-31.099999999999998,53.50000000000001,16
436,7454.0,-1.4000000000000001,3.6,2.2,6.800000000000001,1.4000000000000001,7.0,-35.2,-52.900000000000006,18.5,16
437,7473.0,-0.6000000000000001,2.8000000000000003,2.2,7.7,0.6000000000000001,6.9,-47.5,-42.800000000000004,-18.700000000000003,16
438,7487.0,-0.6000000000000001,2.8000000000000003,2.2,8.4,-0.6000000000000001,5.9,-27.2,-37.400000000000006,-9.899999999999999,16
439,7504.0,-1.8,-0.5,2.8000000000000003,6.4,-3.4000000000000004,5.9,-27.0,-32.9,40.5,16
440,7520.0,-0.30000000000000004,-0.30000000000000004,1.7000000000000002,9.0,-2.7,5.9,-40.2,-34.300000000000004,50.2,16
441,7537.0,1.0,0.7000000000000001,1.9000000000000001,9.5,-1.7000000000000002,6.2,-57.1,-35.599999999999994,29.700000000000006,16
442,7554.0,0.4,1.0,2.9000000000000004,8.8,-1.7000000000000002,7.1000000000000005,-40.1,-22.2,-15.700000000000001,16
443,7571.0,-0.2,0.30000000000000004,2.2,8.3,-2.3000000000000003,6.300000000000001,-17.200000000000003,-3.5,-38.900000000000006,16
444,7587.0,0.5,-0.30000000000000004,0.7000000000000001,9.0,-2.8000000000000003,4.800000000000001,-9.600000000000001,-4.5,-33.800000000000004,16
445,7604.0,-0.9,-0.4,1.1,7.7,-2.9000000000000004,5.2,-10.4,-3.2,-22.2,16
446,7620.0,0.1,0.4,0.6000000000000001,8.700000000000001,-2.1,4.7,-15.8,-0.1,-8.5,16
447,7640.0,-0.4,1.3,1.5,8.200000000000001,-1.2000000000000002,5.6000000000000005,-24.1,-3.2,-22.700000000000003,16
448,7654.0,-0.4,1.3,1.5,7.7,-1.2000000000000002,4.5,-30.5,-2.5,-57.00000000000001,16
449,7670.0,-0.8,1.2000000000000002,1.1,7.5,-1.4000000000000001,4.2,-31.5,-6.500000000000001,-88.10000000000001,16
450,7687.0,-1.5,1.6,2.8000000000000003,6.6000000000000005,-0.7000000000000001,7.9,-29.600000000000005,9.0,-106.70000000000002,16
451,7704.0,-3.4000000000000004,0.6000000000000001,2.8000000000000003,4.7,-1.3,6.9,-33.800000000000004,7.8,-102.7,16
452,7720.0,-3.7,1.0,4.3,5.2,-1.2000000000000002,8.0,-52.7,17.5,-73.7,16
453,7737.0,-4.2,0.2,2.0,5.7,-0.8,7.9,-59.1,-7.400000000000001,-31.099999999999998,16
454,7754.0,-2.7,-0.30000000000000004,4.800000000000001,6.1000000000000005,-1.9000000000000001,8.8,-35.599999999999994,-25.7,4.5,16
455,7770.0,-1.0,0.6000000000000001,6.0,7.800000000000001,-1.1,10.0,11.3,9.899999999999999,5.7,16
456,7787.0,-1.0,0.1,4.7,7.7,-1.5,8.8,43.300000000000004,33.1,3.2,16
457,7804.0,-0.30000000000000004,0.0,4.1000000000000005,8.4,-1.6,8.3,53.0,38.2,-1.9,16
458,7820.0,-0.5,-1.7000000000000002,2.2,8.1,-3.2,6.6000000000000005,37.300000000000004,61.50000000000001,-16.700000000000003,16
459,7837.0,-0.5,-1.7000000000000002,2.2,7.300000000000001,-4.7,6.0,-15.899999999999999,75.3,-14.0,16
460,7854.0,-1.2000000000000002,-3.3000000000000003,1.4000000000000001,7.1000000000000005,-5.1000000000000005,5.1000000000000005,-79.00000000000001,77.3,-2.4000000000000004,16
461,7871.0,-1.4000000000000001,-3.8000000000000003,0.30000000000000004,7.2,-5.5,5.5,-121.0,69.60000000000001,11.3,16
462,7887.0,-1.0,-4.1000000000000005,0.0,6.9,-7.0,5.1000000000000005,-117.9,42.800000000000004,46.9,16
463,7904.0,-2.0,-5.6000000000000005,0.2,6.2,-7.7,5.5,-108.2,27.800000000000004,73.9,16
464,7920.0,-0.7000000000000001,-4.9,1.2000000000000002,8.700000000000001,-7.4,5.9,-81.7,2.2,111.4,16
465,7937.0,1.2000000000000002,-4.1000000000000005,1.2000000000000002,9.200000000000001,-7.1000000000000005,6.0,-58.800000000000004,23.5,84.5,16
466,7954.0,1.7000000000000002,-4.3,-0.7000000000000001,9.600000000000001,-7.5,4.3,-39.300000000000004,77.7,32.7,16
467,7970.0,2.6,-5.6000000000000005,-3.1,10.200000000000001,-9.0,2.0,-78.5,94.6,11.6,16
468,7987.0,3.4000000000000004,-5.9,-3.9000000000000004,10.9,-9.5,1.3,-136.4,76.60000000000001,27.700000000000003,16
469,8004.0,3.2,-5.300000000000001,-1.9000000000000001,10.600000000000001,-9.200000000000001,3.3000000000000003,-147.4,67.8,42.60000000000001,16
470,8020.0,3.7,-4.1000000000000005,-2.2,10.8,-8.4,3.0,-133.60000000000002,61.39999999999999,71.39999999999999,16
471,8038.0,3.7,-4.1000000000000005,-2.2,10.700000000000001,-10.200000000000001,2.5,-129.9,48.9,80.60000000000001,16
472,8054.0,3.8000000000000003,-5.5,-2.6,11.3,-10.600000000000001,1.8,-163.5,60.7,85.1,16
473,8070.0,5.5,-5.4,-3.7,13.100000000000001,-9.9,1.3,-203.9,49.800000000000004,57.20000000000001,16
474,8087.0,7.0,-4.800000000000001,-4.2,15.9,-9.4,1.2000000000000002,-221.60000000000002,41.4,45.400000000000006,16
475,8106.0,9.600000000000001,-2.2,-2.4000000000000004,14.700000000000001,-7.5,2.7,-238.2,20.5,17.200000000000003,16
476,8121.0,7.0,-0.5,0.6000000000000001,12.200000000000001,-6.7,5.2,-215.0,-13.100000000000001,25.300000000000004,16
477,8137.0,4.3,0.4,1.2000000000000002,10.600000000000001,-6.300000000000001,4.5,-193.1,-22.2,71.39999999999999,16
478,8154.0,3.0,1.4000000000000001,0.6000000000000001,9.3,-5.7,3.4000000000000004,-188.10000000000002,-58.60000000000001,102.60000000000001,16
479,8170.0,2.2,1.5,0.4,8.200000000000001,-5.800000000000001,2.7,-195.3,-63.500000000000014,108.7,16
480,8187.0,3.0,1.9000000000000001,-0.30000000000000004,8.8,-5.800000000000001,1.4000000000000001,-209.70000000000002,-64.60000000000001,101.4,16
481,8205.0,5.0,4.6000000000000005,0.4,10.700000000000001,-3.3000000000000003,1.5,-216.79999999999998,-37.400000000000006,69.7,16
482,8220.0,5.0,4.6000000000000005,0.4,10.5,-3.0,1.8,-201.70000000000002,-24.1,13.000000000000002,16
483,8237.0,2.6,3.0,-1.2000000000000002,8.1,-3.8000000000000003,2.3000000000000003,-178.3,-42.5,-11.4,16
484,8253.0,3.6,6.4,2.5,8.700000000000001,-2.1,2.6,-156.8,-52.60000000000001,-48.800000000000004,16
485,8272.0,0.6000000000000001,1.6,1.6,6.5,-6.2,0.1,-160.70000000000002,-54.6,-38.2,16
486,8287.0,0.7000000000000001,1.2000000000000002,-0.30000000000000004,6.6000000000000005,-5.7,-0.4,-176.7,-66.2,-34.300000000000004,16
487,8304.0,1.4000000000000001,3.7,1.6,8.3,-2.3000000000000003,1.3,-198.70000000000002,-100.70000000000002,-46.1,16
488,8320.0,2.2,5.4,4.800000000000001,8.4,-1.9000000000000001,2.5,-177.5,-136.1,-75.60000000000001,16
489,8337.0,2.0,5.6000000000000005,8.200000000000001,8.200000000000001,-1.4000000000000001,5.300000000000001,-124.0,-156.10000000000002,-98.50000000000001,16
490,8354.0,0.30000000000000004,5.2,10.600000000000001,6.6000000000000005,-1.5,7.2,-60.00000000000001,-153.89999999999998,-121.70000000000002,16
491,8370.0,-1.2000000000000002,5.300000000000001,11.4,5.2,-1.1,7.7,-30.699999999999996,-143.2,-129.60000000000002,16
492,8387.0,-3.7,3.2,12.600000000000001,2.9000000000000004,-2.9000000000000004,8.8,17.9,-93.3,-131.29999999999998,16
493,8404.0,-3.7,3.2,12.600000000000001,2.1,-4.1000000000000005,5.1000000000000005,40.6,-47.1,-103.49999999999999,16
494,8421.0,-4.3,1.0,7.2,3.7,-5.0,3.1,27.2,-26.700000000000003,-90.0,16
495,8437.0,-3.0,0.7000000000000001,6.2,3.9000000000000004,-4.7,2.6,24.5,-6.1000000000000005,-92.10000000000001,16
496,8454.0,-2.7,1.7000000000000002,6.1000000000000005,4.9,-4.0,1.7000000000000002,47.80000000000001,7.200000000000001,-93.8,16
497,8470.0,-1.2000000000000002,1.3,5.0,6.7,-5.300000000000001,0.0,57.800000000000004,9.2,-97.3,16
498,8487.0,-0.6000000000000001,-1.3,3.3000000000000003,7.1000000000000005,-7.0,0.0,56.2,4.1,-98.9,16
499,8504.0,-0.4,-2.0,3.6,6.9,-7.6000000000000005,0.2,37.0,12.5,-91.2,16
500,8520.0,-0.30000000000000004,-2.2,3.1,7.4,-7.300000000000001,-0.30000000000000004,18.900000000000002,10.700000000000001,-70.4,16
501,8537.0,-0.2,-1.1,0.2,7.6000000000000005,-6.0,-3.1,-7.400000000000001,-16.1,-53.8,16
502,8554.0,1.4000000000000001,-0.2,0.8,9.3,-5.0,-2.6,-16.700000000000003,-27.9,-50.0,16
503,8571.0,2.9000000000000004,0.8,-0.9,10.8,-3.8000000000000003,-4.5,-14.0,-48.6,-56.800000000000004,16
504,8587.0,2.6,0.0,-1.7000000000000002,10.600000000000001,-4.4,-5.4,8.0,-64.10000000000001,-71.6,16
505,8603.0,2.6,0.0,-1.7000000000000002,10.3,-4.7,-5.2,27.400000000000002,-63.0,-80.50000000000001,16
506,8620.0,1.8,-1.2000000000000002,-2.4000000000000004,8.8,-5.9,-6.2,32.300000000000004,-50.60000000000001,-68.7,16
507,8637.0,0.1,-2.3000000000000003,-2.2,7.2,-6.9,-6.6000000000000005,30.200000000000003,-19.0,-38.300000000000004,16
508,8654.0,-1.9000000000000001,-3.4000000000000004,-3.1,5.4,-7.800000000000001,-6.6000000000000005,23.0,-1.2000000000000002,-18.5,16
509,8670.0,-2.9000000000000004,-3.8000000000000003,-2.5,4.5,-8.200000000000001,-5.800000000000001,1.6,36.6,16.5,16
510,8687.0,-3.8000000000000003,-4.3,-1.5,5.1000000000000005,-8.200000000000001,-5.4,-17.7,65.2,48.400000000000006,16
511,8703.0,-1.3,-3.3000000000000003,-2.1,6.800000000000001,-7.6000000000000005,-5.7,-40.300000000000004,77.1,53.599999999999994,16
512,8720.0,1.8,-2.1,-2.5,9.9,-6.5,-6.0,-55.3,61.199999999999996,30.799999999999997,16
513,8737.0,1.7000000000000002,-1.6,-0.8,9.700000000000001,-5.9,-4.3,-40.0,32.8,24.3,16
514,8754.0,1.3,0.6000000000000001,2.2,9.4,-3.8000000000000003,-1.2000000000000002,-26.000000000000004,26.400000000000006,28.1,16
515,8770.0,-0.8,2.6,2.4000000000000004,7.300000000000001,-1.9000000000000001,-0.9,10.8,28.800000000000004,26.799999999999997,16
516,8788.0,-0.8,2.6,2.4000000000000004,5.4,-3.7,0.0,35.1,53.9,25.8,16
517,8804.0,-2.7,0.9,3.1,5.7,-5.9,-0.6000000000000001,48.800000000000004,97.10000000000001,34.800000000000004,16
518,8821.0,-1.5,-2.8000000000000003,0.7000000000000001,8.200000000000001,-7.9,-3.2,33.50000000000001,103.10000000000001,26.6,16
519,8837.0,1.4000000000000001,-3.2,-2.0,9.9,-7.9,-4.4,-11.5,75.4,11.5,16
520,8857.0,3.0,-1.1,-2.3000000000000003,12.3,-4.2,-4.3,-22.000000000000004,22.6,2.1,16
521,8870.0,4.1000000000000005,2.4000000000000004,-1.1,11.600000000000001,-1.3,-2.2,-10.4,-3.7000000000000006,2.0,16
522,8887.0,2.2,3.9000000000000004,1.3,8.9,-1.0,-0.6000000000000001,28.800000000000004,-43.00000000000001,13.399999999999999,16
523,8904.0,-1.1,3.5,1.9000000000000001,7.0,-1.4000000000000001,-0.4,56.800000000000004,-39.50000000000001,24.200000000000003,16
524,8924.0,-3.3000000000000003,3.0,1.9000000000000001,4.800000000000001,-2.0,-0.4,64.4,-3.9,23.700000000000003,16
525,8937.0,-4.0,2.0,2.1,4.1000000000000005,-3.1,-0.1,63.70000000000001,17.400000000000002,18.8,16
526,8954.0,-3.4000000000000004,0.5,1.4000000000000001,4.7,-4.7,-0.6000000000000001,53.9,46.7,19.400000000000002,16
527,8971.0,-3.4000000000000004,0.5,1.4000000000000001,5.300000000000001,-6.2,-0.5,37.9,46.0,34.400000000000006,16
528,8987.0,-2.7,-0.9,1.2000000000000002,5.4,-5.6000000000000005,0.0,27.0,46.7,50.7,16
529,9004.0,-2.4000000000000004,0.9,2.3000000000000003,6.4,-3.7,0.8,23.900000000000006,48.0,46.6,16
530,9023.0,-1.2000000000000002,2.2,2.0,6.7,-3.8000000000000003,0.0,31.3,35.599999999999994,35.8,16
531,9037.0,-1.1,1.3,0.6000000000000001,7.0,-5.5,-2.0,35.4,23.900000000000006,37.800000000000004,16
532,9054.0,-0.5,-0.5,-1.5,7.4,-6.5,-2.8000000000000003,29.300000000000004,-14.400000000000002,50.3,16
533,9070.0,-0.2,-0.4,-1.0,7.5,-6.4,-1.4000000000000001,17.5,-14.900000000000002,59.60000000000001,16
534,9087.0,1.0,0.2,-0.4,8.5,-5.9,-1.6,18.200000000000003,18.0,53.9,16
535,9105.0,5.2,0.9,-0.8,12.700000000000001,-5.4,-1.9000000000000001,18.0,34.2,14.700000000000001,16
536,9124.0,5.300000000000001,0.30000000000000004,-0.5,12.8,-5.9,-1.5,30.200000000000003,20.0,1.0,16
537,9138.0,6.800000000000001,-0.7000000000000001,-0.8,14.3,-6.9,-1.7000000000000002,37.7,-3.9,5.0,16
538,9154.0,6.300000000000001,-1.4000000000000001,0.8,13.700000000000001,-7.7,-0.2,38.300000000000004,-54.699999999999996,14.800000000000002,16
539,9170.0,6.300000000000001,-1.4000000000000001,0.8,13.100000000000001,-7.4,0.5,37.7,-72.7,25.0,16
540,9187.0,5.4,-1.2000000000000002,1.8,12.600000000000001,-8.1,0.7000000000000001,35.1,-55.8,19.0,16
541,9204.0,4.4,-2.4000000000000004,2.4000000000000004,10.3,-9.200000000000001,1.5,30.1,-12.200000000000001,3.3000000000000007,16
542,9220.0,2.0,-3.0,2.5,8.5,-9.5,1.6,29.200000000000003,7.6,-2.9,16
543,9237.0,0.5,-2.6,2.0,8.1,-8.200000000000001,0.6000000000000001,30.1,32.300000000000004,-4.800000000000001,16
544,9254.0,0.8,-2.1,1.3,7.300000000000001,-9.3,-0.2,34.60000000000001,29.900000000000006,-4.0,16
545,9270.0,-0.6000000000000001,-3.3000000000000003,-1.3,6.800000000000001,-9.700000000000001,-2.0,34.2,-28.1,-10.4,16
546,9287.0,-0.30000000000000004,-3.5,-2.1,7.1000000000000005,-9.9,-2.9000000000000004,-2.5,-82.10000000000001,-25.6,16
547,9304.0,-0.9,-2.0,-0.5,6.5,-8.3,-1.6,-21.6,-107.8,-44.2,16
548,9321.0,-1.6,-0.8,0.6000000000000001,5.9,-7.0,-0.7000000000000001,-18.6,-107.5,-50.5,16
549,9337.0,-3.2,1.1,1.9000000000000001,4.4,-4.9,0.4,-4.7,-84.2,-60.7,16
550,9354.0,-4.6000000000000005,2.2,0.30000000000000004,3.0,-3.7,-1.3,28.900000000000002,-44.10000000000001,-58.2,16
551,9370.0,-4.6000000000000005,2.2,0.30000000000000004,4.0,-4.3,-2.5,47.0,1.6,-54.9,16
552,9387.0,-2.8000000000000003,0.9,-3.0,5.0,-6.300000000000001,-6.300000000000001,44.8,2.7,-58.800000000000004,16
553,9404.0,-2.8000000000000003,-1.3,-5.0,5.2,-6.9,-6.4,38.2,-28.200000000000003,-41.800000000000004,16
554,9422.0,-2.7,-1.3,-4.4,5.1000000000000005,-7.0,-5.1000000000000005,25.900000000000002,-56.6,-16.5,16
555,9437.0,-3.1,-1.1,-2.4000000000000004,5.1000000000000005,-6.6000000000000005,-2.7,20.599999999999998,-67.10000000000001,-4.7,16
556,9454.0,-3.5,-1.8,0.0,3.8000000000000003,-7.800000000000001,-0.8,14.100000000000001,-78.80000000000001,12.7,16
557,9470.0,-4.2,-2.0,1.8,3.6,-7.7,-0.1,5.7,-89.8,31.7,16
558,9487.0,-4.0,-1.0,4.1000000000000005,3.6,-6.800000000000001,1.9000000000000001,-4.2,-94.2,39.400000000000006,16
559,9505.0,-2.3000000000000003,0.8,4.3,5.2,-5.1000000000000005,1.9000000000000001,-21.8,-104.7,23.099999999999998,16
560,9521.0,-0.7000000000000001,0.30000000000000004,4.2,6.6000000000000005,-5.6000000000000005,1.5,-39.1,-116.2,8.899999999999999,16
561,9537.0,-1.1,0.5,5.4,6.1000000000000005,-5.300000000000001,2.2,-67.7,-128.4,-17.799999999999997,16
562,9554.0,-1.1,0.5,5.4,5.9,-4.7,2.9000000000000004,-45.6,-142.90000000000003,-26.1,16
563,9570.0,-2.0,1.3,7.4,4.5,-5.2,4.5,2.1,-125.30000000000001,-9.100000000000001,16
564,9588.0,-2.8000000000000003,-1.1,7.5,4.3,-8.1,2.6,26.799999999999997,-94.80000000000001,30.5,16
565,9604.0,-2.1,-2.6,5.9,6.0,-7.5,1.6,28.900000000000002,-80.50000000000001,45.6,16
566,9622.0,0.30000000000000004,-0.4,5.7,7.5,-5.800000000000001,1.5,28.900000000000002,-46.199999999999996,38.0,16
567,9637.0,1.8,1.0,4.6000000000000005,8.200000000000001,-5.2,0.5,39.50000000000001,-9.3,10.9,16
568,9654.0,2.3000000000000003,1.3,4.2,8.9,-4.800000000000001,0.4,59.9,21.7,-11.000000000000002,16
569,9670.0,2.6,1.4000000000000001,2.7,9.3,-4.800000000000001,-0.9,80.2,36.400000000000006,-18.900000000000002,16
570,9688.0,2.4000000000000004,2.0,2.2,9.3,-4.2,-1.2000000000000002,97.00000000000001,47.2,-15.299999999999999,16
571,9705.0,1.1,2.5,2.2,8.0,-3.8000000000000003,-0.8,120.60000000000001,62.300000000000004,-0.6000000000000001,16
572,9726.0,-1.1,2.7,3.4000000000000004,5.9,-3.7,0.9,151.3,99.5,35.5,16
573,9737.0,-1.1,2.7,3.4000000000000004,5.300000000000001,-3.1,1.4000000000000001,165.4,120.2,53.10000000000001,16
574,9754.0,-1.2000000000000002,4.6000000000000005,3.5,7.1000000000000005,-1.3,1.8,188.3,155.20000000000002,57.400000000000006,16
575,9770.0,1.7000000000000002,5.4,2.4000000000000004,9.8,-2.2,0.1,193.5,171.8,29.400000000000002,16
576,9787.0,4.0,3.9000000000000004,-0.5,12.100000000000001,-3.8000000000000003,-1.9000000000000001,188.10000000000002,168.4,13.399999999999999,16
577,9804.0,5.7,2.4000000000000004,-3.3000000000000003,12.600000000000001,-5.6000000000000005,-3.2,170.1,142.20000000000002,-6.4,16
578,9827.0,5.1000000000000005,0.0,-4.3,11.200000000000001,-7.5,-3.1,165.8,9.700000000000001,0.4,16
579,9837.0,3.2,-0.8,-3.7,10.100000000000001,-7.6000000000000005,-2.4000000000000004,169.0,-27.0,9.899999999999999,16
580,9859.0,1.6,-4.2,-0.7000000000000001,8.200000000000001,-12.4,0.6000000000000001,182.20000000000002,-45.5,46.7,16
581,9870.0,2.4000000000000004,-2.8000000000000003,-3.4000000000000004,9.1,-9.700000000000001,-1.4000000000000001,166.8,-45.9,89.5,16
582,9887.0,0.6000000000000001,-1.0,-3.0,7.1000000000000005,-7.9,-0.8,144.70000000000002,-26.6,111.10000000000002,16
583,9904.0,4.0,-2.0,-4.4,10.200000000000001,-9.1,-2.0,106.5,26.1,110.4,16
584,9920.0,4.0,-2.0,-4.4,11.0,-9.700000000000001,-2.0,90.9,21.200000000000003,50.7,16
585,9937.0,5.0,-3.4000000000000004,-2.1,10.4,-12.700000000000001,-0.1,78.4,3.7000000000000006,-37.50000000000001,16
586,9954.0,3.3000000000000003,-7.800000000000001,-2.9000000000000004,7.6000000000000005,-14.100000000000001,1.2000000000000002,55.900000000000006,16.200000000000003,-91.10000000000001,16
587,9970.0,-1.1,-6.4,-3.1,4.6000000000000005,-12.700000000000001,0.8,10.0,74.0,-75.00000000000001,16
588,9989.0,-2.1,-5.7,-2.6,4.1000000000000005,-10.8,0.1,-17.5,97.89999999999999,-43.70000000000001,16
589,10003.0,-1.9000000000000001,-3.7,-2.6,4.9,-9.3,-0.5,-14.100000000000001,109.2,-29.400000000000002,16
590,10020.0,-0.7000000000000001,-1.7000000000000002,-4.1000000000000005,5.7,-7.4,-0.6000000000000001,9.700000000000001,88.10000000000001,-30.4,16
591,10037.0,-1.4000000000000001,-0.7000000000000001,-4.2,5.0,-7.1000000000000005,-0.5,15.000000000000002,61.7,-47.7,16
592,10054.0,-2.4000000000000004,-1.0,-4.7,4.1000000000000005,-7.300000000000001,-0.9,1.5,30.699999999999996,-50.3,16
593,10070.0,-4.0,-1.3,-3.8000000000000003,2.6,-7.5,-0.1,-2.6,-0.9000000000000001,-49.50000000000001,16
594,10087.0,-5.6000000000000005,-3.8000000000000003,-1.6,1.1,-9.9,2.0,-0.2,-61.8,-53.50000000000001,16
595,10107.0,-8.5,-5.4,0.0,-1.7000000000000002,-11.5,3.5,-7.699999999999999,-83.70000000000002,-36.300000000000004,16
596,10126.0,-9.4,-4.4,1.2000000000000002,-2.5,-10.600000000000001,4.5,-11.2,-57.3,14.600000000000001,16
597,10140.0,-9.4,-4.4,1.2000000000000002,-2.0,-9.600000000000001,5.300000000000001,-7.0,-39.300000000000004,25.4,16
598,10154.0,-8.4,-2.8000000000000003,2.5,-1.0,-8.700000000000001,5.5,9.5,-7.6,39.1,16
599,10170.0,-6.7,-2.2,1.6,0.2,-8.4,5.0,20.3,-4.5,40.7,16
600,10187.0,-5.9,-2.2,1.1,1.5,-9.4,4.3,43.6,-0.9000000000000001,43.900000000000006,16
601,10204.0,-4.5,-3.4000000000000004,0.8,2.5,-11.200000000000001,5.1000000000000005,71.10000000000001,-13.399999999999999,40.7,16
602,10221.0,-4.1000000000000005,-4.9,0.2,2.3000000000000003,-12.200000000000001,2.7,88.3,-12.100000000000001,44.10000000000001,16
603,10237.0,-3.7,-7.300000000000001,-1.7000000000000002,2.7,-13.8,1.9000000000000001,64.4,-16.900000000000002,58.400000000000006,16
604,10254.0,-2.7,-9.5,-0.4,3.6,-16.1,3.3000000000000003,36.400000000000006,19.799999999999997,92.50000000000001,16
605,10270.0,-1.8,-8.9,-1.8,4.1000000000000005,-15.600000000000001,2.1,33.9,36.300000000000004,113.8,16
606,10287.0,-0.1,-7.5,-2.1,5.5,-14.4,1.9000000000000001,46.199999999999996,25.1,145.00000000000003,16
607,10305.0,1.9000000000000001,-6.6000000000000005,-1.6,7.1000000000000005,-13.9,2.5,54.699999999999996,10.1,167.0,16
608,10324.0,3.7,-5.7,-2.0,8.5,-13.100000000000001,2.3000000000000003,40.9,4.1,171.90000000000003,16
609,10338.0,3.7,-5.7,-2.0,8.5,-12.700000000000001,2.0,11.1,-9.4,158.00000000000003,16
610,10354.0,4.2,-4.7,-2.2,8.9,-11.9,2.3000000000000003,-30.000000000000004,-17.200000000000003,138.20000000000002,16
611,10370.0,4.800000000000001,-3.4000000000000004,-1.6,8.700000000000001,-10.8,2.8000000000000003,-50.60000000000001,-20.599999999999998,127.5,16
612,10387.0,4.6000000000000005,-2.3000000000000003,-0.9,8.0,-10.3,3.1,-83.60000000000001,-27.700000000000003,110.6,16
613,10405.0,3.8000000000000003,-2.0,-0.7000000000000001,6.9,-10.5,2.9000000000000004,-105.4,-41.800000000000004,105.60000000000002,16
614,10426.0,3.4000000000000004,-1.6,0.0,6.800000000000001,-9.200000000000001,4.0,-124.0,-49.50000000000001,109.00000000000001,16
615,10437.0,3.7,1.0,2.1,6.9,-7.800000000000001,5.0,-111.50000000000001,-51.70000000000001,104.9,16
616,10454.0,4.0,3.7,4.0,7.0,-5.300000000000001,6.6000000000000005,-89.8,-53.0,98.8,16
617,10470.0,4.2,5.300000000000001,3.8000000000000003,6.9,-3.8000000000000003,6.2,-35.9,-60.1,84.9,16
618,10487.0,4.2,5.300000000000001,3.8000000000000003,6.6000000000000005,-3.7,4.1000000000000005,-3.1,-75.1,71.5,16
619,10503.0,3.9000000000000004,5.4,1.8,6.4,-4.2,3.8000000000000003,-0.6000000000000001,-91.90000000000002,59.40000000000001,16
620,10524.0,3.6,3.5,-0.30000000000000004,6.0,-5.800000000000001,1.8,-18.1,-97.60000000000001,52.2,16
621,10537.0,3.6,3.5,-0.30000000000000004,5.9,-6.1000000000000005,1.6,-45.400000000000006,-104.50000000000001,46.6,16
622,10554.0,3.4000000000000004,3.2,0.1,5.6000000000000005,-6.2,2.7,-56.50000000000001,-103.49999999999999,43.50000000000001,16
623,10570.0,2.9000000000000004,3.4000000000000004,1.5,5.1000000000000005,-5.5,4.0,-63.900000000000006,-100.4,41.1,16
624,10587.0,2.7,4.800000000000001,3.4000000000000004,4.800000000000001,-4.4,5.9,-49.800000000000004,-89.10000000000001,39.599999999999994,16
625,10604.0,2.2,5.2,5.2,4.4,-4.2,6.5,-21.500000000000004,-61.599999999999994,41.7,16
626,10624.0,3.2,5.5,4.1000000000000005,5.800000000000001,-3.9000000000000004,4.9,-6.699999999999999,-36.1,35.8,16
627,10638.0,4.0,5.4,3.4000000000000004,6.1000000000000005,-4.1000000000000005,4.7,-3.2,-23.099999999999998,11.700000000000001,16
628,10654.0,4.0,4.5,3.1,6.1000000000000005,-5.0,4.4,-4.2,-16.8,2.2,16
629,10670.0,3.9000000000000004,3.8000000000000003,3.1,6.0,-5.7,4.3,-6.500000000000001,-20.400000000000002,-8.5,16
630,10687.0,3.9000000000000004,3.8000000000000003,3.1,6.300000000000001,-5.9,4.5,-2.4000000000000004,-41.900000000000006,-19.1,16
631,10703.0,4.3,3.6,3.6,6.6000000000000005,-6.300000000000001,5.5,2.2,-48.10000000000001,-31.9,16
632,10727.0,3.9000000000000004,1.7000000000000002,6.800000000000001,6.4,-7.7,8.0,9.100000000000001,-34.300000000000004,-44.9,16
633,10739.0,3.9000000000000004,1.7000000000000002,6.800000000000001,6.2,-8.0,8.4,14.600000000000001,-24.599999999999998,-48.9,16
634,10754.0,3.7,2.9000000000000004,5.9,6.7,-9.1,9.600000000000001,19.700000000000003,-17.1,-63.4,16
635,10770.0,4.0,-1.7000000000000002,8.700000000000001,6.800000000000001,-12.3,10.200000000000001,31.2,20.900000000000002,-68.60000000000001,16
636,10787.0,4.1000000000000005,-2.6,7.7,7.300000000000001,-11.700000000000001,9.3,65.7,44.5,-65.7,16
637,10803.0,4.7,-1.9000000000000001,6.1000000000000005,8.0,-10.9,8.0,90.19999999999999,32.8,-67.60000000000001,16
638,10825.0,5.2,-3.0,6.1000000000000005,8.9,-12.100000000000001,8.5,104.9,12.600000000000001,-80.0,16
639,10839.0,5.0,-3.6,5.9,8.700000000000001,-12.3,8.4,119.20000000000002,10.1,-98.10000000000001,16
640,10856.0,4.5,-4.4,5.2,8.6,-12.8,8.1,126.10000000000001,11.5,-107.9,16
641,10870.0,3.4000000000000004,-5.5,5.0,7.800000000000001,-13.600000000000001,8.3,141.3,13.700000000000001,-127.1,16
642,10887.0,3.4000000000000004,-5.5,5.0,7.800000000000001,-13.9,7.800000000000001,157.1,23.2,-134.10000000000002,16
643,10903.0,3.5,-6.5,4.3,7.800000000000001,-14.700000000000001,7.9,170.8,20.900000000000002,-138.50000000000003,16
644,10923.0,2.7,-7.800000000000001,3.8000000000000003,7.4,-14.4,7.5,178.0,17.0,-136.5,16
645,10937.0,2.1,-6.7,2.7,7.300000000000001,-12.9,6.9,179.8,8.4,-139.1,16
646,10954.0,1.5,-5.9,1.6,6.7,-11.700000000000001,6.2,180.2,-10.5,-148.4,16
647,10971.0,0.30000000000000004,-5.5,0.4,5.800000000000001,-11.0,5.2,175.00000000000003,-29.600000000000005,-157.3,16
648,10987.0,-1.0,-5.4,-0.8,5.300000000000001,-10.600000000000001,4.7,163.5,-53.9,-165.00000000000003,16
649,11003.0,-2.4000000000000004,-5.4,-1.5,4.3,-10.0,4.1000000000000005,140.4,-65.10000000000001,-165.8,16
650,11023.0,-3.9000000000000004,-5.1000000000000005,-1.7000000000000002,3.1,-9.200000000000001,3.9000000000000004,108.0,-59.9,-157.8,16
651,11038.0,-5.6000000000000005,-4.9,-1.2000000000000002,1.6,-8.4,4.4,94.2,-52.400000000000006,-151.1,16
652,11054.0,-6.5,-4.1000000000000005,-1.1,0.9,-7.2,4.5,81.10000000000001,-32.0,-132.70000000000002,16
653,11070.0,-6.5,-4.1000000000000005,-1.1,1.0,-6.4,4.2,80.60000000000001,-14.600000000000001,-117.9,16
654,11087.0,-6.300000000000001,-3.1,-2.0,1.5,-6.6000000000000005,4.2,74.89999999999999,3.6000000000000005,-108.8,16
655,11108.0,-6.300000000000001,-3.6,-2.9000000000000004,0.9,-5.300000000000001,2.3000000000000003,59.60000000000001,13.000000000000002,-102.5,16
656,11131.0,-7.300000000000001,-3.4000000000000004,-3.9000000000000004,0.4,-5.1000000000000005,2.0,32.6,16.700000000000003,-88.7,16
657,11137.0,-7.300000000000001,-3.4000000000000004,-3.9000000000000004,0.1,-5.1000000000000005,2.0,32.6,16.700000000000003,-88.7,16
658,11160.0,-7.7,-3.7,-3.8000000000000003,-0.30000000000000004,-5.4,2.3000000000000003,13.6,17.799999999999997,-61.50000000000001,16
659,11170.0,-8.1,-4.2,-3.6,-0.5,-5.6000000000000005,2.4000000000000004,8.899999999999999,19.5,-47.900000000000006,16
660,11187.0,-8.4,-4.6000000000000005,-3.6,-0.8,-6.0,2.5,0.7,16.4,-18.4,16
661,11203.0,-7.800000000000001,-4.9,-3.7,-0.30000000000000004,-6.300000000000001,2.4000000000000004,-10.299999999999999,10.299999999999999,5.4,16
662,11226.0,-7.4,-4.9,-3.4000000000000004,0.1,-6.4,2.7,-24.200000000000003,25.0,32.6,16
663,11237.0,-6.6000000000000005,-5.4,-2.9000000000000004,0.8,-7.1000000000000005,3.3000000000000003,-30.1,30.1,45.6,16
664,11256.0,-5.800000000000001,-5.7,-2.3000000000000003,1.5,-7.6000000000000005,3.9000000000000004,-41.800000000000004,35.3,69.60000000000001,16
665,11270.0,-5.800000000000001,-5.7,-2.3000000000000003,2.0,-7.9,4.5,-46.300000000000004,38.7,93.00000000000001,16
666,11287.0,-4.6000000000000005,-5.9,-1.3,3.0,-8.9,5.300000000000001,-39.8,37.50000000000001,114.6,16
667,11304.0,-3.5,-7.1000000000000005,-1.2000000000000002,4.0,-10.3,4.800000000000001,-34.1,15.100000000000001,135.0,16
668,11324.0,-2.3000000000000003,-7.4,-1.7000000000000002,5.2,-10.5,4.4,-36.400000000000006,5.2,158.2,16
669,11337.0,-0.8,-7.2,-1.8,6.4,-10.700000000000001,4.6000000000000005,-36.300000000000004,-0.4,168.2,16
670,11354.0,0.6000000000000001,-6.5,-1.6,7.0,-10.4,4.6000000000000005,-31.2,-18.1,180.10000000000002,16
671,11370.0,1.5,-6.0,-1.3,7.7,-10.3,4.800000000000001,-23.6,-33.2,183.7,16
672,11387.0,2.0,-5.4,-1.1,8.0,-10.200000000000001,4.9,-15.6,-44.10000000000001,183.10000000000002,16
673,11403.0,2.3000000000000003,-5.6000000000000005,-0.9,8.200000000000001,-10.8,5.1000000000000005,-12.299999999999999,-48.10000000000001,181.70000000000002,16
674,11427.0,2.6,-5.7,-0.9,8.200000000000001,-11.3,4.9,-24.0,-53.8,172.1,16
675,11437.0,3.2,-5.2,-0.2,8.6,-11.100000000000001,5.4,-35.3,-48.300000000000004,167.20000000000002,16
676,11453.0,3.2,-5.2,-0.2,8.8,-10.8,5.800000000000001,-55.400000000000006,-34.900000000000006,150.2,16
677,11471.0,3.5,-4.2,0.7000000000000001,8.5,-9.9,6.4,-64.10000000000001,-19.5,131.9,16
678,11487.0,3.3000000000000003,-2.8000000000000003,1.2000000000000002,8.1,-8.8,6.4,-60.8,-9.3,117.4,16
679,11503.0,3.2,-1.4000000000000001,0.9,7.9,-7.800000000000001,5.7,-56.0,-8.5,111.30000000000001,16
680,11526.0,3.2,-0.4,0.2,7.6000000000000005,-7.1000000000000005,4.800000000000001,-43.300000000000004,-22.5,98.9,16
681,11537.0,3.0,0.5,-0.4,7.2,-6.5,4.2,-40.7,-31.2,97.00000000000001,16
682,11554.0,2.8000000000000003,1.2000000000000002,-0.7000000000000001,7.0,-6.300000000000001,4.1000000000000005,-35.1,-52.00000000000001,95.4,16
683,11570.0,2.7,1.8,-0.6000000000000001,6.800000000000001,-5.9,3.9000000000000004,-28.1,-72.9,95.4,16
684,11587.0,2.9000000000000004,2.4000000000000004,-0.5,6.9,-5.4,4.0,-23.0,-92.3,93.2,16
685,11604.0,2.9000000000000004,3.0,0.0,6.800000000000001,-4.9,4.3,-22.8,-100.5,90.70000000000002,16
686,11624.0,2.6,3.8000000000000003,1.0,6.5,-4.3,5.0,-24.5,-116.80000000000001,82.8,16
687,11637.0,2.6,3.8000000000000003,1.0,6.300000000000001,-4.2,5.4,-18.900000000000002,-120.7,80.8,16
688,11654.0,2.2,4.0,1.8,5.800000000000001,-4.2,5.7,2.2,-127.80000000000001,78.0,16
689,11670.0,1.8,4.0,2.0,5.4,-4.3,5.7,23.700000000000003,-130.8,76.3,16
690,11687.0,1.6,3.8000000000000003,2.1,5.300000000000001,-4.7,5.7,40.0,-130.3,74.0,16
691,11704.0,1.6,3.6,2.2,5.300000000000001,-4.9,5.7,46.300000000000004,-128.60000000000002,72.50000000000001,16
692,11727.0,1.6,3.3000000000000003,2.0,5.300000000000001,-5.2,5.7,58.0,-123.19999999999999,72.0,16
693,11737.0,1.7000000000000002,3.0,2.2,5.4,-5.4,5.800000000000001,61.39999999999999,-119.0,74.0,16
694,11755.0,1.7000000000000002,2.3000000000000003,2.5,5.300000000000001,-6.1000000000000005,6.2,62.7,-105.10000000000001,82.10000000000001,16
695,11770.0,2.4000000000000004,2.0,3.1,5.9,-6.4,6.800000000000001,47.0,-79.7,85.30000000000001,16
696,11788.0,3.5,2.5,4.3,6.800000000000001,-5.9,8.1,35.4,-64.4,82.39999999999999,16
697,11803.0,4.7,2.6,5.4,7.9,-5.9,9.200000000000001,18.5,-35.9,68.2,16
698,11820.0,4.7,2.6,5.4,8.200000000000001,-6.1000000000000005,9.600000000000001,18.0,-24.8,49.0,16
699,11837.0,5.300000000000001,1.9000000000000001,6.1000000000000005,8.200000000000001,-7.4,10.100000000000001,29.1,-23.2,38.60000000000001,16
700,11854.0,5.0,0.2,6.2,7.800000000000001,-8.9,10.0,33.0,-23.0,38.50000000000001,16
701,11870.0,4.9,-0.5,6.0,8.1,-8.700000000000001,10.200000000000001,26.6,-18.5,39.1,16
702,11887.0,5.6000000000000005,0.30000000000000004,6.5,8.8,-7.5,11.0,7.500000000000001,-4.800000000000001,33.50000000000001,16
703,11904.0,6.2,1.8,7.6000000000000005,9.3,-6.0,12.0,2.5,10.9,16.900000000000002,16
704,11920.0,6.800000000000001,3.2,8.4,9.600000000000001,-5.300000000000001,12.5,23.2,23.0,-11.1,16
705,11937.0,6.6000000000000005,3.2,8.3,9.4,-5.2,12.5,55.1,32.6,-43.00000000000001,16
706,11954.0,5.5,1.6,7.4,8.5,-6.6000000000000005,11.9,80.10000000000001,41.50000000000001,-67.60000000000001,16
707,11972.0,4.7,0.1,6.300000000000001,7.800000000000001,-7.9,11.0,94.5,48.10000000000001,-84.80000000000001,16
708,11987.0,4.1000000000000005,-1.1,5.0,7.300000000000001,-8.8,10.0,99.00000000000001,50.1,-92.2,16
709,12003.0,3.6,-1.4000000000000001,3.5,7.0,-8.8,8.9,102.89999999999999,55.0,-103.2,16
710,12028.0,3.4000000000000004,-1.2000000000000002,2.0,6.9,-8.3,7.7,103.00000000000001,51.1,-113.5,16
711,12038.0,3.4000000000000004,-1.2000000000000002,2.0,6.9,-8.0,7.2,104.7,45.0,-116.4,16
712,12053.0,3.1,-1.0,0.7000000000000001,6.9,-7.6000000000000005,6.2,108.60000000000001,28.0,-123.7,16
713,12070.0,2.8000000000000003,-1.0,-0.4,6.6000000000000005,-7.4,5.5,109.8,18.3,-127.9,16
714,12087.0,2.2,-1.2000000000000002,-1.2000000000000002,6.2,-7.2,5.0,107.8,1.4,-137.3,16
715,12111.0,1.4000000000000001,-1.5,-1.7000000000000002,5.6000000000000005,-7.2,4.800000000000001,94.9,-11.2,-147.29999999999998,16
716,12120.0,0.5,-2.1,-2.1,5.300000000000001,-7.300000000000001,4.7,89.4,-13.900000000000002,-149.20000000000002,16
717,12137.0,-0.30000000000000004,-2.3000000000000003,-2.5,4.800000000000001,-7.1000000000000005,4.3,77.20000000000002,-13.399999999999999,-150.5,16
718,12153.0,-1.0,-2.6,-2.9000000000000004,4.3,-7.1000000000000005,4.1000000000000005,66.7,-8.899999999999999,-147.2,16
719,12171.0,-1.7000000000000002,-2.9000000000000004,-3.2,3.8000000000000003,-7.0,3.8000000000000003,62.7,-7.200000000000001,-144.9,16
720,12187.0,-2.3000000000000003,-3.1,-3.5,3.4000000000000004,-6.800000000000001,3.6,57.20000000000001,-0.9000000000000001,-136.5,16
721,12204.0,-2.3000000000000003,-3.1,-3.5,2.9000000000000004,-7.2,3.0,53.50000000000001,1.9,-124.60000000000001,16
722,12220.0,-2.9000000000000004,-3.8000000000000003,-4.2,2.7,-7.2,2.7,45.7,5.7,-106.30000000000001,16
723,12237.0,-3.5,-4.1000000000000005,-4.5,2.2,-7.5,2.8000000000000003,36.9,13.3,-86.4,16
724,12253.0,-3.9000000000000004,-4.800000000000001,-4.1000000000000005,2.0,-8.0,3.4000000000000004,34.50000000000001,17.200000000000003,-76.60000000000001,16
725,12270.0,-3.9000000000000004,-5.2,-3.7,2.1,-7.800000000000001,3.5,35.2,21.500000000000004,-56.7,16
726,12287.0,-3.9000000000000004,-5.1000000000000005,-4.0,2.1,-7.7,3.1,36.300000000000004,20.3,-38.1,16
727,12303.0,-3.9000000000000004,-5.4,-4.4,2.0,-7.800000000000001,3.0,38.300000000000004,9.4,-20.7,16
728,12320.0,-4.1000000000000005,-6.1000000000000005,-4.6000000000000005,1.8,-8.5,2.9000000000000004,41.7,-8.2,-3.6000000000000005,16
729,12337.0,-4.3,-7.0,-4.5,1.7000000000000002,-9.3,3.0,43.300000000000004,-26.300000000000004,16.3,16
730,12354.0,-4.1000000000000005,-8.4,-3.6,1.9000000000000001,-10.700000000000001,3.8000000000000003,43.70000000000001,-34.2,26.300000000000004,16
731,12370.0,-4.3,-9.1,-3.4000000000000004,1.7000000000000002,-11.4,3.9000000000000004,40.9,-46.300000000000004,49.199999999999996,16
732,12388.0,-4.2,-9.5,-3.1,1.9000000000000001,-11.9,4.2,33.6,-53.9,77.80000000000001,16
733,12404.0,-4.2,-9.5,-3.1,1.9000000000000001,-11.8,4.0,24.400000000000002,-54.699999999999996,109.8,16
734,12420.0,-4.2,-8.9,-3.3000000000000003,2.3000000000000003,-11.100000000000001,3.6,14.300000000000002,-52.900000000000006,139.0,16
735,12437.0,-3.3000000000000003,-7.9,-3.7,3.5,-10.4,3.4000000000000004,-0.9000000000000001,-49.6,155.1,16
736,12453.0,-1.9000000000000001,-7.1000000000000005,-3.3000000000000003,4.9,-10.100000000000001,4.1000000000000005,-10.8,-46.50000000000001,155.8,16
737,12471.0,-0.9,-6.4,-2.3000000000000003,5.0,-9.9,5.2,-33.50000000000001,-37.2,146.7,16
738,12488.0,-1.1,-6.1000000000000005,-0.8,4.6000000000000005,-10.3,6.5,-52.2,-24.200000000000003,136.6,16
739,12503.0,-1.6,-6.300000000000001,0.4,4.2,-10.600000000000001,7.1000000000000005,-61.199999999999996,-8.700000000000001,136.4,16
740,12520.0,-1.6,-5.9,0.9,4.0,-10.700000000000001,7.4,-65.10000000000001,0.1,141.0,16
741,12538.0,-0.6000000000000001,-4.800000000000001,0.9,4.7,-10.0,7.300000000000001,-79.5,23.700000000000003,160.3,16
742,12554.0,0.7000000000000001,-3.5,0.4,5.7,-9.200000000000001,6.7,-84.80000000000001,27.6,164.5,16
743,12570.0,2.2,-2.1,0.2,6.7,-8.200000000000001,6.4,-94.3,27.400000000000002,166.70000000000002,16
744,12587.0,2.2,-2.1,0.2,7.0,-7.7,6.4,-98.9,16.900000000000002,158.6,16
745,12604.0,3.0,-0.8,0.4,7.2,-7.1000000000000005,6.5,-102.7,0.0,145.9,16
746,12620.0,3.1,0.0,0.8,6.800000000000001,-6.7,6.800000000000001,-105.7,-14.200000000000001,139.9,16
747,12637.0,2.9000000000000004,0.8,1.6,6.300000000000001,-6.1000000000000005,7.300000000000001,-103.7,-20.400000000000002,139.8,16
748,12653.0,2.8000000000000003,1.7000000000000002,2.2,6.2,-5.5,7.7,-91.30000000000001,-34.2,143.8,16
749,12670.0,3.3000000000000003,2.7,3.0,6.6000000000000005,-4.6000000000000005,8.200000000000001,-69.10000000000001,-43.2,145.9,16
750,12687.0,3.7,3.9000000000000004,3.3000000000000003,6.5,-4.1000000000000005,8.200000000000001,-43.900000000000006,-47.60000000000001,139.8,16
751,12703.0,3.7,4.0,3.1,6.2,-4.2,7.9,-22.9,-49.800000000000004,131.9,16
752,12721.0,3.7,3.7,2.5,6.0,-4.6000000000000005,7.2,-14.0,-48.400000000000006,128.4,16
753,12737.0,4.1000000000000005,3.7,1.9000000000000001,6.2,-4.7,6.5,-15.299999999999999,-47.7,127.1,16
754,12754.0,4.5,4.0,1.9000000000000001,6.300000000000001,-4.5,6.5,-24.900000000000002,-41.50000000000001,123.9,16
755,12770.0,4.5,4.0,1.9000000000000001,6.5,-4.4,6.7,-33.7,-29.700000000000006,120.4,16
756,12787.0,5.1000000000000005,4.4,2.5,7.0,-3.6,7.300000000000001,-40.0,-15.8,112.1,16
757,12804.0,6.1000000000000005,5.4,3.7,7.800000000000001,-3.4000000000000004,8.6,-40.9,2.2,94.7,16
758,12821.0,7.1000000000000005,5.0,5.1000000000000005,8.4,-4.5,10.200000000000001,-40.300000000000004,26.200000000000003,76.4,16
759,12837.0,7.9,3.5,7.0,9.1,-6.0,11.9,-39.599999999999994,38.400000000000006,67.7,16
760,12853.0,9.0,2.6,8.5,10.100000000000001,-6.300000000000001,13.3,-35.3,60.2,47.2,16
761,12870.0,10.3,2.8000000000000003,9.5,10.700000000000001,-6.1000000000000005,13.5,-27.400000000000002,81.90000000000002,26.300000000000004,16
762,12888.0,11.9,3.5,9.600000000000001,12.100000000000001,-5.5,13.600000000000001,-7.300000000000001,86.00000000000001,0.30000000000000004,16
763,12903.0,13.100000000000001,4.4,9.4,13.3,-4.6000000000000005,13.4,22.3,72.30000000000001,-37.2,16
764,12922.0,12.600000000000001,4.4,8.9,12.9,-4.4,13.0,54.50000000000001,46.6,-78.9,16
765,12937.0,10.5,2.5,8.700000000000001,11.100000000000001,-6.2,13.100000000000001,72.0,34.900000000000006,-95.60000000000002,16
766,12954.0,8.700000000000001,0.0,8.3,9.600000000000001,-8.5,13.0,110.4,16.900000000000002,-120.10000000000001,16
767,12970.0,8.700000000000001,0.0,8.3,9.1,-9.700000000000001,12.8,145.4,10.200000000000001,-134.00000000000003,16
768,12989.0,7.4,-2.5,7.2,8.5,-11.4,11.600000000000001,164.5,9.4,-144.20000000000002,16
769,13003.0,6.800000000000001,-3.7,5.0,8.6,-11.700000000000001,9.8,162.10000000000002,6.9,-160.9,16
770,13020.0,6.5,-4.2,3.1,8.5,-11.600000000000001,8.4,154.9,6.0,-170.70000000000002,16
771,13037.0,5.800000000000001,-4.3,1.5,8.1,-11.100000000000001,7.300000000000001,135.20000000000002,2.7,-189.9,16
772,13054.0,4.800000000000001,-4.1000000000000005,0.4,7.5,-10.5,6.7,116.9,-2.2,-203.8,16
773,13070.0,3.8000000000000003,-4.0,-0.4,7.2,-10.200000000000001,6.4,105.7,-10.1,-213.20000000000002,16
774,13087.0,2.7,-4.1000000000000005,-1.1,6.6000000000000005,-9.8,5.800000000000001,96.1,-17.0,-217.5,16
775,13106.0,1.7000000000000002,-4.2,-1.7000000000000002,6.0,-9.5,5.4,87.3,-22.1,-218.89999999999998,16
776,13121.0,0.7000000000000001,-4.6000000000000005,-2.1,5.4,-9.4,5.0,83.00000000000001,-23.6,-218.4,16
777,13137.0,-0.2,-5.0,-2.4000000000000004,4.9,-9.3,4.800000000000001,73.6,-22.2,-214.5,16
778,13154.0,-0.2,-5.0,-2.4000000000000004,4.2,-9.3,4.7,65.4,-14.0,-206.10000000000002,16
779,13170.0,-1.1,-5.4,-2.6,4.0,-9.1,4.6000000000000005,57.9,-6.500000000000001,-194.90000000000003,16
780,13187.0,-1.8,-5.7,-2.9000000000000004,3.5,-9.0,4.3,51.2,-0.6000000000000001,-182.1,16
781,13204.0,-2.4000000000000004,-5.9,-3.1,3.1,-8.8,4.2,47.3,3.1,-168.4,16
782,13220.0,-3.1,-6.2,-3.2,2.5,-8.9,4.3,46.7,3.2,-160.9,16
783,13237.0,-3.7,-6.800000000000001,-3.1,2.0,-9.3,4.5,49.0,3.8,-140.8,16
784,13254.0,-4.2,-7.6000000000000005,-2.9000000000000004,1.8,-9.4,4.6000000000000005,57.3,-0.9000000000000001,-117.1,16
785,13270.0,-4.800000000000001,-8.1,-3.1,1.3,-9.600000000000001,4.4,67.60000000000001,-7.1000000000000005,-90.9,16
786,13287.0,-5.2,-8.5,-3.7,1.0,-9.8,3.9000000000000004,73.30000000000001,-13.3,-65.10000000000001,16
787,13303.0,-5.4,-9.4,-3.7,0.8,-10.4,3.9000000000000004,74.10000000000001,-15.8,-53.400000000000006,16
788,13321.0,-6.0,-10.8,-3.7,0.30000000000000004,-11.600000000000001,3.8000000000000003,72.30000000000001,-19.400000000000002,-27.3,16
789,13337.0,-6.0,-10.8,-3.7,0.0,-12.100000000000001,3.6,67.7,-25.5,5.0,16
790,13354.0,-6.6000000000000005,-11.9,-3.9000000000000004,-0.30000000000000004,-13.100000000000001,3.3000000000000003,60.8,-26.300000000000004,48.2,16
791,13370.0,-6.6000000000000005,-12.5,-4.5,0.2,-13.0,2.5,48.10000000000001,-25.8,96.1,16
792,13387.0,-5.5,-11.8,-5.1000000000000005,1.8,-12.5,2.3000000000000003,27.5,-25.4,134.3,16
793,13403.0,-3.6,-11.4,-4.9,3.6,-12.200000000000001,2.5,14.800000000000002,-24.900000000000002,146.9,16
794,13420.0,-2.1,-10.4,-4.7,4.800000000000001,-11.5,3.0,-15.299999999999999,-24.5,158.29999999999998,16
795,13437.0,-1.3,-9.5,-3.7,5.1000000000000005,-11.3,3.5,-44.8,-23.099999999999998,154.10000000000002,16
796,13453.0,-1.0,-9.1,-2.4000000000000004,5.4,-11.4,4.7,-67.5,-20.7,143.70000000000002,16
797,13470.0,-1.6,-8.8,-1.5,4.6000000000000005,-11.600000000000001,5.5,-87.00000000000001,-9.4,146.20000000000002,16
798,13487.0,-1.9000000000000001,-7.9,-1.1,4.2,-11.200000000000001,5.9,-97.7,-2.4000000000000004,153.3,16
799,13503.0,-1.2000000000000002,-6.300000000000001,-0.30000000000000004,4.7,-10.200000000000001,6.5,-118.10000000000001,10.4,171.50000000000003,16
800,13521.0,-0.1,-4.4,0.2,5.5,-9.0,6.9,-131.6,19.300000000000004,187.10000000000002,16
801,13538.0,1.1,-2.9000000000000004,0.6000000000000001,6.4,-8.1,7.1000000000000005,-135.3,18.0,194.10000000000002,16
802,13554.0,1.1,-2.9000000000000004,0.6000000000000001,6.7,-7.800000000000001,7.2,-129.3,10.8,194.6,16
803,13570.0,1.9000000000000001,-1.9000000000000001,0.9,6.9,-7.6000000000000005,6.9,-123.19999999999999,2.7,195.1,16
804,13587.0,2.5,-1.1,0.7000000000000001,7.2,-7.300000000000001,6.800000000000001,-122.60000000000001,-1.1,195.00000000000003,16
805,13604.0,3.3000000000000003,-0.2,1.1,7.800000000000001,-6.5,7.300000000000001,-125.30000000000001,-5.1000000000000005,190.70000000000002,16
806,13621.0,4.4,1.4000000000000001,2.2,8.3,-5.1000000000000005,8.200000000000001,-125.00000000000001,-4.6,175.5,16
807,13637.0,4.9,3.2,3.4000000000000004,8.200000000000001,-4.4,8.6,-118.3,-2.2,150.4,16
808,13653.0,4.5,4.1000000000000005,4.5,7.5,-3.8000000000000003,9.5,-102.5,1.5,130.4,16
809,13670.0,4.0,4.7,4.7,6.7,-3.5,9.5,-76.60000000000001,-3.0,121.30000000000001,16
810,13687.0,4.0,4.6000000000000005,4.7,6.5,-3.8000000000000003,9.3,-61.300000000000004,-8.4,120.60000000000001,16
811,13703.0,4.4,3.9000000000000004,4.4,6.5,-4.6000000000000005,8.9,-35.2,-22.700000000000003,126.60000000000002,16
812,13723.0,5.5,4.0,4.5,7.300000000000001,-4.6000000000000005,8.9,-25.1,-37.0,142.7,16
813,13737.0,5.5,4.0,4.5,8.1,-4.3,9.1,-30.799999999999997,-44.9,152.2,16
814,13754.0,7.6000000000000005,4.9,5.4,10.200000000000001,-3.5,10.600000000000001,-42.1,-40.5,137.1,16
815,13770.0,10.0,5.7,7.800000000000001,11.9,-2.9000000000000004,13.5,-45.400000000000006,-31.0,118.40000000000002,16
816,13787.0,11.4,5.9,10.600000000000001,12.5,-3.9000000000000004,16.2,-40.7,1.1,66.7,16
817,13803.0,11.600000000000001,3.9000000000000004,13.0,12.5,-5.0,17.0,-24.400000000000002,49.699999999999996,17.200000000000003,16
818,13827.0,12.600000000000001,3.0,13.600000000000001,14.5,-5.5,16.900000000000002,-7.1000000000000005,113.1,-32.5,16
819,13838.0,14.700000000000001,4.3,11.700000000000001,15.4,-4.6000000000000005,15.8,-6.1000000000000005,121.5,-50.5,16
820,13854.0,15.700000000000001,5.2,10.0,16.5,-3.7,14.0,9.8,107.7,-92.8,16
821,13870.0,14.100000000000001,3.3000000000000003,9.3,15.100000000000001,-5.6000000000000005,13.5,31.9,88.9,-114.40000000000002,16
822,13887.0,11.0,-0.30000000000000004,8.8,12.4,-8.9,13.3,90.5,45.0,-144.8,16
823,13904.0,8.5,-3.3000000000000003,8.1,10.3,-11.600000000000001,13.0,137.9,10.5,-155.1,16
824,13923.0,6.9,-4.9,6.800000000000001,9.1,-12.8,12.100000000000001,161.8,-0.2,-152.5,16
825,13940.0,6.9,-4.9,6.800000000000001,8.8,-12.700000000000001,11.200000000000001,169.2,6.1000000000000005,-149.50000000000003,16
826,13953.0,6.1000000000000005,-4.9,4.4,8.700000000000001,-11.9,9.200000000000001,164.7,17.200000000000003,-154.9,16
827,13970.0,5.7,-4.4,2.2,8.6,-11.100000000000001,7.7,159.9,21.300000000000004,-161.00000000000003,16
828,13987.0,5.1000000000000005,-4.2,0.6000000000000001,8.200000000000001,-10.600000000000001,6.6000000000000005,147.6,23.099999999999998,-176.9,16
829,14003.0,4.3,-4.2,-0.6000000000000001,7.5,-10.0,5.9,133.3,16.1,-195.5,16
830,14020.0,3.1,-4.3,-1.3,7.1000000000000005,-9.9,5.7,120.80000000000001,16.1,-207.10000000000002,16
831,14037.0,2.0,-4.7,-1.9000000000000001,6.300000000000001,-9.700000000000001,5.4,112.20000000000002,14.300000000000002,-211.4,16
832,14054.0,1.0,-4.9,-2.5,5.6000000000000005,-9.4,4.9,104.3,16.700000000000003,-209.20000000000002,16
833,14070.0,0.0,-5.300000000000001,-3.1,4.800000000000001,-9.3,4.4,99.9,18.4,-205.5,16
834,14087.0,-0.8,-5.5,-3.9000000000000004,4.2,-9.0,3.8000000000000003,89.8,20.7,-194.10000000000002,16
835,14108.0,-1.4000000000000001,-5.5,-4.4,3.8000000000000003,-8.5,3.4000000000000004,77.9,17.300000000000004,-176.6,16
836,14127.0,-1.7000000000000002,-5.800000000000001,-4.800000000000001,3.5,-8.4,3.0,74.80000000000001,13.3,-172.2,16
837,14137.0,-1.7000000000000002,-5.800000000000001,-4.800000000000001,3.2,-8.3,2.9000000000000004,69.9,8.5,-161.8,16
838,14155.0,-2.5,-6.2,-5.2,2.5,-8.6,2.8000000000000003,66.7,5.7,-145.3,16
839,14170.0,-3.2,-7.0,-5.2,2.0,-8.9,2.6,66.9,3.0,-136.3,16
840,14187.0,-3.9000000000000004,-7.7,-5.4,1.2000000000000002,-9.3,2.5,70.10000000000001,-3.3000000000000007,-115.10000000000002,16
841,14203.0,-4.9,-8.4,-5.800000000000001,0.6000000000000001,-9.5,2.2,76.2,-13.8,-86.3,16
842,14224.0,-5.800000000000001,-9.1,-6.4,-0.5,-10.0,1.1,83.00000000000001,-28.800000000000004,-50.1,16
843,14237.0,-6.4,-9.700000000000001,-7.300000000000001,-0.7000000000000001,-10.3,0.6000000000000001,86.4,-54.300000000000004,-15.6,16
844,14258.0,-6.4,-11.3,-7.4,-0.5,-11.700000000000001,0.5,78.0,-72.9,19.400000000000002,16
845,14270.0,-6.2,-12.100000000000001,-6.9,-0.1,-12.5,0.8,66.5,-74.89999999999999,36.0,16
846,14287.0,-6.2,-12.100000000000001,-6.9,0.0,-12.8,1.2000000000000002,36.6,-69.7,65.5,16
847,14303.0,-6.1000000000000005,-12.600000000000001,-6.1000000000000005,0.2,-13.0,1.6,9.899999999999999,-58.800000000000004,95.5,16
848,14325.0,-5.1000000000000005,-11.5,-5.4,1.4000000000000001,-12.5,1.9000000000000001,-9.3,-47.2,126.60000000000002,16
849,14337.0,-5.1000000000000005,-11.5,-5.4,2.0,-12.700000000000001,2.2,-25.6,-31.7,151.9,16
850,14353.0,-3.7,-11.5,-4.800000000000001,3.5,-13.100000000000001,2.7,-36.5,-23.2,160.20000000000002,16
851,14370.0,-2.2,-11.4,-4.2,4.800000000000001,-13.5,3.4000000000000004,-63.10000000000001,-7.9,168.3,16
852,14387.0,-0.9,-11.5,-3.2,5.300000000000001,-13.9,4.0,-94.9,1.3,167.1,16
853,14403.0,-0.30000000000000004,-11.5,-1.8,5.800000000000001,-14.600000000000001,5.300000000000001,-132.3,9.700000000000001,165.7,16
854,14423.0,-0.30000000000000004,-11.100000000000001,-0.5,5.6000000000000005,-14.8,6.4,-171.20000000000002,18.700000000000003,177.5,16
855,14437.0,0.5,-9.8,1.2000000000000002,6.1000000000000005,-14.200000000000001,7.9,-186.10000000000002,21.900000000000002,187.3,16
856,14453.0,2.0,-7.4,3.0,7.2,-12.700000000000001,9.4,-198.20000000000002,26.400000000000006,204.70000000000002,16
857,14470.0,2.0,-7.4,3.0,8.4,-10.5,9.9,-195.6,33.400000000000006,207.3,16
858,14487.0,3.6,-4.5,3.7,8.8,-9.8,9.9,-185.00000000000003,34.2,194.20000000000002,16
859,14503.0,4.6000000000000005,-2.7,4.0,8.8,-9.1,9.4,-175.00000000000003,32.2,179.5,16
860,14525.0,4.9,-1.2000000000000002,3.2,8.4,-8.9,8.3,-172.2,22.700000000000003,172.6,16
861,14538.0,4.9,-1.2000000000000002,3.2,8.6,-8.5,8.200000000000001,-169.8,13.900000000000002,170.9,16
862,14553.0,5.800000000000001,0.1,3.5,9.1,-7.300000000000001,8.3,-161.70000000000002,-4.2,165.20000000000002,16
863,14570.0,6.5,1.9000000000000001,4.2,9.200000000000001,-6.6000000000000005,8.5,-153.0,-19.300000000000004,152.3,16
864,14587.0,6.6000000000000005,3.5,5.2,9.0,-5.300000000000001,9.1,-140.4,-33.50000000000001,132.0,16
865,14603.0,6.2,4.4,6.1000000000000005,8.200000000000001,-4.5,9.600000000000001,-118.60000000000001,-47.80000000000001,116.80000000000001,16
866,14621.0,5.7,4.9,6.6000000000000005,7.4,-4.2,9.700000000000001,-94.2,-60.300000000000004,111.70000000000002,16
867,14637.0,5.800000000000001,5.1000000000000005,7.0,7.4,-4.1000000000000005,10.0,-82.50000000000001,-63.900000000000006,112.5,16
868,14653.0,7.0,6.0,7.7,8.3,-3.3000000000000003,10.4,-62.199999999999996,-66.0,110.30000000000001,16
869,14670.0,7.0,6.0,7.7,8.9,-2.5,11.4,-51.4,-57.3,94.9,16
870,14687.0,7.800000000000001,6.9,8.8,9.200000000000001,-2.4000000000000004,12.100000000000001,-44.5,-37.0,71.6,16
871,14703.0,8.5,7.300000000000001,10.5,9.700000000000001,-1.8,13.9,-35.3,-10.299999999999999,43.800000000000004,16
872,14722.0,9.0,7.6000000000000005,13.0,9.700000000000001,-2.4000000000000004,16.5,-17.0,20.7,19.0,16
873,14737.0,8.9,6.300000000000001,14.600000000000001,10.0,-4.2,17.1,-6.8,33.800000000000004,9.100000000000001,16
874,14753.0,9.600000000000001,4.4,14.8,10.700000000000001,-5.7,17.3,15.2,54.50000000000001,-10.299999999999999,16
875,14770.0,10.100000000000001,3.5,14.600000000000001,10.9,-5.9,17.1,45.2,68.9,-26.700000000000003,16
876,14787.0,10.700000000000001,3.8000000000000003,13.200000000000001,11.5,-5.6000000000000005,15.9,77.7,67.5,-43.300000000000004,16
877,14803.0,11.600000000000001,2.9000000000000004,12.200000000000001,12.5,-6.300000000000001,15.3,116.6,51.9,-73.5,16
878,14823.0,11.4,0.4,11.5,12.600000000000001,-8.700000000000001,15.0,168.3,33.6,-113.8,16
879,14839.0,9.9,-3.1,9.600000000000001,11.5,-11.8,13.700000000000001,192.50000000000003,26.000000000000004,-134.20000000000002,16
880,14854.0,9.9,-3.1,9.600000000000001,11.0,-14.0,13.5,217.00000000000003,14.800000000000002,-154.40000000000003,16
881,14870.0,8.5,-6.5,7.6000000000000005,9.9,-15.4,10.9,213.70000000000002,9.899999999999999,-162.3,16
882,14888.0,6.9,-7.800000000000001,4.5,8.6,-15.5,8.700000000000001,184.5,8.4,-164.0,16
883,14903.0,5.4,-7.4,2.3000000000000003,7.800000000000001,-14.0,7.6000000000000005,153.4,6.699999999999999,-166.20000000000002,16
884,14927.0,4.3,-6.2,1.2000000000000002,7.4,-12.200000000000001,7.0,137.4,7.8,-169.9,16
885,14937.0,3.9000000000000004,-4.7,0.2,7.300000000000001,-10.4,6.1000000000000005,134.10000000000002,4.300000000000001,-174.20000000000002,16
886,14953.0,3.0,-3.9000000000000004,-0.7000000000000001,6.9,-9.9,5.9,127.6,-4.7,-184.0,16
887,14970.0,1.2000000000000002,-4.2,-1.3,5.5,-9.8,5.6000000000000005,118.10000000000001,-8.100000000000001,-186.3,16
888,14989.0,0.0,-4.7,-1.3,4.6000000000000005,-9.8,5.800000000000001,110.10000000000001,0.5,-178.9,16
889,15004.0,-0.5,-4.7,-1.7000000000000002,4.3,-9.3,5.5,105.80000000000001,12.600000000000001,-171.60000000000002,16
890,15027.0,-0.4,-4.5,-2.7,4.5,-8.3,4.3,100.30000000000001,24.0,-169.39999999999998,16
891,15037.0,-0.7000000000000001,-4.6000000000000005,-3.4000000000000004,4.4,-8.200000000000001,4.1000000000000005,98.2,27.700000000000003,-169.9,16
892,15055.0,-0.7000000000000001,-4.6000000000000005,-3.4000000000000004,4.2,-8.0,3.8000000000000003,95.9,31.7,-169.29999999999998,16
893,15070.0,-1.2000000000000002,-4.9,-4.1000000000000005,3.9000000000000004,-8.0,3.4000000000000004,95.69999999999999,29.800000000000004,-164.3,16
894,15087.0,-1.7000000000000002,-5.4,-4.9,3.4000000000000004,-8.1,2.7,94.80000000000001,19.0,-156.0,16
895,15109.0,-4.0,-7.4,-5.0,1.5,-9.0,3.0,94.4,12.600000000000001,-137.9,16
896,15124.0,-4.0,-7.4,-5.0,1.0,-9.600000000000001,3.1,97.10000000000001,11.6,-108.7,16
897,15137.0,-4.9,-8.9,-5.0,0.30000000000000004,-10.600000000000001,3.0,97.3,12.9,-90.9,16
898,15154.0,-5.1000000000000005,-10.0,-5.6000000000000005,0.30000000000000004,-10.9,2.5,90.0,16.700000000000003,-55.900000000000006,16
899,15170.0,-4.6000000000000005,-10.3,-6.6000000000000005,0.8,-11.0,1.5,70.5,16.200000000000003,-26.799999999999997,16
900,15187.0,-3.9000000000000004,-10.100000000000001,-7.0,1.4000000000000001,-10.600000000000001,1.2000000000000002,43.4,15.8,-6.500000000000001,16
901,15203.0,-3.4000000000000004,-10.9,-6.2,1.9000000000000001,-11.4,2.0,32.9,14.300000000000002,0.7,16
902,15224.0,-3.7,-11.600000000000001,-5.800000000000001,1.7000000000000002,-12.100000000000001,2.4000000000000004,17.400000000000002,-0.8,25.6,16
903,15236.0,-3.7,-11.600000000000001,-5.800000000000001,1.3,-12.700000000000001,2.1,15.000000000000002,-8.100000000000001,39.300000000000004,16
904,15253.0,-4.1000000000000005,-12.100000000000001,-6.1000000000000005,1.1,-12.5,1.5,6.2,-24.0,75.00000000000001,16
905,15270.0,-4.1000000000000005,-11.600000000000001,-7.2,1.7000000000000002,-12.100000000000001,0.7000000000000001,-12.7,-34.50000000000001,113.3,16
906,15287.0,-2.9000000000000004,-10.9,-7.300000000000001,3.5,-11.9,1.3,-39.0,-33.7,135.8,16
907,15303.0,-1.3,-10.5,-6.1000000000000005,4.7,-12.0,2.6,-53.8,-29.600000000000005,138.8,16
908,15325.0,-0.5,-10.4,-4.7,5.0,-12.4,4.1000000000000005,-104.9,-4.0,135.3,16
909,15337.0,-0.4,-10.4,-2.9000000000000004,4.800000000000001,-13.100000000000001,5.800000000000001,-121.0,5.9,134.6,16
910,15355.0,-0.5,-10.3,-1.3,4.7,-13.3,6.5,-146.9,22.2,139.70000000000002,16
911,15370.0,-0.30000000000000004,-9.600000000000001,-0.4,4.7,-13.200000000000001,7.2,-168.5,28.0,157.0,16
912,15388.0,0.5,-8.0,0.7000000000000001,5.300000000000001,-12.3,8.200000000000001,-183.7,23.5,181.3,16
913,15403.0,2.1,-5.800000000000001,1.6,6.5,-10.9,8.8,-186.5,19.799999999999997,192.1,16
914,15420.0,2.1,-5.800000000000001,1.6,7.4,-9.5,9.4,-183.9,3.1,201.60000000000002,16
915,15437.0,3.3000000000000003,-3.8000000000000003,2.6,7.6000000000000005,-8.700000000000001,9.8,-171.50000000000003,-11.4,199.0,16
916,15453.0,4.0,-1.7000000000000002,3.5,7.7,-7.2,10.100000000000001,-150.9,-20.900000000000002,188.6,16
917,15470.0,4.4,0.2,4.0,7.6000000000000005,-6.300000000000001,10.200000000000001,-131.4,-25.6,175.00000000000003,16
918,15487.0,4.5,1.3,4.2,7.4,-5.800000000000001,10.0,-123.9,-27.2,168.9,16
919,15503.0,4.7,2.2,4.4,7.2,-5.2,10.0,-114.99999999999999,-29.400000000000002,158.6,16
920,15527.0,4.6000000000000005,2.6,5.0,6.7,-5.2,10.5,-100.30000000000001,-30.1,150.00000000000003,16
921,15537.0,4.5,3.3000000000000003,5.5,6.5,-4.9,10.5,-92.2,-30.5,149.20000000000002,16
922,15556.0,4.800000000000001,3.6,5.6000000000000005,6.5,-4.800000000000001,10.3,-74.5,-31.9,147.29999999999998,16
923,15570.0,5.6000000000000005,4.3,5.4,7.0,-4.3,10.0,-64.30000000000001,-32.5,138.7,16
924,15587.0,6.1000000000000005,4.7,5.800000000000001,7.2,-4.0,10.200000000000001,-63.8,-33.0,130.9,16
925,15604.0,6.0,5.4,6.7,6.9,-3.4000000000000004,11.0,-69.20000000000002,-34.300000000000004,116.1,16
926,15620.0,6.0,5.4,6.7,6.6000000000000005,-3.2,11.3,-73.9,-28.0,107.5,16
927,15637.0,6.300000000000001,5.9,8.1,7.300000000000001,-2.6,12.5,-71.5,-15.399999999999999,96.30000000000001,16
928,15653.0,7.300000000000001,6.9,9.0,8.1,-1.9000000000000001,13.200000000000001,-63.4,-4.1,72.10000000000001,16
929,15670.0,8.200000000000001,7.4,10.0,8.700000000000001,-1.6,14.3,-56.9,2.9,57.400000000000006,16
930,15687.0,8.9,7.2,11.100000000000001,9.200000000000001,-2.7,15.100000000000001,-40.6,18.200000000000003,30.799999999999997,16
931,15703.0,9.3,5.5,11.700000000000001,9.200000000000001,-4.4,15.100000000000001,-20.1,28.3,13.399999999999999,16
932,15722.0,9.3,4.5,11.3,9.600000000000001,-4.6000000000000005,14.9,-7.0,38.400000000000006,3.4,16
933,15737.0,10.0,4.5,11.700000000000001,9.9,-4.6000000000000005,15.200000000000001,0.6000000000000001,56.50000000000001,-13.100000000000001,16
934,15754.0,11.0,5.1000000000000005,12.200000000000001,10.9,-4.1000000000000005,15.700000000000001,16.900000000000002,81.7,-43.800000000000004,16
935,15772.0,12.100000000000001,4.7,12.8,12.200000000000001,-4.4,16.5,31.6,93.2,-64.0,16
936,15787.0,12.3,2.3000000000000003,12.8,12.5,-6.7,16.7,77.5,108.8,-110.4,16
937,15803.0,12.3,2.3000000000000003,12.8,12.5,-8.3,16.3,131.4,113.5,-150.3,16
938,15821.0,11.700000000000001,-1.0,11.100000000000001,11.8,-12.100000000000001,14.5,168.4,104.7,-171.90000000000003,16
939,15837.0,10.5,-5.1000000000000005,8.6,10.600000000000001,-14.0,11.9,185.7,83.89999999999999,-173.79999999999998,16
940,15853.0,8.8,-6.2,5.2,9.600000000000001,-14.3,9.5,186.5,53.10000000000001,-166.4,16
941,15870.0,7.5,-6.300000000000001,2.8000000000000003,8.700000000000001,-13.5,8.1,185.3,36.400000000000006,-163.10000000000002,16
942,15887.0,6.300000000000001,-5.5,1.3,7.800000000000001,-12.0,7.4,182.1,8.3,-159.6,16
943,15904.0,5.2,-4.4,0.6000000000000001,7.1000000000000005,-10.4,7.0,176.20000000000002,-7.699999999999999,-161.8,16
944,15923.0,4.1000000000000005,-3.6,-0.1,6.4,-9.3,7.0,167.79999999999998,-15.8,-170.30000000000004,16
945,15937.0,3.0,-3.3000000000000003,-0.30000000000000004,6.1000000000000005,-9.0,7.1000000000000005,161.10000000000002,-9.5,-180.60000000000002,16
946,15953.0,2.1,-3.8000000000000003,-0.5,5.5,-9.0,7.1000000000000005,156.4,7.8,-190.0,16
947,15970.0,1.5,-4.3,-1.3,5.1000000000000005,-8.8,6.5,153.4,18.6,-193.8,16
948,15987.0,1.2000000000000002,-4.7,-2.4000000000000004,5.1000000000000005,-8.700000000000001,5.7,145.4,41.199999999999996,-200.2,16
949,16005.0,1.1,-5.4,-3.1,5.0,-8.8,5.2,135.3,58.2,-203.70000000000002,16
950,16020.0,1.1,-5.4,-3.1,4.9,-8.9,4.7,126.10000000000001,68.1,-200.8,16
951,16037.0,0.8,-6.2,-4.1000000000000005,4.6000000000000005,-9.3,4.0,112.7,68.9,-190.9,16
952,16053.0,0.5,-7.300000000000001,-5.0,4.2,-9.8,3.7,103.40000000000002,66.9,-184.20000000000002,16
953,16070.0,0.2,-8.200000000000001,-5.0,3.7,-10.3,4.1000000000000005,87.7,60.900000000000006,-168.8,16
954,16087.0,-0.8,-9.1,-4.800000000000001,2.2,-10.700000000000001,4.1000000000000005,85.1,49.50000000000001,-145.60000000000002,16
955,16105.0,-2.1,-9.8,-5.1000000000000005,1.2000000000000002,-11.3,3.6,91.30000000000001,34.900000000000006,-108.8,16
956,16124.0,-2.6,-10.700000000000001,-5.9,1.2000000000000002,-11.4,2.6,95.60000000000002,14.700000000000001,-66.4,16
957,16138.0,-2.3000000000000003,-11.100000000000001,-6.800000000000001,1.3,-11.600000000000001,2.3000000000000003,89.8,-8.2,-32.1,16
958,16154.0,-1.9000000000000001,-12.3,-6.9,1.8,-12.5,2.1,83.80000000000001,-19.200000000000003,-19.5,16
959,16170.0,-2.3000000000000003,-12.9,-7.0,1.5,-13.0,2.0,63.8,-37.400000000000006,-0.7,16
960,16189.0,-3.1,-12.9,-6.7,0.8,-13.0,2.3000000000000003,34.300000000000004,-48.50000000000001,18.700000000000003,16
961,16204.0,-3.1,-12.9,-6.7,0.30000000000000004,-12.8,2.1,8.8,-53.2,43.1,16
962,16220.0,-4.1000000000000005,-12.100000000000001,-7.4,0.4,-11.600000000000001,0.9,-12.5,-55.400000000000006,70.7,16
963,16237.0,-3.2,-11.100000000000001,-8.0,1.9000000000000001,-11.5,1.2000000000000002,-23.6,-55.7,79.39999999999999,16
964,16253.0,-1.9000000000000001,-11.0,-7.300000000000001,3.0,-11.700000000000001,1.9000000000000001,-53.599999999999994,-51.1,85.1,16
965,16270.0,-1.3,-11.100000000000001,-6.0,3.3000000000000003,-12.5,3.4000000000000004,-91.2,-42.7,82.3,16
966,16287.0,-1.4000000000000001,-11.700000000000001,-4.4,3.2,-13.0,4.2,-121.80000000000001,-35.0,85.0,16
967,16303.0,-1.3,-11.600000000000001,-3.2,3.3000000000000003,-13.5,5.2,-147.0,-29.200000000000003,99.60000000000001,16
968,16320.0,-0.9,-10.8,-2.1,3.8000000000000003,-13.3,6.2,-173.7,-22.9,123.19999999999999,16
969,16337.0,0.30000000000000004,-9.3,-1.2000000000000002,4.800000000000001,-12.5,6.800000000000001,-186.6,-21.8,135.7,16
970,16353.0,1.8,-7.2,-0.2,6.2,-11.200000000000001,7.6000000000000005,-207.6,-25.6,154.00000000000003,16
971,16370.0,1.8,-7.2,-0.2,7.0,-10.200000000000001,8.6,-219.3,-30.4,157.1,16
972,16387.0,2.7,-5.5,1.2000000000000002,7.1000000000000005,-9.700000000000001,9.0,-224.9,-32.9,147.4,16
973,16403.0,2.9000000000000004,-3.9000000000000004,2.4000000000000004,6.7,-9.4,9.8,-228.4,-28.800000000000004,136.3,16
974,16420.0,2.3000000000000003,-3.3000000000000003,3.4000000000000004,6.1000000000000005,-9.3,10.200000000000001,-230.7,-22.9,134.00000000000003,16
975,16437.0,2.4000000000000004,-2.1,4.5,6.2,-8.3,10.8,-230.20000000000005,-20.1,134.20000000000002,16
976,16453.0,2.8000000000000003,-0.30000000000000004,5.5,6.4,-7.2,11.100000000000001,-222.20000000000005,-17.6,133.0,16
977,16470.0,3.4000000000000004,0.8,6.1000000000000005,6.6000000000000005,-7.0,11.0,-200.1,-24.8,129.5,16
978,16487.0,3.8000000000000003,2.0,6.2,6.7,-6.2,10.700000000000001,-169.9,-39.699999999999996,125.60000000000001,16
979,16503.0,4.0,2.6,6.2,6.6000000000000005,-5.9,10.3,-138.20000000000002,-60.5,123.30000000000003,16
980,16520.0,3.9000000000000004,3.3000000000000003,6.6000000000000005,6.4,-5.5,10.3,-116.6,-80.2,122.0,16
981,16538.0,3.7,3.4000000000000004,7.800000000000001,5.9,-5.5,11.200000000000001,-100.4,-91.30000000000001,125.30000000000001,16
982,16555.0,3.7,4.0,9.200000000000001,5.6000000000000005,-5.1000000000000005,12.3,-91.0,-94.5,127.5,16
983,16571.0,3.7,4.0,9.200000000000001,5.7,-4.9,12.8,-71.30000000000001,-91.0,131.7,16
984,16587.0,4.3,4.6000000000000005,10.4,6.4,-4.5,13.5,-50.7,-82.50000000000001,130.0,16
985,16603.0,5.6000000000000005,5.2,11.0,7.4,-3.9000000000000004,13.9,-28.900000000000002,-72.2,114.10000000000001,16
986,16622.0,6.9,5.4,11.600000000000001,8.1,-4.6000000000000005,14.600000000000001,-14.5,-59.00000000000001,89.4,16
987,16639.0,7.1000000000000005,4.0,12.4,7.7,-6.1000000000000005,15.0,-10.9,-51.1,80.2,16
988,16654.0,6.9,3.2,12.9,7.800000000000001,-5.9,15.8,-13.000000000000002,-28.0,71.19999999999999,16
989,16670.0,7.800000000000001,4.3,14.0,8.3,-5.2,16.400000000000002,-15.5,8.600000000000001,55.2,16
990,16687.0,9.200000000000001,6.0,15.3,9.600000000000001,-3.5,17.8,-3.7000000000000006,55.400000000000006,19.400000000000002,16
991,16704.0,10.600000000000001,5.7,16.3,11.0,-3.8000000000000003,18.900000000000002,30.200000000000003,99.7,-30.1,16
992,16720.0,11.100000000000001,3.4000000000000004,16.0,11.600000000000001,-6.0,18.7,53.300000000000004,116.9,-53.2,16
993,16737.0,10.9,0.4,14.100000000000001,11.5,-8.9,17.2,104.4,130.8,-86.8,16
994,16754.0,10.5,-2.1,10.9,11.3,-11.100000000000001,14.5,152.4,117.30000000000001,-102.89999999999999,16
995,16770.0,10.5,-2.1,10.9,11.0,-11.600000000000001,12.9,184.79999999999998,84.4,-111.10000000000002,16
996,16787.0,9.5,-2.9000000000000004,7.300000000000001,9.9,-11.700000000000001,10.3,200.60000000000002,44.10000000000001,-114.80000000000001,16
997,16803.0,8.0,-3.1,4.5,8.8,-11.4,8.6,205.0,8.0,-118.00000000000001,16
998,16821.0,6.800000000000001,-2.9000000000000004,2.8000000000000003,8.1,-10.5,7.7,204.20000000000002,-5.1000000000000005,-122.30000000000001,16
999,16837.0,5.800000000000001,-2.5,1.5,7.300000000000001,-9.9,7.1000000000000005,197.4,-21.500000000000004,-137.5,16
1000,16853.0,4.4,-2.4000000000000004,0.7000000000000001,6.800000000000001,-9.600000000000001,6.9,185.4,-24.200000000000003,-153.3,16
1001,16870.0,3.2,-2.7,0.1,6.0,-9.4,6.7,173.79999999999998,-15.5,-166.10000000000002,16
1002,16887.0,2.1,-3.1,-0.6000000000000001,5.2,-9.3,6.300000000000001,162.6,1.1,-174.6,16
1003,16903.0,1.2000000000000002,-3.5,-1.5,4.7,-9.200000000000001,5.7,155.60000000000002,11.4,-176.3,16
1004,16923.0,0.6000000000000001,-3.9000000000000004,-2.3000000000000003,4.3,-9.0,5.2,134.8,40.4,-176.6,16
1005,16939.0,0.0,-4.6000000000000005,-3.0,3.9000000000000004,-9.200000000000001,4.7,128.60000000000002,48.50000000000001,-174.90000000000003,16
1006,16953.0,0.0,-4.6000000000000005,-3.0,3.8000000000000003,-9.3,4.5,118.2,58.800000000000004,-169.0,16
1007,16970.0,-0.30000000000000004,-5.1000000000000005,-3.7,3.4000000000000004,-9.3,4.0,110.30000000000001,63.4,-160.9,16
1008,16987.0,-0.8,-5.6000000000000005,-4.4,2.9000000000000004,-9.600000000000001,3.9000000000000004,110.30000000000001,58.3,-147.29999999999998,16
1009,17003.0,-1.4000000000000001,-7.0,-4.5,2.4000000000000004,-10.700000000000001,3.9000000000000004,113.5,53.10000000000001,-137.60000000000002,16
1010,17020.0,-1.8,-8.3,-4.9,1.9000000000000001,-11.3,3.4000000000000004,117.60000000000001,39.9,-112.30000000000001,16
1011,17037.0,-2.3000000000000003,-9.1,-5.6000000000000005,1.4000000000000001,-11.5,2.9000000000000004,113.1,25.5,-81.50000000000001,16
1012,17053.0,-2.7,-9.600000000000001,-6.0,1.3,-11.700000000000001,2.7,106.1,11.4,-47.1,16
1013,17070.0,-2.5,-9.9,-6.6000000000000005,1.4000000000000001,-11.700000000000001,2.2,97.60000000000001,-3.0,-17.1,16
1014,17087.0,-2.0,-10.700000000000001,-6.2,2.0,-12.200000000000001,2.6,92.50000000000001,-10.1,-7.1000000000000005,16
1015,17106.0,-2.1,-11.200000000000001,-6.300000000000001,1.9000000000000001,-12.5,2.6,72.2,-21.1,8.899999999999999,16
1016,17123.0,-2.7,-11.700000000000001,-6.7,1.4000000000000001,-12.9,2.1,54.800000000000004,-23.700000000000003,21.0,16
1017,17140.0,-3.4000000000000004,-11.200000000000001,-8.1,0.7000000000000001,-12.4,0.7000000000000001,42.7,-22.700000000000003,31.9,16
1018,17154.0,-3.4000000000000004,-11.200000000000001,-8.1,1.0,-12.200000000000001,0.30000000000000004,15.6,-22.3,59.00000000000001,16
1019,17170.0,-2.5,-10.8,-8.700000000000001,2.7,-11.9,0.2,-15.000000000000002,-25.7,76.60000000000001,16
1020,17191.0,-0.8,-10.4,-8.4,4.0,-11.600000000000001,0.6000000000000001,-57.800000000000004,-30.799999999999997,78.9,16
1021,17204.0,0.1,-9.8,-7.5,4.6000000000000005,-11.5,2.0,-79.7,-32.9,75.8,16
1022,17224.0,0.1,-9.600000000000001,-5.6000000000000005,4.1000000000000005,-12.0,3.8000000000000003,-127.6,-38.2,68.2,16
1023,17237.0,-0.5,-9.600000000000001,-3.9000000000000004,3.9000000000000004,-12.200000000000001,4.5,-139.4,-38.50000000000001,71.10000000000001,16
1024,17254.0,-0.7000000000000001,-9.0,-2.7,3.7,-12.100000000000001,5.4,-163.5,-39.400000000000006,84.9,16
1025,17270.0,-0.30000000000000004,-7.300000000000001,-1.4000000000000001,4.1000000000000005,-11.100000000000001,6.5,-183.10000000000002,-39.50000000000001,100.6,16
1026,17287.0,0.30000000000000004,-5.6000000000000005,-0.2,4.7,-9.9,7.4,-189.60000000000002,-39.699999999999996,106.70000000000002,16
1027,17304.0,0.9,-3.6,0.9,5.2,-8.6,8.1,-196.6,-38.2,113.5,16
1028,17325.0,1.2000000000000002,-1.7000000000000002,2.2,5.4,-7.300000000000001,9.1,-196.10000000000002,-36.1,112.5,16
1029,17339.0,1.2000000000000002,-1.7000000000000002,2.2,5.300000000000001,-7.0,9.5,-186.3,-31.5,108.0,16
1030,17353.0,1.0,-0.8,3.2,4.9,-6.9,9.8,-169.1,-26.9,109.8,16
1031,17370.0,1.0,-0.4,3.7,4.9,-6.9,9.700000000000001,-154.6,-26.400000000000006,117.1,16
1032,17387.0,1.4000000000000001,0.30000000000000004,3.8000000000000003,5.300000000000001,-6.5,9.5,-151.0,-28.1,120.80000000000001,16
1033,17403.0,2.1,1.1,4.1000000000000005,5.7,-5.9,9.600000000000001,-146.9,-34.400000000000006,125.4,16
1034,17421.0,2.6,2.3000000000000003,4.6000000000000005,5.9,-5.2,9.700000000000001,-138.7,-45.2,127.69999999999999,16
1035,17437.0,2.9000000000000004,3.1,5.1000000000000005,5.9,-5.0,9.8,-121.2,-60.00000000000001,129.70000000000002,16
1036,17453.0,3.2,3.8000000000000003,5.9,6.0,-4.5,10.200000000000001,-100.70000000000002,-72.2,131.2,16
1037,17470.0,3.4000000000000004,4.4,6.7,5.9,-4.2,10.700000000000001,-85.1,-78.80000000000001,129.10000000000002,16
1038,17487.0,3.5,4.2,7.5,5.800000000000001,-4.6000000000000005,11.3,-79.19999999999999,-77.5,128.5,16
1039,17503.0,4.2,4.6000000000000005,8.5,6.1000000000000005,-4.3,12.0,-73.9,-69.80000000000001,128.60000000000002,16
1040,17524.0,5.5,5.1000000000000005,9.700000000000001,7.2,-4.0,13.0,-72.7,-55.7,121.30000000000001,16
1041,17537.0,5.5,5.1000000000000005,9.700000000000001,7.9,-3.7,13.8,-70.8,-33.50000000000001,101.20000000000002,16
1042,17553.0,7.0,5.6000000000000005,11.700000000000001,8.9,-3.8000000000000003,15.700000000000001,-63.0,-4.0,67.5,16
1043,17570.0,7.7,4.9,13.5,8.9,-5.1000000000000005,16.900000000000002,-57.699999999999996,12.5,51.2,16
1044,17587.0,7.7,3.7,14.3,9.1,-5.800000000000001,17.5,-48.2,42.400000000000006,28.400000000000002,16
1045,17604.0,8.3,3.9000000000000004,15.0,9.9,-4.800000000000001,18.1,-37.1,66.3,8.2,16
1046,17627.0,9.3,5.300000000000001,15.700000000000001,10.8,-3.6,18.8,9.2,87.50000000000001,-33.9,16
1047,17637.0,9.8,5.6000000000000005,15.9,10.9,-3.8000000000000003,18.7,39.8,87.89999999999999,-50.3,16
1048,17654.0,9.200000000000001,3.4000000000000004,14.4,10.4,-5.800000000000001,17.5,108.0,78.80000000000001,-76.3,16
1049,17671.0,8.200000000000001,0.4,12.0,9.600000000000001,-8.700000000000001,15.5,136.5,71.10000000000001,-84.9,16
1050,17688.0,7.2,-2.5,9.600000000000001,8.8,-11.3,13.700000000000001,175.4,54.4,-93.8,16
1051,17703.0,7.2,-2.5,9.600000000000001,8.5,-12.0,12.4,195.00000000000003,38.50000000000001,-96.60000000000001,16
1052,17720.0,6.300000000000001,-3.7,6.6000000000000005,8.0,-11.9,10.100000000000001,195.3,25.6,-99.5,16
1053,17737.0,5.800000000000001,-3.5,4.0,7.7,-11.100000000000001,8.4,184.4,15.2,-107.19999999999999,16
1054,17754.0,5.300000000000001,-2.9000000000000004,2.1,7.5,-10.0,7.2,171.50000000000003,7.300000000000001,-121.10000000000001,16
1055,17770.0,4.7,-2.3000000000000003,0.8,7.1000000000000005,-9.0,6.5,164.4,4.2,-129.60000000000002,16
1056,17787.0,3.9000000000000004,-1.9000000000000001,0.0,6.7,-8.4,6.2,152.0,-0.5,-148.20000000000002,16
1057,17804.0,3.1,-1.8,-0.8,6.300000000000001,-8.200000000000001,6.0,141.3,0.1,-164.6,16
1058,17822.0,1.5,-2.3000000000000003,-1.1,5.1000000000000005,-8.200000000000001,5.9,126.10000000000001,11.900000000000002,-172.1,16
1059,17837.0,0.2,-2.9000000000000004,-1.1,4.1000000000000005,-8.3,6.1000000000000005,116.30000000000001,30.799999999999997,-167.7,16
1060,17853.0,-0.4,-2.9000000000000004,-1.4000000000000001,3.6,-7.9,6.1000000000000005,115.3,41.6,-163.20000000000002,16
1061,17870.0,-0.6000000000000001,-3.6,-2.0,3.5,-8.1,5.7,118.10000000000001,60.1,-153.89999999999998,16
1062,17887.0,-0.7000000000000001,-4.3,-3.2,3.4000000000000004,-8.3,4.800000000000001,120.7,72.30000000000001,-143.9,16
1063,17903.0,-0.7000000000000001,-4.3,-3.2,3.4000000000000004,-8.5,4.3,115.50000000000003,77.5,-133.4,16
1064,17924.0,-1.1,-6.300000000000001,-5.2,2.9000000000000004,-9.4,3.2,108.2,71.6,-119.7,16
1065,17937.0,-1.1,-6.300000000000001,-5.2,2.6,-9.9,3.0,104.9,54.9,-98.8,16
1066,17954.0,-1.8,-7.6000000000000005,-5.6000000000000005,1.9000000000000001,-10.700000000000001,2.7,105.0,45.5,-85.4,16
1067,17970.0,-2.3000000000000003,-8.6,-6.1000000000000005,1.4000000000000001,-11.200000000000001,2.3000000000000003,102.89999999999999,27.099999999999998,-53.8,16
1068,17987.0,-2.6,-9.1,-6.800000000000001,1.3,-11.100000000000001,1.8,91.2,12.9,-18.4,16
1069,18003.0,-2.3000000000000003,-8.9,-7.2,1.6,-10.8,1.6,77.00000000000001,0.9000000000000001,8.4,16
1070,18022.0,-1.7000000000000002,-8.9,-7.300000000000001,2.2,-10.700000000000001,1.5,62.1,-7.500000000000001,19.700000000000003,16
1071,18037.0,-1.5,-9.600000000000001,-7.0,2.4000000000000004,-11.3,1.9000000000000001,48.400000000000006,-12.100000000000001,20.900000000000002,16
1072,18053.0,-2.4000000000000004,-10.8,-7.0,1.5,-12.5,1.8,41.50000000000001,-13.6,23.0,16
1073,18070.0,-3.1,-10.9,-8.200000000000001,0.8,-12.600000000000001,0.6000000000000001,26.1,-19.5,40.7,16
1074,18087.0,-3.1,-10.9,-8.200000000000001,0.9,-12.3,0.1,5.4,-28.400000000000002,70.5,16
1075,18105.0,-2.6,-10.200000000000001,-8.9,2.2,-11.8,0.0,-21.6,-36.400000000000006,94.5,16
1076,18124.0,0.5,-9.700000000000001,-6.800000000000001,4.6000000000000005,-12.0,1.8,-50.8,-39.400000000000006,103.60000000000001,16
1077,18137.0,0.5,-9.700000000000001,-6.800000000000001,5.1000000000000005,-12.100000000000001,2.4000000000000004,-81.60000000000001,-38.300000000000004,99.7,16
1078,18154.0,1.1,-9.8,-5.4,5.2,-12.8,3.8000000000000003,-98.50000000000001,-37.2,96.80000000000001,16
1079,18170.0,1.0,-9.9,-3.7,4.9,-13.100000000000001,5.300000000000001,-130.9,-32.1,95.60000000000002,16
1080,18186.0,0.6000000000000001,-9.3,-2.3000000000000003,4.7,-13.0,5.9,-161.70000000000002,-24.599999999999998,103.89999999999999,16
1081,18203.0,0.8,-8.0,-1.1,4.800000000000001,-12.3,6.800000000000001,-194.00000000000003,-18.5,118.3,16
1082,18225.0,1.8,-5.800000000000001,0.30000000000000004,6.0,-10.0,8.4,-217.5,-20.900000000000002,124.7,16
1083,18237.0,2.5,-3.6,2.0,6.300000000000001,-9.200000000000001,9.1,-222.40000000000003,-24.0,124.3,16
1084,18254.0,2.8000000000000003,-1.8,3.7,6.300000000000001,-8.0,10.4,-220.20000000000002,-28.800000000000004,118.3,16
1085,18270.0,2.8000000000000003,-1.8,3.7,5.7,-7.1000000000000005,10.8,-203.4,-32.0,111.0,16
1086,18286.0,2.3000000000000003,-0.30000000000000004,4.6000000000000005,5.5,-7.0,10.8,-176.9,-36.9,111.6,16
1087,18303.0,2.1,0.5,4.9,5.2,-6.5,10.4,-149.79999999999998,-44.00000000000001,119.39999999999999,16
1088,18327.0,3.1,2.5,4.9,5.9,-5.5,10.0,-126.20000000000002,-54.699999999999996,125.50000000000001,16
1089,18337.0,3.1,2.5,4.9,6.1000000000000005,-5.2,9.9,-114.9,-60.7,125.60000000000001,16
1090,18353.0,3.4000000000000004,3.2,5.0,5.800000000000001,-4.800000000000001,9.5,-94.4,-73.2,121.9,16
1091,18370.0,3.0,3.6,5.0,5.4,-4.800000000000001,9.5,-80.60000000000001,-82.39999999999999,121.0,16
1092,18387.0,2.8000000000000003,4.1000000000000005,5.7,5.0,-4.5,9.9,-68.4,-83.89999999999999,123.6,16
1093,18403.0,2.8000000000000003,4.7,6.800000000000001,4.800000000000001,-4.0,10.8,-53.599999999999994,-76.60000000000001,124.2,16
1094,18423.0,3.0,5.2,7.4,4.800000000000001,-3.6,11.200000000000001,-38.800000000000004,-61.10000000000001,121.9,16
1095,18437.0,3.8000000000000003,5.300000000000001,7.800000000000001,5.300000000000001,-3.7,11.5,-34.60000000000001,-49.6,119.7,16
1096,18453.0,5.0,5.2,8.3,6.2,-3.8000000000000003,12.0,-35.699999999999996,-28.600000000000005,108.8,16
1097,18470.0,5.0,5.2,8.3,6.6000000000000005,-4.1000000000000005,12.3,-46.50000000000001,-9.600000000000001,92.39999999999999,16
1098,18487.0,5.9,4.9,9.200000000000001,7.4,-4.2,13.600000000000001,-56.10000000000001,3.9,75.1,16
1099,18503.0,7.1000000000000005,4.7,11.100000000000001,8.200000000000001,-4.800000000000001,15.700000000000001,-52.400000000000006,16.900000000000002,54.300000000000004,16
1100,18526.0,8.4,4.4,14.600000000000001,8.9,-4.9,17.8,-37.9,37.7,33.7,16
1101,18537.0,8.4,4.4,14.600000000000001,9.3,-4.3,18.0,-31.0,47.2,23.099999999999998,16
1102,18558.0,9.200000000000001,5.6000000000000005,14.9,10.100000000000001,-3.0,18.1,-11.900000000000002,73.10000000000001,-18.8,16
1103,18570.0,10.100000000000001,6.7,14.8,10.5,-2.6,18.0,1.3,78.0,-36.400000000000006,16
1104,18587.0,10.100000000000001,6.2,14.5,10.600000000000001,-3.0,17.8,46.199999999999996,79.7,-73.7,16
1105,18604.0,9.3,3.5,13.600000000000001,9.9,-5.6000000000000005,17.1,103.2,75.60000000000001,-103.89999999999999,16
1106,18630.0,8.4,0.1,12.200000000000001,9.200000000000001,-10.3,15.4,147.4,70.5,-120.3,16
1107,18636.0,7.9,-2.8000000000000003,10.0,9.200000000000001,-11.5,14.5,164.20000000000002,67.60000000000001,-124.60000000000001,16
1108,18653.0,7.9,-2.8000000000000003,10.0,9.200000000000001,-12.200000000000001,13.4,188.5,58.60000000000001,-130.6,16
1109,18670.0,7.5,-4.3,7.2,8.8,-12.600000000000001,10.9,196.5,46.50000000000001,-133.70000000000002,16
1110,18687.0,6.800000000000001,-4.6000000000000005,4.3,8.4,-12.4,8.8,195.00000000000003,32.300000000000004,-138.00000000000003,16
