,ms,accelX,accelY,accelZ,accelWithGX,accelWithGY,accelWithGZ,rotRateAlpha,rotRateBeta,rotRateGamma,interval
0,0.0,0.0,0.0,0.0,0.1,2.4000000000000004,8.0,20.900000000000002,30.9,13.700000000000001,16
1,17.0,-0.1,0.0,0.1,-0.1,2.4000000000000004,8.1,8.1,31.4,10.0,16
2,35.0,-0.2,0.0,0.2,-0.4,2.5,8.4,-1.3,29.000000000000004,7.699999999999999,16
3,50.0,-0.4,0.1,0.4,-0.8,2.5,8.6,-8.1,27.1,7.6,16
4,67.0,-0.5,0.1,0.6000000000000001,-1.0,2.5,9.1,-12.200000000000001,26.1,9.200000000000001,16
5,83.0,-0.4,0.0,0.9,-1.1,2.3000000000000003,9.4,-12.000000000000002,26.500000000000004,10.3,16
6,100.0,-0.5,0.0,0.9,-1.1,2.3000000000000003,9.4,-12.000000000000002,26.500000000000004,10.3,16
7,117.0,-0.6000000000000001,0.0,0.9,-1.5,2.3000000000000003,9.700000000000001,-5.500000000000001,23.2,14.700000000000001,16
8,133.0,-0.6000000000000001,0.0,0.8,-1.6,2.3000000000000003,9.700000000000001,-4.300000000000001,18.3,17.9,16
9,151.0,-0.6000000000000001,-0.1,0.8,-1.6,2.3000000000000003,9.700000000000001,-4.300000000000001,18.3,17.9,16
10,167.0,-0.4,-0.2,0.9,-1.6,2.1,10.0,-5.0,8.1,18.3,16
11,183.0,-0.4,-0.1,0.8,-1.6,2.2,9.9,-5.0,8.1,18.3,16
12,200.0,-0.4,0.0,0.5,-1.6,2.5,9.4,5.8,-8.3,14.600000000000001,16
13,217.0,-0.4,0.4,-0.1,-1.6,2.9000000000000004,8.9,10.5,-11.5,14.800000000000002,16
14,233.0,-0.4,0.7000000000000001,-0.5,-1.6,3.2,8.700000000000001,11.000000000000002,-5.6,17.5,16
15,250.0,-0.5,0.8,-0.5,-1.8,3.4000000000000004,8.700000000000001,6.000000000000001,4.6000000000000005,20.7,16
16,267.0,-0.7000000000000001,0.9,-0.1,-2.0,3.4000000000000004,9.200000000000001,-2.8,11.8,23.2,16
17,283.0,-0.7000000000000001,0.6000000000000001,0.5,-2.0,3.4000000000000004,9.200000000000001,-2.8,11.8,23.2,16
18,300.0,-0.7000000000000001,0.4,0.5,-2.1,3.0,9.600000000000001,-14.3,1.9,20.5,16
19,317.0,-0.6000000000000001,0.30000000000000004,0.4,-1.9000000000000001,2.9000000000000004,9.4,-16.8,-13.9,18.0,16
20,334.0,-0.5,0.30000000000000004,0.2,-1.9000000000000001,2.9000000000000004,9.4,-16.8,-13.9,18.0,16
21,350.0,-0.30000000000000004,0.30000000000000004,-0.1,-1.3,2.8000000000000003,9.200000000000001,-16.6,-24.6,17.1,16
22,367.0,0.0,0.1,-0.2,-1.2000000000000002,2.6,9.1,-11.6,-15.399999999999999,18.2,16
23,383.0,0.0,0.0,-0.2,-1.2000000000000002,2.6,9.1,-11.6,-15.399999999999999,18.2,16
24,401.0,0.1,-0.1,-0.1,-1.1,2.5,9.1,0.6000000000000001,-1.0,15.9,16
25,417.0,-0.2,0.2,-0.1,-1.3,2.8000000000000003,9.1,4.3999999999999995,-1.0,13.100000000000001,16
26,434.0,-0.30000000000000004,0.30000000000000004,-0.1,-1.3,2.8000000000000003,9.1,4.3999999999999995,-1.0,13.100000000000001,16
27,450.0,-0.4,0.5,-0.30000000000000004,-1.5,3.1,9.0,2.3000000000000003,-10.2,12.6,16
28,467.0,-0.4,0.6000000000000001,-0.1,-1.4000000000000001,3.1,9.200000000000001,-0.9,-12.8,15.000000000000002,16
29,483.0,-0.4,0.5,0.0,-1.5,3.0,9.3,-3.1,-11.5,17.7,16
30,500.0,-0.4,0.30000000000000004,0.30000000000000004,-1.4000000000000001,2.8000000000000003,9.700000000000001,-3.1,-5.9,20.7,16
31,517.0,-0.4,-0.1,0.7000000000000001,-1.4000000000000001,2.5,9.9,-0.30000000000000004,-2.1,21.6,16
32,533.0,-0.4,-0.30000000000000004,0.7000000000000001,-1.3,2.2,10.0,4.0,-3.1,20.5,16
33,550.0,-0.2,-0.5,0.7000000000000001,-1.1,2.1,10.100000000000001,8.0,-8.5,18.0,16
34,567.0,-0.1,-0.5,0.8,-1.1,2.1,10.100000000000001,8.0,-8.5,18.0,16
35,583.0,0.2,-0.4,0.7000000000000001,-0.6000000000000001,2.3000000000000003,10.0,16.3,-21.1,7.500000000000001,16
36,600.0,0.2,-0.2,0.6000000000000001,-0.6000000000000001,2.7,10.0,20.3,-22.000000000000004,1.0999999999999999,16
37,617.0,0.2,0.0,0.6000000000000001,-0.6000000000000001,2.9000000000000004,9.9,20.3,-22.000000000000004,1.0999999999999999,16
38,634.0,0.1,0.2,0.5,-0.7000000000000001,3.1,9.9,25.6,-4.5,-1.8,16
39,650.0,-0.1,0.2,0.8,-0.8,3.0,10.200000000000001,25.3,6.6000000000000005,1.5000000000000002,16
40,667.0,-0.1,0.0,1.0,-0.8,3.0,10.200000000000001,25.3,6.6000000000000005,1.5000000000000002,16
41,684.0,0.0,-0.4,1.2000000000000002,-0.7000000000000001,2.5,10.4,28.500000000000004,10.5,5.4,16
42,700.0,0.2,-0.8,0.8,-0.5,2.4000000000000004,10.0,30.9,1.0999999999999999,3.7000000000000006,16
43,717.0,0.4,-0.8,0.5,-0.5,2.4000000000000004,10.0,30.9,1.0999999999999999,3.7000000000000006,16
44,733.0,0.8,-0.6000000000000001,-0.1,0.2,2.8000000000000003,9.1,28.200000000000003,-12.3,-3.5,16
45,750.0,0.9,-0.30000000000000004,-0.2,0.2,3.1,9.1,20.2,0.8,-4.800000000000001,16
46,767.0,0.8,-0.2,-0.1,-0.1,3.1,9.5,10.8,22.4,-4.0,16
47,784.0,0.4,-0.4,0.6000000000000001,-0.5,2.8000000000000003,10.100000000000001,5.0,34.400000000000006,-0.8,16
48,800.0,0.2,-0.9,1.1,-0.6000000000000001,2.4000000000000004,10.3,3.2,29.300000000000004,1.7,16
49,816.0,0.30000000000000004,-1.1,1.0,-0.4,2.3000000000000003,10.0,4.800000000000001,9.4,1.5000000000000002,16
50,833.0,0.7000000000000001,-0.9,0.30000000000000004,-0.1,2.5,9.3,7.0,-12.000000000000002,0.7,16
51,850.0,1.0,-0.4,-0.5,0.2,3.0,8.700000000000001,5.4,-20.1,1.4,16
52,866.0,1.0,-0.1,-0.8,0.30000000000000004,3.4000000000000004,8.4,-0.7,-13.3,3.6,16
53,883.0,0.9,0.1,-0.7000000000000001,0.1,3.4000000000000004,8.6,-9.5,0.30000000000000004,7.8,16
54,900.0,0.8,0.1,-0.5,0.1,3.4000000000000004,8.6,-9.5,0.30000000000000004,7.8,16
55,917.0,0.5,-0.30000000000000004,0.0,-0.30000000000000004,2.8000000000000003,9.3,-17.9,11.8,14.3,16
56,933.0,0.4,-0.5,0.0,-0.4,2.7,9.200000000000001,-13.8,5.1,14.0,16
57,950.0,0.30000000000000004,-0.5,-0.1,-0.4,2.9000000000000004,8.9,-13.8,5.1,14.0,16
58,967.0,0.2,-0.2,-0.6000000000000001,-0.4,3.2,8.6,-3.2,-8.3,16.400000000000002,16
59,983.0,0.30000000000000004,0.2,-0.8,-0.30000000000000004,3.3000000000000003,8.4,-0.9,-9.0,19.500000000000004,16
60,1000.0,0.4,0.2,-0.9,-0.30000000000000004,3.3000000000000003,8.4,-0.9,-9.0,19.500000000000004,16
61,1017.0,0.6000000000000001,0.0,-0.8,0.2,3.1,8.5,2.6,0.5,25.3,16
62,1033.0,0.8,-0.30000000000000004,-0.7000000000000001,0.4,2.9000000000000004,8.5,8.5,7.2,24.8,16
63,1050.0,0.9,-0.30000000000000004,-0.8,0.30000000000000004,2.9000000000000004,8.3,15.399999999999999,12.3,22.000000000000004,16
64,1067.0,0.7000000000000001,-0.30000000000000004,-1.1,0.1,3.0,8.0,19.8,14.600000000000001,19.200000000000003,16
65,1083.0,0.30000000000000004,-0.1,-1.2000000000000002,-0.2,3.3000000000000003,7.9,20.2,13.0,18.0,16
66,1100.0,0.2,0.1,-1.2000000000000002,-0.5,3.6,7.9,16.3,10.9,19.3,16
67,1116.0,0.0,0.30000000000000004,-1.2000000000000002,-0.5,3.7,7.9,8.5,9.3,21.400000000000002,16
68,1133.0,0.0,0.2,-1.1,-0.5,3.6,7.9,0.2,6.1000000000000005,22.900000000000002,16
69,1150.0,0.1,0.0,-1.1,-0.4,3.3000000000000003,8.0,-5.4,3.5,23.3,16
70,1167.0,0.2,-0.30000000000000004,-1.0,-0.30000000000000004,3.1,8.1,-8.1,3.5,22.7,16
71,1183.0,0.2,-0.2,-0.7000000000000001,-0.30000000000000004,3.2,8.3,-10.700000000000001,3.4,21.5,16
72,1200.0,0.1,-0.1,-0.6000000000000001,-0.4,3.2,8.4,-15.8,-0.5,20.0,16
73,1217.0,0.0,-0.1,-0.5,-0.4,3.2,8.6,-22.900000000000002,-7.2,18.6,16
74,1233.0,0.0,-0.1,-0.30000000000000004,-0.4,3.2,8.6,-22.900000000000002,-7.2,18.6,16
75,1250.0,0.30000000000000004,-0.2,-0.1,0.1,2.9000000000000004,9.0,-33.6,-24.3,12.5,16
76,1267.0,0.6000000000000001,0.0,-0.1,0.4,3.1,9.0,-33.400000000000006,-34.800000000000004,7.699999999999999,16
77,1283.0,0.6000000000000001,0.2,-0.1,0.4,3.1,9.0,-33.400000000000006,-34.800000000000004,7.699999999999999,16
78,1300.0,0.6000000000000001,0.7000000000000001,-0.4,0.8,3.7,8.9,-44.7,-53.6,11.9,16
79,1317.0,0.7000000000000001,0.7000000000000001,0.0,1.1,3.3000000000000003,9.3,-62.0,-57.5,16.900000000000002,16
80,1333.0,0.8,0.30000000000000004,0.4,1.1,2.3000000000000003,9.9,-84.0,-60.20000000000001,15.299999999999999,16
81,1350.0,0.9,-0.30000000000000004,1.0,1.8,2.0,10.5,-105.3,-64.8,8.9,16
82,1367.0,1.3,-0.1,1.5,2.2,1.9000000000000001,10.9,-118.80000000000001,-80.4,-2.0,16
83,1383.0,1.3,0.1,1.5,2.5,2.0,10.8,-123.80000000000001,-92.50000000000001,-11.1,16
84,1400.0,1.2000000000000002,0.9,1.7000000000000002,2.6,2.4000000000000004,11.4,-124.39999999999999,-84.2,-7.2,16
85,1417.0,1.2000000000000002,1.3,2.2,3.2,2.0,12.600000000000001,-124.39999999999999,-84.2,-7.2,16
86,1433.0,1.8,0.6000000000000001,3.7,3.6,0.4,13.600000000000001,-108.7,-6.2,15.399999999999999,16
87,1450.0,1.7000000000000002,-1.4000000000000001,3.9000000000000004,3.1,-1.5,13.3,-92.0,34.50000000000001,12.700000000000001,16
88,1466.0,0.6000000000000001,-2.6,3.0,1.9000000000000001,-2.5,12.700000000000001,-75.2,55.800000000000004,10.1,16
89,1483.0,-0.1,-2.6,2.8000000000000003,0.8,-2.9000000000000004,12.0,-55.900000000000006,53.2,19.3,16
90,1500.0,-0.9,-2.7,1.6,0.4,-2.8000000000000003,11.3,-32.7,38.900000000000006,33.800000000000004,16
91,1517.0,-0.7000000000000001,-2.3000000000000003,1.4000000000000001,0.4,-2.8000000000000003,11.3,-3.6,9.3,44.2,16
92,1533.0,-0.1,-1.1,1.0,1.1,-1.5,10.600000000000001,31.5,-29.400000000000002,46.300000000000004,16
93,1550.0,0.0,-1.3,0.2,1.4000000000000001,-1.6,9.8,61.199999999999996,-53.50000000000001,43.1,16
94,1567.0,0.1,-1.5,-0.2,2.0,-1.4000000000000001,9.0,61.199999999999996,-53.50000000000001,43.1,16
95,1583.0,0.6000000000000001,-1.4000000000000001,-1.8,2.3000000000000003,-1.1,7.7,93.9,-68.60000000000001,10.1,16
96,1600.0,0.4,-1.2000000000000002,-2.7,2.2,-0.6000000000000001,6.6000000000000005,91.2,-69.80000000000001,-7.699999999999999,16
97,1617.0,0.1,-0.9,-3.6,2.3000000000000003,0.2,5.4,71.7,-64.9,-13.0,16
98,1633.0,0.1,0.30000000000000004,-4.2,2.6,1.4000000000000001,5.300000000000001,53.1,-37.1,-5.7,16
99,1650.0,0.6000000000000001,0.6000000000000001,-4.1000000000000005,2.6,1.4000000000000001,5.300000000000001,53.1,-37.1,-5.7,16
100,1667.0,2.3000000000000003,0.5,-3.4000000000000004,4.1000000000000005,1.3,5.800000000000001,21.700000000000003,26.6,13.9,16
101,1684.0,1.2000000000000002,-0.4,-3.7,3.2,0.4,5.9,5.300000000000001,51.2,5.300000000000001,16
102,1700.0,0.9,-0.9,-3.3000000000000003,2.5,-0.30000000000000004,7.0,5.300000000000001,51.2,5.300000000000001,16
103,1717.0,0.4,-1.7000000000000002,-1.8,2.3000000000000003,-0.8,8.0,-18.3,29.700000000000003,-38.400000000000006,16
104,1733.0,0.30000000000000004,-1.2000000000000002,-1.2000000000000002,2.0,0.5,8.5,-11.2,2.3000000000000003,-69.60000000000001,16
105,1750.0,-0.1,0.1,-0.7000000000000001,2.0,0.5,8.5,3.1,-7.1000000000000005,-73.30000000000001,16
106,1767.0,-0.9,1.3,1.3,0.30000000000000004,2.0,11.100000000000001,22.6,3.4,-51.1,16
107,1783.0,-2.3000000000000003,-0.2,1.6,-0.6000000000000001,0.7000000000000001,10.9,43.7,8.799999999999999,-25.900000000000002,16
108,1801.0,-2.4000000000000004,-0.9,1.3,-0.6000000000000001,0.7000000000000001,10.9,43.7,8.799999999999999,-25.900000000000002,16
109,1816.0,-0.7000000000000001,-0.8,0.7000000000000001,1.5,1.1,9.8,66.1,-14.900000000000002,-14.500000000000002,16
110,1833.0,-0.1,0.0,0.1,1.6,2.0,9.4,62.1,-24.1,-22.000000000000004,16
111,1850.0,-0.30000000000000004,0.5,0.1,1.6,2.0,9.4,62.1,-24.1,-22.000000000000004,16
112,1867.0,-1.0,1.3,0.4,0.9,3.6,9.4,48.300000000000004,-59.300000000000004,-21.1,16
113,1883.0,-1.0,1.7000000000000002,-0.30000000000000004,1.4000000000000001,4.0,8.700000000000001,35.6,-73.7,-9.700000000000001,16
114,1902.0,0.30000000000000004,2.1,-0.6000000000000001,2.7,4.4,8.5,12.4,-69.5,3.2,16
115,1916.0,1.1,2.0,0.1,4.1000000000000005,3.9000000000000004,9.8,-12.6,-41.9,11.1,16
116,1933.0,2.5,0.8,2.4000000000000004,5.5,2.9000000000000004,11.8,-25.8,-21.0,0.0,16
117,1950.0,3.6,0.30000000000000004,3.5,7.300000000000001,2.3000000000000003,13.4,-15.5,-11.3,-41.0,16
118,1967.0,2.7,0.5,4.0,3.9000000000000004,3.3000000000000003,12.5,14.900000000000002,-13.0,-99.30000000000001,16
119,1984.0,-1.0,2.1,2.5,1.5,4.7,11.5,32.0,-21.3,-113.5,16
120,2000.0,-1.5,2.6,1.9000000000000001,1.0,5.4,10.3,34.0,-20.8,-85.0,16
121,2017.0,-0.7000000000000001,2.3000000000000003,0.9,2.7,4.6000000000000005,10.200000000000001,23.700000000000003,-3.5,-43.800000000000004,16
122,2033.0,2.2,0.4,1.8,4.7,3.1,10.9,17.7,10.4,-25.6,16
123,2050.0,2.5,-0.5,2.1,4.800000000000001,1.8,11.4,22.900000000000002,10.0,-32.9,16
124,2066.0,1.3,-2.0,1.9000000000000001,3.5,0.8,10.600000000000001,34.300000000000004,-10.1,-43.300000000000004,16
125,2083.0,0.7000000000000001,-2.4000000000000004,1.2000000000000002,3.5,0.8,10.600000000000001,34.300000000000004,-10.1,-43.300000000000004,16
126,2100.0,0.6000000000000001,-2.7,0.1,3.4000000000000004,0.8,8.4,38.6,-83.0,-41.0,16
127,2116.0,1.2000000000000002,-1.8,-1.4000000000000001,4.1000000000000005,1.8,7.2,32.300000000000004,-86.7,-36.2,16
128,2133.0,1.1,-1.1,-1.9000000000000001,4.1000000000000005,3.1,6.5,32.300000000000004,-86.7,-36.2,16
129,2150.0,1.0,0.2,-2.2,4.1000000000000005,3.9000000000000004,6.5,8.4,-23.900000000000002,-6.3,16
130,2166.0,0.8,0.4,-2.2,3.8000000000000003,3.7,6.5,-10.3,2.4000000000000004,14.0,16
131,2183.0,0.4,-0.1,-2.2,3.2,2.8000000000000003,6.5,-30.9,16.3,30.599999999999998,16
132,2200.0,-0.30000000000000004,-0.9,-2.1,2.6,2.1,6.800000000000001,-46.300000000000004,16.3,39.400000000000006,16
133,2216.0,-0.9,-1.7000000000000002,-1.8,2.1,1.2000000000000002,6.9,-58.2,-1.4,41.0,16
134,2233.0,-1.2000000000000002,-2.1,-2.2,1.8,0.7000000000000001,5.800000000000001,-60.1,-16.2,40.4,16
135,2250.0,-1.5,-1.5,-3.7,1.6,1.6,5.1000000000000005,-66.4,-12.4,43.6,16
136,2267.0,-1.9000000000000001,-0.2,-3.5,1.4000000000000001,2.1,5.300000000000001,-70.39999999999999,5.500000000000001,53.300000000000004,16
137,2283.0,-2.0,-0.4,-3.3000000000000003,1.3,1.5,5.7,-69.7,20.4,68.7,16
138,2300.0,-1.8,-1.0,-2.8000000000000003,1.6,0.6000000000000001,6.2,-65.0,23.400000000000002,77.3,16
139,2317.0,-1.3,-1.8,-2.3000000000000003,2.1,-0.1,6.6000000000000005,-59.1,20.0,71.7,16
140,2333.0,-0.6000000000000001,-1.6,-2.3000000000000003,3.1,-0.1,6.9,-54.0,17.9,57.2,16
141,2350.0,-0.2,-1.3,-1.4000000000000001,2.9000000000000004,0.0,8.0,-47.1,29.300000000000004,43.900000000000006,16
142,2366.0,-0.4,-1.2000000000000002,-0.4,2.9000000000000004,0.0,8.0,-47.1,29.300000000000004,43.900000000000006,16
143,2383.0,-0.2,-1.2000000000000002,0.1,3.3000000000000003,0.1,9.0,-13.4,29.000000000000004,27.7,16
144,2400.0,1.0,-0.7000000000000001,0.2,4.0,0.30000000000000004,9.5,0.9,30.7,19.9,16
145,2417.0,1.3,-0.7000000000000001,0.8,4.0,0.30000000000000004,9.5,0.9,30.7,19.9,16
146,2433.0,0.7000000000000001,-1.0,2.0,3.5,0.2,11.100000000000001,35.3,40.1,9.9,16
147,2450.0,0.9,-1.0,2.2,3.6,0.2,11.700000000000001,39.00000000000001,45.1,10.8,16
148,2467.0,1.1,-1.0,3.1,3.6,0.2,11.700000000000001,39.00000000000001,45.1,10.8,16
149,2483.0,1.3,-1.1,4.6000000000000005,4.0,0.5,13.8,39.699999999999996,18.3,1.9,16
150,2500.0,2.3000000000000003,0.1,4.6000000000000005,4.9,1.8,13.5,48.400000000000006,-5.4,-10.4,16
151,2517.0,2.6,0.9,3.4000000000000004,4.2,3.1,10.0,47.900000000000006,-21.1,-14.3,16
152,2533.0,1.1,1.9000000000000001,0.2,3.7,3.5,10.600000000000001,24.5,49.5,11.8,16
153,2550.0,0.9,0.6000000000000001,4.3,2.9000000000000004,1.9000000000000001,14.200000000000001,-0.2,93.3,44.00000000000001,16
154,2566.0,-0.2,-1.2000000000000002,6.6000000000000005,1.6,-1.0,17.6,-5.0,69.7,56.900000000000006,16
155,2583.0,0.5,-3.6,8.1,3.3000000000000003,-2.1,16.5,24.7,3.3000000000000003,39.300000000000004,16
156,2600.0,2.1,-3.7,3.3000000000000003,4.2,-1.9000000000000001,12.3,55.2,-46.6,-0.5,16
157,2617.0,1.8,-3.3000000000000003,0.9,3.5,-0.8,9.4,66.1,-52.0,-36.0,16
158,2633.0,0.0,-2.0,-0.8,2.1,0.4,8.3,70.8,-35.7,-48.6,16
159,2650.0,-1.3,-1.2000000000000002,-1.6,1.0,1.2000000000000002,7.7,75.80000000000001,-5.4,-42.300000000000004,16
160,2666.0,-1.7000000000000002,-0.9,-1.7000000000000002,0.30000000000000004,1.9000000000000001,7.4,74.10000000000001,19.8,-25.3,16
161,2683.0,-2.2,-0.6000000000000001,-1.7000000000000002,0.2,2.2,7.5,56.800000000000004,22.900000000000002,-7.400000000000001,16
162,2701.0,-1.8,-0.5,-1.6,0.2,2.2,7.5,56.800000000000004,22.900000000000002,-7.400000000000001,16
163,2716.0,-1.6,-0.4,-1.3,0.8,2.5,7.7,3.1,-41.300000000000004,5.0,16
164,2733.0,-1.2000000000000002,-0.30000000000000004,-1.7000000000000002,1.4000000000000001,2.5,7.300000000000001,-15.2,-68.1,6.1000000000000005,16
165,2750.0,-0.8,-0.2,-1.7000000000000002,1.4000000000000001,2.5,7.300000000000001,-15.2,-68.1,6.1000000000000005,16
166,2766.0,-0.9,-0.5,-2.8000000000000003,2.2,2.2,6.300000000000001,-15.8,-57.400000000000006,11.2,16
167,2784.0,-0.6000000000000001,-0.4,-2.8000000000000003,2.4000000000000004,2.3000000000000003,5.9,-1.0999999999999999,-46.6,13.8,16
168,2800.0,-0.6000000000000001,-0.4,-3.2,2.3000000000000003,2.3000000000000003,5.5,7.0,-34.50000000000001,14.100000000000001,16
169,2817.0,-0.9,-0.2,-3.2,2.2,2.5,5.7,3.6,-33.800000000000004,15.7,16
170,2833.0,-0.5,0.1,-3.0,2.8000000000000003,2.8000000000000003,5.800000000000001,-5.6,-40.9,16.5,16
171,2850.0,-0.6000000000000001,0.2,-2.7,2.7,2.6,6.4,-17.7,-50.4,14.500000000000002,16
172,2867.0,-0.5,0.0,-1.9000000000000001,3.1,2.4000000000000004,6.800000000000001,-25.5,-59.400000000000006,12.6,16
173,2884.0,-0.2,-0.30000000000000004,-1.6,3.6,2.2,7.0,-30.200000000000003,-61.199999999999996,7.0,16
174,2900.0,0.1,-0.2,-1.3,3.9000000000000004,2.1,7.4,-31.0,-54.9,0.0,16
175,2916.0,0.2,-0.30000000000000004,-0.7000000000000001,4.2,2.0,7.9,-23.5,-44.6,-3.7000000000000006,16
176,2933.0,0.2,-0.30000000000000004,-0.5,4.2,1.9000000000000001,8.1,-14.4,-34.1,-10.5,16
177,2950.0,0.30000000000000004,-0.2,-0.4,4.5,2.4000000000000004,7.9,-6.000000000000001,-22.8,-18.0,16
178,2966.0,0.1,0.6000000000000001,-0.4,4.2,3.0,8.200000000000001,-6.5,-5.7,-20.4,16
179,2983.0,0.0,0.8,0.0,4.2,3.0,8.200000000000001,-6.5,-5.7,-20.4,16
180,3000.0,0.4,0.6000000000000001,1.2000000000000002,4.5,2.5,10.3,-31.5,24.6,-2.1999999999999997,16
181,3017.0,0.5,-0.4,3.5,4.5,1.6,12.5,-42.0,21.1,-4.7,16
182,3033.0,0.6000000000000001,-0.7000000000000001,4.7,4.5,1.6,12.5,-42.0,21.1,-4.7,16
183,3050.0,0.8,0.30000000000000004,4.800000000000001,4.7,2.9000000000000004,12.700000000000001,-12.4,-6.8,-36.6,16
184,3066.0,0.7000000000000001,1.1,3.6,4.7,2.9000000000000004,12.700000000000001,-12.4,-6.8,-36.6,16
185,3083.0,0.30000000000000004,2.3000000000000003,1.7000000000000002,3.8000000000000003,4.3,10.3,-13.100000000000001,21.8,-32.1,16
186,3100.0,-0.4,1.5,1.9000000000000001,3.3000000000000003,3.0,10.9,-30.299999999999997,28.8,-12.5,16
187,3116.0,-0.5,-0.6000000000000001,2.9000000000000004,3.2,1.2000000000000002,11.8,-38.1,26.200000000000003,0.4,16
188,3133.0,-0.30000000000000004,-1.5,3.3000000000000003,3.7,0.0,12.0,-29.900000000000006,10.5,0.9,16
189,3150.0,0.30000000000000004,-2.1,2.3000000000000003,4.2,-0.2,10.600000000000001,-10.1,-3.7000000000000006,-8.5,16
190,3166.0,0.8,-1.8,0.0,4.5,0.1,8.700000000000001,3.9,-7.2,-19.0,16
191,3183.0,0.7000000000000001,-1.5,-0.9,4.3,0.6000000000000001,7.5,6.9,2.1999999999999997,-23.900000000000002,16
192,3200.0,0.6000000000000001,-0.9,-1.8,4.2,1.1,7.0,2.8,16.900000000000002,-23.0,16
193,3216.0,0.2,-0.6000000000000001,-1.7000000000000002,3.7,1.4000000000000001,7.2,2.8,16.900000000000002,-23.0,16
194,3233.0,0.1,-0.4,-1.7000000000000002,3.3000000000000003,1.5,7.4,-8.200000000000001,46.5,-4.800000000000001,16
195,3250.0,-0.30000000000000004,-0.5,-1.2000000000000002,3.0,1.3,7.9,-15.299999999999999,54.800000000000004,8.4,16
196,3266.0,-0.30000000000000004,-0.7000000000000001,-0.9,3.0,1.3,7.9,-15.299999999999999,54.800000000000004,8.4,16
197,3283.0,-0.4,-1.2000000000000002,0.0,2.7,0.30000000000000004,9.4,-35.1,36.4,18.5,16
198,3300.0,-0.4,-1.5,0.6000000000000001,2.6,0.1,9.700000000000001,-34.50000000000001,13.100000000000001,15.6,16
199,3317.0,-0.4,-1.5,0.4,2.6,0.1,9.700000000000001,-34.50000000000001,13.100000000000001,15.6,16
200,3333.0,-0.4,-1.2000000000000002,-0.6000000000000001,2.7,0.30000000000000004,8.1,-12.8,-16.8,12.3,16
201,3350.0,-0.30000000000000004,-0.9,-1.8,2.9000000000000004,0.5,7.2,-3.5,-15.2,13.5,16
202,3367.0,-0.2,-0.8,-2.2,2.9000000000000004,0.7000000000000001,6.6000000000000005,1.8,-7.2,14.900000000000002,16
203,3383.0,-0.4,-0.6000000000000001,-2.6,2.7,0.7000000000000001,6.7,3.1,1.4,16.900000000000002,16
204,3400.0,-0.5,-0.6000000000000001,-2.0,2.7,0.7000000000000001,7.1000000000000005,4.2,2.7,17.3,16
205,3416.0,-0.4,-0.6000000000000001,-1.9000000000000001,2.8000000000000003,0.8,7.1000000000000005,3.6,-1.7,14.700000000000001,16
206,3433.0,-0.30000000000000004,-0.4,-2.0,2.8000000000000003,1.0,7.0,0.1,-3.9,11.8,16
207,3450.0,-0.4,-0.1,-1.9000000000000001,2.8000000000000003,1.2000000000000002,7.2,-4.0,-2.9,11.3,16
208,3467.0,-0.4,-0.1,-1.7000000000000002,2.8000000000000003,1.3,7.5,-5.300000000000001,0.1,13.200000000000001,16
209,3483.0,-0.30000000000000004,0.1,-1.1,2.8000000000000003,1.4000000000000001,8.200000000000001,-3.1,4.3999999999999995,15.8,16
210,3500.0,-0.2,0.1,-0.30000000000000004,3.0,1.4000000000000001,8.8,3.7000000000000006,7.6,18.5,16
211,3516.0,-0.1,0.2,0.0,3.2,1.6,9.200000000000001,12.700000000000001,7.9,18.400000000000002,16
212,3533.0,0.2,0.6000000000000001,0.4,3.3000000000000003,2.0,9.4,19.9,8.0,18.0,16
213,3550.0,0.2,0.9,0.4,3.3000000000000003,2.5,9.4,20.2,12.6,19.700000000000003,16
214,3566.0,0.1,1.4000000000000001,0.6000000000000001,3.2,2.8000000000000003,10.100000000000001,10.700000000000001,21.400000000000002,25.5,16
215,3583.0,0.1,1.4000000000000001,2.2,3.1,2.7,11.8,3.3000000000000003,25.8,30.7,16
216,3600.0,0.1,1.3,3.4000000000000004,3.1,2.7,11.8,3.3000000000000003,25.8,30.7,16
217,3616.0,0.7000000000000001,1.8,4.0,3.8000000000000003,3.4000000000000004,12.600000000000001,25.8,11.9,25.700000000000003,16
218,3633.0,1.1,2.5,2.3000000000000003,4.0,4.0,11.5,26.8,22.4,30.000000000000004,16
219,3650.0,1.2000000000000002,2.5,2.3000000000000003,3.9000000000000004,3.5,12.100000000000001,10.9,46.900000000000006,44.9,16
220,3667.0,0.7000000000000001,0.9,3.9000000000000004,3.3000000000000003,1.5,13.8,-3.9,59.00000000000001,61.599999999999994,16
221,3683.0,0.5,-0.5,4.9,3.3000000000000003,-0.8,15.200000000000001,-3.4,41.7,66.3,16
222,3700.0,1.0,-2.8000000000000003,6.0,3.9000000000000004,-1.9000000000000001,14.700000000000001,13.3,-3.0000000000000004,50.4,16
223,3716.0,1.4000000000000001,-3.1,3.6,4.1000000000000005,-1.6,12.0,28.400000000000002,-40.9,25.5,16
224,3733.0,1.4000000000000001,-2.5,0.6000000000000001,4.2,-1.0,9.8,29.200000000000003,-55.800000000000004,8.0,16
225,3750.0,1.2000000000000002,-2.2,-0.1,4.0,-0.5,8.9,23.400000000000002,-46.5,-2.1,16
226,3766.0,0.7000000000000001,-1.8,-0.5,3.6,-0.30000000000000004,8.8,21.5,-24.200000000000003,-5.6,16
227,3783.0,0.4,-1.8,-0.5,3.2,-0.2,8.9,21.5,-24.200000000000003,-5.6,16
228,3800.0,-0.2,-1.7000000000000002,-0.30000000000000004,2.9000000000000004,0.0,8.700000000000001,32.5,8.5,-6.4,16
229,3816.0,-0.4,-1.4000000000000001,-0.9,2.6,0.30000000000000004,8.1,35.1,9.0,-6.5,16
230,3834.0,-0.5,-1.3,-1.3,2.6,0.30000000000000004,8.1,35.1,9.0,-6.5,16
231,3851.0,-0.8,-1.2000000000000002,-2.0,2.2,0.7000000000000001,6.9,25.8,-8.0,-7.2,16
232,3866.0,-1.0,-1.1,-2.6,2.1,0.9,6.300000000000001,20.2,-21.0,-7.300000000000001,16
233,3883.0,-1.0,-1.0,-3.1,2.1,0.9,6.300000000000001,20.2,-21.0,-7.300000000000001,16
234,3900.0,-0.9,-0.8,-3.9000000000000004,2.4000000000000004,1.2000000000000002,4.9,8.5,-31.3,-4.1000000000000005,16
235,3917.0,-0.8,-0.7000000000000001,-4.4,2.4000000000000004,1.4000000000000001,4.6000000000000005,1.4,-23.700000000000003,-1.4,16
236,3934.0,-1.0,-0.5,-4.1000000000000005,2.3000000000000003,1.6,5.0,-4.6000000000000005,-10.3,3.0000000000000004,16
237,3950.0,-1.1,-0.4,-3.6,2.2,1.5,5.4,-6.2,-0.7,7.6,16
238,3967.0,-1.1,-0.5,-3.1,2.2,1.5,5.800000000000001,-7.6,6.4,10.0,16
239,3983.0,-1.2000000000000002,-0.5,-2.8000000000000003,2.1,1.2000000000000002,6.6000000000000005,-9.5,11.700000000000001,11.000000000000002,16
240,4000.0,-1.3,-0.8,-1.4000000000000001,2.0,1.0,7.800000000000001,-8.1,11.5,9.200000000000001,16
241,4016.0,-1.1,-1.0,-0.4,2.2,0.9,8.5,-0.2,6.6000000000000005,5.2,16
242,4033.0,-0.9,-0.8,-0.4,2.6,1.3,8.1,9.8,-0.5,-1.2000000000000002,16
243,4050.0,-0.4,-0.1,-1.3,2.8000000000000003,2.0,7.4,9.3,-4.1000000000000005,-7.1000000000000005,16
244,4067.0,-0.5,0.30000000000000004,-1.5,2.8000000000000003,2.5,7.300000000000001,-1.8,-2.3000000000000003,-6.7,16
245,4083.0,-0.30000000000000004,0.9,-1.4000000000000001,3.0,2.9000000000000004,7.800000000000001,-18.6,10.4,-1.3,16
246,4100.0,-0.30000000000000004,0.9,0.1,2.9000000000000004,2.6,9.5,-36.2,28.6,5.8,16
247,4116.0,-0.30000000000000004,0.7000000000000001,1.4000000000000001,2.9000000000000004,2.6,9.5,-36.2,28.6,5.8,16
248,4133.0,0.0,0.2,4.5,3.1,1.8,14.4,-41.6,35.9,-1.2000000000000002,16
249,4150.0,0.30000000000000004,0.5,6.4,3.2,2.3000000000000003,15.5,-21.400000000000002,18.2,-25.6,16
250,4167.0,0.5,1.3,6.5,3.2,2.3000000000000003,15.5,-21.400000000000002,18.2,-25.6,16
251,4183.0,-0.4,4.2,3.9000000000000004,2.2,6.5,11.9,26.1,8.3,-64.7,16
252,4200.0,-0.9,5.0,1.8,1.7000000000000002,6.6000000000000005,11.100000000000001,11.3,27.400000000000002,-35.0,16
253,4216.0,-1.1,4.2,2.3000000000000003,1.4000000000000001,4.4,12.600000000000001,-11.2,37.900000000000006,7.8,16
254,4233.0,-1.1,0.6000000000000001,4.4,1.8,1.4000000000000001,13.8,-11.1,26.400000000000002,36.3,16
255,4250.0,0.30000000000000004,-1.9000000000000001,4.2,2.9000000000000004,-0.2,13.3,4.6000000000000005,-0.7,42.2,16
256,4266.0,0.6000000000000001,-2.4000000000000004,3.1,3.4000000000000004,-0.8,11.200000000000001,21.400000000000002,-29.400000000000002,31.5,16
257,4283.0,1.0,-2.6,0.30000000000000004,3.8000000000000003,-0.7000000000000001,8.9,25.400000000000002,-50.2,21.5,16
258,4300.0,1.3,-2.1,-2.0,4.2,-0.2,7.1000000000000005,20.7,-56.5,15.9,16
259,4316.0,1.4000000000000001,-1.8,-2.7,4.4,0.2,6.2,9.8,-41.800000000000004,16.400000000000002,16
260,4333.0,1.3,-1.4000000000000001,-2.9000000000000004,4.4,0.4,6.5,-2.6,-11.6,22.1,16
261,4350.0,1.1,-1.4000000000000001,-1.8,4.2,0.30000000000000004,7.4,-2.6,-11.6,22.1,16
262,4367.0,0.9,-1.5,-1.2000000000000002,3.7,0.0,8.4,-15.6,40.4,32.300000000000004,16
263,4383.0,0.30000000000000004,-1.8,0.0,3.2,-0.30000000000000004,9.3,-14.900000000000002,48.6,34.900000000000006,16
264,4400.0,0.1,-1.8,0.2,3.2,-0.30000000000000004,9.3,-14.900000000000002,48.6,34.900000000000006,16
265,4416.0,0.30000000000000004,-1.7000000000000002,-0.2,3.1,-0.2,8.9,-15.7,25.3,32.6,16
266,4433.0,0.4,-1.5,-0.7000000000000001,3.2,-0.1,8.5,-23.1,6.3,28.0,16
267,4450.0,0.5,-1.4000000000000001,-1.0,3.2,-0.1,8.5,-23.1,6.3,28.0,16
268,4467.0,0.6000000000000001,-1.2000000000000002,-1.6,3.5,-0.1,7.6000000000000005,-30.7,-13.200000000000001,18.3,16
269,4483.0,0.7000000000000001,-1.1,-1.9000000000000001,3.5,-0.1,7.300000000000001,-29.600000000000005,-10.2,12.200000000000001,16
270,4500.0,0.6000000000000001,-1.1,-1.9000000000000001,3.3000000000000003,-0.2,7.4,-25.700000000000003,-2.6,4.5,16
271,4517.0,0.2,-1.1,-1.4000000000000001,3.1,-0.30000000000000004,8.0,-15.000000000000002,4.300000000000001,-3.6,16
272,4533.0,0.1,-1.0,-1.2000000000000002,3.0,-0.1,7.9,1.5000000000000002,8.4,-13.8,16
273,4550.0,0.1,-0.8,-1.6,2.8000000000000003,0.30000000000000004,7.4,14.500000000000002,14.900000000000002,-23.700000000000003,16
274,4566.0,-0.30000000000000004,-0.30000000000000004,-1.9000000000000001,2.3000000000000003,0.8,7.4,19.0,24.200000000000003,-29.400000000000002,16
275,4583.0,-0.5,-0.1,-1.8,2.0,1.2000000000000002,7.6000000000000005,20.3,28.3,-30.200000000000003,16
276,4600.0,-0.8,0.2,-1.5,1.7000000000000002,1.5,7.9,20.8,27.400000000000002,-27.400000000000002,16
277,4616.0,-0.8,0.5,-1.2000000000000002,1.8,1.8,7.9,20.6,24.8,-22.1,16
278,4633.0,-0.6000000000000001,0.6000000000000001,-1.3,1.9000000000000001,2.1,8.0,15.000000000000002,23.0,-16.6,16
279,4650.0,-0.5,0.9,-1.1,1.8,2.3000000000000003,8.5,5.0,21.700000000000003,-10.8,16
280,4667.0,-0.6000000000000001,0.9,-0.1,1.6,2.2,9.5,-3.7000000000000006,24.8,-2.4000000000000004,16
281,4683.0,-0.7000000000000001,0.9,0.7000000000000001,1.6,2.2,9.5,-3.7000000000000006,24.8,-2.4000000000000004,16
282,4700.0,-0.7000000000000001,0.7000000000000001,2.3000000000000003,1.6,2.0,12.0,-3.7000000000000006,25.3,14.4,16
283,4716.0,-0.2,0.7000000000000001,3.1,2.0,2.1,12.3,4.5,12.000000000000002,17.599999999999998,16
284,4734.0,0.1,1.0,2.8000000000000003,2.0,2.1,12.3,4.5,12.000000000000002,17.599999999999998,16
285,4750.0,0.9,1.7000000000000002,1.4000000000000001,3.2,3.2,10.5,1.4,-4.5,22.4,16
286,4766.0,1.2000000000000002,2.1,1.2000000000000002,3.3000000000000003,3.4000000000000004,11.0,-18.8,15.2,32.2,16
287,4783.0,1.0,1.9000000000000001,2.2,2.5,2.3000000000000003,13.200000000000001,-38.800000000000004,40.8,47.300000000000004,16
288,4800.0,-0.30000000000000004,-0.1,5.6000000000000005,1.4000000000000001,0.0,16.1,-35.3,49.8,61.599999999999994,16
289,4817.0,-0.4,-2.6,7.7,1.6,-1.9000000000000001,17.0,-5.300000000000001,26.6,62.8,16
290,4834.0,0.1,-3.3000000000000003,6.7,2.3000000000000003,-2.3000000000000003,14.600000000000001,34.1,-17.5,39.50000000000001,16
291,4850.0,0.4,-2.9000000000000004,2.8000000000000003,2.1,-1.4000000000000001,11.3,56.7,-43.900000000000006,8.799999999999999,16
292,4870.0,-0.5,-1.5,-0.6000000000000001,1.6,-0.1,8.8,59.9,-43.1,-8.799999999999999,16
293,4883.0,-0.9,-0.9,-1.3,1.0,0.8,8.0,51.900000000000006,-19.0,-8.9,16
294,4900.0,-1.7000000000000002,-0.2,-1.4000000000000001,0.30000000000000004,1.4000000000000001,8.4,43.6,12.5,2.7,16
295,4916.0,-2.3000000000000003,-0.1,-0.30000000000000004,-0.30000000000000004,1.6,9.200000000000001,39.9,30.9,18.2,16
296,4933.0,-2.4000000000000004,-0.1,-0.2,-0.30000000000000004,1.6,9.1,37.6,25.900000000000002,31.3,16
297,4950.0,-2.0,-0.2,-0.7000000000000001,0.2,1.6,8.6,31.8,6.5,38.800000000000004,16
298,4968.0,-1.6,-0.1,-1.1,0.2,1.6,8.6,31.8,6.5,38.800000000000004,16
299,4983.0,-1.2000000000000002,-0.1,-2.2,1.0,1.8,6.9,14.900000000000002,-29.500000000000004,40.1,16
300,5000.0,-0.9,-0.1,-2.8000000000000003,1.3,1.7000000000000002,6.4,8.3,-37.0,41.300000000000004,16
301,5017.0,-0.8,-0.2,-3.2,1.3,1.7000000000000002,6.4,8.3,-37.0,41.300000000000004,16
302,5033.0,-0.6000000000000001,-0.2,-3.4000000000000004,1.9000000000000001,1.6,5.9,-0.9,-24.8,43.900000000000006,16
303,5050.0,-0.5,-0.30000000000000004,-3.0,1.9000000000000001,1.4000000000000001,6.4,-3.7000000000000006,-12.9,44.1,16
304,5067.0,-0.6000000000000001,-0.4,-2.6,1.8,1.2000000000000002,7.0,-4.0,-3.1,42.300000000000004,16
305,5083.0,-0.8,-0.6000000000000001,-1.8,1.6,1.1,7.7,-2.7,2.1999999999999997,38.2,16
306,5101.0,-1.0,-0.6000000000000001,-1.2000000000000002,1.3,1.1,8.8,2.4000000000000004,3.6,34.1,16
307,5117.0,-1.3,-0.5,-0.1,1.3,1.2000000000000002,9.1,12.4,0.4,30.000000000000004,16
308,5133.0,-1.1,-0.30000000000000004,-0.30000000000000004,1.5,1.4000000000000001,8.9,18.400000000000002,-2.1,26.0,16
309,5150.0,-0.9,-0.1,-0.30000000000000004,1.7000000000000002,1.7000000000000002,8.9,19.400000000000002,-3.2,21.400000000000002,16
310,5166.0,-0.8,0.0,-0.1,1.9000000000000001,1.9000000000000001,9.1,21.900000000000002,-4.2,15.6,16
311,5183.0,-0.5,0.30000000000000004,-0.2,2.1,2.3000000000000003,8.700000000000001,25.700000000000003,-5.8,10.3,16
312,5200.0,-0.4,0.6000000000000001,-0.6000000000000001,2.1,2.3000000000000003,8.700000000000001,25.700000000000003,-5.8,10.3,16
313,5217.0,0.0,0.9,-0.9,2.7,2.9000000000000004,8.4,10.1,-0.8,8.200000000000001,16
314,5233.0,0.2,0.9,-0.1,2.7,2.9000000000000004,8.4,10.1,-0.8,8.200000000000001,16
315,5250.0,0.30000000000000004,0.7000000000000001,0.7000000000000001,2.9000000000000004,2.7,9.4,-4.1000000000000005,7.9,11.4,16
316,5266.0,0.7000000000000001,0.4,2.7,3.3000000000000003,2.3000000000000003,12.3,-11.4,5.9,5.8,16
317,5283.0,0.9,0.6000000000000001,3.7,3.6,2.5,12.9,1.2000000000000002,-5.0,-6.000000000000001,16
318,5300.0,1.1,0.7000000000000001,3.8000000000000003,3.6,2.5,12.9,1.2000000000000002,-5.0,-6.000000000000001,16
319,5316.0,1.0,2.1,2.3000000000000003,3.6,4.5,10.8,26.3,-18.6,-35.7,16
320,5333.0,0.7000000000000001,3.0,0.9,3.3000000000000003,5.0,10.200000000000001,14.900000000000002,-9.0,-27.2,16
321,5350.0,0.4,2.7,1.3,2.8000000000000003,3.7,11.5,-4.1000000000000005,7.500000000000001,-1.0999999999999999,16
322,5366.0,-0.1,0.0,4.0,2.6,1.1,13.5,-3.0000000000000004,6.7,17.599999999999998,16
323,5383.0,0.6000000000000001,-2.4000000000000004,4.1000000000000005,3.2,-0.4,13.200000000000001,15.6,-5.8,20.4,16
324,5401.0,0.5,-2.8000000000000003,3.5,3.1,-0.8,11.5,35.0,-33.2,4.9,16
325,5416.0,0.4,-2.9000000000000004,0.7000000000000001,3.2,-0.4,9.0,44.3,-57.6,-12.6,16
326,5433.0,0.2,-2.0,-2.3000000000000003,3.3000000000000003,0.5,6.5,42.2,-68.1,-22.7,16
327,5450.0,0.2,-1.4000000000000001,-3.3000000000000003,3.4000000000000004,1.5,5.0,27.3,-56.300000000000004,-22.3,16
328,5467.0,0.30000000000000004,-0.5,-4.2,3.5,2.1,4.9,3.2,-26.500000000000004,-13.0,16
329,5483.0,0.2,-0.30000000000000004,-3.8000000000000003,3.2,2.1,6.0,3.2,-26.500000000000004,-13.0,16
330,5500.0,-0.2,-0.30000000000000004,-2.4000000000000004,2.8000000000000003,1.9000000000000001,7.1000000000000005,-34.800000000000004,34.0,13.9,16
331,5517.0,-0.7000000000000001,-0.7000000000000001,-1.2000000000000002,2.3000000000000003,1.4000000000000001,8.0,-43.2,51.300000000000004,26.200000000000003,16
332,5534.0,-0.9,-0.9,-0.8,2.3000000000000003,1.4000000000000001,8.0,-43.2,51.300000000000004,26.200000000000003,16
333,5550.0,-0.8,-1.3,0.1,2.0,0.5,9.4,-54.800000000000004,41.800000000000004,37.0,16
334,5566.0,-0.7000000000000001,-1.5,0.4,2.1,0.2,9.5,-55.1,19.3,32.7,16
335,5583.0,-0.6000000000000001,-1.4000000000000001,0.2,2.1,0.2,9.5,-55.1,19.3,32.7,16
336,5600.0,-0.30000000000000004,-1.1,-0.6000000000000001,2.6,0.4,8.4,-45.3,-11.2,19.700000000000003,16
337,5616.0,-0.30000000000000004,-0.9,-1.1,2.5,0.4,8.1,-37.1,-11.9,12.5,16
338,5633.0,-0.4,-0.8,-1.1,2.4000000000000004,0.4,8.0,-22.4,-6.7,5.0,16
339,5650.0,-0.5,-0.6000000000000001,-1.5,2.4000000000000004,0.7000000000000001,7.5,-2.7,3.5,-2.0,16
340,5666.0,-0.4,0.0,-1.9000000000000001,2.4000000000000004,1.2000000000000002,7.2,12.200000000000001,15.299999999999999,-7.2,16
341,5683.0,-0.4,0.2,-2.0,2.4000000000000004,1.7000000000000002,7.1000000000000005,18.400000000000002,23.700000000000003,-9.8,16
342,5700.0,-0.4,0.8,-2.1,2.3000000000000003,2.1,7.1000000000000005,15.299999999999999,23.1,-9.5,16
343,5717.0,-0.30000000000000004,1.0,-1.8,2.4000000000000004,2.4000000000000004,7.4,7.500000000000001,17.3,-6.9,16
344,5733.0,-0.2,1.1,-1.6,2.6,2.5,7.9,-0.7,12.100000000000001,-1.9,16
345,5750.0,0.30000000000000004,1.1,-0.7000000000000001,3.0,2.4000000000000004,8.8,-5.4,11.2,5.0,16
346,5766.0,0.9,0.9,0.30000000000000004,3.5,2.2,9.600000000000001,-4.5,10.5,8.700000000000001,16
347,5783.0,1.2000000000000002,0.7000000000000001,0.8,3.9000000000000004,1.8,10.600000000000001,-0.5,8.700000000000001,7.0,16
348,5800.0,1.4000000000000001,0.30000000000000004,2.4000000000000004,4.0,1.6,11.8,9.700000000000001,3.4,1.0,16
349,5817.0,1.4000000000000001,0.30000000000000004,2.8000000000000003,4.0,2.0,11.700000000000001,24.1,0.5,-7.500000000000001,16
350,5833.0,1.4000000000000001,0.8,2.1,3.8000000000000003,2.5,11.3,28.200000000000003,5.9,-11.3,16
351,5850.0,1.0,1.1,2.5,3.5,2.7,11.9,26.200000000000003,12.000000000000002,-11.4,16
352,5867.0,0.9,1.1,3.0,3.5,2.7,11.9,26.200000000000003,12.000000000000002,-11.4,16
353,5883.0,1.0,1.2000000000000002,3.2,3.5,3.1,12.100000000000001,42.2,7.8,-15.000000000000002,16
354,5900.0,1.2000000000000002,1.4000000000000001,2.0,3.8000000000000003,3.5,11.100000000000001,47.5,3.2,-20.7,16
355,5917.0,1.5,1.9000000000000001,1.4000000000000001,3.9000000000000004,4.3,10.600000000000001,42.0,6.8,-27.6,16
356,5933.0,1.2000000000000002,2.3000000000000003,1.7000000000000002,3.2,4.5,11.4,31.2,17.200000000000003,-29.900000000000006,16
357,5950.0,-0.2,1.9000000000000001,3.2,1.9000000000000001,4.0,12.5,30.799999999999997,23.400000000000002,-24.5,16
358,5967.0,-0.9,1.2000000000000002,3.5,1.1,2.9000000000000004,12.5,42.300000000000004,20.900000000000002,-5.9,16
359,5983.0,-0.9,-0.6000000000000001,3.0,1.6,1.6,11.600000000000001,55.1,4.1000000000000005,9.0,16
360,6000.0,-0.4,-1.3,1.8,2.2,1.1,9.8,55.1,4.1000000000000005,9.0,16
361,6017.0,-0.1,-1.6,0.0,2.2,1.2000000000000002,8.3,40.1,-35.199999999999996,0.30000000000000004,16
362,6033.0,-0.2,-1.4000000000000001,-1.3,2.2,1.6,7.7,21.0,-43.900000000000006,-5.2,16
363,6050.0,-0.4,-1.1,-1.5,1.9000000000000001,2.0,7.5,21.0,-43.900000000000006,-5.2,16
364,6067.0,-0.9,-0.8,-1.5,1.4000000000000001,2.1,7.800000000000001,0.5,-10.5,5.9,16
365,6083.0,-1.5,-0.8,-1.0,1.0,2.1,8.0,-0.5,8.200000000000001,18.400000000000002,16
366,6100.0,-1.6,-0.7000000000000001,-1.0,1.0,2.1,8.0,-0.5,8.200000000000001,18.400000000000002,16
367,6116.0,-1.2000000000000002,-0.6000000000000001,-1.8,1.5,2.3000000000000003,7.0,-8.0,10.3,38.5,16
368,6133.0,-0.8,-0.4,-2.2,1.8,2.4000000000000004,6.800000000000001,-20.8,2.9,42.5,16
369,6150.0,-0.7000000000000001,-0.30000000000000004,-2.3000000000000003,1.8,2.4000000000000004,6.800000000000001,-20.8,2.9,42.5,16
370,6166.0,-0.4,-0.4,-2.7,2.2,2.2,6.0,-42.6,-10.1,45.7,16
371,6183.0,-0.2,-0.2,-3.4000000000000004,2.5,2.1,5.6000000000000005,-53.00000000000001,-9.700000000000001,46.300000000000004,16
372,6200.0,0.0,-0.30000000000000004,-3.5,2.5,2.1,5.6000000000000005,-53.00000000000001,-9.700000000000001,46.300000000000004,16
373,6216.0,0.30000000000000004,-0.5,-3.1,3.2,1.3,6.300000000000001,-66.60000000000001,6.3,36.6,16
374,6233.0,0.4,-0.7000000000000001,-2.0,3.1,1.0,7.300000000000001,-60.599999999999994,16.3,24.000000000000004,16
375,6250.0,0.2,-0.7000000000000001,-1.5,2.6,0.9,7.7,-44.6,26.6,9.4,16
376,6267.0,-0.30000000000000004,-0.5,-1.5,2.1,1.1,7.6000000000000005,-29.1,39.50000000000001,-4.1000000000000005,16
377,6283.0,-0.9,-0.2,-1.6,1.3,1.2000000000000002,7.6000000000000005,-21.900000000000002,51.2,-14.200000000000001,16
378,6300.0,-1.5,-0.2,-1.5,0.2,1.2000000000000002,7.800000000000001,-20.1,57.9,-16.1,16
379,6316.0,-2.7,-0.1,-1.3,-0.7000000000000001,1.3,7.9,-19.500000000000004,54.0,-8.0,16
380,6333.0,-2.7,0.30000000000000004,-2.2,-0.7000000000000001,1.7000000000000002,7.0,-20.5,48.50000000000001,4.800000000000001,16
381,6350.0,-2.6,0.7000000000000001,-2.7,-1.0,2.3000000000000003,6.300000000000001,-28.0,53.8,20.6,16
382,6367.0,-2.7,1.5,-3.4000000000000004,-0.8,2.6,5.7,-36.0,74.7,46.4,16
383,6383.0,-2.1,1.5,-3.8000000000000003,-0.8,2.6,5.7,-36.0,74.7,46.4,16
384,6400.0,-1.1,1.0,-3.8000000000000003,0.0,1.4000000000000001,6.4,-73.60000000000001,127.2,65.2,16
385,6416.0,-1.3,0.1,-1.6,-0.8,0.4,8.5,-103.5,142.4,58.9,16
386,6433.0,-1.6,-0.30000000000000004,-0.1,-0.8,0.4,8.5,-103.5,142.4,58.9,16
387,6450.0,-2.1,-0.5,4.1000000000000005,-2.2,-0.5,15.5,-131.9,137.70000000000002,39.50000000000001,16
388,6466.0,-1.6,0.4,8.700000000000001,-2.0,0.0,18.400000000000002,-110.8,92.10000000000001,27.900000000000002,16
389,6483.0,-1.2000000000000002,0.9,9.3,-2.0,0.0,18.400000000000002,-110.8,92.10000000000001,27.900000000000002,16
390,6500.0,-0.7000000000000001,0.30000000000000004,7.9,-1.5,-0.9,17.0,-58.2,9.600000000000001,26.9,16
391,6516.0,-0.5,-0.7000000000000001,7.0,-1.2000000000000002,-2.1,16.8,-47.6,3.0000000000000004,36.2,16
392,6533.0,-0.1,-1.8,7.4,-0.2,-3.9000000000000004,17.0,-20.3,3.1,43.7,16
393,6550.0,1.6,-3.3000000000000003,6.7,1.3,-4.5,15.8,23.8,-4.0,36.7,16
394,6567.0,3.0,-3.3000000000000003,4.2,2.3000000000000003,-4.2,13.600000000000001,73.60000000000001,-11.8,15.9,16
395,6583.0,3.3000000000000003,-3.0,2.4000000000000004,2.6,-3.5,10.600000000000001,110.8,-10.5,-7.500000000000001,16
396,6600.0,3.1,-2.5,-1.2000000000000002,2.4000000000000004,-2.6,8.0,117.30000000000001,1.2000000000000002,-27.400000000000002,16
397,6616.0,2.5,-1.6,-3.0,1.8,-1.7000000000000002,6.800000000000001,117.30000000000001,1.2000000000000002,-27.400000000000002,16
398,6633.0,2.1,-1.3,-3.2,0.9,-0.9,6.800000000000001,57.800000000000004,29.900000000000006,-48.2,16
399,6650.0,1.0,-0.7000000000000001,-2.4000000000000004,0.0,-0.5,7.6000000000000005,19.8,31.7,-46.2,16
400,6667.0,0.6000000000000001,-0.6000000000000001,-1.8,-0.5,-0.5,8.700000000000001,-11.700000000000001,25.400000000000002,-37.6,16
401,6683.0,0.4,-0.8,-0.4,-0.4,-0.9,9.8,-30.9,12.200000000000001,-28.400000000000002,16
402,6700.0,0.6000000000000001,-1.1,0.7000000000000001,-0.2,-1.2000000000000002,10.5,-34.0,-1.9,-23.2,16
403,6717.0,0.8,-1.2000000000000002,0.9,-0.2,-1.2000000000000002,10.5,-34.0,-1.9,-23.2,16
404,6733.0,1.2000000000000002,-1.2000000000000002,0.6000000000000001,0.5,-1.5,10.0,-3.7000000000000006,-21.900000000000002,-25.3,16
405,6750.0,1.3,-1.2000000000000002,-0.5,0.6000000000000001,-1.3,9.1,15.5,-23.700000000000003,-31.6,16
406,6766.0,1.3,-1.0,-1.0,0.6000000000000001,-1.3,9.1,15.5,-23.700000000000003,-31.6,16
407,6783.0,1.0,-0.7000000000000001,-2.0,0.4,-0.7000000000000001,7.4,40.0,-23.900000000000002,-43.6,16
408,6800.0,0.8,-0.4,-3.0,0.30000000000000004,-0.30000000000000004,6.6000000000000005,40.9,-22.6,-45.4,16
409,6817.0,0.8,-0.30000000000000004,-3.3000000000000003,0.4,0.0,6.2,33.6,-22.1,-45.0,16
410,6833.0,0.9,-0.1,-3.6,0.5,0.1,6.2,19.1,-22.5,-45.2,16
411,6850.0,0.9,-0.1,-3.2,0.6000000000000001,0.1,6.6000000000000005,3.3000000000000003,-24.5,-46.900000000000006,16
412,6866.0,0.8,-0.1,-2.8000000000000003,0.5,0.2,7.1000000000000005,-8.1,-27.1,-48.9,16
413,6883.0,0.6000000000000001,0.1,-2.3000000000000003,0.4,0.30000000000000004,7.5,-15.000000000000002,-25.700000000000003,-50.1,16
414,6900.0,0.30000000000000004,0.4,-1.6,0.1,0.5,8.200000000000001,-19.9,-21.0,-48.50000000000001,16
415,6916.0,0.0,0.4,-1.0,-0.1,0.4,9.200000000000001,-21.0,-19.0,-43.7,16
416,6933.0,-0.2,0.4,0.2,-0.2,0.30000000000000004,10.100000000000001,-15.6,-17.400000000000002,-38.1,16
417,6950.0,-0.2,0.30000000000000004,0.7000000000000001,-0.30000000000000004,0.2,10.8,-6.5,-9.4,-33.6,16
418,6966.0,-0.5,0.1,1.4000000000000001,-0.7000000000000001,0.0,11.4,-0.9,3.7000000000000006,-32.2,16
419,6983.0,-1.2000000000000002,0.2,2.2,-1.3,0.30000000000000004,12.0,0.0,14.4,-30.000000000000004,16
420,7000.0,-1.4000000000000001,0.5,2.6,-1.3,0.30000000000000004,12.0,0.0,14.4,-30.000000000000004,16
421,7016.0,-1.5,1.4000000000000001,2.9000000000000004,-1.7000000000000002,1.5,12.600000000000001,-5.2,14.3,-14.0,16
422,7033.0,-1.6,1.7000000000000002,2.9000000000000004,-1.8,1.6,12.8,-16.400000000000002,13.6,-0.8,16
423,7050.0,-1.6,1.7000000000000002,3.2,-1.8,1.6,12.8,-16.400000000000002,13.6,-0.8,16
424,7067.0,-2.1,1.2000000000000002,4.9,-2.7,0.5,15.3,-38.5,22.2,21.1,16
425,7083.0,-2.7,-0.4,6.6000000000000005,-2.8000000000000003,-0.9,16.5,-22.5,9.5,33.6,16
426,7100.0,-2.0,-1.3,6.7,-1.4000000000000001,-2.0,15.600000000000001,16.2,-18.8,38.1,16
427,7117.0,-0.5,-1.8,4.0,-0.6000000000000001,-2.0,12.600000000000001,56.800000000000004,-44.00000000000001,22.3,16
428,7133.0,-0.5,-1.7000000000000002,-0.2,-0.6000000000000001,-1.6,9.3,80.0,-54.2,6.5,16
429,7150.0,-0.7000000000000001,-1.3,-1.9000000000000001,-0.9,-0.5,7.0,75.60000000000001,-40.7,-3.5,16
430,7167.0,-1.4000000000000001,-0.4,-3.5,-1.7000000000000002,0.2,6.5,47.900000000000006,-10.0,-2.7,16
431,7183.0,-2.5,-0.1,-2.6,-2.5,0.4,7.4,15.100000000000001,16.1,9.600000000000001,16
432,7200.0,-2.8000000000000003,-0.1,-2.0,-2.8000000000000003,0.2,8.4,-11.8,26.400000000000002,28.8,16
433,7216.0,-2.3000000000000003,-0.5,-0.7000000000000001,-2.2,-0.2,9.3,-27.400000000000002,18.5,44.9,16
434,7233.0,-1.7000000000000002,-0.7000000000000001,-0.30000000000000004,-1.0,-0.5,9.5,-27.400000000000002,18.5,44.9,16
435,7250.0,-0.30000000000000004,-0.8,-0.6000000000000001,-0.1,-0.6000000000000001,8.8,-24.6,-25.0,49.1,16
436,7266.0,0.2,-0.9,-1.7000000000000002,0.30000000000000004,-0.6000000000000001,7.800000000000001,-15.100000000000001,-38.5,41.5,16
437,7283.0,0.30000000000000004,-0.8,-2.4000000000000004,0.5,-0.5,6.7,-15.100000000000001,-38.5,41.5,16
438,7300.0,0.4,-0.5,-3.5,0.7000000000000001,-0.2,6.0,-2.4000000000000004,-32.6,29.300000000000004,16
439,7316.0,0.4,-0.1,-4.1000000000000005,0.7000000000000001,0.0,5.7,-3.3000000000000003,-15.8,26.6,16
440,7333.0,0.4,0.0,-4.0,0.7000000000000001,0.0,5.7,-3.3000000000000003,-15.8,26.6,16
441,7350.0,0.2,-0.1,-2.9000000000000004,0.4,-0.1,7.2,-13.200000000000001,8.9,22.5,16
442,7366.0,-0.1,-0.1,-1.9000000000000001,0.1,-0.1,7.800000000000001,-12.8,8.0,19.400000000000002,16
443,7383.0,-0.4,-0.2,-1.7000000000000002,-0.30000000000000004,-0.2,8.0,-12.4,5.6,17.5,16
444,7400.0,-0.6000000000000001,-0.1,-1.4000000000000001,-0.4,-0.1,8.5,-18.8,6.2,16.3,16
445,7416.0,-0.8,0.0,-0.5,-0.6000000000000001,-0.1,9.200000000000001,-25.0,4.1000000000000005,15.000000000000002,16
446,7433.0,-0.8,0.1,-0.1,-0.7000000000000001,0.0,9.8,-25.2,-1.9,13.100000000000001,16
447,7450.0,-0.9,0.4,0.30000000000000004,-0.6000000000000001,0.2,10.0,-21.200000000000003,-7.8,10.4,16
448,7467.0,-0.8,0.6000000000000001,0.30000000000000004,-0.5,0.4,10.0,-21.200000000000003,-7.8,10.4,16
449,7483.0,-0.6000000000000001,0.8,0.4,-0.2,0.4,10.200000000000001,-17.5,-11.6,8.4,16
450,7500.0,-0.5,0.8,0.9,-0.2,0.4,10.600000000000001,-14.700000000000001,-8.200000000000001,5.9,16
451,7516.0,-0.4,0.9,1.3,-0.1,0.5,11.0,-12.3,0.0,4.1000000000000005,16
452,7533.0,-0.5,0.9,1.8,-0.4,0.2,12.100000000000001,-11.8,9.8,4.2,16
453,7550.0,-0.8,0.4,3.5,-0.6000000000000001,-0.1,13.5,-5.9,11.2,2.5,16
454,7566.0,-0.8,0.4,4.2,-0.6000000000000001,-0.1,13.5,-5.9,11.2,2.5,16
455,7583.0,-0.2,1.3,3.7,-0.1,1.2000000000000002,13.100000000000001,20.5,-13.100000000000001,-12.5,16
456,7600.0,-0.9,1.9000000000000001,2.3000000000000003,-0.7000000000000001,1.6,11.9,23.1,-14.500000000000002,-12.5,16
457,7616.0,-1.2000000000000002,1.9000000000000001,1.8,-0.7000000000000001,1.6,11.9,23.1,-14.500000000000002,-12.5,16
458,7633.0,-1.1,1.1,2.1,-0.7000000000000001,0.30000000000000004,12.200000000000001,-3.8,4.9,22.8,16
459,7650.0,-0.5,-0.4,3.2,0.0,-0.9,13.200000000000001,-9.0,7.500000000000001,37.1,16
460,7667.0,0.1,-1.1,3.8000000000000003,0.8,-1.9000000000000001,13.8,3.0000000000000004,-0.8,38.7,16
461,7683.0,1.0,-2.0,3.4000000000000004,1.4000000000000001,-2.2,12.700000000000001,29.700000000000003,-16.3,29.300000000000004,16
462,7700.0,1.2000000000000002,-2.0,2.4000000000000004,1.4000000000000001,-1.8,10.5,29.700000000000003,-16.3,29.300000000000004,16
463,7716.0,0.9,-1.5,-0.6000000000000001,1.2000000000000002,-1.2000000000000002,8.0,65.89999999999999,-24.8,13.8,16
464,7734.0,0.9,-0.9,-3.0,1.6,-0.6000000000000001,6.5,51.0,-10.700000000000001,18.8,16
465,7750.0,1.4000000000000001,-0.6000000000000001,-3.4000000000000004,1.9000000000000001,-0.30000000000000004,6.5,21.6,8.200000000000001,23.400000000000002,16
466,7767.0,1.5,-0.6000000000000001,-2.9000000000000004,1.9000000000000001,-0.4,7.5,-5.8,23.3,26.3,16
467,7783.0,1.3,-0.8,-1.3,1.7000000000000002,-0.7000000000000001,9.0,-20.3,33.7,29.600000000000005,16
468,7800.0,1.3,-0.9,-0.4,1.7000000000000002,-0.7000000000000001,9.0,-20.3,33.7,29.600000000000005,16
469,7816.0,1.2000000000000002,-1.2000000000000002,0.6000000000000001,1.3,-1.1,10.600000000000001,-13.3,38.7,30.7,16
470,7833.0,1.1,-1.3,0.7000000000000001,1.2000000000000002,-1.2000000000000002,10.3,0.9,31.5,27.2,16
471,7850.0,1.1,-1.2000000000000002,0.2,1.2000000000000002,-1.2000000000000002,10.3,0.9,31.5,27.2,16
472,7867.0,1.1,-0.8,-1.2000000000000002,1.1,-0.6000000000000001,8.200000000000001,17.3,16.5,14.0,16
473,7883.0,1.1,-0.6000000000000001,-2.1,1.1,-0.30000000000000004,7.7,11.8,13.0,7.6,16
474,7900.0,1.1,-0.4,-2.1,1.1,-0.30000000000000004,7.7,11.8,13.0,7.6,16
475,7916.0,1.0,-0.2,-1.8,0.8,0.1,8.1,4.7,-1.0,-5.300000000000001,16
476,7933.0,0.6000000000000001,0.0,-1.6,0.5,0.30000000000000004,8.1,9.9,-9.5,-11.5,16
477,7950.0,0.4,0.1,-1.8,0.30000000000000004,0.5,7.6000000000000005,17.7,-15.6,-15.000000000000002,16
478,7966.0,0.30000000000000004,0.5,-2.4000000000000004,0.4,0.9,7.300000000000001,20.900000000000002,-13.700000000000001,-15.000000000000002,16
479,7983.0,0.4,0.7000000000000001,-2.3000000000000003,0.5,1.1,7.4,18.5,-9.0,-12.8,16
480,8000.0,0.4,0.8,-2.2,0.4,1.1,7.5,14.800000000000002,-6.4,-8.5,16
481,8016.0,0.5,0.6000000000000001,-1.6,0.7000000000000001,1.1,8.200000000000001,12.200000000000001,-6.9,-4.5,16
482,8033.0,0.9,0.7000000000000001,-1.5,1.1,1.2000000000000002,8.1,10.0,-9.3,-3.8,16
483,8050.0,1.1,0.6000000000000001,-1.6,1.3,1.1,8.4,3.2,-5.8,-6.1000000000000005,16
484,8066.0,1.2000000000000002,0.6000000000000001,-0.8,1.4000000000000001,1.1,8.8,-2.7,-0.1,-8.3,16
485,8083.0,1.3,0.6000000000000001,-0.9,1.4000000000000001,1.1,8.8,-2.7,-0.1,-8.3,16
486,8100.0,0.9,0.7000000000000001,1.2000000000000002,0.7000000000000001,1.1,11.0,-5.8,17.400000000000002,-8.799999999999999,16
487,8116.0,0.5,0.5,1.2000000000000002,0.5,0.9,11.0,-5.300000000000001,16.6,-7.9,16
488,8133.0,0.2,0.30000000000000004,1.6,0.5,0.9,11.0,-5.300000000000001,16.6,-7.9,16
489,8150.0,-0.1,-0.1,2.4000000000000004,-0.1,0.2,12.5,-15.2,33.7,-5.500000000000001,16
490,8167.0,0.2,-0.1,3.3000000000000003,0.1,0.30000000000000004,13.100000000000001,-9.8,30.000000000000004,-11.000000000000002,16
491,8184.0,0.30000000000000004,0.1,3.5,0.1,0.30000000000000004,13.100000000000001,-9.8,30.000000000000004,-11.000000000000002,16
492,8200.0,0.4,0.9,2.5,0.0,1.7000000000000002,11.8,7.6,24.1,-26.6,16
493,8216.0,0.0,1.8,1.7000000000000002,-0.5,2.2,11.600000000000001,-8.700000000000001,32.800000000000004,-28.3,16
494,8233.0,-0.5,2.0,2.1,-1.7000000000000002,2.3000000000000003,12.600000000000001,-33.5,40.5,-22.3,16
495,8250.0,-1.8,1.5,3.7,-2.7,1.2000000000000002,14.100000000000001,-46.6,33.0,-4.3999999999999995,16
496,8266.0,-2.0,-0.5,4.9,-2.5,-0.6000000000000001,14.600000000000001,-36.3,10.4,17.1,16
497,8283.0,-1.1,-1.3,4.3,-0.7000000000000001,-1.6,13.100000000000001,-5.9,-25.0,25.0,16
498,8300.0,1.0,-1.7000000000000002,1.4000000000000001,0.8,-1.5,10.3,22.2,-49.5,10.3,16
499,8316.0,1.5,-1.5,-0.4,0.9,-0.9,7.5,22.2,-49.5,10.3,16
500,8333.0,1.0,-0.6000000000000001,-3.4000000000000004,0.5,0.1,6.0,24.6,-34.900000000000006,-22.2,16
501,8350.0,0.1,0.30000000000000004,-3.5,-0.30000000000000004,0.5,6.7,2.5,0.7,-18.2,16
502,8367.0,-0.2,0.2,-2.7,-1.0,0.2,8.8,-11.9,27.8,-8.0,16
503,8383.0,-1.2000000000000002,-0.2,0.6000000000000001,-1.7000000000000002,-0.1,11.0,-5.6,36.3,3.7000000000000006,16
504,8400.0,-1.4000000000000001,-0.7000000000000001,1.2000000000000002,-1.7000000000000002,-0.5,11.0,9.0,19.9,14.500000000000002,16
505,8418.0,-1.2000000000000002,-0.8,1.1,-1.7000000000000002,-0.5,11.0,9.0,19.9,14.500000000000002,16
506,8433.0,-0.4,-1.0,0.1,-0.8,-0.8,8.1,34.400000000000006,-34.800000000000004,29.400000000000002,16
507,8450.0,-0.2,-1.1,-4.1000000000000005,-0.4,-0.5,6.1000000000000005,17.400000000000002,-1.0999999999999999,27.8,16
508,8467.0,0.4,-0.8,-3.2,-0.4,-0.5,6.1000000000000005,17.400000000000002,-1.0999999999999999,27.8,16
509,8483.0,1.3,-0.8,-2.3000000000000003,0.7000000000000001,-0.30000000000000004,7.7,-16.700000000000003,22.8,19.3,16
510,8500.0,0.8,-0.7000000000000001,-1.8,0.2,-0.4,7.9,-22.900000000000002,4.3999999999999995,12.8,16
511,8517.0,0.5,-0.8,-1.8,-0.1,-0.5,7.7,-23.6,-5.0,6.8,16
512,8533.0,0.30000000000000004,-0.7000000000000001,-2.0,-0.1,-0.5,7.7,-11.2,7.0,-0.7,16
513,8550.0,0.4,-0.6000000000000001,-2.3000000000000003,-0.1,-0.4,7.300000000000001,-0.8,20.2,-9.9,16
514,8567.0,0.4,-0.5,-2.4000000000000004,-0.2,0.0,7.300000000000001,9.700000000000001,48.2,-18.3,16
515,8583.0,0.30000000000000004,0.0,-2.2,-0.6000000000000001,0.5,7.6000000000000005,12.000000000000002,71.7,-21.5,16
516,8600.0,0.0,0.4,-1.2000000000000002,-1.1,0.7000000000000001,8.5,8.200000000000001,77.0,-21.200000000000003,16
517,8617.0,-0.2,0.4,-0.5,-1.6,0.7000000000000001,9.600000000000001,9.5,55.300000000000004,-23.3,16
518,8633.0,-0.6000000000000001,0.1,0.5,-2.0,0.4,10.200000000000001,16.5,15.000000000000002,-29.1,16
519,8650.0,-0.7000000000000001,0.1,0.7000000000000001,-2.2,0.6000000000000001,10.100000000000001,31.8,-25.5,-40.6,16
520,8667.0,-1.1,0.5,0.30000000000000004,-2.5,1.3,9.600000000000001,43.900000000000006,-56.6,-52.400000000000006,16
521,8683.0,-1.5,1.4000000000000001,-0.30000000000000004,-2.4000000000000004,2.3000000000000003,9.3,41.9,-60.300000000000004,-56.0,16
522,8700.0,-1.4000000000000001,2.0,-0.30000000000000004,-2.4000000000000004,2.3000000000000003,9.3,41.9,-60.300000000000004,-56.0,16
523,8717.0,-1.4000000000000001,2.3000000000000003,0.8,-2.2,2.8000000000000003,11.200000000000001,6.2,-34.0,-33.1,16
524,8733.0,-1.5,1.5,2.9000000000000004,-2.2,2.1,13.100000000000001,-1.0999999999999999,-22.1,-27.400000000000002,16
525,8750.0,-1.4000000000000001,1.1,4.3,-2.2,2.1,13.100000000000001,-1.0999999999999999,-22.1,-27.400000000000002,16
526,8767.0,-0.8,1.6,4.7,-1.5,3.3000000000000003,13.3,18.1,-62.300000000000004,-57.5,16
527,8783.0,-1.3,4.2,2.2,-1.7000000000000002,5.1000000000000005,12.0,19.500000000000004,-61.8,-63.2,16
528,8800.0,-1.4000000000000001,4.2,2.3000000000000003,-1.6,5.2,12.700000000000001,16.700000000000003,-49.4,-48.50000000000001,16
529,8816.0,-1.1,3.6,3.1,-1.1,3.7,12.600000000000001,30.599999999999998,-45.3,-26.400000000000002,16
530,8833.0,-0.9,2.1,2.7,-0.30000000000000004,1.6,11.8,30.599999999999998,-45.3,-26.400000000000002,16
531,8850.0,0.2,-0.1,1.6,0.7000000000000001,0.9,10.8,54.7,-36.800000000000004,-13.200000000000001,16
532,8866.0,0.8,-1.0,0.4,1.1,0.4,9.9,47.400000000000006,-33.1,-18.8,16
533,8883.0,1.1,-1.3,-0.30000000000000004,1.3,0.30000000000000004,9.3,47.400000000000006,-33.1,-18.8,16
534,8900.0,0.9,-1.2000000000000002,-0.7000000000000001,1.3,0.8,8.9,22.7,-33.800000000000004,-26.700000000000003,16
535,8917.0,0.9,-0.4,-1.2000000000000002,1.5,1.5,8.3,14.500000000000002,-29.800000000000004,-24.3,16
536,8933.0,1.2000000000000002,-0.1,-1.6,1.5,1.5,8.3,14.500000000000002,-29.800000000000004,-24.3,16
537,8950.0,1.1,0.1,-1.6,1.1,1.7000000000000002,8.6,-20.1,24.1,-3.7000000000000006,16
538,8966.0,0.0,-0.2,0.0,0.2,1.3,10.100000000000001,-25.900000000000002,57.699999999999996,11.5,16
539,8983.0,-0.30000000000000004,-0.4,0.9,0.2,1.3,10.100000000000001,-25.900000000000002,57.699999999999996,11.5,16
540,9000.0,-0.1,-1.3,0.6000000000000001,0.0,0.0,9.700000000000001,-10.2,52.800000000000004,30.200000000000003,16
541,9016.0,0.2,-1.6,-1.3,0.1,-0.1,8.1,-12.3,31.5,23.3,16
542,9033.0,0.2,-1.5,-2.1,0.1,-0.1,8.1,-12.3,31.5,23.3,16
543,9050.0,0.0,-1.1,-3.0,-0.5,0.4,6.7,-18.3,26.400000000000002,10.0,16
544,9066.0,-0.6000000000000001,-0.5,-3.0,-1.0,0.9,6.7,-11.000000000000002,34.400000000000006,15.299999999999999,16
545,9083.0,-0.8,-0.30000000000000004,-3.0,-1.1,0.9,6.800000000000001,-0.9,33.0,24.400000000000002,16
546,9100.0,-0.4,-0.6000000000000001,-2.9000000000000004,-0.7000000000000001,0.7000000000000001,6.6000000000000005,6.6000000000000005,23.900000000000002,28.500000000000004,16
547,9116.0,-0.1,-0.8,-3.2,-0.6000000000000001,0.4,6.5,8.0,15.5,23.2,16
548,9133.0,-0.1,-1.0,-3.0,-0.6000000000000001,0.30000000000000004,6.800000000000001,5.9,9.9,16.3,16
549,9150.0,0.0,-1.0,-2.6,-0.5,0.30000000000000004,7.0,4.800000000000001,6.6000000000000005,11.6,16
550,9166.0,0.2,-0.8,-2.5,-0.4,0.6000000000000001,7.1000000000000005,1.9,7.699999999999999,7.699999999999999,16
551,9183.0,0.2,-0.6000000000000001,-2.3000000000000003,-0.4,0.8,7.9,-3.1,21.1,7.1000000000000005,16
552,9200.0,0.5,-0.5,-0.7000000000000001,-0.2,0.8,9.1,-1.0999999999999999,37.5,8.1,16
553,9216.0,0.5,-0.6000000000000001,-0.1,-0.2,0.8,9.1,4.9,46.7,5.1,16
554,9233.0,0.1,-0.8,0.2,-1.1,0.6000000000000001,10.0,2.4000000000000004,51.7,0.6000000000000001,16
555,9250.0,-0.5,-0.6000000000000001,1.2000000000000002,-1.8,0.7000000000000001,11.100000000000001,-9.0,52.6,-3.4,16
556,9267.0,-0.8,-0.5,2.1,-1.8,0.7000000000000001,11.100000000000001,-9.0,52.6,-3.4,16
557,9283.0,-1.5,-0.4,3.6,-3.0,0.8,13.4,-27.900000000000002,20.2,-2.9,16
558,9300.0,-1.0,-0.1,3.7,-1.9000000000000001,1.1,12.9,-27.900000000000002,-10.1,2.1,16
559,9317.0,-0.1,0.1,2.8000000000000003,-1.9000000000000001,1.1,12.9,-27.900000000000002,-10.1,2.1,16
560,9333.0,0.0,0.5,1.9000000000000001,-1.1,1.6,12.200000000000001,-61.8,-7.699999999999999,3.1,16
561,9350.0,-0.4,0.6000000000000001,4.5,-1.8,1.0,14.9,-80.4,19.6,9.9,16
562,9367.0,-0.8,0.0,6.7,-2.0,0.0,17.400000000000002,-66.4,23.400000000000002,21.400000000000002,16
563,9383.0,-0.4,-1.0,7.300000000000001,-1.5,-0.7000000000000001,16.2,-22.1,-4.6000000000000005,19.6,16
564,9400.0,0.4,-0.1,3.7,-0.6000000000000001,0.1,12.8,17.3,-42.300000000000004,12.9,16
565,9417.0,1.0,-0.7000000000000001,1.3,0.2,-0.2,9.1,35.5,-67.2,1.0999999999999999,16
566,9433.0,1.3,0.0,-2.2,0.2,1.0,7.300000000000001,23.900000000000002,-68.3,-19.6,16
567,9450.0,0.4,1.4000000000000001,-2.9000000000000004,-0.4,2.0,7.0,1.8,-49.8,-24.5,16
568,9467.0,-0.1,1.7000000000000002,-2.6,-1.2000000000000002,2.4000000000000004,7.9,-20.3,-15.8,-7.9,16
569,9483.0,-1.1,1.9000000000000001,-1.1,-1.8,2.2,8.9,-32.0,5.4,17.599999999999998,16
570,9500.0,-1.3,1.6,-0.7000000000000001,-1.8,2.2,8.9,-36.0,8.799999999999999,40.3,16
571,9516.0,-0.7000000000000001,0.8,0.0,-0.9,0.7000000000000001,10.100000000000001,-33.800000000000004,-0.2,53.50000000000001,16
572,9533.0,0.30000000000000004,0.0,0.4,-0.2,0.1,10.0,-20.0,-13.0,55.4,16
573,9550.0,0.7000000000000001,-0.30000000000000004,0.0,-0.2,0.1,10.0,-20.0,-13.0,55.4,16
574,9567.0,0.9,-0.30000000000000004,-1.3,0.5,0.1,7.9,9.600000000000001,-35.6,38.7,16
575,9583.0,0.8,0.1,-2.7,0.5,0.5,7.0,13.100000000000001,-37.5,33.300000000000004,16
576,9600.0,0.7000000000000001,0.30000000000000004,-3.0,0.5,0.5,7.0,13.100000000000001,-37.5,33.300000000000004,16
577,9616.0,0.5,0.6000000000000001,-3.2,0.30000000000000004,0.9,6.6000000000000005,5.300000000000001,-31.8,35.3,16
578,9633.0,0.4,0.4,-3.1,0.30000000000000004,0.7000000000000001,6.7,0.9,-29.300000000000004,37.1,16
579,9650.0,0.4,0.2,-3.0,0.5,0.30000000000000004,7.0,-2.9,-26.700000000000003,35.4,16
580,9667.0,0.5,-0.1,-2.4000000000000004,0.6000000000000001,0.2,7.5,-4.2,-26.3,28.700000000000003,16
581,9683.0,0.4,-0.1,-1.7000000000000002,0.6000000000000001,0.2,8.0,-1.9,-27.7,19.9,16
582,9700.0,0.2,-0.1,-1.5,0.4,0.30000000000000004,8.6,1.4,-26.200000000000003,11.6,16
583,9716.0,-0.1,0.0,-0.8,0.30000000000000004,0.4,9.1,5.2,-23.400000000000002,5.300000000000001,16
584,9733.0,-0.1,0.0,0.1,0.30000000000000004,0.30000000000000004,9.9,10.700000000000001,-17.8,-1.4,16
585,9750.0,-0.2,-0.1,0.4,0.1,0.2,10.100000000000001,18.3,-8.0,-9.0,16
586,9767.0,-0.4,-0.30000000000000004,0.6000000000000001,0.1,0.1,10.5,18.0,3.8,-14.4,16
587,9783.0,-0.1,-0.6000000000000001,1.7000000000000002,0.30000000000000004,-0.2,11.5,11.8,14.800000000000002,-18.8,16
588,9800.0,-0.1,-0.9,2.5,0.1,-0.6000000000000001,13.0,6.5,19.9,-26.500000000000004,16
589,9816.0,-0.1,-1.1,4.2,0.2,-0.4,13.9,10.8,13.100000000000001,-39.400000000000006,16
590,9833.0,0.0,-0.7000000000000001,4.1000000000000005,0.2,-0.4,13.9,10.8,13.100000000000001,-39.400000000000006,16
591,9851.0,0.30000000000000004,0.30000000000000004,2.9000000000000004,0.4,1.1,12.200000000000001,8.4,-10.700000000000001,-56.900000000000006,16
592,9866.0,0.1,0.2,2.5,0.4,0.5,12.8,-17.400000000000002,-2.4000000000000004,-45.5,16
593,9883.0,0.2,-0.5,3.6,0.4,0.5,12.8,-17.400000000000002,-2.4000000000000004,-45.5,16
594,9899.0,0.7000000000000001,-1.8,5.5,1.1,-1.6,15.100000000000001,0.30000000000000004,-9.0,-44.7,16
595,9917.0,0.9,-2.1,3.7,1.3,-1.4000000000000001,12.700000000000001,46.800000000000004,-36.3,-61.300000000000004,16
596,9933.0,0.9,-1.7000000000000002,1.3,1.5,-0.4,8.9,79.6,-52.7,-76.4,16
597,9950.0,1.2000000000000002,-0.5,-2.8000000000000003,1.6,0.8,6.2,75.2,-47.400000000000006,-81.9,16
598,9967.0,-0.4,0.30000000000000004,-4.1000000000000005,0.6000000000000001,1.6,5.5,53.2,-24.400000000000002,-71.30000000000001,16
599,9983.0,0.6000000000000001,0.7000000000000001,-4.5,2.0,2.3000000000000003,4.800000000000001,22.7,-1.0999999999999999,-50.2,16
600,10000.0,1.9000000000000001,1.2000000000000002,-4.5,2.6,2.5,5.7,-15.7,11.2,-44.2,16
601,10016.0,0.9,1.0,-3.0,1.4000000000000001,2.1,6.9,-46.800000000000004,30.599999999999998,-38.2,16
602,10033.0,0.6000000000000001,0.5,-2.1,1.1,1.2000000000000002,8.5,-65.4,52.300000000000004,-22.7,16
603,10050.0,0.6000000000000001,-0.2,-0.1,0.8,0.5,9.9,-69.3,64.2,-14.4,16
604,10067.0,0.4,-0.5,0.4,0.8,0.5,9.9,-69.3,64.2,-14.4,16
605,10083.0,0.4,-0.7000000000000001,0.4,0.4,-0.2,10.0,-52.6,59.00000000000001,-13.4,16
606,10100.0,0.6000000000000001,-0.7000000000000001,-0.2,0.30000000000000004,-0.30000000000000004,9.4,-41.7,47.300000000000004,-18.5,16
607,10116.0,0.6000000000000001,-0.7000000000000001,-0.6000000000000001,0.30000000000000004,-0.30000000000000004,9.4,-31.8,38.400000000000006,-25.1,16
608,10133.0,0.4,-0.4,-1.3,-0.2,-0.30000000000000004,8.200000000000001,-24.200000000000003,34.800000000000004,-30.5,16
609,10150.0,0.2,-0.4,-1.6,-0.30000000000000004,-0.30000000000000004,8.200000000000001,-20.0,33.900000000000006,-30.100000000000005,16
610,10166.0,0.30000000000000004,-0.30000000000000004,-1.4000000000000001,-0.30000000000000004,-0.30000000000000004,8.200000000000001,-20.0,33.900000000000006,-30.100000000000005,16
611,10183.0,0.2,-0.30000000000000004,-1.1,-0.5,-0.30000000000000004,8.5,-5.0,12.3,-30.799999999999997,16
612,10200.0,0.1,-0.4,-1.5,-0.4,-0.4,8.1,0.9,-3.6,-31.3,16
613,10217.0,0.4,-0.4,-1.8,-0.4,-0.4,8.1,0.9,-3.6,-31.3,16
614,10233.0,0.5,-0.2,-1.9000000000000001,-0.1,-0.1,7.7,-8.5,-21.5,-36.3,16
615,10250.0,0.2,0.1,-2.1,-0.4,0.0,7.6000000000000005,-13.6,-16.1,-37.0,16
616,10266.0,0.0,0.1,-2.1,-0.6000000000000001,0.0,7.5,-20.3,-10.8,-31.8,16
617,10283.0,-0.1,0.2,-2.4000000000000004,-0.6000000000000001,0.1,7.2,-30.599999999999998,0.9,-22.8,16
618,10300.0,-0.1,0.30000000000000004,-2.5,-0.5,0.0,7.4,-30.599999999999998,0.9,-22.8,16
619,10320.0,-0.1,0.4,-1.3,-0.7000000000000001,-0.1,8.200000000000001,-63.4,33.300000000000004,-9.5,16
620,10333.0,-0.5,0.2,-0.9,-1.5,-0.6000000000000001,9.1,-82.8,42.2,-2.6,16
621,10350.0,-1.8,-0.2,1.3,-2.7,-1.2000000000000002,11.200000000000001,-102.0,47.900000000000006,5.4,16
622,10366.0,-2.3000000000000003,-0.4,3.3000000000000003,-3.0,-1.7000000000000002,14.5,-107.5,37.900000000000006,18.6,16
623,10383.0,-1.4000000000000001,-0.4,6.4,-2.2,-1.9000000000000001,16.1,-92.2,2.3000000000000003,27.7,16
624,10400.0,-0.9,-0.30000000000000004,6.7,-2.2,-1.9000000000000001,16.1,-92.2,2.3000000000000003,27.7,16
625,10417.0,-0.1,0.0,5.6000000000000005,-1.2000000000000002,-1.6,14.700000000000001,-45.6,-38.900000000000006,21.8,16
626,10433.0,-1.1,0.7000000000000001,4.800000000000001,-2.2,-1.1,14.600000000000001,-37.6,-29.400000000000002,15.2,16
627,10450.0,-1.8,1.1,5.300000000000001,-2.2,-1.1,14.600000000000001,-37.6,-29.400000000000002,15.2,16
628,10466.0,-2.3000000000000003,1.3,7.300000000000001,-3.0,-1.3,17.400000000000002,-10.0,-21.1,38.1,16
629,10483.0,-1.3,-0.5,7.4,-1.6,-2.7,16.5,39.400000000000006,-42.6,53.300000000000004,16
630,10500.0,-0.1,-1.2000000000000002,5.6000000000000005,-1.6,-2.7,16.5,39.400000000000006,-42.6,53.300000000000004,16
631,10516.0,1.2000000000000002,-1.8,1.4000000000000001,0.6000000000000001,-3.1,10.200000000000001,126.0,-44.7,16.700000000000003,16
632,10533.0,0.4,-1.5,-1.3,-0.1,-2.4000000000000004,8.5,134.5,-31.0,-4.6000000000000005,16
633,10550.0,-0.2,-1.1,-1.8,-0.9,-1.3,7.800000000000001,127.9,-18.2,-11.5,16
634,10566.0,-1.0,-0.4,-2.5,-1.5,-0.7000000000000001,7.2,111.9,-13.700000000000001,-6.9,16
635,10583.0,-1.6,-0.2,-3.1,-1.8,-0.2,6.800000000000001,87.60000000000001,-16.3,4.3999999999999995,16
636,10600.0,-1.6,-0.1,-3.2,-1.6,0.2,6.5,59.400000000000006,-22.7,18.3,16
637,10616.0,-1.0,0.1,-3.5,-0.8,0.4,6.300000000000001,31.2,-33.5,30.5,16
638,10633.0,-0.30000000000000004,0.0,-3.6,-0.2,0.2,6.2,31.2,-33.5,30.5,16
639,10650.0,-0.1,-0.2,-3.5,0.2,-0.1,6.4,-9.1,-52.400000000000006,42.400000000000006,16
640,10666.0,0.5,-0.5,-3.5,1.0,-0.30000000000000004,6.300000000000001,-13.100000000000001,-54.9,42.400000000000006,16
641,10683.0,0.9,-0.5,-3.6,1.0,-0.30000000000000004,6.300000000000001,-11.8,-51.1,36.1,16
642,10700.0,0.9,-0.5,-3.8000000000000003,1.5,-0.30000000000000004,6.1000000000000005,-8.5,-38.0,29.000000000000004,16
643,10716.0,0.9,-0.4,-3.5,1.7000000000000002,-0.2,6.2,-5.9,-23.0,22.1,16
644,10733.0,1.0,-0.2,-3.5,1.7000000000000002,-0.2,6.2,-5.9,-23.0,22.1,16
645,10749.0,0.30000000000000004,-0.30000000000000004,-2.3000000000000003,1.1,-0.30000000000000004,7.9,-6.4,-3.4,7.0,16
646,10767.0,0.1,-0.2,-1.0,0.8,-0.1,8.8,-0.30000000000000004,-3.7000000000000006,-0.2,16
647,10783.0,-0.2,0.0,-0.6000000000000001,0.8,-0.1,8.8,-0.30000000000000004,-3.7000000000000006,-0.2,16
648,10800.0,-0.6000000000000001,0.1,0.30000000000000004,0.2,0.30000000000000004,9.8,23.700000000000003,-15.100000000000001,-6.9,16
649,10816.0,-0.6000000000000001,0.5,-0.30000000000000004,0.30000000000000004,0.7000000000000001,9.3,32.9,-25.3,-10.0,16
650,10833.0,-0.5,0.6000000000000001,-0.6000000000000001,0.5,1.0,8.9,34.300000000000004,-28.1,-16.6,16
651,10850.0,-0.4,0.8,-0.7000000000000001,0.5,1.3,9.0,30.100000000000005,-26.3,-25.400000000000002,16
652,10867.0,-0.7000000000000001,1.0,-0.5,0.4,1.5,9.200000000000001,24.1,-19.3,-29.000000000000004,16
653,10883.0,-0.7000000000000001,0.9,-0.30000000000000004,0.4,1.4000000000000001,9.600000000000001,14.600000000000001,-9.8,-25.1,16
654,10899.0,-0.5,0.6000000000000001,0.5,0.7000000000000001,1.1,10.4,3.6,0.2,-22.000000000000004,16
655,10916.0,-0.30000000000000004,0.5,1.0,0.7000000000000001,1.1,10.4,3.6,0.2,-22.000000000000004,16
656,10933.0,0.7000000000000001,0.8,2.3000000000000003,1.9000000000000001,1.9000000000000001,12.200000000000001,-13.8,9.700000000000001,-40.5,16
657,10950.0,0.2,1.9000000000000001,2.6,0.9,2.6,12.3,-24.000000000000004,13.0,-54.7,16
658,10966.0,-0.5,2.2,2.6,0.9,2.6,12.3,-24.000000000000004,13.0,-54.7,16
659,10983.0,-1.5,1.9000000000000001,4.0,-0.8,1.7000000000000002,14.5,-50.1,22.6,-33.0,16
660,11000.0,-1.6,0.4,5.4,-0.6000000000000001,0.4,15.100000000000001,-35.3,15.6,-10.8,16
661,11016.0,-1.1,-0.2,5.1000000000000005,-0.6000000000000001,0.4,15.100000000000001,-35.3,15.6,-10.8,16
662,11033.0,0.1,-1.0,3.4000000000000004,1.0,-0.9,12.4,15.7,13.8,-2.5,16
663,11051.0,0.7000000000000001,-1.1,1.3,1.4000000000000001,-0.7000000000000001,10.8,28.3,13.200000000000001,-11.9,16
664,11067.0,0.7000000000000001,-0.9,0.30000000000000004,1.4000000000000001,-0.7000000000000001,10.8,28.3,13.200000000000001,-11.9,16
665,11083.0,0.5,-0.30000000000000004,-1.5,0.9,0.30000000000000004,7.9,24.400000000000002,23.0,-19.0,16
666,11099.0,0.1,0.0,-2.6,0.6000000000000001,0.6000000000000001,7.1000000000000005,9.0,37.2,-11.000000000000002,16
667,11116.0,0.0,0.2,-2.9000000000000004,0.30000000000000004,0.8,6.9,-10.5,54.6,1.0,16
668,11133.0,0.0,0.30000000000000004,-2.9000000000000004,0.1,0.8,7.0,-30.799999999999997,70.39999999999999,13.700000000000001,16
669,11150.0,-0.2,0.30000000000000004,-2.7,-0.30000000000000004,0.5,7.2,-48.9,82.4,26.700000000000003,16
670,11166.0,-0.30000000000000004,0.1,-2.4000000000000004,-0.7000000000000001,0.0,7.9,-64.50000000000001,88.6,39.699999999999996,16
671,11183.0,-0.30000000000000004,-0.30000000000000004,-1.2000000000000002,-0.8,-0.5,8.8,-72.30000000000001,84.80000000000001,50.5,16
672,11200.0,-0.1,-0.5,-0.6000000000000001,-0.9,-0.9,9.8,-72.30000000000001,84.80000000000001,50.5,16
673,11216.0,0.2,-0.9,0.2,-0.4,-1.6,10.3,-69.5,51.2,60.400000000000006,16
674,11233.0,1.1,-1.5,1.0,0.30000000000000004,-2.2,10.8,-56.300000000000004,29.500000000000004,53.8,16
675,11250.0,1.6,-1.7000000000000002,1.2000000000000002,0.30000000000000004,-2.2,10.8,-56.300000000000004,29.500000000000004,53.8,16
676,11267.0,1.8,-1.3,1.4000000000000001,0.7000000000000001,-1.9000000000000001,11.0,-1.7,11.3,14.3,16
677,11283.0,1.7000000000000002,-0.9,0.6000000000000001,0.5,-1.5,10.100000000000001,22.8,0.4,-4.3999999999999995,16
678,11300.0,1.5,-0.6000000000000001,0.0,0.5,-1.5,10.100000000000001,22.8,0.4,-4.3999999999999995,16
679,11316.0,0.8,0.30000000000000004,-0.9,-0.6000000000000001,0.1,8.9,34.7,-8.799999999999999,-26.3,16
680,11333.0,0.1,1.1,-0.6000000000000001,-1.1,0.7000000000000001,9.200000000000001,28.3,-7.6,-23.900000000000002,16
681,11350.0,-0.2,1.2000000000000002,-0.4,-1.1,0.7000000000000001,9.200000000000001,28.3,-7.6,-23.900000000000002,16
682,11366.0,-0.9,1.4000000000000001,1.2000000000000002,-1.7000000000000002,1.0,11.600000000000001,11.1,-26.400000000000002,-5.0,16
683,11383.0,-0.4,1.1,2.6,-1.1,0.8,12.4,14.700000000000001,-46.2,5.2,16
684,11400.0,-0.1,0.9,2.5,-0.4,0.5,12.100000000000001,21.8,-66.80000000000001,9.0,16
685,11416.0,0.4,0.8,2.1,0.0,0.7000000000000001,11.8,26.700000000000003,-79.5,8.0,16
686,11433.0,0.4,0.9,1.8,0.1,0.9,11.0,26.700000000000003,-79.5,8.0,16
687,11449.0,0.2,1.0,0.8,-0.1,1.2000000000000002,10.3,25.400000000000002,-78.10000000000001,17.1,16
688,11466.0,-0.4,1.1,0.7000000000000001,-0.1,1.1,10.700000000000001,16.400000000000002,-66.1,31.7,16
689,11483.0,0.0,0.6000000000000001,1.3,0.5,0.7000000000000001,11.200000000000001,8.5,-57.400000000000006,46.2,16
690,11499.0,0.5,0.5,1.6,1.6,0.6000000000000001,11.5,6.4,-57.699999999999996,54.800000000000004,16
691,11516.0,1.5,0.30000000000000004,1.4000000000000001,2.4000000000000004,0.4,11.0,13.100000000000001,-57.400000000000006,57.5,16
692,11533.0,1.4000000000000001,0.1,0.0,2.3000000000000003,0.30000000000000004,9.8,19.200000000000003,-47.1,57.6,16
693,11550.0,0.8,0.0,-0.5,1.2000000000000002,-0.1,9.8,5.1,-14.800000000000002,63.10000000000001,16
694,11566.0,-0.6000000000000001,-1.0,1.3,0.2,-1.1,11.700000000000001,-14.200000000000001,6.9,73.10000000000001,16
695,11583.0,-1.0,-1.6,2.6,0.2,-1.1,11.700000000000001,-14.200000000000001,6.9,73.10000000000001,16
696,11600.0,-0.5,-2.6,3.4000000000000004,1.2000000000000002,-2.8000000000000003,12.5,6.3,-46.0,72.10000000000001,16
697,11616.0,1.1,-2.8000000000000003,0.8,2.5,-2.6,10.100000000000001,31.099999999999998,-76.9,47.0,16
698,11633.0,1.3,-2.5,-0.8,2.5,-2.6,10.100000000000001,31.099999999999998,-76.9,47.0,16
699,11650.0,-0.1,-1.7000000000000002,-3.3000000000000003,0.9,-1.0,5.9,55.4,-52.400000000000006,-7.699999999999999,16
700,11666.0,-2.0,-0.5,-4.3,-0.30000000000000004,0.0,5.4,51.7,-0.8,-1.8,16
701,11683.0,-2.1,-0.2,-4.2,-0.4,0.4,5.9,39.699999999999996,41.1,18.400000000000002,16
702,11699.0,-2.1,-0.2,-3.0,-0.4,0.4,7.0,24.3,51.1,30.5,16
703,11716.0,-1.8,-0.2,-2.5,0.1,0.4,7.2,24.3,51.1,30.5,16
704,11733.0,-0.7000000000000001,-0.1,-2.6,1.3,0.7000000000000001,6.7,-4.1000000000000005,-2.1,32.4,16
705,11750.0,-0.30000000000000004,-0.2,-3.7,1.0,0.4,5.7,-15.399999999999999,-24.3,24.400000000000002,16
706,11766.0,-0.4,0.0,-4.4,1.1,0.4,5.2,-23.400000000000002,-26.8,24.7,16
707,11783.0,-0.1,-0.1,-4.6000000000000005,1.6,0.30000000000000004,5.0,-25.3,-15.8,24.9,16
708,11800.0,0.0,-0.2,-4.4,1.7000000000000002,0.2,5.1000000000000005,-23.2,-4.800000000000001,20.2,16
709,11816.0,0.2,0.0,-4.4,1.9000000000000001,0.30000000000000004,5.300000000000001,-23.2,-4.800000000000001,20.2,16
710,11833.0,0.1,-0.1,-4.0,1.7000000000000002,0.2,5.7,-25.400000000000002,9.9,2.6,16
711,11849.0,0.30000000000000004,0.1,-3.3000000000000003,1.6,0.30000000000000004,6.5,-33.900000000000006,11.8,-9.0,16
712,11867.0,-0.8,0.30000000000000004,-1.5,0.6000000000000001,0.30000000000000004,8.0,-43.2,11.4,-18.2,16
713,11883.0,-1.3,0.4,-0.4,0.0,0.4,9.9,-44.6,2.3000000000000003,-15.9,16
714,11899.0,-1.2000000000000002,0.7000000000000001,1.4000000000000001,0.30000000000000004,0.6000000000000001,11.100000000000001,-37.300000000000004,-15.000000000000002,-10.3,16
715,11916.0,-1.1,0.8,1.9000000000000001,0.30000000000000004,0.6000000000000001,11.100000000000001,-37.300000000000004,-15.000000000000002,-10.3,16
716,11933.0,0.0,1.1,1.3,1.8,1.1,10.4,-13.700000000000001,-38.1,-12.5,16
717,11950.0,0.1,2.1,0.8,1.8,1.8,10.200000000000001,-12.3,-22.7,-17.5,16
718,11966.0,-0.1,2.2,0.6000000000000001,1.5,2.0,10.700000000000001,-21.1,3.8,-11.2,16
719,11983.0,0.6000000000000001,2.6,2.0,2.3000000000000003,1.9000000000000001,12.3,-36.1,12.000000000000002,-1.4,16
720,12000.0,0.30000000000000004,1.4000000000000001,4.7,2.2,0.8,14.3,-45.0,-1.0999999999999999,1.0999999999999999,16
721,12016.0,0.8,1.1,5.2,3.4000000000000004,0.7000000000000001,14.9,-42.7,-22.4,-3.1,16
722,12033.0,1.7000000000000002,1.8,5.1000000000000005,3.5,1.1,14.200000000000001,-32.0,-32.9,-13.9,16
723,12050.0,1.4000000000000001,1.7000000000000002,3.7,3.4000000000000004,0.9,13.3,-24.5,-23.2,-11.9,16
724,12066.0,1.4000000000000001,1.3,3.9000000000000004,3.3000000000000003,-0.1,14.0,-23.700000000000003,-3.7000000000000006,-2.0,16
725,12083.0,1.3,-0.2,5.0,3.4000000000000004,-1.3,14.8,-16.5,4.0,2.1999999999999997,16
726,12100.0,1.4000000000000001,-0.8,5.300000000000001,3.3000000000000003,-2.3000000000000003,14.8,-16.5,4.0,2.1999999999999997,16
727,12116.0,1.2000000000000002,-1.6,4.9,3.2,-2.7,13.8,23.700000000000003,-13.700000000000001,-11.5,16
728,12133.0,1.1,-1.9000000000000001,3.0,3.2,-2.6,12.100000000000001,50.300000000000004,-16.700000000000003,-23.6,16
729,12149.0,1.0,-1.8,1.8,3.2,-2.6,12.100000000000001,50.300000000000004,-16.700000000000003,-23.6,16
730,12166.0,0.7000000000000001,-1.1,-0.7000000000000001,2.7,-1.1,8.3,71.7,-2.1,-35.199999999999996,16
731,12183.0,0.2,-0.6000000000000001,-1.9000000000000001,2.4000000000000004,-0.6000000000000001,7.800000000000001,62.199999999999996,14.0,-29.000000000000004,16
732,12199.0,0.1,-0.4,-1.9000000000000001,2.4000000000000004,-0.6000000000000001,7.800000000000001,62.199999999999996,14.0,-29.000000000000004,16
733,12216.0,-0.4,-0.5,-1.4000000000000001,1.5,-0.4,8.5,25.900000000000002,12.9,-16.0,16
734,12233.0,-0.5,-0.7000000000000001,-1.0,1.5,-0.5,8.700000000000001,14.600000000000001,-0.9,-11.9,16
735,12250.0,-0.5,-0.8,-1.0,1.5,-0.7000000000000001,8.6,10.1,-12.200000000000001,-10.1,16
736,12266.0,-0.6000000000000001,-1.0,-1.0,1.4000000000000001,-0.7000000000000001,8.700000000000001,11.2,-17.9,-9.1,16
737,12283.0,-0.7000000000000001,-1.0,-1.3,1.5,-0.7000000000000001,8.200000000000001,19.6,-22.3,-8.9,16
738,12300.0,-0.7000000000000001,-1.1,-1.7000000000000002,1.6,-0.7000000000000001,7.5,28.200000000000003,-24.000000000000004,-10.4,16
739,12316.0,-0.6000000000000001,-1.2000000000000002,-2.5,1.7000000000000002,-0.7000000000000001,6.9,34.7,-25.6,-14.600000000000001,16
740,12333.0,-0.7000000000000001,-1.1,-3.1,1.6,-0.5,6.300000000000001,40.0,-27.0,-20.0,16
741,12349.0,-0.8,-0.9,-3.4000000000000004,1.6,-0.1,5.6000000000000005,41.0,-29.400000000000002,-23.700000000000003,16
742,12366.0,-0.9,-0.7000000000000001,-4.2,1.6,0.1,5.1000000000000005,32.9,-31.5,-25.900000000000002,16
743,12383.0,-0.9,-0.6000000000000001,-4.3,1.6,0.1,5.1000000000000005,17.400000000000002,-32.9,-27.900000000000002,16
744,12400.0,-0.9,-0.5,-4.0,1.8,0.5,5.6000000000000005,0.5,-34.50000000000001,-28.8,16
745,12416.0,-0.7000000000000001,-0.4,-3.4000000000000004,2.0,0.6000000000000001,6.0,-11.1,-33.6,-27.7,16
746,12433.0,-0.7000000000000001,-0.30000000000000004,-3.1,2.0,0.6000000000000001,6.0,-11.1,-33.6,-27.7,16
747,12450.0,-0.7000000000000001,-0.30000000000000004,-1.9000000000000001,2.1,0.5,8.0,-21.900000000000002,-14.700000000000001,-20.8,16
748,12466.0,-0.6000000000000001,-0.30000000000000004,-0.1,2.3000000000000003,0.5,9.200000000000001,-21.0,-11.6,-18.8,16
749,12483.0,-0.4,-0.30000000000000004,0.30000000000000004,2.3000000000000003,0.5,9.200000000000001,-21.0,-11.6,-18.8,16
750,12500.0,0.1,0.0,1.0,3.1,0.8,10.3,-21.5,-12.700000000000001,-19.8,16
751,12516.0,0.30000000000000004,0.30000000000000004,1.5,3.3000000000000003,1.0,10.8,-24.000000000000004,-7.699999999999999,-18.7,16
752,12533.0,0.4,0.4,1.9000000000000001,3.4000000000000004,1.1,11.600000000000001,-26.500000000000004,-1.6,-16.6,16
753,12550.0,0.5,0.6000000000000001,2.9000000000000004,3.5,1.3,12.4,-25.400000000000002,3.7000000000000006,-13.8,16
754,12566.0,0.9,1.0,3.5,3.9000000000000004,1.6,12.700000000000001,-20.1,5.0,-12.000000000000002,16
755,12583.0,1.2000000000000002,1.3,3.2,4.2,2.7,11.9,-18.3,11.3,-11.6,16
756,12599.0,0.6000000000000001,3.2,2.5,3.6,3.3000000000000003,12.3,-34.1,21.6,-3.4,16
757,12616.0,0.9,2.0,4.3,3.6,2.3000000000000003,13.700000000000001,-43.6,26.6,5.7,16
758,12633.0,0.4,1.6,4.800000000000001,2.7,1.1,14.3,-34.0,28.900000000000002,18.400000000000002,16
759,12650.0,0.1,-0.2,4.7,3.0,-0.2,13.700000000000001,-18.2,15.7,28.900000000000002,16
760,12667.0,0.6000000000000001,-0.6000000000000001,3.7,3.0,-0.2,13.700000000000001,-18.2,15.7,28.900000000000002,16
761,12683.0,0.8,-1.1,1.4000000000000001,3.4000000000000004,-0.9,10.3,-8.9,-12.200000000000001,10.2,16
762,12700.0,0.30000000000000004,-0.7000000000000001,-0.1,2.9000000000000004,-0.6000000000000001,9.1,-10.2,-5.2,2.9,16
763,12716.0,-0.1,-0.4,-0.7000000000000001,2.9000000000000004,-0.6000000000000001,9.1,-10.2,-5.2,2.9,16
764,12733.0,-0.6000000000000001,-0.1,-1.0,1.7000000000000002,-0.4,8.700000000000001,-21.5,52.900000000000006,15.9,16
765,12750.0,-1.1,-0.5,-0.2,1.3,-0.8,9.5,-20.7,68.9,23.2,16
766,12766.0,-1.1,-0.7000000000000001,0.1,1.3,-0.8,9.5,-20.7,68.9,23.2,16
767,12783.0,-0.8,-0.8,0.4,1.3,-1.1,9.8,-2.9,37.6,20.900000000000002,16
768,12800.0,-0.5,-0.6000000000000001,-0.4,1.5,-0.8,9.0,9.5,9.700000000000001,14.0,16
769,12816.0,-0.5,-0.30000000000000004,-1.1,1.5,-0.30000000000000004,7.800000000000001,17.599999999999998,-12.100000000000001,9.8,16
770,12833.0,-0.6000000000000001,0.1,-2.4000000000000004,1.4000000000000001,0.0,6.9,19.700000000000003,-18.900000000000002,12.100000000000001,16
771,12849.0,-0.5,0.2,-3.1,1.7000000000000002,0.1,6.4,20.6,-16.8,15.7,16
772,12866.0,-0.4,0.2,-3.3000000000000003,1.8,0.1,6.2,21.400000000000002,-14.700000000000001,15.100000000000001,16
773,12883.0,-0.4,0.1,-3.3000000000000003,1.8,0.1,6.300000000000001,20.5,-10.700000000000001,12.3,16
774,12899.0,-0.4,0.1,-3.1,1.8,0.1,6.300000000000001,16.6,-6.5,9.5,16
775,12916.0,-0.5,0.1,-2.0,1.6,0.2,7.9,13.700000000000001,-7.2,7.0,16
776,12933.0,-0.6000000000000001,0.1,-1.2000000000000002,1.7000000000000002,0.2,8.6,11.700000000000001,-10.600000000000001,6.2,16
777,12949.0,-0.4,0.0,-0.6000000000000001,2.0,-0.1,9.700000000000001,12.6,-16.8,5.300000000000001,16
778,12966.0,-0.1,-0.4,0.8,2.4000000000000004,-0.30000000000000004,10.4,25.2,-27.3,0.2,16
779,12983.0,0.2,-0.5,0.8,2.6,-0.2,9.9,43.7,-36.9,-9.3,16
780,13000.0,0.30000000000000004,-0.4,0.2,2.6,-0.2,9.9,54.2,-40.2,-20.2,16
781,13016.0,0.30000000000000004,0.30000000000000004,-1.3,2.9000000000000004,1.2000000000000002,7.9,43.0,-32.4,-27.3,16
782,13033.0,0.30000000000000004,0.30000000000000004,-1.3,2.9000000000000004,1.2000000000000002,7.9,43.0,-32.4,-27.3,16
783,13050.0,0.30000000000000004,0.8,0.1,3.0,1.5,8.8,17.5,-21.700000000000003,-25.2,16
784,13067.0,0.7000000000000001,0.30000000000000004,2.6,3.9000000000000004,0.9,12.600000000000001,-14.800000000000002,-12.8,-23.2,16
785,13083.0,1.9000000000000001,0.4,4.4,4.800000000000001,1.3,13.9,-7.9,-17.0,-47.900000000000006,16
786,13099.0,2.2,1.0,4.7,4.5,3.0,13.4,9.0,-18.7,-90.8,16
787,13116.0,0.30000000000000004,3.5,3.0,2.7,4.5,12.200000000000001,10.9,-1.0999999999999999,-106.7,16
788,13133.0,-0.5,3.4000000000000004,3.2,2.2,4.1000000000000005,12.9,3.6,21.6,-84.60000000000001,16
789,13149.0,-0.6000000000000001,2.3000000000000003,4.2,2.3000000000000003,2.0,14.5,13.0,33.6,-52.900000000000006,16
790,13166.0,0.1,-0.30000000000000004,4.3,3.0,0.6000000000000001,13.100000000000001,47.0,31.099999999999998,-36.4,16
791,13183.0,0.8,-1.2000000000000002,1.9000000000000001,3.3000000000000003,0.2,11.100000000000001,68.0,14.600000000000001,-35.4,16
792,13199.0,1.0,-1.3,0.30000000000000004,3.6,0.4,8.3,69.9,-7.300000000000001,-41.7,16
793,13216.0,1.2000000000000002,-0.9,-2.6,3.8000000000000003,1.0,6.4,48.7,-19.0,-43.300000000000004,16
794,13233.0,1.4000000000000001,-0.5,-3.8000000000000003,4.0,1.5,5.6000000000000005,17.3,-17.0,-39.50000000000001,16
795,13249.0,1.5,-0.4,-3.8000000000000003,4.2,1.6,5.7,-11.9,-1.0,-32.5,16
796,13266.0,1.6,-0.4,-3.1,4.0,1.3,6.5,-30.799999999999997,26.6,-25.400000000000002,16
797,13284.0,1.0,-1.0,-2.0,3.3000000000000003,0.8,7.4,-35.5,53.8,-20.4,16
798,13299.0,0.5,-1.2000000000000002,-1.6,2.5,0.4,7.800000000000001,-29.1,70.39999999999999,-17.200000000000003,16
799,13316.0,0.0,-1.3,-1.6,1.9000000000000001,0.30000000000000004,7.800000000000001,-22.7,74.8,-15.2,16
800,13333.0,-0.2,-1.3,-1.7000000000000002,1.9000000000000001,0.30000000000000004,7.800000000000001,-22.7,74.8,-15.2,16
801,13350.0,-0.5,-1.3,-1.8,1.1,0.2,7.7,-19.9,64.10000000000001,-8.3,16
802,13366.0,-0.4,-1.4000000000000001,-1.8,1.0,0.1,7.7,-18.8,49.2,-6.5,16
803,13383.0,-0.4,-1.4000000000000001,-1.9000000000000001,0.9,0.0,7.4,-13.700000000000001,31.0,-6.7,16
804,13399.0,-0.4,-1.3,-2.5,0.8,0.2,6.800000000000001,-6.9,13.5,-7.400000000000001,16
805,13416.0,-0.4,-1.1,-3.4000000000000004,0.9,0.2,6.1000000000000005,-5.1,3.6,-6.6000000000000005,16
806,13433.0,-0.30000000000000004,-1.2000000000000002,-3.5,0.9,0.30000000000000004,6.0,-8.3,-0.1,-6.000000000000001,16
807,13449.0,-0.2,-0.9,-3.5,1.0,0.5,6.2,-12.100000000000001,-0.7,-4.9,16
808,13466.0,-0.2,-0.7000000000000001,-3.2,1.0,0.5,6.2,-12.100000000000001,-0.7,-4.9,16
809,13483.0,-0.2,-0.7000000000000001,-1.9000000000000001,1.2000000000000002,0.6000000000000001,8.0,-15.9,-1.0999999999999999,3.5,16
810,13500.0,0.2,-0.6000000000000001,-1.3,1.6,0.6000000000000001,8.5,-15.299999999999999,-1.0999999999999999,8.3,16
811,13516.0,0.5,-0.6000000000000001,-0.8,1.9000000000000001,0.30000000000000004,9.700000000000001,-15.299999999999999,-1.0999999999999999,8.3,16
812,13533.0,0.8,-0.9,0.9,2.1,0.2,10.700000000000001,-10.3,3.2,11.6,16
813,13549.0,0.9,-0.7000000000000001,1.5,2.1,0.4,11.100000000000001,-2.9,5.2,9.700000000000001,16
814,13566.0,0.9,-0.5,1.7000000000000002,2.1,0.4,11.100000000000001,-2.9,5.2,9.700000000000001,16
815,13583.0,0.5,-0.1,2.3000000000000003,1.6,1.0,12.0,-5.6,-0.9,8.3,16
816,13600.0,0.2,0.2,2.7,1.5,1.2000000000000002,12.3,-11.700000000000001,-7.699999999999999,11.700000000000001,16
817,13616.0,0.2,0.4,2.8000000000000003,1.5,1.2000000000000002,12.3,-11.700000000000001,-7.699999999999999,11.700000000000001,16
818,13633.0,0.6000000000000001,0.8,2.5,2.2,1.8,11.8,-17.9,-27.0,17.8,16
819,13649.0,1.0,1.4000000000000001,1.6,2.5,2.5,11.100000000000001,-21.5,-24.400000000000002,15.2,16
820,13666.0,1.0,2.2,1.4000000000000001,1.9000000000000001,4.2,11.0,-33.6,-1.3,14.900000000000002,16
821,13683.0,-0.4,2.9000000000000004,3.0,0.8,3.4000000000000004,13.700000000000001,-49.3,18.2,28.0,16
822,13699.0,-0.9,1.9000000000000001,5.800000000000001,0.5,2.1,15.700000000000001,-38.800000000000004,23.2,45.2,16
823,13716.0,-1.0,0.8,6.5,0.7000000000000001,0.4,16.1,-9.9,12.5,56.400000000000006,16
824,13733.0,0.1,-0.7000000000000001,5.4,1.8,-0.5,14.3,19.1,-16.400000000000002,45.800000000000004,16
825,13749.0,0.5,-1.1,2.2,1.9000000000000001,-0.5,11.700000000000001,36.800000000000004,-34.6,26.200000000000003,16
826,13766.0,0.0,-0.9,1.0,1.4000000000000001,0.0,10.0,38.2,-34.400000000000006,10.5,16
827,13783.0,-0.6000000000000001,-0.4,-0.4,0.8,0.30000000000000004,9.3,32.7,-18.8,8.9,16
828,13799.0,-1.0,-0.4,-0.5,0.8,0.30000000000000004,9.3,32.7,-18.8,8.9,16
829,13816.0,-1.2000000000000002,-0.5,-0.2,0.4,0.30000000000000004,9.4,28.0,6.3,26.9,16
830,13833.0,-1.2000000000000002,-0.5,-0.8,0.5,0.5,8.6,28.6,-1.3,32.9,16
831,13850.0,-1.1,-0.4,-1.5,0.8,0.8,7.4,28.6,-1.3,32.9,16
832,13866.0,-0.8,-0.1,-2.9000000000000004,1.1,1.0,6.4,15.8,-25.1,38.7,16
833,13883.0,-0.6000000000000001,0.0,-3.6,1.3,1.0,5.9,8.600000000000001,-29.300000000000004,41.6,16
834,13899.0,-0.5,0.0,-3.8000000000000003,1.3,1.0,5.9,8.600000000000001,-29.300000000000004,41.6,16
835,13917.0,-0.30000000000000004,-0.1,-3.9000000000000004,1.7000000000000002,1.0,5.6000000000000005,6.2,-17.3,46.900000000000006,16
836,13933.0,-0.2,0.0,-4.0,1.9000000000000001,1.0,5.4,8.0,-6.3,47.300000000000004,16
837,13950.0,0.0,0.0,-4.1000000000000005,1.9000000000000001,1.0,5.4,8.0,-6.3,47.300000000000004,16
838,13966.0,0.0,-0.1,-3.4000000000000004,2.0,0.8,6.300000000000001,5.8,17.599999999999998,43.0,16
839,13983.0,-0.1,-0.30000000000000004,-2.3000000000000003,1.8,0.6000000000000001,7.300000000000001,6.6000000000000005,28.0,39.300000000000004,16
840,14000.0,-0.2,-0.4,-1.7000000000000002,1.6,0.4,8.3,8.4,32.5,34.0,16
841,14016.0,-0.2,-0.7000000000000001,-0.5,1.7000000000000002,0.30000000000000004,9.3,12.000000000000002,27.400000000000002,25.400000000000002,16
842,14033.0,-0.1,-0.7000000000000001,0.5,1.6,0.30000000000000004,9.9,17.1,15.100000000000001,13.0,16
843,14050.0,-0.2,-0.6000000000000001,0.6000000000000001,1.5,0.6000000000000001,10.0,20.3,-1.4,-1.3,16
844,14066.0,-0.4,-0.1,0.30000000000000004,1.4000000000000001,1.1,9.700000000000001,18.5,-15.9,-14.4,16
845,14083.0,-0.1,0.5,-0.1,1.8,1.7000000000000002,9.3,10.600000000000001,-19.8,-22.6,16
846,14099.0,0.4,0.7000000000000001,-0.30000000000000004,2.5,2.0,9.200000000000001,-3.5,-10.1,-29.700000000000003,16
847,14116.0,1.0,0.7000000000000001,0.5,2.9000000000000004,1.8,10.5,-17.400000000000002,10.5,-34.400000000000006,16
848,14133.0,1.2000000000000002,0.5,1.6,2.9000000000000004,1.8,10.5,-17.400000000000002,10.5,-34.400000000000006,16
849,14149.0,1.2000000000000002,0.0,3.6,2.8000000000000003,1.3,13.5,1.6,44.3,-56.2,16
850,14166.0,1.2000000000000002,0.6000000000000001,4.1000000000000005,2.6,2.4000000000000004,13.4,27.3,44.6,-77.9,16
851,14183.0,1.0,1.8,3.4000000000000004,1.9000000000000001,4.3,11.8,27.3,44.6,-77.9,16
852,14200.0,0.1,3.6,1.8,1.1,5.300000000000001,11.0,18.0,48.300000000000004,-81.7,16
853,14216.0,-0.5,3.4000000000000004,1.1,0.5,4.2,11.4,-21.8,45.9,-41.7,16
854,14233.0,-0.4,1.1,3.1,0.5,4.2,11.4,-21.8,45.9,-41.7,16
855,14249.0,0.6000000000000001,-2.1,6.5,2.1,-1.3,15.9,-13.4,31.900000000000002,6.000000000000001,16
856,14266.0,2.4000000000000004,-3.0,4.7,3.2,-1.5,13.8,37.900000000000006,19.500000000000004,-12.5,16
857,14283.0,2.4000000000000004,-2.8000000000000003,2.5,3.0,-0.9,10.0,72.6,-4.2,-42.7,16
858,14300.0,2.2,-2.1,-1.8,2.8000000000000003,0.0,7.2,67.5,-3.0000000000000004,-59.20000000000001,16
859,14316.0,1.9000000000000001,-1.6,-3.0,2.8000000000000003,0.0,7.2,67.5,-3.0000000000000004,-59.20000000000001,16
860,14333.0,1.4000000000000001,-0.7000000000000001,-3.6,1.7000000000000002,1.4000000000000001,6.6000000000000005,9.5,17.0,-62.300000000000004,16
861,14350.0,0.4,-0.6000000000000001,-2.3000000000000003,0.8,1.3,7.5,-7.8,28.1,-54.5,16
862,14366.0,-0.30000000000000004,-0.5,-1.8,0.0,1.4000000000000001,7.9,-12.5,41.300000000000004,-42.2,16
863,14383.0,-0.6000000000000001,-0.30000000000000004,-1.6,-0.4,1.6,8.0,-16.700000000000003,43.800000000000004,-27.3,16
864,14399.0,-0.8,-0.4,-1.8,-0.7000000000000001,1.3,7.7,-24.400000000000002,39.300000000000004,-11.5,16
865,14416.0,-0.9,-0.6000000000000001,-2.0,-0.7000000000000001,1.3,7.7,-29.500000000000004,31.8,2.1,16
866,14433.0,-0.7000000000000001,-0.8,-2.2,-0.5,0.8,7.2,-34.800000000000004,17.7,10.1,16
867,14449.0,-0.30000000000000004,-0.9,-2.7,-0.30000000000000004,0.7000000000000001,6.800000000000001,-39.1,5.500000000000001,11.9,16
868,14467.0,-0.2,-0.9,-3.0,-0.30000000000000004,0.7000000000000001,6.800000000000001,-39.1,5.500000000000001,11.9,16
869,14483.0,0.0,-0.6000000000000001,-3.5,0.0,0.8,6.0,-44.5,2.1999999999999997,7.6,16
870,14499.0,-0.1,-0.30000000000000004,-3.6,-0.30000000000000004,0.9,6.1000000000000005,-48.9,13.4,5.2,16
871,14517.0,-0.4,-0.1,-3.4000000000000004,-0.30000000000000004,0.9,6.1000000000000005,-48.9,13.4,5.2,16
872,14533.0,-0.8,0.2,-2.8000000000000003,-1.1,1.1,7.0,-47.1,32.7,10.5,16
873,14549.0,-0.8,0.2,-2.3000000000000003,-1.1,1.0,7.4,-40.3,37.2,15.2,16
874,14566.0,-0.6000000000000001,0.2,-2.0,-0.9,0.8,7.7,-33.0,39.300000000000004,16.6,16
875,14583.0,-0.30000000000000004,0.2,-1.8,-0.8,0.9,7.6000000000000005,-27.8,42.7,13.8,16
876,14599.0,-0.30000000000000004,0.4,-2.0,-0.7000000000000001,1.1,8.3,-25.1,48.1,9.700000000000001,16
877,14616.0,-0.2,0.6000000000000001,-1.1,-1.3,1.1,8.6,-27.5,46.300000000000004,7.6,16
878,14633.0,-0.6000000000000001,0.5,-1.2000000000000002,-1.5,0.8,8.9,-35.3,49.6,10.0,16
879,14649.0,-0.6000000000000001,0.4,-0.1,-1.6,0.8,10.4,-35.3,49.6,10.0,16
880,14666.0,-0.6000000000000001,0.6000000000000001,1.3,-1.7000000000000002,0.6000000000000001,11.100000000000001,-42.800000000000004,60.00000000000001,15.299999999999999,16
881,14686.0,-0.6000000000000001,0.0,2.4000000000000004,-2.1,-0.2,12.4,-44.2,49.6,12.9,16
882,14699.0,-0.9,-0.4,3.3000000000000003,-2.1,-0.2,12.4,-44.2,49.6,12.9,16
883,14716.0,-1.1,-0.5,5.4,-2.6,-0.6000000000000001,14.600000000000001,2.5,46.0,21.8,16
884,14733.0,-0.7000000000000001,-0.7000000000000001,3.8000000000000003,-2.5,-0.7000000000000001,13.0,32.7,55.0,25.1,16
885,14750.0,-0.5,-0.7000000000000001,3.1,-2.5,-0.7000000000000001,13.0,32.7,55.0,25.1,16
886,14767.0,-0.5,0.30000000000000004,1.7000000000000002,-3.0,0.6000000000000001,11.700000000000001,-1.3,101.4,21.900000000000002,16
887,14783.0,-1.3,0.5,4.5,-4.0,0.2,14.8,-46.0,103.0,31.0,16
888,14800.0,-1.5,-0.4,6.9,-4.0,0.2,14.8,-46.0,103.0,31.0,16
889,14816.0,-0.8,-1.7000000000000002,7.6000000000000005,-3.3000000000000003,-2.2,16.8,-17.7,50.1,52.6,16
890,14833.0,0.6000000000000001,-2.9000000000000004,5.7,-2.4000000000000004,-2.9000000000000004,14.3,26.8,-9.5,36.2,16
891,14849.0,0.6000000000000001,-2.9000000000000004,3.1,-2.2,-2.6,10.3,70.9,-42.1,4.800000000000001,16
892,14867.0,0.9,-2.5,-0.9,-1.9000000000000001,-1.9000000000000001,8.1,73.50000000000001,-30.100000000000005,-21.6,16
893,14883.0,0.7000000000000001,-1.5,-2.4000000000000004,-2.2,-0.9,7.0,49.4,-19.3,-39.400000000000006,16
894,14899.0,0.2,-0.8,-2.7,-3.1,0.4,7.2,11.5,-13.9,-42.300000000000004,16
895,14916.0,-1.0,0.7000000000000001,-1.7000000000000002,-3.8000000000000003,1.3,8.1,-18.7,-11.8,-29.000000000000004,16
896,14933.0,-1.3,1.2000000000000002,-0.1,-3.9000000000000004,1.5,9.5,-37.2,-20.7,-5.8,16
897,14949.0,-1.0,1.0,0.5,-3.2,0.8,10.0,-38.1,-49.9,12.8,16
898,14966.0,-0.2,0.1,0.2,-2.5,0.2,9.700000000000001,-35.3,-69.60000000000001,16.3,16
899,14983.0,0.0,0.0,0.0,-2.3000000000000003,0.1,8.9,-35.3,-69.60000000000001,16.3,16
900,15000.0,-0.30000000000000004,0.1,-1.3,-2.3000000000000003,0.2,7.9,-14.3,-96.7,5.6,16
901,15016.0,-0.7000000000000001,0.4,-2.4000000000000004,-2.3000000000000003,0.5,7.2,-11.9,-105.80000000000001,8.799999999999999,16
902,15033.0,-0.7000000000000001,0.6000000000000001,-2.7,-2.3000000000000003,0.5,7.2,-11.9,-105.80000000000001,8.799999999999999,16
903,15049.0,-0.4,0.30000000000000004,-3.8000000000000003,-1.4000000000000001,0.1,5.800000000000001,-8.700000000000001,-80.30000000000001,28.500000000000004,16
904,15066.0,-0.30000000000000004,0.2,-3.7,-1.0,0.30000000000000004,6.300000000000001,-12.100000000000001,-59.300000000000004,32.800000000000004,16
905,15083.0,0.0,0.6000000000000001,-3.2,-1.0,0.30000000000000004,6.300000000000001,-12.100000000000001,-59.300000000000004,32.800000000000004,16
906,15099.0,0.5,0.9,-2.5,-0.1,0.9,7.5,-7.1000000000000005,-36.0,24.7,16
907,15116.0,0.5,1.2000000000000002,-1.4000000000000001,-0.2,1.1,8.4,0.9,-27.0,9.4,16
908,15135.0,0.0,1.1,-1.0,-1.2000000000000002,1.1,8.8,12.5,-25.1,-1.2000000000000002,16
909,15149.0,-1.2000000000000002,1.0,-0.9,-1.6,0.9,9.0,19.3,-26.8,0.8,16
910,15167.0,-1.0,0.5,-0.4,-1.2000000000000002,0.5,9.200000000000001,19.9,-33.800000000000004,3.0000000000000004,16
911,15183.0,-0.6000000000000001,0.2,-0.6000000000000001,-0.30000000000000004,0.2,9.1,11.3,-46.300000000000004,-4.5,16
912,15199.0,0.0,0.2,-0.30000000000000004,-0.2,0.30000000000000004,9.3,-4.9,-55.900000000000006,-18.8,16
913,15216.0,-0.2,0.30000000000000004,-0.5,-0.2,0.6000000000000001,9.3,-4.9,-55.900000000000006,-18.8,16
914,15233.0,-0.30000000000000004,0.7000000000000001,0.2,0.1,0.4,10.5,-46.6,-40.1,-14.900000000000002,16
915,15249.0,0.30000000000000004,0.0,1.8,0.8,-0.4,11.9,-54.800000000000004,-15.000000000000002,-9.8,16
916,15266.0,0.8,-0.5,3.4000000000000004,1.1,-0.8,13.100000000000001,-46.5,5.1,-15.5,16
917,15283.0,0.8,-0.2,3.8000000000000003,0.9,0.1,13.4,-20.1,21.900000000000002,-29.800000000000004,16
918,15299.0,0.30000000000000004,2.1,2.8000000000000003,0.2,2.2,12.5,-12.200000000000001,36.4,-41.4,16
919,15316.0,-0.30000000000000004,3.5,2.6,-0.9,3.9000000000000004,13.100000000000001,-12.200000000000001,36.4,-41.4,16
920,15333.0,-1.1,4.5,3.8000000000000003,-1.2000000000000002,3.3000000000000003,14.200000000000001,-25.2,37.800000000000004,-24.400000000000002,16
921,15349.0,-0.9,1.4000000000000001,4.800000000000001,-0.8,0.2,14.600000000000001,-12.4,18.1,-7.6,16
922,15366.0,-0.2,-0.4,4.7,-0.8,0.2,14.600000000000001,-12.4,18.1,-7.6,16
923,15383.0,0.7000000000000001,-2.2,3.0,0.7000000000000001,-2.8000000000000003,12.200000000000001,45.3,8.5,-8.3,16
924,15399.0,0.5,-2.3000000000000003,0.7000000000000001,0.30000000000000004,-2.5,10.100000000000001,64.7,-9.5,-19.3,16
925,15416.0,0.30000000000000004,-2.0,-0.8,0.2,-1.8,7.7,69.10000000000001,-25.700000000000003,-21.400000000000002,16
926,15433.0,0.7000000000000001,-1.3,-3.1,1.3,-1.0,6.300000000000001,50.800000000000004,-26.8,-19.500000000000004,16
927,15449.0,1.8,-0.4,-4.2,1.7000000000000002,-0.2,5.7,18.6,-12.5,-25.700000000000003,16
928,15467.0,1.1,-0.1,-4.1000000000000005,0.8,0.6000000000000001,6.300000000000001,-19.8,5.0,-25.0,16
929,15483.0,0.6000000000000001,1.1,-2.2,0.4,1.1,8.4,-47.800000000000004,20.3,-10.1,16
930,15499.0,0.30000000000000004,1.2000000000000002,-0.8,0.2,0.7000000000000001,10.0,-47.800000000000004,20.3,-10.1,16
931,15516.0,0.30000000000000004,0.4,0.30000000000000004,0.30000000000000004,-0.4,10.0,-43.400000000000006,17.5,17.5,16
932,15533.0,0.5,-0.2,0.1,0.30000000000000004,-0.6000000000000001,9.8,-35.6,14.500000000000002,22.5,16
933,15550.0,0.4,-0.1,-0.2,0.30000000000000004,-0.6000000000000001,9.8,-35.6,14.500000000000002,22.5,16
934,15566.0,0.8,-0.5,-1.4000000000000001,0.9,-1.3,8.200000000000001,-22.6,-1.3,20.6,16
935,15583.0,1.2000000000000002,-1.1,-1.7000000000000002,1.0,-1.8,8.1,-21.0,-4.9,11.8,16
936,15599.0,1.1,-1.2000000000000002,-1.7000000000000002,1.0,-1.8,8.1,-21.0,-4.9,11.8,16
937,15616.0,0.7000000000000001,-0.7000000000000001,-1.7000000000000002,0.5,-1.1,8.1,-6.4,-7.699999999999999,-2.8,16
938,15633.0,0.7000000000000001,-0.2,-1.7000000000000002,0.5,-0.9,8.0,6.9,-5.500000000000001,-7.300000000000001,16
939,15649.0,0.6000000000000001,-0.2,-1.7000000000000002,0.5,-0.9,8.0,6.9,-5.500000000000001,-7.300000000000001,16
940,15666.0,0.2,-0.2,-1.7000000000000002,0.1,-0.7000000000000001,8.0,32.0,-3.3000000000000003,-14.100000000000001,16
941,15683.0,0.2,-0.1,-1.8,0.1,-0.6000000000000001,7.9,37.6,-11.6,-16.1,16
942,15700.0,0.0,-0.1,-1.8,-0.2,-0.30000000000000004,8.0,36.800000000000004,-23.2,-21.6,16
943,15716.0,-0.6000000000000001,0.1,-0.9,-0.6000000000000001,-0.2,9.700000000000001,33.7,-40.6,-25.700000000000003,16
944,15733.0,-0.8,0.1,0.5,-0.7000000000000001,-0.1,10.4,41.7,-59.5,-26.1,16
945,15750.0,-0.9,0.0,0.9,-0.30000000000000004,-0.2,10.600000000000001,53.50000000000001,-63.800000000000004,-24.8,16
946,15766.0,-0.6000000000000001,-0.4,0.6000000000000001,0.1,-0.30000000000000004,10.100000000000001,61.7,-73.8,-26.700000000000003,16
947,15783.0,-0.5,-0.6000000000000001,0.30000000000000004,0.4,-0.1,9.8,61.7,-73.8,-26.700000000000003,16
948,15800.0,-0.5,-0.4,0.30000000000000004,0.5,0.30000000000000004,10.4,55.4,-75.4,-30.000000000000004,16
949,15816.0,-0.6000000000000001,-0.2,1.2000000000000002,0.6000000000000001,0.4,11.100000000000001,42.1,-54.5,-21.200000000000003,16
950,15833.0,-0.6000000000000001,-0.2,1.7000000000000002,0.7000000000000001,0.6000000000000001,12.0,42.1,-54.5,-21.200000000000003,16
951,15854.0,-0.6000000000000001,0.30000000000000004,3.1,0.8,1.1,12.600000000000001,26.1,-20.1,-8.1,16
952,15866.0,-0.7000000000000001,0.8,2.8000000000000003,0.7000000000000001,2.0,12.200000000000001,24.000000000000004,-28.3,-6.7,16
953,15883.0,-0.8,1.5,2.3000000000000003,0.7000000000000001,2.0,12.200000000000001,16.8,-25.400000000000002,0.30000000000000004,16
954,15900.0,-1.0,2.9000000000000004,1.6,0.4,4.1000000000000005,11.700000000000001,-5.4,5.0,21.5,16
955,15916.0,-1.2000000000000002,2.4000000000000004,3.4000000000000004,0.1,2.8000000000000003,13.700000000000001,-29.400000000000002,38.6,50.7,16
956,15933.0,-1.4000000000000001,1.0,5.2,0.1,2.8000000000000003,13.700000000000001,-29.400000000000002,38.6,50.7,16
957,15949.0,-1.1,-1.8,6.7,0.4,-1.4000000000000001,15.8,1.4,-5.7,55.6,16
958,15966.0,-0.7000000000000001,-2.2,3.5,0.8,-1.2000000000000002,12.5,40.6,-50.9,29.1,16
959,15983.0,-0.6000000000000001,-1.7000000000000002,1.1,1.0,0.1,9.0,60.8,-62.900000000000006,14.3,16
960,16000.0,-1.0,-0.1,-2.0,0.6000000000000001,1.4000000000000001,7.4,59.9,-33.800000000000004,18.2,16
961,16016.0,-1.3,0.6000000000000001,-2.5,0.2,2.2,7.1000000000000005,51.300000000000004,12.5,36.1,16
962,16033.0,-1.6,1.0,-2.5,-0.1,2.1,7.5,37.2,48.9,58.7,16
963,16049.0,-1.6,0.4,-1.7000000000000002,0.0,1.6,8.200000000000001,19.200000000000003,55.300000000000004,71.9,16
964,16066.0,-1.4000000000000001,0.0,-1.3,0.30000000000000004,1.0,8.700000000000001,19.200000000000003,55.300000000000004,71.9,16
965,16083.0,-0.8,-0.6000000000000001,-1.0,0.8,0.7000000000000001,8.5,-6.000000000000001,-3.3000000000000003,67.0,16
966,16099.0,-0.30000000000000004,-0.6000000000000001,-1.6,1.3,0.7000000000000001,7.800000000000001,-10.700000000000001,-32.6,58.9,16
967,16116.0,-0.1,-0.6000000000000001,-2.0,1.3,0.7000000000000001,7.800000000000001,-10.700000000000001,-32.6,58.9,16
968,16133.0,-0.30000000000000004,-0.5,-2.4000000000000004,1.3,0.9,7.2,-0.8,-39.1,46.5,16
969,16149.0,-0.4,-0.30000000000000004,-2.4000000000000004,1.5,0.9,7.1000000000000005,16.400000000000002,-23.900000000000002,44.6,16
970,16166.0,-0.2,-0.4,-2.5,1.5,0.9,7.1000000000000005,16.400000000000002,-23.900000000000002,44.6,16
971,16183.0,0.1,-0.5,-3.0,2.1,0.7000000000000001,6.4,45.1,-4.9,39.2,16
972,16199.0,0.1,-0.6000000000000001,-2.8000000000000003,2.0,0.9,6.800000000000001,47.2,-2.3000000000000003,33.6,16
973,16216.0,0.0,-0.4,-2.3000000000000003,2.0,0.9,6.800000000000001,47.2,-2.3000000000000003,33.6,16
974,16233.0,-0.4,-0.2,-1.0,1.5,1.4000000000000001,8.700000000000001,44.5,-1.9,23.3,16
975,16249.0,-0.4,-0.2,0.0,1.7000000000000002,1.6,9.5,48.00000000000001,-4.6000000000000005,16.5,16
976,16266.0,-0.2,-0.2,0.5,2.0,1.7000000000000002,10.200000000000001,51.6,-17.5,6.6000000000000005,16
977,16283.0,0.0,-0.30000000000000004,1.0,2.1,1.9000000000000001,10.200000000000001,57.2,-29.300000000000004,-7.300000000000001,16
978,16299.0,-0.4,0.1,0.4,1.9000000000000001,2.5,9.600000000000001,61.50000000000001,-34.0,-18.1,16
979,16316.0,-0.2,0.6000000000000001,0.2,2.4000000000000004,3.4000000000000004,9.200000000000001,60.400000000000006,-32.2,-18.3,16
980,16333.0,0.6000000000000001,1.0,0.1,3.3000000000000003,3.5,9.200000000000001,53.400000000000006,-31.2,-16.400000000000002,16
981,16349.0,1.4000000000000001,0.7000000000000001,0.30000000000000004,3.9000000000000004,3.4000000000000004,9.4,39.400000000000006,-34.300000000000004,-16.2,16
982,16367.0,1.8,0.6000000000000001,0.7000000000000001,4.6000000000000005,3.2,10.3,17.200000000000003,-51.1,-19.8,16
983,16383.0,2.3000000000000003,0.4,2.2,5.1000000000000005,3.3000000000000003,11.4,3.8,-74.2,-29.500000000000004,16
984,16400.0,2.5,0.6000000000000001,2.7,5.5,3.6,11.8,3.8,-74.2,-29.500000000000004,16
985,16416.0,2.4000000000000004,1.1,2.7,5.2,4.6000000000000005,10.9,19.0,-94.80000000000001,-59.80000000000001,16
986,16433.0,1.7000000000000002,2.6,0.9,5.0,6.2,9.1,30.599999999999998,-73.10000000000001,-62.6,16
987,16449.0,1.6,3.7,-0.2,5.0,6.2,9.1,30.599999999999998,-73.10000000000001,-62.6,16
988,16466.0,2.3000000000000003,4.5,-1.0,5.5,6.9,8.6,-1.2000000000000002,9.200000000000001,-35.3,16
989,16483.0,0.9,0.6000000000000001,2.6,4.2,3.2,12.100000000000001,-25.8,17.5,-25.8,16
990,16500.0,0.9,-1.3,4.7,4.2,3.2,12.100000000000001,-25.8,17.5,-25.8,16
991,16516.0,1.1,-2.9000000000000004,5.300000000000001,4.4,0.4,12.8,10.600000000000001,-51.800000000000004,-49.7,16
992,16533.0,1.0,-2.2,1.1,4.4,1.5,8.9,33.800000000000004,-81.0,-68.3,16
993,16550.0,0.9,-1.4000000000000001,-1.3,4.4,3.0,5.5,33.400000000000006,-85.3,-76.4,16
994,16566.0,0.30000000000000004,-0.1,-3.9000000000000004,3.8000000000000003,3.8000000000000003,4.5,14.3,-66.2,-70.10000000000001,16
995,16583.0,0.7000000000000001,0.6000000000000001,-3.7,4.5,4.5,4.6000000000000005,-0.9,-31.3,-57.699999999999996,16
996,16599.0,0.9,0.9,-3.7,4.1000000000000005,4.7,4.9,-14.500000000000002,4.0,-55.1,16
997,16618.0,-0.5,0.5,-2.9000000000000004,2.9000000000000004,4.3,5.5,-28.200000000000003,34.7,-45.4,16
998,16633.0,-1.3,0.30000000000000004,-2.5,2.1,4.0,6.1000000000000005,-44.1,51.5,-31.0,16
999,16649.0,-1.6,0.0,-1.9000000000000001,1.6,3.2,6.800000000000001,-60.300000000000004,52.6,-16.5,16
1000,16666.0,-1.5,-1.1,-1.8,1.6,2.1,6.9,-75.5,35.0,-9.3,16
1001,16683.0,-1.5,-1.6,-1.7000000000000002,1.6,2.1,6.9,-75.5,35.0,-9.3,16
1002,16700.0,-1.2000000000000002,-1.9000000000000001,-2.1,1.9000000000000001,1.3,6.5,-85.2,5.500000000000001,-12.3,16
1003,16716.0,-1.2000000000000002,-1.5,-2.6,1.8,1.3,6.2,-73.9,8.4,-17.200000000000003,16
1004,16733.0,-1.2000000000000002,-1.5,-2.7,1.8,1.3,6.2,-73.9,8.4,-17.200000000000003,16
1005,16749.0,-1.3,-1.3,-3.3000000000000003,1.5,1.5,5.6000000000000005,-39.2,45.800000000000004,-21.6,16
1006,16766.0,-1.2000000000000002,-1.0,-3.2,1.4000000000000001,1.5,5.800000000000001,-29.000000000000004,55.6,-23.3,16
1007,16783.0,-1.3,-1.0,-2.9000000000000004,1.4000000000000001,1.5,5.800000000000001,-29.000000000000004,55.6,-23.3,16
1008,16800.0,-1.3,-1.2000000000000002,-1.6,1.2000000000000002,1.3,8.0,-15.2,47.300000000000004,-26.3,16
1009,16816.0,-0.6000000000000001,-1.0,-0.4,1.6,1.5,8.700000000000001,-7.8,29.700000000000003,-29.200000000000003,16
1010,16833.0,-0.5,-0.7000000000000001,-0.4,1.5,2.1,8.6,-2.9,13.200000000000001,-30.000000000000004,16
1011,16849.0,-0.6000000000000001,0.0,-0.6000000000000001,1.5,2.5,8.4,-3.1,5.300000000000001,-24.3,16
1012,16866.0,-0.30000000000000004,0.4,-0.5,1.8,2.8000000000000003,8.700000000000001,-9.5,3.9,-15.7,16
1013,16885.0,0.1,0.2,1.0,2.0,2.6,10.0,-15.2,6.9,-6.9,16
1014,16899.0,0.4,0.2,1.6,2.5,2.6,10.9,-15.000000000000002,2.8,-1.9,16
1015,16916.0,0.7000000000000001,0.30000000000000004,2.1,2.8000000000000003,2.6,11.3,-14.200000000000001,-2.4000000000000004,0.30000000000000004,16
1016,16932.0,0.9,0.30000000000000004,2.6,3.0,2.5,12.200000000000001,-15.5,-6.8,0.4,16
1017,16949.0,1.2000000000000002,0.30000000000000004,3.5,3.3000000000000003,2.6,12.700000000000001,-12.000000000000002,-9.200000000000001,-0.4,16
1018,16966.0,1.4000000000000001,0.4,3.5,3.5,2.9000000000000004,12.600000000000001,-4.7,-7.9,-2.5,16
1019,16983.0,1.4000000000000001,0.8,3.3000000000000003,3.4000000000000004,3.3000000000000003,12.100000000000001,4.3999999999999995,-0.5,-4.2,16
1020,16999.0,1.1,1.5,2.0,3.3000000000000003,3.9000000000000004,11.200000000000001,2.1999999999999997,13.100000000000001,-0.2,16
1021,17016.0,1.2000000000000002,1.8,1.8,3.3000000000000003,3.9000000000000004,11.200000000000001,2.1999999999999997,13.100000000000001,-0.2,16
1022,17033.0,0.7000000000000001,1.4000000000000001,3.7,2.6,3.2,13.8,-27.2,12.5,10.0,16
1023,17049.0,0.5,0.5,5.300000000000001,2.5,2.5,14.5,-17.5,-12.5,10.4,16
1024,17066.0,0.4,0.2,5.0,2.5,2.5,14.5,-17.5,-12.5,10.4,16
1025,17083.0,0.6000000000000001,0.2,2.0,2.9000000000000004,2.5,10.200000000000001,25.400000000000002,-56.400000000000006,-1.8,16
1026,17099.0,0.4,0.4,-1.0,2.7,2.8000000000000003,7.9,31.099999999999998,-51.5,-8.9,16
1027,17116.0,0.1,0.6000000000000001,-2.1,2.2,3.2,6.7,23.2,-26.500000000000004,-10.700000000000001,16
1028,17133.0,-0.8,0.9,-2.3000000000000003,1.4000000000000001,3.3000000000000003,7.2,10.1,5.1,-4.2,16
1029,17149.0,-1.6,0.7000000000000001,-1.3,0.8,3.1,8.0,1.7,29.600000000000005,8.200000000000001,16
1030,17166.0,-1.7000000000000002,0.6000000000000001,-1.0,0.6000000000000001,2.9000000000000004,8.3,-2.1,37.6,21.400000000000002,16
1031,17183.0,-1.6,0.30000000000000004,-1.0,0.7000000000000001,2.7,8.1,-6.9,27.3,32.4,16
1032,17199.0,-1.4000000000000001,0.30000000000000004,-1.2000000000000002,1.1,2.5,7.6000000000000005,-6.9,27.3,32.4,16
1033,17216.0,-1.1,0.2,-1.9000000000000001,1.3,2.4000000000000004,7.0,-18.1,-8.1,43.900000000000006,16
1034,17233.0,-0.7000000000000001,-0.1,-2.7,1.7000000000000002,2.1,6.300000000000001,-23.8,-19.8,46.300000000000004,16
1035,17250.0,-0.4,-0.1,-3.3000000000000003,2.1,1.9000000000000001,5.9,-28.1,-25.1,46.1,16
1036,17266.0,-0.30000000000000004,-0.2,-3.5,2.4000000000000004,1.6,5.7,-28.3,-20.1,43.2,16
1037,17283.0,0.0,-0.5,-3.3000000000000003,2.6,1.3,5.9,-24.000000000000004,-9.200000000000001,36.9,16
1038,17299.0,0.1,-0.6000000000000001,-3.2,2.6,1.3,5.9,-24.000000000000004,-9.200000000000001,36.9,16
1039,17316.0,0.1,-0.5,-2.6,2.6,1.2000000000000002,7.4,-10.0,19.8,19.3,16
1040,17333.0,-0.2,-0.5,-0.30000000000000004,2.2,1.2000000000000002,9.200000000000001,3.2,26.6,11.3,16
1041,17350.0,-0.4,-0.5,0.30000000000000004,2.2,1.2000000000000002,9.200000000000001,3.2,26.6,11.3,16
1042,17366.0,-0.30000000000000004,-0.5,0.4,2.1,1.5,9.5,25.8,4.0,-2.4000000000000004,16
1043,17384.0,-0.2,0.0,0.30000000000000004,2.3000000000000003,1.9000000000000001,9.600000000000001,23.400000000000002,-15.299999999999999,-8.600000000000001,16
1044,17399.0,-0.1,0.1,0.6000000000000001,2.6,2.0,10.3,19.700000000000003,-33.0,-15.5,16
1045,17416.0,0.4,0.0,1.6,3.1,2.2,10.9,21.1,-50.1,-28.900000000000002,16
1046,17433.0,0.6000000000000001,0.30000000000000004,1.9000000000000001,3.2,2.9000000000000004,11.0,21.1,-50.1,-28.900000000000002,16
1047,17449.0,0.30000000000000004,1.1,1.8,3.1,3.6,10.600000000000001,28.6,-50.0,-44.4,16
1048,17466.0,0.5,1.6,1.6,3.8000000000000003,3.8000000000000003,10.9,22.1,-35.0,-36.0,16
1049,17483.0,1.6,0.8,3.0,4.800000000000001,3.1,12.100000000000001,12.700000000000001,-29.200000000000003,-35.1,16
1050,17499.0,2.3000000000000003,0.5,4.0,5.6000000000000005,3.2,13.200000000000001,13.0,-41.4,-50.9,16
1051,17516.0,2.5,1.2000000000000002,3.6,5.5,4.2,11.9,21.6,-50.6,-70.3,16
1052,17533.0,2.2,1.9000000000000001,2.5,5.5,4.2,11.9,21.6,-50.6,-70.3,16
1053,17550.0,1.6,2.2,0.9,4.7,4.5,9.9,7.2,-30.9,-61.0,16
1054,17566.0,1.4000000000000001,0.5,1.8,4.9,2.9000000000000004,11.0,-4.800000000000001,-24.5,-49.6,16
1055,17583.0,1.7000000000000002,-0.5,2.6,4.9,2.9000000000000004,11.0,-4.800000000000001,-24.5,-49.6,16
1056,17600.0,1.3,-1.4000000000000001,2.5,4.3,1.3,10.9,31.7,-19.0,-59.400000000000006,16
1057,17616.0,1.1,-2.2,0.7000000000000001,4.4,1.1,8.4,54.800000000000004,-27.400000000000002,-67.1,16
1058,17633.0,0.9,-2.0,-1.7000000000000002,4.4,1.1,8.4,54.800000000000004,-27.400000000000002,-67.1,16
1059,17649.0,0.30000000000000004,-0.1,-4.1000000000000005,3.5,3.9000000000000004,4.0,29.200000000000003,-25.2,-63.300000000000004,16
1060,17669.0,-0.2,0.6000000000000001,-4.800000000000001,3.1,4.2,3.8000000000000003,-3.5,-7.400000000000001,-46.2,16
1061,17683.0,-0.30000000000000004,0.5,-4.5,2.8000000000000003,4.1000000000000005,4.6000000000000005,-36.5,11.000000000000002,-25.6,16
1062,17699.0,-0.7000000000000001,0.30000000000000004,-3.1,2.5,3.5,6.1000000000000005,-58.800000000000004,26.200000000000003,-5.300000000000001,16
1063,17716.0,-0.8,-0.7000000000000001,-1.4000000000000001,2.4000000000000004,2.5,7.4,-68.9,32.6,11.5,16
1064,17733.0,-0.7000000000000001,-1.1,-0.8,2.5,1.7000000000000002,8.1,-69.7,26.3,21.700000000000003,16
1065,17749.0,-0.4,-1.5,-0.8,2.7,1.4000000000000001,7.6000000000000005,-66.5,15.399999999999999,25.8,16
1066,17766.0,-0.2,-1.4000000000000001,-1.8,2.9000000000000004,1.3,7.0,-68.2,8.799999999999999,27.6,16
1067,17783.0,-0.30000000000000004,-1.2000000000000002,-1.9000000000000001,2.8000000000000003,1.3,7.0,-73.7,4.9,29.800000000000004,16
1068,17799.0,-0.30000000000000004,-1.2000000000000002,-1.7000000000000002,2.8000000000000003,1.1,7.300000000000001,-74.30000000000001,3.3000000000000003,31.8,16
1069,17816.0,-0.30000000000000004,-1.1,-1.6,2.8000000000000003,1.1,7.300000000000001,-74.30000000000001,3.3000000000000003,31.8,16
1070,17833.0,0.0,-1.1,-1.8,3.1,0.8,7.0,-60.599999999999994,8.700000000000001,27.3,16
1071,17849.0,0.0,-0.9,-2.1,3.1,0.8,6.9,-53.7,15.299999999999999,18.2,16
1072,17866.0,0.0,-0.8,-2.1,3.1,0.8,6.9,-47.0,23.400000000000002,7.9,16
1073,17883.0,-0.1,-0.4,-1.4000000000000001,2.8000000000000003,1.0,8.200000000000001,-35.9,27.900000000000002,-1.8,16
1074,17900.0,-0.1,-0.4,-0.30000000000000004,2.7,1.0,8.8,-19.0,25.2,-12.4,16
1075,17916.0,-0.1,-0.30000000000000004,-0.30000000000000004,2.7,1.0,8.8,-19.0,25.2,-12.4,16
1076,17933.0,0.0,0.0,-0.8,2.6,1.5,8.3,3.3000000000000003,14.500000000000002,-28.0,16
1077,17949.0,-0.4,0.4,-0.7000000000000001,2.2,1.9000000000000001,8.6,2.9,13.4,-27.400000000000002,16
1078,17966.0,-0.5,0.6000000000000001,-0.2,2.3000000000000003,2.0,9.4,1.3,12.8,-20.6,16
1079,17983.0,-0.2,0.4,1.0,2.5,1.7000000000000002,10.600000000000001,0.7,5.0,-14.100000000000001,16
1080,17999.0,0.1,0.0,2.2,2.7,1.5,11.5,2.8,-8.9,-11.2,16
1081,18016.0,0.0,0.1,2.4000000000000004,2.6,1.7000000000000002,11.700000000000001,5.4,-18.7,-7.500000000000001,16
1082,18033.0,-0.1,0.4,2.6,2.7,1.9000000000000001,12.0,3.7000000000000006,-19.9,2.0,16
1083,18049.0,0.2,0.5,3.4000000000000004,3.0,2.1,12.700000000000001,1.0999999999999999,-23.1,13.0,16
1084,18067.0,0.30000000000000004,0.6000000000000001,3.7,3.1,2.1,12.9,2.0,-27.2,24.3,16
1085,18083.0,0.4,0.6000000000000001,3.5,3.4000000000000004,2.2,12.5,2.0,-26.500000000000004,37.6,16
1086,18099.0,0.6000000000000001,0.7000000000000001,3.1,3.4000000000000004,2.2,12.5,-5.7,-20.6,52.400000000000006,16
1087,18116.0,1.2000000000000002,0.4,3.1,4.5,1.4000000000000001,12.9,-19.0,-17.3,63.50000000000001,16
1088,18133.0,1.3,-0.2,4.7,4.4,0.9,14.0,-19.8,-24.3,66.60000000000001,16
1089,18149.0,1.1,-0.5,4.9,4.4,0.9,14.0,-19.8,-24.3,66.60000000000001,16
1090,18166.0,2.1,-2.1,4.6000000000000005,5.300000000000001,-1.0,12.600000000000001,29.800000000000004,-66.5,34.50000000000001,16
1091,18182.0,1.4000000000000001,-1.5,1.2000000000000002,5.0,-0.1,9.5,54.0,-82.10000000000001,3.7000000000000006,16
1092,18199.0,1.1,-1.2000000000000002,-0.6000000000000001,5.0,-0.1,9.5,54.0,-82.10000000000001,3.7000000000000006,16
1093,18216.0,-0.1,-0.6000000000000001,-2.9000000000000004,3.7,1.3,6.0,58.60000000000001,-32.6,-27.900000000000002,16
1094,18233.0,-1.0,0.0,-2.3000000000000003,2.7,1.9000000000000001,6.7,50.800000000000004,10.4,-30.100000000000005,16
1095,18250.0,-1.8,0.30000000000000004,-1.6,2.7,1.9000000000000001,6.7,50.800000000000004,10.4,-30.100000000000005,16
1096,18266.0,-2.9000000000000004,0.6000000000000001,-0.8,0.6000000000000001,2.6,8.200000000000001,45.3,66.0,-10.5,16
1097,18283.0,-3.4000000000000004,0.4,-0.6000000000000001,0.1,2.6,8.200000000000001,39.8,60.900000000000006,6.1000000000000005,16
1098,18299.0,-3.3000000000000003,0.4,-0.8,0.30000000000000004,2.6,7.800000000000001,34.2,40.8,21.3,16
1099,18316.0,-2.7,0.2,-1.9000000000000001,0.8,2.4000000000000004,6.5,29.300000000000004,24.8,33.1,16
1100,18332.0,-2.1,0.0,-3.1,1.3,2.3000000000000003,5.7,21.1,14.200000000000001,41.9,16
1101,18349.0,-1.8,-0.1,-3.4000000000000004,1.7000000000000002,2.0,5.300000000000001,11.3,-3.0000000000000004,47.1,16
1102,18366.0,-1.5,-0.4,-3.4000000000000004,1.8,1.9000000000000001,5.6000000000000005,9.600000000000001,-4.300000000000001,49.4,16
1103,18385.0,-1.2000000000000002,-0.5,-2.7,2.2,1.8,6.1000000000000005,17.9,9.5,52.900000000000006,16
1104,18399.0,-0.9,-0.6000000000000001,-2.5,2.6,1.8,6.4,28.900000000000002,16.900000000000002,49.2,16
1105,18416.0,-0.7000000000000001,-0.2,-2.7,2.6,2.3000000000000003,5.800000000000001,34.7,16.400000000000002,43.6,16
1106,18432.0,-0.6000000000000001,0.30000000000000004,-3.2,2.7,2.7,5.6000000000000005,29.400000000000002,23.8,42.0,16
1107,18449.0,-0.4,0.5,-2.6,2.7,3.0,6.9,20.0,30.000000000000004,39.2,16
1108,18466.0,-0.7000000000000001,0.5,-0.7000000000000001,2.4000000000000004,2.9000000000000004,8.200000000000001,18.3,36.3,33.400000000000006,16
1109,18483.0,-0.8,0.4,-0.2,2.5,3.0,9.0,20.4,42.0,23.900000000000002,16
1110,18499.0,-0.30000000000000004,0.8,1.1,2.8000000000000003,3.3000000000000003,10.3,22.3,34.50000000000001,9.1,16
1111,18516.0,-0.1,1.0,1.6,2.8000000000000003,3.7,10.3,25.6,26.6,-5.500000000000001,16
1112,18533.0,-0.1,1.3,1.4000000000000001,2.8000000000000003,3.7,10.3,25.6,26.6,-5.500000000000001,16
1113,18549.0,-0.2,1.6,0.6000000000000001,2.8000000000000003,4.3,9.4,15.5,16.2,-17.9,16
1114,18566.0,0.7000000000000001,1.4000000000000001,0.7000000000000001,3.6,4.0,9.700000000000001,-1.5000000000000002,4.2,-12.700000000000001,16
1115,18583.0,1.2000000000000002,1.0,1.1,4.6000000000000005,3.5,10.4,-17.3,-0.4,-11.8,16
1116,18599.0,2.4000000000000004,0.6000000000000001,2.1,5.4,3.1,11.3,-25.900000000000002,-5.2,-22.3,16
1117,18616.0,2.9000000000000004,0.1,3.2,5.7,2.9000000000000004,12.3,-25.1,-10.2,-43.50000000000001,16
1118,18632.0,3.0,0.6000000000000001,3.6,5.6000000000000005,3.9000000000000004,12.100000000000001,-9.9,-15.299999999999999,-71.5,16
1119,18649.0,2.2,2.2,2.2,4.5,5.2,10.8,10.600000000000001,1.8,-88.9,16
1120,18666.0,0.7000000000000001,2.9000000000000004,1.4000000000000001,3.2,5.7,10.5,19.6,35.0,-84.9,16
1121,18682.0,0.2,2.5,2.0,2.4000000000000004,4.800000000000001,11.8,20.0,52.2,-65.5,16
1122,18699.0,-0.1,0.5,3.6,2.2,3.1,12.700000000000001,31.0,47.400000000000006,-47.1,16
1123,18716.0,0.6000000000000001,-1.3,2.5,2.7,2.0,11.4,49.0,24.6,-38.5,16
1124,18732.0,0.7000000000000001,-1.2000000000000002,1.4000000000000001,2.6,2.4000000000000004,9.5,51.900000000000006,-5.7,-37.900000000000006,16
1125,18749.0,0.7000000000000001,-0.9,-1.5,2.9000000000000004,2.9000000000000004,7.0,40.0,-36.5,-30.100000000000005,16
1126,18766.0,0.9,-0.4,-2.7,2.9000000000000004,2.9000000000000004,7.0,40.0,-36.5,-30.100000000000005,16
1127,18783.0,0.6000000000000001,0.7000000000000001,-3.2,2.6,4.3,6.1000000000000005,-30.100000000000005,-46.6,-10.0,16
1128,18800.0,0.0,0.6000000000000001,-1.8,2.5,3.9000000000000004,7.4,-53.2,-25.5,11.000000000000002,16
1129,18816.0,0.1,0.2,-0.9,2.5,3.9000000000000004,7.4,-53.2,-25.5,11.000000000000002,16
1130,18833.0,0.2,-1.1,0.30000000000000004,2.6,1.6,9.1,-55.6,16.0,35.199999999999996,16
1131,18849.0,0.0,-1.3,0.6000000000000001,2.4000000000000004,1.6,9.5,-49.9,13.8,32.2,16
1132,18867.0,-0.2,-1.1,0.2,2.2,1.6,8.200000000000001,-32.9,-6.3,29.1,16
1133,18883.0,-0.5,-1.3,-1.8,1.9000000000000001,1.4000000000000001,6.9,-30.4,-11.2,23.400000000000002,16
1134,18901.0,-0.9,-1.1,-2.6,1.7000000000000002,1.4000000000000001,6.5,-36.3,-11.1,19.500000000000004,16
1135,18916.0,-1.0,-1.2000000000000002,-2.4000000000000004,1.5,1.2000000000000002,8.1,-30.7,3.4,16.8,16
1136,18932.0,-1.0,-1.5,-0.4,1.5,0.8,8.3,-11.4,-6.1000000000000005,10.9,16
1137,18949.0,-1.1,-1.5,-1.9000000000000001,1.5,1.0,7.0,10.3,-16.0,0.1,16
1138,18966.0,-1.0,-1.3,-2.7,1.7000000000000002,1.2000000000000002,5.800000000000001,18.6,-16.0,-9.8,16
1139,18983.0,-1.1,-1.1,-3.5,1.6,1.5,5.6000000000000005,14.0,-13.100000000000001,-19.500000000000004,16
1140,18999.0,-1.2000000000000002,-0.9,-3.2,1.6,1.5,5.6000000000000005,14.0,-13.100000000000001,-19.500000000000004,16
1141,19016.0,-1.3,-0.4,-2.5,1.5,2.3000000000000003,6.6000000000000005,6.000000000000001,-14.3,-24.400000000000002,16
1142,19033.0,-1.1,-0.2,-1.9000000000000001,1.7000000000000002,2.4000000000000004,7.1000000000000005,2.8,-15.100000000000001,-19.9,16
1143,19049.0,-0.9,-0.1,-1.5,1.7000000000000002,2.4000000000000004,7.1000000000000005,2.8,-15.100000000000001,-19.9,16
1144,19066.0,-0.1,0.0,-0.2,2.8000000000000003,2.7,9.4,-15.299999999999999,-25.0,-13.100000000000001,16
1145,19083.0,0.1,0.2,1.9000000000000001,3.0,2.7,11.0,-16.700000000000003,-24.200000000000003,-10.4,16
1146,19100.0,0.2,0.2,2.6,3.0,2.7,11.0,-16.700000000000003,-24.200000000000003,-10.4,16
1147,19116.0,0.7000000000000001,0.5,3.5,3.8000000000000003,3.0,12.600000000000001,-10.2,-25.6,-2.3000000000000003,16
1148,19132.0,1.1,0.6000000000000001,4.4,4.2,3.2,13.3,-4.800000000000001,-29.900000000000006,-3.8,16
1149,19151.0,1.3,0.8,4.6000000000000005,4.5,3.8000000000000003,13.100000000000001,7.9,-39.1,-11.700000000000001,16
1150,19166.0,1.3,1.9000000000000001,3.4000000000000004,4.3,4.9,11.8,21.700000000000003,-41.6,-19.3,16
1151,19183.0,0.5,3.2,2.0,3.8000000000000003,6.0,10.700000000000001,27.8,-30.4,-17.1,16
1152,19199.0,0.2,3.7,1.6,3.4000000000000004,6.6000000000000005,10.700000000000001,24.6,-7.500000000000001,-2.1,16
1153,19216.0,-0.1,3.3000000000000003,2.8000000000000003,3.2,5.6000000000000005,12.100000000000001,22.000000000000004,17.1,22.000000000000004,16
1154,19232.0,-0.1,0.9,4.6000000000000005,3.3000000000000003,3.5,13.5,31.2,29.1,43.50000000000001,16
1155,19249.0,0.2,-0.5,5.0,3.7,1.5,13.5,49.3,11.6,47.800000000000004,16
1156,19266.0,0.6000000000000001,-2.3000000000000003,3.5,4.0,0.7000000000000001,11.4,65.89999999999999,-21.0,33.300000000000004,16
1157,19283.0,0.6000000000000001,-2.4000000000000004,1.8,4.0,0.7000000000000001,11.4,65.89999999999999,-21.0,33.300000000000004,16
1158,19299.0,0.2,-1.7000000000000002,-0.9,3.5,2.0,7.300000000000001,61.7,-34.50000000000001,-1.4,16
1159,19316.0,-0.5,-0.8,-1.4000000000000001,3.0,2.8000000000000003,7.1000000000000005,53.7,-5.7,-5.8,16
1160,19333.0,-0.7000000000000001,-0.6000000000000001,-1.4000000000000001,3.0,2.8000000000000003,7.1000000000000005,53.7,-5.7,-5.8,16
1161,19349.0,-1.2000000000000002,-0.5,-1.6,2.1,3.1,7.0,38.6,54.6,5.7,16
1162,19366.0,-1.5,-1.0,-1.3,1.8,2.8000000000000003,7.1000000000000005,30.200000000000003,61.4,13.100000000000001,16
1163,19385.0,-1.5,-1.0,-1.6,1.8,2.8000000000000003,7.1000000000000005,30.200000000000003,61.4,13.100000000000001,16
1164,19399.0,-1.6,-0.9,-2.5,1.5,3.0,5.800000000000001,12.9,46.7,21.700000000000003,16
1165,19416.0,-1.6,-0.9,-3.1,1.4000000000000001,3.0,5.300000000000001,0.6000000000000001,32.4,24.5,16
1166,19432.0,-1.5,-0.9,-3.4000000000000004,1.5,2.9000000000000004,4.9,-12.000000000000002,17.8,27.1,16
1167,19449.0,-1.4000000000000001,-0.9,-3.6,1.4000000000000001,2.7,5.1000000000000005,-21.0,10.0,28.200000000000003,16
1168,19466.0,-1.4000000000000001,-1.0,-2.9000000000000004,1.5,2.6,5.7,-20.900000000000002,9.3,29.000000000000004,16
1169,19483.0,-1.3,-1.0,-2.5,1.7000000000000002,2.5,6.4,-12.100000000000001,13.100000000000001,28.6,16
1170,19499.0,-1.0,-1.1,-1.6,2.0,2.4000000000000004,7.0,-0.30000000000000004,17.599999999999998,25.400000000000002,16
1171,19516.0,-0.5,-0.9,-1.4000000000000001,2.4000000000000004,2.7,7.2,7.699999999999999,18.0,18.900000000000002,16
1172,19532.0,-0.30000000000000004,-0.7000000000000001,-1.1,2.7,2.8000000000000003,7.800000000000001,8.799999999999999,13.5,12.6,16
1173,19549.0,0.1,-0.7000000000000001,0.1,3.0,2.8000000000000003,8.8,10.3,1.6,4.800000000000001,16
1174,19566.0,0.2,-0.7000000000000001,0.6000000000000001,3.0,2.8000000000000003,8.8,10.3,1.6,4.800000000000001,16
1175,19582.0,0.4,-0.4,0.7000000000000001,3.3000000000000003,3.5,9.1,22.4,-20.8,-15.299999999999999,16
1176,19599.0,0.4,0.30000000000000004,0.6000000000000001,3.3000000000000003,4.1000000000000005,9.0,24.7,-23.5,-22.5,16
1177,19616.0,0.30000000000000004,0.6000000000000001,0.5,3.3000000000000003,4.1000000000000005,9.0,24.7,-23.5,-22.5,16
1178,19633.0,0.5,1.2000000000000002,0.2,3.8000000000000003,5.1000000000000005,8.6,9.0,-29.1,-15.5,16
1179,19649.0,1.3,1.2000000000000002,0.6000000000000001,4.5,4.9,9.200000000000001,-12.000000000000002,-28.1,-7.8,16
1180,19667.0,1.7000000000000002,0.9,1.5,5.2,4.2,11.0,-12.000000000000002,-28.1,-7.8,16
1181,19683.0,2.3000000000000003,0.30000000000000004,3.5,5.7,4.0,12.200000000000001,-35.3,-29.000000000000004,-11.000000000000002,16
