,ms,accelX,accelY,accelZ,accelWithGX,accelWithGY,accelWithGZ,rotRateAlpha,rotRateBeta,rotRateGamma,interval
0,161.0,0.0,0.0,0.1,0.30000000000000004,2.7,9.4,-0.2,0.2,-1.4,16
1,171.0,0.0,-0.1,0.0,0.30000000000000004,2.7,9.4,0.30000000000000004,0.6000000000000001,-1.6,16
2,188.0,-0.1,-0.1,-0.1,0.30000000000000004,2.7,9.3,-0.1,0.30000000000000004,-0.8,16
3,204.0,-0.1,0.0,0.0,0.30000000000000004,2.7,9.3,-0.5,-0.4,-0.2,16
4,221.0,0.0,0.0,0.0,0.30000000000000004,2.7,9.4,-1.1,-0.9000000000000001,-0.30000000000000004,16
5,238.0,0.0,0.0,0.1,0.30000000000000004,2.7,9.4,-2.1,0.8,-0.30000000000000004,16
6,254.0,0.0,0.0,0.1,0.30000000000000004,2.7,9.4,-2.4000000000000004,2.2,0.0,16
7,272.0,0.0,0.0,0.1,0.30000000000000004,2.7,9.4,-0.30000000000000004,1.9,0.30000000000000004,16
8,288.0,0.0,-0.1,-0.2,0.30000000000000004,2.7,9.1,2.0,0.2,0.0,16
9,304.0,-0.1,0.0,-0.2,0.2,2.7,9.1,1.4,-1.1,0.30000000000000004,16
10,321.0,0.0,0.0,0.0,0.30000000000000004,2.7,9.3,-1.7,-2.9,1.7,16
11,338.0,0.1,0.0,0.2,0.4,2.8000000000000003,9.5,-3.1,-0.30000000000000004,1.2000000000000002,16
12,354.0,0.1,0.1,0.2,0.30000000000000004,2.8000000000000003,9.5,-2.9,1.6,0.4,16
13,372.0,0.0,0.0,0.1,0.30000000000000004,2.7,9.4,-1.9,3.3000000000000007,0.0,16
14,388.0,0.0,0.0,0.0,0.30000000000000004,2.7,9.4,-0.30000000000000004,1.4,0.9000000000000001,16
15,404.0,0.0,0.0,0.0,0.30000000000000004,2.7,9.4,0.9000000000000001,-0.9000000000000001,1.4,16
16,421.0,0.1,0.0,0.0,0.4,2.7,9.3,1.2000000000000002,-0.9000000000000001,1.3,16
17,438.0,0.1,0.0,-0.2,0.4,2.8000000000000003,9.200000000000001,0.0,0.5,0.30000000000000004,16
18,454.0,0.0,0.0,-0.1,0.30000000000000004,2.8000000000000003,9.200000000000001,-1.6,0.7,-0.2,16
19,472.0,0.0,0.0,0.0,0.30000000000000004,2.7,9.4,-3.6000000000000005,0.1,0.1,16
20,488.0,0.1,0.0,0.2,0.4,2.7,9.600000000000001,-2.4000000000000004,-0.2,0.6000000000000001,16
21,504.0,0.1,0.1,0.1,0.4,2.8000000000000003,9.5,-0.4,0.8,0.7,16
22,521.0,0.0,0.2,0.1,0.30000000000000004,2.9000000000000004,9.4,0.2,0.8,0.4,16
23,538.0,0.0,0.1,0.0,0.30000000000000004,2.8000000000000003,9.4,-0.30000000000000004,-0.2,-0.2,16
24,554.0,0.1,0.1,0.1,0.4,2.8000000000000003,9.5,-1.3,-0.30000000000000004,-0.5,16
25,572.0,0.1,0.1,0.1,0.4,2.8000000000000003,9.5,-1.3,0.2,-0.8,16
26,588.0,0.0,0.1,0.1,0.30000000000000004,2.8000000000000003,9.5,-0.6000000000000001,0.9000000000000001,-1.9,16
27,604.0,-0.1,0.0,0.0,0.2,2.7,9.4,-0.2,1.4,-2.1,16
28,621.0,-0.1,-0.1,0.0,0.2,2.6,9.4,-0.2,0.9000000000000001,-1.5,16
29,638.0,-0.1,-0.1,-0.1,0.2,2.6,9.3,-0.2,1.1,-0.7,16
30,654.0,-0.1,-0.1,-0.1,0.2,2.6,9.3,-0.2,0.0,0.4,16
31,672.0,0.0,-0.1,-0.1,0.30000000000000004,2.6,9.3,-0.30000000000000004,-0.4,0.9000000000000001,16
32,688.0,0.0,-0.1,-0.1,0.30000000000000004,2.6,9.3,-0.9000000000000001,-0.5,1.1,16
33,704.0,0.0,0.0,0.0,0.30000000000000004,2.6,9.3,-1.9,0.0,0.8,16
34,721.0,0.0,0.0,0.0,0.30000000000000004,2.7,9.3,-2.1,0.2,0.7,16
35,738.0,0.0,0.0,0.1,0.30000000000000004,2.7,9.4,-2.7,0.9000000000000001,1.0,16
36,754.0,0.1,0.0,0.1,0.4,2.7,9.5,-1.9,0.7,0.9000000000000001,16
37,772.0,0.1,0.0,0.0,0.4,2.7,9.4,-1.1,0.9000000000000001,0.30000000000000004,16
38,788.0,0.0,0.0,-0.2,0.2,2.7,9.1,-1.8000000000000003,1.0,-0.7,16
39,804.0,-0.1,0.0,-0.2,0.1,2.7,9.1,-5.6,-1.6,-0.2,16
40,821.0,-0.1,0.0,-0.2,0.2,2.6,9.200000000000001,-8.0,-1.8000000000000003,-0.1,16
41,838.0,-0.1,0.0,0.1,0.1,2.6,9.5,-12.100000000000001,-0.8,1.2000000000000002,16
42,854.0,-0.2,0.1,0.4,0.1,2.7,9.8,-10.8,-0.8,2.4000000000000004,16
43,872.0,-0.2,0.2,0.4,0.1,2.7,9.8,-8.3,-1.4,2.6,16
44,888.0,-0.4,0.30000000000000004,0.30000000000000004,-0.1,2.8000000000000003,9.700000000000001,-4.300000000000001,-1.1,3.6000000000000005,16
45,904.0,-0.4,0.30000000000000004,0.30000000000000004,-0.1,2.9000000000000004,9.8,-3.5,-1.1,5.6,16
46,921.0,-0.2,0.4,0.5,0.0,2.9000000000000004,10.0,-3.9,-1.1,6.600000000000001,16
47,938.0,0.0,0.5,1.0,0.2,3.0,10.4,-2.1,1.4,7.300000000000001,16
48,954.0,0.30000000000000004,0.30000000000000004,1.1,0.5,2.8000000000000003,10.600000000000001,5.500000000000001,4.9,6.500000000000001,16
49,972.0,0.4,0.1,0.9,0.7000000000000001,2.7,10.4,15.5,8.3,4.800000000000001,16
50,988.0,0.7000000000000001,0.0,0.2,1.0,2.6,9.600000000000001,19.1,9.4,3.6000000000000005,16
51,1004.0,0.8,-0.1,-0.6000000000000001,1.1,2.6,8.9,20.8,7.400000000000001,0.30000000000000004,16
52,1021.0,0.9,-0.1,-0.8,1.2000000000000002,2.6,8.6,19.700000000000003,5.6,-1.8000000000000003,16
53,1038.0,1.0,-0.30000000000000004,-1.0,1.2000000000000002,2.5,8.4,14.300000000000002,3.1,-5.7,16
54,1054.0,1.1,-0.30000000000000004,-0.9,1.4000000000000001,2.5,8.5,7.9,3.4,-9.600000000000001,16
55,1072.0,1.1,-0.30000000000000004,-0.8,1.3,2.5,8.6,2.9,5.1000000000000005,-13.200000000000003,16
56,1088.0,1.0,-0.2,-0.7000000000000001,1.3,2.6,8.6,1.2000000000000002,4.9,-15.100000000000001,16
57,1104.0,0.8,0.0,-0.6000000000000001,1.0,2.8000000000000003,8.700000000000001,-1.2000000000000002,2.4000000000000004,-18.700000000000003,16
58,1121.0,0.6000000000000001,0.0,-0.5,0.6000000000000001,2.9000000000000004,8.9,-3.0,-0.1,-20.5,16
59,1138.0,0.30000000000000004,0.1,-0.30000000000000004,0.5,2.9000000000000004,9.0,-3.6000000000000005,-1.4,-21.0,16
60,1154.0,0.1,0.2,0.0,0.30000000000000004,3.0,9.3,-5.1000000000000005,-1.7,-21.8,16
61,1175.0,0.0,0.2,0.30000000000000004,0.1,3.0,9.600000000000001,-6.600000000000001,1.3,-22.8,16
62,1188.0,-0.2,0.30000000000000004,0.30000000000000004,0.0,3.0,9.700000000000001,-6.4,2.3,-23.6,16
63,1204.0,-0.5,0.2,0.30000000000000004,-0.4,2.9000000000000004,9.700000000000001,-5.1000000000000005,3.9,-24.900000000000002,16
64,1221.0,-0.8,0.1,0.4,-0.7000000000000001,2.8000000000000003,9.700000000000001,-4.1,3.5,-24.3,16
65,1238.0,-0.8,0.0,0.4,-0.8,2.8000000000000003,9.8,-3.4,3.5,-23.400000000000002,16
66,1254.0,-1.0,-0.1,0.5,-1.0,2.7,9.9,-1.9,4.7,-21.300000000000004,16
67,1272.0,-1.0,-0.1,0.5,-1.1,2.6,9.9,0.0,6.699999999999999,-18.5,16
68,1288.0,-1.0,-0.2,0.5,-1.1,2.5,9.9,0.9000000000000001,7.300000000000001,-16.200000000000003,16
69,1304.0,-0.9,-0.2,0.5,-1.0,2.5,9.9,3.3000000000000007,7.9,-11.2,16
70,1321.0,-0.7000000000000001,-0.2,0.4,-0.9,2.5,9.8,7.1000000000000005,8.0,-6.699999999999999,16
71,1338.0,-0.6000000000000001,-0.2,0.30000000000000004,-0.8,2.5,9.700000000000001,8.600000000000001,7.8,-5.0,16
72,1354.0,-0.30000000000000004,-0.2,0.1,-0.6000000000000001,2.6,9.5,9.8,6.600000000000001,-2.0,16
73,1372.0,-0.1,-0.2,0.0,-0.4,2.6,9.3,8.8,6.9,0.0,16
74,1388.0,0.0,-0.2,-0.1,-0.30000000000000004,2.6,9.3,8.2,7.300000000000001,0.4,16
75,1404.0,0.0,-0.1,-0.1,-0.30000000000000004,2.8000000000000003,9.200000000000001,7.9,7.200000000000001,0.6000000000000001,16
76,1421.0,0.0,-0.1,-0.30000000000000004,-0.30000000000000004,2.7,9.0,7.500000000000001,6.600000000000001,0.9000000000000001,16
77,1438.0,0.1,-0.1,-0.4,-0.2,2.7,8.9,6.4,6.1000000000000005,1.3,16
78,1454.0,0.2,-0.1,-0.5,-0.1,2.8000000000000003,8.9,4.1,6.1000000000000005,1.8000000000000003,16
79,1472.0,0.30000000000000004,0.0,-0.6000000000000001,0.0,2.9000000000000004,8.8,2.2,4.5,0.5,16
80,1488.0,0.30000000000000004,0.1,-0.5,0.0,3.0,8.8,0.5,2.8,-0.7,16
81,1504.0,0.30000000000000004,0.2,-0.2,-0.1,3.1,9.200000000000001,-3.4,2.4000000000000004,-3.5,16
82,1521.0,0.4,0.1,0.30000000000000004,0.0,3.0,9.600000000000001,-5.1000000000000005,4.2,-5.7,16
83,1538.0,0.30000000000000004,0.1,0.4,-0.1,2.9000000000000004,9.700000000000001,-4.800000000000001,6.4,-7.0,16
84,1554.0,0.2,0.1,0.4,-0.2,2.9000000000000004,9.700000000000001,-3.6000000000000005,10.1,-8.8,16
85,1572.0,0.2,0.1,0.30000000000000004,-0.30000000000000004,2.9000000000000004,9.700000000000001,-2.5,11.1,-9.600000000000001,16
86,1588.0,0.2,0.1,0.4,-0.30000000000000004,2.9000000000000004,9.700000000000001,-1.7,10.9,-10.1,16
87,1604.0,0.4,0.1,0.30000000000000004,-0.2,2.9000000000000004,9.700000000000001,0.8,11.4,-11.6,16
88,1621.0,0.4,-0.1,0.1,-0.1,2.8000000000000003,9.4,3.8,11.3,-12.9,16
89,1638.0,0.4,-0.1,0.0,-0.2,2.7,9.3,5.500000000000001,10.4,-13.3,16
90,1654.0,0.5,-0.30000000000000004,-0.2,-0.1,2.6,9.1,8.600000000000001,6.4,-13.700000000000001,16
91,1672.0,0.7000000000000001,-0.4,-0.4,0.0,2.5,8.9,11.1,2.7,-14.0,16
92,1688.0,0.8,-0.5,-0.6000000000000001,0.1,2.4000000000000004,8.700000000000001,11.8,1.9,-14.300000000000002,16
93,1704.0,0.8,-0.7000000000000001,-0.9,0.1,2.2,8.4,10.700000000000001,-3.9,-14.600000000000001,16
94,1721.0,0.9,-0.8,-0.8,0.30000000000000004,2.1,8.5,7.200000000000001,-8.8,-13.5,16
95,1738.0,0.9,-0.9,-0.8,0.30000000000000004,2.0,8.5,5.4,-10.4,-13.200000000000003,16
96,1754.0,0.7000000000000001,-1.0,-0.6000000000000001,0.1,2.0,8.6,3.1,-15.299999999999999,-11.2,16
97,1772.0,0.6000000000000001,-1.1,-0.30000000000000004,0.1,1.9000000000000001,8.9,4.4,-23.800000000000004,-7.200000000000001,16
98,1788.0,0.7000000000000001,-1.1,-0.2,0.2,1.9000000000000001,9.1,6.500000000000001,-27.6,-5.500000000000001,16
99,1804.0,0.9,-0.9,0.0,0.5,2.1,9.3,12.5,-32.0,-4.4,16
100,1821.0,0.7000000000000001,-0.7000000000000001,-0.30000000000000004,0.4,2.3000000000000003,9.0,14.700000000000001,-26.000000000000004,-8.100000000000001,16
101,1838.0,0.5,-0.6000000000000001,-0.5,0.30000000000000004,2.4000000000000004,8.700000000000001,12.8,-22.1,-10.8,16
102,1854.0,0.1,-0.7000000000000001,-0.7000000000000001,-0.1,2.4000000000000004,8.5,4.1,-15.2,-15.2,16
103,1872.0,-0.2,-0.5,-0.6000000000000001,-0.4,2.5,8.6,-4.7,-11.3,-12.7,16
104,1888.0,-0.30000000000000004,-0.4,-0.2,-0.4,2.6,8.8,-10.9,-7.0,-11.4,16
105,1904.0,-0.4,-0.2,-0.1,-0.6000000000000001,2.7,9.1,-12.8,-2.7,-10.700000000000001,16
106,1921.0,-0.6000000000000001,0.30000000000000004,0.0,-0.8,3.2,9.200000000000001,-17.200000000000003,1.8000000000000003,-8.600000000000001,16
107,1938.0,-0.5,0.6000000000000001,0.1,-0.7000000000000001,3.5,9.3,-20.2,1.1,-8.700000000000001,16
108,1954.0,-0.5,0.6000000000000001,0.2,-0.7000000000000001,3.5,9.4,-20.599999999999998,-1.3,-9.600000000000001,16
109,1972.0,-0.4,0.5,0.5,-0.6000000000000001,3.3000000000000003,9.8,-17.7,-6.8,-11.000000000000002,16
110,1988.0,-0.5,0.30000000000000004,0.6000000000000001,-0.6000000000000001,3.0,9.9,-13.900000000000002,-8.8,-11.000000000000002,16
111,2004.0,-0.8,-0.2,1.0,-1.0,2.5,10.3,-14.100000000000001,-4.7,-11.6,16
112,2021.0,-0.1,-0.30000000000000004,0.6000000000000001,-0.30000000000000004,2.3000000000000003,10.0,-17.7,5.300000000000001,-6.500000000000001,16
113,2038.0,0.30000000000000004,0.4,0.6000000000000001,0.0,3.0,10.0,-17.300000000000004,10.0,2.9,16
114,2054.0,0.30000000000000004,0.6000000000000001,0.30000000000000004,0.0,3.2,9.700000000000001,-16.1,13.000000000000002,2.6,16
115,2073.0,0.2,0.8,-0.1,0.0,3.3000000000000003,9.3,-15.8,1.9,-5.8,16
116,2088.0,0.30000000000000004,0.7000000000000001,-0.1,0.0,3.2,9.3,-16.200000000000003,-14.300000000000002,-11.4,16
117,2104.0,0.30000000000000004,0.6000000000000001,-0.1,0.1,3.1,9.3,-17.1,-19.200000000000003,-12.9,16
118,2121.0,0.30000000000000004,0.6000000000000001,0.0,0.2,3.0,9.4,-21.200000000000003,-22.5,-14.900000000000002,16
119,2138.0,0.30000000000000004,0.7000000000000001,0.4,0.2,3.0,9.8,-24.400000000000002,-23.0,-15.899999999999999,16
120,2154.0,0.2,0.8,0.5,0.2,3.1,10.0,-25.5,-20.400000000000002,-17.0,16
121,2174.0,-0.30000000000000004,0.5,0.7000000000000001,-0.30000000000000004,2.7,10.200000000000001,-24.3,-15.8,-20.900000000000002,16
122,2188.0,-0.6000000000000001,0.4,0.6000000000000001,-0.6000000000000001,2.5,10.100000000000001,-21.900000000000002,-12.9,-20.0,16
123,2204.0,-0.7000000000000001,0.30000000000000004,0.6000000000000001,-0.7000000000000001,2.4000000000000004,10.100000000000001,-19.300000000000004,-14.200000000000001,-18.0,16
124,2221.0,-0.8,0.2,0.6000000000000001,-0.8,2.2,10.100000000000001,-12.9,-14.5,-12.9,16
125,2238.0,-0.8,0.2,0.5,-0.7000000000000001,2.2,10.0,-8.8,-18.900000000000002,-9.700000000000001,16
126,2254.0,-0.8,0.2,0.5,-0.7000000000000001,2.2,10.100000000000001,-6.4,-21.500000000000004,-8.0,16
127,2276.0,-0.8,0.1,0.6000000000000001,-0.6000000000000001,2.1,10.200000000000001,-2.0,-25.0,-3.5,16
128,2288.0,-0.8,0.1,0.8,-0.6000000000000001,2.2,10.3,1.3,-24.599999999999998,1.1,16
129,2304.0,-0.8,0.2,0.9,-0.5,2.3000000000000003,10.4,2.0,-22.6,2.9,16
130,2321.0,-0.8,0.4,0.8,-0.5,2.4000000000000004,10.4,3.6000000000000005,-11.000000000000002,7.0,16
131,2338.0,-1.1,0.5,0.5,-0.8,2.5,10.100000000000001,3.9,1.6,11.5,16
132,2355.0,-1.4000000000000001,0.4,0.30000000000000004,-1.0,2.5,9.9,2.7,8.700000000000001,15.6,16
133,2374.0,-1.8,0.7000000000000001,0.0,-1.5,2.7,9.5,-1.7,18.4,29.900000000000006,16
134,2388.0,-1.7000000000000002,0.9,0.0,-1.4000000000000001,3.0,9.5,-4.2,15.8,44.9,16
135,2405.0,-1.5,1.0,0.0,-1.3,3.1,9.600000000000001,-4.2,10.4,51.800000000000004,16
136,2421.0,-0.9,1.1,0.30000000000000004,-0.7000000000000001,3.2,9.9,-2.7,-6.9,64.2,16
137,2438.0,-0.30000000000000004,1.0,0.9,0.1,3.0,10.5,3.3000000000000007,-21.300000000000004,71.9,16
138,2457.0,0.0,0.5,1.0,0.5,2.6,10.600000000000001,15.899999999999999,-24.400000000000002,75.60000000000001,16
139,2474.0,0.1,0.2,1.0,0.7000000000000001,2.3000000000000003,10.5,22.700000000000003,-21.6,77.4,16
140,2488.0,0.2,-0.30000000000000004,0.6000000000000001,0.9,1.9000000000000001,10.200000000000001,35.699999999999996,-8.600000000000001,83.00000000000001,16
141,2505.0,0.2,-0.5,0.30000000000000004,0.9,1.8,9.9,42.60000000000001,-1.9,86.7,16
142,2521.0,0.30000000000000004,-0.5,-0.4,1.1,1.9000000000000001,9.1,55.3,13.200000000000003,91.4,16
143,2538.0,0.30000000000000004,-0.2,-1.1,1.0,2.4000000000000004,8.3,61.9,26.5,88.3,16
144,2555.0,0.5,0.0,-1.3,1.2000000000000002,2.7,8.1,60.6,34.300000000000004,85.30000000000001,16
145,2579.0,1.1,-0.2,-1.0,1.7000000000000002,2.7,8.4,37.0,67.9,72.10000000000001,16
146,2590.0,1.3,-0.4,-0.7000000000000001,1.8,2.5,8.6,27.0,74.10000000000001,68.3,16
147,2605.0,1.8,-1.1,-0.30000000000000004,2.2,1.8,9.0,12.100000000000001,48.9,65.0,16
148,2621.0,1.7000000000000002,-1.3,0.30000000000000004,2.1,1.7000000000000002,9.600000000000001,6.1000000000000005,20.0,63.30000000000001,16
149,2638.0,1.2000000000000002,-0.5,2.3000000000000003,1.7000000000000002,2.4000000000000004,11.700000000000001,0.2,-29.900000000000006,69.7,16
150,2654.0,1.4000000000000001,0.1,3.0,2.1,3.0,12.4,15.100000000000001,-57.1,73.10000000000001,16
151,2673.0,2.0,0.8,3.2,2.9000000000000004,3.7,12.5,25.7,-66.1,65.5,16
152,2688.0,2.0,1.0,2.7,3.2,4.0,12.0,36.5,-60.900000000000006,40.4,16
153,2704.0,1.9000000000000001,1.0,2.3000000000000003,3.1,4.2,11.0,35.2,-45.6,26.200000000000003,16
154,2721.0,1.3,0.9,1.1,2.7,4.1000000000000005,10.3,23.700000000000003,0.0,-4.6,16
155,2738.0,0.30000000000000004,0.7000000000000001,-0.30000000000000004,1.5,3.9000000000000004,9.0,10.200000000000001,38.800000000000004,-30.699999999999996,16
156,2754.0,-1.1,0.30000000000000004,-1.4000000000000001,-0.1,3.6,7.9,1.9,53.300000000000004,-47.5,16
157,2772.0,-1.8,0.1,-1.7000000000000002,-0.9,3.4000000000000004,7.5,-0.2,50.900000000000006,-50.8,16
158,2788.0,-2.5,-0.5,-1.8,-1.8,2.8000000000000003,7.4,0.30000000000000004,34.60000000000001,-45.9,16
159,2804.0,-2.5,-1.2000000000000002,-1.8,-1.9000000000000001,2.5,7.4,5.8,18.0,-32.8,16
160,2821.0,-2.4000000000000004,-1.5,-1.8,-1.8,1.9000000000000001,7.4,8.899999999999999,12.4,-24.900000000000002,16
161,2838.0,-1.8,-1.8,-1.9000000000000001,-1.4000000000000001,1.6,7.300000000000001,8.0,9.5,-11.3,16
162,2855.0,-1.2000000000000002,-2.0,-1.8,-0.8,1.4000000000000001,7.4,-3.0,15.399999999999999,-2.3,16
163,2880.0,-0.8,-2.0,-1.4000000000000001,-0.4,1.3,7.800000000000001,-12.8,18.6,3.5,16
164,2889.0,-0.7000000000000001,-1.9000000000000001,-1.3,-0.4,1.4000000000000001,7.9,-14.400000000000002,16.1,5.500000000000001,16
165,2904.0,-0.7000000000000001,-1.8,-0.7000000000000001,-0.30000000000000004,1.4000000000000001,8.5,-11.2,0.1,9.8,16
166,2921.0,-0.4,-1.8,-0.30000000000000004,-0.1,1.4000000000000001,8.9,-6.9,-8.3,11.8,16
167,2938.0,0.30000000000000004,-1.6,0.2,0.7000000000000001,1.5,9.4,4.5,-13.700000000000001,12.299999999999999,16
168,2954.0,0.4,-1.2000000000000002,-0.30000000000000004,0.8,2.0,8.9,9.8,-1.7,6.2,16
169,2973.0,0.30000000000000004,-0.9,-0.7000000000000001,0.7000000000000001,2.6,8.200000000000001,0.9000000000000001,13.399999999999999,2.7,16
170,2988.0,0.30000000000000004,-0.30000000000000004,-1.0,0.6000000000000001,2.9000000000000004,8.200000000000001,-6.4,18.0,0.6000000000000001,16
171,3004.0,0.4,0.4,-0.8,0.7000000000000001,3.5,8.4,-18.200000000000003,19.9,-5.0,16
172,3021.0,0.4,0.6000000000000001,-0.6000000000000001,0.6000000000000001,3.8000000000000003,8.6,-21.8,16.200000000000003,-8.0,16
173,3038.0,0.0,0.9,-0.30000000000000004,0.2,4.0,9.0,-22.3,2.0,-12.4,16
174,3054.0,-0.2,0.9,0.2,0.0,3.9000000000000004,9.4,-18.900000000000002,-13.000000000000002,-12.200000000000001,16
175,3072.0,-0.2,0.9,0.4,0.1,3.9000000000000004,9.700000000000001,-17.5,-16.700000000000003,-11.000000000000002,16
176,3088.0,-0.2,1.0,0.8,0.2,3.9000000000000004,10.100000000000001,-16.6,-13.8,-8.8,16
177,3104.0,-0.2,1.0,0.9,0.2,4.0,10.200000000000001,-17.1,-3.5,-7.500000000000001,16
178,3121.0,-0.2,1.0,0.9,0.1,3.9000000000000004,10.200000000000001,-17.0,0.5,-7.400000000000001,16
179,3138.0,-0.1,0.8,0.8,0.2,3.6,10.100000000000001,-14.0,2.7,-7.699999999999999,16
180,3154.0,-0.1,0.6000000000000001,0.7000000000000001,0.2,3.2,10.0,-7.400000000000001,-3.6000000000000005,-7.8,16
181,3179.0,-0.5,0.2,0.4,-0.2,3.0,9.700000000000001,0.7,-9.100000000000001,-6.8,16
182,3188.0,-0.6000000000000001,0.1,0.2,-0.2,2.9000000000000004,9.5,3.6000000000000005,-10.1,-6.1000000000000005,16
183,3204.0,-0.8,-0.1,-0.1,-0.5,2.7,9.200000000000001,4.9,-7.0,-4.7,16
184,3221.0,-0.8,-0.1,-0.4,-0.5,2.7,9.0,4.0,-3.8,-3.8,16
185,3238.0,-0.9,-0.4,-0.7000000000000001,-0.5,2.4000000000000004,8.6,0.6000000000000001,0.30000000000000004,-1.4,16
186,3254.0,-0.8,-0.5,-0.7000000000000001,-0.4,2.3000000000000003,8.6,-2.8,-0.8,2.2,16
187,3273.0,-0.6000000000000001,-0.5,-0.7000000000000001,-0.30000000000000004,2.3000000000000003,8.700000000000001,-4.300000000000001,-4.300000000000001,5.2,16
188,3288.0,-0.6000000000000001,-0.4,-0.7000000000000001,-0.30000000000000004,2.4000000000000004,8.700000000000001,-5.300000000000001,-5.7,6.1000000000000005,16
189,3304.0,-0.6000000000000001,-0.4,-0.6000000000000001,-0.2,2.3000000000000003,8.8,-10.299999999999999,-8.100000000000001,9.100000000000001,16
190,3321.0,-0.5,-0.30000000000000004,-0.4,0.1,2.5,9.1,-13.5,-8.8,11.1,16
191,3338.0,-0.2,-0.2,0.0,0.30000000000000004,2.5,9.3,-19.1,-8.0,14.300000000000002,16
192,3354.0,0.1,0.2,0.30000000000000004,0.6000000000000001,2.8000000000000003,9.700000000000001,-21.8,-7.300000000000001,16.700000000000003,16
193,3379.0,0.30000000000000004,0.6000000000000001,0.6000000000000001,0.9,3.1,10.0,-20.5,-7.400000000000001,15.000000000000002,16
194,3388.0,0.5,0.8,0.8,1.0,3.3000000000000003,10.200000000000001,-19.1,-6.600000000000001,12.7,16
195,3404.0,0.7000000000000001,0.9,0.9,1.2000000000000002,3.3000000000000003,10.4,-16.900000000000002,0.0,5.6,16
196,3421.0,0.6000000000000001,0.9,0.8,1.1,3.4000000000000004,10.100000000000001,-16.4,10.299999999999999,-1.3,16
197,3438.0,0.4,0.9,0.5,0.9,3.3000000000000003,10.0,-16.1,13.000000000000002,-3.9,16
198,3455.0,0.30000000000000004,0.9,0.30000000000000004,0.7000000000000001,3.2,9.8,-13.700000000000001,14.100000000000001,-7.0,16
199,3474.0,0.30000000000000004,0.8,0.30000000000000004,0.7000000000000001,3.2,9.8,-9.4,13.6,-10.4,16
200,3488.0,0.4,0.9,0.2,0.8,3.2,9.700000000000001,-7.400000000000001,13.100000000000001,-12.200000000000001,16
201,3504.0,0.4,0.7000000000000001,-0.1,0.8,3.0,9.4,-3.5,9.600000000000001,-18.200000000000003,16
202,3521.0,0.2,0.30000000000000004,-0.30000000000000004,0.5,2.6,9.200000000000001,-2.0,3.1,-23.700000000000003,16
203,3538.0,0.0,0.1,-0.2,0.30000000000000004,2.4000000000000004,9.3,-2.3,0.6000000000000001,-25.300000000000004,16
204,3554.0,-0.2,-0.1,-0.1,0.0,2.2,9.4,-2.5,0.2,-26.000000000000004,16
205,3574.0,-0.4,-0.2,-0.1,-0.1,2.1,9.4,-2.3,3.6000000000000005,-25.5,16
206,3588.0,-0.5,-0.4,-0.2,-0.2,1.9000000000000001,9.3,-2.3,6.0,-24.599999999999998,16
207,3604.0,-0.5,-0.5,-0.30000000000000004,-0.4,1.7000000000000002,9.200000000000001,-2.3,7.200000000000001,-20.3,16
208,3621.0,-0.4,-0.7000000000000001,-0.30000000000000004,-0.2,1.6,9.200000000000001,-1.4,2.7,-15.399999999999999,16
209,3638.0,-0.30000000000000004,-0.7000000000000001,-0.4,-0.2,1.6,9.1,-1.1,-0.2,-13.200000000000003,16
210,3654.0,-0.1,-0.8,-0.5,0.1,1.4000000000000001,9.0,-3.3000000000000007,-6.300000000000001,-9.4,16
211,3672.0,0.2,-0.9,-0.4,0.4,1.3,9.1,-10.9,-12.0,-9.3,16
212,3690.0,0.2,-1.0,-0.2,0.4,1.2000000000000002,9.3,-16.1,-14.800000000000002,-9.4,16
213,3704.0,0.2,-0.9,0.2,0.4,1.2000000000000002,9.8,-26.700000000000003,-15.5,-7.300000000000001,16
214,3721.0,0.2,-0.8,0.6000000000000001,0.5,1.2000000000000002,10.200000000000001,-32.300000000000004,-12.4,-3.1,16
215,3738.0,0.2,-0.7000000000000001,0.7000000000000001,0.5,1.2000000000000002,10.3,-31.400000000000002,-9.899999999999999,-1.8000000000000003,16
216,3755.0,0.1,-0.6000000000000001,0.5,0.5,1.3,10.100000000000001,-25.7,-3.9,0.30000000000000004,16
217,3780.0,0.0,-0.30000000000000004,0.1,0.30000000000000004,1.5,9.5,-15.000000000000002,1.5,3.0,16
218,3788.0,0.0,-0.30000000000000004,-0.1,0.30000000000000004,1.5,9.5,-15.000000000000002,1.5,3.0,16
219,3804.0,0.0,-0.2,-0.4,0.30000000000000004,1.5,9.200000000000001,-7.6,-2.8,5.300000000000001,16
220,3821.0,0.1,0.0,-0.6000000000000001,0.5,1.7000000000000002,9.0,0.5,-12.200000000000001,7.1000000000000005,16
221,3838.0,0.30000000000000004,0.1,-0.7000000000000001,0.6000000000000001,1.8,8.9,2.7,-16.3,6.600000000000001,16
222,3854.0,0.4,0.30000000000000004,-0.7000000000000001,0.8,2.0,8.9,-0.2,-18.3,2.2,16
223,3873.0,0.30000000000000004,0.30000000000000004,-0.7000000000000001,0.8,2.0,8.9,-12.4,-12.4,-4.0,16
224,3890.0,0.2,0.4,-0.1,0.7000000000000001,2.0,9.5,-25.200000000000003,-11.4,-8.3,16
225,3904.0,0.1,0.30000000000000004,0.30000000000000004,0.7000000000000001,1.9000000000000001,9.9,-27.800000000000004,-12.100000000000001,-9.899999999999999,16
226,3921.0,0.1,0.2,0.9,0.7000000000000001,1.7000000000000002,10.5,-26.000000000000004,-12.4,-11.900000000000002,16
227,3938.0,0.1,0.30000000000000004,1.0,0.7000000000000001,1.7000000000000002,10.700000000000001,-24.1,-10.700000000000001,-12.7,16
228,3954.0,0.1,0.4,1.0,0.7000000000000001,1.8,10.600000000000001,-20.8,-4.7,-15.399999999999999,16
229,3971.0,0.0,0.4,0.9,0.6000000000000001,1.7000000000000002,10.5,-17.6,-2.0,-18.0,16
230,3990.0,-0.1,0.30000000000000004,0.8,0.5,1.6,10.5,-11.000000000000002,-4.7,-17.6,16
231,4004.0,-0.1,0.30000000000000004,0.7000000000000001,0.5,1.6,10.4,-6.500000000000001,-7.500000000000001,-17.0,16
232,4021.0,-0.1,0.30000000000000004,0.30000000000000004,0.6000000000000001,1.6,10.0,0.7,-11.4,-16.0,16
233,4038.0,0.0,0.2,0.2,0.6000000000000001,1.5,9.8,2.5,-12.600000000000001,-15.5,16
234,4055.0,0.0,0.2,-0.1,0.7000000000000001,1.5,9.600000000000001,1.9,-13.100000000000001,-14.600000000000001,16
235,4077.0,0.30000000000000004,0.1,0.0,1.1,1.4000000000000001,9.700000000000001,-1.4,-14.300000000000002,-14.100000000000001,16
236,4088.0,0.30000000000000004,0.0,0.0,1.1,1.3,9.700000000000001,-3.4,-14.0,-14.100000000000001,16
237,4104.0,0.30000000000000004,-0.2,0.30000000000000004,1.1,1.1,10.0,-6.2,-14.300000000000002,-12.4,16
238,4121.0,0.2,-0.30000000000000004,0.6000000000000001,1.1,1.0,10.200000000000001,-1.8000000000000003,-15.700000000000001,-8.2,16
239,4138.0,0.30000000000000004,-0.30000000000000004,0.6000000000000001,1.2000000000000002,1.0,10.200000000000001,6.699999999999999,-16.0,-4.6,16
240,4154.0,0.4,-0.2,0.2,1.3,1.1,9.9,10.0,-14.900000000000002,-3.6000000000000005,16
241,4172.0,0.4,-0.1,-0.2,1.4000000000000001,1.2000000000000002,9.5,14.5,-12.299999999999999,-3.9,16
242,4188.0,0.30000000000000004,-0.2,-0.4,1.3,1.3,9.200000000000001,14.600000000000001,-10.8,-5.8,16
243,4204.0,0.2,-0.1,-0.5,1.3,1.3,9.1,13.5,-9.899999999999999,-6.8,16
244,4221.0,0.0,-0.1,-0.7000000000000001,1.1,1.4000000000000001,8.9,10.0,-5.300000000000001,-10.200000000000001,16
245,4238.0,-0.2,-0.1,-0.7000000000000001,0.9,1.4000000000000001,8.9,3.4,-1.6,-13.3,16
246,4254.0,-0.30000000000000004,-0.2,-0.6000000000000001,0.8,1.3,9.0,0.30000000000000004,-1.7,-14.100000000000001,16
247,4272.0,-0.6000000000000001,-0.30000000000000004,-0.5,0.5,1.2000000000000002,9.1,-3.3000000000000007,-3.1,-13.399999999999999,16
248,4288.0,-0.7000000000000001,-0.2,-0.4,0.4,1.2000000000000002,9.200000000000001,-4.5,-4.4,-8.8,16
249,4305.0,-0.6000000000000001,0.0,-0.4,0.5,1.5,9.200000000000001,-3.1,-9.4,-6.2,16
250,4321.0,-0.6000000000000001,0.1,-0.4,0.6000000000000001,1.6,9.200000000000001,-2.4000000000000004,-13.200000000000003,-7.1000000000000005,16
251,4338.0,-0.6000000000000001,-0.1,-0.5,0.5,1.4000000000000001,9.1,-8.100000000000001,-10.700000000000001,-5.4,16
252,4354.0,-0.5,-0.1,-0.4,0.7000000000000001,1.3,9.200000000000001,-12.299999999999999,-8.3,-3.6000000000000005,16
253,4377.0,-0.30000000000000004,0.1,-0.1,0.9,1.4000000000000001,9.5,-16.5,-5.1000000000000005,-1.3,16
254,4388.0,-0.2,0.1,0.0,0.9,1.4000000000000001,9.600000000000001,-14.600000000000001,-5.1000000000000005,-0.30000000000000004,16
255,4404.0,-0.2,0.0,0.0,1.0,1.3,9.600000000000001,-12.9,-5.8,0.9000000000000001,16
256,4421.0,0.0,0.0,-0.1,1.2000000000000002,1.3,9.5,-9.5,-7.8,4.2,16
257,4438.0,0.2,0.1,-0.1,1.4000000000000001,1.3,9.5,-8.100000000000001,-9.100000000000001,6.300000000000001,16
258,4454.0,0.2,0.1,-0.1,1.5,1.4000000000000001,9.5,-7.699999999999999,-9.100000000000001,6.699999999999999,16
259,4473.0,0.30000000000000004,0.1,-0.1,1.6,1.3,9.5,-8.100000000000001,-7.8,6.699999999999999,16
260,4490.0,0.4,0.1,0.0,1.7000000000000002,1.3,9.600000000000001,-8.3,-8.100000000000001,7.0,16
261,4504.0,0.4,0.1,0.1,1.8,1.3,9.700000000000001,-7.500000000000001,-8.600000000000001,7.0,16
262,4521.0,0.6000000000000001,0.30000000000000004,0.1,2.0,1.4000000000000001,9.700000000000001,-5.2,-9.899999999999999,5.8,16
263,4538.0,0.6000000000000001,0.30000000000000004,0.1,2.1,1.4000000000000001,9.700000000000001,-4.5,-9.4,3.1,16
264,4554.0,0.6000000000000001,0.4,0.1,2.1,1.5,9.700000000000001,-5.2,-8.5,1.2000000000000002,16
265,4572.0,0.5,0.4,0.2,2.0,1.5,9.8,-5.300000000000001,-5.6,-1.8000000000000003,16
266,4588.0,0.30000000000000004,0.4,0.1,1.8,1.4000000000000001,9.700000000000001,-3.5,-3.0,-3.9,16
267,4604.0,0.2,0.30000000000000004,0.1,1.7000000000000002,1.4000000000000001,9.700000000000001,-2.8,-3.0,-4.6,16
268,4621.0,0.1,0.4,0.1,1.6,1.5,9.700000000000001,-2.6,-1.8000000000000003,-6.0,16
269,4638.0,0.0,0.4,0.1,1.5,1.4000000000000001,9.700000000000001,-3.1,0.30000000000000004,-7.200000000000001,16
270,4655.0,-0.1,0.30000000000000004,0.1,1.4000000000000001,1.4000000000000001,9.700000000000001,-2.8,0.8,-7.400000000000001,16
271,4673.0,-0.2,0.2,0.1,1.3,1.3,9.700000000000001,-2.0,2.0,-7.0,16
272,4688.0,-0.2,0.2,0.2,1.3,1.3,9.8,-1.4,3.0,-5.300000000000001,16
273,4704.0,-0.2,0.2,0.2,1.2000000000000002,1.2000000000000002,9.8,-0.8,3.6000000000000005,-4.2,16
274,4721.0,-0.2,0.1,0.30000000000000004,1.3,1.2000000000000002,9.9,0.6000000000000001,3.9,-2.2,16
275,4738.0,0.0,0.1,0.4,1.4000000000000001,1.2000000000000002,10.0,2.5,3.3000000000000007,0.0,16
276,4755.0,0.1,0.1,0.4,1.5,1.2000000000000002,10.0,3.3000000000000007,3.7000000000000006,0.8,16
277,4771.0,0.2,0.1,0.4,1.6,1.2000000000000002,10.0,4.7,5.2,1.2000000000000002,16
278,4788.0,0.2,0.1,0.4,1.6,1.2000000000000002,10.0,7.1000000000000005,7.400000000000001,1.1,16
279,4804.0,0.2,0.1,0.4,1.6,1.2000000000000002,10.0,8.600000000000001,8.4,1.5,16
280,4821.0,0.4,0.1,0.30000000000000004,1.8,1.2000000000000002,9.9,12.200000000000001,11.700000000000001,2.8,16
281,4838.0,0.6000000000000001,0.2,0.0,1.9000000000000001,1.4000000000000001,9.600000000000001,14.600000000000001,14.900000000000002,3.0,16
282,4854.0,0.7000000000000001,0.30000000000000004,-0.1,2.0,1.5,9.5,15.100000000000001,15.700000000000001,2.6,16
283,4872.0,0.7000000000000001,0.30000000000000004,-0.4,1.9000000000000001,1.6,9.200000000000001,14.900000000000002,16.6,-0.2,16
284,4888.0,0.6000000000000001,0.30000000000000004,-0.6000000000000001,1.7000000000000002,1.6,9.0,12.9,16.900000000000002,-3.6000000000000005,16
285,4904.0,0.4,0.30000000000000004,-0.7000000000000001,1.6,1.6,8.9,11.6,16.700000000000003,-5.1000000000000005,16
286,4921.0,0.2,0.1,-0.6000000000000001,1.3,1.5,9.0,9.100000000000001,16.200000000000003,-6.500000000000001,16
287,4938.0,0.0,0.1,-0.5,1.1,1.5,9.200000000000001,7.400000000000001,17.5,-6.4,16
288,4955.0,0.0,0.1,-0.4,0.9,1.5,9.3,6.699999999999999,19.0,-5.8,16
289,4973.0,-0.1,0.1,-0.30000000000000004,0.8,1.5,9.3,6.300000000000001,19.1,-5.500000000000001,16
290,4988.0,-0.2,0.0,0.0,0.7000000000000001,1.5,9.600000000000001,5.500000000000001,18.5,-4.9,16
291,5006.0,-0.2,0.0,0.30000000000000004,0.7000000000000001,1.5,9.9,7.500000000000001,16.900000000000002,-2.5,16
292,5021.0,-0.2,0.0,0.4,0.6000000000000001,1.5,10.0,9.100000000000001,16.8,-2.1,16
293,5037.0,-0.30000000000000004,0.0,0.4,0.4,1.5,10.0,11.900000000000002,19.6,-1.1,16
294,5054.0,-0.30000000000000004,-0.2,0.30000000000000004,0.30000000000000004,1.5,9.9,14.0,21.6,0.9000000000000001,16
295,5072.0,-0.2,-0.2,0.1,0.4,1.5,9.8,14.800000000000002,21.900000000000002,2.2,16
296,5092.0,-0.1,-0.1,-0.1,0.4,1.6,9.5,14.600000000000001,22.9,3.7000000000000006,16
297,5104.0,0.0,0.0,-0.30000000000000004,0.5,1.7000000000000002,9.4,12.5,22.8,3.2,16
298,5121.0,0.0,0.0,-0.4,0.4,1.8,9.200000000000001,11.000000000000002,22.6,2.2,16
299,5137.0,0.0,0.0,-0.4,0.30000000000000004,1.8,9.3,6.8,23.099999999999998,0.30000000000000004,16
300,5154.0,0.0,-0.1,-0.2,0.2,1.7000000000000002,9.4,3.5,25.4,-0.2,16
301,5173.0,0.0,-0.1,-0.2,0.2,1.7000000000000002,9.4,3.0,26.9,0.1,16
302,5188.0,0.0,0.0,-0.2,0.1,1.8,9.4,3.6000000000000005,27.700000000000003,1.4,16
303,5205.0,0.1,0.0,0.0,0.2,1.8,9.600000000000001,5.300000000000001,23.2,2.9,16
304,5221.0,0.2,0.0,0.1,0.30000000000000004,1.8,9.700000000000001,6.600000000000001,21.300000000000004,3.2,16
305,5238.0,0.30000000000000004,-0.1,0.2,0.30000000000000004,1.7000000000000002,9.700000000000001,8.3,18.700000000000003,3.2,16
306,5255.0,0.5,-0.2,0.2,0.4,1.7000000000000002,9.8,8.3,17.7,3.1,16
307,5278.0,0.5,-0.30000000000000004,0.30000000000000004,0.4,1.6,9.9,7.200000000000001,17.200000000000003,2.3,16
308,5288.0,0.5,-0.30000000000000004,0.30000000000000004,0.30000000000000004,1.6,9.9,6.300000000000001,17.1,1.8000000000000003,16
309,5304.0,0.5,-0.30000000000000004,0.4,0.30000000000000004,1.6,9.9,5.500000000000001,15.000000000000002,1.9,16
310,5323.0,0.4,-0.4,0.4,0.2,1.5,9.9,8.600000000000001,10.0,3.9,16
311,5337.0,0.5,-0.5,0.30000000000000004,0.30000000000000004,1.5,9.9,11.3,6.600000000000001,5.500000000000001,16
312,5354.0,0.5,-0.5,0.1,0.30000000000000004,1.5,9.600000000000001,16.3,1.4,7.699999999999999,16
313,5371.0,0.5,-0.4,-0.1,0.30000000000000004,1.6,9.5,17.400000000000002,-0.8,8.600000000000001,16
314,5391.0,0.5,-0.4,-0.30000000000000004,0.30000000000000004,1.6,9.200000000000001,16.3,-7.400000000000001,8.700000000000001,16
315,5404.0,0.5,-0.5,-0.4,0.4,1.6,9.1,12.7,-15.700000000000001,8.100000000000001,16
316,5421.0,0.5,-0.5,-0.30000000000000004,0.4,1.6,9.200000000000001,10.8,-20.5,8.100000000000001,16
317,5438.0,0.4,-0.5,-0.1,0.4,1.6,9.4,9.700000000000001,-28.500000000000004,8.2,16
318,5455.0,0.30000000000000004,-0.4,0.2,0.5,1.8,9.700000000000001,11.000000000000002,-30.9,6.9,16
319,5475.0,0.30000000000000004,-0.30000000000000004,0.2,0.5,1.9000000000000001,9.700000000000001,11.4,-24.0,3.4,16
320,5490.0,0.2,-0.2,0.1,0.5,2.0,9.600000000000001,10.299999999999999,-18.0,1.0,16
321,5504.0,-0.1,-0.2,-0.30000000000000004,0.2,2.1,9.200000000000001,6.4,-8.3,-2.9,16
322,5521.0,-0.1,-0.2,-0.4,0.1,2.1,9.1,4.4,-5.9,-3.8,16
323,5537.0,-0.2,-0.2,-0.6000000000000001,0.1,2.1,8.9,2.0,-5.0,-4.300000000000001,16
324,5554.0,0.0,0.1,-0.5,0.30000000000000004,2.3000000000000003,9.0,1.1,-7.300000000000001,-5.0,16
325,5576.0,0.0,0.30000000000000004,-0.4,0.4,2.5,9.0,0.7,-9.2,-7.699999999999999,16
326,5588.0,0.0,0.30000000000000004,-0.30000000000000004,0.4,2.6,9.1,0.2,-10.1,-10.200000000000001,16
327,5604.0,0.0,0.4,-0.2,0.30000000000000004,2.7,9.3,-2.7,-8.2,-15.5,16
328,5621.0,0.0,0.5,0.0,0.30000000000000004,2.8000000000000003,9.4,-5.6,-5.300000000000001,-18.5,16
329,5637.0,0.0,0.4,0.4,0.4,2.7,9.9,-12.7,2.5,-22.9,16
330,5654.0,0.0,0.4,0.8,0.30000000000000004,2.6,10.3,-15.399999999999999,8.5,-24.7,16
331,5675.0,-0.1,0.30000000000000004,1.0,0.2,2.4000000000000004,10.5,-10.299999999999999,7.6,-24.5,16
332,5688.0,-0.1,0.2,0.9,0.1,2.3000000000000003,10.4,-6.0,5.300000000000001,-23.700000000000003,16
333,5704.0,-0.30000000000000004,0.2,0.7000000000000001,-0.1,2.4000000000000004,10.200000000000001,0.9000000000000001,0.4,-21.200000000000003,16
334,5721.0,-0.4,0.2,0.5,-0.2,2.4000000000000004,10.100000000000001,2.9,-2.8,-19.5,16
335,5737.0,-0.4,0.2,0.5,-0.2,2.4000000000000004,10.0,5.8,-8.100000000000001,-16.5,16
336,5754.0,-0.4,0.1,0.30000000000000004,-0.2,2.3000000000000003,9.9,8.3,-8.700000000000001,-15.100000000000001,16
337,5771.0,-0.5,0.0,0.1,-0.30000000000000004,2.2,9.600000000000001,9.4,-6.0,-13.900000000000002,16
338,5791.0,-0.7000000000000001,-0.1,0.0,-0.4,2.2,9.5,9.0,-3.8,-12.299999999999999,16
339,5804.0,-0.7000000000000001,-0.1,0.0,-0.5,2.2,9.5,8.8,-3.4,-11.2,16
340,5821.0,-0.9,0.1,0.2,-0.7000000000000001,2.4000000000000004,9.700000000000001,8.3,-3.8,-8.0,16
341,5838.0,-1.2000000000000002,0.2,0.30000000000000004,-0.9,2.5,9.8,7.500000000000001,-4.1,-6.0,16
342,5854.0,-1.7000000000000002,0.30000000000000004,0.7000000000000001,-1.5,2.7,10.200000000000001,1.1,-3.6000000000000005,-0.6000000000000001,16
343,5874.0,-2.2,0.7000000000000001,1.6,-2.0,3.1,11.200000000000001,-17.400000000000002,-0.5,10.299999999999999,16
344,5887.0,-2.5,1.2000000000000002,2.6,-2.3000000000000003,3.4000000000000004,12.200000000000001,-30.699999999999996,5.500000000000001,17.799999999999997,16
345,5904.0,-3.0,2.2,5.1000000000000005,-2.9000000000000004,4.3,14.8,-52.5,37.1,36.2,16
346,5921.0,-2.3000000000000003,3.1,7.4,-2.3000000000000003,5.1000000000000005,17.1,-45.7,65.5,53.400000000000006,16
347,5938.0,-1.5,3.3000000000000003,7.9,-1.6,5.300000000000001,17.6,-27.6,78.5,57.800000000000004,16
348,5954.0,0.1,3.0,7.0,-0.30000000000000004,5.1000000000000005,16.8,27.400000000000002,99.9,58.0,16
349,5975.0,2.3000000000000003,2.4000000000000004,4.9,1.5,4.6000000000000005,14.700000000000001,83.2,104.2,55.0,16
350,5988.0,3.3000000000000003,2.1,3.6,2.4000000000000004,4.6000000000000005,13.3,106.5,105.9,48.70000000000001,16
351,6004.0,4.6000000000000005,1.5,-0.4,3.4000000000000004,4.4,9.200000000000001,134.20000000000002,116.1,16.700000000000003,16
352,6022.0,4.6000000000000005,0.4,-4.6000000000000005,3.0,3.8000000000000003,4.7,122.50000000000001,123.1,-28.500000000000004,16
353,6037.0,4.1000000000000005,-0.1,-6.0,2.3000000000000003,3.4000000000000004,3.2,103.40000000000002,120.80000000000001,-46.50000000000001,16
354,6056.0,3.0,-1.0,-7.4,0.8,2.7,1.6,57.800000000000004,101.50000000000001,-69.4,16
355,6073.0,1.0,-1.6,-7.5,-1.5,2.1,1.4000000000000001,16.900000000000002,59.300000000000004,-78.5,16
356,6089.0,0.30000000000000004,-1.9000000000000001,-6.800000000000001,-2.3000000000000003,1.8,2.0,-8.8,-13.5,-70.10000000000001,16
357,6104.0,-0.4,-2.8000000000000003,-4.6000000000000005,-3.0,0.7000000000000001,4.2,-11.000000000000002,-51.70000000000001,-61.599999999999994,16
358,6121.0,-0.4,-4.0,-2.6,-2.8000000000000003,-0.5,6.300000000000001,5.300000000000001,-108.60000000000001,-39.9,16
359,6138.0,-0.6000000000000001,-4.4,-1.9000000000000001,-2.8000000000000003,-1.0,7.0,17.400000000000002,-125.7,-29.0,16
360,6155.0,-1.3,-4.800000000000001,-1.1,-3.1,-1.3,7.9,30.699999999999996,-131.0,-9.100000000000001,16
361,6178.0,-1.9000000000000001,-4.7,-0.7000000000000001,-3.4000000000000004,-1.2000000000000002,8.200000000000001,17.0,-103.10000000000001,11.6,16
362,6188.0,-2.1,-4.5,-0.4,-3.4000000000000004,-1.0,8.6,2.8,-84.69999999999999,23.2,16
363,6204.0,-1.7000000000000002,-3.8000000000000003,0.8,-2.8000000000000003,-0.4,9.8,-24.200000000000003,-45.8,45.3,16
364,6221.0,-0.9,-3.1,1.2000000000000002,-1.9000000000000001,0.30000000000000004,10.3,-31.799999999999997,-5.9,56.10000000000001,16
365,6238.0,-0.6000000000000001,-2.7,0.9,-1.6,0.6000000000000001,10.0,-28.900000000000002,8.899999999999999,57.3,16
366,6254.0,-0.4,-2.0,-0.1,-1.4000000000000001,1.2000000000000002,9.0,-17.1,19.1,56.9,16
367,6272.0,-0.4,-1.4000000000000001,-1.3,-1.4000000000000001,1.8,7.800000000000001,-5.2,15.5,56.2,16
368,6288.0,-0.30000000000000004,-1.1,-1.8,-1.3,2.1,7.300000000000001,-2.3,10.5,55.3,16
369,6306.0,-0.2,-0.5,-2.4000000000000004,-1.1,2.7,6.7,-4.9,-1.2000000000000002,48.2,16
370,6321.0,-0.4,0.1,-2.6,-1.2000000000000002,3.2,6.5,-18.8,-7.9,35.2,16
371,6337.0,-0.5,0.30000000000000004,-2.5,-1.3,3.4000000000000004,6.6000000000000005,-28.500000000000004,-8.899999999999999,28.800000000000004,16
372,6354.0,-0.8,0.5,-1.9000000000000001,-1.5,3.5,7.300000000000001,-49.800000000000004,-9.600000000000001,17.7,16
373,6371.0,-0.7000000000000001,0.4,-0.6000000000000001,-1.5,3.2,8.6,-65.8,-12.8,9.2,16
374,6388.0,-0.7000000000000001,0.5,0.8,-1.4000000000000001,3.1,9.4,-72.7,-11.4,5.9,16
375,6404.0,-0.9,0.7000000000000001,1.4000000000000001,-1.6,3.2,10.700000000000001,-72.10000000000001,-9.2,6.4,16
376,6421.0,-1.2000000000000002,0.9,2.1,-1.9000000000000001,3.2,11.5,-63.0,-7.500000000000001,11.5,16
377,6438.0,-1.1,1.0,2.4000000000000004,-1.8,3.2,11.700000000000001,-55.7,-8.3,16.700000000000003,16
378,6454.0,-0.8,1.4000000000000001,2.5,-1.4000000000000001,3.5,11.9,-40.300000000000004,-8.100000000000001,28.600000000000005,16
379,6478.0,-0.1,1.8,2.1,-0.6000000000000001,3.7,11.600000000000001,-29.800000000000004,0.5,40.7,16
380,6488.0,0.30000000000000004,1.8,2.1,-0.2,3.7,11.600000000000001,-29.400000000000002,5.500000000000001,42.0,16
381,6504.0,0.7000000000000001,1.8,2.0,0.1,3.7,11.600000000000001,-29.0,10.600000000000001,41.6,16
382,6521.0,0.9,1.4000000000000001,1.8,0.30000000000000004,3.2,11.4,-25.300000000000004,12.299999999999999,37.7,16
383,6537.0,0.6000000000000001,1.2000000000000002,1.7000000000000002,0.1,2.9000000000000004,11.3,-14.0,1.4,36.6,16
384,6554.0,0.5,1.0,1.6,0.0,2.8000000000000003,11.200000000000001,-5.9,-6.4,36.6,16
385,6571.0,0.2,0.8,1.2000000000000002,-0.2,2.6,10.8,8.899999999999999,-16.4,34.900000000000006,16
386,6589.0,0.1,0.7000000000000001,0.9,-0.30000000000000004,2.5,10.5,12.7,-17.200000000000003,33.400000000000006,16
387,6604.0,0.30000000000000004,0.5,0.4,-0.1,2.4000000000000004,10.0,11.700000000000001,-10.5,29.300000000000004,16
388,6621.0,0.6000000000000001,0.5,0.30000000000000004,0.30000000000000004,2.4000000000000004,9.9,3.1,0.5,21.300000000000004,16
389,6637.0,0.9,0.2,0.2,0.5,2.1,9.8,-4.5,9.899999999999999,8.2,16
390,6654.0,0.9,0.0,0.1,0.5,1.9000000000000001,9.8,-6.500000000000001,12.200000000000001,2.0,16
391,6671.0,0.4,-0.30000000000000004,-0.1,0.0,1.6,9.5,-5.9,8.899999999999999,-6.699999999999999,16
392,6689.0,-0.2,-0.4,-0.1,-0.6000000000000001,1.5,9.5,-0.4,-5.9,-8.3,16
393,6705.0,-0.4,-0.4,-0.1,-0.7000000000000001,1.4000000000000001,9.600000000000001,3.6000000000000005,-15.8,-7.200000000000001,16
394,6721.0,-0.2,-0.5,0.1,-0.5,1.4000000000000001,9.700000000000001,13.8,-34.2,-9.4,16
395,6738.0,-0.30000000000000004,-0.2,0.4,-0.5,1.8,10.0,26.300000000000004,-44.5,-10.0,16
396,6755.0,-0.1,-0.2,0.5,-0.2,1.8,10.100000000000001,32.6,-45.099999999999994,-8.5,16
397,6776.0,0.30000000000000004,-0.4,0.7000000000000001,0.4,1.8,10.3,44.6,-36.300000000000004,-6.9,16
398,6791.0,0.2,-0.4,0.4,0.30000000000000004,1.9000000000000001,10.0,56.7,-15.299999999999999,-10.8,16
399,6804.0,-0.1,-0.30000000000000004,0.1,0.1,2.1,9.600000000000001,59.80000000000001,-14.400000000000002,-9.600000000000001,16
400,6821.0,-0.1,-0.2,-0.4,0.1,2.4000000000000004,9.0,59.5,-19.799999999999997,-3.9,16
401,6837.0,-0.30000000000000004,0.1,-0.7000000000000001,0.0,2.9000000000000004,8.700000000000001,53.599999999999994,-27.700000000000003,0.7,16
402,6854.0,-0.4,0.1,-0.7000000000000001,0.0,3.0,8.6,49.1,-32.6,3.5,16
403,6871.0,-0.1,0.1,-0.5,0.4,3.1,8.8,39.300000000000004,-38.800000000000004,7.500000000000001,16
404,6888.0,0.30000000000000004,0.1,-0.30000000000000004,0.9,3.2,9.0,32.1,-39.9,9.4,16
405,6904.0,0.5,0.1,-0.2,1.2000000000000002,3.3000000000000003,9.0,30.200000000000003,-38.2,10.0,16
406,6921.0,0.6000000000000001,0.1,-0.2,1.4000000000000001,3.4000000000000004,9.0,27.400000000000002,-31.400000000000002,11.2,16
407,6937.0,0.5,0.2,-0.2,1.4000000000000001,3.5,8.9,24.0,-21.200000000000003,13.900000000000002,16
408,6954.0,0.4,0.2,-0.30000000000000004,1.4000000000000001,3.6,8.9,21.0,-17.0,15.6,16
409,6975.0,0.4,-0.1,-0.30000000000000004,1.4000000000000001,3.3000000000000003,8.8,12.8,-7.200000000000001,17.799999999999997,16
410,6991.0,0.4,-0.1,-0.5,1.4000000000000001,3.3000000000000003,8.6,4.1,3.6000000000000005,14.900000000000002,16
411,7004.0,0.30000000000000004,-0.1,-0.6000000000000001,1.3,3.3000000000000003,8.5,-0.1,7.300000000000001,13.000000000000002,16
412,7021.0,0.2,0.0,-0.6000000000000001,1.2000000000000002,3.4000000000000004,8.5,-9.4,9.2,7.8,16
413,7038.0,0.1,-0.1,-0.4,1.1,3.3000000000000003,8.700000000000001,-18.6,5.500000000000001,2.0,16
414,7054.0,0.2,-0.1,-0.30000000000000004,1.2000000000000002,3.2,8.9,-22.4,2.7,-0.8,16
415,7071.0,0.2,-0.30000000000000004,0.1,1.2000000000000002,2.9000000000000004,9.3,-26.6,0.5,-3.8,16
416,7088.0,0.4,-0.5,0.4,1.3,2.6,9.700000000000001,-26.1,3.7000000000000006,-3.8,16
417,7104.0,0.4,-0.6000000000000001,0.5,1.3,2.5,9.700000000000001,-24.7,6.500000000000001,-3.2,16
418,7121.0,0.2,-0.7000000000000001,0.4,1.1,2.4000000000000004,9.600000000000001,-21.300000000000004,15.100000000000001,-2.0,16
419,7137.0,0.1,-0.6000000000000001,0.1,0.9,2.3000000000000003,9.4,-20.0,18.3,0.1,16
420,7154.0,0.0,-0.6000000000000001,-0.1,0.8,2.3000000000000003,9.200000000000001,-19.9,18.0,2.3,16
421,7171.0,-0.2,-0.5,-0.30000000000000004,0.6000000000000001,2.3000000000000003,9.0,-19.6,11.5,10.1,16
422,7188.0,0.1,-0.30000000000000004,-0.2,0.8,2.4000000000000004,9.1,-17.9,-2.6,19.1,16
423,7204.0,0.1,0.0,-0.1,0.9,2.7,9.200000000000001,-15.2,-12.299999999999999,23.800000000000004,16
424,7221.0,0.1,0.2,-0.1,1.0,2.9000000000000004,9.3,-13.8,-15.899999999999999,25.8,16
425,7240.0,0.30000000000000004,0.30000000000000004,0.0,1.3,3.0,9.4,-10.4,-26.1,29.200000000000003,16
426,7254.0,0.7000000000000001,0.30000000000000004,0.0,1.8,2.9000000000000004,9.4,-5.2,-29.300000000000004,29.700000000000006,16
427,7271.0,0.9,0.30000000000000004,0.0,2.0,2.9000000000000004,9.4,-2.0,-30.200000000000003,28.0,16
428,7288.0,0.9,0.4,0.2,2.2,3.0,9.5,5.8,-29.700000000000006,20.5,16
429,7304.0,0.9,0.4,0.2,2.0,3.0,9.5,14.300000000000002,-19.0,10.0,16
430,7321.0,0.30000000000000004,0.30000000000000004,0.1,1.7000000000000002,3.0,9.4,18.1,-12.8,4.800000000000001,16
431,7337.0,0.0,-0.1,-0.1,1.5,2.7,9.200000000000001,23.3,-12.4,-1.7,16
432,7354.0,-0.1,-0.2,-0.1,1.3,2.6,9.1,24.5,-15.5,-2.9,16
433,7378.0,0.0,-0.30000000000000004,-0.2,1.6,2.6,9.0,22.9,-28.700000000000003,-0.7,16
434,7388.0,0.0,-0.30000000000000004,-0.1,1.7000000000000002,2.6,9.1,20.8,-33.2,-0.7,16
435,7404.0,0.2,-0.4,0.1,1.9000000000000001,2.6,9.3,16.700000000000003,-31.400000000000002,0.9000000000000001,16
436,7421.0,0.2,-0.4,0.30000000000000004,1.9000000000000001,2.6,9.5,14.700000000000001,-25.200000000000003,2.1,16
437,7438.0,0.4,-0.5,0.30000000000000004,2.2,2.6,9.4,11.1,-0.8,3.7000000000000006,16
438,7454.0,0.4,-0.30000000000000004,-0.1,2.2,2.7,9.1,4.7,24.0,1.7,16
439,7471.0,0.4,-0.1,-0.2,2.1,2.9000000000000004,8.9,0.0,30.200000000000003,-0.2,16
440,7488.0,0.30000000000000004,0.2,-0.5,1.9000000000000001,3.2,8.700000000000001,-12.200000000000001,38.400000000000006,-2.5,16
441,7505.0,0.30000000000000004,0.4,-0.6000000000000001,1.7000000000000002,3.3000000000000003,8.6,-26.6,44.300000000000004,-3.2,16
442,7521.0,0.30000000000000004,0.30000000000000004,-0.6000000000000001,1.7000000000000002,3.3000000000000003,8.6,-33.800000000000004,45.400000000000006,-3.6000000000000005,16
443,7538.0,0.4,0.2,-0.6000000000000001,1.6,3.0,8.700000000000001,-47.3,42.60000000000001,-5.0,16
444,7554.0,0.1,0.2,-0.5,1.3,2.8000000000000003,8.9,-55.0,35.699999999999996,-2.9,16
445,7574.0,0.0,0.2,0.0,1.1,2.6,9.4,-53.7,28.500000000000004,-0.1,16
446,7588.0,0.0,0.2,0.1,1.0,2.5,9.600000000000001,-50.0,26.200000000000003,0.5,16
447,7604.0,0.1,0.1,0.4,1.0,2.3000000000000003,9.9,-38.800000000000004,27.2,-2.5,16
448,7621.0,0.2,0.0,0.6000000000000001,1.1,2.2,10.100000000000001,-31.6,26.700000000000003,-5.0,16
449,7639.0,0.1,0.0,0.7000000000000001,0.9,2.1,10.3,-14.5,19.9,-9.899999999999999,16
450,7654.0,-0.2,0.0,0.7000000000000001,0.5,2.1,10.200000000000001,5.1000000000000005,4.0,-12.100000000000001,16
451,7672.0,-0.30000000000000004,-0.1,0.7000000000000001,0.4,2.1,10.200000000000001,14.900000000000002,-4.5,-11.6,16
452,7688.0,-0.30000000000000004,-0.30000000000000004,0.8,0.5,1.9000000000000001,10.3,31.5,-19.300000000000004,-8.2,16
453,7704.0,0.0,-0.4,1.2000000000000002,0.8,1.9000000000000001,10.600000000000001,44.5,-21.500000000000004,-4.2,16
454,7721.0,0.1,-0.4,1.3,0.9,2.0,10.700000000000001,50.8,-18.1,-2.9,16
455,7738.0,0.30000000000000004,-0.30000000000000004,1.0,1.2000000000000002,2.4000000000000004,10.4,63.70000000000001,-5.0,-2.7,16
456,7754.0,0.30000000000000004,-0.2,0.4,1.2000000000000002,2.6,9.8,72.2,6.1000000000000005,-6.0,16
457,7771.0,0.30000000000000004,-0.2,0.1,1.2000000000000002,2.8000000000000003,9.4,73.8,8.0,-8.3,16
458,7787.0,0.30000000000000004,-0.2,-0.4,1.1,3.1,8.9,71.39999999999999,9.2,-12.0,16
459,7804.0,0.1,-0.1,-1.0,0.9,3.3000000000000003,8.200000000000001,61.9,8.100000000000001,-14.0,16
460,7821.0,-0.1,-0.1,-1.2000000000000002,0.7000000000000001,3.4000000000000004,7.9,53.400000000000006,2.4000000000000004,-13.700000000000001,16
461,7837.0,-0.2,-0.2,-1.3,0.6000000000000001,3.5,7.800000000000001,33.2,-7.0,-10.4,16
462,7854.0,0.1,-0.4,-1.1,0.9,3.3000000000000003,8.0,13.000000000000002,-8.8,-7.0,16
463,7871.0,0.30000000000000004,-0.4,-0.8,1.1,3.3000000000000003,8.200000000000001,4.1,-7.0,-7.1000000000000005,16
464,7888.0,0.30000000000000004,-0.5,-0.6000000000000001,1.1,3.1,8.5,-7.400000000000001,0.2,-9.3,16
465,7904.0,0.1,-0.6000000000000001,-0.5,0.9,3.1,8.6,-15.2,1.9,-11.3,16
466,7921.0,0.1,-0.7000000000000001,-0.4,0.9,2.9000000000000004,8.6,-21.200000000000003,2.2,-9.5,16
467,7940.0,0.1,-0.8,-0.30000000000000004,0.9,2.7,8.8,-22.8,3.1,-7.500000000000001,16
468,7955.0,0.1,-0.7000000000000001,-0.2,0.9,2.8000000000000003,8.9,-22.8,4.5,-2.9,16
469,7971.0,0.2,-0.6000000000000001,-0.2,0.9,2.9000000000000004,8.9,-21.500000000000004,4.4,-0.7,16
470,7988.0,0.2,-0.30000000000000004,0.0,0.9,3.1,9.1,-16.6,2.9,2.8,16
471,8004.0,0.2,-0.1,0.0,0.9,3.3000000000000003,9.1,-9.600000000000001,-1.3,3.4,16
472,8021.0,0.2,0.0,0.0,0.9,3.3000000000000003,9.200000000000001,-2.2,-3.2,3.0,16
473,8037.0,0.1,0.1,-0.1,0.9,3.4000000000000004,9.1,0.9000000000000001,-3.8,2.6,16
474,8054.0,0.1,0.1,-0.30000000000000004,0.9,3.5,8.9,2.6,-6.600000000000001,2.7,16
475,8071.0,0.30000000000000004,0.2,-0.2,1.1,3.6,8.9,-0.2,-7.400000000000001,2.9,16
476,8089.0,0.4,0.2,-0.2,1.2000000000000002,3.6,9.0,-2.8,-8.2,1.9,16
477,8105.0,0.6000000000000001,0.1,0.0,1.4000000000000001,3.4000000000000004,9.1,-8.3,-7.1000000000000005,-2.3,16
478,8121.0,0.5,-0.1,0.2,1.4000000000000001,3.2,9.4,-13.6,-4.9,-6.9,16
479,8137.0,0.5,-0.2,0.30000000000000004,1.3,3.0,9.5,-15.700000000000001,-3.7000000000000006,-8.700000000000001,16
480,8154.0,0.4,-0.4,0.5,1.3,2.7,9.700000000000001,-18.900000000000002,-0.1,-10.1,16
481,8173.0,0.2,-0.6000000000000001,0.5,1.0,2.5,9.700000000000001,-20.0,6.0,-10.4,16
482,8188.0,0.1,-0.6000000000000001,0.30000000000000004,0.9,2.4000000000000004,9.600000000000001,-19.5,10.1,-9.700000000000001,16
483,8204.0,0.0,-0.6000000000000001,0.1,0.8,2.4000000000000004,9.3,-16.4,16.1,-7.200000000000001,16
484,8221.0,0.0,-0.4,-0.4,0.7000000000000001,2.6,8.8,-11.4,17.799999999999997,-5.6,16
485,8237.0,0.0,-0.30000000000000004,-0.6000000000000001,0.7000000000000001,2.7,8.6,-8.600000000000001,14.700000000000001,-4.9,16
486,8254.0,0.0,0.0,-0.7000000000000001,0.6000000000000001,2.9000000000000004,8.6,-3.2,3.3000000000000007,-2.5,16
487,8274.0,0.1,0.1,-0.6000000000000001,0.8,3.1,8.700000000000001,-0.2,-6.4,-1.0,16
488,8291.0,0.2,0.2,-0.4,0.9,3.1,8.8,0.0,-6.9,-1.5,16
489,8304.0,0.30000000000000004,0.2,-0.4,1.0,3.1,8.9,-1.3,-6.0,-2.4000000000000004,16
490,8321.0,0.2,0.30000000000000004,-0.2,0.9,3.2,9.1,-5.7,-5.8,-3.9,16
491,8341.0,0.1,0.1,0.1,0.9,3.1,9.3,-9.899999999999999,-6.699999999999999,-5.4,16
492,8354.0,0.1,0.0,0.2,0.8,2.9000000000000004,9.5,-11.3,-6.600000000000001,-6.300000000000001,16
493,8372.0,0.0,-0.1,0.5,0.7000000000000001,2.8000000000000003,9.8,-13.3,-4.9,-7.500000000000001,16
494,8388.0,-0.1,-0.1,0.5,0.7000000000000001,2.7,9.8,-13.5,-2.8,-7.400000000000001,16
495,8404.0,-0.30000000000000004,-0.2,0.5,0.4,2.6,9.8,-12.0,2.5,-6.4,16
496,8421.0,-0.5,-0.2,0.4,0.2,2.6,9.700000000000001,-9.3,3.4,-4.1,16
497,8438.0,-0.5,-0.2,0.30000000000000004,0.2,2.6,9.600000000000001,-7.6,2.7,-2.6,16
498,8454.0,-0.4,0.0,0.30000000000000004,0.30000000000000004,2.7,9.600000000000001,-3.6000000000000005,0.9000000000000001,0.30000000000000004,16
499,8471.0,-0.30000000000000004,0.0,0.1,0.4,2.8000000000000003,9.5,0.5,1.8000000000000003,1.7,16
500,8488.0,-0.30000000000000004,0.1,0.1,0.4,2.8000000000000003,9.4,1.7,2.0,2.0,16
501,8505.0,-0.30000000000000004,0.2,-0.1,0.4,2.9000000000000004,9.3,2.0,-0.7,2.5,16
502,8522.0,-0.30000000000000004,0.30000000000000004,-0.1,0.4,3.0,9.200000000000001,-0.9000000000000001,-4.7,3.4,16
503,8538.0,-0.2,0.30000000000000004,0.0,0.5,3.1,9.3,-2.6,-7.1000000000000005,3.9,16
504,8554.0,0.1,0.30000000000000004,0.30000000000000004,0.8,3.0,9.600000000000001,-4.1,-8.0,3.1,16
505,8574.0,0.1,0.30000000000000004,0.30000000000000004,0.9,3.0,9.700000000000001,-3.3000000000000007,-5.9,0.7,16
506,8589.0,0.1,0.1,0.30000000000000004,0.9,2.8000000000000003,9.700000000000001,-2.8,-2.8,-1.1,16
507,8605.0,0.0,0.0,0.2,0.8,2.7,9.5,-2.6,-0.5,-1.2000000000000002,16
508,8621.0,0.0,0.0,0.0,0.7000000000000001,2.7,9.3,-2.8,2.0,-0.4,16
509,8637.0,-0.1,0.0,-0.1,0.7000000000000001,2.7,9.3,-2.9,1.9,0.0,16
510,8654.0,-0.2,0.0,-0.2,0.6000000000000001,2.7,9.200000000000001,-2.3,-0.2,0.8,16
511,8671.0,-0.2,0.0,-0.2,0.6000000000000001,2.7,9.1,-2.2,-3.4,1.4,16
512,8688.0,-0.2,0.0,-0.2,0.6000000000000001,2.7,9.200000000000001,-2.8,-4.4,2.0,16
513,8705.0,0.1,0.0,0.1,0.9,2.7,9.4,-4.300000000000001,-4.1,2.1,16
514,8722.0,0.1,0.1,0.2,0.9,2.7,9.600000000000001,-4.6,-0.30000000000000004,0.4,16
515,8737.0,0.1,0.1,0.2,0.9,2.7,9.600000000000001,-4.5,1.9,-0.6000000000000001,16
516,8754.0,0.0,0.1,0.2,0.8,2.7,9.600000000000001,-4.0,3.6000000000000005,-1.6,16
517,8771.0,0.0,0.0,0.30000000000000004,0.8,2.7,9.700000000000001,-2.8,4.1,-1.1,16
518,8788.0,0.1,0.0,0.30000000000000004,0.8,2.7,9.700000000000001,-1.7,4.300000000000001,-0.8,16
519,8804.0,0.1,0.0,0.30000000000000004,0.8,2.6,9.700000000000001,1.2000000000000002,5.500000000000001,-0.8,16
520,8821.0,0.0,0.0,0.1,0.7000000000000001,2.6,9.5,3.1,8.100000000000001,-1.3,16
521,8838.0,-0.1,0.0,0.0,0.6000000000000001,2.5,9.3,2.7,8.4,-0.8,16
522,8857.0,-0.1,-0.1,-0.1,0.6000000000000001,2.5,9.3,1.7,9.100000000000001,0.30000000000000004,16
523,8872.0,0.0,-0.1,-0.1,0.6000000000000001,2.5,9.3,1.4,10.299999999999999,0.6000000000000001,16
524,8888.0,-0.1,-0.1,-0.1,0.6000000000000001,2.5,9.3,0.8,10.700000000000001,0.30000000000000004,16
525,8904.0,0.0,-0.1,-0.1,0.6000000000000001,2.5,9.3,0.9000000000000001,11.3,-0.5,16
526,8921.0,-0.1,-0.2,-0.1,0.5,2.5,9.3,1.0,11.8,-1.0,16
527,8937.0,-0.1,-0.2,-0.2,0.4,2.4000000000000004,9.200000000000001,0.1,12.5,-1.1,16
528,8956.0,-0.1,-0.1,-0.1,0.30000000000000004,2.5,9.3,-0.5,12.8,-0.9000000000000001,16
529,8973.0,-0.1,-0.1,-0.1,0.30000000000000004,2.5,9.3,-2.1,12.7,1.4,16
530,8987.0,-0.1,-0.1,-0.1,0.30000000000000004,2.6,9.3,-3.0,13.5,2.2,16
531,9004.0,-0.1,0.0,-0.1,0.2,2.6,9.3,-3.0,12.4,2.5,16
532,9021.0,-0.2,0.0,-0.2,0.2,2.6,9.200000000000001,-3.4,10.5,4.800000000000001,16
533,9037.0,-0.1,0.2,0.0,0.2,2.7,9.4,-4.4,4.7,5.8,16
534,9055.0,0.0,0.2,0.2,0.30000000000000004,2.8000000000000003,9.600000000000001,-4.1,2.4000000000000004,5.500000000000001,16
535,9073.0,0.1,0.1,0.4,0.4,2.6,9.8,-2.1,-0.7,5.0,16
536,9088.0,0.1,0.0,0.5,0.4,2.6,9.9,-0.1,0.1,4.2,16
537,9104.0,0.1,0.0,0.5,0.4,2.6,9.9,-0.2,1.7,3.9,16
538,9121.0,0.2,-0.1,0.6000000000000001,0.5,2.5,10.0,0.2,4.9,4.4,16
539,9140.0,0.4,-0.1,0.5,0.7000000000000001,2.4000000000000004,9.9,2.8,7.500000000000001,4.6,16
540,9160.0,0.6000000000000001,-0.2,0.1,0.8,2.4000000000000004,9.600000000000001,6.300000000000001,9.2,4.1,16
541,9172.0,0.6000000000000001,-0.2,0.0,0.8,2.4000000000000004,9.4,7.699999999999999,8.899999999999999,3.0,16
542,9188.0,0.5,-0.1,-0.2,0.7000000000000001,2.5,9.200000000000001,8.600000000000001,6.600000000000001,1.3,16
543,9204.0,0.5,-0.2,-0.2,0.8,2.4000000000000004,9.200000000000001,8.600000000000001,5.8,1.0,16
544,9221.0,0.6000000000000001,-0.4,-0.2,0.8,2.3000000000000003,9.200000000000001,8.5,6.2,0.9000000000000001,16
545,9237.0,0.5,-0.30000000000000004,-0.30000000000000004,0.7000000000000001,2.4000000000000004,9.0,8.0,7.0,1.2000000000000002,16
546,9254.0,0.5,-0.30000000000000004,-0.4,0.7000000000000001,2.4000000000000004,8.9,7.400000000000001,6.4,1.4,16
547,9274.0,0.5,-0.2,-0.5,0.6000000000000001,2.5,8.9,5.300000000000001,5.8,1.4,16
548,9288.0,0.4,-0.1,-0.5,0.6000000000000001,2.6,8.8,3.6000000000000005,4.4,1.1,16
549,9304.0,0.4,-0.1,-0.5,0.6000000000000001,2.6,8.9,2.0,2.2,-0.1,16
550,9321.0,0.30000000000000004,0.0,-0.5,0.4,2.7,8.9,0.6000000000000001,1.7,-0.9000000000000001,16
551,9337.0,0.2,0.1,-0.30000000000000004,0.30000000000000004,2.8000000000000003,9.1,-3.6000000000000005,0.4,-2.2,16
552,9354.0,0.2,0.1,-0.1,0.30000000000000004,2.9000000000000004,9.3,-5.500000000000001,0.8,-2.9,16
553,9373.0,0.2,0.1,0.2,0.30000000000000004,2.8000000000000003,9.5,-7.300000000000001,2.7,-4.9,16
554,9390.0,0.1,0.0,0.4,0.2,2.7,9.8,-6.600000000000001,4.7,-6.0,16
555,9404.0,0.0,0.0,0.5,0.1,2.7,9.9,-4.1,6.4,-4.4,16
556,9421.0,0.0,0.0,0.5,0.1,2.7,9.9,-2.5,6.9,-3.5,16
557,9437.0,0.2,0.1,0.30000000000000004,0.2,2.7,9.700000000000001,1.4,7.6,-2.7,16
558,9455.0,0.2,0.1,0.1,0.30000000000000004,2.7,9.600000000000001,4.2,6.9,-3.2,16
559,9471.0,0.2,0.1,0.0,0.2,2.8000000000000003,9.4,4.7,5.500000000000001,-3.1,16
560,9487.0,0.2,0.1,-0.1,0.30000000000000004,2.8000000000000003,9.3,3.4,3.1,-3.1,16
561,9504.0,0.30000000000000004,0.1,-0.1,0.4,2.8000000000000003,9.3,2.0,1.9,-3.8,16
562,9521.0,0.4,0.2,0.0,0.4,2.9000000000000004,9.3,1.7,1.6,-4.4,16
563,9537.0,0.30000000000000004,0.1,-0.1,0.30000000000000004,2.9000000000000004,9.3,1.3,1.3,-5.7,16
564,9554.0,0.2,0.1,0.0,0.2,2.8000000000000003,9.3,-0.2,2.6,-6.8,16
565,9571.0,0.2,0.1,0.0,0.2,2.8000000000000003,9.3,-0.9000000000000001,3.9,-7.0,16
566,9587.0,0.2,0.2,0.0,0.2,2.9000000000000004,9.3,-2.2,4.2,-7.8,16
567,9604.0,0.1,0.2,0.1,0.0,3.0,9.4,-3.1,5.0,-9.3,16
568,9621.0,0.0,0.2,0.1,-0.1,3.0,9.4,-3.4,5.4,-10.0,16
569,9637.0,-0.2,0.2,0.1,-0.30000000000000004,2.9000000000000004,9.5,-2.4000000000000004,5.1000000000000005,-10.5,16
570,9654.0,-0.30000000000000004,0.1,0.2,-0.4,2.8000000000000003,9.600000000000001,-0.5,4.2,-9.600000000000001,16
571,9671.0,-0.30000000000000004,0.1,0.2,-0.4,2.8000000000000003,9.600000000000001,0.30000000000000004,4.0,-8.5,16
572,9687.0,-0.30000000000000004,0.1,0.1,-0.5,2.8000000000000003,9.5,1.5,5.0,-6.300000000000001,16
573,9704.0,-0.30000000000000004,0.1,0.1,-0.5,2.8000000000000003,9.5,2.2,4.1,-5.6,16
574,9721.0,-0.4,0.0,0.1,-0.5,2.8000000000000003,9.5,2.4000000000000004,3.1,-5.4,16
575,9737.0,-0.4,0.0,0.2,-0.6000000000000001,2.8000000000000003,9.600000000000001,2.4000000000000004,0.5,-4.6,16
576,9757.0,-0.4,-0.1,0.30000000000000004,-0.6000000000000001,2.7,9.700000000000001,3.4,-0.7,-3.6000000000000005,16
577,9771.0,-0.4,-0.2,0.30000000000000004,-0.6000000000000001,2.6,9.700000000000001,4.7,-0.8,-2.5,16
578,9791.0,-0.30000000000000004,-0.2,0.2,-0.5,2.6,9.600000000000001,7.6,-1.6,-0.5,16
579,9804.0,-0.2,-0.2,0.0,-0.5,2.6,9.4,8.600000000000001,-1.4,1.5,16
580,9821.0,-0.2,-0.2,0.0,-0.5,2.6,9.4,8.600000000000001,-1.7,2.4000000000000004,16
581,9837.0,-0.2,-0.2,0.0,-0.4,2.6,9.4,8.5,-4.4,3.6000000000000005,16
582,9854.0,0.0,-0.2,0.1,-0.30000000000000004,2.6,9.5,9.4,-6.500000000000001,4.1,16
583,9874.0,0.1,-0.2,0.2,-0.1,2.6,9.600000000000001,10.4,-6.1000000000000005,3.8,16
584,9887.0,0.2,-0.30000000000000004,0.2,0.0,2.6,9.600000000000001,10.8,-4.9,3.4,16
585,9904.0,0.2,-0.30000000000000004,0.1,0.0,2.6,9.4,11.000000000000002,-2.8,2.5,16
586,9921.0,0.1,-0.30000000000000004,0.0,0.0,2.7,9.3,10.8,-2.6,2.3,16
587,9937.0,0.0,-0.2,0.0,-0.1,2.8000000000000003,9.3,10.299999999999999,-4.1,2.8,16
588,9954.0,0.1,-0.2,0.1,0.0,2.8000000000000003,9.4,12.299999999999999,-8.100000000000001,4.4,16
589,9972.0,0.1,-0.2,0.1,0.0,2.8000000000000003,9.4,15.5,-11.900000000000002,4.7,16
590,9987.0,0.2,-0.2,0.1,0.1,2.9000000000000004,9.4,16.5,-12.100000000000001,4.300000000000001,16
591,10004.0,0.2,-0.1,0.0,0.2,3.0,9.200000000000001,16.6,-9.100000000000001,3.0,16
592,10021.0,0.2,-0.1,-0.1,0.2,3.0,9.200000000000001,15.8,-7.6,2.0,16
593,10040.0,0.30000000000000004,-0.1,-0.1,0.30000000000000004,3.1,9.200000000000001,14.200000000000001,-4.9,-0.9000000000000001,16
594,10054.0,0.30000000000000004,-0.2,-0.30000000000000004,0.30000000000000004,3.0,9.0,13.700000000000001,-2.9,-5.4,16
595,10072.0,0.1,-0.30000000000000004,-0.5,0.1,2.9000000000000004,8.700000000000001,12.100000000000001,-2.4000000000000004,-8.2,16
596,10090.0,0.0,-0.30000000000000004,-0.6000000000000001,0.0,2.9000000000000004,8.6,10.200000000000001,-2.6,-8.4,16
597,10104.0,-0.2,-0.4,-0.6000000000000001,-0.2,2.9000000000000004,8.6,5.300000000000001,-3.6000000000000005,-6.9,16
598,10121.0,-0.2,-0.5,-0.5,-0.2,2.8000000000000003,8.700000000000001,3.3000000000000007,-4.5,-5.2,16
599,10137.0,-0.1,-0.5,-0.30000000000000004,-0.1,2.9000000000000004,8.9,1.7,-7.0,-1.8000000000000003,16
600,10154.0,0.1,-0.30000000000000004,-0.2,0.2,3.1,9.0,1.8000000000000003,-8.8,-1.0,16
601,10171.0,0.2,-0.1,-0.2,0.30000000000000004,3.3000000000000003,8.8,1.4,-7.699999999999999,-2.2,16
602,10188.0,0.1,0.0,-0.4,0.2,3.3000000000000003,8.8,-2.7,-3.1,-6.1000000000000005,16
603,10204.0,0.1,0.0,-0.2,0.2,3.3000000000000003,9.0,-8.3,-1.9,-9.600000000000001,16
604,10221.0,0.0,-0.1,0.0,0.1,3.1,9.200000000000001,-12.200000000000001,-0.4,-10.700000000000001,16
605,10237.0,-0.1,-0.1,0.0,0.0,3.1,9.200000000000001,-14.0,0.8,-10.299999999999999,16
606,10254.0,-0.1,0.1,0.1,-0.1,3.2,9.3,-16.1,-0.1,-8.0,16
607,10271.0,-0.1,0.1,0.2,0.1,3.4000000000000004,9.600000000000001,-15.299999999999999,-2.9,-6.500000000000001,16
608,10288.0,0.1,0.30000000000000004,0.4,0.2,3.4000000000000004,9.700000000000001,-10.5,-8.3,-5.300000000000001,16
609,10304.0,0.1,0.4,0.4,0.2,3.5,9.700000000000001,-4.5,-10.8,-6.300000000000001,16
610,10321.0,0.0,0.5,0.2,0.2,3.6,9.5,0.4,-11.8,-7.300000000000001,16
611,10338.0,0.0,0.5,0.1,0.1,3.6,9.4,1.6,-12.4,-8.4,16
612,10354.0,-0.1,0.4,0.0,0.1,3.5,9.200000000000001,1.9,-11.4,-10.4,16
613,10371.0,-0.1,0.4,-0.1,0.1,3.5,9.200000000000001,-0.1,-10.200000000000001,-12.200000000000001,16
614,10390.0,-0.2,0.4,0.0,0.0,3.5,9.3,-1.1,-8.899999999999999,-12.9,16
615,10404.0,-0.30000000000000004,0.4,0.1,-0.1,3.5,9.4,-1.1,-7.699999999999999,-13.200000000000003,16
616,10421.0,-0.30000000000000004,0.30000000000000004,0.1,-0.1,3.4000000000000004,9.4,1.4,-5.6,-13.399999999999999,16
617,10439.0,-0.30000000000000004,0.30000000000000004,0.1,-0.1,3.5,9.3,2.0,-4.1,-13.900000000000002,16
618,10454.0,-0.30000000000000004,0.4,-0.2,-0.1,3.5,9.1,0.1,0.4,-15.399999999999999,16
619,10471.0,-0.4,0.4,-0.2,-0.2,3.6,9.1,-3.2,2.0,-15.8,16
620,10489.0,-0.30000000000000004,0.4,-0.1,-0.2,3.6,9.1,-3.7000000000000006,2.2,-16.0,16
621,10504.0,-0.1,0.2,-0.1,0.0,3.4000000000000004,9.200000000000001,-2.9,1.7,-17.0,16
622,10521.0,-0.1,0.30000000000000004,0.0,-0.1,3.4000000000000004,9.200000000000001,-2.5,2.2,-18.0,16
623,10537.0,-0.1,0.30000000000000004,0.0,0.0,3.5,9.200000000000001,-3.3000000000000007,2.8,-18.8,16
624,10554.0,0.0,0.2,0.1,0.0,3.4000000000000004,9.4,-6.300000000000001,5.2,-21.1,16
625,10571.0,-0.1,0.1,0.30000000000000004,-0.2,3.3000000000000003,9.600000000000001,-7.6,7.500000000000001,-21.500000000000004,16
626,10587.0,-0.1,0.1,0.30000000000000004,-0.2,3.2,9.600000000000001,-6.699999999999999,7.200000000000001,-20.900000000000002,16
627,10604.0,0.0,0.1,0.30000000000000004,-0.1,3.2,9.600000000000001,-4.1,6.300000000000001,-19.6,16
628,10621.0,0.0,0.2,0.2,-0.2,3.3000000000000003,9.5,-2.8,7.1000000000000005,-18.200000000000003,16
629,10637.0,-0.1,0.30000000000000004,0.1,-0.2,3.4000000000000004,9.4,-2.2,6.600000000000001,-17.9,16
630,10657.0,-0.1,0.2,0.0,-0.30000000000000004,3.4000000000000004,9.3,-0.8,3.8,-18.200000000000003,16
631,10675.0,-0.2,0.1,0.0,-0.4,3.2,9.3,-0.30000000000000004,1.6,-18.3,16
632,10689.0,-0.2,0.0,0.0,-0.6000000000000001,3.2,9.200000000000001,-0.9000000000000001,3.1,-17.799999999999997,16
633,10704.0,-0.4,0.0,-0.1,-0.7000000000000001,3.2,9.200000000000001,-2.8,5.2,-16.200000000000003,16
634,10721.0,-0.4,0.0,-0.1,-0.7000000000000001,3.1,9.200000000000001,-3.9,4.7,-14.100000000000001,16
635,10737.0,-0.4,0.0,-0.1,-0.8,3.1,9.200000000000001,-3.5,3.8,-13.000000000000002,16
636,10755.0,-0.5,0.0,0.1,-0.8,3.1,9.4,-1.6,0.1,-10.1,16
637,10772.0,-0.4,0.0,0.0,-0.7000000000000001,3.1,9.3,1.3,-2.0,-7.500000000000001,16
638,10787.0,-0.4,0.1,0.0,-0.7000000000000001,3.1,9.3,2.0,-2.6,-6.300000000000001,16
639,10804.0,-0.30000000000000004,0.1,0.0,-0.7000000000000001,3.2,9.3,1.7,-0.7,-4.9,16
640,10821.0,-0.30000000000000004,0.2,0.0,-0.7000000000000001,3.3000000000000003,9.3,0.5,1.9,-3.8,16
641,10837.0,-0.30000000000000004,0.2,0.1,-0.7000000000000001,3.3000000000000003,9.4,0.2,3.9,-3.0,16
642,10854.0,-0.30000000000000004,0.2,-0.1,-0.7000000000000001,3.3000000000000003,9.200000000000001,0.5,5.1000000000000005,-1.6,16
643,10871.0,-0.2,0.2,-0.1,-0.7000000000000001,3.3000000000000003,9.200000000000001,1.1,1.2000000000000002,0.4,16
644,10889.0,0.0,0.1,0.1,-0.5,3.3000000000000003,9.4,2.5,-3.1,2.2,16
645,10904.0,0.1,0.1,0.1,-0.4,3.3000000000000003,9.4,3.1,-4.2,2.3,16
646,10921.0,0.1,0.1,0.2,-0.30000000000000004,3.3000000000000003,9.5,3.6000000000000005,-4.4,1.6,16
647,10938.0,0.1,0.1,0.2,-0.4,3.3000000000000003,9.5,3.4,-3.9,1.1,16
648,10956.0,0.0,0.0,0.30000000000000004,-0.5,3.2,9.600000000000001,3.2,-2.2,0.7,16
649,10971.0,-0.1,-0.2,0.2,-0.5,3.1,9.5,4.1,1.4,1.3,16
650,10990.0,-0.1,-0.1,0.1,-0.5,3.1,9.3,3.8,4.4,2.3,16
651,11004.0,-0.1,-0.1,0.0,-0.5,3.1,9.200000000000001,3.0,5.2,2.8,16
652,11021.0,0.0,-0.1,-0.1,-0.5,3.1,9.200000000000001,2.4000000000000004,5.6,3.1,16
653,11037.0,0.0,-0.30000000000000004,-0.30000000000000004,-0.5,3.1,9.1,2.8,5.0,3.1,16
654,11054.0,-0.1,-0.30000000000000004,-0.4,-0.5,3.0,8.9,3.2,2.4000000000000004,3.6000000000000005,16
655,11071.0,-0.1,-0.2,-0.30000000000000004,-0.6000000000000001,3.1,8.9,1.8000000000000003,-0.30000000000000004,5.1000000000000005,16
656,11088.0,0.0,-0.1,-0.1,-0.5,3.1,9.200000000000001,-0.1,-1.3,6.2,16
657,11104.0,0.0,-0.1,0.0,-0.4,3.2,9.3,-0.5,-0.5,6.500000000000001,16
658,11121.0,0.2,-0.1,0.2,-0.30000000000000004,3.2,9.4,0.5,1.2000000000000002,6.699999999999999,16
659,11138.0,0.30000000000000004,0.0,0.0,-0.2,3.2,9.3,2.1,3.1,5.8,16
660,11154.0,0.2,0.0,-0.1,-0.2,3.3000000000000003,9.200000000000001,2.2,3.4,5.300000000000001,16
661,11172.0,0.2,0.0,-0.2,-0.30000000000000004,3.3000000000000003,9.1,1.7,0.8,5.300000000000001,16
662,11187.0,0.2,0.0,0.0,-0.2,3.2,9.200000000000001,2.2,-3.4,6.4,16
663,11204.0,0.30000000000000004,-0.1,0.0,-0.1,3.2,9.3,2.6,-4.5,6.699999999999999,16
664,11221.0,0.4,0.0,0.1,0.0,3.3000000000000003,9.3,2.8,-2.2,6.4,16
665,11238.0,0.4,0.0,-0.1,0.0,3.3000000000000003,9.1,1.4,1.3,3.6000000000000005,16
666,11254.0,0.4,0.0,-0.2,0.0,3.3000000000000003,9.1,-0.2,2.1,2.0,16
667,11274.0,0.2,-0.1,0.0,-0.2,3.2,9.200000000000001,-3.3000000000000007,1.6,0.8,16
668,11288.0,0.1,-0.1,0.2,-0.30000000000000004,3.2,9.5,-1.5,-1.3,1.7,16
669,11304.0,0.1,-0.2,0.30000000000000004,-0.2,3.1,9.5,0.6000000000000001,-2.6,2.3,16
670,11321.0,0.2,-0.1,0.2,-0.2,3.2,9.4,3.1,-2.3,3.6000000000000005,16
671,11337.0,0.2,0.0,-0.1,-0.2,3.3000000000000003,9.200000000000001,2.5,0.0,3.6000000000000005,16
672,11354.0,0.1,0.0,-0.1,-0.2,3.3000000000000003,9.1,1.4,0.9000000000000001,2.9,16
673,11371.0,0.1,0.0,-0.1,-0.2,3.3000000000000003,9.200000000000001,-0.8,1.9,1.7,16
674,11387.0,0.0,-0.1,-0.2,-0.30000000000000004,3.2,9.1,-1.3,1.7,0.9000000000000001,16
675,11404.0,-0.1,-0.1,-0.1,-0.4,3.2,9.1,-1.3,0.4,1.2000000000000002,16
676,11421.0,0.0,-0.2,0.0,-0.4,3.1,9.200000000000001,0.0,-2.5,3.7000000000000006,16
677,11437.0,0.1,-0.1,0.1,-0.2,3.1,9.3,1.9,-3.8,5.2,16
678,11454.0,0.1,-0.1,0.1,-0.2,3.2,9.3,2.2,-3.1,5.300000000000001,16
679,11471.0,0.2,0.0,0.0,-0.1,3.3000000000000003,9.200000000000001,1.8000000000000003,0.0,4.300000000000001,16
680,11488.0,0.30000000000000004,0.0,0.0,0.0,3.3000000000000003,9.200000000000001,0.0,1.8000000000000003,1.2000000000000002,16
681,11504.0,0.2,0.0,0.0,0.0,3.3000000000000003,9.200000000000001,-1.0,3.7000000000000006,-0.1,16
682,11521.0,0.2,-0.1,-0.1,-0.1,3.2,9.1,-1.7,4.800000000000001,-0.8,16
683,11537.0,0.2,-0.1,-0.1,-0.1,3.2,9.1,-0.9000000000000001,1.7,0.0,16
684,11557.0,0.2,0.0,0.0,-0.1,3.3000000000000003,9.200000000000001,-0.5,-1.3,1.2000000000000002,16
685,11571.0,0.30000000000000004,0.1,0.0,0.0,3.4000000000000004,9.3,0.0,-1.7,1.2000000000000002,16
686,11588.0,0.30000000000000004,0.1,0.0,0.0,3.4000000000000004,9.200000000000001,0.8,-0.30000000000000004,-0.7,16
687,11604.0,0.2,0.0,-0.1,0.0,3.3000000000000003,9.200000000000001,0.6000000000000001,0.2,-1.9,16
688,11621.0,0.2,-0.1,-0.1,0.0,3.2,9.1,-0.30000000000000004,0.9000000000000001,-2.3,16
689,11637.0,0.2,-0.1,-0.1,-0.1,3.2,9.1,-2.0,1.1,-3.1,16
690,11655.0,0.1,-0.1,-0.1,-0.1,3.2,9.200000000000001,-2.9,1.3,-3.4,16
691,11672.0,0.0,-0.1,0.0,-0.2,3.2,9.200000000000001,-3.6000000000000005,2.0,-3.5,16
692,11688.0,-0.1,-0.1,0.1,-0.30000000000000004,3.2,9.3,-3.1,0.4,-3.8,16
693,11704.0,-0.1,-0.1,0.1,-0.30000000000000004,3.1,9.3,-1.9,1.3,-2.6,16
694,11721.0,-0.1,-0.1,0.0,-0.4,3.1,9.3,-1.6,1.3,-1.9,16
695,11738.0,-0.1,0.0,0.1,-0.4,3.2,9.3,-1.6,1.0,-1.4,16
696,11754.0,-0.1,0.0,0.1,-0.4,3.2,9.4,-1.0,-0.5,-0.8,16
697,11772.0,-0.1,0.0,0.2,-0.4,3.2,9.4,-0.6000000000000001,-0.7,-0.7,16
698,11787.0,-0.1,-0.1,0.1,-0.4,3.1,9.4,-0.4,0.9000000000000001,-0.2,16
699,11804.0,-0.1,-0.1,0.0,-0.4,3.1,9.3,0.0,1.1,1.1,16
700,11821.0,0.0,0.0,-0.1,-0.4,3.2,9.200000000000001,-0.2,0.6000000000000001,1.3,16
701,11838.0,0.0,0.0,0.1,-0.30000000000000004,3.2,9.3,-0.2,-1.3,2.0,16
702,11854.0,0.1,0.0,0.1,-0.2,3.2,9.4,1.5,-0.8,2.7,16
703,11877.0,0.1,0.0,0.0,-0.1,3.2,9.3,1.9,0.30000000000000004,2.6,16
704,11887.0,0.1,0.1,-0.1,-0.1,3.3000000000000003,9.200000000000001,1.6,0.9000000000000001,2.6,16
705,11904.0,0.2,0.0,-0.2,-0.1,3.3000000000000003,9.1,0.9000000000000001,2.0,1.6,16
706,11921.0,0.1,0.0,-0.30000000000000004,-0.1,3.3000000000000003,9.0,0.2,1.7,0.9000000000000001,16
707,11937.0,0.1,0.1,-0.30000000000000004,-0.2,3.3000000000000003,9.0,-1.2000000000000002,0.2,0.30000000000000004,16
708,11954.0,0.0,0.0,-0.1,-0.30000000000000004,3.3000000000000003,9.1,-2.3,-2.0,0.30000000000000004,16
709,11971.0,0.0,0.1,0.0,-0.30000000000000004,3.3000000000000003,9.3,-2.8,-3.2,0.5,16
710,11989.0,0.0,0.0,0.30000000000000004,-0.30000000000000004,3.2,9.600000000000001,-1.5,-2.8,1.7,16
711,12004.0,-0.1,0.0,0.2,-0.30000000000000004,3.2,9.5,1.3,-1.4,2.0,16
712,12021.0,0.0,0.0,0.2,-0.30000000000000004,3.2,9.5,2.0,-1.1,2.3,16
713,12037.0,0.0,0.0,0.1,-0.2,3.2,9.3,1.7,0.6000000000000001,2.9,16
714,12054.0,0.1,0.0,0.1,-0.2,3.3000000000000003,9.3,0.6000000000000001,1.3,2.2,16
715,12071.0,0.0,0.0,0.0,-0.2,3.3000000000000003,9.3,0.30000000000000004,0.9000000000000001,1.7,16
716,12088.0,-0.1,0.0,0.2,-0.30000000000000004,3.3000000000000003,9.4,0.8,0.30000000000000004,1.4,16
717,12104.0,-0.1,0.0,0.1,-0.4,3.2,9.4,3.4,0.6000000000000001,2.0,16
718,12121.0,-0.1,0.0,-0.1,-0.4,3.2,9.200000000000001,4.1,1.2000000000000002,2.3,16
719,12138.0,-0.1,0.1,-0.2,-0.4,3.3000000000000003,9.1,3.3000000000000007,0.8,3.5,16
720,12154.0,0.0,0.0,-0.1,-0.30000000000000004,3.3000000000000003,9.200000000000001,0.9000000000000001,-0.4,3.7000000000000006,16
721,12182.0,0.0,0.1,0.1,-0.2,3.3000000000000003,9.3,0.2,0.2,3.6000000000000005,16
722,12188.0,0.0,0.0,0.1,-0.2,3.3000000000000003,9.4,0.8,0.5,3.5,16
723,12204.0,0.0,0.0,0.1,-0.30000000000000004,3.2,9.3,2.8,-0.1,3.8,16
724,12221.0,0.0,-0.1,0.1,-0.2,3.2,9.3,4.0,-0.5,4.2,16
725,12237.0,0.1,-0.1,-0.1,-0.1,3.2,9.200000000000001,4.6,-0.1,4.7,16
726,12254.0,0.1,0.0,-0.2,-0.1,3.3000000000000003,9.1,2.9,0.30000000000000004,4.4,16
727,12272.0,0.1,0.0,-0.1,-0.1,3.3000000000000003,9.1,0.6000000000000001,0.6000000000000001,2.9,16
728,12287.0,0.0,-0.1,0.0,-0.2,3.3000000000000003,9.200000000000001,0.0,0.7,2.2,16
729,12304.0,0.0,-0.2,0.1,-0.2,3.1,9.3,1.4,1.0,2.1,16
730,12321.0,0.0,-0.2,0.0,-0.30000000000000004,3.1,9.200000000000001,2.7,1.1,2.3,16
731,12339.0,0.0,-0.2,-0.2,-0.2,3.1,9.0,3.8,0.4,3.2,16
732,12354.0,0.1,-0.1,-0.2,-0.2,3.2,9.0,1.3,-1.4,4.0,16
733,12371.0,0.1,-0.1,-0.1,-0.1,3.2,9.1,-0.2,-1.8000000000000003,3.9,16
734,12387.0,0.2,-0.1,0.1,0.0,3.2,9.3,-1.5,-1.2000000000000002,3.2,16
735,12404.0,0.2,0.0,0.2,0.0,3.2,9.4,-0.1,0.2,2.2,16
736,12421.0,0.1,0.0,0.1,0.0,3.2,9.3,0.5,1.6,1.4,16
737,12437.0,0.1,0.0,0.0,-0.1,3.3000000000000003,9.200000000000001,0.2,2.7,1.7,16
738,12454.0,0.1,0.1,-0.1,-0.1,3.3000000000000003,9.1,0.2,1.3,2.2,16
739,12471.0,0.1,0.1,-0.1,-0.1,3.4000000000000004,9.1,0.2,0.1,1.8000000000000003,16
740,12489.0,0.1,0.2,-0.2,-0.1,3.5,9.1,-0.1,-1.1,1.1,16
741,12506.0,0.0,0.1,0.0,-0.1,3.4000000000000004,9.200000000000001,-0.9000000000000001,-2.8,0.2,16
742,12521.0,0.0,0.1,0.2,-0.1,3.4000000000000004,9.4,-1.1,-2.6,-0.7,16
743,12537.0,0.0,0.0,0.2,-0.2,3.3000000000000003,9.5,-0.9000000000000001,-1.4,-1.0,16
744,12554.0,-0.1,0.0,0.2,-0.30000000000000004,3.3000000000000003,9.4,-0.1,1.9,-0.8,16
745,12571.0,-0.2,0.0,0.1,-0.4,3.3000000000000003,9.3,0.7,2.8,-0.30000000000000004,16
746,12587.0,-0.2,0.0,0.0,-0.4,3.3000000000000003,9.200000000000001,1.0,2.4000000000000004,0.30000000000000004,16
747,12604.0,-0.2,-0.1,-0.1,-0.4,3.2,9.200000000000001,1.0,0.5,1.8000000000000003,16
748,12621.0,-0.2,0.0,0.0,-0.30000000000000004,3.3000000000000003,9.200000000000001,0.6000000000000001,-0.2,3.2,16
749,12637.0,-0.1,0.0,0.0,-0.30000000000000004,3.3000000000000003,9.200000000000001,0.6000000000000001,-0.2,3.6000000000000005,16
750,12654.0,-0.1,0.0,0.0,-0.30000000000000004,3.3000000000000003,9.200000000000001,0.7,0.5,3.2,16
751,12671.0,-0.1,0.0,0.0,-0.30000000000000004,3.3000000000000003,9.200000000000001,0.5,1.3,3.3000000000000007,16
752,12688.0,-0.1,0.0,0.0,-0.30000000000000004,3.3000000000000003,9.200000000000001,0.30000000000000004,1.4,3.7000000000000006,16
753,12704.0,-0.1,0.0,0.0,-0.30000000000000004,3.4000000000000004,9.200000000000001,0.4,0.8,4.7,16
754,12721.0,-0.1,0.0,0.1,-0.2,3.3000000000000003,9.3,1.5,-0.6000000000000001,6.0,16
755,12737.0,0.0,0.1,0.1,-0.2,3.4000000000000004,9.3,2.1,-0.4,6.2,16
756,12754.0,0.0,0.1,0.1,-0.2,3.5,9.3,2.5,0.8,6.2,16
757,12771.0,0.0,0.1,0.0,-0.1,3.5,9.200000000000001,2.6,1.8000000000000003,5.8,16
758,12788.0,0.0,0.1,-0.2,-0.2,3.4000000000000004,9.0,1.6,2.2,4.4,16
759,12805.0,-0.1,0.0,-0.1,-0.30000000000000004,3.4000000000000004,9.1,-0.2,1.0,4.2,16
760,12821.0,0.0,0.0,0.1,-0.2,3.3000000000000003,9.3,-0.5,-0.30000000000000004,5.2,16
761,12837.0,0.0,0.0,0.2,-0.2,3.3000000000000003,9.4,0.30000000000000004,-0.2,5.6,16
762,12854.0,0.0,-0.1,0.1,-0.2,3.3000000000000003,9.3,2.4000000000000004,0.7,5.8,16
763,12871.0,0.0,-0.1,0.0,-0.2,3.2,9.200000000000001,2.6,1.4,6.1000000000000005,16
764,12891.0,0.0,-0.1,-0.1,-0.1,3.2,9.1,1.6,2.4000000000000004,6.699999999999999,16
765,12905.0,0.1,-0.1,-0.1,-0.1,3.3000000000000003,9.1,1.0,2.7,6.600000000000001,16
766,12921.0,0.1,-0.1,-0.2,-0.1,3.2,9.0,0.9000000000000001,2.8,6.0,16
767,12938.0,0.1,-0.1,-0.2,-0.1,3.2,8.9,1.0,2.4000000000000004,5.4,16
768,12954.0,0.0,-0.1,-0.2,-0.1,3.3000000000000003,9.0,-0.6000000000000001,0.9000000000000001,4.9,16
769,12971.0,0.1,-0.1,0.0,-0.1,3.3000000000000003,9.200000000000001,-2.1,-0.5,5.6,16
770,12988.0,0.1,-0.1,0.1,0.0,3.3000000000000003,9.3,-1.6,-1.1,5.9,16
771,13004.0,0.2,0.0,0.2,0.1,3.4000000000000004,9.4,0.4,-0.2,5.2,16
772,13021.0,0.2,0.1,0.0,0.1,3.5,9.200000000000001,0.0,2.5,4.2,16
773,13037.0,0.2,0.1,-0.1,0.1,3.4000000000000004,9.1,-0.5,3.1,3.7000000000000006,16
774,13054.0,0.1,0.1,-0.1,0.0,3.4000000000000004,9.1,-1.8000000000000003,2.4000000000000004,2.3,16
775,13071.0,0.1,0.1,-0.1,0.0,3.4000000000000004,9.200000000000001,-2.0,1.2000000000000002,1.8000000000000003,16
776,13087.0,0.1,0.0,0.1,0.0,3.3000000000000003,9.3,-1.4,-1.6,2.2,16
777,13104.0,0.0,0.0,0.1,-0.1,3.3000000000000003,9.3,-0.2,-1.9,2.0,16
778,13121.0,0.0,0.0,0.1,-0.1,3.4000000000000004,9.3,-0.4,-0.5,1.7,16
779,13137.0,0.0,0.0,0.1,-0.1,3.3000000000000003,9.3,-0.8,0.6000000000000001,1.4,16
780,13154.0,0.0,-0.1,0.1,-0.1,3.2,9.3,-0.9000000000000001,0.8,1.5,16
781,13172.0,0.0,-0.1,0.0,-0.1,3.2,9.3,0.2,0.30000000000000004,1.7,16
782,13187.0,0.0,-0.1,0.0,-0.1,3.2,9.200000000000001,0.30000000000000004,0.1,1.7,16
783,13204.0,0.0,-0.1,0.0,-0.1,3.2,9.200000000000001,0.5,-0.1,2.4000000000000004,16
784,13221.0,0.0,0.0,0.0,-0.1,3.3000000000000003,9.200000000000001,1.1,-0.5,2.8,16
785,13238.0,0.0,0.0,-0.1,-0.1,3.3000000000000003,9.200000000000001,1.1,-0.6000000000000001,2.5,16
786,13254.0,0.0,0.1,-0.2,-0.1,3.4000000000000004,9.1,0.5,-0.5,2.3,16
787,13271.0,0.0,0.0,-0.1,-0.1,3.4000000000000004,9.1,-1.0,-1.4,2.0,16
788,13288.0,0.1,0.0,0.1,0.0,3.3000000000000003,9.3,-0.8,-2.3,2.0,16
789,13304.0,0.1,0.0,0.2,0.1,3.3000000000000003,9.4,-0.1,-2.4000000000000004,2.1,16
790,13321.0,0.1,0.1,0.1,0.1,3.4000000000000004,9.4,1.3,-0.7,1.6,16
791,13338.0,0.1,0.1,0.0,0.1,3.4000000000000004,9.200000000000001,1.1,1.3,0.6000000000000001,16
792,13355.0,0.1,0.1,-0.1,0.1,3.4000000000000004,9.200000000000001,0.6000000000000001,1.3,0.2,16
793,13371.0,0.1,0.0,0.0,0.1,3.4000000000000004,9.200000000000001,0.7,0.4,-0.30000000000000004,16
794,13388.0,0.1,0.0,-0.1,0.0,3.4000000000000004,9.200000000000001,1.7,-0.30000000000000004,-1.0,16
795,13404.0,0.0,0.0,-0.1,0.0,3.4000000000000004,9.1,1.7,-0.5,-1.4,16
796,13421.0,0.0,0.0,-0.1,0.0,3.3000000000000003,9.1,0.6000000000000001,-0.7,-1.7,16
797,13437.0,0.0,0.0,-0.1,0.0,3.3000000000000003,9.1,-0.5,-1.2000000000000002,-1.4,16
798,13454.0,0.0,-0.1,0.0,0.0,3.3000000000000003,9.200000000000001,-0.5,-1.7,-1.4,16
799,13471.0,0.0,-0.1,0.1,0.0,3.3000000000000003,9.3,-0.2,-1.7,-1.6,16
800,13489.0,0.0,0.0,0.1,0.0,3.3000000000000003,9.3,0.5,0.2,-1.8000000000000003,16
801,13504.0,-0.1,0.0,0.0,-0.1,3.3000000000000003,9.3,0.8,0.8,-1.9,16
802,13521.0,0.0,-0.1,-0.1,-0.1,3.3000000000000003,9.1,0.8,1.4,-1.5,16
803,13537.0,0.0,-0.1,-0.2,-0.1,3.3000000000000003,9.0,0.2,1.2000000000000002,-1.0,16
804,13555.0,0.0,0.0,-0.2,-0.1,3.3000000000000003,9.0,-0.2,0.1,-1.0,16
805,13571.0,0.0,0.0,0.1,0.0,3.4000000000000004,9.3,-0.7,-3.4,-0.6000000000000001,16
806,13587.0,0.1,0.0,0.30000000000000004,0.1,3.4000000000000004,9.5,0.5,-2.5,-1.0,16
807,13604.0,0.1,0.0,0.2,0.1,3.4000000000000004,9.4,1.2000000000000002,-0.30000000000000004,-1.5,16
808,13621.0,0.0,0.0,-0.1,0.0,3.4000000000000004,9.1,1.3,3.4,-3.0,16
809,13637.0,-0.1,0.0,-0.2,-0.1,3.3000000000000003,9.0,-0.8,3.0,-3.6000000000000005,16
810,13654.0,-0.1,0.0,-0.2,-0.2,3.3000000000000003,9.0,-2.0,1.3,-2.9,16
811,13671.0,-0.1,-0.1,0.1,-0.2,3.3000000000000003,9.3,-2.2,-2.3,-0.7,16
812,13687.0,0.0,0.0,0.30000000000000004,-0.1,3.3000000000000003,9.5,0.5,-3.6000000000000005,0.8,16
813,13704.0,0.0,0.0,0.30000000000000004,0.0,3.3000000000000003,9.5,2.1,-3.0,0.9000000000000001,16
814,13721.0,0.1,0.0,0.1,0.0,3.4000000000000004,9.3,3.3000000000000007,-1.3,0.0,16
815,13737.0,0.1,0.0,0.1,0.0,3.4000000000000004,9.3,1.5,0.8,-0.8,16
816,13754.0,0.1,0.0,0.1,0.0,3.4000000000000004,9.3,0.7,2.1,-1.0,16
817,13771.0,0.0,0.0,0.0,0.0,3.3000000000000003,9.200000000000001,0.8,3.4,-1.5,16
818,13788.0,-0.1,-0.1,-0.30000000000000004,-0.1,3.3000000000000003,8.9,2.0,1.9,-1.7,16
819,13804.0,-0.1,-0.1,-0.4,-0.2,3.3000000000000003,8.8,1.7,0.2,-1.3,16
820,13821.0,-0.1,-0.1,-0.2,-0.2,3.3000000000000003,9.0,-0.8,-2.9,0.30000000000000004,16
821,13837.0,0.0,0.0,0.1,-0.1,3.3000000000000003,9.3,-1.7,-2.8,1.7,16
822,13854.0,-0.1,0.0,0.2,0.0,3.4000000000000004,9.4,-0.9000000000000001,-2.5,1.9,16
823,13871.0,0.0,0.0,0.2,0.0,3.4000000000000004,9.4,1.7,-2.0,1.5,16
824,13887.0,0.0,0.0,0.1,-0.1,3.4000000000000004,9.3,2.2,0.2,1.2000000000000002,16
825,13904.0,-0.1,0.0,0.0,-0.1,3.4000000000000004,9.1,1.7,1.5,1.2000000000000002,16
826,13921.0,-0.1,0.0,-0.1,-0.1,3.4000000000000004,9.1,0.6000000000000001,1.8000000000000003,1.0,16
827,13937.0,-0.1,0.0,-0.1,-0.2,3.4000000000000004,9.1,-0.30000000000000004,-0.2,0.7,16
828,13954.0,-0.1,0.0,0.0,-0.1,3.4000000000000004,9.200000000000001,-0.6000000000000001,-0.6000000000000001,0.9000000000000001,16
829,13971.0,-0.1,-0.1,0.1,-0.1,3.2,9.3,-0.30000000000000004,0.8,1.1,16
830,13987.0,-0.1,-0.1,0.1,-0.1,3.3000000000000003,9.3,0.8,0.9000000000000001,1.7,16
831,14004.0,0.0,0.0,0.0,-0.1,3.4000000000000004,9.200000000000001,2.3,-0.2,2.5,16
832,14021.0,0.0,0.0,0.0,0.0,3.4000000000000004,9.200000000000001,2.5,0.1,2.5,16
833,14037.0,0.0,0.0,-0.1,0.0,3.4000000000000004,9.1,1.2000000000000002,2.5,2.3,16
834,14054.0,0.0,0.0,-0.2,0.0,3.4000000000000004,9.0,0.8,2.6,2.0,16
835,14070.0,0.0,0.0,-0.2,0.0,3.4000000000000004,9.0,1.0,1.7,1.7,16
836,14087.0,0.0,0.0,-0.30000000000000004,0.0,3.4000000000000004,8.9,0.2,-0.1,1.2000000000000002,16
837,14104.0,0.0,0.1,-0.1,0.0,3.4000000000000004,9.1,-1.7,-1.9,1.5,16
838,14121.0,0.0,0.1,0.0,0.0,3.5,9.200000000000001,-2.1,-2.0,1.7,16
839,14137.0,0.0,0.1,0.2,0.0,3.5,9.4,-1.1,-0.9000000000000001,1.0,16
840,14154.0,0.0,0.1,0.2,-0.1,3.5,9.4,0.5,1.6,0.1,16
841,14171.0,-0.1,0.1,0.1,-0.1,3.5,9.3,0.8,2.2,0.30000000000000004,16
842,14187.0,-0.1,0.1,0.0,-0.1,3.5,9.200000000000001,1.0,2.0,1.4,16
843,14205.0,-0.1,0.2,-0.1,-0.1,3.5,9.1,0.8,1.5,1.3,16
844,14220.0,-0.1,0.1,0.0,-0.1,3.5,9.1,0.5,1.4,1.1,16
845,14237.0,-0.1,0.1,0.0,-0.2,3.5,9.200000000000001,0.30000000000000004,1.0,0.8,16
846,14254.0,-0.1,0.0,0.1,-0.2,3.4000000000000004,9.200000000000001,0.30000000000000004,1.5,0.8,16
847,14272.0,-0.1,0.0,0.0,-0.2,3.4000000000000004,9.200000000000001,0.2,2.3,1.3,16
848,14288.0,-0.1,0.0,0.1,-0.2,3.4000000000000004,9.3,0.2,2.7,2.3,16
849,14304.0,0.0,0.0,0.1,-0.1,3.4000000000000004,9.200000000000001,0.8,3.3000000000000007,2.6,16
850,14320.0,0.0,0.0,0.0,-0.1,3.4000000000000004,9.1,1.1,3.3000000000000007,2.6,16
851,14337.0,0.0,-0.1,-0.1,-0.1,3.3000000000000003,9.1,1.6,2.2,2.9,16
852,14354.0,0.0,-0.1,-0.2,-0.2,3.3000000000000003,9.0,1.3,0.6000000000000001,3.6000000000000005,16
853,14371.0,0.0,-0.1,-0.1,-0.1,3.3000000000000003,9.1,0.9000000000000001,0.4,4.2,16
854,14387.0,0.1,0.0,-0.1,0.0,3.4000000000000004,9.1,0.1,0.1,4.5,16
855,14404.0,0.2,0.1,0.0,0.1,3.5,9.1,-0.6000000000000001,1.1,3.6000000000000005,16
856,14420.0,0.2,0.1,0.0,0.1,3.5,9.1,-0.7,1.7,2.8,16
857,14437.0,0.2,0.1,-0.1,0.1,3.5,9.0,-0.30000000000000004,2.9,1.3,16
858,14454.0,0.1,0.1,-0.30000000000000004,0.0,3.5,8.9,-1.8000000000000003,2.7,0.0,16
859,14471.0,0.0,0.1,-0.2,-0.1,3.5,8.9,-3.4,1.9,0.0,16
860,14487.0,0.1,0.1,0.0,0.0,3.5,9.200000000000001,-5.300000000000001,0.5,1.0,16
861,14505.0,0.1,0.1,0.2,0.0,3.5,9.3,-2.8,-1.2000000000000002,1.2000000000000002,16
862,14521.0,0.0,0.1,0.2,0.0,3.5,9.3,-1.2000000000000002,-2.6,0.8,16
863,14537.0,0.0,0.1,0.2,0.0,3.4000000000000004,9.3,0.0,-2.6,0.4,16
864,14554.0,0.0,0.0,0.2,0.0,3.4000000000000004,9.4,-1.1,0.9000000000000001,0.7,16
865,14571.0,0.0,0.0,0.2,-0.1,3.4000000000000004,9.4,-1.1,2.5,0.5,16
866,14587.0,-0.1,0.0,0.1,-0.1,3.4000000000000004,9.200000000000001,0.5,2.7,0.9000000000000001,16
867,14604.0,-0.1,-0.1,-0.1,-0.2,3.3000000000000003,9.0,2.2,0.1,1.3,16
868,14622.0,-0.1,0.0,-0.1,-0.2,3.4000000000000004,9.0,1.1,-1.9,2.2,16
869,14637.0,-0.1,0.0,-0.1,-0.2,3.4000000000000004,9.1,0.0,-2.3,3.2,16
870,14654.0,0.0,0.0,0.1,-0.1,3.4000000000000004,9.200000000000001,-1.2000000000000002,-2.8,4.300000000000001,16
871,14670.0,0.0,0.0,0.2,0.0,3.4000000000000004,9.4,-0.5,-1.4,4.7,16
872,14687.0,0.1,0.0,0.2,0.1,3.4000000000000004,9.4,0.1,-0.4,4.4,16
873,14704.0,0.0,0.0,0.1,-0.1,3.4000000000000004,9.3,0.9000000000000001,0.5,4.7,16
874,14721.0,0.0,0.0,0.0,-0.1,3.4000000000000004,9.200000000000001,1.3,-1.7,6.2,16
875,14737.0,0.0,0.0,0.1,0.0,3.3000000000000003,9.200000000000001,1.4,-2.4000000000000004,7.1000000000000005,16
876,14754.0,0.0,0.0,0.1,0.0,3.4000000000000004,9.3,2.3,-4.4,8.2,16
877,14771.0,-0.1,-0.1,0.1,-0.1,3.4000000000000004,9.3,3.4,-5.300000000000001,8.700000000000001,16
878,14787.0,-0.1,-0.1,0.0,0.0,3.3000000000000003,9.200000000000001,3.3000000000000007,-5.2,9.0,16
879,14804.0,0.0,-0.2,0.0,0.0,3.2,9.200000000000001,1.1,-4.5,10.200000000000001,16
880,14821.0,0.0,-0.1,0.30000000000000004,0.1,3.3000000000000003,9.5,-0.7,-6.0,12.200000000000001,16
881,14837.0,0.0,-0.1,0.5,0.1,3.3000000000000003,9.700000000000001,0.0,-6.4,13.5,16
882,14854.0,0.0,-0.1,0.6000000000000001,0.1,3.3000000000000003,9.8,5.0,-5.6,15.899999999999999,16
883,14871.0,0.1,-0.1,0.4,0.2,3.3000000000000003,9.600000000000001,10.700000000000001,-3.7000000000000006,18.4,16
884,14887.0,0.1,-0.1,0.1,0.30000000000000004,3.4000000000000004,9.3,12.200000000000001,-1.9,19.5,16
885,14904.0,0.2,0.1,-0.4,0.4,3.6,8.8,12.8,1.2000000000000002,20.599999999999998,16
886,14921.0,0.2,0.2,-0.7000000000000001,0.5,3.7,8.5,11.1,1.4,19.799999999999997,16
887,14937.0,0.30000000000000004,0.2,-0.7000000000000001,0.5,3.7,8.4,10.5,0.7,19.1,16
888,14954.0,0.1,0.2,-0.8,0.4,3.7,8.3,9.899999999999999,-2.0,17.6,16
889,14971.0,0.1,0.0,-0.7000000000000001,0.4,3.6,8.5,10.299999999999999,-6.699999999999999,16.8,16
890,14987.0,0.1,0.0,-0.6000000000000001,0.4,3.6,8.5,11.000000000000002,-9.100000000000001,16.700000000000003,16
891,15004.0,0.1,0.0,-0.30000000000000004,0.5,3.6,8.8,11.4,-12.0,15.899999999999999,16
892,15021.0,0.2,-0.1,-0.1,0.7000000000000001,3.6,9.0,10.1,-8.700000000000001,13.5,16
893,15037.0,0.2,0.0,0.0,0.7000000000000001,3.7,9.0,8.5,-6.300000000000001,11.000000000000002,16
894,15054.0,0.2,-0.1,0.1,0.7000000000000001,3.6,9.1,3.9,1.9,4.7,16
895,15070.0,0.1,-0.2,0.1,0.6000000000000001,3.5,9.200000000000001,-3.3000000000000007,10.299999999999999,0.30000000000000004,16
896,15087.0,0.1,-0.30000000000000004,0.2,0.5,3.4000000000000004,9.200000000000001,-6.0,11.900000000000002,-0.1,16
897,15104.0,0.1,-0.4,0.30000000000000004,0.5,3.3000000000000003,9.4,-7.200000000000001,6.9,2.5,16
898,15120.0,0.30000000000000004,-0.2,0.6000000000000001,0.8,3.4000000000000004,9.700000000000001,-4.9,-1.9,5.500000000000001,16
899,15139.0,0.4,0.0,0.7000000000000001,0.9,3.6,9.8,-4.1,-6.500000000000001,5.300000000000001,16
900,15154.0,0.4,0.0,0.8,0.9,3.7,9.9,-4.2,-6.600000000000001,4.6,16
901,15174.0,0.2,0.2,0.7000000000000001,0.7000000000000001,3.8000000000000003,9.8,-3.4,-6.500000000000001,2.5,16
902,15188.0,0.0,0.2,0.7000000000000001,0.5,3.8000000000000003,9.8,-2.3,-6.300000000000001,1.3,16
903,15204.0,-0.30000000000000004,0.1,0.5,0.2,3.7,9.700000000000001,0.9000000000000001,-4.0,-0.2,16
904,15221.0,-0.4,0.0,0.1,0.1,3.6,9.200000000000001,4.800000000000001,0.6000000000000001,-0.2,16
905,15237.0,-0.5,-0.1,-0.2,0.0,3.5,8.9,6.9,2.0,0.1,16
906,15254.0,-0.6000000000000001,-0.2,-0.7000000000000001,-0.1,3.5,8.4,9.899999999999999,0.8,1.5,16
907,15270.0,-0.6000000000000001,-0.2,-1.0,-0.1,3.5,8.1,10.200000000000001,-3.0,3.0,16
908,15287.0,-0.6000000000000001,-0.30000000000000004,-1.0,-0.1,3.4000000000000004,8.1,8.899999999999999,-4.6,3.5,16
909,15305.0,-0.5,-0.30000000000000004,-1.0,0.1,3.4000000000000004,8.1,4.800000000000001,-5.8,4.1,16
910,15320.0,-0.30000000000000004,-0.4,-0.6000000000000001,0.30000000000000004,3.3000000000000003,8.4,0.9000000000000001,-6.8,4.7,16
911,15338.0,-0.2,-0.5,-0.4,0.4,3.2,8.6,-0.30000000000000004,-6.9,5.1000000000000005,16
912,15354.0,0.0,-0.4,0.0,0.6000000000000001,3.3000000000000003,9.0,-1.5,-6.4,5.7,16
913,15371.0,0.1,-0.30000000000000004,0.1,0.7000000000000001,3.4000000000000004,9.200000000000001,-1.0,-3.9,5.4,16
914,15387.0,0.1,-0.2,0.1,0.8,3.5,9.1,-0.5,-2.7,5.1000000000000005,16
915,15404.0,0.2,-0.1,0.1,0.8,3.6,9.1,-0.30000000000000004,-0.9000000000000001,3.8,16
916,15421.0,0.2,0.0,0.1,0.8,3.7,9.1,-1.3,0.30000000000000004,2.7,16
917,15437.0,0.2,0.1,0.1,0.8,3.8000000000000003,9.1,-1.5,1.0,1.5,16
918,15455.0,0.1,0.1,0.0,0.7000000000000001,3.8000000000000003,9.1,-1.1,0.5,0.9000000000000001,16
919,15471.0,0.1,0.2,-0.1,0.7000000000000001,3.9000000000000004,9.0,-0.8,0.2,-0.30000000000000004,16
920,15488.0,0.1,0.2,-0.1,0.8,3.9000000000000004,9.0,-1.4,0.0,-0.5,16
921,15504.0,0.1,0.30000000000000004,0.1,0.7000000000000001,3.9000000000000004,9.1,-3.2,-1.4,-0.5,16
922,15520.0,0.2,0.2,0.30000000000000004,0.9,3.9000000000000004,9.3,-2.3,-2.7,-1.2000000000000002,16
923,15538.0,0.2,0.2,0.30000000000000004,0.9,3.9000000000000004,9.3,0.6000000000000001,-0.9000000000000001,-3.3000000000000007,16
924,15554.0,0.2,0.2,0.1,0.8,3.9000000000000004,9.200000000000001,1.6,0.7,-4.300000000000001,16
925,15571.0,0.1,0.1,-0.2,0.7000000000000001,3.8000000000000003,8.9,2.1,3.4,-6.1000000000000005,16
926,15587.0,-0.1,0.0,-0.4,0.6000000000000001,3.7,8.700000000000001,0.6000000000000001,3.5,-7.6,16
927,15604.0,-0.2,-0.1,-0.5,0.4,3.6,8.6,-0.2,3.4,-7.6,16
928,15620.0,-0.30000000000000004,-0.2,-0.4,0.30000000000000004,3.5,8.700000000000001,-1.7,1.4,-6.600000000000001,16
929,15637.0,-0.4,-0.2,-0.30000000000000004,0.2,3.5,8.8,-1.7,-0.30000000000000004,-5.2,16
930,15654.0,-0.4,-0.2,-0.2,0.2,3.5,8.8,-1.9,-0.2,-4.4,16
931,15671.0,-0.5,-0.2,-0.1,0.1,3.5,9.0,-2.3,0.2,-2.0,16
932,15687.0,-0.4,-0.2,0.1,0.1,3.5,9.1,-1.6,-0.2,0.6000000000000001,16
933,15704.0,-0.4,-0.2,0.1,0.2,3.5,9.200000000000001,-1.0,0.1,1.4,16
934,15720.0,-0.30000000000000004,-0.1,0.2,0.30000000000000004,3.6,9.3,-0.9000000000000001,2.1,2.5,16
935,15737.0,-0.2,0.0,0.2,0.4,3.7,9.3,-0.9000000000000001,3.9,3.3000000000000007,16
936,15754.0,-0.1,0.0,0.2,0.4,3.7,9.3,-0.30000000000000004,3.8,3.1,16
937,15771.0,-0.1,0.0,0.2,0.5,3.6,9.3,0.8,2.7,3.3000000000000007,16
938,15788.0,0.0,0.0,0.2,0.6000000000000001,3.7,9.3,1.6,3.0,4.6,16
939,15804.0,0.1,0.0,0.2,0.6000000000000001,3.7,9.200000000000001,2.5,3.8,4.800000000000001,16
940,15822.0,0.2,0.1,-0.1,0.7000000000000001,3.8000000000000003,9.0,3.7000000000000006,4.0,4.2,16
941,15837.0,0.2,0.1,-0.30000000000000004,0.8,3.8000000000000003,8.8,2.8,3.1,3.3000000000000007,16
942,15854.0,0.30000000000000004,0.1,-0.30000000000000004,0.8,3.8000000000000003,8.8,1.9,2.4000000000000004,2.8,16
943,15871.0,0.30000000000000004,0.1,-0.2,0.8,3.8000000000000003,8.8,0.4,1.5,1.5,16
944,15889.0,0.2,0.0,-0.2,0.8,3.7,8.9,0.2,1.1,0.1,16
945,15904.0,0.2,0.0,-0.2,0.8,3.7,8.8,0.4,1.1,-0.4,16
946,15921.0,0.1,0.0,-0.30000000000000004,0.6000000000000001,3.7,8.8,0.0,0.1,-1.1,16
947,15937.0,0.0,0.0,-0.2,0.6000000000000001,3.7,8.9,-1.2000000000000002,-0.8,-1.2000000000000002,16
948,15954.0,0.0,-0.1,-0.1,0.5,3.6,8.9,-1.4,-0.7,-1.3,16
949,15972.0,-0.2,-0.1,0.0,0.4,3.6,9.0,-1.1,-1.6,-1.2000000000000002,16
950,15988.0,-0.2,-0.1,0.1,0.4,3.6,9.1,0.2,-2.2,-0.2,16
951,16005.0,-0.2,-0.2,0.1,0.4,3.5,9.200000000000001,0.30000000000000004,-1.7,0.1,16
952,16020.0,-0.2,-0.1,0.1,0.4,3.6,9.200000000000001,0.2,1.4,0.8,16
953,16037.0,-0.2,-0.1,0.0,0.30000000000000004,3.6,9.1,0.2,2.9,1.3,16
954,16055.0,-0.2,-0.1,0.0,0.30000000000000004,3.6,9.0,0.2,2.2,1.7,16
955,16071.0,-0.1,-0.1,0.0,0.4,3.6,9.1,0.30000000000000004,0.9000000000000001,3.1,16
956,16087.0,0.0,0.0,0.1,0.6000000000000001,3.6,9.200000000000001,0.7,0.4,4.1,16
957,16104.0,0.1,0.0,0.1,0.6000000000000001,3.7,9.1,1.3,0.2,4.2,16
958,16122.0,0.1,0.0,0.0,0.7000000000000001,3.7,9.1,2.3,-0.6000000000000001,3.6000000000000005,16
959,16137.0,0.2,0.0,0.0,0.8,3.7,9.0,2.0,-0.7,2.9,16
960,16154.0,0.2,0.0,0.0,0.8,3.7,9.1,1.8000000000000003,0.6000000000000001,2.0,16
961,16176.0,0.2,0.0,-0.2,0.8,3.7,8.8,1.9,1.1,0.9000000000000001,16
962,16187.0,0.2,0.0,-0.30000000000000004,0.7000000000000001,3.7,8.8,1.9,0.0,0.4,16
963,16204.0,0.1,0.0,-0.30000000000000004,0.7000000000000001,3.7,8.700000000000001,1.3,-1.3,-0.1,16
964,16221.0,0.1,0.0,-0.2,0.7000000000000001,3.7,8.8,-0.8,-2.5,-0.4,16
965,16239.0,0.1,0.0,0.0,0.7000000000000001,3.7,9.0,-1.6,-2.2,-1.0,16
966,16254.0,0.1,0.0,0.0,0.7000000000000001,3.7,9.0,-0.8,-1.3,-2.3,16
967,16271.0,0.0,0.0,0.0,0.6000000000000001,3.7,9.0,-0.6000000000000001,-0.8,-2.7,16
968,16287.0,-0.1,0.0,-0.1,0.5,3.7,9.0,-1.3,0.0,-2.5,16
969,16304.0,-0.2,0.0,-0.1,0.4,3.7,9.0,-1.6,0.0,-1.6,16
970,16320.0,-0.2,-0.1,0.0,0.4,3.6,9.0,-1.1,-0.5,-1.1,16
971,16337.0,-0.2,-0.1,0.0,0.4,3.6,9.1,-0.2,-2.6,0.1,16
972,16354.0,-0.1,-0.1,0.1,0.5,3.6,9.200000000000001,0.4,-1.7,0.6000000000000001,16
973,16371.0,-0.1,0.0,0.1,0.5,3.7,9.200000000000001,0.5,-0.6000000000000001,0.5,16
974,16387.0,0.0,-0.1,0.0,0.5,3.6,9.1,0.0,1.9,0.4,16
975,16404.0,0.0,0.0,0.0,0.6000000000000001,3.6,9.1,-0.5,2.4000000000000004,0.6000000000000001,16
976,16420.0,0.0,0.0,0.0,0.6000000000000001,3.7,9.1,-0.6000000000000001,2.5,0.6000000000000001,16
977,16437.0,0.1,0.0,-0.1,0.6000000000000001,3.7,9.0,-0.9000000000000001,3.7000000000000006,0.1,16
978,16454.0,0.1,0.1,-0.1,0.7000000000000001,3.8000000000000003,8.9,-1.7,5.8,-0.7,16
979,16470.0,0.1,0.1,-0.2,0.7000000000000001,3.7,8.9,-2.3,6.9,-1.6,16
980,16487.0,0.2,0.1,-0.1,0.7000000000000001,3.7,9.0,-3.9,9.700000000000001,-3.2,16
981,16504.0,0.2,0.1,-0.1,0.6000000000000001,3.7,8.9,-5.2,14.100000000000001,-4.6,16
982,16520.0,0.2,0.1,-0.2,0.6000000000000001,3.7,8.9,-6.2,15.000000000000002,-5.300000000000001,16
983,16537.0,0.1,0.1,-0.2,0.5,3.7,8.9,-8.100000000000001,13.8,-6.0,16
984,16554.0,0.0,-0.1,0.0,0.30000000000000004,3.6,9.1,-6.600000000000001,7.200000000000001,-5.0,16
985,16571.0,-0.1,-0.1,0.2,0.30000000000000004,3.5,9.200000000000001,-4.300000000000001,3.3000000000000007,-3.8,16
986,16587.0,0.0,0.0,0.4,0.30000000000000004,3.6,9.4,0.4,-0.4,-1.8000000000000003,16
987,16606.0,0.1,0.0,0.4,0.4,3.6,9.5,-0.5,5.8,-2.2,16
988,16621.0,0.1,0.0,0.30000000000000004,0.5,3.6,9.4,-2.8,11.5,-3.1,16
989,16637.0,0.1,-0.1,0.2,0.4,3.5,9.3,-6.9,18.200000000000003,-5.0,16
990,16654.0,-0.1,-0.1,0.0,0.1,3.4000000000000004,9.1,-5.0,15.2,-4.6,16
991,16677.0,-0.2,-0.2,-0.2,-0.1,3.3000000000000003,8.9,-0.7,8.4,-2.6,16
992,16688.0,-0.30000000000000004,-0.2,-0.2,-0.1,3.3000000000000003,8.9,0.8,5.0,-1.2000000000000002,16
993,16704.0,-0.30000000000000004,-0.30000000000000004,-0.2,-0.2,3.3000000000000003,8.9,3.0,-1.0,2.5,16
994,16720.0,-0.30000000000000004,-0.30000000000000004,-0.2,-0.2,3.3000000000000003,8.9,4.1,-3.0,4.0,16
995,16737.0,-0.2,-0.1,-0.2,0.0,3.4000000000000004,8.9,4.800000000000001,-2.8,5.4,16
996,16754.0,-0.2,0.0,-0.30000000000000004,0.0,3.6,8.700000000000001,1.6,1.6,5.300000000000001,16
997,16777.0,-0.2,0.0,-0.5,0.0,3.6,8.6,-2.7,3.9,5.0,16
998,16794.0,-0.2,0.1,-0.4,0.0,3.6,8.700000000000001,-5.6,1.9,5.0,16
999,16804.0,-0.2,0.1,-0.2,0.0,3.7,8.9,-6.699999999999999,0.2,5.1000000000000005,16
1000,16821.0,-0.1,0.1,0.0,0.0,3.7,9.1,-7.699999999999999,-1.0,5.500000000000001,16
1001,16837.0,-0.2,0.1,0.4,0.0,3.6,9.5,-8.3,-1.4,6.2,16
1002,16854.0,-0.1,0.1,0.7000000000000001,0.0,3.6,9.8,-5.0,-1.9,8.100000000000001,16
1003,16870.0,-0.1,0.0,0.7000000000000001,0.1,3.5,9.8,-2.6,-2.0,8.899999999999999,16
1004,16887.0,0.1,0.0,0.5,0.30000000000000004,3.5,9.600000000000001,1.1,-0.2,9.100000000000001,16
1005,16904.0,0.1,0.0,0.2,0.4,3.4000000000000004,9.3,1.8000000000000003,2.9,8.100000000000001,16
1006,16922.0,0.1,-0.1,-0.1,0.30000000000000004,3.4000000000000004,9.1,1.1,3.3000000000000007,7.0,16
1007,16937.0,0.1,-0.1,-0.1,0.30000000000000004,3.4000000000000004,9.0,1.1,2.8,6.699999999999999,16
1008,16954.0,0.1,-0.2,-0.30000000000000004,0.30000000000000004,3.3000000000000003,8.8,1.4,1.6,6.8,16
1009,16971.0,0.1,-0.2,-0.30000000000000004,0.30000000000000004,3.3000000000000003,8.8,1.2000000000000002,0.9000000000000001,7.1000000000000005,16
1010,16988.0,0.2,-0.2,-0.30000000000000004,0.4,3.3000000000000003,8.8,0.8,-0.9000000000000001,7.1000000000000005,16
1011,17004.0,0.2,-0.1,-0.30000000000000004,0.4,3.4000000000000004,8.8,-0.2,-1.7,6.500000000000001,16
1012,17020.0,0.2,0.0,-0.30000000000000004,0.5,3.5,8.8,-1.3,-1.4,5.500000000000001,16
1013,17037.0,0.30000000000000004,0.0,-0.30000000000000004,0.6000000000000001,3.5,8.9,-2.2,-1.3,4.7,16
1014,17054.0,0.2,0.1,-0.1,0.5,3.5,9.0,-4.2,-0.6000000000000001,3.1,16
1015,17070.0,0.1,0.1,0.0,0.4,3.5,9.1,-4.7,-2.7,2.3,16
1016,17087.0,0.1,0.1,0.2,0.5,3.6,9.3,-4.1,-4.1,2.1,16
1017,17104.0,0.2,0.1,0.30000000000000004,0.5,3.5,9.5,-2.4000000000000004,-4.1,1.4,16
1018,17121.0,0.1,0.0,0.30000000000000004,0.4,3.5,9.4,-1.2000000000000002,-1.6,0.4,16
1019,17137.0,0.1,0.1,0.2,0.4,3.5,9.3,-1.3,-0.8,-0.2,16
1020,17154.0,0.0,0.0,0.1,0.4,3.5,9.3,-1.9,0.9000000000000001,-1.6,16
1021,17171.0,0.0,0.0,0.1,0.30000000000000004,3.4000000000000004,9.200000000000001,-3.0,1.3,-2.4000000000000004,16
1022,17188.0,-0.1,0.0,0.1,0.30000000000000004,3.4000000000000004,9.3,-3.0,0.7,-2.2,16
1023,17204.0,-0.1,0.0,0.2,0.2,3.4000000000000004,9.3,-1.6,-0.5,-1.9,16
1024,17220.0,-0.2,0.0,0.1,0.2,3.4000000000000004,9.3,0.0,0.7,-1.6,16
1025,17238.0,-0.2,-0.1,0.1,0.1,3.4000000000000004,9.200000000000001,0.4,1.4,-1.2000000000000002,16
1026,17254.0,-0.1,-0.1,-0.1,0.1,3.3000000000000003,9.0,0.9000000000000001,2.1,-0.7,16
1027,17273.0,-0.1,-0.1,-0.2,0.2,3.3000000000000003,9.0,-0.1,1.7,-0.7,16
1028,17287.0,-0.1,0.0,-0.2,0.2,3.4000000000000004,9.0,-0.7,1.2000000000000002,-0.6000000000000001,16
1029,17304.0,0.0,-0.1,0.0,0.2,3.3000000000000003,9.1,-1.3,-0.6000000000000001,-0.30000000000000004,16
1030,17320.0,0.1,-0.1,0.1,0.30000000000000004,3.3000000000000003,9.200000000000001,-0.6000000000000001,0.5,-0.1,16
1031,17337.0,0.1,-0.1,0.1,0.30000000000000004,3.3000000000000003,9.200000000000001,-0.4,1.8000000000000003,0.0,16
1032,17354.0,0.2,-0.1,-0.1,0.4,3.3000000000000003,9.0,-0.8,3.4,-0.8,16
1033,17371.0,0.2,0.0,-0.1,0.4,3.4000000000000004,9.0,-2.1,2.7,-1.8000000000000003,16
1034,17388.0,0.1,0.0,-0.1,0.4,3.4000000000000004,9.1,-2.8,1.6,-2.2,16
1035,17404.0,0.0,0.0,0.1,0.30000000000000004,3.4000000000000004,9.200000000000001,-2.7,0.2,-2.2,16
1036,17420.0,0.0,-0.1,-0.1,0.2,3.3000000000000003,9.1,-1.6,0.9000000000000001,-2.0,16
1037,17437.0,0.0,0.0,-0.2,0.2,3.3000000000000003,8.9,-1.7,1.1,-2.0,16
1038,17454.0,0.0,0.0,-0.1,0.2,3.4000000000000004,9.0,-3.5,-0.2,-1.4,16
1039,17470.0,0.0,0.0,0.1,0.2,3.4000000000000004,9.3,-4.4,-1.3,-1.2000000000000002,16
1040,17487.0,0.0,0.1,0.30000000000000004,0.30000000000000004,3.4000000000000004,9.4,-3.9,-1.6,-1.6,16
1041,17504.0,0.0,0.0,0.30000000000000004,0.2,3.4000000000000004,9.5,-2.1,-1.3,-1.9,16
1042,17520.0,-0.1,0.0,0.30000000000000004,0.2,3.3000000000000003,9.4,-0.2,0.5,-1.7,16
1043,17537.0,-0.1,0.0,0.2,0.1,3.4000000000000004,9.4,0.2,1.1,-1.5,16
1044,17554.0,-0.2,0.0,0.0,0.1,3.3000000000000003,9.1,0.30000000000000004,2.1,-1.1,16
1045,17571.0,-0.1,0.0,-0.1,0.1,3.3000000000000003,9.0,-0.6000000000000001,2.4000000000000004,-1.0,16
1046,17588.0,-0.2,0.0,-0.2,0.1,3.3000000000000003,9.0,-1.6,1.6,-0.8,16
1047,17604.0,-0.2,0.0,-0.1,0.0,3.3000000000000003,9.1,-1.7,0.2,-0.5,16
1048,17621.0,-0.1,-0.1,0.0,0.1,3.2,9.200000000000001,-1.1,-2.1,1.0,16
1049,17637.0,-0.1,-0.1,0.0,0.2,3.2,9.200000000000001,-0.8,-2.1,1.7,16
1050,17654.0,0.0,-0.1,0.0,0.2,3.2,9.200000000000001,-0.9000000000000001,-0.30000000000000004,2.3,16
1051,17671.0,0.0,-0.1,0.0,0.2,3.2,9.200000000000001,-1.9,2.0,2.2,16
1052,17687.0,0.0,-0.1,0.0,0.2,3.2,9.1,-2.2,2.2,1.8000000000000003,16
1053,17704.0,0.0,-0.1,-0.1,0.2,3.2,9.1,-1.3,0.9000000000000001,2.2,16
1054,17720.0,0.1,0.0,-0.1,0.30000000000000004,3.3000000000000003,9.1,-0.8,-0.7,2.5,16
1055,17737.0,0.1,0.0,-0.1,0.30000000000000004,3.3000000000000003,9.1,-1.3,-1.2000000000000002,2.3,16
1056,17754.0,0.1,0.1,0.0,0.30000000000000004,3.3000000000000003,9.1,-3.5,-1.1,1.7,16
1057,17771.0,0.0,0.1,0.2,0.30000000000000004,3.4000000000000004,9.3,-4.2,-0.8,1.4,16
1058,17787.0,0.0,0.1,0.1,0.30000000000000004,3.3000000000000003,9.3,-2.2,0.0,0.4,16
1059,17804.0,0.0,0.1,0.1,0.2,3.4000000000000004,9.3,-1.5,0.2,0.0,16
1060,17821.0,0.0,0.0,0.0,0.2,3.3000000000000003,9.200000000000001,-2.2,0.5,-0.1,16
1061,17838.0,-0.1,0.0,0.0,0.2,3.3000000000000003,9.200000000000001,-3.1,0.2,0.0,16
1062,17854.0,-0.1,0.0,0.1,0.1,3.2,9.3,-3.1,0.0,0.2,16
1063,17874.0,0.0,0.0,0.2,0.2,3.2,9.4,-1.9,-0.30000000000000004,0.5,16
1064,17888.0,-0.1,0.0,0.0,0.1,3.2,9.200000000000001,-0.8,0.1,0.5,16
1065,17904.0,-0.1,-0.1,0.0,0.1,3.2,9.200000000000001,-0.9000000000000001,-0.1,0.8,16
1066,17921.0,0.0,-0.1,0.0,0.2,3.1,9.200000000000001,-1.5,-0.2,2.0,16
1067,17937.0,0.0,-0.1,0.0,0.30000000000000004,3.1,9.200000000000001,-1.9,0.30000000000000004,2.5,16
1068,17954.0,0.0,0.0,0.0,0.30000000000000004,3.2,9.200000000000001,-1.8000000000000003,0.6000000000000001,2.5,16
1069,17971.0,0.1,0.0,0.0,0.30000000000000004,3.2,9.200000000000001,-0.7,-0.4,2.0,16
1070,17987.0,0.0,0.0,-0.1,0.30000000000000004,3.2,9.1,-0.5,-0.9000000000000001,1.4,16
1071,18004.0,0.0,0.0,-0.1,0.30000000000000004,3.2,9.1,-1.3,-0.9000000000000001,1.5,16
1072,18020.0,0.1,0.0,0.0,0.30000000000000004,3.2,9.200000000000001,-3.4,0.30000000000000004,1.4,16
1073,18037.0,0.1,0.1,0.1,0.30000000000000004,3.3000000000000003,9.3,-3.5,-0.30000000000000004,0.8,16
1074,18054.0,0.1,0.1,0.1,0.30000000000000004,3.2,9.4,-2.5,-1.6,0.30000000000000004,16
1075,18070.0,0.0,0.0,0.1,0.30000000000000004,3.2,9.3,-0.2,-2.3,-0.2,16
1076,18088.0,0.0,0.0,0.1,0.30000000000000004,3.2,9.3,-0.8,-1.1,0.1,16
1077,18104.0,0.1,0.0,0.1,0.30000000000000004,3.2,9.3,-1.4,0.0,0.2,16
1078,18121.0,0.0,0.0,0.0,0.30000000000000004,3.2,9.3,-1.7,0.9000000000000001,-0.8,16
1079,18137.0,0.0,0.0,0.0,0.30000000000000004,3.2,9.3,-1.3,0.0,-2.1,16
1080,18154.0,0.0,0.0,0.0,0.2,3.1,9.200000000000001,-0.9000000000000001,-0.30000000000000004,-2.2,16
1081,18172.0,-0.1,-0.1,0.0,0.2,3.1,9.3,-1.0,-1.2000000000000002,-1.7,16
1082,18187.0,-0.1,-0.1,0.0,0.2,3.1,9.3,-1.4,-0.8,-0.5,16
1083,18204.0,-0.1,-0.1,0.1,0.2,3.0,9.3,-1.3,-0.6000000000000001,0.1,16
1084,18221.0,0.0,0.0,0.1,0.30000000000000004,3.1,9.4,-1.2000000000000002,-0.5,0.2,16
1085,18237.0,0.0,0.0,0.0,0.2,3.1,9.3,-0.9000000000000001,0.5,-0.6000000000000001,16
1086,18254.0,-0.1,0.0,0.0,0.2,3.1,9.3,-0.9000000000000001,-0.2,-0.5,16
1087,18270.0,-0.1,0.0,0.1,0.2,3.1,9.3,-0.30000000000000004,-0.7,0.0,16
1088,18287.0,0.0,0.0,0.1,0.30000000000000004,3.1,9.4,0.6000000000000001,-0.6000000000000001,0.8,16
1089,18304.0,0.0,0.0,0.1,0.30000000000000004,3.2,9.3,0.7,0.2,0.9000000000000001,16
1090,18320.0,0.1,0.1,-0.1,0.30000000000000004,3.2,9.200000000000001,1.1,1.7,0.1,16
1091,18337.0,0.0,0.0,-0.2,0.30000000000000004,3.1,9.1,0.6000000000000001,1.3,-1.3,16
1092,18354.0,0.0,0.0,-0.2,0.2,3.1,9.1,-0.2,0.9000000000000001,-1.3,16
1093,18370.0,-0.1,0.0,-0.1,0.2,3.1,9.1,-1.3,-0.2,-1.1,16
1094,18387.0,0.0,0.0,0.1,0.2,3.1,9.3,-1.6,-2.0,-0.30000000000000004,16
1095,18404.0,0.0,0.0,0.2,0.30000000000000004,3.1,9.4,-0.5,-1.6,0.1,16
1096,18420.0,0.0,0.0,0.2,0.30000000000000004,3.1,9.5,-0.2,-1.0,0.0,16
1097,18437.0,0.0,0.0,0.2,0.30000000000000004,3.2,9.5,0.30000000000000004,0.2,0.0,16
1098,18454.0,0.0,0.0,0.1,0.30000000000000004,3.1,9.4,0.5,0.8,0.0,16
1099,18471.0,0.0,0.0,0.0,0.2,3.1,9.3,1.3,0.6000000000000001,-0.7,16
1100,18488.0,0.0,-0.1,-0.1,0.2,3.0,9.200000000000001,1.3,0.2,-0.6000000000000001,16
1101,18504.0,0.0,0.0,-0.1,0.30000000000000004,3.1,9.200000000000001,0.8,0.4,-0.2,16
1102,18521.0,0.0,0.0,-0.1,0.30000000000000004,3.1,9.1,0.7,0.8,-0.2,16
1103,18537.0,0.0,0.0,-0.2,0.2,3.1,9.0,0.30000000000000004,0.0,-0.7,16
1104,18554.0,0.0,-0.1,-0.1,0.2,3.1,9.1,-0.9000000000000001,-1.6,-0.7,16
1105,18570.0,0.0,0.0,0.0,0.2,3.1,9.200000000000001,-1.3,-2.1,-0.6000000000000001,16
1106,18587.0,0.0,0.0,0.1,0.30000000000000004,3.1,9.4,-1.7,-1.4,0.0,16
1107,18604.0,0.0,0.0,0.1,0.30000000000000004,3.1,9.4,-0.7,0.6000000000000001,-0.2,16
1108,18620.0,0.0,0.0,0.1,0.2,3.1,9.3,-0.30000000000000004,0.9000000000000001,-0.30000000000000004,16
1109,18637.0,0.0,0.0,0.0,0.2,3.1,9.3,0.30000000000000004,-0.5,-0.2,16
1110,18654.0,0.0,0.0,0.0,0.30000000000000004,3.1,9.3,0.30000000000000004,-0.5,-0.2,16
1111,18671.0,0.0,0.0,0.0,0.2,3.1,9.3,-0.1,-0.30000000000000004,-0.2,16
1112,18687.0,-0.1,0.0,0.1,0.2,3.1,9.4,-0.8,0.5,-0.2,16
1113,18704.0,0.0,0.0,0.1,0.2,3.1,9.4,-0.1,0.8,0.1,16
1114,18720.0,0.0,0.0,0.1,0.2,3.1,9.4,0.5,0.8,0.1,16
1115,18737.0,0.0,0.0,0.1,0.2,3.1,9.4,1.3,0.1,0.8,16
1116,18754.0,0.0,0.0,0.0,0.30000000000000004,3.1,9.3,2.0,0.5,1.2000000000000002,16
1117,18771.0,0.1,0.0,-0.1,0.30000000000000004,3.1,9.200000000000001,2.0,0.9000000000000001,1.1,16
1118,18791.0,0.0,0.0,-0.2,0.30000000000000004,3.1,9.0,1.3,1.7,0.6000000000000001,16
1119,18804.0,0.0,0.0,-0.30000000000000004,0.2,3.1,9.0,-0.6000000000000001,1.4,0.2,16
1120,18821.0,0.0,0.0,-0.2,0.2,3.1,9.0,-1.4,0.4,0.30000000000000004,16
1121,18837.0,0.0,0.0,0.0,0.30000000000000004,3.2,9.200000000000001,-1.5,-1.4,0.8,16
1122,18854.0,0.0,0.0,0.1,0.30000000000000004,3.1,9.4,-0.1,-2.4000000000000004,0.9000000000000001,16
1123,18870.0,0.1,0.0,0.1,0.30000000000000004,3.1,9.4,0.30000000000000004,-2.2,1.1,16
1124,18887.0,0.1,0.0,0.1,0.4,3.1,9.4,0.0,-0.8,0.9000000000000001,16
1125,18904.0,0.1,0.1,0.1,0.4,3.2,9.4,-0.8,1.1,0.0,16
1126,18920.0,0.0,0.1,0.1,0.30000000000000004,3.2,9.4,-0.8,1.1,-0.5,16
1127,18937.0,0.0,0.0,0.0,0.30000000000000004,3.1,9.3,0.30000000000000004,1.0,-1.0,16
1128,18954.0,0.0,0.0,0.0,0.2,3.1,9.200000000000001,0.9000000000000001,0.30000000000000004,-0.6000000000000001,16
1129,18971.0,0.0,0.0,-0.1,0.2,3.1,9.200000000000001,0.6000000000000001,0.0,-0.2,16
1130,18987.0,0.0,0.0,0.0,0.2,3.1,9.200000000000001,-0.4,-0.8,-0.1,16
1131,19004.0,0.0,0.0,0.1,0.2,3.1,9.4,-0.1,-2.0,0.1,16
1132,19020.0,-0.1,0.0,0.1,0.2,3.1,9.4,0.6000000000000001,-2.0,0.4,16
1133,19037.0,0.0,0.0,0.1,0.2,3.1,9.4,1.7,-0.7,1.3,16
1134,19054.0,0.1,0.0,0.0,0.30000000000000004,3.1,9.3,1.3,0.6000000000000001,1.7,16
1135,19071.0,0.1,0.1,0.0,0.4,3.2,9.200000000000001,0.9000000000000001,0.8,1.3,16
1136,19087.0,0.0,0.0,-0.1,0.30000000000000004,3.2,9.1,0.9000000000000001,0.30000000000000004,0.0,16
1137,19104.0,0.0,0.0,-0.1,0.2,3.1,9.200000000000001,0.7,-1.5,-0.2,16
1138,19120.0,0.0,0.0,-0.1,0.30000000000000004,3.1,9.200000000000001,0.5,-1.7,0.1,16
1139,19137.0,0.0,0.0,0.0,0.30000000000000004,3.1,9.200000000000001,0.2,-0.1,0.6000000000000001,16
1140,19154.0,0.0,0.1,0.0,0.30000000000000004,3.2,9.3,0.30000000000000004,0.8,0.30000000000000004,16
1141,19170.0,0.1,0.0,-0.1,0.4,3.2,9.200000000000001,0.5,0.5,-0.30000000000000004,16
1142,19187.0,-0.1,0.0,0.0,0.2,3.2,9.200000000000001,-0.2,-0.9000000000000001,-1.1,16
1143,19204.0,-0.1,0.0,0.1,0.2,3.1,9.4,-0.9000000000000001,-1.6,0.4,16
1144,19220.0,0.0,-0.1,0.2,0.30000000000000004,3.1,9.5,0.7,-0.5,1.5,16
1145,19237.0,0.0,0.0,0.1,0.30000000000000004,3.1,9.4,1.7,0.2,1.5,16
1146,19254.0,0.0,0.0,0.0,0.30000000000000004,3.2,9.3,2.1,0.9000000000000001,1.6,16
1147,19270.0,0.0,0.0,0.0,0.30000000000000004,3.2,9.3,2.0,0.9000000000000001,1.4,16
1148,19287.0,0.1,0.0,-0.1,0.30000000000000004,3.1,9.200000000000001,1.9,1.1,1.0,16
1149,19304.0,0.0,0.0,-0.1,0.30000000000000004,3.1,9.1,1.4,1.1,0.9000000000000001,16
1150,19320.0,0.0,-0.1,-0.2,0.30000000000000004,3.1,9.1,0.9000000000000001,-0.30000000000000004,1.4,16
1151,19337.0,0.0,0.0,-0.1,0.30000000000000004,3.1,9.1,0.7,-1.0,1.5,16
1152,19354.0,0.0,0.0,0.0,0.30000000000000004,3.1,9.200000000000001,0.5,-0.5,1.4,16
1153,19370.0,0.0,0.0,-0.1,0.30000000000000004,3.1,9.200000000000001,0.6000000000000001,0.1,1.2000000000000002,16
1154,19389.0,0.0,0.0,0.0,0.30000000000000004,3.2,9.200000000000001,0.2,0.30000000000000004,0.7,16
1155,19404.0,0.0,0.0,0.0,0.30000000000000004,3.2,9.3,-0.2,-0.30000000000000004,1.1,16
1156,19420.0,0.0,0.0,0.0,0.30000000000000004,3.2,9.3,0.8,-0.7,1.2000000000000002,16
1157,19437.0,0.0,0.0,0.0,0.30000000000000004,3.2,9.3,1.2000000000000002,-0.7,1.1,16
1158,19454.0,0.0,0.0,0.0,0.30000000000000004,3.2,9.3,1.0,-0.5,1.4,16
1159,19470.0,0.0,0.0,0.0,0.30000000000000004,3.2,9.3,0.30000000000000004,-0.30000000000000004,1.2000000000000002,16
1160,19487.0,0.0,0.0,0.1,0.30000000000000004,3.2,9.3,0.30000000000000004,-0.2,1.0,16
1161,19504.0,0.0,0.0,0.0,0.30000000000000004,3.2,9.3,1.1,0.2,0.9000000000000001,16
1162,19520.0,0.0,0.0,0.0,0.30000000000000004,3.2,9.3,1.2000000000000002,-0.1,0.9000000000000001,16
1163,19537.0,0.0,0.0,0.0,0.30000000000000004,3.2,9.3,1.1,0.2,1.1,16
1164,19554.0,-0.1,0.0,-0.1,0.2,3.2,9.200000000000001,0.6000000000000001,0.9000000000000001,1.6,16
1165,19570.0,0.0,0.0,0.0,0.30000000000000004,3.2,9.200000000000001,1.1,-0.5,2.4000000000000004,16
1166,19587.0,0.0,0.0,0.0,0.30000000000000004,3.2,9.3,1.7,-0.8,2.5,16
1167,19604.0,0.0,0.0,-0.1,0.30000000000000004,3.2,9.200000000000001,2.1,0.1,1.9,16
1168,19620.0,-0.1,0.0,-0.1,0.2,3.2,9.1,0.6000000000000001,0.8,2.5,16
1169,19637.0,0.0,0.0,-0.1,0.30000000000000004,3.2,9.1,-0.1,0.7,2.9,16
1170,19654.0,0.1,0.1,0.0,0.4,3.3000000000000003,9.200000000000001,0.0,-0.2,3.6000000000000005,16
1171,19671.0,0.1,0.1,0.0,0.4,3.3000000000000003,9.3,0.9000000000000001,-0.4,2.9,16
1172,19687.0,0.1,0.1,0.0,0.5,3.3000000000000003,9.3,1.1,0.0,2.6,16
1173,19704.0,0.1,0.1,0.0,0.4,3.3000000000000003,9.200000000000001,1.0,1.4,1.5,16
1174,19720.0,0.1,0.1,-0.1,0.4,3.3000000000000003,9.1,0.30000000000000004,1.3,0.9000000000000001,16
1175,19737.0,0.1,0.0,0.0,0.4,3.3000000000000003,9.200000000000001,0.30000000000000004,0.5,0.8,16
1176,19754.0,0.1,0.0,0.0,0.4,3.2,9.200000000000001,0.6000000000000001,0.2,0.6000000000000001,16
1177,19770.0,0.0,0.0,0.0,0.30000000000000004,3.2,9.200000000000001,0.5,0.0,0.9000000000000001,16
1178,19787.0,0.0,0.0,0.1,0.4,3.2,9.3,0.8,0.1,1.1,16
1179,19804.0,0.0,0.0,0.0,0.4,3.2,9.3,1.2000000000000002,0.30000000000000004,0.8,16
1180,19820.0,0.0,0.0,0.0,0.30000000000000004,3.3000000000000003,9.200000000000001,0.9000000000000001,0.8,0.9000000000000001,16
1181,19837.0,0.0,0.0,0.0,0.30000000000000004,3.3000000000000003,9.200000000000001,0.6000000000000001,1.1,1.2000000000000002,16
1182,19854.0,0.0,0.0,0.0,0.4,3.3000000000000003,9.200000000000001,0.6000000000000001,0.5,1.2000000000000002,16
1183,19870.0,0.0,0.0,0.0,0.30000000000000004,3.2,9.200000000000001,0.9000000000000001,-0.7,1.1,16
1184,19887.0,0.0,0.0,0.0,0.30000000000000004,3.3000000000000003,9.200000000000001,1.3,-1.8000000000000003,1.3,16
1185,19904.0,0.1,0.0,0.1,0.4,3.2,9.3,1.4,-1.7,1.2000000000000002,16
1186,19920.0,0.0,0.0,0.0,0.30000000000000004,3.2,9.200000000000001,1.4,0.0,0.8,16
1187,19937.0,0.0,0.0,0.0,0.4,3.2,9.200000000000001,0.8,0.30000000000000004,0.7,16
1188,19954.0,0.0,0.0,0.0,0.4,3.2,9.200000000000001,0.6000000000000001,0.7,0.4,16
1189,19970.0,0.0,0.0,0.0,0.4,3.3000000000000003,9.200000000000001,1.0,0.7,0.30000000000000004,16
1190,19988.0,0.0,0.0,-0.1,0.4,3.2,9.1,2.4000000000000004,0.6000000000000001,-0.1,16
1191,20004.0,0.0,-0.1,-0.2,0.4,3.2,9.0,2.5,0.9000000000000001,-0.30000000000000004,16
1192,20020.0,0.0,0.0,-0.30000000000000004,0.30000000000000004,3.2,8.9,0.2,1.3,-0.5,16
1193,20037.0,0.0,0.0,-0.2,0.4,3.3000000000000003,9.1,-2.3,-0.4,0.1,16
1194,20054.0,0.1,0.1,0.1,0.4,3.3000000000000003,9.3,-2.1,-1.9,0.1,16
1195,20070.0,0.1,0.0,0.30000000000000004,0.4,3.3000000000000003,9.5,0.4,-2.2,-0.2,16
1196,20087.0,0.0,0.0,0.2,0.4,3.2,9.4,2.0,0.5,-0.4,16
1197,20104.0,0.1,0.0,0.0,0.4,3.2,9.200000000000001,2.0,1.6,-0.5,16
1198,20120.0,0.0,0.0,-0.2,0.4,3.2,9.0,1.1,2.5,-1.4,16
1199,20137.0,-0.1,0.0,-0.30000000000000004,0.30000000000000004,3.2,8.9,-0.4,1.8000000000000003,-1.8000000000000003,16
1200,20154.0,-0.1,-0.1,-0.2,0.2,3.2,9.0,-0.9000000000000001,0.5,-1.5,16
1201,20171.0,-0.1,0.0,-0.1,0.2,3.2,9.1,-1.1,-2.0,-0.6000000000000001,16
1202,20187.0,-0.1,0.0,0.1,0.30000000000000004,3.3000000000000003,9.3,-0.9000000000000001,-3.1,0.1,16
1203,20204.0,0.0,0.0,0.2,0.30000000000000004,3.3000000000000003,9.4,-0.8,-2.7,0.4,16
1204,20220.0,0.0,0.0,0.2,0.4,3.3000000000000003,9.4,0.1,0.5,-0.1,16
1205,20237.0,0.0,0.1,0.0,0.4,3.3000000000000003,9.200000000000001,0.9000000000000001,2.2,-1.0,16
1206,20254.0,0.0,0.0,0.0,0.4,3.3000000000000003,9.200000000000001,0.9000000000000001,2.2,-1.4,16
1207,20271.0,0.0,0.0,-0.1,0.30000000000000004,3.3000000000000003,9.1,0.4,1.1,-1.3,16
1208,20289.0,0.0,0.0,0.0,0.30000000000000004,3.3000000000000003,9.200000000000001,0.30000000000000004,-0.30000000000000004,-1.0,16
1209,20304.0,0.0,0.0,0.0,0.30000000000000004,3.3000000000000003,9.200000000000001,0.5,-0.5,-1.0,16
1210,20321.0,-0.1,0.0,0.0,0.30000000000000004,3.2,9.200000000000001,0.4,-0.7,-1.0,16
1211,20337.0,0.0,0.0,0.1,0.30000000000000004,3.2,9.3,-0.30000000000000004,0.1,-0.5,16
1212,20354.0,0.0,0.0,0.0,0.30000000000000004,3.2,9.3,0.0,0.30000000000000004,-0.5,16
1213,20370.0,0.0,-0.1,0.0,0.30000000000000004,3.2,9.200000000000001,0.8,0.9000000000000001,-1.0,16
1214,20387.0,0.0,0.0,-0.1,0.30000000000000004,3.3000000000000003,9.1,0.6000000000000001,0.8,-0.6000000000000001,16
1215,20404.0,0.0,0.0,-0.1,0.30000000000000004,3.3000000000000003,9.1,0.30000000000000004,0.8,-0.30000000000000004,16
1216,20420.0,0.0,0.0,-0.1,0.30000000000000004,3.3000000000000003,9.1,-0.2,0.2,-0.1,16
1217,20437.0,0.0,0.0,0.0,0.4,3.3000000000000003,9.200000000000001,-0.2,-0.5,-0.30000000000000004,16
1218,20454.0,0.0,0.0,0.0,0.30000000000000004,3.3000000000000003,9.200000000000001,-0.30000000000000004,-0.6000000000000001,-0.6000000000000001,16
1219,20472.0,0.0,0.0,0.1,0.30000000000000004,3.3000000000000003,9.200000000000001,-0.1,-0.2,-0.5,16
1220,20487.0,0.0,0.0,0.0,0.30000000000000004,3.3000000000000003,9.200000000000001,-0.2,0.6000000000000001,-0.6000000000000001,16
1221,20504.0,0.0,0.0,0.0,0.30000000000000004,3.3000000000000003,9.200000000000001,-0.30000000000000004,0.4,-0.5,16
1222,20521.0,0.0,0.0,0.0,0.30000000000000004,3.3000000000000003,9.200000000000001,-0.30000000000000004,-0.30000000000000004,-0.2,16
1223,20537.0,0.0,0.0,0.0,0.30000000000000004,3.3000000000000003,9.200000000000001,0.30000000000000004,-0.7,-0.4,16
1224,20554.0,0.0,0.0,0.0,0.30000000000000004,3.3000000000000003,9.200000000000001,0.5,-0.4,-0.7,16
1225,20573.0,-0.1,0.0,0.0,0.2,3.3000000000000003,9.200000000000001,0.2,-0.30000000000000004,-1.0,16
1226,20587.0,-0.1,0.0,0.0,0.2,3.3000000000000003,9.200000000000001,-0.5,-0.2,0.2,16
1227,20604.0,0.0,0.0,0.0,0.30000000000000004,3.2,9.200000000000001,-0.4,-0.5,0.8,16
1228,20621.0,0.1,-0.1,-0.1,0.4,3.2,9.1,-0.30000000000000004,-2.0,1.2000000000000002,16
1229,20637.0,0.0,0.0,0.0,0.30000000000000004,3.3000000000000003,9.200000000000001,-0.8,-3.9,1.5,16
1230,20654.0,0.0,0.1,0.0,0.4,3.4000000000000004,9.3,-0.9000000000000001,-4.7,1.7,16
1231,20670.0,0.1,0.2,0.1,0.4,3.4000000000000004,9.3,-1.2000000000000002,-3.0,0.8,16
1232,20687.0,0.0,0.30000000000000004,-0.1,0.30000000000000004,3.6,9.1,-2.8,2.7,-0.5,16
1233,20704.0,-0.1,0.4,-0.30000000000000004,0.30000000000000004,3.7,8.9,-4.300000000000001,4.1,-0.9000000000000001,16
1234,20720.0,-0.1,0.5,-0.30000000000000004,0.2,3.8000000000000003,8.9,-7.500000000000001,1.6,-1.5,16
1235,20737.0,-0.1,0.5,-0.1,0.2,3.8000000000000003,9.1,-8.899999999999999,-3.5,-1.0,16
1236,20754.0,-0.2,0.6000000000000001,0.30000000000000004,0.2,3.8000000000000003,9.4,-7.6,-6.8,-0.6000000000000001,16
1237,20771.0,-0.2,0.5,0.5,0.1,3.7,9.700000000000001,-6.1000000000000005,-7.200000000000001,-1.0,16
1238,20787.0,-0.5,0.30000000000000004,0.5,-0.1,3.5,9.700000000000001,-3.0,-5.6,-1.8000000000000003,16
1239,20804.0,-0.6000000000000001,0.1,0.4,-0.2,3.3000000000000003,9.600000000000001,-1.6,-2.0,-0.30000000000000004,16
1240,20821.0,-0.6000000000000001,0.1,0.30000000000000004,-0.2,3.3000000000000003,9.600000000000001,-1.1,0.1,1.1,16
1241,20837.0,-0.4,0.1,0.2,-0.1,3.3000000000000003,9.4,-0.9000000000000001,2.7,1.8000000000000003,16
1242,20854.0,-0.4,0.1,0.2,-0.1,3.2,9.5,-2.1,4.800000000000001,0.9000000000000001,16
1243,20871.0,-0.5,0.0,0.30000000000000004,-0.1,3.2,9.5,-2.4000000000000004,5.8,1.4,16
1244,20887.0,-0.4,0.0,0.30000000000000004,-0.1,3.1,9.5,0.0,7.8,2.8,16
1245,20904.0,-0.4,-0.1,0.0,-0.1,3.1,9.200000000000001,4.0,6.0,3.5,16
1246,20920.0,-0.30000000000000004,-0.2,-0.2,0.0,3.0,9.1,4.9,4.1,3.7000000000000006,16
1247,20937.0,-0.30000000000000004,-0.2,-0.1,0.0,3.0,9.1,3.4,0.8,5.500000000000001,16
1248,20954.0,-0.1,-0.2,0.1,0.2,3.0,9.3,2.8,-0.6000000000000001,7.200000000000001,16
1249,20970.0,0.0,-0.2,0.1,0.30000000000000004,3.0,9.4,4.0,-0.30000000000000004,6.9,16
1250,20987.0,0.0,0.0,-0.1,0.30000000000000004,3.2,9.200000000000001,5.7,1.3,4.800000000000001,16
1251,21004.0,-0.2,0.0,-0.30000000000000004,0.1,3.3000000000000003,8.9,3.8,3.8,2.1,16
1252,21020.0,-0.30000000000000004,0.0,-0.30000000000000004,0.0,3.3000000000000003,8.9,1.6,4.800000000000001,1.1,16
1253,21039.0,-0.30000000000000004,-0.1,-0.30000000000000004,-0.1,3.1,9.0,-2.4000000000000004,5.1000000000000005,0.1,16
1254,21054.0,-0.4,-0.1,0.0,-0.1,3.1,9.200000000000001,-3.4,3.4,1.7,16
1255,21070.0,-0.30000000000000004,-0.1,0.0,0.0,3.2,9.3,-2.7,1.6,3.3000000000000007,16
1256,21087.0,-0.1,0.1,0.2,0.2,3.3000000000000003,9.4,0.1,-1.3,4.7,16
1257,21104.0,0.0,0.1,0.2,0.30000000000000004,3.3000000000000003,9.4,1.4,-0.8,3.3000000000000007,16
1258,21121.0,0.0,0.0,0.1,0.30000000000000004,3.3000000000000003,9.3,1.2000000000000002,0.4,2.5,16
1259,21138.0,0.0,0.0,0.0,0.2,3.2,9.200000000000001,-0.8,1.7,1.5,16
1260,21154.0,0.0,-0.1,0.0,0.30000000000000004,3.2,9.3,-3.3000000000000007,1.2000000000000002,0.8,16
1261,21172.0,0.0,-0.1,0.1,0.30000000000000004,3.1,9.3,-4.2,0.7,0.1,16
1262,21191.0,-0.1,-0.2,0.2,0.2,3.0,9.4,-5.1000000000000005,-2.1,-0.1,16
1263,21204.0,0.0,-0.30000000000000004,0.30000000000000004,0.30000000000000004,2.9000000000000004,9.600000000000001,-4.9,-4.6,0.9000000000000001,16
1264,21220.0,0.0,-0.30000000000000004,0.4,0.30000000000000004,2.9000000000000004,9.700000000000001,-4.4,-4.1,1.1,16
1265,21237.0,0.0,-0.30000000000000004,0.30000000000000004,0.30000000000000004,2.9000000000000004,9.5,-4.2,-0.8,1.5,16
1266,21254.0,0.0,-0.30000000000000004,0.2,0.30000000000000004,2.8000000000000003,9.5,-4.0,0.5,2.2,16
1267,21270.0,0.0,-0.30000000000000004,0.1,0.30000000000000004,2.9000000000000004,9.4,-3.4,1.4,2.3,16
1268,21287.0,0.1,-0.2,0.2,0.4,2.9000000000000004,9.5,-4.7,2.5,2.2,16
1269,21304.0,0.1,-0.1,0.1,0.4,3.0,9.4,-6.500000000000001,7.8,2.3,16
1270,21320.0,-0.1,-0.1,0.0,0.2,3.0,9.3,-5.500000000000001,6.4,0.9000000000000001,16
1271,21337.0,-0.30000000000000004,-0.2,0.0,-0.1,2.9000000000000004,9.3,-3.6000000000000005,3.5,2.6,16
1272,21354.0,-0.1,-0.30000000000000004,-0.1,0.1,2.8000000000000003,9.200000000000001,1.7,-1.6,8.700000000000001,16
1273,21370.0,0.0,-0.1,-0.4,0.2,2.9000000000000004,9.1,5.0,-2.7,11.2,16
1274,21387.0,0.1,0.1,-0.6000000000000001,0.30000000000000004,3.1,8.700000000000001,4.6,-2.5,11.4,16
1275,21404.0,0.2,0.2,-0.8,0.5,3.3000000000000003,8.5,1.5,-4.5,10.299999999999999,16
1276,21421.0,0.30000000000000004,0.2,-0.7000000000000001,0.6000000000000001,3.3000000000000003,8.6,-0.6000000000000001,-6.4,8.5,16
1277,21437.0,0.2,0.4,-0.30000000000000004,0.6000000000000001,3.4000000000000004,9.0,-3.9,-8.600000000000001,4.4,16
1278,21454.0,0.2,0.30000000000000004,0.2,0.6000000000000001,3.4000000000000004,9.5,-4.2,-5.6,0.4,16
1279,21472.0,0.2,0.2,0.2,0.5,3.3000000000000003,9.5,-2.2,-0.2,-2.7,16
1280,21487.0,0.1,0.2,0.1,0.5,3.3000000000000003,9.4,-1.0,1.6,-3.2,16
1281,21504.0,0.2,0.2,0.1,0.5,3.3000000000000003,9.3,1.7,1.1,-3.3000000000000007,16
1282,21520.0,0.1,0.2,0.1,0.5,3.3000000000000003,9.4,5.0,-0.9000000000000001,-4.300000000000001,16
1283,21537.0,0.2,0.2,0.0,0.5,3.3000000000000003,9.3,6.600000000000001,-1.3,-4.7,16
1284,21554.0,0.2,0.1,-0.1,0.6000000000000001,3.2,9.200000000000001,8.600000000000001,0.5,-5.4,16
1285,21570.0,0.2,0.0,-0.30000000000000004,0.5,3.2,9.0,7.6,3.1,-7.200000000000001,16
1286,21587.0,0.2,0.0,-0.4,0.5,3.2,8.9,6.0,4.800000000000001,-8.4,16
1287,21605.0,0.1,-0.1,-0.5,0.4,3.1,8.8,0.30000000000000004,5.6,-10.5,16
1288,21620.0,0.0,-0.30000000000000004,-0.2,0.30000000000000004,2.9000000000000004,9.0,-6.500000000000001,1.9,-12.299999999999999,16
1289,21637.0,0.0,-0.4,0.1,0.30000000000000004,2.7,9.3,-9.0,-0.1,-12.7,16
1290,21654.0,-0.1,-0.6000000000000001,0.6000000000000001,0.1,2.5,9.8,-9.899999999999999,1.7,-11.700000000000001,16
1291,21670.0,-0.4,-0.7000000000000001,0.6000000000000001,-0.1,2.4000000000000004,9.9,-4.9,5.2,-7.300000000000001,16
1292,21687.0,-0.4,-0.7000000000000001,0.5,-0.2,2.3000000000000003,9.8,-1.6,6.300000000000001,-4.2,16
1293,21704.0,-0.4,-0.7000000000000001,0.2,-0.2,2.4000000000000004,9.5,4.1,6.699999999999999,2.8,16
1294,21720.0,-0.4,-0.5,-0.2,-0.2,2.6,9.1,6.699999999999999,5.300000000000001,9.100000000000001,16
1295,21737.0,-0.5,-0.4,-0.30000000000000004,-0.30000000000000004,2.7,8.9,7.300000000000001,3.0,12.0,16
1296,21754.0,-0.4,-0.30000000000000004,-0.4,-0.2,2.8000000000000003,8.9,7.400000000000001,-4.300000000000001,17.7,16
1297,21770.0,0.1,-0.2,-0.2,0.4,3.0,9.1,7.400000000000001,-8.5,21.500000000000004,16
1298,21787.0,0.4,-0.1,-0.1,0.6000000000000001,3.1,9.1,7.1000000000000005,-8.3,21.300000000000004,16
1299,21804.0,0.6000000000000001,0.2,-0.1,0.9,3.4000000000000004,9.1,4.300000000000001,-5.0,16.700000000000003,16
1300,21820.0,0.6000000000000001,0.30000000000000004,0.0,1.0,3.5,9.200000000000001,-1.5,-3.3000000000000007,8.4,16
1301,21837.0,0.7000000000000001,0.30000000000000004,0.1,1.0,3.5,9.4,-4.2,-2.0,4.0,16
1302,21854.0,0.5,0.2,0.5,0.8,3.3000000000000003,9.8,-6.699999999999999,2.2,-4.5,16
1303,21870.0,0.0,-0.1,0.6000000000000001,0.4,3.1,9.8,-4.300000000000001,7.200000000000001,-8.8,16
1304,21887.0,-0.2,-0.2,0.4,0.1,3.0,9.700000000000001,-2.3,8.8,-8.5,16
1305,21904.0,-0.30000000000000004,-0.30000000000000004,0.2,0.0,2.8000000000000003,9.5,1.7,10.200000000000001,-3.2,16
1306,21921.0,-0.1,-0.2,0.0,0.1,2.9000000000000004,9.200000000000001,6.0,7.500000000000001,2.9,16
1307,21938.0,0.1,0.0,-0.2,0.2,3.1,9.1,8.700000000000001,2.7,5.500000000000001,16
1308,21954.0,0.2,0.1,-0.30000000000000004,0.4,3.2,9.0,9.0,0.4,5.6,16
1309,21970.0,0.4,0.1,-0.1,0.7000000000000001,3.3000000000000003,9.200000000000001,7.699999999999999,-3.0,4.800000000000001,16
1310,21987.0,0.5,0.1,0.1,0.8,3.3000000000000003,9.3,6.600000000000001,-3.2,3.8,16
1311,22004.0,0.5,0.1,0.30000000000000004,0.8,3.3000000000000003,9.5,5.6,-1.1,0.8,16
1312,22020.0,0.30000000000000004,0.0,0.2,0.6000000000000001,3.3000000000000003,9.4,6.1000000000000005,0.2,-1.9,16
1313,22037.0,0.30000000000000004,0.0,0.2,0.6000000000000001,3.2,9.4,6.8,0.1,-2.5,16
1314,22054.0,0.2,-0.1,0.2,0.5,3.2,9.4,7.400000000000001,-0.30000000000000004,-2.9,16
1315,22070.0,0.30000000000000004,0.0,0.2,0.6000000000000001,3.2,9.4,8.100000000000001,-1.8000000000000003,-1.9,16
