,ms,accelX,accelY,accelZ,accelWithGX,accelWithGY,accelWithGZ,rotRateAlpha,rotRateBeta,rotRateGamma,interval
0,0.0,0.0,0.0,0.0,1.4000000000000001,4.0,8.3,-4.1000000000000005,-22.4,-15.399999999999999,16
1,16.0,0.0,0.1,-0.1,1.4000000000000001,4.2,8.200000000000001,-12.4,-21.5,-17.8,16
2,32.0,-0.1,0.2,0.0,1.2000000000000002,4.3,8.4,-13.9,-12.6,-18.2,16
3,50.0,-0.2,0.1,0.1,1.2000000000000002,4.2,8.4,-9.3,-0.8,-14.3,16
4,66.0,-0.1,0.1,0.1,1.2000000000000002,4.2,8.4,-9.3,-0.8,-14.3,16
5,83.0,0.1,-0.1,0.2,1.4000000000000001,3.9000000000000004,8.700000000000001,-5.7,10.700000000000001,-10.700000000000001,16
6,100.0,0.1,-0.2,0.4,1.3,3.8000000000000003,8.9,-7.6,6.5,-14.0,16
7,117.0,0.0,-0.1,0.5,1.2000000000000002,3.9000000000000004,9.0,-8.1,-0.30000000000000004,-16.5,16
8,132.0,-0.1,0.0,0.4,1.0,4.1000000000000005,8.9,-6.6000000000000005,-6.2,-16.5,16
9,149.0,-0.2,0.2,0.1,1.1,4.2,8.6,-5.300000000000001,-7.300000000000001,-14.0,16
10,166.0,0.0,0.2,-0.1,1.1,4.2,8.6,-5.300000000000001,-7.300000000000001,-14.0,16
11,183.0,0.1,0.2,-0.2,1.3,4.1000000000000005,8.5,-7.500000000000001,4.3999999999999995,-10.1,16
12,200.0,0.1,-0.1,0.0,1.2000000000000002,3.8000000000000003,8.700000000000001,-8.700000000000001,7.6,-10.3,16
13,216.0,0.0,-0.2,0.1,1.1,3.7,8.8,-8.0,5.7,-11.8,16
14,233.0,0.1,-0.2,0.2,1.2000000000000002,3.9000000000000004,8.8,-5.2,1.7,-13.8,16
15,249.0,0.0,0.1,0.1,1.1,4.0,8.700000000000001,-3.1,2.5,-13.9,16
16,266.0,-0.1,0.1,0.1,0.9,4.1000000000000005,8.8,-3.3000000000000003,7.0,-11.1,16
17,283.0,-0.2,0.2,0.30000000000000004,0.8,4.0,9.1,-5.300000000000001,10.1,-7.1000000000000005,16
18,300.0,-0.2,-0.1,0.6000000000000001,0.8,3.8000000000000003,9.5,-7.300000000000001,10.3,-3.8,16
19,316.0,0.0,-0.1,0.8,1.0,3.7,9.8,-8.5,8.600000000000001,-2.1,16
20,333.0,0.0,-0.2,1.0,0.8,3.6,9.9,-8.9,5.0,-1.8,16
21,350.0,-0.1,-0.4,1.0,0.8,3.6,9.9,-8.9,5.0,-1.8,16
22,366.0,-0.1,-0.6000000000000001,1.0,0.8,2.9000000000000004,10.100000000000001,-10.9,-0.9,-0.7,16
23,383.0,0.0,-1.1,1.0,0.9,2.5,10.0,-6.000000000000001,-5.6,-3.0000000000000004,16
24,400.0,0.0,-1.3,0.8,0.9,2.5,10.0,-6.000000000000001,-5.6,-3.0000000000000004,16
25,416.0,0.30000000000000004,-1.1,-0.1,1.3,2.7,8.6,9.600000000000001,-15.100000000000001,-14.700000000000001,16
26,433.0,0.2,-0.5,-0.9,1.1,3.2,8.200000000000001,8.0,-9.700000000000001,-19.8,16
27,450.0,0.0,-0.2,-0.9,1.1,3.2,8.200000000000001,8.0,-9.700000000000001,-19.8,16
28,466.0,-0.5,0.1,-0.1,0.30000000000000004,3.6,9.200000000000001,-2.5,17.400000000000002,-19.6,16
29,483.0,-0.8,-0.1,0.7000000000000001,0.0,3.5,9.8,-1.0999999999999999,24.000000000000004,-13.9,16
30,500.0,-0.8,-0.2,1.0,0.0,3.5,9.8,-1.0999999999999999,24.000000000000004,-13.9,16
31,516.0,-0.9,-0.5,1.3,-0.2,3.0,10.4,1.0,15.299999999999999,-3.9,16
32,533.0,-0.7000000000000001,-0.8,1.3,-0.1,2.8000000000000003,10.3,2.4000000000000004,2.9,-1.8,16
33,549.0,-0.6000000000000001,-0.9,1.0,0.1,2.6,9.9,4.800000000000001,-9.0,-2.4000000000000004,16
34,566.0,-0.30000000000000004,-1.1,0.4,0.30000000000000004,2.5,9.4,7.9,-15.399999999999999,-6.6000000000000005,16
35,583.0,-0.2,-0.9,-0.2,0.4,2.7,8.8,12.200000000000001,-15.100000000000001,-12.000000000000002,16
36,599.0,-0.30000000000000004,-0.7000000000000001,-0.5,0.1,3.0,8.4,16.1,-7.6,-16.400000000000002,16
37,616.0,-0.7000000000000001,-0.4,-0.8,-0.30000000000000004,3.4000000000000004,8.3,16.6,2.7,-17.5,16
38,633.0,-1.0,-0.2,-0.8,-0.30000000000000004,3.4000000000000004,8.3,16.6,2.7,-17.5,16
39,649.0,-1.3,0.0,-0.6000000000000001,-1.0,3.7,8.5,11.5,21.3,-10.5,16
40,666.0,-1.3,0.0,-0.4,-1.0,3.7,8.6,7.6,25.1,-3.7000000000000006,16
41,683.0,-1.2000000000000002,0.0,-0.30000000000000004,-1.0,3.7,8.6,7.6,25.1,-3.7000000000000006,16
42,700.0,-0.7000000000000001,-0.2,0.0,-0.4,3.4000000000000004,9.200000000000001,-8.3,16.400000000000002,4.5,16
43,716.0,-0.4,-0.4,0.5,-0.2,3.3000000000000003,9.600000000000001,-14.200000000000001,5.9,2.1999999999999997,16
44,733.0,-0.30000000000000004,-0.4,0.7000000000000001,-0.2,3.3000000000000003,9.600000000000001,-14.200000000000001,5.9,2.1999999999999997,16
45,750.0,-0.1,-0.4,0.6000000000000001,0.0,3.2,9.600000000000001,-13.200000000000001,-5.300000000000001,-9.200000000000001,16
46,766.0,-0.2,-0.2,0.5,-0.1,3.4000000000000004,9.700000000000001,-11.8,2.3000000000000003,-12.5,16
47,783.0,-0.30000000000000004,-0.2,0.6000000000000001,-0.1,3.4000000000000004,9.700000000000001,-11.8,2.3000000000000003,-12.5,16
48,799.0,-0.4,-0.30000000000000004,0.7000000000000001,-0.4,3.1,9.8,-6.1000000000000005,8.0,-19.9,16
49,816.0,-0.4,-0.4,0.30000000000000004,-0.5,3.2,9.4,0.0,2.0,-25.2,16
50,833.0,-0.5,-0.2,0.0,-0.6000000000000001,3.5,8.700000000000001,4.5,-8.600000000000001,-29.900000000000006,16
51,849.0,-0.5,0.30000000000000004,-0.9,-0.6000000000000001,4.0,8.1,4.2,-16.6,-32.6,16
52,866.0,-0.5,0.6000000000000001,-1.2000000000000002,-0.6000000000000001,4.0,8.1,1.4,-13.9,-31.7,16
53,883.0,-0.7000000000000001,1.1,-1.3,-0.9,4.7,8.0,-0.2,-4.300000000000001,-26.700000000000003,16
54,899.0,-0.9,1.3,-0.9,-1.1,4.800000000000001,8.4,1.0999999999999999,6.6000000000000005,-16.8,16
55,916.0,-1.0,1.2000000000000002,-0.6000000000000001,-1.1,4.800000000000001,8.4,1.0999999999999999,6.6000000000000005,-16.8,16
56,933.0,-0.8,0.7000000000000001,0.0,-0.9,4.0,9.1,6.9,7.1000000000000005,5.6,16
57,950.0,-0.4,-0.1,-0.1,-0.5,3.4000000000000004,9.0,7.699999999999999,-3.7000000000000006,9.200000000000001,16
58,966.0,-0.2,-0.4,-0.1,-0.5,3.4000000000000004,9.0,7.699999999999999,-3.7000000000000006,9.200000000000001,16
59,983.0,0.1,-0.9,0.1,-0.1,2.5,9.200000000000001,10.0,-4.800000000000001,0.8,16
60,999.0,0.0,-1.3,0.4,-0.30000000000000004,2.3000000000000003,9.5,17.3,0.8,-7.500000000000001,16
61,1017.0,-0.2,-1.3,0.6000000000000001,-0.30000000000000004,2.3000000000000003,9.5,17.3,0.8,-7.500000000000001,16
62,1033.0,-0.6000000000000001,-0.9,0.6000000000000001,-0.9,3.2,9.5,42.400000000000006,1.9,-20.3,16
63,1050.0,-0.2,-0.2,0.4,-0.30000000000000004,3.9000000000000004,9.200000000000001,48.50000000000001,-13.100000000000001,-21.0,16
64,1069.0,0.6000000000000001,0.5,-0.30000000000000004,0.4,4.6000000000000005,8.6,45.9,-26.200000000000003,-25.6,16
65,1083.0,0.6000000000000001,0.6000000000000001,-0.7000000000000001,0.30000000000000004,4.9,8.200000000000001,32.800000000000004,-14.800000000000002,-29.500000000000004,16
66,1100.0,0.5,0.8,-0.6000000000000001,0.30000000000000004,4.9,8.200000000000001,16.5,17.9,-23.900000000000002,16
67,1116.0,0.30000000000000004,0.8,0.9,-0.1,4.800000000000001,10.5,10.5,49.3,-13.700000000000001,16
68,1133.0,0.4,0.30000000000000004,2.3000000000000003,0.0,4.5,11.200000000000001,20.8,52.6,-3.3000000000000003,16
69,1149.0,0.9,0.0,2.2,0.0,4.5,11.200000000000001,20.8,52.6,-3.3000000000000003,16
70,1166.0,1.1,0.0,1.3,0.6000000000000001,4.5,9.200000000000001,40.0,3.0000000000000004,4.1000000000000005,16
71,1183.0,1.4000000000000001,0.2,-0.5,0.9,4.800000000000001,7.9,28.200000000000003,-18.2,1.0,16
72,1200.0,1.4000000000000001,0.30000000000000004,-1.1,0.9,4.800000000000001,7.9,28.200000000000003,-18.2,1.0,16
73,1217.0,0.7000000000000001,0.30000000000000004,-1.0,-0.1,4.7,8.0,-10.2,1.7,2.1,16
74,1233.0,0.1,-0.2,-0.1,-0.4,4.2,8.8,-21.3,21.200000000000003,11.700000000000001,16
75,1250.0,0.1,-0.5,0.4,-0.4,4.2,8.8,-21.3,21.200000000000003,11.700000000000001,16
76,1266.0,0.30000000000000004,-1.2000000000000002,0.8,0.0,2.9000000000000004,9.5,-24.7,18.400000000000002,22.8,16
77,1283.0,0.9,-1.8,0.30000000000000004,0.5,2.5,8.9,-22.3,-1.3,17.1,16
78,1300.0,1.1,-1.8,-0.2,0.5,2.5,8.9,-22.3,-1.3,17.1,16
79,1316.0,1.5,-1.2000000000000002,-1.5,1.4000000000000001,3.2,7.1000000000000005,-26.6,-31.4,-5.0,16
80,1333.0,1.8,-0.5,-1.6,1.5,3.6,7.4,-30.4,-13.3,-13.6,16
81,1350.0,1.7000000000000002,-0.4,-1.2000000000000002,1.5,3.6,7.4,-30.4,-13.3,-13.6,16
82,1366.0,1.0,-0.6000000000000001,-0.2,0.4,3.3000000000000003,8.8,-11.700000000000001,39.699999999999996,-16.900000000000002,16
83,1383.0,0.5,-0.7000000000000001,-0.1,0.0,3.3000000000000003,8.700000000000001,3.3000000000000003,38.5,-16.1,16
84,1400.0,0.5,-0.5,-0.4,-0.1,3.6,8.1,9.600000000000001,25.400000000000002,-16.8,16
85,1416.0,0.5,-0.2,-1.0,-0.2,3.9000000000000004,7.7,4.9,9.200000000000001,-18.3,16
86,1433.0,0.5,0.0,-1.2000000000000002,-0.2,3.9000000000000004,7.7,-3.9,-0.4,-16.3,16
87,1449.0,0.4,0.30000000000000004,-1.1,-0.30000000000000004,4.3,7.800000000000001,-8.3,-2.5,-10.5,16
88,1466.0,0.5,0.2,-0.9,-0.1,4.2,7.800000000000001,-4.9,-0.7,-5.4,16
89,1483.0,0.6000000000000001,0.2,-1.0,-0.1,4.2,7.800000000000001,-4.9,-0.7,-5.4,16
90,1499.0,0.6000000000000001,0.4,-1.0,-0.1,4.4,7.9,2.9,9.200000000000001,0.5,16
91,1516.0,0.5,0.6000000000000001,-0.8,-0.30000000000000004,4.5,8.0,3.6,12.8,3.6,16
92,1533.0,0.4,0.6000000000000001,-0.7000000000000001,-0.30000000000000004,4.5,8.0,3.6,12.8,3.6,16
93,1549.0,0.30000000000000004,0.6000000000000001,-0.30000000000000004,-0.5,4.6000000000000005,8.700000000000001,-2.5,17.7,14.500000000000002,16
94,1566.0,0.4,0.4,0.4,-0.4,4.3,9.3,-6.9,19.1,18.5,16
95,1583.0,0.5,0.30000000000000004,0.7000000000000001,-0.4,4.3,9.3,-6.9,19.1,18.5,16
96,1599.0,0.5,0.0,1.2000000000000002,-0.5,3.9000000000000004,10.100000000000001,-2.8,16.1,11.3,16
97,1616.0,0.1,0.2,1.3,-0.8,4.3,10.0,5.500000000000001,4.0,4.6000000000000005,16
98,1633.0,0.0,0.5,1.0,-0.8,4.3,10.0,5.500000000000001,4.0,4.6000000000000005,16
99,1649.0,-0.30000000000000004,1.2000000000000002,0.2,-1.4000000000000001,5.4,8.9,20.4,-15.8,2.7,16
100,1666.0,-0.7000000000000001,1.4000000000000001,0.1,-1.4000000000000001,5.4,8.9,20.4,-15.8,2.7,16
101,1683.0,-1.7000000000000002,1.6,0.2,-2.8000000000000003,5.7,9.200000000000001,9.0,14.600000000000001,27.2,16
102,1699.0,-2.3000000000000003,1.3,1.1,-3.3000000000000003,5.300000000000001,10.5,-7.2,43.400000000000006,45.3,16
103,1716.0,-2.4000000000000004,1.0,2.1,-3.3000000000000003,5.300000000000001,10.5,-7.2,43.400000000000006,45.3,16
104,1733.0,-2.8000000000000003,0.0,4.2,-3.9000000000000004,3.4000000000000004,13.4,-13.200000000000001,69.80000000000001,75.7,16
105,1749.0,-2.5,-1.5,4.5,-3.5,2.4000000000000004,13.0,5.1,41.9,84.0,16
106,1766.0,-2.2,-2.0,4.0,-3.5,2.4000000000000004,13.0,5.1,41.9,84.0,16
107,1783.0,-1.6,-2.3000000000000003,2.3000000000000003,-2.2,2.2,10.5,28.3,-46.300000000000004,71.8,16
108,1800.0,-0.9,-1.5,0.9,-1.6,3.0,9.5,27.900000000000002,-64.0,60.400000000000006,16
109,1816.0,-0.9,-1.1,0.5,-1.6,3.0,9.5,27.900000000000002,-64.0,60.400000000000006,16
110,1833.0,-1.4000000000000001,-0.8,-0.30000000000000004,-1.9000000000000001,3.8000000000000003,8.4,15.6,-39.6,55.2,16
111,1849.0,-1.6,-0.6000000000000001,-0.6000000000000001,-1.8,3.8000000000000003,8.200000000000001,2.7,-20.0,62.7,16
112,1866.0,-1.5,-0.8,-0.6000000000000001,-1.8,3.8000000000000003,8.200000000000001,2.7,-20.0,62.7,16
113,1883.0,-1.3,-1.1,-0.4,-1.2000000000000002,3.1,8.5,-23.900000000000002,-7.2,62.7,16
114,1899.0,-1.0,-1.5,-0.4,-0.8,2.8000000000000003,8.4,-26.1,-14.900000000000002,57.5,16
115,1916.0,-0.8,-1.5,-0.5,-0.8,2.8000000000000003,8.4,-26.1,-14.900000000000002,57.5,16
116,1933.0,-0.30000000000000004,-1.4000000000000001,-1.0,0.2,2.8000000000000003,7.7,-11.5,-23.3,42.300000000000004,16
117,1950.0,0.1,-1.3,-1.6,0.6000000000000001,3.0,7.2,-1.8,-19.6,31.900000000000002,16
118,1966.0,0.2,-1.1,-1.7000000000000002,0.7000000000000001,3.2,7.0,6.000000000000001,-7.500000000000001,21.6,16
119,1983.0,0.1,-0.7000000000000001,-1.9000000000000001,0.5,3.6,6.9,10.2,12.100000000000001,14.900000000000002,16
120,1999.0,-0.30000000000000004,-0.30000000000000004,-1.8,0.1,4.0,7.0,11.3,28.700000000000003,13.3,16
121,2016.0,-0.5,-0.2,-1.6,-0.2,4.1000000000000005,7.300000000000001,9.5,35.4,17.3,16
122,2033.0,-0.6000000000000001,-0.2,-1.2000000000000002,-0.30000000000000004,4.0,7.800000000000001,5.4,35.4,23.3,16
123,2049.0,-0.5,-0.2,-0.8,-0.30000000000000004,4.1000000000000005,8.3,1.8,26.500000000000004,28.8,16
124,2066.0,-0.5,-0.1,-0.5,-0.2,4.1000000000000005,8.200000000000001,-3.2,8.700000000000001,34.7,16
125,2083.0,-0.30000000000000004,0.0,-0.6000000000000001,0.2,4.1000000000000005,8.1,-12.5,-11.6,39.6,16
126,2099.0,0.0,-0.1,-0.7000000000000001,0.2,4.1000000000000005,8.1,-12.5,-11.6,39.6,16
127,2116.0,0.2,-0.2,-0.4,0.8,3.9000000000000004,8.6,-25.0,-27.5,36.1,16
128,2132.0,0.30000000000000004,-0.2,0.0,1.0,3.9000000000000004,8.9,-20.8,-25.900000000000002,33.1,16
129,2149.0,0.30000000000000004,-0.1,0.2,1.0,3.9000000000000004,8.9,-20.8,-25.900000000000002,33.1,16
130,2166.0,0.5,0.1,-0.1,1.4000000000000001,3.9000000000000004,8.4,-2.5,-33.5,27.400000000000002,16
131,2183.0,0.30000000000000004,-0.1,-1.0,1.4000000000000001,3.8000000000000003,7.7,-2.5,-46.4,26.500000000000004,16
132,2200.0,0.5,-0.1,-1.3,1.4000000000000001,3.8000000000000003,7.7,-2.5,-46.4,26.500000000000004,16
133,2216.0,0.9,0.1,-1.5,2.4000000000000004,4.0,7.300000000000001,-23.0,-76.5,25.0,16
134,2233.0,1.0,0.2,-1.5,2.7,4.2,7.300000000000001,-23.0,-76.5,25.0,16
135,2249.0,1.1,0.5,-1.5,2.8000000000000003,4.1000000000000005,7.5,-53.7,-67.7,16.400000000000002,16
136,2266.0,0.0,0.7000000000000001,-1.4000000000000001,2.0,4.2,7.5,-76.80000000000001,-51.1,10.3,16
137,2283.0,0.0,0.8,-1.2000000000000002,3.2,3.6,8.3,-76.80000000000001,-51.1,10.3,16
138,2299.0,1.0,0.2,-0.6000000000000001,2.9000000000000004,2.9000000000000004,8.200000000000001,-116.9,-12.4,-11.9,16
139,2316.0,0.9,0.0,-0.30000000000000004,3.0,2.5,8.9,-127.69999999999999,-2.6,-24.5,16
140,2333.0,0.9,0.0,0.0,2.8000000000000003,2.3000000000000003,9.4,-129.20000000000002,-11.1,-37.300000000000004,16
141,2349.0,0.5,0.1,0.5,2.5,2.3000000000000003,10.3,-122.39999999999999,-36.2,-46.4,16
142,2366.0,0.30000000000000004,0.9,2.1,2.8000000000000003,2.7,11.9,-102.2,-66.7,-39.2,16
143,2383.0,0.6000000000000001,1.1,3.2,2.8000000000000003,2.7,11.9,-102.2,-66.7,-39.2,16
144,2400.0,1.3,0.1,4.2,4.2,1.0,13.3,-28.500000000000004,-84.1,-9.700000000000001,16
145,2416.0,1.4000000000000001,-1.2000000000000002,3.5,4.4,0.0,12.100000000000001,3.6,-73.30000000000001,-7.2,16
146,2433.0,1.4000000000000001,-1.7000000000000002,2.3000000000000003,4.4,0.0,12.100000000000001,3.6,-73.30000000000001,-7.2,16
147,2449.0,1.5,-1.6,1.0,4.9,0.2,9.700000000000001,37.900000000000006,-61.8,-22.5,16
148,2466.0,1.5,-0.7000000000000001,0.30000000000000004,5.0,1.2000000000000002,9.200000000000001,46.2,-56.7,-35.199999999999996,16
149,2483.0,1.5,-0.30000000000000004,0.2,5.0,1.2000000000000002,9.200000000000001,46.2,-56.7,-35.199999999999996,16
150,2499.0,1.3,0.4,-0.2,4.800000000000001,2.6,8.5,44.9,-9.1,-49.8,16
151,2517.0,1.1,0.5,-0.4,4.800000000000001,2.6,8.5,44.9,-9.1,-49.8,16
152,2533.0,0.2,0.7000000000000001,-0.4,3.4000000000000004,2.9000000000000004,8.6,16.5,41.9,-41.6,16
153,2549.0,0.0,0.30000000000000004,-0.1,3.3000000000000003,2.4000000000000004,9.0,-1.9,54.800000000000004,-31.8,16
154,2566.0,0.2,-0.6000000000000001,0.30000000000000004,3.3000000000000003,1.6,9.3,-14.200000000000001,61.8,-25.5,16
155,2582.0,0.2,-1.1,0.4,3.1,0.8,9.4,-17.8,56.6,-26.0,16
156,2599.0,0.1,-1.8,0.1,2.8000000000000003,0.5,9.0,-17.599999999999998,32.300000000000004,-33.0,16
157,2616.0,0.0,-1.9000000000000001,-0.2,2.8000000000000003,0.5,9.0,-17.599999999999998,32.300000000000004,-33.0,16
158,2633.0,0.1,-1.4000000000000001,-0.9,2.8000000000000003,1.0,7.9,-17.7,-14.800000000000002,-50.300000000000004,16
159,2649.0,-0.1,-1.0,-1.5,2.5,1.4000000000000001,7.4,-16.5,-20.4,-54.9,16
160,2666.0,-0.30000000000000004,-0.7000000000000001,-1.8,2.5,1.4000000000000001,7.4,-16.5,-20.4,-54.9,16
161,2683.0,-0.1,-0.8,-2.6,2.8000000000000003,1.6,6.5,-18.900000000000002,5.6,-42.2,16
162,2699.0,0.2,-0.5,-2.5,2.8000000000000003,1.7000000000000002,6.7,-30.7,30.000000000000004,-35.1,16
163,2717.0,0.1,-0.4,-2.3000000000000003,2.8000000000000003,1.7000000000000002,6.7,-30.7,30.000000000000004,-35.1,16
164,2733.0,-0.30000000000000004,-0.2,-1.7000000000000002,1.9000000000000001,1.9000000000000001,7.800000000000001,-56.900000000000006,65.7,-24.5,16
165,2749.0,-0.5,0.2,-0.9,1.8,1.9000000000000001,8.700000000000001,-59.60000000000001,66.3,-16.400000000000002,16
166,2766.0,0.0,0.1,-0.2,1.8,1.9000000000000001,8.700000000000001,-59.60000000000001,66.3,-16.400000000000002,16
167,2783.0,0.6000000000000001,0.2,1.4000000000000001,2.4000000000000004,1.5,10.9,4.3999999999999995,58.5,-29.400000000000002,16
168,2799.0,0.30000000000000004,-1.0,1.2000000000000002,1.9000000000000001,0.8,10.5,43.1,41.6,-31.2,16
169,2816.0,0.4,-1.2000000000000002,0.9,2.1,1.1,10.200000000000001,53.400000000000006,34.2,-19.400000000000002,16
170,2833.0,0.5,-0.7000000000000001,0.4,2.1,1.4000000000000001,9.5,37.5,14.800000000000002,-12.4,16
171,2849.0,0.7000000000000001,-0.6000000000000001,-0.1,2.1,1.4000000000000001,9.5,21.8,7.9,-15.000000000000002,16
172,2866.0,1.3,0.0,-0.5,2.5,2.6,8.9,13.3,8.4,-26.500000000000004,16
173,2883.0,0.7000000000000001,0.7000000000000001,-0.30000000000000004,1.8,2.9000000000000004,9.200000000000001,5.500000000000001,10.4,-30.100000000000005,16
174,2899.0,0.30000000000000004,0.7000000000000001,0.0,1.8,2.9000000000000004,9.200000000000001,5.500000000000001,10.4,-30.100000000000005,16
175,2917.0,0.30000000000000004,0.5,0.6000000000000001,1.8,2.7,10.0,-3.9,5.2,-9.600000000000001,16
176,2933.0,0.6000000000000001,0.6000000000000001,0.6000000000000001,1.9000000000000001,3.1,9.9,4.1000000000000005,2.9,-3.1,16
177,2949.0,0.6000000000000001,1.1,0.5,1.9000000000000001,3.1,9.9,4.1000000000000005,2.9,-3.1,16
178,2966.0,0.0,2.8000000000000003,0.8,0.9,5.300000000000001,10.3,22.000000000000004,40.4,32.0,16
179,2983.0,-0.30000000000000004,2.4000000000000004,1.2000000000000002,0.9,4.1000000000000005,11.0,0.6000000000000001,76.60000000000001,69.5,16
180,3000.0,0.0,1.0,2.0,0.9,4.1000000000000005,11.0,0.6000000000000001,76.60000000000001,69.5,16
181,3016.0,0.0,-1.6,5.1000000000000005,0.6000000000000001,0.2,14.8,-12.4,72.2,68.2,16
182,3033.0,0.0,-2.5,4.4,0.6000000000000001,-0.1,13.3,20.6,5.9,32.7,16
183,3050.0,0.0,-2.1,2.8000000000000003,0.6000000000000001,-0.1,13.3,20.6,5.9,32.7,16
184,3066.0,-0.4,-0.2,0.0,0.1,2.7,8.9,45.7,-36.2,-0.8,16
185,3083.0,-1.2000000000000002,0.9,-1.2000000000000002,-0.4,3.6,8.200000000000001,40.3,-4.1000000000000005,6.3,16
186,3100.0,-1.4000000000000001,1.2000000000000002,-1.2000000000000002,-1.0,3.9000000000000004,8.5,27.900000000000002,28.500000000000004,15.8,16
187,3116.0,-2.1,1.0,-0.4,-1.6,3.5,9.200000000000001,15.2,37.5,20.8,16
188,3133.0,-2.4000000000000004,0.7000000000000001,0.0,-2.0,2.8000000000000003,9.3,5.0,23.8,22.5,16
189,3149.0,-2.7,-0.4,-0.4,-1.9000000000000001,2.0,8.700000000000001,-8.5,2.3000000000000003,24.3,16
190,3166.0,-1.9000000000000001,-0.9,-1.2000000000000002,-0.9,1.9000000000000001,8.0,-18.3,-13.100000000000001,22.3,16
191,3183.0,-1.3,-0.8,-1.6,-0.9,1.9000000000000001,8.0,-18.3,-13.100000000000001,22.3,16
192,3199.0,-0.2,-0.9,-2.2,0.7000000000000001,1.6,7.300000000000001,-9.200000000000001,10.8,15.5,16
193,3216.0,0.2,-1.0,-1.9000000000000001,0.7000000000000001,1.6,7.6000000000000005,6.4,29.200000000000003,6.4,16
194,3233.0,0.0,-0.9,-1.6,0.7000000000000001,1.6,7.6000000000000005,6.4,29.200000000000003,6.4,16
195,3249.0,-0.6000000000000001,-0.7000000000000001,-1.0,-0.7000000000000001,2.0,8.700000000000001,38.300000000000004,40.1,-12.000000000000002,16
196,3266.0,-1.6,-0.7000000000000001,-0.1,-1.4000000000000001,2.0,9.200000000000001,47.400000000000006,35.5,-15.000000000000002,16
197,3283.0,-1.8,-0.8,0.0,-1.4000000000000001,2.0,9.200000000000001,47.400000000000006,35.5,-15.000000000000002,16
198,3300.0,-2.4000000000000004,-0.8,-0.6000000000000001,-2.0,2.5,8.3,50.9,17.5,-4.2,16
199,3316.0,-2.0,-0.5,-1.0,-1.4000000000000001,3.0,7.4,45.1,8.700000000000001,4.5,16
200,3333.0,-1.2000000000000002,-0.2,-2.0,-1.4000000000000001,3.0,7.4,45.1,8.700000000000001,4.5,16
201,3349.0,-0.2,-0.30000000000000004,-1.8,0.0,3.2,7.6000000000000005,19.9,8.3,4.0,16
202,3366.0,0.30000000000000004,0.1,-0.9,0.4,3.6,8.3,13.3,5.0,-5.2,16
203,3383.0,0.5,0.2,-0.5,0.4,3.7,8.8,13.100000000000001,2.1,-17.9,16
204,3399.0,0.1,0.4,-0.30000000000000004,-0.1,4.0,8.8,21.6,-2.1999999999999997,-25.0,16
205,3416.0,-0.1,0.6000000000000001,-0.30000000000000004,-0.1,4.4,9.1,22.6,-11.6,-26.1,16
206,3433.0,0.0,0.9,0.30000000000000004,0.0,4.5,9.600000000000001,16.8,-15.7,-25.3,16
207,3449.0,0.30000000000000004,0.8,0.6000000000000001,0.4,4.4,9.700000000000001,10.5,-5.500000000000001,-24.8,16
208,3466.0,0.5,0.7000000000000001,0.8,0.4,4.4,9.700000000000001,10.5,-5.500000000000001,-24.8,16
209,3483.0,0.8,0.6000000000000001,2.2,0.5,4.1000000000000005,11.700000000000001,10.3,20.4,-30.599999999999998,16
210,3499.0,0.5,0.4,2.8000000000000003,0.1,4.3,11.5,25.3,9.0,-41.0,16
211,3516.0,0.2,0.7000000000000001,2.3000000000000003,0.1,4.3,11.5,25.3,9.0,-41.0,16
212,3533.0,-0.30000000000000004,2.1,1.4000000000000001,-0.4,6.800000000000001,9.8,51.300000000000004,-16.0,-41.7,16
213,3549.0,0.30000000000000004,3.5,0.5,0.1,7.7,9.4,43.300000000000004,5.6,-26.200000000000003,16
214,3566.0,0.6000000000000001,3.6,0.7000000000000001,0.1,7.7,9.4,43.300000000000004,5.6,-26.200000000000003,16
215,3583.0,1.2000000000000002,1.7000000000000002,2.6,0.6000000000000001,5.1000000000000005,12.0,14.600000000000001,39.2,-8.0,16
216,3599.0,0.7000000000000001,-0.7000000000000001,3.3000000000000003,0.0,3.3000000000000003,11.8,20.1,12.100000000000001,-17.5,16
217,3617.0,0.4,-1.4000000000000001,2.6,0.0,3.3000000000000003,11.8,20.1,12.100000000000001,-17.5,16
218,3633.0,0.8,-1.2000000000000002,0.6000000000000001,0.4,3.6,8.700000000000001,32.9,-41.5,-32.7,16
219,3649.0,1.1,-0.2,-1.0,0.7000000000000001,4.5,7.7,31.4,-36.1,-31.3,16
220,3666.0,1.2000000000000002,0.30000000000000004,-1.2000000000000002,0.8,5.300000000000001,7.7,25.1,-11.5,-25.5,16
221,3683.0,1.0,0.7000000000000001,-0.5,0.1,4.9,8.5,19.1,14.100000000000001,-17.7,16
222,3699.0,0.0,-0.5,0.4,-0.5,4.0,9.1,15.299999999999999,24.9,-9.3,16
223,3716.0,0.0,-0.8,0.7000000000000001,-0.7000000000000001,3.7,9.200000000000001,12.6,18.2,-6.9,16
224,3733.0,-0.2,-1.1,0.30000000000000004,-1.0,3.5,8.6,8.4,5.0,-6.5,16
225,3749.0,-0.4,-1.3,-0.2,-1.0,3.5,8.6,8.4,5.0,-6.5,16
226,3766.0,-0.5,-1.5,-0.9,-1.0,3.1,7.300000000000001,-2.0,-16.2,1.5000000000000002,16
227,3783.0,-0.30000000000000004,-1.7000000000000002,-1.7000000000000002,-0.8,3.0,6.7,-5.8,-18.0,5.7,16
228,3799.0,-0.2,-1.7000000000000002,-2.0,-0.8,3.0,6.7,-5.8,-18.0,5.7,16
229,3816.0,0.2,-1.8,-2.1,-0.2,2.5,6.800000000000001,-14.3,-2.9,12.9,16
230,3833.0,0.30000000000000004,-2.5,-1.5,-0.1,2.0,7.1000000000000005,-12.3,1.5000000000000002,11.5,16
231,3849.0,0.4,-2.7,-1.5,-0.1,2.0,7.1000000000000005,-12.3,1.5000000000000002,11.5,16
232,3866.0,0.5,-2.5,-1.4000000000000001,0.1,2.1,7.4,-6.3,0.0,-3.0000000000000004,16
233,3882.0,0.4,-2.2,-1.0,-0.1,2.3000000000000003,7.7,-3.5,1.2000000000000002,-10.4,16
234,3899.0,0.30000000000000004,-2.1,-0.9,-0.1,2.3000000000000003,7.7,-3.5,1.2000000000000002,-10.4,16
235,3916.0,0.2,-1.6,-1.2000000000000002,-0.30000000000000004,3.1,7.2,2.7,-2.3000000000000003,-18.6,16
236,3933.0,0.30000000000000004,-0.8,-1.4000000000000001,-0.1,3.7,7.2,-2.4000000000000004,-6.000000000000001,-20.1,16
237,3950.0,0.4,-0.5,-1.2000000000000002,0.0,4.0,7.800000000000001,-7.0,-7.699999999999999,-19.0,16
238,3966.0,0.7000000000000001,-0.4,-0.4,0.4,4.0,8.3,-6.3,-9.9,-19.200000000000003,16
239,3983.0,0.9,-0.30000000000000004,-0.2,0.5,4.4,8.4,-5.500000000000001,-14.0,-23.900000000000002,16
240,4000.0,1.0,0.2,0.0,0.1,4.800000000000001,9.1,-9.200000000000001,-6.5,-26.9,16
241,4016.0,0.2,0.5,1.3,-0.5,4.7,10.4,-9.9,5.7,-25.400000000000002,16
242,4033.0,-0.1,0.4,2.1,-0.5,4.7,10.4,-9.9,5.7,-25.400000000000002,16
243,4049.0,-0.4,0.30000000000000004,2.9000000000000004,-0.8,4.7,11.5,7.699999999999999,0.0,-23.6,16
244,4066.0,0.2,0.8,2.1,-0.4,5.4,10.3,12.4,-26.0,-26.700000000000003,16
245,4083.0,0.2,1.2000000000000002,1.2000000000000002,-0.4,5.4,10.3,12.4,-26.0,-26.700000000000003,16
246,4099.0,0.2,2.6,0.7000000000000001,-0.6000000000000001,7.300000000000001,10.0,-24.1,-14.4,-15.100000000000001,16
247,4116.0,-1.0,2.6,2.6,-1.9000000000000001,6.5,12.100000000000001,-41.300000000000004,17.1,-0.2,16
248,4134.0,-1.8,1.7000000000000002,4.1000000000000005,-1.9000000000000001,6.5,12.100000000000001,-41.300000000000004,17.1,-0.2,16
249,4150.0,-1.7000000000000002,-0.1,5.7,-2.3000000000000003,3.3000000000000003,14.4,-21.3,-2.6,23.5,16
250,4166.0,-1.1,-1.2000000000000002,4.0,-1.3,2.9000000000000004,12.200000000000001,0.5,-43.6,19.3,16
251,4183.0,-0.5,-1.0,2.2,-1.3,2.9000000000000004,12.200000000000001,0.5,-43.6,19.3,16
252,4199.0,-0.5,-0.7000000000000001,0.1,-0.9,3.5,8.8,-3.6,-53.2,2.4000000000000004,16
253,4216.0,-1.2000000000000002,-0.30000000000000004,-0.1,-1.4000000000000001,3.7,9.0,-11.4,-25.700000000000003,3.8,16
254,4233.0,-1.4000000000000001,-0.30000000000000004,0.2,-1.4000000000000001,3.7,9.0,-11.4,-25.700000000000003,3.8,16
255,4249.0,-1.5,-0.7000000000000001,0.30000000000000004,-1.5,3.2,9.200000000000001,-6.8,11.6,14.0,16
256,4266.0,-1.4000000000000001,-0.9,0.1,-1.5,3.2,9.200000000000001,-6.8,11.6,14.0,16
257,4283.0,-1.0,-0.9,-0.5,-1.0,3.1,7.9,2.3000000000000003,0.9,10.2,16
258,4299.0,-0.8,-0.7000000000000001,-1.7000000000000002,-0.8,3.3000000000000003,7.0,4.2,-6.5,8.3,16
259,4316.0,-0.7000000000000001,-0.6000000000000001,-2.2,-0.8,3.3000000000000003,7.0,4.2,-6.5,8.3,16
260,4333.0,-0.4,-0.4,-3.0,-0.4,3.6,5.9,-0.8,-4.300000000000001,13.100000000000001,16
261,4349.0,-0.30000000000000004,-0.4,-2.9000000000000004,-0.4,3.4000000000000004,6.1000000000000005,-4.9,7.9,18.5,16
262,4366.0,-0.4,-0.6000000000000001,-2.7,-0.4,3.4000000000000004,6.1000000000000005,-4.9,7.9,18.5,16
263,4383.0,-0.4,-0.9,-2.1,-0.5,2.9000000000000004,7.1000000000000005,-10.4,21.3,19.400000000000002,16
264,4399.0,-0.5,-1.0,-1.3,-0.7000000000000001,2.9000000000000004,7.7,-10.2,17.5,13.9,16
265,4417.0,-0.6000000000000001,-0.9,-1.1,-0.7000000000000001,2.9000000000000004,7.7,-10.2,17.5,13.9,16
266,4433.0,-0.6000000000000001,-0.6000000000000001,-1.1,-0.7000000000000001,3.4000000000000004,7.800000000000001,-3.7000000000000006,4.7,5.7,16
267,4449.0,-0.5,-0.1,-1.2000000000000002,-0.6000000000000001,3.7,7.800000000000001,-1.3,5.2,5.9,16
268,4467.0,-0.4,0.0,-1.0,-0.6000000000000001,3.7,7.800000000000001,-1.3,5.2,5.9,16
269,4483.0,-0.1,-0.2,-0.7000000000000001,-0.2,3.6,8.200000000000001,7.2,5.500000000000001,6.7,16
270,4499.0,0.2,-0.2,-0.6000000000000001,0.1,3.7,8.4,14.100000000000001,3.2,2.6,16
271,4516.0,0.5,-0.2,-0.4,0.1,3.7,8.4,14.100000000000001,3.2,2.6,16
272,4533.0,0.9,-0.2,-0.8,0.5,4.3,8.0,23.6,-4.0,-13.3,16
273,4549.0,0.2,0.9,-0.8,0.0,4.9,8.1,18.7,-1.5000000000000002,-13.4,16
274,4566.0,0.1,0.8,-0.5,-0.30000000000000004,4.7,8.9,10.0,5.500000000000001,-5.8,16
275,4583.0,0.0,0.4,0.9,-0.1,4.3,10.200000000000001,3.3000000000000003,6.6000000000000005,2.1999999999999997,16
276,4600.0,0.2,0.0,1.7000000000000002,0.30000000000000004,3.7,10.9,4.9,-4.1000000000000005,1.0,16
277,4616.0,0.8,-0.4,2.1,1.0,4.1000000000000005,10.200000000000001,11.5,-29.500000000000004,-11.1,16
278,4633.0,1.4000000000000001,0.8,0.30000000000000004,1.2000000000000002,5.300000000000001,8.8,5.4,-47.2,-24.8,16
279,4649.0,1.2000000000000002,1.5,-0.1,1.2000000000000002,5.300000000000001,8.8,5.4,-47.2,-24.8,16
280,4666.0,0.2,2.2,0.5,-0.1,6.0,10.600000000000001,-35.199999999999996,3.1,-9.9,16
281,4683.0,-0.2,1.0,3.9000000000000004,-0.30000000000000004,4.5,13.5,-38.300000000000004,41.1,5.300000000000001,16
282,4703.0,-0.1,-0.8,5.800000000000001,-0.30000000000000004,2.9000000000000004,14.700000000000001,-19.8,43.900000000000006,6.6000000000000005,16
283,4716.0,-0.2,-1.8,5.6000000000000005,-0.7000000000000001,1.6,13.8,6.5,15.000000000000002,-6.5,16
284,4733.0,-0.5,-2.2,3.2,-0.5,2.1,11.5,28.3,-17.599999999999998,-19.200000000000003,16
285,4750.0,0.0,-1.2000000000000002,1.5,-0.5,2.1,11.5,28.3,-17.599999999999998,-19.200000000000003,16
286,4766.0,0.1,0.1,-1.1,-0.2,4.3,7.9,14.600000000000001,-21.8,-21.200000000000003,16
287,4783.0,-0.2,0.5,-0.4,-0.5,4.5,8.8,-3.4,2.5,-11.9,16
288,4799.0,-0.5,0.2,0.30000000000000004,-0.5,4.5,8.8,-3.4,2.5,-11.9,16
289,4817.0,-0.7000000000000001,-0.5,0.8,-1.0,3.4000000000000004,9.700000000000001,-8.5,22.5,3.5,16
290,4833.0,-0.8,-0.9,0.4,-1.1,3.0,9.3,-8.3,18.6,3.9,16
291,4849.0,-0.8,-1.1,0.1,-1.3,2.9000000000000004,8.6,-9.3,11.2,2.8,16
292,4866.0,-0.9,-1.0,-0.9,-1.3,2.9000000000000004,7.9,-13.6,2.5,2.4000000000000004,16
293,4883.0,-1.0,-1.0,-1.6,-1.3,2.9000000000000004,7.9,-18.8,-4.1000000000000005,3.6,16
294,4899.0,-0.9,-1.0,-1.8,-1.0,2.8000000000000003,7.1000000000000005,-21.5,-7.2,6.2,16
295,4916.0,-0.5,-1.1,-2.0,-0.7000000000000001,2.6,7.0,-18.6,-5.8,7.9,16
296,4933.0,-0.30000000000000004,-1.2000000000000002,-2.1,-0.7000000000000001,2.6,7.0,-18.6,-5.8,7.9,16
297,4949.0,0.0,-1.1,-2.7,-0.30000000000000004,2.7,6.2,-11.1,3.9,4.2,16
298,4966.0,0.2,-0.9,-2.7,-0.1,2.8000000000000003,6.5,-13.100000000000001,13.100000000000001,1.0999999999999999,16
299,4983.0,0.30000000000000004,-0.8,-2.4000000000000004,-0.1,2.8000000000000003,6.5,-13.100000000000001,13.100000000000001,1.0999999999999999,16
300,4999.0,0.0,-0.7000000000000001,-1.6,-0.5,2.9000000000000004,7.5,-12.200000000000001,19.3,-3.4,16
301,5017.0,-0.1,-0.30000000000000004,-1.5,-0.5,3.3000000000000003,7.5,-10.0,14.500000000000002,-2.7,16
302,5033.0,0.2,0.0,-1.5,-0.5,3.3000000000000003,7.5,-10.0,14.500000000000002,-2.7,16
303,5049.0,0.9,0.30000000000000004,-1.2000000000000002,0.6000000000000001,3.8000000000000003,8.0,-16.700000000000003,6.7,1.3,16
304,5066.0,1.3,0.4,-0.8,0.8,3.8000000000000003,8.4,-18.6,3.9,-0.6000000000000001,16
305,5083.0,1.5,0.4,-0.5,0.8,3.8000000000000003,8.4,-18.6,3.9,-0.6000000000000001,16
306,5099.0,1.3,0.30000000000000004,0.8,0.4,3.8000000000000003,10.0,-11.8,5.300000000000001,-11.2,16
307,5116.0,0.8,0.5,1.1,-0.1,4.3,10.3,-2.3000000000000003,7.400000000000001,-13.700000000000001,16
308,5133.0,0.4,1.2000000000000002,1.4000000000000001,-0.4,4.6000000000000005,10.8,4.3999999999999995,12.700000000000001,-11.1,16
309,5149.0,0.1,1.1,2.0,-0.7000000000000001,4.4,11.200000000000001,8.799999999999999,10.5,-12.6,16
310,5166.0,0.0,1.1,2.1,-0.7000000000000001,4.4,11.200000000000001,8.799999999999999,10.5,-12.6,16
311,5183.0,-0.30000000000000004,1.4000000000000001,2.5,-1.1,4.9,11.700000000000001,12.000000000000002,-3.9,-18.400000000000002,16
312,5199.0,-0.5,1.6,2.6,-1.2000000000000002,5.2,11.4,20.2,-16.400000000000002,-18.2,16
313,5216.0,-0.4,1.8,2.2,-1.2000000000000002,5.2,11.4,27.6,-29.700000000000003,-17.8,16
314,5233.0,0.2,2.2,1.0,-0.2,6.0,9.8,27.0,-33.0,-18.5,16
315,5250.0,0.30000000000000004,2.5,0.7000000000000001,-0.30000000000000004,6.300000000000001,9.9,21.8,-18.6,-16.900000000000002,16
316,5266.0,0.1,2.6,1.1,-0.30000000000000004,6.300000000000001,9.9,21.8,-18.6,-16.900000000000002,16
317,5283.0,-0.9,1.8,2.5,-1.8,5.0,12.0,19.200000000000003,21.200000000000003,0.0,16
318,5299.0,-1.1,0.2,3.2,-1.7000000000000002,3.8000000000000003,12.200000000000001,25.8,13.3,10.0,16
319,5316.0,-0.9,-0.5,3.1,-1.7000000000000002,3.8000000000000003,12.200000000000001,25.8,13.3,10.0,16
320,5333.0,-0.30000000000000004,-1.5,1.8,-0.8,2.4000000000000004,10.0,41.800000000000004,-35.7,12.8,16
321,5349.0,-0.1,-1.8,-0.30000000000000004,-0.4,2.4000000000000004,8.3,41.0,-56.2,11.4,16
322,5366.0,0.1,-1.7000000000000002,-1.2000000000000002,-0.4,2.4000000000000004,8.3,41.0,-56.2,11.4,16
323,5383.0,0.1,-1.5,-1.9000000000000001,0.0,3.0,7.0,20.900000000000002,-47.6,10.4,16
324,5399.0,-0.1,-1.2000000000000002,-1.8,-0.2,3.2,7.1000000000000005,13.3,-24.000000000000004,11.9,16
325,5416.0,-0.30000000000000004,-1.0,-1.7000000000000002,-0.30000000000000004,3.4000000000000004,7.300000000000001,5.6,-1.5000000000000002,13.6,16
326,5434.0,-0.6000000000000001,-0.9,-1.4000000000000001,-0.7000000000000001,3.3000000000000003,7.5,-4.0,13.4,14.100000000000001,16
327,5449.0,-0.9,-1.0,-1.2000000000000002,-0.7000000000000001,3.3000000000000003,7.5,-13.700000000000001,22.6,15.100000000000001,16
328,5466.0,-1.3,-1.2000000000000002,-0.5,-1.4000000000000001,3.0,8.4,-19.1,21.400000000000002,17.200000000000003,16
329,5482.0,-1.2000000000000002,-1.2000000000000002,-0.6000000000000001,-1.2000000000000002,3.0,8.0,-20.3,9.4,17.8,16
330,5499.0,-1.0,-1.1,-1.0,-1.2000000000000002,3.0,8.0,-21.700000000000003,-5.0,16.0,16
331,5517.0,-0.4,-0.9,-1.8,-0.4,3.2,7.0,-23.700000000000003,-12.5,12.5,16
332,5533.0,-0.4,-0.7000000000000001,-2.0,-0.4,3.4000000000000004,6.800000000000001,-20.900000000000002,-12.000000000000002,9.8,16
333,5550.0,-0.5,-0.5,-2.1,-0.4,3.4000000000000004,6.800000000000001,-20.900000000000002,-12.000000000000002,9.8,16
334,5566.0,-0.5,-0.30000000000000004,-2.1,-0.4,3.7,6.7,-11.8,7.9,8.600000000000001,16
335,5583.0,-0.4,-0.1,-1.9000000000000001,-0.5,3.8000000000000003,7.2,-9.9,17.5,6.7,16
336,5599.0,-0.5,-0.1,-1.4000000000000001,-0.5,3.8000000000000003,7.2,-9.9,17.5,6.7,16
337,5616.0,-0.7000000000000001,-0.1,-0.9,-0.8,4.0,8.0,-0.6000000000000001,14.100000000000001,-4.800000000000001,16
338,5633.0,-0.7000000000000001,0.6000000000000001,-0.8,-0.9,4.5,8.1,4.2,7.500000000000001,-9.600000000000001,16
339,5649.0,-0.7000000000000001,0.8,-0.7000000000000001,-0.9,4.5,8.1,4.2,7.500000000000001,-9.600000000000001,16
340,5666.0,-0.9,1.0,-0.4,-1.1,5.1000000000000005,8.5,15.9,2.3000000000000003,-7.9,16
341,5682.0,-0.7000000000000001,1.3,-0.1,-1.1,5.1000000000000005,8.5,23.700000000000003,-2.0,-3.3000000000000003,16
342,5699.0,-0.1,1.0,-0.1,0.1,5.300000000000001,8.8,30.599999999999998,-7.2,-1.8,16
343,5716.0,0.6000000000000001,1.3,-0.1,0.7000000000000001,5.5,8.5,32.9,-23.700000000000003,-7.1000000000000005,16
344,5733.0,1.0,1.3,-0.30000000000000004,0.7000000000000001,5.800000000000001,8.5,32.9,-23.700000000000003,-7.1000000000000005,16
345,5749.0,0.5,1.8,0.2,0.7000000000000001,6.6000000000000005,9.4,24.200000000000003,-21.200000000000003,-14.0,16
346,5766.0,0.8,2.3000000000000003,1.5,0.8,6.5,10.5,24.9,-6.8,-12.200000000000001,16
347,5783.0,0.9,1.8,2.1,0.8,6.5,10.5,24.9,-6.8,-12.200000000000001,16
348,5799.0,0.9,1.8,3.0,1.3,6.7,11.100000000000001,36.2,-11.6,-15.8,16
349,5816.0,1.7000000000000002,2.5,2.0,1.7000000000000002,7.2,10.600000000000001,28.500000000000004,-18.1,-22.7,16
350,5833.0,1.6,2.6,2.1,1.7000000000000002,7.2,10.600000000000001,28.500000000000004,-18.1,-22.7,16
351,5849.0,0.9,1.6,3.1,0.30000000000000004,5.800000000000001,12.3,-0.8,-2.1,-24.6,16
352,5866.0,-0.2,0.1,4.6000000000000005,-0.30000000000000004,4.5,13.100000000000001,5.7,9.700000000000001,-13.4,16
353,5883.0,-0.4,-0.9,4.5,-0.30000000000000004,4.5,13.100000000000001,5.7,9.700000000000001,-13.4,16
354,5899.0,0.5,-2.1,3.0,0.8,2.8000000000000003,10.9,35.3,-6.4,-4.3999999999999995,16
355,5916.0,1.1,-2.0,0.7000000000000001,0.9,2.8000000000000003,8.700000000000001,38.400000000000006,-42.0,-15.299999999999999,16
356,5933.0,0.5,-2.3000000000000003,-0.9,0.9,2.8000000000000003,8.700000000000001,38.400000000000006,-42.0,-15.299999999999999,16
357,5949.0,1.0,-1.4000000000000001,-2.0,1.0,4.0,6.5,2.8,-28.6,-18.2,16
358,5966.0,0.5,-0.4,-1.7000000000000002,0.5,4.6000000000000005,6.9,-10.8,2.3000000000000003,-14.900000000000002,16
359,5982.0,0.1,-0.2,-1.3,0.0,4.9,7.800000000000001,-18.6,33.900000000000006,-7.699999999999999,16
360,5999.0,0.1,0.0,0.1,0.1,4.9,9.0,-20.1,37.0,-0.6000000000000001,16
361,6016.0,0.1,-0.1,0.7000000000000001,0.1,4.9,9.0,-17.7,20.2,3.2,16
362,6033.0,-0.5,-1.1,0.8,-0.8,3.1,9.1,-16.1,-2.6,4.300000000000001,16
363,6049.0,-0.9,-2.1,-0.4,-0.7000000000000001,2.7,7.7,-18.6,-30.299999999999997,0.9,16
364,6066.0,-0.5,-2.1,-1.3,-0.7000000000000001,2.7,7.7,-18.6,-30.299999999999997,0.9,16
365,6082.0,-0.2,-1.7000000000000002,-2.8000000000000003,-0.1,3.0,5.5,-39.2,-68.7,-8.0,16
366,6099.0,0.30000000000000004,-1.1,-3.6,0.9,3.5,5.0,-47.900000000000006,-72.8,-5.8,16
367,6117.0,0.6000000000000001,-0.7000000000000001,-3.8000000000000003,0.9,3.5,5.0,-47.900000000000006,-72.8,-5.8,16
368,6133.0,0.8,0.1,-3.1,1.2000000000000002,4.2,6.0,-47.6,-52.7,-5.6,16
369,6149.0,0.2,-0.4,-2.5,1.1,3.6,6.4,-37.800000000000004,-33.0,1.6,16
370,6166.0,0.4,-0.7000000000000001,-2.1,1.1,3.6,6.4,-37.800000000000004,-33.0,1.6,16
371,6182.0,0.7000000000000001,-1.1,-1.7000000000000002,1.6,2.8000000000000003,7.1000000000000005,-17.8,-3.4,-9.5,16
372,6199.0,0.8,-0.9,-1.5,1.6,3.1,7.4,-12.3,7.2,-22.000000000000004,16
373,6216.0,0.8,-0.6000000000000001,-1.3,1.6,3.1,7.4,-12.3,7.2,-22.000000000000004,16
374,6233.0,0.2,-0.1,-1.1,0.6000000000000001,3.9000000000000004,8.0,-7.2,25.5,-35.3,16
375,6249.0,-0.5,0.30000000000000004,-0.1,0.0,4.2,8.9,-6.9,23.8,-33.7,16
376,6266.0,-0.7000000000000001,0.4,0.30000000000000004,0.0,4.3,9.600000000000001,-6.1000000000000005,12.000000000000002,-27.7,16
377,6282.0,-0.4,0.5,1.3,0.2,4.4,10.200000000000001,-1.5000000000000002,2.8,-24.8,16
378,6299.0,-0.30000000000000004,0.6000000000000001,1.4000000000000001,0.1,4.4,10.3,4.6000000000000005,-9.4,-26.6,16
379,6316.0,-0.4,0.6000000000000001,1.5,0.0,4.5,10.4,5.9,-19.1,-30.799999999999997,16
380,6333.0,-0.6000000000000001,0.8,1.9000000000000001,0.1,5.0,11.100000000000001,5.4,-14.900000000000002,-31.099999999999998,16
381,6349.0,-0.2,1.2000000000000002,2.5,0.1,5.0,11.100000000000001,5.4,-14.900000000000002,-31.099999999999998,16
382,6371.0,0.1,2.1,2.2,0.5,6.1000000000000005,11.100000000000001,18.1,-8.600000000000001,-37.0,16
383,6383.0,0.2,2.6,1.7000000000000002,0.6000000000000001,7.1000000000000005,10.5,15.100000000000001,-5.2,-39.6,16
384,6399.0,0.30000000000000004,3.3000000000000003,1.6,0.6000000000000001,7.1000000000000005,10.5,15.100000000000001,-5.2,-39.6,16
385,6416.0,0.0,3.8000000000000003,2.6,-0.4,7.300000000000001,12.600000000000001,-13.0,47.2,-25.900000000000002,16
386,6433.0,-1.5,1.5,5.5,-1.4000000000000001,5.0,14.8,-7.400000000000001,62.50000000000001,-5.6,16
387,6449.0,-1.4000000000000001,0.1,6.300000000000001,-1.4000000000000001,5.0,14.8,-7.400000000000001,62.50000000000001,-5.6,16
388,6466.0,-0.4,-1.7000000000000002,4.4,-0.2,2.3000000000000003,12.100000000000001,44.2,-1.8,3.6,16
389,6482.0,0.1,-1.9000000000000001,0.9,0.0,2.6,9.3,48.6,-43.300000000000004,-6.9,16
390,6499.0,0.0,-1.5,-0.4,0.0,2.6,9.3,48.6,-43.300000000000004,-6.9,16
391,6516.0,-0.5,-0.9,-2.2,-0.4,3.7,6.5,21.400000000000002,-62.4,-4.800000000000001,16
392,6533.0,-0.9,-0.9,-1.8,-0.6000000000000001,3.5,7.2,9.0,-37.0,5.9,16
393,6549.0,-1.1,-1.2000000000000002,-1.2000000000000002,-0.7000000000000001,3.0,7.9,6.8,-16.3,17.200000000000003,16
394,6566.0,-1.2000000000000002,-1.8,-0.7000000000000001,-0.7000000000000001,2.6,8.0,4.1000000000000005,-12.700000000000001,21.1,16
395,6583.0,-1.1,-2.0,-0.7000000000000001,-0.5,2.5,8.0,-3.9,-21.900000000000002,18.3,16
396,6599.0,-1.0,-2.0,-0.8,-0.5,2.6,7.7,-13.0,-37.6,12.3,16
397,6616.0,-1.1,-1.7000000000000002,-1.4000000000000001,-0.30000000000000004,2.8000000000000003,7.1000000000000005,-20.7,-50.800000000000004,9.9,16
398,6633.0,-0.8,-1.5,-2.3000000000000003,0.1,2.8000000000000003,6.300000000000001,-27.2,-57.9,9.600000000000001,16
399,6649.0,-0.7000000000000001,-1.4000000000000001,-2.7,0.2,2.5,5.7,-34.50000000000001,-60.300000000000004,7.8,16
400,6666.0,-0.9,-1.7000000000000002,-3.2,0.8,2.7,5.4,-38.2,-52.800000000000004,8.3,16
401,6682.0,0.0,-1.2000000000000002,-3.4000000000000004,0.8,2.7,5.4,-38.2,-52.800000000000004,8.3,16
402,6699.0,0.2,-0.8,-2.9000000000000004,1.1,3.0,6.4,-35.1,-19.0,-8.4,16
403,6716.0,-0.6000000000000001,-0.8,-1.8,0.8,3.2,7.0,-19.1,0.9,-10.8,16
404,6733.0,-0.6000000000000001,-0.4,-1.7000000000000002,0.8,3.2,7.0,-19.1,0.9,-10.8,16
405,6749.0,-0.9,0.1,-1.6,0.4,4.0,7.300000000000001,6.5,35.199999999999996,-8.4,16
406,6766.0,-0.8,0.4,-1.1,0.30000000000000004,4.3,7.800000000000001,8.5,40.8,-6.4,16
407,6783.0,-0.9,0.5,-0.7000000000000001,0.30000000000000004,4.3,7.800000000000001,8.5,40.8,-6.4,16
408,6799.0,-0.8,0.6000000000000001,0.0,0.2,4.6000000000000005,9.0,9.0,34.400000000000006,-6.3,16
409,6816.0,-0.6000000000000001,0.6000000000000001,0.8,0.1,4.6000000000000005,9.700000000000001,11.000000000000002,24.200000000000003,-8.200000000000001,16
410,6833.0,-0.7000000000000001,0.8,1.1,0.2,5.0,9.600000000000001,17.200000000000003,12.700000000000001,-10.5,16
411,6849.0,-0.5,1.2000000000000002,0.6000000000000001,0.0,5.4,9.200000000000001,19.0,6.5,-12.200000000000001,16
412,6866.0,-0.8,1.4000000000000001,0.4,-0.1,5.7,9.1,16.1,3.9,-4.800000000000001,16
413,6883.0,-0.1,2.0,0.2,0.8,6.300000000000001,9.1,6.8,4.3999999999999995,-0.1,16
414,6899.0,-0.30000000000000004,1.5,0.8,0.5,5.5,9.9,-3.5,10.5,1.6,16
415,6916.0,0.0,1.2000000000000002,1.5,0.5,5.5,9.9,-3.5,10.5,1.6,16
416,6933.0,0.9,1.1,2.6,1.7000000000000002,5.5,11.100000000000001,3.3000000000000003,6.7,-18.8,16
417,6949.0,1.2000000000000002,2.2,1.4000000000000001,1.5,6.9,9.700000000000001,9.3,4.0,-39.1,16
418,6966.0,0.9,3.1,0.5,1.5,6.9,9.700000000000001,9.3,4.0,-39.1,16
419,6983.0,-0.1,3.6,0.0,-0.1,7.6000000000000005,9.200000000000001,-26.200000000000003,38.5,-30.9,16
420,6999.0,-0.8,2.4000000000000004,1.6,-0.6000000000000001,5.9,11.3,-44.6,56.5,-6.1000000000000005,16
421,7016.0,-0.8,1.0,3.4000000000000004,-0.6000000000000001,5.9,11.3,-44.6,56.5,-6.1000000000000005,16
422,7033.0,0.2,-1.8,4.5,0.30000000000000004,1.9000000000000001,13.3,-13.8,44.1,13.5,16
423,7049.0,0.7000000000000001,-2.1,3.3000000000000003,0.7000000000000001,2.1,11.600000000000001,10.9,-7.400000000000001,8.200000000000001,16
424,7066.0,0.8,-1.6,1.5,0.7000000000000001,2.1,11.600000000000001,10.9,-7.400000000000001,8.200000000000001,16
425,7082.0,0.7000000000000001,-1.1,-1.4000000000000001,0.8,3.2,7.2,1.5000000000000002,-73.60000000000001,6.7,16
426,7099.0,0.30000000000000004,-0.5,-2.1,0.7000000000000001,3.5,6.9,-15.000000000000002,-67.5,14.200000000000001,16
427,7117.0,0.2,-0.4,-1.9000000000000001,0.9,3.5,7.4,-26.700000000000003,-45.5,26.1,16
428,7133.0,0.5,-0.6000000000000001,-1.1,1.2000000000000002,2.9000000000000004,8.3,-32.2,-18.2,36.0,16
429,7149.0,0.5,-1.0,-0.4,1.3,2.1,9.200000000000001,-32.2,-18.2,36.0,16
430,7166.0,0.5,-1.9000000000000001,0.4,1.2000000000000002,1.5,9.5,-24.3,15.7,38.5,16
431,7183.0,0.30000000000000004,-2.3000000000000003,0.2,1.0,1.3,9.1,-16.3,14.900000000000002,33.400000000000006,16
432,7200.0,0.2,-2.3000000000000003,-0.2,1.0,1.3,9.1,-16.3,14.900000000000002,33.400000000000006,16
433,7216.0,0.2,-1.9000000000000001,-1.6,1.0,1.8,7.0,-10.4,-8.4,20.0,16
434,7233.0,0.1,-1.4000000000000001,-2.6,1.0,2.1,6.4,-12.000000000000002,-16.3,15.6,16
435,7249.0,0.1,-1.2000000000000002,-2.8000000000000003,1.0,2.1,6.4,-12.000000000000002,-16.3,15.6,16
436,7266.0,0.0,-1.0,-3.4000000000000004,1.1,2.4000000000000004,5.7,-12.8,-13.0,9.4,16
437,7282.0,0.2,-0.8,-3.3000000000000003,1.1,2.4000000000000004,5.7,-16.700000000000003,-5.1,5.1,16
438,7299.0,0.30000000000000004,-0.8,-3.0,1.3,2.4000000000000004,5.9,-16.700000000000003,-5.1,5.1,16
439,7316.0,0.0,-0.5,-2.4000000000000004,0.9,2.8000000000000003,7.4,-19.6,15.7,-5.4,16
440,7333.0,-0.1,0.0,-0.8,0.8,3.2,8.200000000000001,-11.6,22.900000000000002,-5.6,16
441,7350.0,-0.1,0.30000000000000004,-0.8,0.8,3.2,8.200000000000001,-11.6,22.900000000000002,-5.6,16
442,7366.0,-0.1,0.7000000000000001,-0.6000000000000001,0.8,3.9000000000000004,8.6,-0.8,28.3,0.6000000000000001,16
443,7382.0,0.2,0.8,-0.2,0.9,4.0,9.0,-4.3999999999999995,21.900000000000002,3.4,16
444,7399.0,0.2,0.9,0.2,1.0,4.1000000000000005,9.700000000000001,-7.300000000000001,15.9,5.0,16
445,7416.0,0.5,1.0,1.2000000000000002,1.2000000000000002,4.0,10.700000000000001,-4.6000000000000005,10.600000000000001,5.7,16
446,7432.0,0.6000000000000001,0.8,2.0,1.2000000000000002,4.0,11.100000000000001,1.0,6.9,3.6,16
447,7449.0,0.6000000000000001,1.0,1.9000000000000001,1.1,4.3,11.100000000000001,0.1,8.4,0.5,16
448,7466.0,0.30000000000000004,1.2000000000000002,2.6,0.9,4.3,12.100000000000001,-6.4,11.8,0.0,16
449,7482.0,0.2,1.2000000000000002,3.2,0.9,4.3,12.100000000000001,-5.7,9.9,-2.1999999999999997,16
450,7499.0,0.5,1.0,4.0,1.1,4.2,13.0,4.1000000000000005,1.0,-7.699999999999999,16
451,7516.0,0.5,1.4000000000000001,2.9000000000000004,1.0,4.800000000000001,11.600000000000001,12.100000000000001,-16.1,-13.700000000000001,16
452,7533.0,0.30000000000000004,1.8,1.9000000000000001,1.0,4.800000000000001,11.600000000000001,12.100000000000001,-16.1,-13.700000000000001,16
453,7549.0,0.2,2.2,0.6000000000000001,0.9,5.6000000000000005,9.700000000000001,-8.4,-30.100000000000005,-5.6,16
454,7566.0,0.1,2.4000000000000004,0.7000000000000001,0.8,5.4,10.100000000000001,-22.6,-14.200000000000001,5.6,16
455,7583.0,-0.1,2.1,1.1,0.8,5.4,10.100000000000001,-22.6,-14.200000000000001,5.6,16
456,7599.0,-0.30000000000000004,0.5,3.3000000000000003,0.5,2.7,13.200000000000001,-21.400000000000002,28.400000000000002,34.300000000000004,16
457,7616.0,-0.1,-1.5,4.3,0.6000000000000001,1.2000000000000002,13.600000000000001,-0.2,21.1,32.2,16
458,7633.0,-0.1,-2.1,4.0,0.6000000000000001,1.2000000000000002,13.600000000000001,-0.2,21.1,32.2,16
459,7649.0,-0.30000000000000004,-1.8,1.2000000000000002,0.2,1.7000000000000002,9.600000000000001,35.199999999999996,-26.0,6.6000000000000005,16
460,7666.0,-1.0,-0.9,-1.4000000000000001,-0.30000000000000004,2.4000000000000004,7.7,30.299999999999997,-34.0,4.3999999999999995,16
461,7682.0,-1.3,-0.7000000000000001,-2.0,-0.30000000000000004,2.4000000000000004,7.7,30.299999999999997,-34.0,4.3999999999999995,16
462,7699.0,-1.6,-0.9,-1.8,-0.7000000000000001,2.3000000000000003,7.6000000000000005,10.5,-6.3,21.3,16
463,7716.0,-1.6,-1.1,-1.2000000000000002,-0.6000000000000001,2.1,8.0,8.9,4.1000000000000005,28.3,16
464,7733.0,-1.6,-1.2000000000000002,-1.3,-0.5,2.1,7.6000000000000005,7.6,-1.7,31.099999999999998,16
465,7749.0,-1.3,-1.0,-1.9000000000000001,-0.2,2.4000000000000004,7.1000000000000005,2.4000000000000004,-12.8,31.6,16
466,7766.0,-1.2000000000000002,-0.8,-2.1,-0.2,2.4000000000000004,7.1000000000000005,2.4000000000000004,-12.8,31.6,16
467,7782.0,-0.9,-0.6000000000000001,-2.6,0.5,2.7,6.6000000000000005,-8.799999999999999,-26.500000000000004,34.50000000000001,16
468,7799.0,-0.6000000000000001,-0.5,-2.9000000000000004,0.7000000000000001,2.7,6.1000000000000005,-10.8,-29.400000000000002,35.0,16
469,7816.0,-0.5,-0.4,-3.1,0.7000000000000001,2.7,6.1000000000000005,-10.8,-29.400000000000002,35.0,16
470,7833.0,-0.2,-0.4,-2.8000000000000003,1.3,2.7,6.5,-5.8,-5.9,28.900000000000002,16
471,7849.0,-0.2,-0.4,-2.1,1.3,2.7,7.1000000000000005,-2.4000000000000004,2.1999999999999997,22.900000000000002,16
472,7866.0,-0.2,-0.30000000000000004,-1.9000000000000001,1.3,2.7,7.1000000000000005,-2.4000000000000004,2.1999999999999997,22.900000000000002,16
473,7882.0,-0.30000000000000004,0.0,-1.6,1.0,3.2,7.800000000000001,6.6000000000000005,20.6,9.3,16
474,7899.0,-0.6000000000000001,0.30000000000000004,-0.8,0.7000000000000001,3.5,8.3,9.600000000000001,26.700000000000003,5.1,16
475,7917.0,-0.7000000000000001,0.5,-0.6000000000000001,0.7000000000000001,3.5,8.3,9.600000000000001,26.700000000000003,5.1,16
476,7933.0,-0.9,0.8,-0.1,0.30000000000000004,4.0,9.3,8.4,27.0,3.1,16
477,7949.0,-0.9,0.8,0.9,0.30000000000000004,4.0,10.100000000000001,7.8,18.6,5.2,16
478,7966.0,-0.7000000000000001,0.8,1.2000000000000002,0.30000000000000004,4.0,10.100000000000001,7.8,18.6,5.2,16
479,7982.0,-0.1,0.7000000000000001,0.6000000000000001,1.2000000000000002,4.0,9.3,14.100000000000001,-10.4,4.5,16
480,7999.0,0.2,0.8,0.1,1.6,4.2,8.9,8.3,-20.5,1.2000000000000002,16
481,8016.0,0.6000000000000001,0.9,-0.1,1.9000000000000001,4.4,9.0,2.1,-20.900000000000002,-0.2,16
482,8033.0,0.7000000000000001,1.1,0.4,2.1,4.3,9.700000000000001,0.9,-11.8,1.3,16
483,8049.0,0.9,0.6000000000000001,1.5,2.1,4.3,9.700000000000001,0.9,-11.8,1.3,16
484,8066.0,1.0,0.30000000000000004,2.1,2.3000000000000003,3.6,11.100000000000001,15.8,-1.0999999999999999,-4.1000000000000005,16
485,8082.0,1.0,0.30000000000000004,1.8,2.4000000000000004,4.1000000000000005,10.3,22.3,-13.0,-16.3,16
486,8099.0,1.0,0.9,0.9,2.4000000000000004,4.1000000000000005,10.3,22.3,-13.0,-16.3,16
487,8116.0,0.6000000000000001,2.3000000000000003,-0.4,1.9000000000000001,6.300000000000001,8.6,-2.0,-27.6,-21.700000000000003,16
488,8132.0,0.5,2.9000000000000004,0.2,2.1,6.1000000000000005,9.700000000000001,-19.500000000000004,-12.9,-5.1,16
489,8149.0,0.7000000000000001,2.3000000000000003,1.2000000000000002,2.1,6.1000000000000005,9.700000000000001,-19.500000000000004,-12.9,-5.1,16
490,8166.0,1.2000000000000002,0.8,2.4000000000000004,2.8000000000000003,3.5,11.600000000000001,-16.900000000000002,9.8,17.1,16
491,8182.0,1.4000000000000001,-0.9,2.7,3.0,2.2,11.600000000000001,-5.1,4.2,12.8,16
492,8199.0,1.5,-1.6,2.3000000000000003,3.0,2.2,11.600000000000001,-5.1,4.2,12.8,16
493,8216.0,1.5,-1.7000000000000002,0.30000000000000004,2.9000000000000004,2.0,8.6,11.6,-19.1,-13.3,16
494,8233.0,1.2000000000000002,-0.9,-1.5,2.7,2.7,7.4,4.300000000000001,-19.0,-22.2,16
495,8249.0,1.0,-0.4,-1.8,2.7,2.7,7.4,4.300000000000001,-19.0,-22.2,16
496,8266.0,0.4,0.2,-1.5,1.9000000000000001,3.5,7.800000000000001,-16.0,15.5,-15.399999999999999,16
497,8283.0,0.30000000000000004,0.1,-1.2000000000000002,1.7000000000000002,3.0,8.4,-21.3,31.2,-7.500000000000001,16
498,8299.0,0.2,-0.5,-0.4,1.6,2.6,8.9,-24.8,36.7,-3.5,16
499,8316.0,0.2,-0.8,-0.1,1.5,2.3000000000000003,9.0,-28.200000000000003,32.300000000000004,-3.1,16
500,8333.0,0.2,-1.0,-0.1,1.5,2.3000000000000003,9.0,-28.200000000000003,32.300000000000004,-3.1,16
501,8349.0,0.30000000000000004,-1.4000000000000001,0.1,1.3,1.6,9.1,-33.6,22.4,-7.6,16
502,8366.0,0.1,-1.5,-0.2,1.2000000000000002,1.5,9.0,-29.200000000000003,26.0,-10.0,16
503,8383.0,0.2,-1.4000000000000001,-0.30000000000000004,1.2000000000000002,1.5,9.0,-29.200000000000003,26.0,-10.0,16
504,8399.0,0.0,-1.4000000000000001,-1.2000000000000002,0.8,1.5,7.7,-11.700000000000001,31.2,-15.5,16
505,8416.0,-0.1,-1.0,-1.8,0.7000000000000001,1.8,7.4,-8.4,34.900000000000006,-16.3,16
506,8433.0,-0.1,-0.9,-1.9000000000000001,0.7000000000000001,1.8,7.4,-8.4,34.900000000000006,-16.3,16
507,8449.0,-0.1,-1.0,-1.4000000000000001,0.6000000000000001,1.6,7.9,-1.8,24.7,-17.5,16
508,8466.0,0.30000000000000004,-1.2000000000000002,-1.6,0.8,1.7000000000000002,7.5,2.3000000000000003,7.8,-24.400000000000002,16
509,8483.0,0.2,-0.8,-2.1,0.8,1.7000000000000002,7.5,2.3000000000000003,7.8,-24.400000000000002,16
510,8499.0,-0.2,0.0,-2.5,0.30000000000000004,2.8000000000000003,7.0,-1.0999999999999999,-3.0000000000000004,-31.099999999999998,16
511,8516.0,-0.2,0.1,-1.7000000000000002,0.30000000000000004,2.9000000000000004,7.7,-3.6,0.9,-26.0,16
512,8533.0,-0.1,0.2,-1.2000000000000002,0.30000000000000004,2.9000000000000004,7.7,-3.6,0.9,-26.0,16
513,8549.0,0.0,0.6000000000000001,-0.2,0.5,3.5,9.200000000000001,5.4,12.9,-12.3,16
514,8566.0,0.1,0.8,0.1,0.5,3.5,9.200000000000001,5.4,12.9,-12.3,16
515,8583.0,0.30000000000000004,0.7000000000000001,0.4,0.8,3.5,10.100000000000001,6.6000000000000005,11.3,-4.7,16
516,8599.0,0.5,0.7000000000000001,1.6,0.7000000000000001,3.4000000000000004,11.3,2.1999999999999997,7.500000000000001,-7.300000000000001,16
517,8616.0,0.30000000000000004,0.6000000000000001,2.3000000000000003,0.2,3.1,12.9,0.4,-1.8,-10.700000000000001,16
518,8633.0,-0.2,0.0,4.800000000000001,0.9,3.3000000000000003,12.4,-3.0000000000000004,-36.1,-17.1,16
519,8649.0,0.2,1.0,2.0,0.5,4.1000000000000005,11.200000000000001,-11.1,-47.900000000000006,-23.8,16
520,8666.0,0.0,1.5,1.8,0.5,4.1000000000000005,11.200000000000001,-11.1,-47.900000000000006,-23.8,16
521,8683.0,0.2,2.4000000000000004,1.3,0.9,5.300000000000001,11.0,-13.6,-26.8,-26.3,16
522,8699.0,0.1,2.6,2.3000000000000003,0.5,5.300000000000001,11.8,-8.4,-6.6000000000000005,-23.3,16
523,8720.0,-0.8,2.1,3.1,-0.2,4.9,12.5,1.6,18.3,-15.000000000000002,16
524,8732.0,-1.0,1.6,3.5,-0.5,4.0,13.100000000000001,15.2,37.300000000000004,-0.9,16
525,8749.0,-0.9,0.30000000000000004,3.7,-0.4,3.0,13.0,28.700000000000003,36.4,11.2,16
526,8766.0,-0.8,-0.30000000000000004,3.3000000000000003,-0.4,3.0,13.0,28.700000000000003,36.4,11.2,16
527,8782.0,-0.7000000000000001,-1.0,1.2000000000000002,-0.30000000000000004,2.0,9.600000000000001,36.6,-21.0,17.200000000000003,16
528,8799.0,-0.7000000000000001,-1.1,-1.3,-0.2,2.1,7.7,24.1,-45.0,18.7,16
529,8816.0,-0.8,-1.1,-2.2,-0.2,2.1,7.7,24.1,-45.0,18.7,16
530,8833.0,-1.0,-1.0,-2.5,-0.2,2.2,6.9,-10.9,-27.2,27.400000000000002,16
531,8849.0,-1.1,-1.0,-2.0,-0.2,2.0,7.5,-19.700000000000003,-4.0,32.800000000000004,16
532,8866.0,-1.0,-1.1,-1.5,0.0,1.8,8.200000000000001,-22.4,12.6,35.4,16
533,8883.0,-0.7000000000000001,-1.2000000000000002,-0.9,0.1,1.8,8.5,-19.700000000000003,18.7,32.0,16
534,8899.0,-0.6000000000000001,-1.1,-0.8,0.1,1.8,8.5,-15.7,15.299999999999999,26.6,16
535,8916.0,-0.7000000000000001,-0.9,-0.9,0.1,2.1,8.200000000000001,-11.9,3.3000000000000003,21.1,16
536,8933.0,-0.5,-0.6000000000000001,-1.7000000000000002,0.30000000000000004,2.3000000000000003,7.5,-9.8,-9.8,16.700000000000003,16
537,8949.0,-0.4,-0.4,-2.0,0.30000000000000004,2.3000000000000003,7.5,-9.8,-9.8,16.700000000000003,16
538,8966.0,-0.2,-0.2,-2.2,0.7000000000000001,2.6,7.1000000000000005,-8.0,-16.3,10.1,16
539,8983.0,-0.30000000000000004,-0.1,-2.1,0.6000000000000001,2.6,7.4,-3.7000000000000006,-8.700000000000001,7.1000000000000005,16
540,8999.0,-0.30000000000000004,-0.1,-1.8,0.6000000000000001,2.6,7.4,-3.7000000000000006,-8.700000000000001,7.1000000000000005,16
541,9016.0,-0.5,-0.30000000000000004,-1.4000000000000001,0.30000000000000004,2.5,7.9,10.700000000000001,7.500000000000001,-2.0,16
542,9033.0,-0.8,-0.2,-1.1,0.1,2.7,8.200000000000001,16.0,11.6,-6.2,16
543,9049.0,-0.8,-0.1,-1.0,0.1,2.7,8.200000000000001,16.0,11.6,-6.2,16
544,9066.0,-0.9,0.2,-1.2000000000000002,-0.1,3.3000000000000003,8.0,18.7,3.9,-11.4,16
545,9082.0,-1.0,0.6000000000000001,-1.1,-0.2,3.6,8.200000000000001,16.0,-0.5,-10.1,16
546,9099.0,-1.0,0.7000000000000001,-0.7000000000000001,-0.2,3.6,8.200000000000001,16.0,-0.5,-10.1,16
547,9116.0,-0.5,0.7000000000000001,0.0,0.5,3.8000000000000003,9.1,16.900000000000002,-15.2,-6.8,16
548,9133.0,-0.1,1.0,-0.4,0.8,4.2,8.6,16.8,-20.2,-9.9,16
549,9149.0,0.0,1.3,-0.6000000000000001,1.1,4.7,8.700000000000001,8.5,-17.599999999999998,-9.700000000000001,16
550,9166.0,0.4,1.6,0.2,1.4000000000000001,4.6000000000000005,9.8,1.5000000000000002,-9.5,-5.500000000000001,16
551,9183.0,0.7000000000000001,1.1,1.8,1.6,4.2,11.100000000000001,1.5000000000000002,-9.5,-5.500000000000001,16
552,9199.0,0.8,0.9,2.3000000000000003,2.0,4.0,11.600000000000001,8.600000000000001,-2.7,-6.4,16
553,9216.0,1.3,1.3,2.3000000000000003,2.2,4.9,11.0,10.700000000000001,-12.100000000000001,-15.5,16
554,9232.0,1.2000000000000002,2.0,1.6,2.2,4.9,11.0,10.700000000000001,-12.100000000000001,-15.5,16
555,9249.0,0.6000000000000001,2.8000000000000003,1.6,1.6,5.800000000000001,11.5,-26.8,-7.300000000000001,-6.2,16
556,9266.0,0.7000000000000001,1.8,3.6,1.8,4.4,13.3,-33.900000000000006,11.1,10.2,16
557,9282.0,0.8,0.7000000000000001,4.6000000000000005,1.8,4.4,13.3,-33.900000000000006,11.1,10.2,16
558,9299.0,1.3,-1.8,5.7,2.4000000000000004,0.7000000000000001,14.3,15.5,15.9,9.0,16
559,9315.0,1.5,-2.6,2.8000000000000003,2.4000000000000004,0.7000000000000001,11.100000000000001,44.1,-12.8,-13.5,16
560,9333.0,1.3,-2.2,0.6000000000000001,2.4000000000000004,0.7000000000000001,11.100000000000001,44.1,-12.8,-13.5,16
561,9349.0,0.6000000000000001,-0.7000000000000001,-2.8000000000000003,1.5,3.2,5.800000000000001,23.400000000000002,-56.900000000000006,-40.2,16
562,9366.0,-0.1,0.5,-3.5,1.1,4.0,5.7,-3.4,-51.900000000000006,-31.5,16
563,9382.0,-0.4,0.7000000000000001,-3.3000000000000003,1.1,4.0,5.7,-3.4,-51.900000000000006,-31.5,16
564,9399.0,-0.1,0.4,-2.3000000000000003,1.4000000000000001,3.4000000000000004,7.2,-32.6,-1.6,8.700000000000001,16
565,9416.0,0.1,0.0,-1.8,1.9000000000000001,2.6,8.0,-37.5,18.0,21.700000000000003,16
566,9433.0,0.4,-0.5,-1.3,1.9000000000000001,2.6,8.0,-37.5,18.0,21.700000000000003,16
567,9449.0,0.8,-1.4000000000000001,-0.5,2.0,1.5,8.8,-46.2,24.6,21.8,16
568,9466.0,0.7000000000000001,-1.4000000000000001,-0.4,1.8,1.4000000000000001,8.700000000000001,-48.7,16.3,17.599999999999998,16
569,9483.0,0.5,-1.3,-0.7000000000000001,1.7000000000000002,1.4000000000000001,8.5,-50.1,6.000000000000001,14.700000000000001,16
570,9499.0,0.4,-1.2000000000000002,-1.1,1.6,1.2000000000000002,8.0,-50.1,-3.2,12.100000000000001,16
571,9516.0,0.30000000000000004,-1.2000000000000002,-1.5,1.6,1.2000000000000002,8.0,-50.1,-3.2,12.100000000000001,16
572,9533.0,0.4,-1.3,-2.0,1.8,0.8,7.5,-49.7,-10.600000000000001,4.7,16
573,9549.0,0.6000000000000001,-1.5,-1.7000000000000002,1.9000000000000001,0.5,7.7,-41.2,-7.8,-3.6,16
574,9566.0,0.6000000000000001,-1.6,-1.6,1.9000000000000001,0.5,7.7,-41.2,-7.8,-3.6,16
575,9582.0,0.7000000000000001,-1.3,-2.0,2.0,0.7000000000000001,7.4,-19.6,-0.30000000000000004,-28.500000000000004,16
576,9599.0,0.6000000000000001,-0.9,-1.9000000000000001,1.9000000000000001,1.1,7.6000000000000005,-13.100000000000001,3.5,-38.800000000000004,16
577,9616.0,0.6000000000000001,-0.7000000000000001,-1.6,1.9000000000000001,1.1,7.6000000000000005,-13.100000000000001,3.5,-38.800000000000004,16
578,9632.0,0.5,-0.2,-1.0,1.6,1.9000000000000001,8.4,0.7,8.0,-47.900000000000006,16
579,9649.0,0.2,0.4,-1.1,1.5,2.4000000000000004,8.3,2.3000000000000003,5.7,-45.4,16
580,9666.0,0.30000000000000004,0.7000000000000001,-0.9,1.5,2.4000000000000004,8.3,2.3000000000000003,5.7,-45.4,16
581,9683.0,0.4,1.0,0.0,1.6,3.0,9.8,-10.0,-6.2,-32.1,16
582,9699.0,0.4,1.2000000000000002,1.2000000000000002,1.6,3.0,10.9,-15.100000000000001,-7.400000000000001,-23.2,16
583,9716.0,0.4,1.1,2.0,1.6,2.7,12.3,-16.2,-7.300000000000001,-13.700000000000001,16
584,9733.0,0.4,0.6000000000000001,3.5,1.7000000000000002,2.3000000000000003,13.200000000000001,-9.700000000000001,-8.700000000000001,-9.0,16
585,9749.0,0.5,0.4,3.9000000000000004,1.7000000000000002,2.3000000000000003,13.200000000000001,-9.700000000000001,-8.700000000000001,-9.0,16
586,9765.0,0.7000000000000001,0.4,3.9000000000000004,2.1,2.6,12.8,15.5,-24.8,-20.1,16
587,9782.0,0.6000000000000001,1.4000000000000001,2.4000000000000004,1.9000000000000001,3.8000000000000003,11.4,24.000000000000004,-31.4,-30.5,16
588,9799.0,0.4,2.2,1.5,1.5,5.0,10.600000000000001,23.2,-22.2,-33.7,16
589,9816.0,-0.30000000000000004,3.4000000000000004,1.2000000000000002,0.5,5.800000000000001,11.0,18.1,15.2,-25.5,16
590,9833.0,-1.8,3.5,2.6,-0.8,5.2,12.700000000000001,13.700000000000001,67.80000000000001,-2.6,16
591,9849.0,-2.3000000000000003,2.6,3.8000000000000003,-0.8,5.2,12.700000000000001,13.700000000000001,67.80000000000001,-2.6,16
592,9866.0,-2.0,0.0,5.7,-1.2000000000000002,1.5,14.700000000000001,50.300000000000004,98.2,42.5,16
593,9882.0,-1.5,-1.6,3.2,-0.8,0.9,11.9,71.0,71.8,42.400000000000006,16
594,9902.0,-1.0,-1.7000000000000002,1.2000000000000002,-0.8,0.9,11.9,71.0,71.8,42.400000000000006,16
595,9916.0,-1.1,-1.7000000000000002,-1.8,-0.8,1.2000000000000002,7.2,31.5,12.9,29.600000000000005,16
596,9933.0,-1.4000000000000001,-1.3,-2.5,-1.0,1.5,7.1000000000000005,-4.5,0.4,31.6,16
597,9949.0,-1.5,-1.2000000000000002,-2.1,-1.0,1.5,7.1000000000000005,-4.5,0.4,31.6,16
598,9966.0,-1.8,-1.1,-2.0,-1.4000000000000001,1.5,7.4,-42.0,10.8,49.5,16
599,9982.0,-1.8,-1.2000000000000002,-2.2,-1.3,1.2000000000000002,7.4,-54.4,18.400000000000002,59.1,16
600,9999.0,-1.6,-1.2000000000000002,-2.0,-0.9,1.0,8.0,-64.7,22.000000000000004,64.9,16
601,10016.0,-1.0,-1.3,-0.8,-0.5,0.7000000000000001,8.9,-62.7,13.4,63.800000000000004,16
602,10033.0,-0.8,-1.4000000000000001,-0.5,-0.1,0.5,8.9,-62.7,13.4,63.800000000000004,16
603,10049.0,-0.30000000000000004,-1.2000000000000002,-0.9,0.4,0.8,8.3,-33.6,-12.5,43.7,16
604,10066.0,0.1,-0.7000000000000001,-1.5,0.6000000000000001,1.0,8.0,-20.7,-19.700000000000003,31.2,16
605,10083.0,0.2,-0.6000000000000001,-1.7000000000000002,0.6000000000000001,1.0,8.0,-20.7,-19.700000000000003,31.2,16
606,10099.0,0.0,-0.4,-2.1,0.5,1.3,7.4,0.30000000000000004,-20.1,13.700000000000001,16
607,10116.0,-0.2,-0.2,-2.2,0.6000000000000001,1.6,7.2,6.1000000000000005,-13.0,8.9,16
608,10133.0,0.1,0.1,-2.4000000000000004,0.6000000000000001,1.6,7.2,6.1000000000000005,-13.0,8.9,16
609,10149.0,-0.4,-0.1,-2.6,0.1,1.6,7.300000000000001,-2.1,-0.9,-1.6,16
610,10166.0,-0.7000000000000001,-0.30000000000000004,-2.0,0.0,1.3,7.6000000000000005,-7.300000000000001,5.9,-5.500000000000001,16
611,10182.0,-0.7000000000000001,-0.30000000000000004,-1.7000000000000002,0.0,1.3,7.6000000000000005,-7.300000000000001,5.9,-5.500000000000001,16
612,10199.0,-0.30000000000000004,0.0,-0.5,0.4,1.7000000000000002,9.3,-14.500000000000002,6.4,-18.7,16
613,10216.0,0.1,0.1,0.30000000000000004,0.8,1.6,10.0,-9.8,0.7,-25.1,16
614,10233.0,0.30000000000000004,0.0,0.8,0.8,1.6,10.0,-9.8,0.7,-25.1,16
615,10249.0,0.5,0.30000000000000004,1.5,1.1,2.1,11.100000000000001,15.399999999999999,-0.8,-44.4,16
616,10266.0,0.4,0.8,1.7000000000000002,1.0,2.5,11.200000000000001,29.500000000000004,-2.4000000000000004,-44.1,16
617,10285.0,0.5,0.9,1.7000000000000002,1.1,2.5,11.100000000000001,36.5,-4.1000000000000005,-38.900000000000006,16
618,10299.0,0.7000000000000001,0.4,1.6,1.3,2.2,11.3,35.9,4.300000000000001,-36.1,16
619,10316.0,1.0,0.1,2.4000000000000004,1.5,2.1,11.9,35.7,7.9,-39.00000000000001,16
620,10333.0,1.0,0.2,2.6,1.4000000000000001,2.7,11.8,37.0,-8.799999999999999,-45.0,16
621,10349.0,0.7000000000000001,1.0,1.5,1.2000000000000002,3.6,10.600000000000001,25.400000000000002,-22.6,-45.3,16
622,10366.0,0.6000000000000001,1.6,0.9,1.2000000000000002,3.6,10.600000000000001,-0.5,-24.8,-38.1,16
623,10382.0,0.6000000000000001,1.8,1.4000000000000001,1.2000000000000002,3.5,11.700000000000001,-27.1,-22.8,-27.6,16
624,10399.0,0.5,0.5,3.0,1.2000000000000002,2.1,12.8,-32.300000000000004,-14.600000000000001,-17.9,16
625,10416.0,0.6000000000000001,-0.5,3.5,1.2000000000000002,2.1,12.8,-32.300000000000004,-14.600000000000001,-17.9,16
626,10432.0,1.0,-2.0,3.5,1.8,-0.2,12.4,12.8,-1.0,-29.500000000000004,16
627,10449.0,0.5,-2.3000000000000003,1.4000000000000001,0.9,0.0,10.4,32.5,-16.3,-49.9,16
628,10466.0,-0.1,-1.9000000000000001,0.1,0.9,0.0,10.4,32.5,-16.3,-49.9,16
629,10482.0,-0.30000000000000004,-0.2,-2.4000000000000004,0.30000000000000004,2.8000000000000003,6.4,27.0,-39.699999999999996,-50.300000000000004,16
630,10499.0,-0.6000000000000001,1.2000000000000002,-3.4000000000000004,0.2,3.7,6.1000000000000005,2.6,-23.5,-37.4,16
631,10516.0,-0.6000000000000001,1.5,-3.3000000000000003,0.2,3.7,6.1000000000000005,2.6,-23.5,-37.4,16
632,10533.0,-0.30000000000000004,1.1,-1.7000000000000002,0.7000000000000001,3.0,8.4,-41.0,5.9,-1.0999999999999999,16
633,10549.0,0.1,0.0,-0.1,1.0,1.9000000000000001,9.600000000000001,-43.7,10.600000000000001,8.0,16
634,10566.0,0.2,-0.5,0.30000000000000004,1.2000000000000002,1.3,10.3,-38.900000000000006,10.5,9.700000000000001,16
635,10582.0,0.7000000000000001,-0.8,1.0,1.5,1.1,10.5,-29.400000000000002,3.0000000000000004,4.800000000000001,16
636,10599.0,0.6000000000000001,-0.7000000000000001,0.5,1.4000000000000001,1.2000000000000002,10.0,-24.400000000000002,-20.3,-4.0,16
637,10616.0,0.30000000000000004,-0.4,0.1,0.9,1.6,9.3,-25.900000000000002,-51.5,-8.4,16
638,10633.0,-0.1,0.0,-0.9,0.9,1.7000000000000002,8.4,-28.6,-76.0,-7.500000000000001,16
639,10649.0,-0.30000000000000004,0.0,-1.3,0.9,1.5,8.200000000000001,-34.7,-99.10000000000001,-4.7,16
640,10666.0,-0.5,-0.2,-1.1,1.4000000000000001,1.1,8.8,-44.3,-123.70000000000002,-3.5,16
641,10682.0,-0.2,-0.5,-0.6000000000000001,1.7000000000000002,0.8,8.3,-53.8,-140.10000000000002,-7.2,16
642,10699.0,-0.5,-0.6000000000000001,-1.6,1.7000000000000002,0.8,8.3,-53.8,-140.10000000000002,-7.2,16
643,10716.0,-0.30000000000000004,0.0,-1.3,2.6,1.3,8.200000000000001,-45.2,-101.9,-14.0,16
644,10733.0,0.1,0.4,-1.0,2.9000000000000004,1.4000000000000001,8.200000000000001,-24.8,-73.50000000000001,-18.2,16
645,10749.0,-0.1,0.30000000000000004,-1.0,2.9000000000000004,1.4000000000000001,8.200000000000001,-24.8,-73.50000000000001,-18.2,16
646,10766.0,-0.4,0.0,-0.7000000000000001,3.1,1.1,8.700000000000001,25.400000000000002,-20.6,-20.8,16
647,10782.0,0.7000000000000001,-0.1,0.0,4.1000000000000005,1.0,9.200000000000001,54.7,7.2,-25.0,16
648,10799.0,1.2000000000000002,-0.5,0.2,4.1000000000000005,1.0,9.200000000000001,54.7,7.2,-25.0,16
649,10816.0,1.3,-1.2000000000000002,0.30000000000000004,4.1000000000000005,0.8,9.1,104.3,42.300000000000004,-49.9,16
650,10833.0,0.9,-0.4,-0.2,3.6,2.0,8.9,109.4,52.2,-55.2,16
651,10849.0,0.7000000000000001,0.30000000000000004,-0.2,3.2,3.2,8.8,100.60000000000001,56.900000000000006,-50.0,16
652,10866.0,0.7000000000000001,1.0,0.1,3.1,3.8000000000000003,9.600000000000001,77.9,52.800000000000004,-41.300000000000004,16
653,10882.0,0.7000000000000001,1.1,0.7000000000000001,2.7,4.2,10.5,53.400000000000006,40.9,-36.1,16
654,10899.0,0.30000000000000004,1.5,1.7000000000000002,2.3000000000000003,4.6000000000000005,10.9,32.4,20.0,-28.0,16
655,10916.0,0.30000000000000004,2.1,1.6,2.8000000000000003,5.5,10.4,14.800000000000002,4.1000000000000005,-8.799999999999999,16
656,10933.0,0.8,2.6,1.2000000000000002,4.0,5.800000000000001,10.5,-4.3999999999999995,10.600000000000001,9.9,16
657,10949.0,2.2,2.7,1.9000000000000001,4.3,4.5,11.600000000000001,-13.200000000000001,42.1,21.3,16
658,10966.0,1.7000000000000002,0.1,3.2,3.5,2.7,12.3,-1.6,70.39999999999999,17.9,16
659,10983.0,1.3,-0.7000000000000001,3.1,3.5,2.7,12.3,-1.6,70.39999999999999,17.9,16
660,10999.0,0.0,-1.4000000000000001,1.6,0.9,1.8,9.8,48.50000000000001,71.8,-9.1,16
661,11016.0,-1.4000000000000001,-0.9,-0.7000000000000001,-0.30000000000000004,2.7,7.800000000000001,57.6,57.6,-14.0,16
662,11033.0,-2.0,-0.30000000000000004,-2.1,-0.30000000000000004,2.7,7.800000000000001,57.6,57.6,-14.0,16
663,11049.0,-3.3000000000000003,0.2,-3.0,-2.2,3.9000000000000004,6.2,17.9,25.1,5.9,16
664,11066.0,-3.5,0.7000000000000001,-2.8000000000000003,-2.2,4.3,6.300000000000001,-6.000000000000001,25.1,29.000000000000004,16
665,11083.0,-3.1,1.0,-2.6,-2.2,4.3,6.300000000000001,-6.000000000000001,25.1,29.000000000000004,16
666,11099.0,-2.1,1.1,-1.5,-1.2000000000000002,4.1000000000000005,8.5,-41.800000000000004,53.8,65.5,16
667,11116.0,-2.7,-0.30000000000000004,0.6000000000000001,-1.8,2.7,10.0,-39.300000000000004,57.9,77.9,16
668,11133.0,-2.6,-1.0,1.1,-1.3,2.0,9.9,-24.3,39.6,91.10000000000001,16
669,11149.0,-1.5,-1.2000000000000002,-0.1,-0.4,1.6,8.8,-14.600000000000001,7.300000000000001,89.6,16
670,11166.0,-1.1,-1.5,-0.6000000000000001,-0.4,1.6,8.8,-14.600000000000001,7.300000000000001,89.6,16
671,11185.0,-0.30000000000000004,-1.4000000000000001,-1.6,1.2000000000000002,1.8,7.300000000000001,-10.1,-47.400000000000006,72.30000000000001,16
672,11199.0,0.5,-0.9,-1.8,2.0,1.8,7.9,-8.0,-60.1,59.400000000000006,16
673,11216.0,0.8,-1.1,-1.0,2.6,0.9,10.0,5.7,-60.1,43.900000000000006,16
674,11232.0,1.2000000000000002,-2.6,2.0,3.1,-0.4,11.600000000000001,36.4,-59.00000000000001,16.2,16
675,11249.0,1.8,-3.7,2.1,3.5,-0.5,10.8,66.7,-67.2,-29.1,16
676,11266.0,1.6,-3.4000000000000004,1.5,3.5,-0.5,10.8,66.7,-67.2,-29.1,16
677,11282.0,1.0,-0.4,-0.2,2.6,4.0,8.200000000000001,79.39999999999999,-99.7,-78.80000000000001,16
678,11299.0,-1.1,2.0,-0.6000000000000001,0.9,5.6000000000000005,7.7,76.7,-85.5,-78.80000000000001,16
679,11316.0,-2.0,1.6,-1.4000000000000001,0.9,5.6000000000000005,7.7,76.7,-85.5,-78.80000000000001,16
680,11333.0,-2.1,0.9,-2.2,0.6000000000000001,5.300000000000001,6.0,72.0,-35.7,-42.800000000000004,16
681,11349.0,-1.6,1.5,-2.8000000000000003,1.0,6.1000000000000005,5.300000000000001,65.3,-16.6,-31.5,16
682,11366.0,-1.4000000000000001,2.0,-3.3000000000000003,1.0,6.1000000000000005,5.300000000000001,65.3,-16.6,-31.5,16
683,11382.0,-0.9,2.6,-3.2,1.8,7.4,5.6000000000000005,16.2,5.300000000000001,-10.1,16
684,11399.0,0.1,2.5,-0.4,2.7,7.2,8.200000000000001,-6.5,10.600000000000001,-1.3,16
685,11416.0,0.6000000000000001,2.5,0.9,2.7,7.2,8.200000000000001,-6.5,10.600000000000001,-1.3,16
686,11432.0,0.7000000000000001,2.1,1.7000000000000002,2.9000000000000004,6.7,10.100000000000001,-6.8,17.0,-5.4,16
687,11449.0,0.5,2.0,2.0,2.9000000000000004,6.7,10.100000000000001,-6.8,17.0,-5.4,16
688,11466.0,-0.30000000000000004,2.8000000000000003,1.5,1.5,8.0,9.4,3.5,19.3,-15.5,16
689,11482.0,-0.7000000000000001,3.7,1.2000000000000002,1.6,8.4,9.700000000000001,-7.8,13.4,0.5,16
690,11499.0,-0.1,2.8000000000000003,2.0,1.6,8.4,9.700000000000001,-15.7,5.7,22.4,16
691,11516.0,0.7000000000000001,1.2000000000000002,2.9000000000000004,3.4000000000000004,4.800000000000001,11.700000000000001,-6.8,6.4,34.400000000000006,16
692,11533.0,1.5,-0.6000000000000001,2.5,3.9000000000000004,3.8000000000000003,10.4,13.0,10.4,34.300000000000004,16
693,11549.0,1.6,-1.1,1.6,3.9000000000000004,3.8000000000000003,10.4,13.0,10.4,34.300000000000004,16
694,11566.0,1.0,-1.5,0.4,3.2,3.2,8.0,13.4,-16.5,19.1,16
695,11582.0,0.8,-1.2000000000000002,-1.1,3.3000000000000003,3.7,6.9,3.3000000000000003,-25.1,16.1,16
696,11599.0,0.9,-0.8,-1.7000000000000002,3.3000000000000003,3.7,6.9,3.3000000000000003,-25.1,16.1,16
697,11616.0,1.0,0.0,-2.2,3.4000000000000004,4.7,6.2,-34.2,-14.100000000000001,19.400000000000002,16
698,11633.0,0.30000000000000004,0.30000000000000004,-1.6,2.8000000000000003,4.6000000000000005,7.0,-49.0,5.8,29.600000000000005,16
699,11649.0,0.0,0.1,-1.1,2.8000000000000003,4.6000000000000005,7.0,-49.0,5.8,29.600000000000005,16
700,11666.0,-0.30000000000000004,-1.0,0.1,2.3000000000000003,2.6,8.9,-46.6,42.300000000000004,57.699999999999996,16
701,11682.0,-0.5,-2.1,0.30000000000000004,2.1,1.7000000000000002,8.700000000000001,-34.900000000000006,42.300000000000004,60.7,16
702,11699.0,-0.6000000000000001,-2.4000000000000004,-0.1,2.1,1.7000000000000002,8.700000000000001,-34.900000000000006,42.300000000000004,60.7,16
703,11716.0,-0.7000000000000001,-2.4000000000000004,-0.9,1.8,1.4000000000000001,7.5,-27.0,15.000000000000002,49.0,16
704,11732.0,-0.8,-2.3000000000000003,-1.2000000000000002,1.7000000000000002,1.3,7.0,-27.0,0.0,40.5,16
705,11749.0,-0.9,-2.2,-1.8,1.7000000000000002,1.4000000000000001,6.5,-27.400000000000002,-11.1,31.900000000000002,16
706,11766.0,-0.9,-1.8,-2.3000000000000003,1.8,1.7000000000000002,6.4,-29.500000000000004,-13.9,23.5,16
707,11782.0,-0.9,-1.5,-2.3000000000000003,1.8,1.7000000000000002,6.4,-29.500000000000004,-13.9,23.5,16
708,11799.0,-0.8,-1.5,-1.8,2.0,1.6,7.0,-27.1,-7.300000000000001,6.8,16
709,11816.0,-0.7000000000000001,-1.4000000000000001,-1.7000000000000002,2.0,1.9000000000000001,7.0,-19.8,0.1,-2.7,16
710,11833.0,-0.7000000000000001,-1.0,-1.7000000000000002,2.0,1.9000000000000001,7.0,-19.8,0.1,-2.7,16
711,11849.0,-0.5,-0.4,-1.9000000000000001,2.2,2.9000000000000004,7.0,-10.0,21.5,-10.5,16
712,11866.0,-0.4,0.1,-1.5,2.1,3.2,7.4,-8.4,30.100000000000005,-9.3,16
713,11882.0,-0.4,0.30000000000000004,-1.3,2.1,3.2,7.4,-8.4,30.100000000000005,-9.3,16
714,11899.0,0.0,0.5,-0.8,2.6,3.6,8.200000000000001,-9.9,31.4,-2.0,16
715,11917.0,0.4,0.8,-0.2,2.8000000000000003,3.9000000000000004,8.700000000000001,-15.6,27.5,0.2,16
716,11933.0,0.6000000000000001,1.0,0.1,2.8000000000000003,3.9000000000000004,8.700000000000001,-15.6,27.5,0.2,16
717,11949.0,0.9,1.3,0.8,3.1,4.2,10.100000000000001,-23.700000000000003,26.1,7.699999999999999,16
718,11965.0,0.8,1.2000000000000002,1.9000000000000001,2.9000000000000004,3.9000000000000004,11.0,-20.1,32.4,12.000000000000002,16
719,11982.0,0.7000000000000001,0.9,2.2,2.9000000000000004,3.9000000000000004,11.0,-20.1,32.4,12.000000000000002,16
720,11999.0,0.1,0.4,2.4000000000000004,1.9000000000000001,3.1,11.100000000000001,0.0,34.7,9.9,16
721,12016.0,-0.4,0.1,1.2000000000000002,1.4000000000000001,3.0,10.0,12.5,34.400000000000006,4.7,16
722,12033.0,-0.7000000000000001,0.4,0.2,0.9,4.0,8.6,19.400000000000002,49.7,1.8,16
723,12049.0,-1.4000000000000001,2.0,-0.6000000000000001,-0.1,5.2,8.8,9.5,86.5,13.200000000000001,16
724,12066.0,-1.8,2.5,-0.1,-0.1,5.2,8.8,9.5,86.5,13.200000000000001,16
725,12082.0,-2.8000000000000003,2.3000000000000003,2.6,-2.1,4.3,13.4,-16.8,140.9,75.0,16
726,12099.0,-2.9000000000000004,0.0,5.7,-1.9000000000000001,2.1,15.200000000000001,-11.3,120.3,103.4,16
727,12116.0,-2.3000000000000003,-1.4000000000000001,6.0,-1.9000000000000001,2.1,15.200000000000001,-11.3,120.3,103.4,16
728,12133.0,0.1,-3.0,4.2,1.6,0.0,12.0,12.6,-8.200000000000001,85.7,16
729,12149.0,1.9000000000000001,-1.6,0.4,2.6,1.7000000000000002,9.3,4.6000000000000005,-44.2,48.2,16
730,12166.0,1.9000000000000001,-0.5,-0.7000000000000001,2.6,1.7000000000000002,9.3,4.6000000000000005,-44.2,48.2,16
731,12182.0,1.0,0.7000000000000001,-0.7000000000000001,1.6,3.3000000000000003,8.9,-23.5,-26.700000000000003,22.3,16
732,12199.0,0.30000000000000004,0.5,0.0,1.4000000000000001,3.1,9.5,-21.0,1.9,32.1,16
733,12217.0,0.5,0.4,0.2,1.4000000000000001,3.1,9.5,-21.0,1.9,32.1,16
734,12233.0,0.9,0.1,0.2,1.8,2.5,9.5,-6.7,43.6,44.8,16
735,12249.0,0.7000000000000001,-0.2,-0.2,1.4000000000000001,2.3000000000000003,9.1,-2.6,45.2,44.2,16
736,12266.0,0.4,-0.30000000000000004,-0.5,1.4000000000000001,2.3000000000000003,9.1,-2.6,45.2,44.2,16
737,12282.0,0.1,-0.4,-1.2000000000000002,0.8,2.2,7.800000000000001,5.500000000000001,23.3,44.3,16
738,12299.0,0.0,-0.1,-2.6,0.8,2.4000000000000004,6.6000000000000005,7.1000000000000005,9.3,45.800000000000004,16
739,12316.0,0.1,0.1,-3.3000000000000003,1.0,2.7,5.7,-2.4000000000000004,-1.7,48.1,16
740,12333.0,0.5,0.30000000000000004,-3.5,1.3,2.7,6.300000000000001,-16.0,-8.600000000000001,50.300000000000004,16
741,12349.0,0.5,0.2,-2.8000000000000003,1.3,2.7,6.300000000000001,-16.0,-8.600000000000001,50.300000000000004,16
742,12366.0,0.1,-0.30000000000000004,-1.5,1.1,1.8,8.5,-13.6,-4.1000000000000005,50.4,16
743,12382.0,0.1,-0.7000000000000001,-0.1,1.0,1.4000000000000001,9.700000000000001,-1.4,-0.7,48.400000000000006,16
744,12399.0,-0.1,-1.0,0.7000000000000001,1.0,1.4000000000000001,9.700000000000001,-1.4,-0.7,48.400000000000006,16
745,12416.0,-1.1,-1.8,1.1,-0.30000000000000004,0.7000000000000001,10.4,26.500000000000004,-25.6,38.400000000000006,16
746,12433.0,-1.9000000000000001,-1.3,1.0,-0.9,1.1,10.200000000000001,33.1,-39.9,46.6,16
747,12449.0,-2.4000000000000004,-1.2000000000000002,0.8,-0.9,1.1,10.200000000000001,33.1,-39.9,46.6,16
748,12466.0,2.8000000000000003,-1.0,0.1,3.3000000000000003,2.3000000000000003,8.9,37.1,-62.1,25.6,16
749,12482.0,1.4000000000000001,0.0,-0.5,3.5,3.6,8.4,37.1,-62.1,25.6,16
750,12499.0,1.7000000000000002,1.3,-0.4,3.5,3.6,8.4,9.700000000000001,-70.6,-11.700000000000001,16
751,12516.0,0.30000000000000004,1.1,1.1,2.4000000000000004,3.8000000000000003,10.8,-13.200000000000001,-56.7,-26.700000000000003,16
752,12533.0,0.4,1.4000000000000001,2.4000000000000004,2.7,4.0,11.5,-0.1,-19.1,-14.0,16
753,12549.0,0.6000000000000001,1.4000000000000001,2.4000000000000004,2.7,4.0,11.5,-0.1,-19.1,-14.0,16
754,12566.0,1.1,0.5,2.4000000000000004,3.3000000000000003,3.4000000000000004,11.5,16.5,26.500000000000004,-10.4,16
755,12582.0,1.3,0.8,2.3000000000000003,3.3000000000000003,3.4000000000000004,11.5,21.200000000000003,21.700000000000003,-24.7,16
756,12599.0,1.6,1.9000000000000001,2.1,3.3000000000000003,4.800000000000001,10.8,22.8,0.4,-38.400000000000006,16
757,12616.0,1.2000000000000002,2.2,1.3,3.0,5.1000000000000005,10.4,21.200000000000003,-12.3,-43.2,16
758,12633.0,0.9,2.2,1.2000000000000002,3.0,5.1000000000000005,10.4,30.200000000000003,-4.5,-42.300000000000004,16
759,12649.0,0.30000000000000004,1.1,1.0,2.2,3.7,10.0,41.4,6.7,-36.9,16
760,12666.0,0.1,-0.30000000000000004,0.6000000000000001,2.1,2.6,9.5,48.7,9.9,-32.800000000000004,16
761,12682.0,0.30000000000000004,-1.1,0.30000000000000004,2.1,2.6,9.5,48.7,9.9,-32.800000000000004,16
762,12699.0,0.2,-1.8,-0.2,2.0,1.8,8.3,46.2,-11.700000000000001,-47.1,16
763,12716.0,0.1,-1.5,-1.5,2.0,2.4000000000000004,7.2,37.800000000000004,-26.500000000000004,-52.6,16
764,12733.0,0.1,-1.1,-2.0,2.0,2.4000000000000004,7.2,37.800000000000004,-26.500000000000004,-52.6,16
765,12749.0,0.1,-0.2,-3.2,1.8,3.9000000000000004,5.5,-4.6000000000000005,-28.1,-46.0,16
766,12766.0,-0.4,0.5,-2.8000000000000003,1.6,4.4,6.2,-35.3,-15.299999999999999,-32.1,16
767,12783.0,-0.2,0.8,-2.4000000000000004,1.6,4.4,6.2,-35.3,-15.299999999999999,-32.1,16
768,12799.0,-0.30000000000000004,0.5,-1.4000000000000001,1.5,3.6,8.200000000000001,-81.9,-9.1,0.30000000000000004,16
769,12816.0,-0.4,-0.5,-0.2,1.6,2.5,8.9,-94.3,-15.8,9.4,16
770,12833.0,-0.30000000000000004,-1.0,0.1,1.6,2.5,8.9,-94.3,-15.8,9.4,16
771,12850.0,-0.1,-1.4000000000000001,-0.1,2.0,1.2000000000000002,9.200000000000001,-100.50000000000001,-37.900000000000006,6.1000000000000005,16
772,12866.0,-0.1,-1.5,0.1,2.1,0.8,9.5,-100.50000000000001,-37.900000000000006,6.1000000000000005,16
773,12882.0,-0.2,-1.7000000000000002,0.5,2.3000000000000003,0.2,9.8,-69.4,-66.1,-10.1,16
774,12899.0,0.1,-2.3000000000000003,0.6000000000000001,2.8000000000000003,-0.30000000000000004,9.5,-49.7,-93.5,-28.8,16
775,12916.0,0.2,-2.4000000000000004,0.30000000000000004,2.7,0.1,8.700000000000001,-32.7,-115.10000000000002,-50.9,16
776,12933.0,-0.30000000000000004,-1.6,-0.8,2.7,0.8,7.6000000000000005,-13.4,-118.69999999999999,-65.4,16
777,12949.0,-0.8,-0.9,-2.1,2.7,1.2000000000000002,6.6000000000000005,1.8,-102.2,-68.3,16
778,12966.0,-0.7000000000000001,-0.8,-2.3000000000000003,2.7,1.2000000000000002,6.6000000000000005,1.8,-102.2,-68.3,16
779,12982.0,-0.30000000000000004,-0.7000000000000001,-2.8000000000000003,3.4000000000000004,1.8,5.6000000000000005,23.2,-53.1,-69.9,16
780,12999.0,-0.2,0.0,-3.3000000000000003,3.4000000000000004,2.6,5.300000000000001,23.1,-30.200000000000003,-69.60000000000001,16
781,13016.0,-0.30000000000000004,0.5,-3.3000000000000003,3.4000000000000004,2.6,5.300000000000001,23.1,-30.200000000000003,-69.60000000000001,16
782,13033.0,0.6000000000000001,1.8,-2.5,4.0,4.3,6.6000000000000005,-3.9,6.1000000000000005,-56.1,16
783,13049.0,0.30000000000000004,2.1,-1.0,3.8000000000000003,4.800000000000001,7.9,-19.1,15.6,-43.7,16
784,13067.0,0.2,2.4000000000000004,-0.2,3.8000000000000003,4.800000000000001,7.9,-19.1,15.6,-43.7,16
785,13082.0,0.0,2.6,1.0,3.3000000000000003,5.2,9.9,-31.5,23.700000000000003,-7.0,16
786,13099.0,-0.2,2.6,1.3,3.2,5.0,10.100000000000001,-35.8,19.0,12.9,16
787,13116.0,-0.2,2.4000000000000004,1.4000000000000001,3.2,5.0,10.100000000000001,-35.8,19.0,12.9,16
788,13133.0,0.2,1.9000000000000001,2.0,3.7,4.2,10.700000000000001,-40.5,0.6000000000000001,37.300000000000004,16
789,13149.0,0.5,2.2,1.9000000000000001,4.1000000000000005,4.3,10.8,-43.900000000000006,-15.7,38.5,16
790,13166.0,0.7000000000000001,2.5,2.1,4.4,4.800000000000001,11.3,-46.2,-22.6,38.300000000000004,16
791,13183.0,0.9,3.0,3.0,4.4,4.7,12.5,-43.1,-0.9,47.0,16
792,13199.0,0.8,2.8000000000000003,4.0,4.0,3.2,14.600000000000001,-29.700000000000003,26.8,61.900000000000006,16
793,13216.0,0.2,0.4,6.4,4.0,0.5,15.4,1.3,36.5,73.4,16
794,13233.0,0.8,-2.3000000000000003,5.300000000000001,4.3,-1.0,13.5,31.2,13.8,60.599999999999994,16
795,13249.0,0.8,-2.8000000000000003,3.7,4.3,-1.0,13.5,31.2,13.8,60.599999999999994,16
796,13266.0,0.8,-2.8000000000000003,0.0,4.2,-0.7000000000000001,8.0,38.6,-35.6,10.8,16
797,13282.0,0.2,-1.9000000000000001,-1.8,3.7,0.1,7.1000000000000005,30.7,-22.7,-3.5,16
798,13299.0,-0.2,-1.4000000000000001,-1.9000000000000001,3.7,0.1,7.1000000000000005,30.7,-22.7,-3.5,16
799,13316.0,-1.3,-0.7000000000000001,-1.5,1.9000000000000001,1.4000000000000001,7.6000000000000005,32.800000000000004,45.800000000000004,4.3999999999999995,16
800,13333.0,-2.3000000000000003,-0.6000000000000001,-1.2000000000000002,1.0,1.3,7.9,35.199999999999996,68.60000000000001,17.7,16
801,13349.0,-2.5,-0.8,-1.0,1.0,1.3,7.9,35.199999999999996,68.60000000000001,17.7,16
802,13366.0,-2.8000000000000003,-1.1,-0.7000000000000001,0.2,1.0,8.200000000000001,26.200000000000003,59.9,32.6,16
803,13382.0,-2.6,-1.1,-1.3,0.4,1.0,7.5,19.500000000000004,35.4,33.300000000000004,16
804,13399.0,-2.3000000000000003,-1.0,-2.0,0.4,1.0,7.5,19.500000000000004,35.4,33.300000000000004,16
805,13416.0,-2.0,-0.5,-3.4000000000000004,0.9,1.7000000000000002,5.4,0.2,-6.8,29.500000000000004,16
806,13432.0,-1.8,-0.30000000000000004,-3.7,1.2000000000000002,1.8,5.4,-8.799999999999999,-10.2,33.400000000000006,16
807,13449.0,-1.7000000000000002,-0.30000000000000004,-3.5,1.3,1.6,5.7,-11.000000000000002,-7.300000000000001,37.5,16
808,13466.0,-1.5,-0.5,-3.0,1.6,1.4000000000000001,6.2,-7.0,-2.1999999999999997,38.0,16
809,13482.0,-1.2000000000000002,-0.5,-2.3000000000000003,1.9000000000000001,1.4000000000000001,6.800000000000001,-3.2,3.6,34.6,16
810,13499.0,-1.0,-0.4,-1.9000000000000001,2.1,1.6,7.5,-2.1,10.0,29.000000000000004,16
811,13516.0,-0.8,-0.2,-0.8,2.2,1.6,8.6,-0.9,15.7,22.5,16
812,13533.0,-0.8,-0.2,-0.1,2.2,1.6,8.6,-0.9,15.7,22.5,16
813,13549.0,-0.6000000000000001,-0.30000000000000004,1.1,2.4000000000000004,1.5,10.3,14.700000000000001,17.1,6.000000000000001,16
814,13570.0,-0.4,-0.30000000000000004,1.2000000000000002,2.4000000000000004,1.7000000000000002,10.0,28.3,14.3,-5.7,16
815,13583.0,-0.4,-0.1,0.9,2.4000000000000004,1.7000000000000002,10.0,28.3,14.3,-5.7,16
816,13599.0,-0.2,0.6000000000000001,0.30000000000000004,2.6,3.1,8.9,45.1,14.3,-22.2,16
817,13616.0,-0.1,1.5,-0.4,2.6,3.9000000000000004,8.6,35.199999999999996,16.900000000000002,-20.7,16
818,13633.0,-0.1,1.9000000000000001,-0.2,2.6,3.9000000000000004,8.6,35.199999999999996,16.900000000000002,-20.7,16
819,13649.0,0.30000000000000004,1.8,1.6,3.2,3.9000000000000004,11.200000000000001,8.799999999999999,22.6,4.1000000000000005,16
820,13666.0,1.2000000000000002,1.0,3.0,4.0,3.4000000000000004,12.3,5.300000000000001,13.9,5.2,16
821,13682.0,1.7000000000000002,0.9,3.6,4.0,3.4000000000000004,12.3,5.300000000000001,13.9,5.2,16
822,13699.0,2.2,1.8,3.7,4.6000000000000005,4.9,12.4,8.1,-9.8,-27.900000000000002,16
823,13716.0,1.9000000000000001,3.5,2.9000000000000004,4.4,6.1000000000000005,12.0,3.7000000000000006,-7.6,-31.0,16
824,13733.0,1.7000000000000002,3.8000000000000003,3.0,4.0,5.800000000000001,12.600000000000001,-4.300000000000001,5.0,-13.100000000000001,16
825,13749.0,1.3,2.1,4.2,3.9000000000000004,3.8000000000000003,13.700000000000001,-1.0,17.200000000000003,8.1,16
826,13766.0,1.4000000000000001,0.6000000000000001,4.800000000000001,4.1000000000000005,1.3,14.200000000000001,-1.0,17.200000000000003,8.1,16
827,13782.0,1.7000000000000002,-2.1,4.800000000000001,4.2,-0.1,13.0,40.7,8.200000000000001,2.8,16
828,13799.0,1.5,-2.9000000000000004,2.2,3.8000000000000003,0.2,10.3,56.800000000000004,-20.2,-27.1,16
829,13816.0,1.2000000000000002,-2.4000000000000004,0.4,3.8000000000000003,0.2,10.3,56.800000000000004,-20.2,-27.1,16
830,13833.0,0.7000000000000001,-0.6000000000000001,-2.5,3.1,3.1,5.800000000000001,46.300000000000004,-47.1,-54.1,16
831,13849.0,0.30000000000000004,0.5,-3.7,3.0,3.9000000000000004,5.2,27.6,-29.700000000000003,-40.5,16
832,13866.0,0.30000000000000004,0.8,-3.6,3.0,3.9000000000000004,5.2,27.6,-29.700000000000003,-40.5,16
833,13882.0,0.5,0.6000000000000001,-2.9000000000000004,3.3000000000000003,3.6,6.300000000000001,-5.500000000000001,10.8,-2.7,16
834,13899.0,0.6000000000000001,-0.1,-2.1,3.2,3.0,6.9,-17.400000000000002,21.8,8.600000000000001,16
835,13916.0,0.5,-0.5,-1.7000000000000002,3.2,3.0,6.9,-17.400000000000002,21.8,8.600000000000001,16
836,13933.0,0.1,-1.4000000000000001,-0.2,2.6,1.5,8.9,-27.1,22.6,17.8,16
837,13949.0,0.0,-2.0,-0.1,2.5,1.0,8.6,-20.7,10.8,14.0,16
838,13966.0,-0.1,-2.0,-0.6000000000000001,2.5,1.0,8.6,-20.7,10.8,14.0,16
839,13982.0,-0.30000000000000004,-1.8,-1.5,2.1,1.2000000000000002,7.2,-12.000000000000002,-10.5,-1.4,16
840,13999.0,-0.7000000000000001,-1.3,-2.2,1.8,1.7000000000000002,6.7,-5.7,-14.100000000000001,-6.4,16
841,14016.0,-0.9,-1.0,-2.5,1.8,2.1,6.2,0.6000000000000001,-15.100000000000001,-7.0,16
842,14033.0,-0.8,-0.5,-3.0,2.0,2.5,5.7,2.8,-15.9,-5.8,16
843,14049.0,-0.6000000000000001,-0.4,-3.2,2.0,2.5,5.7,2.8,-15.9,-5.8,16
844,14066.0,-0.5,-0.1,-3.0,2.4000000000000004,2.9000000000000004,6.300000000000001,-6.2,-17.1,-1.7,16
845,14082.0,-0.1,0.1,-2.0,2.7,2.9000000000000004,7.1000000000000005,-7.300000000000001,-18.5,2.7,16
846,14099.0,0.0,0.1,-1.5,2.7,2.9000000000000004,7.1000000000000005,-7.300000000000001,-18.5,2.7,16
847,14116.0,0.4,-0.1,-0.7000000000000001,3.5,2.7,8.3,-0.1,-21.6,8.700000000000001,16
848,14132.0,0.9,-0.2,-0.30000000000000004,3.9000000000000004,2.7,8.6,4.7,-24.9,8.5,16
849,14149.0,1.1,-0.2,-0.1,3.9000000000000004,2.7,8.6,4.7,-24.9,8.5,16
850,14166.0,1.5,-0.4,0.4,4.7,2.5,9.1,13.0,-36.1,-3.1,16
851,14182.0,1.7000000000000002,-0.2,0.2,5.0,2.8000000000000003,8.8,16.3,-38.300000000000004,-14.600000000000001,16
852,14199.0,1.9000000000000001,0.1,0.2,5.0,2.8000000000000003,8.8,16.3,-38.300000000000004,-14.600000000000001,16
853,14216.0,1.9000000000000001,0.7000000000000001,0.5,5.2,4.0,9.5,10.700000000000001,-15.100000000000001,-37.7,16
854,14233.0,1.7000000000000002,1.3,1.9000000000000001,4.9,4.5,10.600000000000001,13.4,3.0000000000000004,-46.4,16
855,14249.0,1.6,1.6,2.3000000000000003,4.9,4.5,10.600000000000001,13.4,3.0000000000000004,-46.4,16
856,14266.0,1.6,2.7,1.7000000000000002,4.800000000000001,6.5,10.0,15.6,12.9,-57.2,16
857,14282.0,1.6,3.7,1.4000000000000001,4.5,7.0,10.200000000000001,-7.0,17.5,-48.7,16
858,14299.0,1.2000000000000002,3.5,2.1,3.7,5.9,11.700000000000001,-33.1,22.7,-27.8,16
859,14315.0,0.30000000000000004,1.3,4.2,3.1,3.8000000000000003,13.4,-36.7,20.900000000000002,-4.800000000000001,16
860,14333.0,0.1,0.1,5.0,3.1,3.8000000000000003,13.4,-20.2,2.5,6.1000000000000005,16
861,14349.0,0.4,-1.8,4.3,3.8000000000000003,1.1,11.600000000000001,-2.0,-33.5,0.4,16
862,14365.0,0.8,-2.1,1.0,3.8000000000000003,1.3,9.200000000000001,-5.1,-60.300000000000004,-14.900000000000002,16
863,14382.0,0.5,-1.8,0.0,3.8000000000000003,1.3,9.200000000000001,-5.1,-60.300000000000004,-14.900000000000002,16
864,14399.0,-0.30000000000000004,-1.0,-0.4,2.6,2.5,8.3,-17.599999999999998,-35.3,-24.7,16
865,14416.0,-1.5,-0.4,-0.30000000000000004,1.5,2.8000000000000003,8.5,-9.0,1.7,-11.6,16
866,14432.0,-2.1,-0.4,-0.2,1.5,2.8000000000000003,8.5,-9.0,1.7,-11.6,16
867,14449.0,-3.4000000000000004,-0.4,-0.30000000000000004,-0.4,2.8000000000000003,7.800000000000001,-1.2000000000000002,29.200000000000003,34.7,16
868,14465.0,-3.9000000000000004,-0.1,-2.0,-0.7000000000000001,3.1,6.2,-19.200000000000003,17.0,54.6,16
869,14482.0,-3.8000000000000003,0.30000000000000004,-3.1,-0.7000000000000001,3.1,6.2,-19.200000000000003,17.0,54.6,16
870,14499.0,-3.8000000000000003,1.5,-4.800000000000001,-0.30000000000000004,4.6000000000000005,3.6,-127.3,-77.1,112.1,16
871,14516.0,-4.0,3.2,-6.1000000000000005,-0.30000000000000004,5.1000000000000005,2.3000000000000003,-178.50000000000003,-110.10000000000001,160.8,16
872,14533.0,-4.3,3.3000000000000003,-6.9,-0.30000000000000004,5.1000000000000005,2.3000000000000003,-178.50000000000003,-110.10000000000001,160.8,16
873,14549.0,-1.9000000000000001,1.3,-7.300000000000001,3.6,0.2,2.7,-244.4,-74.7,231.80000000000004,16
874,14565.0,1.3,-2.1,-1.7000000000000002,6.1000000000000005,-3.1,8.1,-239.6,-2.6,206.3,16
875,14582.0,2.4000000000000004,-3.0,2.1,7.1000000000000005,-4.3,13.9,-186.9,67.5,147.00000000000003,16
876,14599.0,2.0,-2.4000000000000004,7.0,5.2,-3.9000000000000004,15.5,-90.9,99.7,94.7,16
877,14616.0,0.7000000000000001,-1.9000000000000001,6.9,3.5,-3.3000000000000003,14.4,0.4,124.10000000000002,65.7,16
878,14632.0,-0.30000000000000004,-1.1,4.800000000000001,2.9000000000000004,-2.5,12.700000000000001,66.1,148.8,55.0,16
879,14649.0,-0.7000000000000001,-0.5,2.6,2.1,-2.1,11.200000000000001,86.3,136.1,46.4,16
880,14665.0,-0.9,-0.4,1.6,2.1,-2.1,11.200000000000001,86.3,136.1,46.4,16
881,14682.0,-0.5,-1.1,0.4,2.4000000000000004,-3.1,9.4,12.6,6.8,23.1,16
882,14699.0,0.5,-2.0,-0.1,3.5,-3.5,9.3,-34.0,-76.3,0.6000000000000001,16
883,14715.0,1.0,-1.9000000000000001,0.1,3.5,-3.5,9.3,-34.0,-76.3,0.6000000000000001,16
884,14732.0,1.7000000000000002,-1.5,-0.2,5.1000000000000005,-3.5,8.8,-64.2,-143.5,-41.7,16
885,14749.0,1.5,-1.7000000000000002,0.30000000000000004,5.4,-3.4000000000000004,9.0,-51.800000000000004,-124.60000000000001,-60.20000000000001,16
886,14765.0,1.7000000000000002,-1.2000000000000002,0.2,5.4,-3.4000000000000004,9.0,-51.800000000000004,-124.60000000000001,-60.20000000000001,16
887,14782.0,1.3,-1.0,0.2,5.0,-2.9000000000000004,8.8,34.7,-25.400000000000002,-77.9,16
888,14799.0,0.0,-1.3,-0.1,4.0,-2.7,8.4,66.4,3.1,-88.7,16
889,14816.0,-0.6000000000000001,-1.1,-0.5,4.0,-2.7,8.4,66.4,3.1,-88.7,16
890,14832.0,-1.8,-0.5,-1.2000000000000002,2.4000000000000004,-0.9,7.1000000000000005,88.2,2.5,-103.4,16
891,14849.0,-1.8,0.5,-2.6,2.7,0.0,5.9,79.2,-7.500000000000001,-99.6,16
892,14866.0,-1.4000000000000001,0.6000000000000001,-3.2,3.1,0.30000000000000004,5.7,58.2,-15.299999999999999,-92.9,16
893,14882.0,-1.6,0.4,-2.0,2.4000000000000004,0.4,7.300000000000001,43.800000000000004,-20.5,-86.0,16
894,14899.0,-2.3000000000000003,0.5,-0.8,2.1,0.7000000000000001,7.6000000000000005,42.400000000000006,-32.800000000000004,-70.39999999999999,16
895,14916.0,-2.2,0.5,-1.4000000000000001,2.8000000000000003,0.8,6.5,35.8,-51.1,-49.2,16
896,14933.0,-1.0,0.5,-2.4000000000000004,4.1000000000000005,0.9,6.300000000000001,12.9,-61.8,-31.0,16
897,14949.0,-0.2,0.4,-2.0,5.300000000000001,0.8,7.2,-9.4,-68.80000000000001,-19.700000000000003,16
898,14966.0,0.6000000000000001,0.6000000000000001,-0.5,5.7,1.5,8.4,-18.900000000000002,-68.4,-10.3,16
899,14982.0,0.4,1.8,0.6000000000000001,5.300000000000001,2.5,8.9,-22.8,-57.1,14.4,16
900,14999.0,0.0,2.4000000000000004,0.9,5.300000000000001,2.5,8.9,-22.8,-57.1,14.4,16
901,15016.0,-0.2,1.9000000000000001,2.6,5.1000000000000005,0.6000000000000001,11.4,-56.2,-18.1,127.80000000000001,16
902,15032.0,0.0,-1.5,4.4,5.7,-2.6,12.8,-71.5,-28.400000000000002,161.6,16
903,15050.0,0.7000000000000001,-2.9000000000000004,5.1000000000000005,5.7,-2.6,12.8,-71.5,-28.400000000000002,161.6,16
904,15066.0,1.2000000000000002,-2.9000000000000004,5.9,6.4,-3.4000000000000004,13.5,-53.300000000000004,-76.60000000000001,101.8,16
905,15082.0,-0.1,-1.0,4.7,5.300000000000001,-2.0,12.0,-12.000000000000002,-82.30000000000001,58.7,16
906,15099.0,-0.9,-0.2,3.4000000000000004,5.300000000000001,-2.0,12.0,-12.000000000000002,-82.30000000000001,58.7,16
907,15115.0,-2.0,1.3,-0.2,3.9000000000000004,0.6000000000000001,6.4,54.3,-52.0,29.500000000000004,16
908,15132.0,-2.0,2.8000000000000003,-2.5,4.1000000000000005,1.7000000000000002,5.0,52.6,-27.3,44.7,16
909,15149.0,-1.8,3.3000000000000003,-2.9000000000000004,4.1000000000000005,1.7000000000000002,5.0,52.6,-27.3,44.7,16
910,15165.0,-1.1,2.9000000000000004,-3.1,5.2,1.0,4.800000000000001,0.1,-27.1,91.4,16
911,15182.0,-0.30000000000000004,1.1,-1.5,5.9,-0.6000000000000001,6.2,-29.400000000000002,-55.1,98.5,16
912,15199.0,0.1,0.6000000000000001,-0.7000000000000001,6.6000000000000005,-1.6,6.9,-39.1,-85.80000000000001,92.10000000000001,16
913,15215.0,0.8,-0.2,-0.30000000000000004,7.6000000000000005,-2.4000000000000004,6.6000000000000005,-24.6,-100.10000000000001,84.60000000000001,16
914,15232.0,1.8,-0.6000000000000001,-1.3,8.4,-2.9000000000000004,5.4,4.3999999999999995,-89.30000000000001,70.9,16
915,15249.0,1.8,-0.7000000000000001,-1.9000000000000001,8.4,-2.9000000000000004,4.1000000000000005,36.800000000000004,-54.7,60.00000000000001,16
916,15265.0,1.5,-0.5,-3.5,8.0,-2.8000000000000003,2.9000000000000004,56.800000000000004,-15.5,57.6,16
917,15282.0,1.2000000000000002,-0.6000000000000001,-4.0,7.4,-2.8000000000000003,2.6,56.800000000000004,-15.5,57.6,16
918,15299.0,0.6000000000000001,-0.5,-4.1000000000000005,7.2,-2.8000000000000003,2.7,48.1,30.4,65.2,16
919,15315.0,0.8,-0.6000000000000001,-3.7,7.2,-3.2,3.2,26.0,29.600000000000005,68.7,16
920,15333.0,0.9,-0.9,-3.4000000000000004,7.2,-3.2,3.2,26.0,29.600000000000005,68.7,16
921,15349.0,1.0,-1.7000000000000002,-2.7,7.5,-4.6000000000000005,4.7,-24.1,12.9,72.0,16
922,15365.0,2.0,-2.3000000000000003,-1.4000000000000001,8.4,-5.300000000000001,5.7,-34.300000000000004,13.9,67.1,16
923,15384.0,2.4000000000000004,-2.5,-0.8,8.4,-5.300000000000001,5.7,-34.300000000000004,13.9,67.1,16
924,15399.0,2.5,-2.5,-0.1,8.4,-5.6000000000000005,6.5,-7.6,24.000000000000004,34.800000000000004,16
925,15415.0,2.0,-2.4000000000000004,-1.2000000000000002,7.800000000000001,-5.6000000000000005,5.5,7.400000000000001,34.900000000000006,19.700000000000003,16
926,15432.0,1.4000000000000001,-2.4000000000000004,-1.8,7.800000000000001,-5.6000000000000005,5.5,7.400000000000001,34.900000000000006,19.700000000000003,16
927,15449.0,0.2,-2.8000000000000003,-2.2,5.800000000000001,-6.300000000000001,5.1000000000000005,-13.0,58.2,0.2,16
928,15465.0,-0.1,-3.2,-1.8,5.800000000000001,-6.300000000000001,5.1000000000000005,-13.0,58.2,0.2,16
929,15482.0,0.0,-3.8000000000000003,0.0,5.9,-7.5,7.7,-38.800000000000004,32.300000000000004,-34.0,16
930,15499.0,0.7000000000000001,-4.2,0.5,6.5,-7.5,7.300000000000001,-26.0,16.1,-66.80000000000001,16
931,15516.0,0.9,-4.1000000000000005,-0.1,6.7,-7.1000000000000005,6.4,-14.800000000000002,16.6,-98.8,16
932,15532.0,0.9,-3.5,-1.2000000000000002,6.4,-6.300000000000001,5.7,-11.700000000000001,31.4,-122.90000000000002,16
933,15549.0,0.2,-2.7,-1.7000000000000002,5.7,-5.5,5.6000000000000005,-15.6,54.2,-134.9,16
934,15566.0,-0.4,-2.3000000000000003,-1.6,5.7,-5.5,5.6000000000000005,-15.6,54.2,-134.9,16
935,15582.0,-1.6,-1.6,-1.1,3.6,-3.9000000000000004,6.7,-20.5,90.6,-127.60000000000001,16
936,15599.0,-2.2,-0.9,-0.5,3.4000000000000004,-3.3000000000000003,7.1000000000000005,-18.7,94.4,-111.2,16
937,15616.0,-1.9000000000000001,-0.6000000000000001,-0.5,3.4000000000000004,-3.3000000000000003,7.1000000000000005,-18.7,94.4,-111.2,16
938,15632.0,-1.4000000000000001,-0.30000000000000004,-1.1,3.9000000000000004,-2.4000000000000004,6.5,-20.900000000000002,73.30000000000001,-95.3,16
939,15649.0,-1.5,0.2,-1.6,3.7,-1.9000000000000001,6.2,-25.400000000000002,57.3,-95.0,16
940,15666.0,-1.6,0.5,-1.8,3.7,-1.9000000000000001,6.2,-25.400000000000002,57.3,-95.0,16
941,15682.0,-1.5,1.4000000000000001,-2.2,3.6,-0.2,5.9,-42.0,27.1,-91.7,16
942,15699.0,-1.4000000000000001,2.5,-1.8,3.8000000000000003,0.6000000000000001,6.2,-55.6,15.6,-87.5,16
943,15715.0,-1.2000000000000002,3.0,-1.6,3.8000000000000003,0.6000000000000001,6.2,-55.6,15.6,-87.5,16
944,15732.0,-1.8,3.2,0.4,3.1,0.9,9.4,-84.80000000000001,5.4,-89.10000000000001,16
945,15749.0,-2.6,2.9000000000000004,4.0,2.3000000000000003,0.8,12.3,-72.0,5.0,-98.0,16
946,15766.0,-3.4000000000000004,3.2,5.5,1.2000000000000002,1.6,14.0,-34.2,9.0,-104.4,16
947,15782.0,-4.5,4.0,5.7,0.5,2.3000000000000003,13.100000000000001,5.7,11.2,-91.0,16
948,15800.0,-4.7,4.3,4.2,0.6000000000000001,2.6,12.0,23.3,12.700000000000001,-60.8,16
949,15815.0,-4.1000000000000005,4.1000000000000005,3.8000000000000003,1.7000000000000002,2.2,11.5,24.5,3.9,-28.6,16
950,15833.0,-2.5,3.2,2.9000000000000004,3.1,1.4000000000000001,10.600000000000001,22.6,-13.8,-7.9,16
951,15849.0,-0.8,2.1,1.8,4.5,0.6000000000000001,9.700000000000001,16.900000000000002,-31.2,3.1,16
952,15865.0,-0.1,1.7000000000000002,1.4000000000000001,5.7,0.1,9.0,8.3,-43.400000000000006,10.600000000000001,16
953,15882.0,1.0,1.0,0.9,6.5,-0.6000000000000001,8.8,-3.3000000000000003,-47.2,19.8,16
954,15899.0,1.3,0.5,1.1,6.5,-0.6000000000000001,8.8,-3.3000000000000003,-47.2,19.8,16
955,15915.0,2.3000000000000003,-0.5,2.2,8.4,-2.3000000000000003,10.5,-13.200000000000001,-39.1,27.400000000000002,16
956,15932.0,3.4000000000000004,-0.8,3.7,9.1,-2.3000000000000003,11.4,-1.3,-36.7,12.5,16
957,15949.0,3.5,-0.4,3.7,9.1,-2.3000000000000003,11.4,-1.3,-36.7,12.5,16
958,15965.0,2.6,0.30000000000000004,2.2,8.4,-1.4000000000000001,9.200000000000001,23.0,-32.2,2.9,16
959,15982.0,2.3000000000000003,-0.8,1.1,8.3,-2.6,8.9,11.000000000000002,-26.500000000000004,15.2,16
960,15999.0,2.2,-1.6,1.5,8.3,-2.6,8.9,11.000000000000002,-26.500000000000004,15.2,16
961,16015.0,1.9000000000000001,-2.9000000000000004,1.9000000000000001,7.9,-4.7,9.200000000000001,19.500000000000004,-28.0,-0.30000000000000004,16
962,16032.0,1.6,-3.1,0.8,7.6000000000000005,-4.3,7.9,40.4,-33.7,-27.3,16
963,16049.0,1.2000000000000002,-2.5,-0.30000000000000004,7.2,-2.8000000000000003,5.9,58.400000000000006,-35.6,-53.00000000000001,16
964,16065.0,0.6000000000000001,-0.6000000000000001,-3.0,6.800000000000001,-1.0,3.6,60.20000000000001,-22.6,-59.7,16
965,16082.0,0.30000000000000004,0.9,-5.0,6.7,0.1,2.4000000000000004,39.699999999999996,4.3999999999999995,-45.9,16
966,16099.0,0.4,1.0,-4.9,6.7,0.0,3.1,6.2,34.7,-23.2,16
967,16115.0,0.1,0.0,-3.3000000000000003,6.300000000000001,-1.1,4.7,-18.3,53.6,-7.9,16
968,16132.0,-0.30000000000000004,-1.2000000000000002,-1.6,5.800000000000001,-2.0,6.1000000000000005,-26.8,62.900000000000006,-3.4,16
969,16149.0,-0.6000000000000001,-1.5,-1.0,5.1000000000000005,-2.4000000000000004,6.7,-22.3,66.60000000000001,-6.1000000000000005,16
970,16165.0,-1.1,-1.8,-0.9,4.7,-2.7,6.9,-19.3,68.0,-7.1000000000000005,16
971,16182.0,-1.2000000000000002,-1.8,-0.8,4.7,-2.7,6.9,-19.3,68.0,-7.1000000000000005,16
972,16199.0,-1.6,-1.7000000000000002,-0.7000000000000001,4.0,-2.6,7.2,-18.5,49.5,-10.3,16
973,16215.0,-1.5,-1.4000000000000001,-0.9,4.0,-2.3000000000000003,6.9,-15.000000000000002,28.700000000000003,-16.400000000000002,16
974,16232.0,-1.4000000000000001,-1.2000000000000002,-1.3,4.0,-2.3000000000000003,6.9,-15.000000000000002,28.700000000000003,-16.400000000000002,16
975,16249.0,-1.3,-0.5,-2.7,4.2,-1.3,5.0,-7.6,3.7000000000000006,-33.6,16
976,16265.0,-1.2000000000000002,0.0,-3.3000000000000003,4.1000000000000005,-0.8,4.7,-10.1,8.4,-38.2,16
977,16282.0,-1.4000000000000001,0.30000000000000004,-3.1,4.1000000000000005,-0.8,4.7,-10.1,8.4,-38.2,16
978,16299.0,-1.6,0.5,-2.1,3.8000000000000003,-0.4,6.2,-9.4,22.7,-34.400000000000006,16
979,16315.0,-1.0,0.2,-1.2000000000000002,4.4,-0.6000000000000001,7.0,-3.3000000000000003,20.3,-32.5,16
980,16332.0,-0.7000000000000001,0.2,-0.8,4.800000000000001,-0.5,7.300000000000001,2.7,15.399999999999999,-34.400000000000006,16
981,16349.0,-0.2,0.5,-0.8,5.1000000000000005,-0.1,7.300000000000001,3.1,13.6,-33.7,16
982,16365.0,0.4,0.7000000000000001,-0.2,5.6000000000000005,0.1,8.1,-4.1000000000000005,12.3,-27.1,16
983,16382.0,0.7000000000000001,0.6000000000000001,0.5,6.0,-0.1,9.3,-9.600000000000001,5.8,-19.9,16
984,16399.0,0.9,0.30000000000000004,2.1,6.2,-0.4,10.4,-4.1000000000000005,-5.1,-16.0,16
985,16416.0,1.4000000000000001,0.2,2.5,6.7,-0.30000000000000004,10.5,8.200000000000001,-17.200000000000003,-13.8,16
986,16432.0,1.6,0.4,2.0,6.9,0.0,9.8,15.6,-22.8,-12.6,16
987,16449.0,1.4000000000000001,0.7000000000000001,1.6,6.800000000000001,0.30000000000000004,9.8,13.8,-19.700000000000003,-7.300000000000001,16
988,16465.0,1.5,0.9,1.8,7.1000000000000005,0.7000000000000001,10.200000000000001,13.8,-19.700000000000003,-7.300000000000001,16
989,16482.0,1.8,1.3,2.3000000000000003,7.2,1.1,10.3,7.9,-9.8,6.3,16
990,16499.0,1.6,1.7000000000000002,2.6,7.1000000000000005,1.3,11.0,2.1,2.5,16.8,16
991,16516.0,1.6,1.7000000000000002,3.3000000000000003,7.1000000000000005,1.3,11.0,2.1,2.5,16.8,16
992,16532.0,1.3,0.6000000000000001,4.9,6.4,-0.8,13.700000000000001,-4.0,19.3,33.400000000000006,16
993,16549.0,0.7000000000000001,-1.8,6.2,6.1000000000000005,-2.6,14.100000000000001,17.9,4.800000000000001,21.900000000000002,16
994,16565.0,0.6000000000000001,-2.5,5.4,6.1000000000000005,-2.6,14.100000000000001,17.9,4.800000000000001,21.900000000000002,16
995,16582.0,0.30000000000000004,-2.2,1.0,5.5,-2.0,7.800000000000001,77.2,-41.7,-39.8,16
996,16599.0,-0.5,-0.8,-2.7,5.0,-0.5,5.0,73.9,-46.4,-54.6,16
997,16616.0,-0.7000000000000001,0.0,-3.9000000000000004,4.7,0.8,3.5,51.2,-35.0,-49.1,16
998,16632.0,-1.1,1.0,-4.4,4.5,1.4000000000000001,3.9000000000000004,19.400000000000002,-4.1000000000000005,-26.500000000000004,16
999,16649.0,-1.4000000000000001,0.8,-2.9000000000000004,4.2,1.0,5.300000000000001,-7.500000000000001,33.2,1.4,16
1000,16666.0,-1.6,0.2,-1.9000000000000001,3.6,0.0,7.1000000000000005,-23.1,60.7,25.400000000000002,16
1001,16682.0,-2.0,-0.8,0.0,3.4000000000000004,-0.7000000000000001,8.4,-24.000000000000004,69.5,38.800000000000004,16
1002,16699.0,-1.6,-1.1,0.0,3.6,-1.0,8.200000000000001,-19.6,58.400000000000006,39.300000000000004,16
1003,16715.0,-1.4000000000000001,-1.0,-0.5,3.7,-0.9,7.4,-21.1,42.300000000000004,31.6,16
1004,16732.0,-1.4000000000000001,-0.5,-1.3,3.5,-0.5,6.9,-22.900000000000002,30.799999999999997,24.200000000000003,16
1005,16748.0,-1.5,-0.2,-1.7000000000000002,3.5,-0.5,6.9,-22.900000000000002,30.799999999999997,24.200000000000003,16
1006,16765.0,-1.8,0.2,-1.7000000000000002,2.8000000000000003,0.1,7.1000000000000005,-14.500000000000002,28.700000000000003,23.3,16
1007,16782.0,-2.1,0.6000000000000001,-1.0,2.7,0.30000000000000004,7.300000000000001,1.0999999999999999,27.400000000000002,29.400000000000002,16
1008,16799.0,-1.8,0.6000000000000001,-1.2000000000000002,2.7,0.30000000000000004,7.300000000000001,1.0999999999999999,27.400000000000002,29.400000000000002,16
1009,16815.0,-1.3,0.7000000000000001,-1.6,3.4000000000000004,0.30000000000000004,7.0,7.1000000000000005,8.3,30.5,16
1010,16832.0,-1.0,0.5,-1.1,3.6,0.1,7.5,-1.3,-4.300000000000001,23.700000000000003,16
1011,16849.0,-0.9,0.5,-0.6000000000000001,3.6,0.1,7.5,-1.3,-4.300000000000001,23.700000000000003,16
1012,16865.0,-0.9,0.6000000000000001,0.4,3.7,0.2,9.0,3.8,-17.1,6.8,16
1013,16882.0,-0.8,0.8,0.7000000000000001,3.9000000000000004,0.5,9.1,16.900000000000002,-16.0,3.6,16
1014,16899.0,-0.6000000000000001,0.9,0.8,4.4,0.7000000000000001,9.1,29.200000000000003,-13.8,2.4000000000000004,16
1015,16915.0,0.0,1.1,0.5,4.9,1.0,8.6,35.9,-13.700000000000001,-2.1,16
1016,16932.0,0.4,1.4000000000000001,-0.2,5.2,1.2000000000000002,8.200000000000001,31.900000000000002,-13.0,-5.2,16
1017,16949.0,0.5,1.2000000000000002,0.0,5.5,0.8,8.8,20.7,-13.5,-1.7,16
1018,16965.0,1.0,0.4,0.8,6.1000000000000005,0.1,9.3,12.700000000000001,-15.6,3.2,16
1019,16982.0,1.6,-0.4,1.3,6.7,-0.5,9.8,3.6,-12.700000000000001,5.0,16
1020,16999.0,2.1,-0.8,2.0,7.7,-1.0,11.0,-3.1,-7.8,-0.6000000000000001,16
1021,17015.0,3.3000000000000003,-0.7000000000000001,3.1,8.1,-0.5,11.5,2.5,-4.1000000000000005,-21.0,16
1022,17034.0,3.0,-0.30000000000000004,3.3000000000000003,8.1,-0.5,11.5,2.5,-4.1000000000000005,-21.0,16
1023,17049.0,1.6,0.7000000000000001,3.2,6.5,0.9,11.4,18.7,20.8,-19.9,16
1024,17065.0,1.7000000000000002,0.4,3.2,6.6000000000000005,0.2,11.9,15.5,32.5,3.7000000000000006,16
1025,17082.0,1.7000000000000002,-0.5,3.7,6.6000000000000005,0.2,11.9,15.5,32.5,3.7000000000000006,16
1026,17099.0,1.8,-2.3000000000000003,4.800000000000001,6.6000000000000005,-2.5,13.0,25.8,-4.800000000000001,4.0,16
1027,17115.0,1.4000000000000001,-2.8000000000000003,3.0,6.2,-2.2,10.9,46.900000000000006,-37.4,-23.6,16
1028,17132.0,0.9,-2.2,1.2000000000000002,6.2,-2.2,10.9,46.900000000000006,-37.4,-23.6,16
1029,17148.0,0.0,0.0,-1.8,5.0,1.5,5.800000000000001,51.1,-63.0,-51.6,16
1030,17165.0,-0.4,1.8,-3.3000000000000003,5.0,2.8000000000000003,5.1000000000000005,30.100000000000005,-48.6,-30.5,16
1031,17182.0,-0.2,2.1,-2.9000000000000004,5.4,2.6,5.9,2.5,-33.900000000000006,1.4,16
1032,17199.0,0.1,1.0,-1.6,5.7,1.4000000000000001,6.800000000000001,-19.8,-29.900000000000006,25.5,16
1033,17215.0,0.2,0.30000000000000004,-1.1,5.7,1.4000000000000001,6.800000000000001,-19.8,-29.900000000000006,25.5,16
1034,17232.0,0.5,-1.0,0.1,6.2,-0.9,8.4,-32.9,-37.1,36.4,16
1035,17249.0,0.30000000000000004,-1.8,0.30000000000000004,5.9,-1.4000000000000001,8.0,-24.000000000000004,-46.5,24.9,16
1036,17265.0,-0.2,-1.8,-0.6000000000000001,5.6000000000000005,-1.3,7.1000000000000005,-10.8,-50.7,11.000000000000002,16
1037,17282.0,-0.5,-1.6,-1.2000000000000002,5.2,-1.1,6.0,3.5,-46.4,-2.3000000000000003,16
1038,17299.0,-1.1,-1.3,-2.5,4.800000000000001,-0.8,4.9,14.900000000000002,-33.900000000000006,-13.100000000000001,16
1039,17315.0,-1.4000000000000001,-1.1,-3.0,4.800000000000001,-0.8,4.9,21.700000000000003,-12.9,-20.0,16
1040,17332.0,-1.9000000000000001,-0.7000000000000001,-3.9000000000000004,4.1000000000000005,0.0,3.6,22.3,10.8,-22.000000000000004,16
1041,17349.0,-2.1,-0.6000000000000001,-4.3,3.9000000000000004,0.1,3.4000000000000004,19.8,26.6,-23.6,16
1042,17365.0,-2.1,-0.6000000000000001,-4.2,3.9000000000000004,0.1,3.4000000000000004,19.8,26.6,-23.6,16
1043,17382.0,-2.0,-0.7000000000000001,-4.1000000000000005,3.7,0.1,3.6,5.7,40.5,-34.0,16
1044,17399.0,-2.2,-0.6000000000000001,-4.0,3.5,0.30000000000000004,3.8000000000000003,-1.6,45.1,-37.5,16
1045,17416.0,-2.2,-0.4,-3.9000000000000004,3.5,0.30000000000000004,3.8000000000000003,-1.6,45.1,-37.5,16
1046,17432.0,-1.8,-0.30000000000000004,-3.8000000000000003,3.6,0.6000000000000001,4.4,-12.700000000000001,61.7,-33.400000000000006,16
1047,17448.0,-1.8,-0.30000000000000004,-2.1,3.4000000000000004,0.7000000000000001,6.2,-11.6,73.4,-28.1,16
1048,17465.0,-1.7000000000000002,-0.2,-1.0,3.6,0.9,7.5,2.8,74.7,-19.500000000000004,16
1049,17482.0,-0.8,0.0,-0.7000000000000001,4.4,1.1,7.300000000000001,12.200000000000001,65.3,-11.6,16
1050,17499.0,0.4,0.2,-1.4000000000000001,5.1000000000000005,1.3,6.9,0.4,52.300000000000004,-7.500000000000001,16
1051,17515.0,0.6000000000000001,0.2,-1.2000000000000002,5.300000000000001,1.2000000000000002,8.0,-29.800000000000004,45.4,-0.9,16
1052,17533.0,0.7000000000000001,0.1,1.3,5.300000000000001,0.8,10.600000000000001,-53.1,37.6,10.5,16
1053,17549.0,1.3,-0.5,4.2,5.800000000000001,0.2,12.8,-56.900000000000006,21.8,21.200000000000003,16
1054,17565.0,1.9000000000000001,-0.5,4.7,6.9,0.2,12.8,-47.5,1.0999999999999999,21.8,16
1055,17582.0,2.9000000000000004,0.1,3.9000000000000004,7.5,0.8,12.4,-45.6,-7.1000000000000005,16.8,16
1056,17599.0,3.1,1.2000000000000002,4.1000000000000005,7.6000000000000005,1.5,12.700000000000001,-45.6,-7.1000000000000005,16.8,16
1057,17615.0,2.8000000000000003,1.5,4.6000000000000005,6.800000000000001,1.5,14.0,-52.1,16.1,18.5,16
1058,17632.0,1.6,0.6000000000000001,6.9,5.9,0.2,16.0,-39.9,30.5,24.6,16
1059,17649.0,1.2000000000000002,-0.4,7.7,5.9,0.2,16.0,-39.9,30.5,24.6,16
1060,17665.0,1.1,-1.5,5.7,5.6000000000000005,-1.3,12.9,28.900000000000002,-8.9,-3.5,16
1061,17682.0,1.0,-0.8,1.6,5.300000000000001,-0.5,9.700000000000001,45.0,-33.2,-29.700000000000003,16
1062,17699.0,0.4,-0.30000000000000004,-0.2,5.300000000000001,-0.5,9.700000000000001,45.0,-33.2,-29.700000000000003,16
1063,17715.0,-0.6000000000000001,0.6000000000000001,-2.0,3.9000000000000004,1.3,6.6000000000000005,31.7,-31.5,-39.300000000000004,16
1064,17732.0,-1.3,1.1,-1.8,3.3000000000000003,1.7000000000000002,7.0,25.1,-4.2,-22.900000000000002,16
1065,17749.0,-1.6,1.1,-1.3,2.8000000000000003,1.5,7.5,24.200000000000003,21.8,-2.0,16
1066,17765.0,-2.0,0.7000000000000001,-1.1,2.5,1.2000000000000002,7.6000000000000005,22.1,36.2,16.700000000000003,16
1067,17782.0,-2.2,0.1,-0.9,2.2,0.7000000000000001,7.800000000000001,16.900000000000002,40.5,30.599999999999998,16
1068,17798.0,-2.3000000000000003,-0.1,-0.8,2.1,0.4,8.0,12.000000000000002,33.400000000000006,39.699999999999996,16
1069,17815.0,-2.2,-0.30000000000000004,-0.8,2.2,0.30000000000000004,7.6000000000000005,9.9,14.200000000000001,43.800000000000004,16
1070,17832.0,-2.0,-0.30000000000000004,-1.3,2.2,0.30000000000000004,7.6000000000000005,9.9,14.200000000000001,43.800000000000004,16
1071,17848.0,-1.7000000000000002,-0.2,-2.4000000000000004,2.7,0.5,6.0,0.9,-20.7,42.800000000000004,16
1072,17865.0,-1.5,0.1,-2.9000000000000004,3.1,0.6000000000000001,5.7,-6.5,-27.900000000000002,43.6,16
1073,17882.0,-1.0,0.1,-2.8000000000000003,3.5,0.4,5.800000000000001,-12.100000000000001,-29.1,42.300000000000004,16
1074,17899.0,-0.8,0.0,-2.5,3.8000000000000003,0.30000000000000004,6.2,-14.100000000000001,-23.400000000000002,36.3,16
1075,17915.0,-0.7000000000000001,0.0,-1.7000000000000002,3.9000000000000004,0.30000000000000004,7.1000000000000005,-12.3,-14.3,28.0,16
1076,17932.0,-0.7000000000000001,0.0,-1.0,3.9000000000000004,0.30000000000000004,7.1000000000000005,-12.3,-14.3,28.0,16
1077,17949.0,-0.7000000000000001,0.1,-0.30000000000000004,3.9000000000000004,0.5,8.200000000000001,7.0,2.3000000000000003,8.4,16
1078,17965.0,-0.7000000000000001,0.5,-0.30000000000000004,3.9000000000000004,0.8,8.200000000000001,15.9,8.1,1.5000000000000002,16
1079,17982.0,-0.5,0.6000000000000001,-0.2,3.9000000000000004,0.8,8.200000000000001,15.9,8.1,1.5000000000000002,16
1080,17998.0,-0.2,0.5,-0.1,4.4,0.8,8.5,18.6,8.1,-8.9,16
1081,18015.0,0.2,0.4,0.2,4.7,0.9,8.700000000000001,16.8,-0.9,-17.7,16
1082,18032.0,0.2,0.6000000000000001,0.2,4.6000000000000005,1.3,8.9,16.6,-7.400000000000001,-22.7,16
1083,18049.0,0.30000000000000004,0.8,0.5,5.0,1.3,8.9,16.700000000000003,-10.1,-16.2,16
1084,18065.0,1.1,0.7000000000000001,0.1,5.7,1.2000000000000002,8.6,10.4,-8.5,-6.9,16
1085,18082.0,1.5,0.4,0.2,6.300000000000001,0.6000000000000001,9.200000000000001,-9.0,-2.6,0.0,16
1086,18099.0,1.9000000000000001,-0.4,1.9000000000000001,6.6000000000000005,0.0,11.0,-25.900000000000002,1.4,1.0,16
1087,18116.0,2.2,-0.4,3.6,6.800000000000001,0.2,12.100000000000001,-25.8,0.8,-7.9,16
1088,18132.0,2.1,0.0,3.7,6.5,0.7000000000000001,12.0,-14.500000000000002,-0.30000000000000004,-17.7,16
1089,18149.0,1.6,0.5,2.9000000000000004,6.1000000000000005,1.0,11.200000000000001,-4.800000000000001,4.5,-20.2,16
1090,18165.0,1.5,0.7000000000000001,2.5,6.1000000000000005,1.0,11.200000000000001,-4.800000000000001,4.5,-20.2,16
1091,18182.0,0.8,1.0,1.7000000000000002,5.0,1.4000000000000001,10.0,-2.1,9.9,-18.3,16
1092,18199.0,0.30000000000000004,0.4,1.2000000000000002,4.9,0.8,9.700000000000001,-1.8,5.0,-12.200000000000001,16
1093,18215.0,0.4,0.0,0.9,4.9,0.8,9.700000000000001,-1.8,5.0,-12.200000000000001,16
1094,18232.0,0.5,-0.6000000000000001,0.0,5.1000000000000005,0.0,8.200000000000001,11.2,-6.4,-22.900000000000002,16
1095,18249.0,0.5,-0.5,-1.1,5.0,0.30000000000000004,7.2,14.3,-11.3,-32.4,16
1096,18265.0,0.4,-0.1,-1.8,5.0,0.30000000000000004,7.2,14.3,-11.3,-32.4,16
1097,18282.0,0.6000000000000001,0.30000000000000004,-2.6,5.300000000000001,1.1,5.9,-9.9,-5.9,-25.0,16
1098,18299.0,0.8,0.2,-2.3000000000000003,5.5,0.7000000000000001,6.5,-32.7,6.8,-12.3,16
1099,18315.0,0.9,-0.2,-1.4000000000000001,5.6000000000000005,0.0,8.1,-48.00000000000001,17.7,-2.4000000000000004,16
1100,18332.0,1.0,-1.1,0.30000000000000004,5.6000000000000005,-0.9,9.200000000000001,-45.6,24.7,1.0,16
1101,18349.0,1.1,-1.9000000000000001,1.0,5.6000000000000005,-1.5,9.600000000000001,-34.50000000000001,28.400000000000002,-2.4000000000000004,16
1102,18366.0,1.0,-2.0,0.8,5.1000000000000005,-1.6,9.1,-24.3,28.8,-11.4,16
1103,18382.0,0.30000000000000004,-1.8,0.1,4.4,-1.4000000000000001,8.8,-20.5,26.8,-18.0,16
1104,18399.0,-0.4,-1.4000000000000001,-0.30000000000000004,4.4,-1.4000000000000001,8.8,-16.900000000000002,19.1,-21.400000000000002,16
1105,18415.0,-0.5,-1.2000000000000002,-0.7000000000000001,3.6,-0.9,7.6000000000000005,-13.8,8.700000000000001,-24.3,16
1106,18432.0,-0.7000000000000001,-1.0,-1.7000000000000002,3.5,-0.7000000000000001,6.800000000000001,-14.4,-0.7,-27.3,16
1107,18449.0,-0.8,-0.8,-2.1,3.5,-0.7000000000000001,6.800000000000001,-16.8,-6.2,-30.200000000000003,16
1108,18465.0,-0.9,-0.6000000000000001,-2.6,3.3000000000000003,-0.30000000000000004,6.1000000000000005,-19.400000000000002,-6.6000000000000005,-32.5,16
1109,18482.0,-1.0,-0.4,-2.4000000000000004,3.2,-0.2,6.4,-17.3,-2.6,-34.2,16
1110,18501.0,-1.0,-0.30000000000000004,-2.2,3.3000000000000003,0.0,6.5,-17.3,-2.6,-34.2,16
1111,18515.0,-1.0,0.0,-2.3000000000000003,3.4000000000000004,0.4,6.300000000000001,-5.500000000000001,3.4,-39.400000000000006,16
1112,18532.0,-0.8,0.6000000000000001,-2.4000000000000004,3.4000000000000004,1.0,6.300000000000001,-7.6,5.2,-40.2,16
1113,18549.0,-0.8,0.9,-2.3000000000000003,3.4000000000000004,1.0,6.300000000000001,-7.6,5.2,-40.2,16
1114,18565.0,-0.6000000000000001,1.1,-1.1,3.6,1.2000000000000002,8.1,-20.4,10.4,-27.400000000000002,16
1115,18582.0,-0.1,0.6000000000000001,0.4,4.1000000000000005,0.8,9.3,-17.9,5.8,-22.1,16
1116,18598.0,0.30000000000000004,0.30000000000000004,0.9,4.7,0.5,9.700000000000001,-10.4,-3.1,-24.6,16
1117,18615.0,0.9,0.4,0.9,5.2,0.8,9.5,-8.200000000000001,-8.5,-28.200000000000003,16
1118,18632.0,1.2000000000000002,0.7000000000000001,1.1,5.300000000000001,1.0,9.9,-12.6,-9.700000000000001,-28.200000000000003,16
1119,18648.0,1.1,0.8,1.6,5.4,1.0,11.0,-16.2,-5.6,-23.5,16
1120,18665.0,1.3,0.7000000000000001,3.1,5.7,1.1,11.9,-9.3,-3.8,-17.9,16
1121,18682.0,1.9000000000000001,1.1,3.1,6.2,1.5,11.8,1.9,-5.500000000000001,-15.8,16
1122,18699.0,2.0,1.5,2.7,6.4,2.2,11.3,2.7,-2.3000000000000003,-10.8,16
1123,18715.0,2.1,2.1,2.9000000000000004,6.300000000000001,2.2,12.100000000000001,-10.4,11.4,0.9,16
1124,18733.0,1.9000000000000001,1.7000000000000002,3.7,6.300000000000001,2.2,12.100000000000001,-10.4,11.4,0.9,16
1125,18749.0,0.6000000000000001,-0.4,7.2,4.7,-1.3,16.7,3.4,25.2,23.900000000000002,16
1126,18765.0,0.7000000000000001,-2.6,6.7,4.800000000000001,-2.3000000000000003,14.5,53.00000000000001,-6.1000000000000005,9.9,16
1127,18782.0,0.6000000000000001,-2.6,4.2,4.800000000000001,-2.3000000000000003,14.5,53.00000000000001,-6.1000000000000005,9.9,16
1128,18799.0,-0.30000000000000004,-1.5,-1.0,3.7,-0.1,6.5,81.4,-62.50000000000001,-39.9,16
1129,18815.0,-1.2000000000000002,0.1,-3.7,3.2,1.3,4.800000000000001,56.300000000000004,-62.0,-38.2,16
1130,18833.0,-1.5,0.5,-4.1000000000000005,3.2,1.3,4.800000000000001,56.300000000000004,-62.0,-38.2,16
1131,18849.0,-1.9000000000000001,0.5,-2.9000000000000004,2.7,1.4000000000000001,6.300000000000001,4.3999999999999995,-9.200000000000001,3.1,16
1132,18865.0,-2.1,-0.2,-1.4000000000000001,2.6,0.8,7.4,-5.8,15.2,24.400000000000002,16
1133,18882.0,-1.9000000000000001,-0.6000000000000001,-0.9,2.6,0.8,7.4,-5.8,15.2,24.400000000000002,16
1134,18899.0,-1.4000000000000001,-1.0,-0.6000000000000001,3.3000000000000003,0.0,7.9,-15.7,13.700000000000001,34.0,16
1135,18915.0,-1.2000000000000002,-1.0,-0.7000000000000001,3.3000000000000003,0.0,7.9,-15.7,13.700000000000001,34.0,16
1136,18933.0,-1.0,-0.6000000000000001,-1.2000000000000002,3.7,0.4,7.300000000000001,-12.200000000000001,-9.3,16.5,16
1137,18948.0,-0.8,-0.30000000000000004,-1.6,3.6,0.5,6.6000000000000005,-4.1000000000000005,-18.3,7.8,16
1138,18965.0,-1.3,0.2,-2.6,3.3000000000000003,1.0,5.9,1.9,-17.3,3.5,16
1139,18982.0,-1.3,0.4,-2.8000000000000003,3.2,1.1,5.7,5.0,-5.7,4.800000000000001,16
1140,18998.0,-1.3,0.1,-2.6,3.5,0.7000000000000001,6.1000000000000005,6.8,4.2,5.6,16
1141,19015.0,-1.0,-0.2,-2.1,3.6,0.4,6.9,7.699999999999999,7.500000000000001,1.4,16
1142,19032.0,-1.1,-0.4,-1.3,3.4000000000000004,0.4,7.300000000000001,9.5,7.2,-6.4,16
1143,19048.0,-1.2000000000000002,-0.2,-1.0,3.3000000000000003,0.7000000000000001,7.6000000000000005,12.100000000000001,5.1,-13.0,16
1144,19065.0,-1.2000000000000002,0.0,-0.8,3.3000000000000003,0.7000000000000001,7.6000000000000005,12.100000000000001,5.1,-13.0,16
1145,19082.0,-1.3,0.2,-0.30000000000000004,3.1,1.3,8.200000000000001,13.0,-0.4,-19.6,16
1146,19099.0,-1.4000000000000001,0.6000000000000001,-0.1,3.2,1.6,8.3,11.4,-5.7,-18.3,16
1147,19115.0,-1.3,0.7000000000000001,-0.1,3.2,1.6,8.3,11.4,-5.7,-18.3,16
1148,19132.0,-0.7000000000000001,0.9,0.1,4.1000000000000005,2.0,8.4,-2.9,-23.1,-11.2,16
1149,19148.0,0.0,0.9,0.0,4.7,1.9000000000000001,8.4,-15.399999999999999,-29.800000000000004,-7.400000000000001,16
1150,19165.0,0.2,0.8,0.1,4.7,1.9000000000000001,8.4,-15.399999999999999,-29.800000000000004,-7.400000000000001,16
1151,19182.0,0.9,0.5,0.5,5.9,1.1,9.1,-42.800000000000004,-36.0,8.5,16
1152,19201.0,1.7000000000000002,-0.2,1.5,6.7,0.5,10.0,-50.0,-32.800000000000004,10.1,16
1153,19215.0,2.1,-0.30000000000000004,2.2,7.6000000000000005,0.30000000000000004,11.100000000000001,-46.5,-27.400000000000002,1.3,16
1154,19232.0,2.8000000000000003,0.0,3.1,7.7,0.9,11.200000000000001,-32.0,-21.1,-17.3,16
1155,19249.0,2.0,1.0,2.5,7.0,1.6,10.700000000000001,-19.0,-9.200000000000001,-27.7,16
1156,19265.0,1.6,1.1,2.2,6.5,1.8,10.3,-14.600000000000001,5.300000000000001,-25.5,16
1157,19282.0,1.1,1.2000000000000002,2.1,6.1000000000000005,1.7000000000000002,10.4,-15.2,12.9,-18.6,16
1158,19298.0,1.0,1.0,2.0,5.800000000000001,0.9,10.3,-15.2,12.9,-18.6,16
1159,19315.0,0.7000000000000001,-0.4,2.0,5.7,-0.5,10.5,-9.700000000000001,13.9,-10.600000000000001,16
1160,19332.0,0.6000000000000001,-1.6,1.9000000000000001,5.5,-1.0,10.0,8.600000000000001,10.9,-25.400000000000002,16
1161,19348.0,0.4,-1.7000000000000002,1.2000000000000002,5.5,-1.0,10.0,8.600000000000001,10.9,-25.400000000000002,16
1162,19365.0,-0.30000000000000004,-0.7000000000000001,-0.7000000000000001,4.5,0.7000000000000001,7.0,33.400000000000006,1.2000000000000002,-54.1,16
1163,19382.0,-0.5,0.7000000000000001,-2.7,4.4,1.9000000000000001,5.4,21.900000000000002,0.30000000000000004,-47.7,16
1164,19399.0,-0.6000000000000001,1.2000000000000002,-3.4000000000000004,4.4,1.9000000000000001,5.4,21.900000000000002,0.30000000000000004,-47.7,16
1165,19415.0,-0.2,1.2000000000000002,-3.0,4.9,1.8,6.1000000000000005,-42.5,15.5,2.1,16
1166,19432.0,0.30000000000000004,0.1,-0.9,5.2,0.6000000000000001,7.9,-61.4,23.8,22.6,16
1167,19448.0,0.5,-0.7000000000000001,0.2,5.2,0.6000000000000001,7.9,-61.4,23.8,22.6,16
1168,19465.0,1.2000000000000002,-2.0,1.5,6.1000000000000005,-1.8,10.3,-49.6,24.1,26.500000000000004,16
1169,19482.0,1.5,-2.4000000000000004,1.6,6.0,-2.1,10.0,-30.7,15.8,8.0,16
1170,19499.0,1.0,-2.2,1.0,5.300000000000001,-1.4000000000000001,8.9,-13.4,10.700000000000001,-10.4,16
1171,19515.0,0.30000000000000004,-1.1,-0.5,4.7,-0.6000000000000001,7.7,-1.2000000000000002,10.600000000000001,-19.3,16
1172,19532.0,-0.30000000000000004,-0.6000000000000001,-1.6,4.2,-0.30000000000000004,6.9,2.6,11.8,-21.1,16
1173,19548.0,-0.5,-0.5,-1.9000000000000001,3.8000000000000003,-0.2,6.5,2.6,10.3,-22.4,16
1174,19565.0,-1.0,-0.4,-2.3000000000000003,3.5,0.0,6.0,2.8,5.500000000000001,-24.7,16
1175,19582.0,-1.2000000000000002,-0.2,-3.1,3.2,0.2,5.4,0.30000000000000004,0.5,-26.6,16
1176,19598.0,-1.3,-0.1,-3.4000000000000004,3.2,0.5,5.0,-5.4,-2.8,-28.6,16
1177,19615.0,-1.3,0.30000000000000004,-3.6,3.2,0.8,5.0,-12.9,-2.4000000000000004,-30.100000000000005,16
1178,19632.0,-1.3,0.5,-3.5,3.2,0.8,5.0,-12.9,-2.4000000000000004,-30.100000000000005,16
1179,19648.0,-1.1,0.9,-3.0,3.5,1.4000000000000001,5.800000000000001,-23.3,11.2,-28.6,16
1180,19665.0,-0.7000000000000001,0.9,-1.8,3.9000000000000004,1.2000000000000002,7.1000000000000005,-22.3,17.5,-26.1,16
1181,19682.0,-0.30000000000000004,0.8,-1.0,3.9000000000000004,1.2000000000000002,7.1000000000000005,-22.3,17.5,-26.1,16
1182,19698.0,0.2,1.1,-0.5,4.7,1.7000000000000002,8.4,-10.9,21.5,-27.8,16
1183,19715.0,0.5,1.5,0.2,4.800000000000001,1.9000000000000001,9.0,-14.100000000000001,26.6,-20.6,16
1184,19732.0,0.6000000000000001,1.4000000000000001,0.8,4.800000000000001,1.9000000000000001,9.0,-14.100000000000001,26.6,-20.6,16
1185,19748.0,0.9,0.7000000000000001,3.0,5.1000000000000005,0.5,12.600000000000001,-31.4,40.6,6.000000000000001,16
1186,19765.0,1.5,-0.6000000000000001,5.5,5.6000000000000005,-0.5,14.4,-21.700000000000003,32.6,7.8,16
1187,19782.0,1.9000000000000001,-0.9,5.9,6.1000000000000005,-0.5,14.3,0.9,13.4,-7.0,16
1188,19798.0,1.9000000000000001,0.1,4.3,5.800000000000001,0.8,12.600000000000001,19.400000000000002,5.0,-23.8,16
1189,19815.0,1.6,1.3,2.8000000000000003,5.5,1.8,11.700000000000001,26.6,18.0,-31.0,16
