,ms,accelX,accelY,accelZ,accelWithGX,accelWithGY,accelWithGZ,rotRateAlpha,rotRateBeta,rotRateGamma,interval
0,137.0,0.0,0.0,0.0,0.0,3.4000000000000004,8.9,-0.5,-2.7,0.5,16
1,160.0,0.0,0.0,0.0,-1.6,5.0,8.200000000000001,-0.1,-3.4,0.8,16
2,170.0,0.0,0.0,0.0,-1.6,5.0,8.200000000000001,-0.1,-3.4,0.8,16
3,186.0,0.0,0.0,0.0,-1.6,5.0,8.3,-0.8,-1.2000000000000002,1.3,16
4,203.0,0.0,0.0,0.0,-1.6,5.0,8.3,0.1,0.8,2.0,16
5,225.0,0.0,0.1,0.0,-1.6,5.1000000000000005,8.3,0.6000000000000001,0.0,2.5,16
6,236.0,0.0,0.1,0.0,-1.5,5.2,8.3,1.1,-1.9,2.3,16
7,276.0,0.0,0.1,0.0,-1.5,5.2,8.3,4.2,-1.9,1.9,16
8,288.0,0.0,0.1,0.0,-1.5,5.300000000000001,8.200000000000001,5.500000000000001,-1.1,1.7,16
9,312.0,0.0,0.1,-0.1,-1.5,5.300000000000001,8.1,5.6,-2.0,1.7,16
10,325.0,0.1,0.1,-0.1,-1.4000000000000001,5.300000000000001,8.1,5.9,-2.9,1.2000000000000002,16
11,339.0,0.1,0.1,-0.1,-1.4000000000000001,5.300000000000001,8.1,6.0,-3.8,-0.1,16
12,356.0,0.1,0.0,-0.1,-1.4000000000000001,5.2,8.1,5.8,-5.500000000000001,-1.7,16
13,373.0,0.0,0.0,-0.1,-1.5,5.2,8.1,6.1000000000000005,-7.300000000000001,-3.0,16
14,386.0,-0.1,0.0,-0.1,-1.5,5.2,8.1,6.8,-7.699999999999999,-2.1,16
15,403.0,-0.1,0.0,-0.1,-1.5,5.2,8.1,7.1000000000000005,-8.2,-1.4,16
16,420.0,-0.1,0.0,-0.1,-1.5,5.2,8.1,7.1000000000000005,-8.2,-1.4,16
17,436.0,-0.1,0.0,-0.1,-1.5,5.300000000000001,8.0,5.1000000000000005,-6.2,-0.1,16
18,454.0,-0.1,0.0,-0.1,-1.5,5.300000000000001,8.0,3.7000000000000006,-4.7,-0.2,16
19,469.0,-0.1,0.0,-0.1,-1.5,5.300000000000001,8.0,3.7000000000000006,-4.7,-0.2,16
20,486.0,-0.1,0.0,-0.1,-1.5,5.300000000000001,8.0,2.4000000000000004,-2.0,0.5,16
21,503.0,-0.1,0.0,-0.1,-1.5,5.300000000000001,8.0,1.7,-0.8,0.4,16
22,520.0,-0.1,-0.1,-0.1,-1.5,5.300000000000001,8.0,1.7,-0.8,0.4,16
23,536.0,-0.1,-0.1,0.0,-1.5,5.2,8.1,-0.4,-1.2000000000000002,0.5,16
24,553.0,-0.1,0.0,0.1,-1.5,5.300000000000001,8.200000000000001,-0.6000000000000001,-1.5,0.30000000000000004,16
25,570.0,-0.1,-0.1,0.1,-1.5,5.300000000000001,8.200000000000001,-0.6000000000000001,-1.5,0.30000000000000004,16
26,586.0,-0.1,-0.1,0.1,-1.5,5.2,8.200000000000001,1.7,-1.7,1.8000000000000003,16
27,603.0,-0.1,-0.1,0.1,-1.5,5.2,8.200000000000001,1.7,-1.7,1.8000000000000003,16
28,620.0,0.0,0.0,0.1,-1.4000000000000001,5.300000000000001,8.200000000000001,2.5,-2.9,2.5,16
29,636.0,-0.1,0.0,0.0,-1.5,5.300000000000001,8.1,3.4,-2.7,2.3,16
30,653.0,-0.1,0.0,0.0,-1.5,5.300000000000001,8.1,4.4,-2.0,2.9,16
31,673.0,-0.1,0.0,-0.1,-1.5,5.4,8.0,4.300000000000001,-3.0,3.3000000000000007,16
32,686.0,-0.1,0.0,-0.1,-1.4000000000000001,5.4,8.0,3.6000000000000005,-3.0,3.0,16
33,705.0,-0.1,0.0,-0.1,-1.5,5.4,8.0,3.2,-1.8000000000000003,2.7,16
34,719.0,-0.1,-0.1,-0.1,-1.5,5.300000000000001,8.0,3.1,-0.4,3.1,16
35,736.0,-0.2,-0.1,-0.1,-1.5,5.300000000000001,7.9,2.7,-0.2,3.5,16
36,753.0,-0.1,-0.1,-0.2,-1.5,5.300000000000001,7.9,2.7,-0.2,3.5,16
37,770.0,-0.1,-0.1,-0.1,-1.4000000000000001,5.2,8.0,-0.1,-3.7000000000000006,3.8,16
38,786.0,-0.1,-0.2,0.0,-1.4000000000000001,5.2,8.1,-0.1,-2.9,3.9,16
39,803.0,-0.1,-0.2,0.1,-1.4000000000000001,5.2,8.1,-0.1,-2.9,3.9,16
40,820.0,-0.1,-0.2,0.0,-1.4000000000000001,5.2,8.0,1.5,-0.8,6.9,16
41,836.0,-0.1,-0.1,-0.1,-1.4000000000000001,5.300000000000001,7.9,0.4,0.2,7.699999999999999,16
42,853.0,-0.1,-0.1,-0.1,-1.4000000000000001,5.300000000000001,7.9,0.4,0.2,7.699999999999999,16
43,872.0,-0.1,0.0,-0.1,-1.5,5.4,8.0,-1.2000000000000002,0.9000000000000001,8.899999999999999,16
44,889.0,-0.2,0.0,-0.1,-1.5,5.4,7.9,-0.30000000000000004,1.2000000000000002,10.299999999999999,16
45,903.0,-0.2,0.1,-0.1,-1.5,5.4,7.9,-0.30000000000000004,1.2000000000000002,10.299999999999999,16
46,920.0,-0.1,0.1,-0.2,-1.3,5.5,7.9,-2.0,-1.1,11.4,16
47,936.0,0.0,0.1,-0.1,-1.3,5.5,7.9,-4.0,0.7,10.9,16
48,954.0,0.0,0.1,0.0,-1.3,5.5,7.9,-4.0,0.7,10.9,16
49,970.0,0.0,0.0,0.0,-1.3,5.4,8.1,-7.0,5.7,10.9,16
50,986.0,-0.1,0.0,0.1,-1.3,5.4,8.1,-7.0,6.600000000000001,11.5,16
51,1003.0,0.0,0.0,0.1,-1.2000000000000002,5.300000000000001,8.200000000000001,-6.699999999999999,6.0,12.200000000000001,16
52,1020.0,0.0,0.0,0.2,-1.2000000000000002,5.300000000000001,8.3,-5.7,4.5,12.4,16
53,1037.0,0.1,0.0,0.2,-1.2000000000000002,5.300000000000001,8.3,-4.0,3.6000000000000005,12.5,16
54,1054.0,0.0,-0.1,0.1,-1.2000000000000002,5.2,8.1,-2.7,3.3000000000000007,12.8,16
55,1070.0,0.0,-0.1,0.0,-1.2000000000000002,5.2,8.1,-3.1,2.4000000000000004,13.399999999999999,16
56,1090.0,0.0,-0.1,0.0,-1.2000000000000002,5.2,8.1,-4.4,2.1,13.8,16
57,1105.0,0.0,-0.1,0.0,-1.2000000000000002,5.2,8.1,-5.9,2.7,13.900000000000002,16
58,1120.0,0.0,-0.1,0.0,-1.3,5.2,8.1,-7.0,4.7,14.400000000000002,16
59,1140.0,-0.1,0.0,0.0,-1.3,5.2,8.1,-7.8,5.9,15.299999999999999,16
60,1161.0,-0.1,0.0,0.1,-1.3,5.300000000000001,8.200000000000001,-8.700000000000001,3.7000000000000006,16.200000000000003,16
61,1170.0,-0.1,0.1,0.2,-1.2000000000000002,5.300000000000001,8.4,-9.100000000000001,-0.1,16.3,16
62,1186.0,-0.1,0.0,0.30000000000000004,-1.2000000000000002,5.300000000000001,8.4,-9.100000000000001,-0.1,16.3,16
63,1203.0,-0.1,0.0,0.4,-1.2000000000000002,5.2,8.6,-6.2,2.6,17.200000000000003,16
64,1220.0,-0.2,0.0,0.30000000000000004,-1.4000000000000001,5.2,8.5,-3.9,6.4,17.7,16
65,1237.0,-0.4,0.0,0.2,-1.4000000000000001,5.2,8.5,-3.9,6.4,17.7,16
66,1253.0,-0.6000000000000001,0.0,0.1,-1.7000000000000002,5.1000000000000005,8.3,-2.8,6.4,22.4,16
67,1269.0,-0.5,-0.1,0.1,-1.6,5.1000000000000005,8.4,-3.4,5.7,25.0,16
68,1286.0,-0.5,-0.1,0.1,-1.6,5.1000000000000005,8.4,-3.4,5.7,25.0,16
69,1303.0,-0.7000000000000001,-0.2,0.2,-1.9000000000000001,4.9,8.5,-3.6000000000000005,4.5,30.000000000000004,16
70,1319.0,-0.8,-0.4,0.30000000000000004,-2.0,4.7,8.700000000000001,-3.2,4.5,34.2,16
71,1337.0,-0.9,-0.5,0.4,-2.0,4.7,8.700000000000001,-3.2,4.5,34.2,16
72,1354.0,-0.8,-0.6000000000000001,0.6000000000000001,-2.0,4.5,8.9,2.0,13.700000000000001,49.1,16
73,1370.0,-0.8,-0.6000000000000001,0.6000000000000001,-2.0,4.4,8.9,7.0,19.0,57.3,16
74,1386.0,-0.9,-0.8,0.6000000000000001,-2.0,4.4,8.9,7.0,19.0,57.3,16
75,1403.0,-1.0,-0.9,0.6000000000000001,-2.2,4.3,8.9,17.7,35.2,76.80000000000001,16
76,1421.0,-1.1,-0.8,0.4,-2.3000000000000003,4.4,8.700000000000001,22.3,47.7,90.4,16
77,1436.0,-1.0,-0.8,0.30000000000000004,-2.0,4.4,8.5,25.900000000000002,61.0,104.7,16
78,1453.0,-0.6000000000000001,-0.8,0.30000000000000004,-1.7000000000000002,4.6000000000000005,8.4,30.5,70.3,115.60000000000001,16
79,1469.0,-0.4,-0.7000000000000001,0.1,-1.7000000000000002,4.6000000000000005,8.4,30.5,70.3,115.60000000000001,16
80,1486.0,0.30000000000000004,-0.5,-0.2,-0.7000000000000001,5.2,7.6000000000000005,37.300000000000004,65.5,124.50000000000001,16
81,1503.0,0.7000000000000001,-0.2,-0.6000000000000001,-0.30000000000000004,5.5,7.300000000000001,37.50000000000001,56.50000000000001,120.7,16
82,1520.0,0.8,-0.1,-0.8,-0.30000000000000004,5.5,7.300000000000001,37.50000000000001,56.50000000000001,120.7,16
83,1538.0,0.9,0.1,-1.1,0.1,6.1000000000000005,6.7,32.0,33.7,105.3,16
84,1556.0,1.1,0.30000000000000004,-1.2000000000000002,0.4,6.300000000000001,6.6000000000000005,24.5,21.0,95.0,16
85,1570.0,1.1,0.30000000000000004,-1.1,0.4,6.300000000000001,6.6000000000000005,24.5,21.0,95.0,16
86,1586.0,1.1,0.30000000000000004,-1.0,0.5,6.300000000000001,6.7,11.3,15.000000000000002,76.4,16
87,1603.0,0.8,0.1,-0.9,0.30000000000000004,6.2,6.7,4.7,22.8,69.5,16
88,1620.0,0.6000000000000001,0.1,-0.9,0.30000000000000004,6.2,6.7,4.7,22.8,69.5,16
89,1636.0,0.1,0.0,-0.7000000000000001,-0.30000000000000004,6.0,7.1000000000000005,-13.000000000000002,41.6,68.0,16
90,1654.0,-0.1,-0.2,-0.2,-0.4,5.800000000000001,7.6000000000000005,-20.599999999999998,49.50000000000001,74.5,16
91,1669.0,-0.2,-0.30000000000000004,0.1,-0.4,5.800000000000001,7.6000000000000005,-20.599999999999998,49.50000000000001,74.5,16
92,1686.0,0.1,-0.30000000000000004,0.7000000000000001,-0.1,5.7,8.6,-21.300000000000004,52.5,89.0,16
93,1703.0,0.30000000000000004,-0.30000000000000004,1.0,0.2,5.7,8.8,-15.000000000000002,48.70000000000001,91.50000000000001,16
94,1720.0,0.4,-0.2,1.1,0.2,5.7,8.8,-15.000000000000002,48.70000000000001,91.50000000000001,16
95,1738.0,0.7000000000000001,-0.2,0.9,0.7000000000000001,5.7,8.6,-2.8,37.300000000000004,87.60000000000001,16
96,1753.0,0.7000000000000001,-0.1,0.5,0.6000000000000001,5.800000000000001,8.3,-0.2,38.800000000000004,83.5,16
97,1769.0,0.6000000000000001,-0.1,0.30000000000000004,0.6000000000000001,5.800000000000001,8.3,-0.2,38.800000000000004,83.5,16
98,1786.0,0.8,-0.7000000000000001,-0.4,0.8,5.2,7.5,-5.7,55.3,75.2,16
99,1803.0,-0.4,0.5,0.6000000000000001,-0.4,6.5,8.4,-5.7,55.3,75.2,16
100,1820.0,-0.6000000000000001,0.9,0.4,-0.1,6.1000000000000005,8.3,-15.100000000000001,55.3,87.10000000000001,16
101,1837.0,0.5,-0.30000000000000004,0.6000000000000001,0.9,5.5,8.700000000000001,-11.700000000000001,58.0,96.1,16
102,1853.0,1.0,-0.30000000000000004,0.8,0.9,5.5,8.700000000000001,-11.700000000000001,58.0,96.1,16
103,1878.0,1.6,0.30000000000000004,1.1,1.8,6.0,9.0,9.5,50.1,95.0,16
104,1886.0,1.8,0.2,0.9,2.1,6.0,8.700000000000001,20.3,40.4,85.69999999999999,16
105,1903.0,1.8,0.2,0.7000000000000001,2.1,6.0,8.700000000000001,20.3,40.4,85.69999999999999,16
106,1920.0,1.5,0.2,0.1,1.7000000000000002,6.0,7.6000000000000005,27.800000000000004,26.200000000000003,56.300000000000004,16
107,1936.0,1.1,0.0,-0.5,1.4000000000000001,5.9,7.300000000000001,22.700000000000003,27.700000000000003,47.7,16
108,1955.0,0.8,-0.2,-0.7000000000000001,1.2000000000000002,5.800000000000001,7.1000000000000005,14.800000000000002,32.9,40.7,16
109,1970.0,0.6000000000000001,-0.30000000000000004,-0.7000000000000001,0.9,5.7,7.0,5.7,39.400000000000006,34.50000000000001,16
110,1986.0,0.2,-0.4,-0.6000000000000001,0.6000000000000001,5.6000000000000005,7.2,-3.0,44.10000000000001,30.200000000000003,16
111,2003.0,0.2,-0.4,-0.5,0.6000000000000001,5.6000000000000005,7.2,-3.0,44.10000000000001,30.200000000000003,16
112,2020.0,-0.1,-0.5,-0.2,0.0,5.4,7.7,-15.000000000000002,44.10000000000001,25.0,16
113,2036.0,-0.30000000000000004,-0.7000000000000001,0.1,-0.1,5.2,8.0,-17.9,44.4,25.300000000000004,16
114,2053.0,-0.4,-0.8,0.2,-0.1,5.2,8.0,-17.9,44.4,25.300000000000004,16
115,2069.0,-0.30000000000000004,-0.8,0.5,-0.1,5.0,8.5,-19.9,52.7,33.7,16
116,2086.0,-0.1,-0.8,0.7000000000000001,0.0,4.9,8.700000000000001,-17.9,54.800000000000004,34.2,16
117,2103.0,0.1,-0.9,0.8,0.0,4.9,8.700000000000001,-17.9,54.800000000000004,34.2,16
118,2121.0,0.2,-1.0,0.7000000000000001,0.1,4.7,8.700000000000001,-10.299999999999999,51.800000000000004,27.700000000000003,16
119,2139.0,0.1,-1.0,0.5,-0.1,4.6000000000000005,8.4,-6.2,49.199999999999996,26.6,16
120,2156.0,0.1,-1.0,0.30000000000000004,-0.1,4.6000000000000005,8.4,-6.2,49.199999999999996,26.6,16
121,2169.0,0.1,-1.0,-0.1,-0.1,4.6000000000000005,7.9,-4.2,47.0,31.799999999999997,16
122,2187.0,0.2,-1.1,-0.2,-0.1,4.6000000000000005,7.9,-4.2,47.0,31.799999999999997,16
123,2203.0,0.4,-1.0,-0.2,0.0,4.5,7.800000000000001,-7.200000000000001,47.80000000000001,35.699999999999996,16
124,2220.0,0.5,-1.1,-0.2,0.1,4.4,7.9,-14.100000000000001,48.10000000000001,41.6,16
125,2236.0,0.6000000000000001,-1.1,-0.1,0.1,4.4,7.9,-14.100000000000001,48.10000000000001,41.6,16
126,2268.0,1.1,-1.1,0.30000000000000004,0.6000000000000001,4.3,8.3,-15.2,25.6,48.10000000000001,16
127,2270.0,1.1,-1.1,0.30000000000000004,0.6000000000000001,4.3,8.3,-15.2,25.6,48.10000000000001,16
128,2286.0,1.0,-1.1,0.2,0.6000000000000001,4.3,8.3,-15.2,25.6,48.10000000000001,16
129,2303.0,1.2000000000000002,-0.8,0.5,0.9,4.5,8.6,-5.500000000000001,8.4,42.5,16
130,2320.0,1.4000000000000001,-0.8,0.6000000000000001,1.1,4.5,8.8,1.0,-4.800000000000001,35.8,16
131,2350.0,1.0,-0.4,0.30000000000000004,0.9,4.9,8.700000000000001,10.9,-13.6,26.300000000000004,16
132,2357.0,1.0,-0.4,0.30000000000000004,0.9,4.9,8.700000000000001,10.9,-13.6,26.300000000000004,16
133,2372.0,0.8,-0.5,0.1,0.9,4.800000000000001,8.200000000000001,9.4,-18.200000000000003,24.900000000000002,16
134,2386.0,0.9,-0.6000000000000001,0.0,0.9,4.800000000000001,8.200000000000001,9.4,-18.200000000000003,24.900000000000002,16
135,2403.0,0.9,-0.5,-0.1,1.2000000000000002,4.9,7.9,0.2,-11.2,19.1,16
136,2420.0,1.0,-0.4,-0.2,1.4000000000000001,4.9,7.9,-6.0,-9.0,14.800000000000002,16
137,2437.0,1.1,-0.4,-0.2,1.4000000000000001,4.9,7.9,-6.0,-9.0,14.800000000000002,16
138,2460.0,1.0,-0.2,-0.30000000000000004,1.4000000000000001,5.0,7.9,-18.1,-7.300000000000001,6.2,16
139,2471.0,1.0,-0.2,-0.30000000000000004,1.4000000000000001,5.0,7.9,-24.8,-7.0,3.2,16
140,2486.0,0.9,-0.1,-0.30000000000000004,1.4000000000000001,5.0,7.9,-24.8,-7.0,3.2,16
141,2503.0,1.0,-0.2,-0.1,1.5,4.7,8.3,-38.400000000000006,-0.9000000000000001,-0.30000000000000004,16
142,2520.0,1.1,-0.30000000000000004,0.2,1.6,4.6000000000000005,8.700000000000001,-42.400000000000006,-0.4,-4.1,16
143,2544.0,1.0,-0.2,0.5,1.5,4.5,8.9,-44.00000000000001,-2.1,-8.0,16
144,2559.0,0.9,-0.30000000000000004,0.5,1.5,4.4,9.1,-43.900000000000006,-4.6,-10.200000000000001,16
145,2570.0,0.9,-0.30000000000000004,0.6000000000000001,1.5,4.4,9.1,-43.900000000000006,-4.6,-10.200000000000001,16
146,2588.0,0.9,-0.4,0.6000000000000001,1.5,4.2,9.200000000000001,-42.7,-5.8,-11.1,16
147,2606.0,0.8,-0.4,0.7000000000000001,1.4000000000000001,3.9000000000000004,9.5,-38.2,-2.9,-11.6,16
148,2622.0,0.8,-0.5,0.7000000000000001,1.4000000000000001,3.7,9.5,-34.900000000000006,-1.5,-12.5,16
149,2639.0,0.8,-0.5,0.6000000000000001,1.4000000000000001,3.5,9.5,-31.0,-0.1,-13.5,16
150,2653.0,0.8,-0.7000000000000001,0.6000000000000001,1.3,3.4000000000000004,9.5,-26.5,-0.2,-15.399999999999999,16
151,2671.0,0.5,-0.6000000000000001,0.6000000000000001,1.1,3.4000000000000004,9.5,-21.400000000000002,-4.300000000000001,-17.5,16
152,2686.0,0.4,-0.6000000000000001,0.6000000000000001,1.0,3.4000000000000004,9.5,-16.200000000000003,-9.2,-17.300000000000004,16
153,2703.0,0.30000000000000004,-0.6000000000000001,0.6000000000000001,0.9,3.3000000000000003,9.5,-11.900000000000002,-11.8,-15.2,16
154,2720.0,0.30000000000000004,-0.7000000000000001,0.5,0.9,3.3000000000000003,9.5,-11.900000000000002,-11.8,-15.2,16
155,2737.0,0.2,-0.6000000000000001,0.30000000000000004,0.9,3.4000000000000004,9.200000000000001,-7.200000000000001,-12.100000000000001,-10.8,16
156,2758.0,0.2,-0.5,0.2,0.9,3.4000000000000004,9.200000000000001,-7.8,-12.5,-8.600000000000001,16
157,2769.0,0.2,-0.4,0.2,0.9,3.4000000000000004,9.200000000000001,-7.8,-12.5,-8.600000000000001,16
158,2786.0,0.0,-0.30000000000000004,0.2,0.7000000000000001,3.5,9.200000000000001,-10.700000000000001,-16.1,-2.6,16
159,2806.0,-0.1,-0.2,0.2,0.7000000000000001,3.6,9.3,-10.299999999999999,-16.6,1.7,16
160,2820.0,0.0,-0.2,0.30000000000000004,0.7000000000000001,3.6,9.3,-10.299999999999999,-16.6,1.7,16
161,2836.0,0.1,-0.1,0.2,1.0,3.7,9.200000000000001,-5.500000000000001,-13.3,5.6,16
162,2854.0,0.2,0.1,0.1,1.0,3.8000000000000003,9.1,-3.9,-10.5,4.9,16
163,2874.0,-0.1,0.30000000000000004,0.0,0.9,4.0,9.0,-3.4,-9.0,4.0,16
164,2889.0,-0.2,0.30000000000000004,-0.1,0.7000000000000001,4.1000000000000005,8.9,-4.6,-9.8,4.0,16
165,2905.0,-0.4,0.30000000000000004,-0.1,0.6000000000000001,4.1000000000000005,8.9,-6.4,-10.200000000000001,4.800000000000001,16
166,2922.0,-0.4,0.30000000000000004,-0.1,0.6000000000000001,4.1000000000000005,8.9,-6.4,-10.200000000000001,4.800000000000001,16
167,2938.0,-0.4,0.2,0.0,0.7000000000000001,3.8000000000000003,9.1,-10.299999999999999,-8.5,6.600000000000001,16
168,2967.0,-0.30000000000000004,0.0,0.30000000000000004,0.7000000000000001,3.7,9.3,-11.000000000000002,-6.600000000000001,6.699999999999999,16
169,2973.0,-0.2,-0.1,0.4,0.8,3.5,9.5,-10.4,-3.9,6.600000000000001,16
170,2990.0,-0.2,-0.2,0.4,0.9,3.3000000000000003,9.600000000000001,-8.700000000000001,-1.9,5.9,16
171,3004.0,-0.1,-0.4,0.5,1.0,3.1,9.700000000000001,-6.8,0.5,5.6,16
172,3020.0,0.0,-0.5,0.5,1.0,3.1,9.700000000000001,-6.8,0.5,5.6,16
173,3036.0,0.1,-0.5,0.6000000000000001,1.3,3.0,9.8,-2.5,7.0,5.9,16
174,3053.0,0.30000000000000004,-0.5,0.6000000000000001,1.3,3.0,9.8,-2.5,7.0,5.9,16
175,3070.0,0.5,-0.7000000000000001,0.6000000000000001,1.4000000000000001,2.7,9.8,3.4,18.200000000000003,0.30000000000000004,16
176,3088.0,0.30000000000000004,-0.6000000000000001,0.4,1.2000000000000002,2.8000000000000003,9.600000000000001,6.2,20.400000000000002,-0.6000000000000001,16
177,3105.0,0.2,-0.6000000000000001,0.30000000000000004,1.2000000000000002,2.8000000000000003,9.600000000000001,6.2,20.400000000000002,-0.6000000000000001,16
178,3120.0,0.1,-0.6000000000000001,0.1,1.0,2.9000000000000004,9.3,6.1000000000000005,9.4,5.2,16
179,3145.0,0.2,-0.6000000000000001,0.0,1.2000000000000002,2.8000000000000003,9.200000000000001,5.8,3.7000000000000006,9.0,16
180,3165.0,0.6000000000000001,-0.7000000000000001,-0.1,1.5,2.8000000000000003,9.1,6.500000000000001,-0.1,10.700000000000001,16
181,3177.0,0.7000000000000001,-0.7000000000000001,-0.4,1.6,2.8000000000000003,8.9,7.300000000000001,-2.2,10.4,16
182,3187.0,0.7000000000000001,-0.6000000000000001,-0.5,1.7000000000000002,3.0,8.8,6.8,-3.1,9.5,16
183,3203.0,0.7000000000000001,-0.5,-0.5,1.7000000000000002,3.0,8.8,6.8,-3.1,9.5,16
184,3220.0,0.8,-0.30000000000000004,-0.6000000000000001,1.8,3.3000000000000003,8.700000000000001,3.7000000000000006,-6.500000000000001,4.800000000000001,16
185,3236.0,0.7000000000000001,-0.1,-0.5,1.8,3.4000000000000004,8.700000000000001,1.7,-10.200000000000001,0.30000000000000004,16
186,3258.0,0.7000000000000001,-0.1,-0.4,1.8,3.5,8.9,-0.2,-11.900000000000002,-4.6,16
187,3270.0,0.7000000000000001,0.0,-0.30000000000000004,1.8,3.5,9.0,-2.0,-11.700000000000001,-9.700000000000001,16
188,3287.0,0.6000000000000001,0.0,-0.1,1.7000000000000002,3.6,9.200000000000001,-3.2,-10.5,-14.800000000000002,16
189,3304.0,0.5,0.1,0.0,1.7000000000000002,3.6,9.200000000000001,-3.2,-10.5,-14.800000000000002,16
190,3326.0,0.1,0.1,0.2,1.3,3.6,9.4,-3.9,-6.9,-21.1,16
191,3337.0,0.1,0.1,0.2,1.3,3.6,9.4,-3.3000000000000007,-5.9,-22.6,16
192,3353.0,0.0,0.1,0.30000000000000004,1.2000000000000002,3.6,9.5,-3.3000000000000007,-5.9,-22.6,16
193,3375.0,-0.1,0.1,0.4,1.1,3.7,9.700000000000001,2.2,-3.8,-21.8,16
194,3388.0,-0.1,0.1,0.4,1.1,3.7,9.700000000000001,5.9,-4.7,-21.500000000000004,16
195,3403.0,-0.1,0.1,0.4,1.1,3.7,9.700000000000001,5.9,-4.7,-21.500000000000004,16
196,3423.0,0.0,0.0,0.30000000000000004,1.1,3.7,9.5,13.399999999999999,-6.4,-21.900000000000002,16
197,3440.0,0.0,0.0,0.2,1.1,3.7,9.4,15.399999999999999,-6.300000000000001,-22.5,16
198,3454.0,0.0,0.0,0.1,1.1,3.7,9.3,16.900000000000002,-3.3000000000000007,-23.099999999999998,16
199,3470.0,-0.1,-0.1,0.0,1.0,3.7,9.200000000000001,18.1,-1.2000000000000002,-23.400000000000002,16
200,3486.0,-0.1,-0.1,-0.1,1.0,3.7,9.200000000000001,18.1,-1.2000000000000002,-23.400000000000002,16
201,3503.0,-0.2,-0.1,-0.30000000000000004,0.9,3.8000000000000003,8.9,17.9,-5.6,-20.599999999999998,16
202,3522.0,-0.1,-0.1,-0.4,1.0,3.8000000000000003,8.700000000000001,16.3,-9.4,-19.700000000000003,16
203,3536.0,0.0,-0.1,-0.5,1.0,3.8000000000000003,8.700000000000001,16.3,-9.4,-19.700000000000003,16
204,3565.0,0.1,-0.2,-0.4,1.2000000000000002,3.8000000000000003,8.6,10.4,-11.8,-19.200000000000003,16
205,3571.0,0.1,-0.30000000000000004,-0.30000000000000004,1.2000000000000002,3.8000000000000003,8.700000000000001,7.6,-10.700000000000001,-19.6,16
206,3591.0,0.2,-0.30000000000000004,-0.2,1.3,3.8000000000000003,8.8,6.500000000000001,-8.700000000000001,-20.0,16
207,3607.0,0.30000000000000004,-0.30000000000000004,-0.2,1.4000000000000001,3.8000000000000003,8.8,7.500000000000001,-7.200000000000001,-21.300000000000004,16
208,3624.0,0.30000000000000004,-0.2,-0.30000000000000004,1.4000000000000001,3.9000000000000004,8.700000000000001,9.0,-8.2,-23.900000000000006,16
209,3636.0,0.30000000000000004,-0.2,-0.30000000000000004,1.4000000000000001,3.9000000000000004,8.700000000000001,9.0,-8.2,-23.900000000000006,16
210,3655.0,0.1,-0.2,-0.5,1.2000000000000002,4.0,8.4,9.700000000000001,-10.600000000000001,-28.500000000000004,16
211,3669.0,0.0,-0.1,-0.6000000000000001,1.0,4.0,8.200000000000001,7.699999999999999,-10.600000000000001,-29.900000000000006,16
212,3686.0,-0.1,-0.1,-0.7000000000000001,1.0,4.0,8.200000000000001,7.699999999999999,-10.600000000000001,-29.900000000000006,16
213,3703.0,-0.2,-0.1,-0.7000000000000001,0.9,4.1000000000000005,8.1,0.1,-9.899999999999999,-30.4,16
214,3720.0,-0.2,0.0,-0.5,0.8,4.2,8.3,-4.0,-10.0,-30.5,16
215,3736.0,-0.30000000000000004,0.1,-0.4,0.8,4.2,8.3,-4.0,-10.0,-30.5,16
216,3757.0,-0.30000000000000004,0.1,0.0,0.6000000000000001,4.2,8.8,-9.600000000000001,-14.0,-29.400000000000002,16
217,3772.0,-0.4,0.1,0.1,0.6000000000000001,4.2,8.8,-9.600000000000001,-14.0,-29.400000000000002,16
218,3792.0,-0.30000000000000004,0.1,0.4,0.7000000000000001,4.2,9.200000000000001,-6.9,-12.4,-25.8,16
219,3810.0,-0.30000000000000004,0.1,0.4,0.7000000000000001,4.2,9.200000000000001,-3.5,-11.2,-24.900000000000002,16
220,3821.0,-0.2,0.1,0.4,0.7000000000000001,4.2,9.200000000000001,-3.5,-11.2,-24.900000000000002,16
221,3837.0,-0.30000000000000004,0.1,0.30000000000000004,0.7000000000000001,4.3,9.1,-0.5,-11.000000000000002,-24.5,16
222,3855.0,-0.30000000000000004,0.1,0.2,0.6000000000000001,4.3,8.9,3.2,-11.1,-22.3,16
223,3870.0,-0.30000000000000004,0.1,0.1,0.6000000000000001,4.3,8.9,3.2,-11.1,-22.3,16
224,3886.0,-0.30000000000000004,0.1,0.0,0.5,4.4,8.700000000000001,4.7,-12.5,-19.9,16
225,3903.0,-0.30000000000000004,0.2,-0.1,0.6000000000000001,4.4,8.6,3.6000000000000005,-12.9,-18.4,16
226,3921.0,-0.2,0.1,-0.2,0.6000000000000001,4.4,8.6,3.6000000000000005,-12.9,-18.4,16
227,3936.0,-0.1,0.1,-0.2,0.7000000000000001,4.3,8.6,1.6,-10.4,-17.300000000000004,16
228,3965.0,-0.1,0.1,-0.2,0.7000000000000001,4.3,8.6,1.4,-10.700000000000001,-17.1,16
229,3970.0,-0.1,0.1,-0.2,0.7000000000000001,4.3,8.6,1.4,-10.700000000000001,-17.1,16
230,3987.0,-0.1,0.0,-0.2,0.8,4.3,8.5,1.7,-13.700000000000001,-17.0,16
231,4009.0,-0.1,0.0,-0.30000000000000004,0.8,4.3,8.4,0.5,-14.900000000000002,-17.300000000000004,16
232,4025.0,0.0,0.0,-0.4,0.9,4.3,8.3,-2.3,-15.8,-17.799999999999997,16
233,4041.0,-0.1,0.0,-0.4,0.8,4.3,8.3,-5.7,-17.6,-18.6,16
234,4057.0,-0.2,0.1,-0.30000000000000004,0.8,4.3,8.4,-8.3,-23.5,-19.700000000000003,16
235,4070.0,-0.2,0.0,-0.30000000000000004,0.8,4.3,8.4,-8.3,-23.5,-19.700000000000003,16
236,4087.0,-0.2,-0.1,-0.1,0.8,4.2,8.8,-12.4,-42.5,-19.9,16
237,4104.0,-0.2,0.0,0.4,1.0,4.1000000000000005,9.1,-12.4,-54.4,-18.900000000000002,16
238,4127.0,-0.1,-0.2,0.6000000000000001,1.2000000000000002,3.9000000000000004,9.3,-9.100000000000001,-58.900000000000006,-19.700000000000003,16
239,4140.0,-0.1,-0.4,0.6000000000000001,1.2000000000000002,3.8000000000000003,9.3,-2.9,-53.2,-20.8,16
240,4153.0,-0.2,-0.4,0.6000000000000001,1.2000000000000002,3.9000000000000004,9.1,3.2,-40.4,-19.5,16
241,4171.0,-0.30000000000000004,-0.2,0.4,1.2000000000000002,3.9000000000000004,9.1,3.2,-40.4,-19.5,16
242,4186.0,-0.4,0.1,0.1,1.2000000000000002,4.3,8.6,7.6,-15.5,-14.700000000000001,16
243,4203.0,-0.1,0.2,-0.2,1.4000000000000001,4.4,8.4,6.0,-6.0,-13.900000000000002,16
244,4220.0,-0.1,0.2,-0.30000000000000004,1.4000000000000001,4.4,8.4,6.0,-6.0,-13.900000000000002,16
245,4237.0,-0.2,0.5,-0.30000000000000004,1.2000000000000002,4.800000000000001,8.4,-4.4,-4.7,-13.5,16
246,4256.0,-0.1,0.4,-0.2,1.3,4.7,8.5,-9.0,-8.5,-12.7,16
247,4271.0,-0.1,0.4,-0.1,1.3,4.7,8.5,-9.0,-8.5,-12.7,16
248,4286.0,-0.1,0.30000000000000004,0.2,1.3,4.5,8.9,-12.7,-8.4,-14.200000000000001,16
249,4305.0,-0.2,0.2,0.30000000000000004,1.3,4.5,9.0,-12.0,-5.9,-14.300000000000002,16
250,4320.0,-0.2,0.2,0.4,1.2000000000000002,4.4,9.1,-9.899999999999999,-3.5,-13.700000000000001,16
251,4336.0,-0.2,0.1,0.4,1.2000000000000002,4.4,9.200000000000001,-6.2,-3.0,-12.9,16
252,4353.0,-0.2,0.1,0.4,1.2000000000000002,4.4,9.200000000000001,-6.2,-3.0,-12.9,16
253,4372.0,-0.2,0.1,0.4,1.2000000000000002,4.4,9.1,1.2000000000000002,-6.600000000000001,-11.700000000000001,16
254,4386.0,-0.1,0.1,0.2,1.3,4.3,9.0,3.5,-4.300000000000001,-11.6,16
255,4403.0,-0.1,0.0,0.2,1.3,4.3,9.0,3.5,-4.300000000000001,-11.6,16
256,4420.0,-0.1,0.0,0.0,1.2000000000000002,4.2,8.8,4.4,2.1,-10.1,16
257,4437.0,0.0,-0.1,0.0,1.4000000000000001,4.2,8.700000000000001,4.300000000000001,4.0,-8.0,16
258,4454.0,0.1,-0.1,0.0,1.4000000000000001,4.2,8.700000000000001,4.300000000000001,4.0,-8.0,16
259,4469.0,0.30000000000000004,0.0,0.0,1.7000000000000002,4.4,8.8,5.9,-0.6000000000000001,-7.9,16
260,4486.0,0.4,0.1,0.1,1.7000000000000002,4.4,8.9,7.6,-6.2,-11.000000000000002,16
261,4503.0,0.4,0.1,0.2,1.7000000000000002,4.4,8.9,7.6,-6.2,-11.000000000000002,16
262,4519.0,0.4,0.0,0.1,1.7000000000000002,4.5,8.8,12.0,-10.0,-16.5,16
263,4537.0,0.2,0.1,0.1,1.3,4.7,8.8,12.7,-7.6,-15.899999999999999,16
264,4556.0,-0.30000000000000004,0.2,0.0,1.0,4.7,8.700000000000001,12.9,-5.2,-11.900000000000002,16
265,4575.0,-0.30000000000000004,0.1,-0.1,1.1,4.6000000000000005,8.6,13.900000000000002,1.4,-5.300000000000001,16
266,4586.0,-0.30000000000000004,0.0,-0.1,1.1,4.6000000000000005,8.6,13.900000000000002,1.4,-5.300000000000001,16
267,4603.0,-0.2,0.0,-0.30000000000000004,1.1,4.6000000000000005,8.4,15.5,7.8,-0.30000000000000004,16
268,4622.0,-0.2,0.1,-0.5,1.1,4.7,8.1,15.5,6.2,2.2,16
269,4647.0,-0.2,0.0,-0.4,1.1,4.7,8.1,12.7,2.6,3.1,16
270,4653.0,-0.2,0.0,-0.4,1.1,4.7,8.1,12.7,2.6,3.1,16
271,4671.0,-0.1,-0.1,-0.30000000000000004,1.2000000000000002,4.6000000000000005,8.3,4.5,0.30000000000000004,6.2,16
272,4686.0,0.0,-0.2,-0.2,1.2000000000000002,4.6000000000000005,8.3,4.5,0.30000000000000004,6.2,16
273,4705.0,0.2,-0.30000000000000004,0.0,1.5,4.4,8.5,2.4000000000000004,6.699999999999999,6.0,16
274,4727.0,0.2,-0.30000000000000004,0.0,1.5,4.5,8.5,3.1,7.0,4.9,16
275,4736.0,0.2,-0.30000000000000004,0.0,1.5,4.5,8.5,3.1,7.0,4.9,16
276,4756.0,0.1,-0.2,0.0,1.4000000000000001,4.6000000000000005,8.5,4.800000000000001,2.8,6.1000000000000005,16
277,4770.0,0.2,-0.2,0.1,1.7000000000000002,4.6000000000000005,8.6,6.0,0.4,8.4,16
278,4786.0,0.5,-0.2,0.1,1.7000000000000002,4.6000000000000005,8.6,6.0,0.4,8.4,16
279,4803.0,0.6000000000000001,-0.1,0.2,1.9000000000000001,4.800000000000001,8.6,9.3,-6.699999999999999,4.7,16
280,4819.0,0.4,0.0,0.0,1.8,4.800000000000001,8.5,11.2,-6.9,2.3,16
281,4839.0,0.2,0.1,-0.1,1.7000000000000002,4.9,8.4,11.2,-5.4,2.5,16
282,4864.0,0.2,0.0,-0.1,1.7000000000000002,4.800000000000001,8.3,10.9,-3.1,3.9,16
283,4869.0,0.2,0.0,-0.1,1.7000000000000002,4.800000000000001,8.200000000000001,10.0,-1.3,3.9,16
284,4886.0,0.2,0.0,-0.2,1.7000000000000002,4.800000000000001,8.200000000000001,10.0,-1.3,3.9,16
285,4903.0,0.2,-0.1,-0.2,1.7000000000000002,4.800000000000001,8.1,5.9,3.2,1.2000000000000002,16
286,4919.0,0.1,-0.1,-0.2,1.5,4.800000000000001,8.1,3.6000000000000005,6.2,-0.1,16
287,4937.0,0.0,-0.1,-0.2,1.5,4.800000000000001,8.1,3.6000000000000005,6.2,-0.1,16
288,4957.0,-0.2,-0.2,-0.2,1.3,4.7,8.200000000000001,0.30000000000000004,8.899999999999999,0.4,16
289,4972.0,-0.2,-0.1,-0.1,1.2000000000000002,4.7,8.200000000000001,0.0,8.8,1.1,16
290,4986.0,-0.2,-0.2,-0.1,1.2000000000000002,4.7,8.200000000000001,0.0,8.8,1.1,16
291,5003.0,-0.2,-0.2,-0.1,1.2000000000000002,4.7,8.200000000000001,-0.9000000000000001,7.0,4.5,16
292,5021.0,-0.1,-0.2,-0.1,1.3,4.7,8.3,-1.9,5.2,5.2,16
293,5041.0,-0.1,-0.2,0.0,1.2000000000000002,4.6000000000000005,8.3,-3.2,5.4,5.2,16
294,5053.0,-0.1,-0.2,0.0,1.2000000000000002,4.6000000000000005,8.3,-3.2,5.4,5.2,16
295,5070.0,-0.1,-0.2,0.0,1.2000000000000002,4.6000000000000005,8.3,-3.2,5.4,5.2,16
296,5087.0,-0.2,-0.1,0.1,1.2000000000000002,4.6000000000000005,8.4,-5.500000000000001,10.0,8.5,16
297,5103.0,0.0,0.0,0.1,1.3,4.7,8.5,-1.7,11.000000000000002,12.600000000000001,16
298,5120.0,0.1,0.0,0.1,1.3,4.7,8.5,-1.7,11.000000000000002,12.600000000000001,16
299,5136.0,0.0,0.1,0.0,1.3,4.9,8.3,3.6000000000000005,4.800000000000001,12.7,16
300,5158.0,0.0,0.2,0.0,1.4000000000000001,5.0,8.4,3.7000000000000006,2.2,13.900000000000002,16
301,5169.0,0.1,0.30000000000000004,0.0,1.4000000000000001,5.0,8.4,3.7000000000000006,2.2,13.900000000000002,16
302,5186.0,0.4,0.30000000000000004,0.1,1.9000000000000001,5.2,8.5,1.3,4.9,15.100000000000001,16
303,5203.0,0.7000000000000001,0.4,0.2,2.0,5.2,8.6,1.3,8.4,12.0,16
304,5220.0,0.6000000000000001,0.4,0.2,2.0,5.2,8.6,1.3,8.4,12.0,16
305,5239.0,0.5,0.4,0.1,1.8,5.2,8.5,2.6,9.600000000000001,6.4,16
306,5269.0,0.4,0.4,0.0,1.8,5.300000000000001,8.5,3.3000000000000007,7.0,6.0,16
307,5269.0,0.4,0.4,0.0,1.8,5.300000000000001,8.5,3.3000000000000007,7.0,6.0,16
308,5286.0,0.4,0.30000000000000004,0.0,1.9000000000000001,5.2,8.4,4.1,0.7,2.4000000000000004,16
309,5303.0,0.30000000000000004,0.1,-0.1,1.7000000000000002,5.1000000000000005,8.3,3.7000000000000006,1.0,-0.5,16
310,5320.0,0.2,0.1,-0.1,1.7000000000000002,5.1000000000000005,8.3,3.7000000000000006,1.0,-0.5,16
311,5339.0,0.0,0.0,-0.1,1.4000000000000001,4.9,8.3,1.2000000000000002,1.9,-2.7,16
312,5354.0,-0.1,-0.2,-0.1,1.3,4.800000000000001,8.3,0.7,2.0,-3.0,16
313,5369.0,-0.1,-0.30000000000000004,-0.1,1.3,4.800000000000001,8.3,0.7,2.0,-3.0,16
314,5386.0,-0.2,-0.4,-0.1,1.1,4.4,8.200000000000001,2.7,5.2,-3.3000000000000007,16
315,5406.0,-0.4,-0.6000000000000001,-0.30000000000000004,1.0,4.3,8.0,2.9,5.9,-3.9,16
316,5421.0,-0.5,-0.7000000000000001,-0.30000000000000004,1.0,4.3,8.0,2.9,5.9,-3.9,16
317,5440.0,-0.5,-0.9,0.2,0.6000000000000001,4.0,8.8,2.5,13.100000000000001,0.9000000000000001,16
318,5453.0,-0.8,-0.8,0.6000000000000001,0.6000000000000001,4.0,8.8,2.5,13.100000000000001,0.9000000000000001,16
319,5474.0,-1.1,-0.1,1.1,0.2,4.800000000000001,9.4,18.5,0.4,18.8,16
320,5486.0,-0.9,-0.1,1.1,0.6000000000000001,4.9,9.3,28.900000000000002,-14.600000000000001,25.1,16
321,5503.0,-0.6000000000000001,-0.1,1.0,0.6000000000000001,4.9,9.3,28.900000000000002,-14.600000000000001,25.1,16
322,5520.0,-0.1,-0.1,0.5,1.6,5.1000000000000005,8.4,38.50000000000001,-28.0,27.400000000000002,16
323,5540.0,0.2,-0.1,-0.1,1.9000000000000001,5.1000000000000005,7.9,36.1,-21.400000000000002,26.000000000000004,16
324,5553.0,0.30000000000000004,-0.1,-0.30000000000000004,1.9000000000000001,5.1000000000000005,7.9,36.1,-21.400000000000002,26.000000000000004,16
325,5570.0,0.4,0.0,-0.6000000000000001,2.2,5.4,7.300000000000001,22.2,-4.6,23.2,16
326,5589.0,0.5,0.1,-0.8,2.4000000000000004,5.5,7.1000000000000005,14.100000000000001,0.8,22.3,16
327,5606.0,0.8,0.2,-1.0,2.6,5.5,7.0,6.699999999999999,3.7000000000000006,19.0,16
328,5625.0,0.8,0.2,-1.0,2.7,5.5,6.9,-0.2,4.0,13.8,16
329,5641.0,0.8,0.2,-0.9,2.6,5.6000000000000005,7.1000000000000005,-6.4,1.4,9.0,16
330,5653.0,0.8,0.30000000000000004,-0.8,2.6,5.6000000000000005,7.1000000000000005,-6.4,1.4,9.0,16
331,5671.0,0.8,0.30000000000000004,-0.5,2.7,5.6000000000000005,7.6000000000000005,-13.200000000000003,-3.7000000000000006,0.30000000000000004,16
332,5686.0,0.7000000000000001,0.30000000000000004,-0.30000000000000004,2.6,5.6000000000000005,7.7,-14.600000000000001,-4.0,-3.8,16
333,5703.0,0.7000000000000001,0.4,-0.2,2.6,5.6000000000000005,7.7,-14.600000000000001,-4.0,-3.8,16
334,5720.0,0.6000000000000001,0.30000000000000004,-0.1,2.4000000000000004,5.5,8.0,-16.900000000000002,-2.6,-9.4,16
335,5740.0,0.4,0.30000000000000004,0.1,2.3000000000000003,5.4,8.200000000000001,-17.5,-2.3,-12.7,16
336,5756.0,0.30000000000000004,0.30000000000000004,0.2,2.3000000000000003,5.4,8.200000000000001,-17.5,-2.3,-12.7,16
337,5772.0,0.0,0.30000000000000004,0.30000000000000004,1.8,5.300000000000001,8.5,-16.1,-3.8,-17.9,16
338,5786.0,0.0,0.2,0.4,1.8,5.300000000000001,8.5,-13.900000000000002,-3.0,-17.799999999999997,16
339,5803.0,-0.1,0.0,0.4,1.7000000000000002,5.1000000000000005,8.6,-13.900000000000002,-3.0,-17.799999999999997,16
340,5820.0,-0.2,-0.1,0.4,1.5,4.9,8.5,-7.8,0.5,-18.5,16
341,5837.0,-0.30000000000000004,-0.1,0.4,1.5,4.9,8.5,-7.8,0.5,-18.5,16
342,5859.0,-0.5,-0.2,0.2,1.2000000000000002,4.800000000000001,8.4,-4.5,-1.1,-16.0,16
343,5869.0,-0.6000000000000001,-0.2,0.30000000000000004,1.1,4.800000000000001,8.5,-3.3000000000000007,-2.7,-12.7,16
344,5888.0,-0.5,-0.2,0.2,1.2000000000000002,4.800000000000001,8.4,-1.3,-4.1,-8.600000000000001,16
345,5903.0,-0.5,-0.2,0.2,1.3,4.800000000000001,8.3,0.5,-4.300000000000001,-5.2,16
346,5919.0,-0.30000000000000004,-0.2,0.1,1.4000000000000001,4.800000000000001,8.200000000000001,1.2000000000000002,-2.9,-2.9,16
347,5936.0,-0.30000000000000004,-0.2,0.0,1.4000000000000001,4.800000000000001,8.200000000000001,1.2000000000000002,-2.9,-2.9,16
348,5969.0,0.0,0.0,0.0,1.7000000000000002,5.0,8.200000000000001,-3.0,1.1,2.5,16
349,5970.0,0.0,0.0,0.0,1.7000000000000002,5.0,8.200000000000001,-3.0,1.1,2.5,16
350,5986.0,0.1,0.0,0.0,1.7000000000000002,5.0,8.200000000000001,-3.0,1.1,2.5,16
351,6003.0,0.2,0.1,0.1,1.9000000000000001,5.1000000000000005,8.3,-3.2,2.2,0.8,16
352,6025.0,0.2,0.0,0.0,1.9000000000000001,5.0,8.200000000000001,-2.4000000000000004,2.7,-1.0,16
353,6041.0,0.1,0.1,-0.1,1.8,5.1000000000000005,8.200000000000001,-2.4000000000000004,2.1,-2.1,16
354,6058.0,0.1,0.1,-0.1,1.8,5.0,8.200000000000001,-2.9,1.3,-2.2,16
355,6070.0,0.0,0.1,0.0,1.7000000000000002,5.0,8.3,-3.7000000000000006,-0.8,-1.9,16
356,6088.0,0.0,0.1,0.0,1.7000000000000002,5.0,8.3,-3.7000000000000006,-0.8,-1.9,16
357,6106.0,0.1,0.1,0.1,1.9000000000000001,5.0,8.3,-3.7000000000000006,-0.7,-0.9000000000000001,16
358,6120.0,0.2,0.0,0.1,1.9000000000000001,5.0,8.3,-3.7000000000000006,-0.7,-0.9000000000000001,16
359,6141.0,0.1,0.1,0.0,1.8,5.0,8.3,-2.8,0.30000000000000004,-3.3000000000000007,16
360,6166.0,0.0,0.1,0.0,1.7000000000000002,5.0,8.3,-2.6,-0.4,-3.5,16
361,6169.0,0.0,0.1,0.0,1.7000000000000002,5.0,8.3,-2.6,-0.4,-3.5,16
362,6192.0,0.1,0.1,-0.1,1.8,5.0,8.200000000000001,-2.8,-2.1,-3.9,16
363,6204.0,0.1,0.1,-0.1,1.8,5.0,8.200000000000001,-3.8,-3.1,-5.0,16
364,6221.0,0.1,0.1,-0.1,1.8,5.0,8.200000000000001,-3.8,-3.1,-5.0,16
365,6236.0,0.1,0.1,-0.1,1.8,5.0,8.200000000000001,-5.500000000000001,-1.8000000000000003,-6.2,16
366,6258.0,0.0,0.0,0.0,1.7000000000000002,5.0,8.3,-9.0,3.5,-7.200000000000001,16
367,6272.0,0.0,0.0,0.0,1.7000000000000002,4.9,8.3,-9.3,4.1,-7.300000000000001,16
368,6286.0,0.0,0.0,0.0,1.7000000000000002,4.9,8.3,-9.3,4.1,-7.300000000000001,16
369,6303.0,0.0,0.0,0.1,1.6,4.9,8.4,-8.899999999999999,4.5,-8.899999999999999,16
370,6320.0,-0.1,0.0,0.1,1.6,4.9,8.4,-8.899999999999999,4.5,-8.899999999999999,16
371,6336.0,-0.1,0.0,0.2,1.4000000000000001,4.800000000000001,8.6,-7.699999999999999,1.9,-8.4,16
372,6353.0,-0.2,-0.1,0.30000000000000004,1.4000000000000001,4.7,8.700000000000001,-5.8,1.5,-6.8,16
373,6372.0,-0.1,-0.1,0.30000000000000004,1.4000000000000001,4.7,8.700000000000001,-2.9,0.8,-5.8,16
374,6386.0,-0.1,-0.1,0.2,1.4000000000000001,4.7,8.6,0.0,-0.7,-5.0,16
375,6403.0,-0.2,-0.1,0.1,1.4000000000000001,4.7,8.5,2.5,-1.1,-3.7000000000000006,16
376,6423.0,-0.1,-0.1,-0.1,1.4000000000000001,4.7,8.3,4.1,-1.7,-2.7,16
377,6439.0,-0.1,-0.1,-0.1,1.3,4.7,8.200000000000001,4.0,-2.3,-2.0,16
378,6459.0,-0.2,0.0,-0.30000000000000004,1.3,4.800000000000001,8.1,2.6,-2.7,-1.1,16
379,6470.0,-0.2,0.0,-0.30000000000000004,1.3,4.800000000000001,8.1,2.6,-2.7,-1.1,16
380,6486.0,-0.1,0.1,-0.30000000000000004,1.5,4.9,8.1,-2.9,-3.3000000000000007,0.6000000000000001,16
381,6504.0,0.0,0.0,-0.1,1.5,4.800000000000001,8.3,-4.7,-2.1,0.2,16
382,6520.0,0.0,0.0,-0.1,1.5,4.800000000000001,8.3,-4.7,-2.1,0.2,16
383,6536.0,-0.1,0.1,0.1,1.4000000000000001,4.9,8.5,-5.7,-1.9,0.8,16
384,6561.0,-0.1,0.2,0.2,1.4000000000000001,4.9,8.6,-5.4,-3.1,1.5,16
385,6570.0,-0.1,0.1,0.2,1.4000000000000001,4.9,8.6,-5.4,-3.1,1.5,16
386,6589.0,0.0,0.1,0.30000000000000004,1.6,4.9,8.700000000000001,-1.9,-1.7,1.3,16
387,6604.0,0.1,0.1,0.2,1.6,4.9,8.700000000000001,-0.1,-1.4,0.6000000000000001,16
388,6619.0,0.0,0.1,0.2,1.6,4.9,8.700000000000001,-0.1,-1.4,0.6000000000000001,16
389,6637.0,0.0,0.1,0.1,1.6,4.800000000000001,8.5,1.1,-0.4,-0.1,16
390,6658.0,0.0,0.0,0.1,1.5,4.800000000000001,8.5,1.2000000000000002,0.8,-0.1,16
391,6669.0,-0.1,0.0,0.1,1.5,4.800000000000001,8.5,1.2000000000000002,0.8,-0.1,16
392,6686.0,0.0,0.0,0.1,1.5,4.800000000000001,8.5,1.7,0.1,0.9000000000000001,16
393,6703.0,0.0,0.0,0.1,1.5,4.800000000000001,8.5,1.7,0.1,0.9000000000000001,16
394,6719.0,0.0,0.0,0.0,1.6,4.800000000000001,8.5,2.1,-0.8,1.6,16
395,6736.0,0.0,-0.1,-0.1,1.5,4.7,8.3,1.5,-2.1,2.7,16
396,6756.0,0.0,-0.1,-0.2,1.6,4.7,8.200000000000001,-0.30000000000000004,-4.0,4.2,16
397,6769.0,0.0,-0.1,-0.2,1.7000000000000002,4.6000000000000005,8.3,-2.5,-5.0,5.1000000000000005,16
398,6786.0,0.2,-0.30000000000000004,-0.1,1.9000000000000001,4.5,8.3,-3.2,-1.9,5.300000000000001,16
399,6803.0,0.30000000000000004,-0.30000000000000004,-0.2,1.9000000000000001,4.5,8.3,-3.2,-1.9,5.300000000000001,16
400,6820.0,0.2,-0.2,-0.2,1.8,4.6000000000000005,8.1,-2.4000000000000004,4.0,0.4,16
401,6839.0,0.1,-0.2,-0.30000000000000004,1.6,4.5,8.0,-3.8,5.7,-2.5,16
402,6866.0,-0.4,0.0,-0.2,1.1,4.7,8.3,-12.0,2.8,0.6000000000000001,16
403,6872.0,-0.4,0.0,-0.2,1.1,4.7,8.3,-12.0,2.8,0.6000000000000001,16
404,6886.0,-0.30000000000000004,0.0,0.1,1.3,4.6000000000000005,8.6,-13.100000000000001,1.3,4.4,16
405,6903.0,-0.2,0.0,0.30000000000000004,1.3,4.6000000000000005,8.6,-13.100000000000001,1.3,4.4,16
406,6926.0,0.0,0.0,0.4,1.6,4.6000000000000005,8.9,-6.300000000000001,1.0,6.1000000000000005,16
407,6936.0,0.1,0.1,0.4,1.7000000000000002,4.7,8.9,-0.9000000000000001,2.6,5.0,16
408,6957.0,0.1,0.2,0.2,1.6,4.7,8.8,3.0,3.0,3.6000000000000005,16
409,6975.0,0.0,0.30000000000000004,0.1,1.5,4.800000000000001,8.700000000000001,4.800000000000001,1.1,3.3000000000000007,16
410,6987.0,0.0,0.30000000000000004,0.1,1.6,4.9,8.6,5.300000000000001,-0.5,4.5,16
411,7003.0,0.1,0.30000000000000004,0.1,1.6,4.9,8.6,5.300000000000001,-0.5,4.5,16
412,7019.0,0.30000000000000004,0.2,0.0,2.0,4.800000000000001,8.5,5.1000000000000005,0.4,3.3000000000000007,16
413,7036.0,0.4,0.1,0.0,2.0,4.800000000000001,8.5,5.1000000000000005,2.1,0.30000000000000004,16
414,7054.0,0.30000000000000004,0.1,0.0,2.0,4.800000000000001,8.5,5.1000000000000005,2.1,0.30000000000000004,16
415,7069.0,0.1,0.0,-0.1,1.7000000000000002,4.7,8.4,5.4,2.6,-3.0,16
416,7087.0,0.1,0.0,-0.1,1.7000000000000002,4.7,8.4,5.4,2.6,-3.0,16
417,7103.0,0.0,-0.1,-0.2,1.7000000000000002,4.6000000000000005,8.3,5.9,2.3,-2.2,16
418,7120.0,0.0,-0.1,-0.30000000000000004,1.6,4.7,8.1,4.9,-2.3,-1.3,16
419,7142.0,0.0,-0.1,-0.4,1.6,4.6000000000000005,8.0,3.4,-3.9,-0.5,16
420,7169.0,0.1,-0.1,-0.30000000000000004,1.7000000000000002,4.7,8.1,-1.9,-1.8000000000000003,-1.5,16
421,7187.0,0.0,0.0,-0.30000000000000004,1.7000000000000002,4.7,8.1,-1.9,-1.8000000000000003,-1.5,16
422,7203.0,0.0,0.0,-0.1,1.6,4.7,8.4,-9.0,4.0,-1.8000000000000003,16
423,7220.0,0.0,0.0,0.1,1.6,4.7,8.6,-9.700000000000001,2.9,-1.9,16
424,7236.0,-0.1,0.0,0.2,1.6,4.7,8.6,-9.700000000000001,2.9,-1.9,16
425,7256.0,0.0,0.0,0.30000000000000004,1.6,4.6000000000000005,8.8,-6.300000000000001,-0.4,-0.8,16
426,7271.0,0.0,-0.1,0.4,1.7000000000000002,4.6000000000000005,8.9,-2.4000000000000004,-0.4,-0.30000000000000004,16
427,7286.0,0.1,-0.1,0.4,1.7000000000000002,4.6000000000000005,8.9,-2.4000000000000004,-0.4,-0.30000000000000004,16
428,7303.0,0.0,0.0,0.2,1.6,4.6000000000000005,8.6,4.800000000000001,0.9000000000000001,-1.1,16
429,7319.0,-0.1,0.0,-0.1,1.5,4.7,8.4,5.4,1.0,-1.5,16
430,7336.0,-0.1,0.0,-0.2,1.5,4.7,8.4,5.4,1.0,-1.5,16
431,7358.0,-0.2,0.1,-0.2,1.4000000000000001,4.7,8.200000000000001,1.2000000000000002,0.5,-0.2,16
432,7372.0,-0.1,0.1,-0.1,1.5,4.7,8.3,-1.4,0.2,0.7,16
433,7388.0,0.0,0.0,-0.1,1.5,4.7,8.3,-1.4,0.2,0.7,16
434,7403.0,0.0,0.0,0.0,1.6,4.6000000000000005,8.5,-2.2,2.8,-0.30000000000000004,16
435,7420.0,0.0,0.0,0.1,1.5,4.6000000000000005,8.6,-0.7,3.2,-0.9000000000000001,16
436,7436.0,-0.1,0.0,0.1,1.5,4.6000000000000005,8.6,-0.7,3.2,-0.9000000000000001,16
437,7452.0,-0.1,0.0,0.1,1.5,4.6000000000000005,8.6,1.7,-1.1,1.3,16
438,7473.0,0.0,-0.1,0.0,1.6,4.6000000000000005,8.5,2.4000000000000004,-1.0,2.2,16
439,7491.0,0.1,-0.1,0.0,1.6,4.6000000000000005,8.4,2.4000000000000004,0.2,2.1,16
440,7504.0,0.1,0.0,-0.1,1.6,4.7,8.4,1.4,0.30000000000000004,1.5,16
441,7525.0,0.1,0.0,-0.1,1.6,4.7,8.4,0.1,0.2,1.0,16
442,7536.0,0.0,0.0,-0.1,1.6,4.7,8.4,0.1,0.2,1.0,16
443,7554.0,0.0,0.0,-0.1,1.5,4.7,8.4,-1.7,1.6,1.5,16
444,7570.0,0.0,0.0,-0.1,1.5,4.7,8.4,-1.7,1.6,1.5,16
445,7586.0,0.1,0.0,0.0,1.6,4.7,8.5,-2.3,-0.2,2.4000000000000004,16
446,7603.0,0.1,0.0,0.1,1.7000000000000002,4.6000000000000005,8.5,-1.1,-1.3,1.8000000000000003,16
447,7619.0,0.1,0.0,0.1,1.7000000000000002,4.6000000000000005,8.5,-1.1,-1.3,1.8000000000000003,16
448,7641.0,0.0,0.0,0.0,1.6,4.7,8.5,0.7,-1.6,0.4,16
449,7665.0,-0.1,0.0,0.1,1.6,4.7,8.5,0.30000000000000004,-2.2,1.1,16
450,7669.0,-0.1,0.0,0.1,1.6,4.7,8.5,0.30000000000000004,-2.2,1.1,16
451,7686.0,0.0,0.0,0.1,1.7000000000000002,4.7,8.6,-0.9000000000000001,-1.6,2.7,16
452,7703.0,0.2,0.0,0.2,1.8,4.7,8.6,-0.8,0.0,2.5,16
453,7720.0,0.2,0.0,0.2,1.8,4.7,8.6,-0.8,0.0,2.5,16
454,7736.0,0.1,0.0,0.2,1.7000000000000002,4.7,8.6,2.3,2.0,-0.6000000000000001,16
455,7753.0,0.0,0.0,0.1,1.6,4.7,8.6,4.1,1.1,-0.6000000000000001,16
456,7769.0,0.0,0.0,0.0,1.6,4.7,8.6,4.1,1.1,-0.6000000000000001,16
457,7788.0,0.1,0.0,0.0,1.7000000000000002,4.7,8.4,5.0,-1.2000000000000002,0.0,16
458,7803.0,0.1,0.0,-0.1,1.8,4.7,8.3,4.7,-1.1,-0.6000000000000001,16
459,7819.0,0.1,0.0,-0.1,1.8,4.7,8.3,4.7,-1.1,-0.6000000000000001,16
460,7838.0,0.1,0.0,-0.2,1.7000000000000002,4.7,8.200000000000001,2.0,0.30000000000000004,-2.1,16
461,7859.0,0.1,0.0,-0.2,1.7000000000000002,4.7,8.200000000000001,1.0,0.6000000000000001,-2.5,16
462,7869.0,0.0,0.0,-0.2,1.7000000000000002,4.7,8.200000000000001,1.0,0.6000000000000001,-2.5,16
463,7886.0,0.0,-0.1,-0.2,1.6,4.7,8.200000000000001,-0.2,-2.3,-2.8,16
464,7903.0,-0.1,0.0,-0.2,1.6,4.7,8.200000000000001,-0.2,-2.3,-2.8,16
465,7926.0,0.0,-0.1,-0.1,1.7000000000000002,4.6000000000000005,8.3,-3.2,-3.2,-1.7,16
466,7941.0,0.1,-0.1,0.0,1.7000000000000002,4.6000000000000005,8.5,-4.4,-1.8000000000000003,-2.1,16
467,7953.0,0.0,-0.1,0.1,1.7000000000000002,4.6000000000000005,8.5,-4.4,-1.8000000000000003,-2.1,16
468,7970.0,0.0,0.0,0.2,1.6,4.7,8.6,-3.4,-1.0,-2.8,16
469,7986.0,-0.1,0.0,0.2,1.5,4.7,8.6,-2.4000000000000004,-1.6,-2.2,16
470,8005.0,-0.1,0.0,0.1,1.5,4.7,8.6,-2.4000000000000004,-1.6,-2.2,16
471,8019.0,-0.1,0.0,0.1,1.6,4.7,8.5,-1.3,-1.3,-2.0,16
472,8036.0,-0.1,0.0,0.0,1.6,4.7,8.5,-1.0,-0.4,-2.4000000000000004,16
473,8054.0,-0.1,0.0,0.0,1.6,4.7,8.5,-1.0,-0.4,-2.4000000000000004,16
474,8069.0,-0.1,0.1,0.0,1.6,4.800000000000001,8.5,-0.7,0.2,-2.5,16
475,8086.0,0.0,0.1,0.0,1.6,4.800000000000001,8.4,-1.4,2.5,-2.7,16
476,8103.0,0.0,0.1,0.0,1.6,4.800000000000001,8.4,-1.4,2.5,-2.7,16
477,8119.0,0.0,0.1,0.1,1.6,4.7,8.700000000000001,-3.9,4.4,-3.3000000000000007,16
478,8136.0,0.0,0.1,0.2,1.6,4.7,8.700000000000001,-1.6,1.8000000000000003,-4.0,16
479,8153.0,0.0,0.0,0.30000000000000004,1.6,4.7,8.700000000000001,-1.6,1.8000000000000003,-4.0,16
480,8169.0,0.0,0.0,0.2,1.6,4.6000000000000005,8.6,5.8,-2.8,-3.9,16
481,8186.0,0.0,0.0,0.0,1.5,4.7,8.4,7.0,-2.7,-3.8,16
482,8203.0,-0.1,0.0,-0.1,1.5,4.7,8.4,7.0,-2.7,-3.8,16
483,8220.0,-0.1,-0.1,-0.2,1.5,4.7,8.3,3.8,0.4,-2.7,16
484,8237.0,-0.1,-0.1,-0.2,1.5,4.7,8.3,3.8,0.4,-2.7,16
485,8272.0,-0.1,-0.1,-0.1,1.5,4.7,8.3,0.5,-0.7,-1.0,16
486,8287.0,-0.1,-0.1,-0.2,1.5,4.7,8.3,0.5,-0.7,-1.0,16
487,8303.0,-0.1,-0.1,-0.2,1.5,4.6000000000000005,8.200000000000001,0.5,-0.7,-1.2000000000000002,16
488,8323.0,-0.1,0.0,-0.2,1.4000000000000001,4.7,8.200000000000001,-0.30000000000000004,-1.1,-1.1,16
489,8341.0,-0.1,0.0,-0.1,1.4000000000000001,4.7,8.3,-2.0,-1.5,-0.30000000000000004,16
490,8353.0,-0.1,0.0,-0.1,1.4000000000000001,4.7,8.3,-2.0,-1.5,-0.30000000000000004,16
491,8369.0,0.0,0.0,0.0,1.5,4.7,8.5,-5.300000000000001,-0.8,1.0,16
492,8388.0,0.0,0.0,0.1,1.6,4.7,8.700000000000001,-5.300000000000001,-0.8,1.0,16
493,8405.0,0.1,0.0,0.30000000000000004,1.6,4.7,8.700000000000001,-3.2,1.7,0.30000000000000004,16
494,8425.0,0.1,0.0,0.30000000000000004,1.6,4.7,8.700000000000001,-0.2,0.5,-0.2,16
495,8436.0,0.0,0.0,0.30000000000000004,1.6,4.7,8.700000000000001,-0.2,0.5,-0.2,16
496,8464.0,0.0,0.0,0.1,1.5,4.7,8.5,3.7000000000000006,0.0,0.4,16
497,8469.0,0.0,0.1,0.0,1.6,4.800000000000001,8.4,4.0,1.5,0.7,16
498,8486.0,0.1,0.0,-0.1,1.6,4.800000000000001,8.4,4.0,1.5,0.7,16
499,8505.0,0.1,0.1,-0.1,1.6,4.800000000000001,8.3,2.6,1.2000000000000002,-0.9000000000000001,16
500,8520.0,0.1,0.0,-0.1,1.6,4.800000000000001,8.3,1.8000000000000003,1.0,-1.9,16
501,8536.0,0.1,0.0,-0.1,1.6,4.800000000000001,8.3,1.8000000000000003,1.0,-1.9,16
502,8555.0,0.1,0.0,-0.1,1.6,4.7,8.4,0.30000000000000004,1.5,-3.4,16
503,8572.0,0.1,0.0,0.0,1.5,4.7,8.4,-0.2,1.7,-4.2,16
504,8586.0,0.0,0.0,0.0,1.5,4.7,8.4,-0.2,1.7,-4.2,16
505,8603.0,0.0,0.0,0.0,1.5,4.7,8.5,-1.1,3.4,-3.1,16
506,8621.0,0.0,0.0,0.1,1.5,4.7,8.5,-1.4,3.0,-2.1,16
507,8641.0,0.0,0.0,0.1,1.5,4.7,8.5,-0.2,1.0,-2.3,16
508,8653.0,0.0,-0.1,0.0,1.5,4.7,8.4,1.7,-0.4,-2.7,16
509,8670.0,0.0,-0.1,0.0,1.5,4.7,8.4,1.7,-0.4,-2.7,16
510,8691.0,0.0,-0.1,-0.1,1.5,4.7,8.4,2.4000000000000004,-1.3,-2.5,16
511,8703.0,0.0,-0.1,-0.1,1.5,4.7,8.3,1.4,-1.0,-2.6,16
512,8720.0,0.0,0.0,-0.1,1.5,4.7,8.3,0.1,-0.5,-2.4000000000000004,16
513,8736.0,0.0,0.0,-0.1,1.5,4.7,8.3,0.1,-0.5,-2.4000000000000004,16
514,8757.0,0.0,0.0,0.0,1.5,4.7,8.5,-1.6,-2.5,-2.1,16
515,8769.0,0.0,0.0,0.1,1.5,4.7,8.5,-1.6,-2.5,-2.1,16
516,8786.0,0.1,-0.1,0.1,1.6,4.7,8.5,-0.4,-0.8,-2.2,16
517,8802.0,0.1,-0.1,0.1,1.6,4.7,8.5,0.9000000000000001,-0.8,-2.4000000000000004,16
518,8820.0,0.1,0.0,0.1,1.6,4.7,8.5,0.9000000000000001,-0.8,-2.4000000000000004,16
519,8836.0,0.1,0.0,-0.2,1.5,4.800000000000001,8.1,2.2,-5.300000000000001,-5.7,16
520,8871.0,-0.2,0.1,-0.4,1.4000000000000001,4.800000000000001,8.0,-0.6000000000000001,-7.9,-5.7,16
521,8888.0,-0.2,0.1,-0.1,1.5,4.7,8.4,-8.2,-6.699999999999999,0.2,16
522,8905.0,0.1,0.0,0.2,1.6,4.7,8.700000000000001,-7.0,-5.300000000000001,0.4,16
523,8920.0,0.1,-0.1,0.30000000000000004,1.6,4.7,8.700000000000001,-7.0,-5.300000000000001,0.4,16
524,8938.0,0.1,-0.1,0.4,1.5,4.7,8.8,0.30000000000000004,-4.1,-2.9,16
525,8964.0,-0.2,0.0,0.2,1.4000000000000001,4.7,8.700000000000001,2.8,-2.7,-2.6,16
526,8970.0,-0.2,0.0,0.2,1.4000000000000001,4.7,8.700000000000001,2.8,-2.7,-2.6,16
527,8986.0,-0.2,0.0,0.1,1.4000000000000001,4.800000000000001,8.5,3.1,-2.8,-0.8,16
528,9003.0,-0.1,0.0,0.1,1.4000000000000001,4.800000000000001,8.5,2.1,-2.1,-0.5,16
529,9019.0,-0.1,0.0,0.0,1.4000000000000001,4.800000000000001,8.5,2.1,-2.1,-0.5,16
530,9036.0,-0.1,0.0,0.0,1.4000000000000001,4.7,8.4,0.9000000000000001,1.4,-1.4,16
531,9052.0,-0.1,0.0,0.0,1.4000000000000001,4.800000000000001,8.4,0.30000000000000004,1.3,-1.1,16
532,9069.0,-0.1,0.0,0.0,1.4000000000000001,4.800000000000001,8.4,0.30000000000000004,1.3,-1.1,16
533,9090.0,-0.1,0.0,0.0,1.5,4.7,8.4,-0.2,1.2000000000000002,1.2000000000000002,16
534,9105.0,0.0,0.0,0.0,1.5,4.7,8.4,0.30000000000000004,0.9000000000000001,1.7,16
535,9119.0,0.1,0.0,-0.1,1.5,4.7,8.4,0.30000000000000004,0.9000000000000001,1.7,16
536,9138.0,0.1,0.0,-0.2,1.6,4.800000000000001,8.1,-0.2,-2.2,-0.2,16
537,9161.0,0.0,0.0,-0.30000000000000004,1.5,4.800000000000001,8.1,-2.0,-3.1,-0.5,16
538,9169.0,0.0,0.0,-0.30000000000000004,1.5,4.800000000000001,8.1,-2.0,-3.1,-0.5,16
539,9187.0,-0.1,0.0,-0.1,1.5,4.7,8.4,-6.1000000000000005,-2.3,2.2,16
540,9202.0,0.0,0.0,0.0,1.5,4.7,8.4,-6.1000000000000005,-2.3,2.2,16
541,9220.0,0.2,-0.1,0.2,1.7000000000000002,4.6000000000000005,8.6,-3.6000000000000005,0.30000000000000004,3.0,16
542,9236.0,0.2,0.0,0.2,1.7000000000000002,4.7,8.6,-1.1,-0.30000000000000004,1.8000000000000003,16
543,9268.0,0.1,0.1,0.2,1.6,4.800000000000001,8.6,0.9000000000000001,-1.2000000000000002,1.3,16
544,9272.0,0.1,0.1,0.2,1.6,4.800000000000001,8.6,0.9000000000000001,-1.2000000000000002,1.3,16
545,9288.0,0.1,0.1,0.1,1.7000000000000002,4.800000000000001,8.6,0.6000000000000001,0.7,1.4,16
546,9304.0,0.1,0.1,0.1,1.7000000000000002,4.800000000000001,8.6,0.6000000000000001,0.7,1.4,16
547,9322.0,0.1,0.1,0.1,1.7000000000000002,4.7,8.5,1.1,2.3,0.6000000000000001,16
548,9337.0,0.0,0.0,0.0,1.6,4.7,8.5,2.1,2.1,0.30000000000000004,16
549,9357.0,0.0,0.0,-0.1,1.6,4.7,8.4,2.8,1.2000000000000002,0.4,16
550,9370.0,0.0,0.0,-0.1,1.6,4.7,8.3,2.8,0.1,0.5,16
551,9386.0,0.0,0.0,-0.1,1.6,4.7,8.3,1.9,0.30000000000000004,0.6000000000000001,16
552,9402.0,0.0,0.0,-0.2,1.6,4.7,8.3,1.9,0.30000000000000004,0.6000000000000001,16
553,9422.0,0.0,-0.1,-0.2,1.6,4.7,8.200000000000001,-0.5,1.2000000000000002,1.0,16
554,9438.0,0.0,0.0,-0.1,1.6,4.7,8.3,-2.1,0.0,0.9000000000000001,16
555,9459.0,0.1,0.0,0.0,1.7000000000000002,4.7,8.4,-3.2,-0.4,0.7,16
556,9469.0,0.1,-0.1,0.0,1.7000000000000002,4.6000000000000005,8.4,-2.7,1.0,0.2,16
557,9487.0,0.0,-0.1,0.0,1.6,4.7,8.4,-2.0,1.6,0.1,16
558,9503.0,0.0,0.0,0.0,1.6,4.7,8.4,-2.0,1.6,0.1,16
559,9520.0,0.1,0.0,0.0,1.7000000000000002,4.7,8.4,-1.9,-0.9000000000000001,0.4,16
560,9536.0,0.1,0.0,0.0,1.7000000000000002,4.7,8.4,-1.9,-0.9000000000000001,0.4,16
561,9558.0,0.0,0.0,0.0,1.7000000000000002,4.7,8.4,-2.3,-0.8,0.0,16
562,9572.0,0.0,0.0,0.0,1.7000000000000002,4.6000000000000005,8.4,-2.8,1.8000000000000003,0.5,16
563,9590.0,0.1,0.0,0.0,1.8,4.7,8.5,-3.1,0.6000000000000001,0.8,16
564,9609.0,0.2,0.0,0.1,1.8,4.6000000000000005,8.5,-2.8,-0.7,0.30000000000000004,16
565,9620.0,0.2,-0.1,0.1,1.9000000000000001,4.6000000000000005,8.5,-1.3,0.6000000000000001,-0.2,16
566,9641.0,0.30000000000000004,-0.1,0.0,1.9000000000000001,4.6000000000000005,8.4,0.2,2.0,-0.30000000000000004,16
567,9663.0,0.2,0.0,-0.1,1.9000000000000001,4.6000000000000005,8.3,1.3,1.0,-0.7,16
568,9669.0,0.2,0.0,-0.2,1.9000000000000001,4.7,8.200000000000001,1.4,-1.9,-0.9000000000000001,16
569,9687.0,0.2,0.0,-0.30000000000000004,1.9000000000000001,4.7,8.200000000000001,1.4,-1.9,-0.9000000000000001,16
570,9703.0,0.30000000000000004,0.0,-0.30000000000000004,2.0,4.6000000000000005,8.1,-2.6,-3.9,-0.30000000000000004,16
571,9720.0,0.30000000000000004,0.0,-0.2,2.0,4.6000000000000005,8.200000000000001,-5.4,-3.4,-1.2000000000000002,16
572,9736.0,0.30000000000000004,0.0,-0.2,2.0,4.6000000000000005,8.200000000000001,-5.4,-3.4,-1.2000000000000002,16
573,9753.0,0.2,0.1,0.0,2.0,4.6000000000000005,8.5,-9.5,-4.4,-3.1,16
574,9769.0,0.2,0.0,0.2,2.0,4.6000000000000005,8.6,-9.100000000000001,-4.6,-3.8,16
575,9786.0,0.2,0.0,0.2,2.0,4.6000000000000005,8.6,-9.100000000000001,-4.6,-3.8,16
576,9802.0,0.1,-0.1,0.2,1.8,4.5,8.6,-5.0,-4.300000000000001,-6.500000000000001,16
577,9821.0,-0.1,0.0,0.1,1.7000000000000002,4.5,8.5,-3.3000000000000007,-4.800000000000001,-7.699999999999999,16
578,9837.0,-0.1,0.0,0.0,1.7000000000000002,4.5,8.5,-3.3000000000000007,-4.800000000000001,-7.699999999999999,16
579,9862.0,-0.2,0.0,0.0,1.5,4.5,8.4,-2.0,-5.7,-7.699999999999999,16
580,9870.0,-0.30000000000000004,0.0,0.0,1.5,4.5,8.4,-1.7,-5.2,-7.500000000000001,16
581,9886.0,-0.30000000000000004,0.0,0.0,1.5,4.5,8.4,-1.7,-5.2,-7.500000000000001,16
582,9903.0,-0.2,0.0,-0.1,1.5,4.5,8.3,-1.7,-7.6,-8.3,16
583,9919.0,-0.2,0.0,-0.1,1.5,4.5,8.3,-1.7,-7.6,-8.3,16
584,9938.0,-0.2,0.0,-0.1,1.5,4.5,8.3,-3.6000000000000005,-7.300000000000001,-8.4,16
585,9953.0,-0.1,0.0,0.1,1.7000000000000002,4.5,8.6,-9.0,-4.4,-6.2,16
586,9970.0,-0.1,0.0,0.2,1.7000000000000002,4.5,8.6,-9.0,-4.4,-6.2,16
587,9986.0,0.0,0.0,0.30000000000000004,1.7000000000000002,4.5,8.8,-9.3,-3.0,-5.300000000000001,16
588,10005.0,0.1,0.0,0.30000000000000004,1.8,4.5,8.8,-4.300000000000001,-2.7,-3.8,16
589,10022.0,0.1,0.0,0.2,1.8,4.5,8.700000000000001,-1.9,-4.4,-3.6000000000000005,16
590,10037.0,0.0,0.1,0.1,1.8,4.5,8.6,-0.8,-6.500000000000001,-2.9,16
591,10053.0,0.1,0.1,0.0,1.9000000000000001,4.6000000000000005,8.6,-0.7,-7.6,-1.8000000000000003,16
592,10069.0,0.1,0.1,0.0,1.9000000000000001,4.6000000000000005,8.6,-0.7,-7.6,-1.8000000000000003,16
593,10086.0,0.2,0.1,0.0,2.0,4.6000000000000005,8.5,-1.3,-5.4,-3.6000000000000005,16
594,10104.0,0.2,0.1,0.0,2.0,4.6000000000000005,8.5,-1.3,-5.4,-3.6000000000000005,16
595,10119.0,0.2,0.1,0.0,2.0,4.6000000000000005,8.5,-1.3,-5.4,-3.6000000000000005,16
596,10139.0,0.0,0.1,-0.1,1.8,4.6000000000000005,8.4,-0.6000000000000001,-3.1,-5.500000000000001,16
597,10154.0,-0.1,0.1,-0.2,1.8,4.6000000000000005,8.4,-0.5,-4.800000000000001,-5.0,16
598,10169.0,-0.1,0.1,-0.1,1.8,4.6000000000000005,8.4,-0.5,-4.800000000000001,-5.0,16
599,10186.0,0.0,0.1,-0.1,1.9000000000000001,4.5,8.5,-0.8,-5.4,-2.4000000000000004,16
600,10202.0,0.1,0.0,0.0,2.0,4.5,8.6,-1.1,-4.6,-2.6,16
601,10219.0,0.1,0.0,0.1,2.0,4.5,8.6,-1.1,-4.6,-2.6,16
602,10238.0,0.2,-0.1,0.2,2.0,4.4,8.8,-0.8,2.3,-1.8000000000000003,16
603,10257.0,0.1,-0.2,0.2,2.0,4.3,8.8,1.3,5.7,-1.3,16
604,10269.0,0.1,-0.30000000000000004,0.30000000000000004,2.0,4.3,8.8,1.3,5.7,-1.3,16
605,10286.0,0.0,-0.1,0.2,1.8,4.4,8.700000000000001,5.500000000000001,3.8,0.9000000000000001,16
606,10303.0,0.0,-0.1,0.0,1.8,4.4,8.700000000000001,5.9,-0.1,2.1,16
607,10319.0,0.1,-0.2,0.0,1.9000000000000001,4.3,8.6,5.9,-0.1,2.1,16
608,10336.0,0.2,-0.2,-0.1,2.1,4.3,8.4,3.5,-3.9,0.6000000000000001,16
609,10354.0,0.2,-0.2,-0.2,2.1,4.3,8.3,1.0,-4.300000000000001,-2.4000000000000004,16
610,10369.0,0.2,-0.2,-0.30000000000000004,2.1,4.3,8.3,1.0,-4.300000000000001,-2.4000000000000004,16
611,10386.0,0.2,-0.2,-0.2,2.1,4.2,8.3,-7.1000000000000005,-2.7,-5.8,16
612,10403.0,0.2,-0.30000000000000004,-0.1,2.1,4.2,8.3,-7.1000000000000005,-2.7,-5.8,16
613,10419.0,0.30000000000000004,-0.30000000000000004,-0.1,2.3000000000000003,4.0,8.4,-11.900000000000002,1.1,-8.899999999999999,16
614,10436.0,0.4,-0.30000000000000004,-0.1,2.4000000000000004,4.0,8.4,-13.900000000000002,3.1,-9.899999999999999,16
615,10452.0,0.4,-0.30000000000000004,-0.1,2.4000000000000004,4.0,8.4,-13.900000000000002,3.1,-9.899999999999999,16
616,10472.0,0.4,-0.4,0.0,2.3000000000000003,3.9000000000000004,8.5,-13.100000000000001,4.4,-11.700000000000001,16
617,10486.0,0.4,-0.4,-0.2,2.3000000000000003,3.9000000000000004,8.4,-10.5,4.9,-10.600000000000001,16
618,10502.0,0.4,-0.30000000000000004,-0.2,2.3000000000000003,3.9000000000000004,8.4,-10.5,4.9,-10.600000000000001,16
619,10519.0,0.4,0.0,-0.30000000000000004,2.4000000000000004,4.2,8.200000000000001,-8.0,1.4,-7.699999999999999,16
620,10536.0,0.5,0.1,-0.4,2.5,4.2,8.200000000000001,-8.3,-3.3000000000000007,-7.0,16
621,10552.0,0.5,0.1,-0.4,2.5,4.2,8.200000000000001,-8.3,-3.3000000000000007,-7.0,16
622,10569.0,0.6000000000000001,0.1,-0.2,2.7,4.2,8.4,-10.8,-10.600000000000001,-3.9,16
623,10586.0,0.7000000000000001,0.1,0.0,2.8000000000000003,4.2,8.6,-11.4,-11.8,-2.4000000000000004,16
624,10603.0,0.7000000000000001,0.1,0.1,2.8000000000000003,4.2,8.6,-11.4,-11.8,-2.4000000000000004,16
625,10619.0,0.6000000000000001,0.1,0.30000000000000004,2.7,4.2,8.9,-4.1,-9.100000000000001,3.2,16
626,10640.0,0.5,0.2,0.2,2.8000000000000003,4.3,8.700000000000001,2.4000000000000004,-5.300000000000001,6.8,16
627,10662.0,0.5,0.4,0.0,2.7,4.5,8.5,6.9,-1.2000000000000002,9.600000000000001,16
628,10673.0,0.5,0.6000000000000001,-0.2,2.8000000000000003,4.7,8.200000000000001,8.100000000000001,0.6000000000000001,10.4,16
629,10686.0,0.4,0.5,-0.4,2.8000000000000003,4.7,8.200000000000001,8.100000000000001,0.6000000000000001,10.4,16
630,10707.0,0.30000000000000004,0.6000000000000001,-0.4,2.7,4.800000000000001,8.1,3.2,2.6,11.8,16
631,10719.0,0.30000000000000004,0.6000000000000001,-0.30000000000000004,2.7,4.9,8.200000000000001,2.1,3.9,11.000000000000002,16
632,10736.0,0.30000000000000004,0.6000000000000001,-0.30000000000000004,2.7,4.9,8.200000000000001,2.1,3.9,11.000000000000002,16
633,10754.0,0.4,0.5,-0.30000000000000004,2.8000000000000003,4.800000000000001,8.200000000000001,0.4,2.0,7.200000000000001,16
634,10770.0,0.2,0.4,-0.1,2.4000000000000004,4.6000000000000005,8.4,-6.4,-5.300000000000001,-8.5,16
635,10787.0,-0.2,0.2,0.1,2.2,4.5,8.5,-10.8,-2.5,-11.900000000000002,16
636,10804.0,-0.30000000000000004,0.2,0.1,2.2,4.5,8.5,-10.8,-2.5,-11.900000000000002,16
637,10824.0,-0.2,0.2,0.5,2.1,4.6000000000000005,9.1,-17.200000000000003,18.8,-11.2,16
638,10840.0,-0.30000000000000004,0.5,0.8,1.9000000000000001,4.800000000000001,9.5,-17.0,24.900000000000002,-11.000000000000002,16
639,10852.0,-0.4,0.7000000000000001,1.0,1.5,5.0,9.8,-13.200000000000003,23.800000000000004,-10.1,16
640,10869.0,-0.8,1.0,1.3,1.2000000000000002,5.300000000000001,10.200000000000001,-5.6,15.899999999999999,-6.300000000000001,16
641,10888.0,-0.9,1.1,1.5,1.3,5.4,10.4,2.5,2.4000000000000004,1.0,16
642,10904.0,-0.7000000000000001,1.2000000000000002,1.7000000000000002,1.6,5.6000000000000005,10.600000000000001,8.600000000000001,-12.8,8.3,16
643,10919.0,-0.30000000000000004,1.4000000000000001,2.1,2.0,5.6000000000000005,10.8,13.900000000000002,-24.8,11.6,16
644,10936.0,0.0,1.3,2.1,2.0,5.6000000000000005,10.8,13.900000000000002,-24.8,11.6,16
645,10953.0,0.30000000000000004,0.7000000000000001,2.0,2.5,4.9,10.5,27.3,-24.599999999999998,2.6,16
646,10969.0,-0.1,0.2,1.5,2.1,4.6000000000000005,9.9,35.9,-17.6,-6.4,16
647,10986.0,-0.4,0.0,1.1,2.1,4.6000000000000005,9.9,35.9,-17.6,-6.4,16
648,11003.0,-1.2000000000000002,-0.4,0.2,0.9,4.2,8.3,50.2,-4.6,-16.5,16
649,11019.0,-1.7000000000000002,-0.7000000000000001,-0.7000000000000001,0.5,4.1000000000000005,7.5,52.80000000000001,-0.30000000000000004,-16.700000000000003,16
650,11040.0,-2.1,-0.8,-1.4000000000000001,0.2,4.2,6.9,52.300000000000004,2.1,-16.0,16
651,11070.0,-2.4000000000000004,-0.8,-1.9000000000000001,-0.1,4.3,6.4,49.0,2.7,-14.5,16
652,11075.0,-2.5,-0.8,-2.1,-0.4,4.4,6.0,42.800000000000004,3.3000000000000007,-11.4,16
653,11086.0,-2.6,-0.8,-2.2,-0.4,4.4,6.0,42.800000000000004,3.3000000000000007,-11.4,16
654,11102.0,-2.6,-0.7000000000000001,-2.3000000000000003,-0.4,4.800000000000001,5.800000000000001,22.3,5.0,0.5,16
655,11119.0,-2.2,-0.4,-2.1,-0.1,5.0,6.0,10.8,1.3,6.4,16
656,11136.0,-2.0,-0.4,-1.8,-0.1,5.0,6.0,10.8,1.3,6.4,16
657,11152.0,-1.6,-0.2,-1.4000000000000001,0.7000000000000001,5.2,6.7,-2.6,-1.9,6.9,16
658,11170.0,-1.3,0.0,-1.0,0.8,5.4,7.0,-6.9,-0.9000000000000001,1.4,16
659,11186.0,-1.3,0.1,-1.0,0.8,5.4,7.0,-6.9,-0.9000000000000001,1.4,16
660,11202.0,-1.1,0.2,-0.8,0.9,5.6000000000000005,7.4,-18.900000000000002,7.1000000000000005,-7.300000000000001,16
661,11220.0,-1.2000000000000002,0.30000000000000004,-0.6000000000000001,0.9,5.6000000000000005,7.4,-18.900000000000002,7.1000000000000005,-7.300000000000001,16
662,11236.0,-1.2000000000000002,0.4,-0.1,0.8,5.6000000000000005,8.200000000000001,-31.2,13.000000000000002,-6.600000000000001,16
663,11253.0,-1.1,0.4,0.30000000000000004,1.0,5.5,8.5,-31.3,15.100000000000001,-3.2,16
664,11269.0,-0.9,0.4,0.4,1.0,5.5,8.5,-31.3,15.100000000000001,-3.2,16
665,11286.0,-0.5,0.5,0.4,1.5,5.6000000000000005,8.6,-22.000000000000004,16.700000000000003,0.2,16
666,11302.0,-0.2,0.7000000000000001,0.30000000000000004,1.7000000000000002,5.7,8.5,-16.5,13.900000000000002,-0.6000000000000001,16
667,11320.0,-0.1,0.7000000000000001,0.1,1.7000000000000002,5.7,8.5,-16.5,13.900000000000002,-0.6000000000000001,16
668,11336.0,0.0,0.6000000000000001,-0.2,1.7000000000000002,5.5,8.0,-10.4,9.3,-6.1000000000000005,16
669,11356.0,0.0,0.4,-0.6000000000000001,1.6,5.300000000000001,7.7,-9.2,11.2,-8.3,16
670,11373.0,-0.1,0.30000000000000004,-0.9,1.5,5.1000000000000005,7.4,-8.899999999999999,14.100000000000001,-9.899999999999999,16
671,11391.0,-0.2,0.2,-1.1,1.3,5.1000000000000005,7.2,-8.8,17.7,-11.5,16
672,11403.0,-0.4,0.30000000000000004,-1.3,1.0,5.2,7.0,-8.4,17.799999999999997,-12.8,16
673,11419.0,-0.5,0.4,-1.4000000000000001,1.0,5.2,7.0,-8.4,17.799999999999997,-12.8,16
674,11436.0,-0.6000000000000001,0.5,-1.5,0.7000000000000001,5.4,7.0,-11.700000000000001,14.200000000000001,-11.8,16
675,11459.0,-0.8,0.8,-1.3,0.6000000000000001,5.7,7.300000000000001,-15.6,6.9,-10.600000000000001,16
676,11469.0,-0.8,0.9,-1.1,0.6000000000000001,5.7,7.300000000000001,-15.6,6.9,-10.600000000000001,16
677,11486.0,-0.6000000000000001,1.1,-0.5,0.8,5.9,8.200000000000001,-22.000000000000004,-13.8,-7.9,16
678,11503.0,-0.4,1.2000000000000002,0.1,1.1,5.800000000000001,8.700000000000001,-23.2,-20.7,-8.100000000000001,16
679,11519.0,-0.30000000000000004,1.1,0.30000000000000004,1.1,5.800000000000001,8.700000000000001,-23.2,-20.7,-8.100000000000001,16
680,11540.0,-0.1,1.0,0.8,1.5,5.5,9.5,-23.900000000000006,-20.400000000000002,-9.8,16
681,11559.0,0.1,0.8,1.2000000000000002,1.6,5.300000000000001,9.8,-20.599999999999998,-13.900000000000002,-11.5,16
682,11570.0,0.1,0.7000000000000001,1.2000000000000002,1.6,5.300000000000001,9.8,-20.599999999999998,-13.900000000000002,-11.5,16
683,11587.0,-0.2,0.6000000000000001,1.2000000000000002,1.2000000000000002,5.1000000000000005,9.8,-3.6000000000000005,0.2,-14.900000000000002,16
684,11603.0,-0.30000000000000004,0.6000000000000001,1.1,1.2000000000000002,5.1000000000000005,9.8,-3.6000000000000005,0.2,-14.900000000000002,16
685,11619.0,-0.6000000000000001,0.6000000000000001,0.8,0.9,5.1000000000000005,9.5,9.2,1.3,-13.700000000000001,16
686,11637.0,-0.7000000000000001,0.6000000000000001,0.2,0.6000000000000001,5.4,8.6,36.6,-3.7000000000000006,-10.1,16
687,11656.0,-1.0,0.9,-0.2,0.4,5.7,8.3,46.7,-7.8,-8.5,16
688,11673.0,-1.1,1.0,-0.2,0.4,6.1000000000000005,8.1,48.9,-22.4,-6.699999999999999,16
689,11686.0,-0.9,1.2000000000000002,-0.30000000000000004,0.7000000000000001,6.300000000000001,8.1,40.4,-39.699999999999996,-6.2,16
690,11702.0,-0.8,1.3,-0.2,0.7000000000000001,6.300000000000001,8.1,40.4,-39.699999999999996,-6.2,16
691,11720.0,-0.30000000000000004,1.5,0.5,1.9000000000000001,6.6000000000000005,9.1,-0.1,-59.1,-7.9,16
692,11736.0,0.5,1.3,1.5,2.6,6.300000000000001,10.200000000000001,-28.800000000000004,-61.300000000000004,-11.700000000000001,16
693,11753.0,0.8,1.1,2.2,2.6,6.300000000000001,10.200000000000001,-28.800000000000004,-61.300000000000004,-11.700000000000001,16
694,11769.0,1.2000000000000002,0.30000000000000004,3.5,3.6,4.6000000000000005,12.3,-69.7,-45.2,-20.7,16
695,11786.0,1.7000000000000002,-1.0,4.3,3.9000000000000004,3.4000000000000004,12.8,-66.1,-21.1,-26.300000000000004,16
696,11802.0,1.8,-1.5,4.3,3.9000000000000004,3.4000000000000004,12.8,-66.1,-21.1,-26.300000000000004,16
697,11819.0,1.3,-2.1,3.5,2.9000000000000004,2.3000000000000003,11.4,-10.299999999999999,32.2,-42.1,16
698,11836.0,0.4,-2.4000000000000004,1.7000000000000002,2.1,2.2,9.8,24.8,45.099999999999994,-46.0,16
699,11852.0,0.0,-2.4000000000000004,0.6000000000000001,2.1,2.2,9.8,24.8,45.099999999999994,-46.0,16
700,11872.0,-0.5,-2.4000000000000004,-1.2000000000000002,0.8,2.5,6.800000000000001,67.3,37.300000000000004,-37.9,16
701,11887.0,-0.9,-2.2,-2.4000000000000004,0.4,3.0,5.800000000000001,70.4,23.6,-28.700000000000003,16
702,11903.0,-1.1,-2.0,-2.8000000000000003,0.4,3.0,5.800000000000001,70.4,23.6,-28.700000000000003,16
703,11920.0,-1.2000000000000002,-1.4000000000000001,-3.2,0.2,4.2,5.0,48.2,-14.100000000000001,-5.0,16
704,11938.0,-0.8,-1.0,-3.1,0.8,4.4,5.1000000000000005,29.600000000000005,-29.900000000000006,6.2,16
705,11970.0,0.30000000000000004,-1.0,-2.5,2.1,4.4,5.800000000000001,-7.9,-43.900000000000006,11.1,16
706,11989.0,0.6000000000000001,-1.0,-1.9000000000000001,2.5,4.3,6.300000000000001,-23.5,-40.5,9.4,16
707,12003.0,0.8,-1.1,-1.6,2.5,4.3,6.300000000000001,-23.5,-40.5,9.4,16
708,12019.0,1.1,-1.1,-1.2000000000000002,3.1,4.1000000000000005,7.0,-35.9,-17.0,2.8,16
709,12036.0,1.2000000000000002,-1.0,-1.1,3.1,4.1000000000000005,7.0,-35.9,-17.0,2.8,16
710,12052.0,1.3,-0.7000000000000001,-1.0,3.0,4.5,7.2,-28.400000000000002,4.5,-11.6,16
711,12070.0,0.9,-0.2,-1.1,2.7,4.800000000000001,7.0,-21.400000000000002,3.6000000000000005,-16.8,16
712,12086.0,0.8,-0.1,-1.3,2.7,4.800000000000001,7.0,-21.400000000000002,3.6000000000000005,-16.8,16
713,12102.0,0.4,0.0,-1.8,2.1,5.1000000000000005,6.300000000000001,-14.700000000000001,-6.1000000000000005,-18.8,16
714,12119.0,0.1,0.2,-2.0,2.0,5.2,6.2,-16.6,-7.6,-13.900000000000002,16
715,12136.0,0.2,0.30000000000000004,-2.0,2.0,5.2,6.2,-16.6,-7.6,-13.900000000000002,16
716,12159.0,0.0,0.4,-1.7000000000000002,1.8,5.2,6.6000000000000005,-21.200000000000003,0.6000000000000001,-9.3,16
717,12170.0,-0.30000000000000004,0.5,-1.6,1.3,5.300000000000001,6.800000000000001,-23.5,2.7,-12.299999999999999,16
718,12186.0,-0.6000000000000001,0.5,-1.4000000000000001,1.3,5.300000000000001,6.800000000000001,-23.5,2.7,-12.299999999999999,16
719,12202.0,-1.5,0.7000000000000001,-0.9,0.1,5.4,7.7,-25.200000000000003,1.2000000000000002,-7.8,16
720,12219.0,-1.8,0.8,-0.4,0.0,5.5,8.1,-22.8,4.1,1.0,16
721,12236.0,-1.8,0.9,-0.1,0.0,5.5,8.1,-22.8,4.1,1.0,16
722,12252.0,-1.6,1.2000000000000002,0.6000000000000001,0.2,5.9,9.4,-19.400000000000002,12.9,16.700000000000003,16
723,12270.0,-1.3,1.6,1.7000000000000002,0.5,6.1000000000000005,10.5,-19.200000000000003,14.600000000000001,22.700000000000003,16
724,12286.0,-1.1,1.7000000000000002,2.4000000000000004,0.5,6.1000000000000005,10.5,-19.200000000000003,14.600000000000001,22.700000000000003,16
725,12303.0,-0.4,1.8,3.5,1.4000000000000001,6.2,12.5,-10.200000000000001,22.700000000000003,29.0,16
726,12322.0,-0.1,1.8,4.3,1.5,6.2,13.0,1.8000000000000003,33.0,25.0,16
727,12339.0,-0.1,1.8,4.5,1.5,6.2,13.0,1.8000000000000003,33.0,25.0,16
728,12357.0,-0.30000000000000004,1.8,4.3,1.1,6.4,12.9,23.2,40.7,16.6,16
729,12374.0,-0.30000000000000004,1.9000000000000001,4.2,1.1,6.4,12.9,23.2,40.7,16.6,16
730,12386.0,-0.30000000000000004,2.0,4.1000000000000005,1.0,6.6000000000000005,12.8,25.0,33.0,20.599999999999998,16
731,12402.0,0.0,1.4000000000000001,3.7,1.4000000000000001,5.9,12.3,21.6,-1.7,27.2,16
732,12419.0,0.1,1.1,3.5,1.4000000000000001,5.9,12.3,21.6,-1.7,27.2,16
733,12436.0,0.2,0.4,2.9000000000000004,1.6,5.4,11.8,23.099999999999998,-13.399999999999999,29.300000000000004,16
734,12453.0,0.2,-0.6000000000000001,1.7000000000000002,1.8,4.0,9.8,36.7,-12.299999999999999,31.0,16
735,12474.0,0.0,-1.4000000000000001,0.2,1.6,3.4000000000000004,8.5,46.6,1.3,29.1,16
736,12490.0,-0.5,-1.8,-1.4000000000000001,1.1,3.3000000000000003,7.1000000000000005,55.8,16.6,25.4,16
737,12503.0,-0.9,-1.8,-2.1,0.5,3.3000000000000003,6.0,60.900000000000006,29.900000000000006,22.000000000000004,16
738,12520.0,-1.3,-1.8,-2.6,0.5,3.3000000000000003,6.0,60.900000000000006,29.900000000000006,22.000000000000004,16
739,12536.0,-2.1,-1.7000000000000002,-3.3000000000000003,-1.0,3.9000000000000004,4.800000000000001,54.6,26.799999999999997,26.300000000000004,16
740,12559.0,-2.9000000000000004,-1.3,-3.5,-1.5,4.4,4.6000000000000005,44.8,11.900000000000002,35.8,16
741,12570.0,-3.2,-1.0,-3.4000000000000004,-1.5,4.4,4.6000000000000005,44.8,11.900000000000002,35.8,16
742,12586.0,-3.3000000000000003,-0.4,-3.0,-1.3,5.300000000000001,5.300000000000001,23.3,-12.7,62.900000000000006,16
743,12605.0,-2.5,-0.2,-2.2,-0.4,5.300000000000001,5.9,14.900000000000002,-21.7,70.10000000000001,16
744,12619.0,-2.0,-0.30000000000000004,-1.8,-0.4,5.300000000000001,5.9,14.900000000000002,-21.7,70.10000000000001,16
745,12639.0,-1.2000000000000002,-0.2,-1.2000000000000002,1.2000000000000002,5.4,6.9,1.1,-22.9,64.30000000000001,16
746,12654.0,-0.6000000000000001,-0.1,-0.7000000000000001,1.7000000000000002,5.4,7.2,-5.1000000000000005,-13.5,54.0,16
747,12669.0,-0.4,-0.1,-0.5,1.7000000000000002,5.4,7.2,-5.1000000000000005,-13.5,54.0,16
748,12686.0,-0.4,-0.30000000000000004,-0.30000000000000004,1.9000000000000001,5.1000000000000005,7.7,-12.4,16.4,28.1,16
749,12702.0,-0.7000000000000001,-0.30000000000000004,-0.1,1.5,5.1000000000000005,7.7,-10.8,32.400000000000006,18.8,16
750,12720.0,-0.9,-0.2,-0.2,1.5,5.1000000000000005,7.7,-10.8,32.400000000000006,18.8,16
751,12736.0,-1.1,-0.2,-0.4,1.1,5.2,7.4,2.0,45.0,10.5,16
752,12756.0,-1.1,-0.2,-0.6000000000000001,1.1,5.2,7.4,2.0,45.0,10.5,16
753,12769.0,-1.0,-0.2,-1.0,1.0,5.2,7.1000000000000005,8.100000000000001,45.3,7.0,16
754,12786.0,-1.1,-0.1,-1.1,0.6000000000000001,5.300000000000001,6.9,8.8,42.1,-0.1,16
755,12802.0,-1.2000000000000002,-0.1,-1.0,0.6000000000000001,5.300000000000001,6.9,8.8,42.1,-0.1,16
756,12820.0,-1.5,-0.1,-0.6000000000000001,0.30000000000000004,5.300000000000001,7.2,6.0,33.1,-1.2000000000000002,16
757,12842.0,-1.5,-0.2,-0.2,0.1,5.2,7.9,6.2,21.8,6.9,16
758,12852.0,-1.4000000000000001,-0.2,0.0,0.1,5.2,7.9,6.2,21.8,6.9,16
759,12874.0,-0.9,-0.30000000000000004,0.5,0.7000000000000001,5.1000000000000005,8.4,12.5,13.3,15.8,16
760,12886.0,-0.5,-0.4,0.5,1.2000000000000002,5.1000000000000005,8.5,13.399999999999999,11.3,16.6,16
761,12903.0,-0.2,-0.4,0.6000000000000001,1.2000000000000002,5.1000000000000005,8.5,13.399999999999999,11.3,16.6,16
762,12919.0,0.30000000000000004,-0.1,0.8,1.9000000000000001,5.4,8.8,7.699999999999999,13.700000000000001,4.6,16
763,12936.0,0.5,-0.2,0.8,2.0,5.2,8.8,-0.6000000000000001,16.900000000000002,-4.4,16
764,12953.0,0.5,-0.30000000000000004,0.8,2.0,5.2,8.8,-0.6000000000000001,16.900000000000002,-4.4,16
765,12970.0,0.4,-0.4,1.0,1.7000000000000002,5.2,9.200000000000001,-32.300000000000004,25.8,-11.900000000000002,16
766,12986.0,0.2,0.1,1.3,1.5,5.5,9.600000000000001,-49.4,29.800000000000004,-9.700000000000001,16
767,13005.0,0.1,0.4,1.7000000000000002,1.3,5.6000000000000005,10.0,-62.4,31.7,-6.8,16
768,13023.0,0.1,0.5,1.9000000000000001,1.1,5.9,10.600000000000001,-72.60000000000001,27.800000000000004,-0.8,16
769,13039.0,-0.30000000000000004,1.4000000000000001,2.6,0.7000000000000001,6.2,11.200000000000001,-78.80000000000001,16.6,7.699999999999999,16
770,13052.0,-0.4,1.5,2.9000000000000004,0.7000000000000001,6.2,11.200000000000001,-78.80000000000001,16.6,7.699999999999999,16
771,13069.0,-0.5,1.2000000000000002,2.7,0.9,5.6000000000000005,11.600000000000001,-77.4,-16.5,41.50000000000001,16
772,13086.0,0.30000000000000004,0.9,2.9000000000000004,1.8,5.0,11.700000000000001,-73.6,-31.799999999999997,61.8,16
773,13102.0,0.8,0.5,2.8000000000000003,1.8,5.0,11.700000000000001,-73.6,-31.799999999999997,61.8,16
774,13119.0,2.1,0.4,2.4000000000000004,4.3,4.4,11.600000000000001,-42.0,-48.0,69.9,16
775,13138.0,3.1,0.4,2.8000000000000003,5.1000000000000005,3.9000000000000004,11.9,-20.3,-47.5,48.2,16
776,13159.0,3.0,-0.7000000000000001,2.8000000000000003,5.0,3.0,11.700000000000001,8.5,-37.6,14.100000000000001,16
777,13169.0,2.3000000000000003,-1.1,2.3000000000000003,3.8000000000000003,2.8000000000000003,10.700000000000001,42.3,-15.899999999999999,-12.600000000000001,16
778,13186.0,1.5,-1.1,1.6,2.6,3.2,9.3,68.1,1.0,-24.8,16
779,13202.0,0.2,-0.8,-0.1,2.6,3.2,9.3,68.1,1.0,-24.8,16
780,13219.0,-0.6000000000000001,-1.2000000000000002,-1.6,1.2000000000000002,3.2,6.6000000000000005,87.50000000000001,3.1,-31.2,16
781,13236.0,-0.9,-1.3,-2.2,1.2000000000000002,3.2,6.6000000000000005,87.50000000000001,3.1,-31.2,16
782,13266.0,-1.4000000000000001,-1.4000000000000001,-3.6,0.6000000000000001,3.5,4.800000000000001,79.00000000000001,-0.9000000000000001,-24.5,16
783,13270.0,-1.5,-1.5,-3.8000000000000003,0.30000000000000004,3.6,4.4,66.60000000000001,5.7,-15.5,16
784,13286.0,-1.7000000000000002,-1.4000000000000001,-3.9000000000000004,0.30000000000000004,3.6,4.4,66.60000000000001,5.7,-15.5,16
785,13302.0,-2.4000000000000004,-1.0,-3.2,-0.5,4.5,5.300000000000001,47.5,6.500000000000001,14.400000000000002,16
786,13320.0,-1.9000000000000001,-0.7000000000000001,-2.4000000000000004,0.30000000000000004,4.7,5.800000000000001,52.5,9.0,40.9,16
787,13336.0,-1.3,-0.7000000000000001,-2.1,0.30000000000000004,4.7,5.800000000000001,52.5,9.0,40.9,16
788,13364.0,0.1,0.1,-1.3,2.1,5.7,6.5,81.90000000000002,3.3000000000000007,57.1,16
789,13369.0,0.1,0.1,-1.3,2.1,5.7,6.5,81.90000000000002,3.3000000000000007,57.1,16
790,13386.0,-0.5,1.0,-1.2000000000000002,1.7000000000000002,6.7,6.4,98.7,-11.1,43.70000000000001,16
791,13402.0,-0.9,0.9,-1.6,1.4000000000000001,7.0,5.4,101.80000000000001,-37.6,29.900000000000006,16
792,13419.0,-1.0,0.6000000000000001,-1.7000000000000002,1.4000000000000001,7.0,5.300000000000001,85.69999999999999,-30.799999999999997,31.099999999999998,16
793,13436.0,-1.1,0.5,-1.6,1.4000000000000001,7.0,5.300000000000001,85.69999999999999,-30.799999999999997,31.099999999999998,16
794,13452.0,-1.3,0.2,-1.0,1.3,6.7,6.0,48.9,-2.3,36.1,16
795,13471.0,-1.3,0.1,-0.2,1.4000000000000001,6.800000000000001,6.6000000000000005,36.0,5.2,36.400000000000006,16
796,13486.0,-1.2000000000000002,0.1,0.2,1.4000000000000001,6.800000000000001,6.6000000000000005,36.0,5.2,36.400000000000006,16
797,13502.0,-1.0,0.2,0.7000000000000001,1.9000000000000001,6.800000000000001,7.4,19.799999999999997,9.2,30.9,16
798,13520.0,-0.8,0.0,0.8,2.4000000000000004,6.4,7.7,19.799999999999997,9.2,30.9,16
799,13537.0,-0.30000000000000004,-0.4,1.2000000000000002,2.4000000000000004,6.4,7.7,15.299999999999999,27.400000000000002,24.7,16
800,13552.0,0.1,-0.4,0.8,2.6,6.4,7.2,12.8,82.10000000000001,-2.5,16
801,13570.0,0.0,-0.30000000000000004,0.5,2.6,6.4,7.2,12.8,82.10000000000001,-2.5,16
802,13586.0,-0.6000000000000001,0.6000000000000001,0.0,1.9000000000000001,7.0,6.7,5.1000000000000005,100.30000000000001,-17.300000000000004,16
803,13605.0,-2.0,1.4000000000000001,-1.0,-0.5,8.1,6.0,-32.2,114.50000000000001,-33.400000000000006,16
804,13622.0,-2.0,0.5,-0.7000000000000001,-0.5,6.9,6.4,-65.5,110.10000000000001,-28.500000000000004,16
805,13637.0,-1.9000000000000001,-0.1,-0.4,-0.5,6.9,6.4,-65.5,110.10000000000001,-28.500000000000004,16
806,13662.0,-2.4000000000000004,-0.4,2.3000000000000003,-1.4000000000000001,6.0,9.5,-99.8,87.40000000000002,-11.900000000000002,16
807,13669.0,-2.4000000000000004,-0.4,2.3000000000000003,-1.4000000000000001,6.0,9.5,-99.8,87.40000000000002,-11.900000000000002,16
808,13686.0,-2.6,-0.9,2.3000000000000003,-1.8,4.5,10.0,-58.7,38.400000000000006,15.700000000000001,16
809,13703.0,-2.6,-1.4000000000000001,2.0,-2.1,4.6000000000000005,9.600000000000001,-30.1,19.5,27.3,16
810,13720.0,-2.8000000000000003,-1.1,1.6,-2.1,4.6000000000000005,9.600000000000001,-30.1,19.5,27.3,16
811,13736.0,-3.0,-0.4,0.8,-1.9000000000000001,5.4,8.700000000000001,-1.7,-3.8,63.0,16
812,13755.0,-2.1,-0.30000000000000004,1.1,-0.8,5.5,9.1,-3.2,-13.000000000000002,75.7,16
813,13769.0,-1.5,-0.2,1.3,-0.8,5.5,9.1,-3.2,-13.000000000000002,75.7,16
814,13786.0,-0.4,-0.30000000000000004,1.5,1.1,5.300000000000001,9.3,3.6000000000000005,-15.6,77.5,16
815,13802.0,0.1,-0.4,1.1,1.6,5.2,8.9,6.699999999999999,-16.3,69.10000000000001,16
816,13824.0,0.5,-0.7000000000000001,0.7000000000000001,2.1,5.0,8.5,7.300000000000001,-12.0,59.40000000000001,16
817,13862.0,0.5,-0.8,-0.1,2.2,4.800000000000001,7.9,9.899999999999999,3.9,37.1,16
818,13874.0,0.4,-0.8,-0.4,2.1,4.9,7.4,15.100000000000001,10.9,28.900000000000002,16
819,13890.0,0.2,-0.8,-0.8,1.9000000000000001,5.0,6.7,19.300000000000004,21.0,25.5,16
820,13903.0,0.4,-0.5,-1.6,2.3000000000000003,5.2,6.0,18.6,41.800000000000004,27.2,16
821,13919.0,0.8,-0.4,-2.0,2.3000000000000003,5.2,6.0,18.6,41.800000000000004,27.2,16
822,13936.0,1.3,-0.2,-2.3000000000000003,2.7,5.6000000000000005,5.6000000000000005,2.8,89.10000000000001,13.900000000000002,16
823,13953.0,1.3,-0.1,-2.2,2.7,5.6000000000000005,5.6000000000000005,-2.0,97.3,2.5,16
824,13971.0,0.8,-0.2,-1.5,2.2,5.6000000000000005,6.1000000000000005,-2.0,97.3,2.5,16
825,13986.0,0.0,-0.2,-1.4000000000000001,0.5,5.6000000000000005,6.6000000000000005,8.899999999999999,76.80000000000001,-5.1000000000000005,16
826,14004.0,-0.8,-0.1,-1.0,-0.2,5.7,6.9,16.900000000000002,49.800000000000004,-1.5,16
827,14020.0,-1.1,0.0,-0.6000000000000001,-0.2,5.7,6.9,16.900000000000002,49.800000000000004,-1.5,16
828,14036.0,-1.4000000000000001,0.1,0.1,-0.7000000000000001,6.1000000000000005,8.0,37.0,-16.700000000000003,15.899999999999999,16
829,14059.0,-0.9,0.4,0.5,0.2,6.5,8.200000000000001,45.7,-46.6,23.2,16
830,14071.0,0.0,0.5,0.7000000000000001,0.2,6.5,8.200000000000001,45.7,-46.6,23.2,16
831,14086.0,1.6,0.4,0.30000000000000004,2.7,6.6000000000000005,7.6000000000000005,35.4,-22.700000000000003,1.0,16
832,14102.0,1.7000000000000002,0.4,0.1,2.7,6.6000000000000005,7.6000000000000005,35.4,-22.700000000000003,1.0,16
833,14119.0,1.3,0.9,0.30000000000000004,2.1,7.2,8.4,-32.9,15.6,-31.9,16
834,14146.0,0.9,0.5,2.4000000000000004,1.8,6.7,9.700000000000001,-64.0,12.299999999999999,-48.800000000000004,16
835,14165.0,0.5,0.2,3.0,1.1,6.1000000000000005,10.9,-77.5,19.700000000000003,-64.9,16
836,14171.0,0.1,-0.1,3.4000000000000004,0.0,5.5,11.4,-76.89999999999999,33.6,-74.4,16
837,14188.0,-1.1,-0.4,3.6,-1.1,5.1000000000000005,11.700000000000001,-71.30000000000001,38.1,-73.9,16
838,14202.0,-1.6,-0.5,3.6,-1.1,5.1000000000000005,11.700000000000001,-71.30000000000001,38.1,-73.9,16
839,14221.0,-2.2,-0.4,3.6,-2.5,5.0,11.600000000000001,-44.5,26.799999999999997,-50.60000000000001,16
840,14241.0,-2.3000000000000003,-0.2,2.9000000000000004,-2.5,5.1000000000000005,11.0,-28.800000000000004,17.9,-33.2,16
841,14265.0,-2.0,-0.1,2.1,-2.2,5.1000000000000005,10.5,-18.0,6.9,-16.1,16
842,14278.0,-1.3,0.0,1.7000000000000002,-1.6,5.1000000000000005,10.200000000000001,-11.700000000000001,-9.2,-1.5,16
843,14286.0,-1.3,0.0,1.7000000000000002,-1.6,5.1000000000000005,10.200000000000001,-5.9,-20.900000000000002,9.0,16
844,14303.0,-0.9,-0.2,1.3,-1.2000000000000002,5.0,9.9,-5.9,-20.900000000000002,9.0,16
845,14319.0,-0.30000000000000004,-0.5,0.8,-0.1,4.6000000000000005,9.0,9.0,-20.5,23.5,16
846,14336.0,0.0,-0.6000000000000001,0.4,-0.1,4.6000000000000005,9.0,14.0,-20.400000000000002,25.5,16
847,14357.0,0.5,-1.0,-1.0,0.6000000000000001,4.2,7.4,14.900000000000002,-24.0,23.700000000000003,16
848,14369.0,0.5,-1.1,-1.3,0.7000000000000001,3.9000000000000004,6.9,13.8,-28.900000000000002,19.5,16
849,14386.0,0.5,-1.3,-1.5,0.7000000000000001,3.9000000000000004,6.9,13.8,-28.900000000000002,19.5,16
850,14402.0,0.4,-1.7000000000000002,-1.8,0.7000000000000001,3.7,6.6000000000000005,14.100000000000001,-31.400000000000002,17.5,16
851,14426.0,0.5,-1.9000000000000001,-2.0,1.1,3.4000000000000004,6.2,25.1,-35.0,19.5,16
852,14436.0,0.6000000000000001,-1.9000000000000001,-2.1,1.1,3.4000000000000004,6.2,25.1,-35.0,19.5,16
853,14463.0,0.1,-1.9000000000000001,-2.1,0.9,3.6,6.0,48.50000000000001,-63.500000000000014,16.8,16
854,14478.0,-0.5,-1.8,-1.9000000000000001,0.2,4.0,6.2,67.8,-105.9,19.1,16
855,14489.0,-1.2000000000000002,-1.6,-1.8,0.30000000000000004,4.2,5.800000000000001,91.50000000000001,-144.60000000000002,24.7,16
856,14502.0,-1.0,-1.7000000000000002,-2.1,1.1,4.4,5.1000000000000005,110.70000000000002,-157.60000000000002,28.3,16
857,14520.0,-0.4,-1.3,-2.7,1.9000000000000001,5.1000000000000005,4.2,113.1,-144.0,25.7,16
858,14536.0,-0.2,-1.1,-3.1,1.9000000000000001,5.1000000000000005,4.2,113.1,-144.0,25.7,16
859,14555.0,-0.4,-0.2,-3.8000000000000003,1.7000000000000002,6.9,2.7,63.500000000000014,-53.2,-1.1,16
860,14573.0,-1.4000000000000001,0.7000000000000001,-3.7,1.0,7.4,3.1,19.700000000000003,14.100000000000001,-8.899999999999999,16
861,14589.0,-1.7000000000000002,0.9,-3.4000000000000004,0.4,7.7,3.9000000000000004,-23.900000000000006,79.00000000000001,-6.9,16
862,14606.0,-2.1,1.3,-2.3000000000000003,0.1,7.9,5.6000000000000005,-66.2,124.8,2.7,16
863,14622.0,-2.0,1.5,0.4,0.1,7.800000000000001,8.3,-95.80000000000001,127.3,14.400000000000002,16
864,14639.0,-1.2000000000000002,1.3,3.4000000000000004,0.5,7.4,11.0,-99.8,102.60000000000001,22.2,16
865,14657.0,-1.1,1.2000000000000002,4.5,0.30000000000000004,7.2,12.700000000000001,-76.4,77.5,23.2,16
866,14671.0,-1.6,1.3,5.300000000000001,-0.4,7.1000000000000005,12.8,-35.599999999999994,70.10000000000001,28.200000000000003,16
867,14693.0,-2.3000000000000003,1.3,4.3,-1.0,7.2,12.0,1.1,66.3,44.4,16
868,14705.0,-2.5,1.5,3.7,-1.4000000000000001,7.5,11.200000000000001,19.5,50.5,65.8,16
869,14719.0,-2.6,1.8,3.4000000000000004,-1.2000000000000002,7.6000000000000005,11.200000000000001,31.6,19.5,83.2,16
870,14736.0,-2.4000000000000004,1.6,3.6,-1.2000000000000002,7.6000000000000005,11.200000000000001,31.6,19.5,83.2,16
871,14765.0,-1.5,0.4,3.6,0.2,6.5,11.200000000000001,64.60000000000001,-54.4,98.60000000000001,16
872,14769.0,-1.5,0.4,3.6,0.2,6.5,11.200000000000001,64.60000000000001,-54.4,98.60000000000001,16
873,14786.0,-0.4,-0.30000000000000004,3.1,1.4000000000000001,6.1000000000000005,10.700000000000001,77.00000000000001,-61.9,104.00000000000001,16
874,14803.0,0.4,-1.0,1.9000000000000001,2.9000000000000004,5.1000000000000005,8.4,89.70000000000002,-2.8,93.60000000000001,16
875,14819.0,0.30000000000000004,-1.3,1.1,2.9000000000000004,5.1000000000000005,8.4,89.70000000000002,-2.8,93.60000000000001,16
876,14836.0,-0.30000000000000004,-1.3,-0.2,2.6,5.1000000000000005,7.1000000000000005,83.5,36.300000000000004,86.60000000000001,16
877,14855.0,-0.9,-1.3,-0.9,1.6,5.4,5.7,58.3,77.60000000000001,75.7,16
878,14870.0,-1.2000000000000002,-1.2000000000000002,-1.2000000000000002,1.6,5.4,5.7,58.3,77.60000000000001,75.7,16
879,14886.0,-1.5,-1.0,-1.3,1.2000000000000002,5.5,5.5,44.5,85.5,74.4,16
880,14902.0,-1.2000000000000002,-1.1,-1.2000000000000002,1.5,5.5,5.6000000000000005,20.8,85.30000000000001,73.5,16
881,14919.0,-1.0,-1.1,-1.1,1.5,5.5,5.6000000000000005,20.8,85.30000000000001,73.5,16
882,14938.0,-0.4,-1.3,-1.0,2.4000000000000004,5.2,5.9,6.1000000000000005,74.30000000000001,61.9,16
883,14954.0,0.0,-1.5,-0.9,2.5,4.9,6.0,1.0,64.9,50.3,16
884,14970.0,-0.1,-1.6,-0.9,2.5,4.9,6.0,1.0,64.9,50.3,16
885,14992.0,-0.8,-2.1,-1.3,1.6,4.4,5.7,-0.4,62.6,32.9,16
886,15005.0,-1.0,-2.1,-1.5,1.1,4.3,5.300000000000001,0.8,75.2,31.2,16
887,15019.0,-1.4000000000000001,-2.0,-1.8,1.1,4.3,5.300000000000001,0.8,75.2,31.2,16
888,15041.0,-1.6,-1.9000000000000001,-2.3000000000000003,0.7000000000000001,4.4,4.6000000000000005,5.1000000000000005,103.00000000000001,41.0,16
889,15054.0,-1.1,-1.7000000000000002,-2.3000000000000003,0.9,4.7,5.0,10.4,89.2,44.300000000000004,16
890,15074.0,-0.6000000000000001,-1.3,-1.5,1.3,5.0,5.6000000000000005,21.0,53.50000000000001,43.800000000000004,16
891,15086.0,-0.4,-1.1,-1.2000000000000002,1.7000000000000002,5.5,5.9,32.7,5.6,36.2,16
892,15102.0,-0.1,-0.5,-1.0,2.0,5.9,6.1000000000000005,31.799999999999997,-23.3,25.6,16
893,15120.0,0.0,-0.4,-0.7000000000000001,2.0,5.9,6.1000000000000005,31.799999999999997,-23.3,25.6,16
894,15136.0,0.1,-0.30000000000000004,0.9,2.3000000000000003,6.2,8.700000000000001,5.7,-3.9,17.5,16
895,15160.0,0.30000000000000004,0.0,2.8000000000000003,2.5,6.5,9.8,7.300000000000001,12.100000000000001,16.3,16
896,15172.0,0.5,0.2,3.1,2.5,6.5,9.8,7.300000000000001,12.100000000000001,16.3,16
897,15186.0,0.5,0.2,3.1,2.5,6.5,9.8,7.300000000000001,12.100000000000001,16.3,16
898,15202.0,0.9,0.9,1.5,2.8000000000000003,7.5,8.3,7.200000000000001,45.6,-4.800000000000001,16
899,15219.0,0.7000000000000001,1.1,1.1,2.8000000000000003,7.5,8.3,7.200000000000001,45.6,-4.800000000000001,16
900,15236.0,0.30000000000000004,1.7000000000000002,1.2000000000000002,2.2,8.1,8.5,-32.0,60.2,-10.5,16
901,15265.0,1.2000000000000002,1.3,2.1,2.6,7.800000000000001,9.1,-51.4,44.6,-12.0,16
902,15270.0,1.2000000000000002,1.3,2.1,2.6,7.800000000000001,9.1,-51.4,44.6,-12.0,16
903,15286.0,1.7000000000000002,0.5,2.7,3.1,6.4,10.200000000000001,-71.0,22.4,-20.1,16
904,15302.0,1.6,0.2,2.8000000000000003,3.1,6.4,10.200000000000001,-71.0,22.4,-20.1,16
905,15321.0,1.0,-0.30000000000000004,3.2,2.6,5.800000000000001,10.700000000000001,-72.30000000000001,21.200000000000003,-23.3,16
906,15336.0,0.6000000000000001,-0.5,3.6,1.8,5.1000000000000005,11.5,-50.60000000000001,18.5,-5.7,16
907,15357.0,0.4,-0.7000000000000001,3.6,1.5,4.9,11.600000000000001,-27.099999999999998,16.4,10.4,16
908,15372.0,0.30000000000000004,-0.9,3.5,1.5,4.6000000000000005,11.200000000000001,2.3,7.200000000000001,24.599999999999998,16
909,15388.0,0.2,-1.1,2.5,1.5,4.5,10.100000000000001,29.800000000000004,-11.4,36.5,16
910,15402.0,0.2,-1.1,1.8,1.5,4.5,10.100000000000001,29.800000000000004,-11.4,36.5,16
911,15419.0,0.4,-1.0,0.5,2.1,4.9,7.9,55.3,-53.599999999999994,48.400000000000006,16
912,15436.0,0.5,-0.9,-0.5,2.4000000000000004,5.0,7.0,51.9,-62.199999999999996,44.2,16
913,15452.0,0.6000000000000001,-0.9,-0.9,2.4000000000000004,5.0,7.0,51.9,-62.199999999999996,44.2,16
914,15470.0,0.7000000000000001,-1.1,-1.6,2.8000000000000003,4.800000000000001,5.7,24.0,-39.599999999999994,25.300000000000004,16
915,15486.0,0.4,-1.2000000000000002,-2.0,2.7,4.800000000000001,5.5,3.5,-22.4,15.8,16
916,15502.0,0.4,-1.2000000000000002,-2.0,2.7,4.800000000000001,5.5,3.5,-22.4,15.8,16
917,15519.0,0.4,-1.3,-1.9000000000000001,2.7,4.5,5.6000000000000005,-29.200000000000003,-4.2,-4.1,16
918,15536.0,0.2,-1.5,-1.8,2.3000000000000003,4.3,5.800000000000001,-36.7,2.1,-15.5,16
919,15552.0,-0.1,-1.6,-1.6,2.3000000000000003,4.3,5.800000000000001,-36.7,2.1,-15.5,16
920,15570.0,-0.6000000000000001,-1.6,-1.3,1.4000000000000001,4.1000000000000005,6.2,-29.700000000000006,14.400000000000002,-24.599999999999998,16
921,15586.0,-0.8,-1.4000000000000001,-1.7000000000000002,1.3,4.4,5.9,-22.3,17.799999999999997,-20.2,16
922,15603.0,-0.8,-1.1,-1.8,1.3,4.4,5.9,-22.3,17.799999999999997,-20.2,16
923,15619.0,-0.9,-0.7000000000000001,-1.8,1.1,5.0,6.1000000000000005,-16.8,-13.000000000000002,-21.300000000000004,16
924,15637.0,-0.9,-0.6000000000000001,-1.6,1.1,5.0,6.1000000000000005,-16.8,-13.000000000000002,-21.300000000000004,16
925,15653.0,-0.9,-0.2,-1.1,1.1,5.2,6.5,-15.899999999999999,-25.4,-19.5,16
926,15672.0,-1.0,0.2,-0.4,1.2000000000000002,5.800000000000001,7.6000000000000005,-14.300000000000002,-11.4,-11.2,16
927,15688.0,-0.8,0.5,0.30000000000000004,1.3,6.0,8.200000000000001,-10.4,4.800000000000001,-1.7,16
928,15703.0,-0.6000000000000001,0.7000000000000001,0.6000000000000001,1.3,6.0,8.200000000000001,-10.4,4.800000000000001,-1.7,16
929,15719.0,-0.4,1.4000000000000001,0.8,1.7000000000000002,7.0,8.6,8.2,24.7,15.8,16
930,15736.0,-0.2,1.6,0.9,1.7000000000000002,7.0,8.6,8.2,24.7,15.8,16
931,15757.0,0.0,1.8,1.0,2.0,7.300000000000001,8.8,18.3,-9.3,11.6,16
932,15771.0,-0.1,1.6,1.1,2.0,7.2,8.9,11.6,-13.3,11.1,16
933,15785.0,-0.1,1.6,1.2000000000000002,2.0,7.2,8.9,11.6,-13.3,11.1,16
934,15802.0,-0.7000000000000001,2.2,1.2000000000000002,0.0,9.1,8.700000000000001,-8.4,62.0,18.4,16
935,15819.0,-4.4,5.9,1.1,-3.9000000000000004,12.9,9.5,-23.5,83.2,37.50000000000001,16
936,15836.0,-6.7,8.200000000000001,2.0,-3.9000000000000004,12.9,9.5,-23.5,83.2,37.50000000000001,16
937,15856.0,-1.7000000000000002,7.9,4.3,6.2,10.4,9.3,13.5,-8.0,101.0,16
938,15869.0,7.7,1.9000000000000001,-4.9,8.0,7.6000000000000005,1.8,37.1,110.4,61.0,16
939,15885.0,4.7,2.1,-7.2,8.0,7.6000000000000005,1.8,37.1,110.4,61.0,16
940,15902.0,4.4,4.7,4.4,8.700000000000001,8.200000000000001,16.6,-79.9,135.20000000000002,102.5,16
941,15919.0,9.9,1.8,10.700000000000001,10.8,5.9,18.2,-8.4,110.9,18.4,16
942,15941.0,3.6,-1.6,3.8000000000000003,3.3000000000000003,3.6,11.100000000000001,84.69999999999999,200.0,-105.4,16
943,15956.0,-2.7,-3.2,-2.5,-5.7,1.4000000000000001,3.2,84.1,254.39999999999998,-130.5,16
944,15970.0,-6.0,-4.4,-4.2,-5.800000000000001,1.2000000000000002,5.300000000000001,41.900000000000006,206.20000000000002,-72.50000000000001,16
945,15990.0,-1.7000000000000002,-4.9,0.8,-2.8000000000000003,1.0,8.8,50.8,93.7,-27.2,16
946,16006.0,-0.6000000000000001,-4.5,0.7000000000000001,-0.8,1.3,7.6000000000000005,98.10000000000001,18.900000000000002,-19.200000000000003,16
947,16024.0,1.2000000000000002,-5.7,-2.5,-0.4,0.5,4.5,109.7,3.3000000000000007,-24.8,16
948,16036.0,0.7000000000000001,-5.6000000000000005,-3.9000000000000004,-0.4,0.5,4.5,109.7,3.3000000000000007,-24.8,16
949,16052.0,0.2,-4.2,-3.7,-1.3,2.8000000000000003,3.9000000000000004,62.6,9.899999999999999,-14.900000000000002,16
950,16069.0,0.1,-3.5,-3.3000000000000003,-1.3,2.8000000000000003,3.9000000000000004,62.6,9.899999999999999,-14.900000000000002,16
951,16086.0,0.2,-2.2,-2.9000000000000004,-1.2000000000000002,3.9000000000000004,4.2,59.699999999999996,-25.1,-13.200000000000003,16
952,16108.0,0.5,-2.1,-1.7000000000000002,-0.5,4.5,6.1000000000000005,45.2,-123.00000000000001,-25.200000000000003,16
953,16122.0,0.8,-2.5,0.1,-0.1,4.2,7.300000000000001,29.600000000000005,-145.20000000000002,-33.7,16
954,16137.0,0.8,-2.7,0.7000000000000001,-0.1,4.2,7.300000000000001,29.600000000000005,-145.20000000000002,-33.7,16
955,16153.0,0.8,-3.2,1.8,0.0,3.4000000000000004,8.9,1.7,-43.00000000000001,-37.6,16
956,16169.0,0.7000000000000001,-3.4000000000000004,2.0,0.0,3.4000000000000004,8.9,1.7,-43.00000000000001,-37.6,16
957,16185.0,0.4,-3.3000000000000003,1.2000000000000002,-0.9,4.1000000000000005,7.2,36.300000000000004,28.400000000000002,-38.2,16
958,16202.0,-0.2,-2.1,-0.30000000000000004,-1.0,4.7,6.300000000000001,47.80000000000001,4.5,-30.5,16
959,16219.0,0.1,-2.2,-0.7000000000000001,-1.0,4.7,6.300000000000001,47.80000000000001,4.5,-30.5,16
960,16236.0,0.4,-1.8,-1.9000000000000001,-0.8,5.6000000000000005,4.2,40.5,-19.0,-27.6,16
961,16253.0,0.0,-0.8,-2.3000000000000003,-1.2000000000000002,6.6000000000000005,4.6000000000000005,13.200000000000003,0.1,-29.400000000000002,16
962,16269.0,-0.2,-0.1,-1.8,-1.2000000000000002,6.6000000000000005,4.6000000000000005,13.200000000000003,0.1,-29.400000000000002,16
963,16286.0,0.0,0.6000000000000001,0.30000000000000004,-0.6000000000000001,7.300000000000001,8.3,-50.60000000000001,-26.000000000000004,-37.7,16
964,16302.0,0.9,0.7000000000000001,3.2,-0.2,7.5,10.8,-72.50000000000001,-90.30000000000001,-50.900000000000006,16
965,16319.0,0.9,0.8,4.5,-0.2,7.5,10.8,-72.50000000000001,-90.30000000000001,-50.900000000000006,16
966,16337.0,1.5,-0.5,6.2,1.1,5.300000000000001,13.4,-65.10000000000001,-144.3,-66.3,16
967,16358.0,2.0,-1.5,5.1000000000000005,1.1,4.800000000000001,11.8,-34.800000000000004,-98.39999999999999,-72.2,16
968,16372.0,0.9,-1.1,1.8,0.2,5.2,9.1,-9.2,-34.400000000000006,-69.4,16
969,16389.0,0.4,-0.7000000000000001,0.2,-0.6000000000000001,5.9,6.5,-8.2,-0.8,-57.9,16
970,16402.0,0.1,-0.2,-1.3,-1.4000000000000001,6.5,5.1000000000000005,-24.200000000000003,-1.4,-50.3,16
971,16419.0,-0.7000000000000001,0.6000000000000001,-2.6,-1.4000000000000001,6.5,5.1000000000000005,-24.200000000000003,-1.4,-50.3,16
972,16435.0,-1.0,0.9,-2.1,-1.8,6.800000000000001,6.0,-55.400000000000006,-56.800000000000004,-38.50000000000001,16
973,16452.0,-0.9,0.9,-1.5,-1.8,6.800000000000001,6.0,-55.400000000000006,-56.800000000000004,-38.50000000000001,16
974,16469.0,-0.8,0.9,-0.5,-1.6,6.7,7.1000000000000005,-51.800000000000004,-77.5,-33.800000000000004,16
975,16488.0,-0.8,0.9,-0.2,-1.3,6.5,7.7,-21.300000000000004,-67.8,-18.6,16
976,16505.0,-1.1,1.2000000000000002,-0.2,-1.6,6.800000000000001,7.800000000000001,-8.600000000000001,-59.1,-14.0,16
977,16519.0,-1.5,1.3,-0.2,-1.6,6.800000000000001,7.800000000000001,-8.600000000000001,-59.1,-14.0,16
978,16535.0,-1.9000000000000001,1.3,-0.2,-2.1,7.0,7.7,8.600000000000001,-41.199999999999996,1.7,16
979,16554.0,-1.9000000000000001,1.6,-0.30000000000000004,-2.0,7.300000000000001,7.6000000000000005,13.6,-29.200000000000003,11.6,16
980,16569.0,-1.8,1.7000000000000002,-0.30000000000000004,-1.6,7.4,7.6000000000000005,17.0,-15.5,16.5,16
981,16589.0,-1.5,1.6,-0.30000000000000004,-1.6,7.4,7.6000000000000005,18.900000000000002,-2.7,15.000000000000002,16
982,16606.0,-1.7000000000000002,1.5,-0.2,-1.8,7.300000000000001,7.6000000000000005,20.2,7.6,12.9,16
983,16622.0,-1.8,1.3,-0.30000000000000004,-2.0,7.0,7.5,22.700000000000003,21.400000000000002,14.400000000000002,16
984,16642.0,-2.0,0.8,-0.30000000000000004,-2.2,6.7,7.300000000000001,25.4,40.9,19.700000000000003,16
985,16653.0,-2.0,0.6000000000000001,-0.4,-2.2,6.7,7.300000000000001,25.4,40.9,19.700000000000003,16
986,16669.0,-2.1,0.7000000000000001,-0.4,-2.4000000000000004,6.9,7.5,22.8,74.4,33.9,16
987,16686.0,-2.0,0.8,0.2,-2.5,6.9,7.9,18.200000000000003,73.0,39.50000000000001,16
988,16703.0,-2.1,0.8,0.5,-2.5,6.9,7.9,18.200000000000003,73.0,39.50000000000001,16
989,16719.0,-2.4000000000000004,0.8,1.1,-3.0,6.9,8.700000000000001,16.200000000000003,75.7,58.2,16
990,16736.0,-2.0,0.5,1.5,-3.0,6.9,8.700000000000001,16.900000000000002,84.80000000000001,69.20000000000002,16
991,16753.0,-1.2000000000000002,-0.1,1.9000000000000001,-2.3000000000000003,6.5,9.200000000000001,16.900000000000002,84.80000000000001,69.20000000000002,16
992,16769.0,-1.2000000000000002,1.2000000000000002,2.6,-1.3,7.2,10.0,18.8,56.0,70.2,16
993,16786.0,-1.0,0.6000000000000001,1.9000000000000001,-2.0,6.9,9.200000000000001,18.8,56.0,70.2,16
994,16807.0,-1.2000000000000002,-0.5,1.3,-1.9000000000000001,5.9,8.700000000000001,14.200000000000001,52.60000000000001,62.300000000000004,16
995,16821.0,-0.8,-1.3,1.0,-1.5,5.0,8.1,0.5,71.19999999999999,68.5,16
996,16840.0,-0.6000000000000001,-1.7000000000000002,0.30000000000000004,-1.4000000000000001,4.800000000000001,7.5,-8.700000000000001,98.60000000000001,70.7,16
997,16856.0,-0.5,-1.8,-0.1,-1.4000000000000001,4.800000000000001,7.5,-8.700000000000001,98.60000000000001,70.7,16
998,16871.0,-0.7000000000000001,-1.8,-1.0,-2.0,4.800000000000001,6.0,-12.9,127.6,70.8,16
999,16886.0,-1.0,-1.7000000000000002,-1.4000000000000001,-2.0,4.800000000000001,6.0,-12.9,127.6,70.8,16
1000,16902.0,-1.7000000000000002,-1.3,-1.7000000000000002,-2.7,5.1000000000000005,5.7,-15.700000000000001,112.80000000000001,72.50000000000001,16
1001,16922.0,-1.6,-1.1,-1.5,-2.8000000000000003,5.4,5.800000000000001,-14.200000000000001,74.89999999999999,85.5,16
1002,16936.0,-1.4000000000000001,-1.0,-1.4000000000000001,-2.8000000000000003,5.4,5.800000000000001,-14.200000000000001,74.89999999999999,85.5,16
1003,16958.0,-0.8,-0.8,-0.7000000000000001,-1.8,5.6000000000000005,6.7,-2.8,15.399999999999999,83.4,16
1004,16969.0,-0.4,-0.9,-0.5,-1.2000000000000002,5.5,6.7,2.5,-2.5,75.9,16
1005,16986.0,-0.1,-1.0,-0.5,-1.2000000000000002,5.5,6.7,2.5,-2.5,75.9,16
1006,17002.0,0.1,-1.3,-0.7000000000000001,-0.8,5.1000000000000005,6.4,3.0,17.5,55.5,16
1007,17019.0,-0.1,-1.4000000000000001,-0.8,-0.9,5.1000000000000005,6.4,-2.9,43.6,47.2,16
1008,17038.0,-0.30000000000000004,-1.3,-0.8,-1.2000000000000002,5.300000000000001,6.5,-10.8,65.10000000000001,43.2,16
1009,17061.0,-0.5,-0.9,-0.30000000000000004,-1.4000000000000001,5.5,6.9,-16.8,74.0,42.5,16
1010,17070.0,-0.30000000000000004,-0.8,0.1,-1.3,5.7,7.4,-13.700000000000001,72.30000000000001,41.1,16
1011,17086.0,-0.2,-0.8,0.30000000000000004,-1.3,5.7,7.4,-13.700000000000001,72.30000000000001,41.1,16
1012,17102.0,-0.30000000000000004,-0.6000000000000001,0.2,-1.4000000000000001,5.800000000000001,7.2,4.9,55.2,35.1,16
1013,17119.0,-0.2,-0.7000000000000001,0.0,-1.4000000000000001,5.800000000000001,7.1000000000000005,8.5,48.400000000000006,33.9,16
1014,17135.0,-0.2,-0.6000000000000001,-0.1,-1.4000000000000001,5.800000000000001,7.1000000000000005,8.5,48.400000000000006,33.9,16
1015,17161.0,-0.1,-0.7000000000000001,0.2,-1.4000000000000001,5.800000000000001,7.2,6.2,58.2,29.800000000000004,16
1016,17169.0,-0.1,-0.7000000000000001,0.2,-1.4000000000000001,5.800000000000001,7.2,6.2,58.2,29.800000000000004,16
1017,17185.0,-0.30000000000000004,-0.6000000000000001,0.1,-1.6,5.9,7.2,7.0,69.10000000000001,28.500000000000004,16
1018,17202.0,-0.6000000000000001,-0.2,-0.30000000000000004,-2.4000000000000004,6.6000000000000005,6.800000000000001,4.4,70.7,27.400000000000002,16
1019,17219.0,-1.2000000000000002,0.2,0.1,-2.8000000000000003,6.800000000000001,7.2,-1.8000000000000003,59.40000000000001,29.600000000000005,16
1020,17235.0,-1.2000000000000002,0.30000000000000004,0.5,-2.8000000000000003,6.800000000000001,7.2,-1.8000000000000003,59.40000000000001,29.600000000000005,16
1021,17257.0,-1.1,0.4,1.2000000000000002,-2.8000000000000003,7.300000000000001,8.4,-14.300000000000002,36.1,38.900000000000006,16
1022,17269.0,-1.1,0.8,1.5,-2.8000000000000003,7.300000000000001,8.4,-14.300000000000002,36.1,38.900000000000006,16
1023,17286.0,-0.7000000000000001,1.2000000000000002,2.1,-2.6,7.800000000000001,8.9,-22.6,25.6,39.0,16
1024,17302.0,0.30000000000000004,0.8,2.6,-1.1,7.2,9.9,-50.400000000000006,14.200000000000001,24.200000000000003,16
1025,17319.0,0.6000000000000001,0.6000000000000001,2.9000000000000004,-1.1,7.2,9.9,-50.400000000000006,14.200000000000001,24.200000000000003,16
1026,17336.0,1.0,0.1,3.4000000000000004,-0.7000000000000001,6.7,10.600000000000001,-62.7,17.7,13.6,16
1027,17357.0,0.7000000000000001,-0.30000000000000004,3.4000000000000004,-1.2000000000000002,5.7,10.8,-59.300000000000004,36.0,0.0,16
1028,17369.0,0.4,-0.30000000000000004,3.3000000000000003,-1.2000000000000002,5.7,10.8,-59.300000000000004,36.0,0.0,16
1029,17386.0,-0.1,-0.30000000000000004,2.6,-2.1,5.6000000000000005,9.9,-40.800000000000004,26.9,18.900000000000002,16
1030,17402.0,-0.30000000000000004,-0.1,2.0,-2.1,5.9,9.700000000000001,-33.0,6.1000000000000005,35.2,16
1031,17419.0,-0.30000000000000004,0.1,1.9000000000000001,-2.1,5.9,9.700000000000001,-33.0,6.1000000000000005,35.2,16
1032,17435.0,0.2,0.0,1.6,-1.1,5.6000000000000005,9.1,-6.8,-32.7,51.4,16
1033,17453.0,0.7000000000000001,-0.4,0.6000000000000001,-0.6000000000000001,5.4,8.1,10.9,-26.1,52.7,16
1034,17469.0,0.8,-0.5,0.0,-0.6000000000000001,5.4,8.1,10.9,-26.1,52.7,16
1035,17486.0,0.4,-0.30000000000000004,-0.8,-1.0,5.5,6.9,22.2,-9.5,48.0,16
1036,17502.0,0.1,-0.5,-1.0,-0.9,5.4,6.7,22.5,-10.8,44.10000000000001,16
1037,17519.0,0.2,-0.7000000000000001,-1.1,-0.9,5.4,6.7,22.5,-10.8,44.10000000000001,16
1038,17536.0,0.30000000000000004,-0.7000000000000001,-1.4000000000000001,-0.4,5.300000000000001,6.1000000000000005,27.9,-11.1,40.300000000000004,16
1039,17555.0,0.5,-0.9,-1.8,-0.2,5.300000000000001,5.7,31.2,-11.6,39.50000000000001,16
1040,17573.0,0.6000000000000001,-1.0,-2.4000000000000004,0.0,5.2,5.1000000000000005,35.0,-6.8,36.0,16
1041,17590.0,0.6000000000000001,-1.1,-2.7,-0.2,5.300000000000001,4.5,37.6,2.5,28.200000000000003,16
1042,17607.0,0.1,-1.0,-3.1,-0.6000000000000001,5.4,4.1000000000000005,35.1,11.2,21.400000000000002,16
1043,17624.0,-0.30000000000000004,-1.0,-3.4000000000000004,-0.9,5.5,3.8000000000000003,27.2,15.299999999999999,19.5,16
1044,17644.0,-0.4,-0.8,-3.3000000000000003,-0.9,5.7,3.9000000000000004,14.600000000000001,14.200000000000001,21.900000000000002,16
1045,17653.0,-0.2,-0.7000000000000001,-3.1,-0.7000000000000001,5.9,4.2,2.1,10.0,25.900000000000002,16
1046,17669.0,0.0,-0.6000000000000001,-2.7,-0.7000000000000001,5.9,4.2,2.1,10.0,25.900000000000002,16
1047,17686.0,-0.1,-0.6000000000000001,-2.0,-0.6000000000000001,5.9,5.300000000000001,-14.200000000000001,-5.500000000000001,31.0,16
1048,17703.0,-0.4,-0.4,-1.5,-0.8,6.2,5.800000000000001,-16.3,-6.1000000000000005,37.800000000000004,16
1049,17719.0,-0.5,-0.2,-1.3,-0.8,6.2,5.800000000000001,-16.3,-6.1000000000000005,37.800000000000004,16
1050,17736.0,0.0,-0.5,-1.1,0.2,6.0,7.1000000000000005,-16.5,22.4,58.60000000000001,16
1051,17756.0,0.4,0.0,1.2000000000000002,0.0,6.5,8.6,-16.8,12.200000000000001,60.00000000000001,16
1052,17775.0,-0.5,1.3,2.3000000000000003,-0.5,7.7,9.700000000000001,-13.3,5.500000000000001,52.2,16
1053,17790.0,-0.2,2.0,3.1,0.30000000000000004,8.0,10.4,-8.899999999999999,-15.6,55.60000000000001,16
1054,17805.0,1.0,0.6000000000000001,2.8000000000000003,1.2000000000000002,6.800000000000001,10.200000000000001,-0.9000000000000001,-8.100000000000001,51.2,16
1055,17820.0,1.0,0.30000000000000004,2.9000000000000004,1.0,7.1000000000000005,10.3,6.0,37.300000000000004,40.7,16
1056,17840.0,0.2,1.1,2.7,0.0,7.6000000000000005,10.0,8.100000000000001,71.5,36.9,16
1057,17855.0,-0.8,1.7000000000000002,2.2,-0.9,8.200000000000001,9.600000000000001,6.1000000000000005,87.3,37.300000000000004,16
1058,17873.0,-1.2000000000000002,2.1,2.0,-1.8,8.6,9.3,5.4,91.30000000000001,41.300000000000004,16
1059,17886.0,-2.5,2.3000000000000003,1.7000000000000002,-2.7,8.6,9.1,6.600000000000001,81.4,49.50000000000001,16
1060,17906.0,-2.1,1.4000000000000001,1.6,-2.3000000000000003,7.800000000000001,9.0,6.2,55.3,61.8,16
1061,17919.0,-1.9000000000000001,1.1,1.6,-1.9000000000000001,7.4,8.9,8.3,35.0,69.60000000000001,16
1062,17936.0,-1.5,0.4,1.3,-1.5,6.7,8.6,14.300000000000002,29.700000000000006,74.4,16
1063,17953.0,-1.3,-0.1,1.0,-1.5,6.7,8.6,14.300000000000002,29.700000000000006,74.4,16
1064,17969.0,-1.2000000000000002,-0.5,0.1,-1.2000000000000002,6.0,6.9,24.8,46.300000000000004,71.0,16
1065,17988.0,-1.2000000000000002,-0.7000000000000001,-0.9,-1.2000000000000002,5.9,6.1000000000000005,23.400000000000002,55.900000000000006,64.30000000000001,16
1066,18002.0,-1.2000000000000002,-0.8,-1.4000000000000001,-1.2000000000000002,5.9,6.1000000000000005,23.400000000000002,55.900000000000006,64.30000000000001,16
1067,18019.0,-1.3,-0.5,-1.8,-1.5,6.300000000000001,5.300000000000001,3.8,75.60000000000001,51.9,16
1068,18035.0,-1.5,-0.30000000000000004,-1.9000000000000001,-1.6,6.5,5.300000000000001,-7.9,72.30000000000001,47.1,16
1069,18053.0,-1.3,-0.2,-1.7000000000000002,-1.6,6.5,5.300000000000001,-7.9,72.30000000000001,47.1,16
1070,18069.0,-0.8,-0.30000000000000004,-1.2000000000000002,-1.1,6.5,6.0,-17.0,29.1,35.3,16
1071,18087.0,-1.2000000000000002,0.2,-1.2000000000000002,-1.3,6.7,6.2,-13.100000000000001,14.300000000000002,29.500000000000004,16
1072,18102.0,-0.9,-0.1,-0.8,-1.3,6.7,6.2,-13.100000000000001,14.300000000000002,29.500000000000004,16
1073,18120.0,-0.7000000000000001,-0.8,-0.9,-0.8,5.800000000000001,6.5,-11.3,-10.200000000000001,26.5,16
1074,18140.0,-0.6000000000000001,-0.9,-0.6000000000000001,-0.6000000000000001,5.6000000000000005,6.800000000000001,-10.1,-5.9,28.800000000000004,16
1075,18163.0,-0.5,-0.9,-0.1,-0.5,5.6000000000000005,7.1000000000000005,-8.2,-4.7,30.699999999999996,16
1076,18169.0,-0.5,-0.8,0.1,-0.4,5.7,7.4,-2.7,-5.4,33.50000000000001,16
1077,18186.0,-0.5,-0.8,0.1,-0.4,5.7,7.4,-2.7,-5.4,33.50000000000001,16
1078,18203.0,-0.4,-0.7000000000000001,0.0,0.1,5.800000000000001,7.300000000000001,18.900000000000002,15.5,42.3,16
1079,18219.0,0.0,-0.6000000000000001,0.0,0.30000000000000004,6.1000000000000005,7.0,30.3,23.0,44.2,16
1080,18236.0,0.1,-0.4,-0.30000000000000004,0.30000000000000004,6.1000000000000005,7.0,30.3,23.0,44.2,16
1081,18253.0,0.4,-0.2,-0.30000000000000004,1.0,6.5,6.9,34.300000000000004,5.300000000000001,39.8,16
1082,18269.0,0.8,-0.2,0.1,1.3,6.5,7.300000000000001,33.2,-7.1000000000000005,34.300000000000004,16
1083,18285.0,0.9,-0.30000000000000004,0.4,1.3,6.5,7.300000000000001,33.2,-7.1000000000000005,34.300000000000004,16
1084,18303.0,0.9,-0.6000000000000001,0.9,1.3,6.300000000000001,7.6000000000000005,47.3,-2.9,22.5,16
1085,18320.0,0.6000000000000001,-0.6000000000000001,0.5,1.2000000000000002,6.5,7.0,55.60000000000001,15.100000000000001,22.2,16
1086,18335.0,0.5,-0.5,0.1,1.2000000000000002,6.5,7.0,55.60000000000001,15.100000000000001,22.2,16
1087,18364.0,0.5,0.1,-0.9,1.1,7.2,5.7,46.1,26.6,14.300000000000002,16
1088,18370.0,0.6000000000000001,0.2,-1.0,1.3,7.5,5.6000000000000005,30.3,20.599999999999998,6.9,16
1089,18386.0,0.7000000000000001,0.30000000000000004,-0.8,1.3,7.5,5.6000000000000005,30.3,20.599999999999998,6.9,16
1090,18402.0,0.9,0.4,-0.2,1.5,7.7,6.5,-4.9,2.8,-12.100000000000001,16
1091,18420.0,0.8,0.4,0.4,1.3,7.7,7.1000000000000005,-20.1,9.0,-19.700000000000003,16
1092,18442.0,0.7000000000000001,0.5,1.2000000000000002,1.1,7.7,7.800000000000001,-35.0,21.200000000000003,-23.900000000000006,16
1093,18456.0,0.5,0.6000000000000001,1.6,0.8,7.800000000000001,8.4,-46.300000000000004,36.400000000000006,-25.1,16
1094,18471.0,0.4,0.8,1.9000000000000001,0.6000000000000001,7.800000000000001,8.700000000000001,-53.8,48.2,-25.6,16
1095,18487.0,0.5,0.8,2.0,0.6000000000000001,7.800000000000001,8.700000000000001,-53.8,48.2,-25.6,16
1096,18502.0,0.5,0.8,2.5,0.30000000000000004,7.6000000000000005,9.8,-63.70000000000001,38.0,-28.1,16
1097,18520.0,0.2,0.6000000000000001,3.4000000000000004,0.0,7.2,10.9,-60.00000000000001,15.899999999999999,-26.400000000000006,16
1098,18535.0,0.1,0.4,4.0,0.0,7.2,10.9,-60.00000000000001,15.899999999999999,-26.400000000000006,16
1099,18552.0,0.0,0.0,4.800000000000001,-0.1,6.300000000000001,12.200000000000001,-23.400000000000002,-28.600000000000005,-5.7,16
1100,18573.0,0.4,-0.6000000000000001,4.6000000000000005,0.4,5.800000000000001,11.8,6.2,-38.300000000000004,5.2,16
1101,18588.0,0.6000000000000001,-0.9,4.0,0.4,5.800000000000001,11.8,6.2,-38.300000000000004,5.2,16
1102,18605.0,0.8,-1.2000000000000002,2.2,0.9,5.4,8.9,51.2,-32.2,15.299999999999999,16
1103,18619.0,0.8,-1.3,1.2000000000000002,0.9,5.4,8.9,51.2,-32.2,15.299999999999999,16
1104,18636.0,1.0,-1.5,-0.5,1.4000000000000001,5.2,6.1000000000000005,50.7,-25.900000000000002,9.2,16
1105,18652.0,1.0,-1.9000000000000001,-1.6,1.2000000000000002,4.9,5.2,39.50000000000001,-19.700000000000003,2.4000000000000004,16
1106,18669.0,0.7000000000000001,-2.1,-2.0,1.2000000000000002,4.9,5.2,39.50000000000001,-19.700000000000003,2.4000000000000004,16
1107,18685.0,0.5,-2.3000000000000003,-2.3000000000000003,0.7000000000000001,4.7,4.4,15.5,10.0,-2.2,16
1108,18702.0,0.30000000000000004,-2.3000000000000003,-2.6,0.6000000000000001,4.7,4.3,7.0,14.200000000000001,-6.0,16
1109,18729.0,0.2,-2.3000000000000003,-2.7,0.5,4.7,4.1000000000000005,1.9,11.2,-10.700000000000001,16
1110,18736.0,0.1,-2.3000000000000003,-2.8000000000000003,0.2,4.9,3.9000000000000004,0.5,3.6000000000000005,-15.299999999999999,16
1111,18763.0,-0.1,-2.0,-3.2,0.30000000000000004,4.9,3.7,-0.6000000000000001,-12.0,-17.799999999999997,16
1112,18769.0,-0.1,-2.0,-3.2,0.30000000000000004,4.9,3.7,-0.6000000000000001,-12.0,-17.799999999999997,16
1113,18786.0,-0.1,-1.6,-3.2,0.1,5.6000000000000005,3.5,-8.100000000000001,-36.7,-16.200000000000003,16
1114,18804.0,-0.1,-1.3,-3.3000000000000003,0.1,5.6000000000000005,3.5,-8.100000000000001,-36.7,-16.200000000000003,16
1115,18822.0,0.1,-0.5,-2.9000000000000004,0.5,6.4,3.9000000000000004,-17.400000000000002,-44.9,-16.200000000000003,16
1116,18835.0,0.2,-0.1,-2.5,0.5,6.9,4.7,-22.4,-49.300000000000004,-19.200000000000003,16
1117,18852.0,-0.1,0.30000000000000004,-1.4000000000000001,0.30000000000000004,7.1000000000000005,5.6000000000000005,-24.599999999999998,-53.300000000000004,-21.8,16
1118,18869.0,-0.30000000000000004,0.4,-1.0,0.30000000000000004,7.1000000000000005,5.6000000000000005,-24.599999999999998,-53.300000000000004,-21.8,16
1119,18885.0,-0.7000000000000001,0.8,-0.6000000000000001,-0.2,7.6000000000000005,6.5,-18.0,-18.700000000000003,-6.9,16
1120,18902.0,-0.8,1.0,-0.4,-0.2,7.6000000000000005,6.5,-18.0,-18.700000000000003,-6.9,16
1121,18919.0,-0.7000000000000001,1.5,0.30000000000000004,-0.2,8.0,7.0,-15.5,4.6,5.1000000000000005,16
1122,18936.0,-0.4,1.7000000000000002,1.3,0.4,8.3,8.8,-15.2,-1.3,16.4,16
1123,18962.0,0.1,1.6,2.8000000000000003,0.8,8.200000000000001,10.100000000000001,-12.299999999999999,-9.5,18.1,16
1124,18969.0,0.2,1.5,3.4000000000000004,0.8,8.200000000000001,10.100000000000001,-12.299999999999999,-9.5,18.1,16
1125,18986.0,0.0,1.5,3.6,0.5,8.200000000000001,10.4,9.899999999999999,20.8,16.4,16
1126,19003.0,-0.2,1.6,3.2,0.5,8.200000000000001,10.4,9.899999999999999,20.8,16.4,16
1127,19020.0,-0.4,1.9000000000000001,2.7,0.1,8.9,9.600000000000001,9.8,53.8,21.7,16
1128,19035.0,-0.6000000000000001,2.4000000000000004,2.3000000000000003,-0.2,9.200000000000001,9.3,7.9,53.599999999999994,20.400000000000002,16
1129,19053.0,-0.7000000000000001,2.5,2.1,-0.2,9.200000000000001,9.3,7.9,53.599999999999994,20.400000000000002,16
1130,19069.0,-0.8,2.1,1.8,-0.30000000000000004,8.5,8.8,4.2,19.400000000000002,17.799999999999997,16
1131,19085.0,-0.5,1.2000000000000002,1.8,0.1,7.800000000000001,8.9,1.9,-7.9,19.1,16
1132,19102.0,-0.30000000000000004,0.9,1.7000000000000002,0.1,7.800000000000001,8.9,1.9,-7.9,19.1,16
1133,19119.0,0.30000000000000004,-0.4,1.5,1.0,6.0,8.1,14.300000000000002,-26.799999999999997,13.700000000000001,16
1134,19138.0,0.30000000000000004,-1.3,0.1,0.8,5.4,6.6000000000000005,26.700000000000003,-10.0,6.500000000000001,16
1135,19152.0,0.0,-1.6,-0.9,0.8,5.4,6.6000000000000005,26.700000000000003,-10.0,6.500000000000001,16
1136,19172.0,-0.7000000000000001,-1.9000000000000001,-2.6,-0.30000000000000004,5.1000000000000005,3.9000000000000004,18.200000000000003,28.400000000000002,3.5,16
1137,19187.0,-1.3,-1.8,-3.3000000000000003,-0.9,5.300000000000001,3.5,1.1,39.300000000000004,7.200000000000001,16
1138,19202.0,-1.5,-1.6,-3.4000000000000004,-0.9,5.300000000000001,3.5,1.1,39.300000000000004,7.200000000000001,16
1139,19219.0,-2.0,-1.2000000000000002,-3.2,-1.7000000000000002,5.800000000000001,3.9000000000000004,-29.900000000000006,44.300000000000004,15.000000000000002,16
1140,19239.0,-2.0,-1.0,-2.8000000000000003,-1.5,5.800000000000001,4.5,-41.800000000000004,40.1,20.8,16
1141,19258.0,-1.4000000000000001,-0.7000000000000001,-1.7000000000000002,-1.0,5.9,5.5,-53.10000000000001,26.200000000000003,26.000000000000004,16
1142,19269.0,-0.9,-0.7000000000000001,-1.0,-0.30000000000000004,5.800000000000001,6.7,-57.800000000000004,5.4,27.0,16
1143,19286.0,-0.4,-0.7000000000000001,0.2,0.1,5.7,7.6000000000000005,-54.4,-12.9,22.3,16
1144,19302.0,-0.30000000000000004,-0.7000000000000001,0.5,0.1,5.7,7.6000000000000005,-54.4,-12.9,22.3,16
1145,19325.0,-0.2,-0.9,0.9,0.30000000000000004,5.2,8.3,-32.400000000000006,-8.899999999999999,12.600000000000001,16
1146,19339.0,-0.2,-0.9,0.7000000000000001,0.30000000000000004,5.2,8.1,-21.900000000000002,9.100000000000001,12.100000000000001,16
1147,19359.0,-0.2,-0.9,0.5,0.30000000000000004,5.2,8.1,-21.900000000000002,9.100000000000001,12.100000000000001,16
1148,19379.0,-0.5,-0.6000000000000001,0.1,0.0,5.5,7.7,-8.8,40.2,13.900000000000002,16
1149,19387.0,-0.5,-0.6000000000000001,-0.1,-0.2,5.5,7.4,0.6000000000000001,44.9,13.5,16
1150,19402.0,-0.6000000000000001,-0.6000000000000001,-0.30000000000000004,-0.2,5.5,7.4,0.6000000000000001,44.9,13.5,16
1151,19426.0,-0.7000000000000001,-0.4,-0.7000000000000001,-0.5,5.7,6.800000000000001,14.0,33.9,13.900000000000002,16
1152,19436.0,-0.7000000000000001,-0.4,-0.8,-0.5,5.7,6.800000000000001,14.0,33.9,13.900000000000002,16
1153,19470.0,-0.8,0.0,-0.2,-0.6000000000000001,6.2,7.4,21.6,14.0,15.100000000000001,16
1154,19485.0,-0.7000000000000001,0.1,0.1,-0.6000000000000001,6.2,7.4,21.6,14.0,15.100000000000001,16
1155,19503.0,-0.4,0.30000000000000004,0.4,-0.1,6.800000000000001,7.9,25.8,7.1000000000000005,14.200000000000001,16
1156,19521.0,-0.1,0.8,0.6000000000000001,0.1,7.2,8.0,21.8,5.300000000000001,8.100000000000001,16
1157,19543.0,0.2,0.9,1.0,0.4,7.4,8.3,11.2,14.600000000000001,0.4,16
1158,19559.0,0.4,1.3,1.4000000000000001,0.4,7.7,8.700000000000001,-4.5,41.800000000000004,-6.600000000000001,16
1159,19570.0,0.30000000000000004,1.7000000000000002,1.6,0.2,8.3,9.1,-22.6,65.2,-14.5,16
1160,19585.0,0.2,2.1,1.8,0.2,8.3,9.1,-22.6,65.2,-14.5,16
1161,19604.0,1.1,2.2,3.2,0.9,8.3,11.4,-58.2,63.70000000000001,-43.2,16
1162,19622.0,1.5,1.8,4.5,0.7000000000000001,7.5,12.4,-60.2,63.30000000000001,-62.50000000000001,16
1163,19636.0,1.4000000000000001,1.1,4.800000000000001,0.7000000000000001,7.5,12.4,-60.2,63.30000000000001,-62.50000000000001,16
1164,19656.0,0.4,0.30000000000000004,4.5,-1.3,5.9,11.9,-38.1,83.30000000000001,-68.9,16
1165,19669.0,-0.5,-0.2,3.3000000000000003,-2.1,5.4,11.0,-21.500000000000004,89.70000000000002,-52.900000000000006,16
1166,19687.0,-0.6000000000000001,-0.4,2.8000000000000003,-2.1,5.4,11.0,-21.500000000000004,89.70000000000002,-52.900000000000006,16
1167,19702.0,-0.30000000000000004,-0.6000000000000001,1.9000000000000001,-2.3000000000000003,5.0,9.5,6.699999999999999,50.900000000000006,-17.400000000000002,16
1168,19720.0,-0.4,-0.9,1.3,-2.5,4.800000000000001,9.0,19.6,15.399999999999999,-5.500000000000001,16
1169,19735.0,-0.4,-1.0,1.0,-2.5,4.800000000000001,9.0,19.6,15.399999999999999,-5.500000000000001,16
1170,19752.0,-0.5,-1.2000000000000002,0.30000000000000004,-2.4000000000000004,4.6000000000000005,7.7,42.60000000000001,-36.0,20.599999999999998,16
1171,19773.0,-0.4,-1.4000000000000001,-0.8,-2.2,4.5,6.6000000000000005,45.5,-41.7,32.5,16
1172,19785.0,-0.4,-1.6,-1.4000000000000001,-2.2,4.5,6.6000000000000005,45.5,-41.7,32.5,16
1173,19802.0,-0.6000000000000001,-1.7000000000000002,-2.4000000000000004,-2.1,4.4,5.0,30.599999999999998,-35.5,48.70000000000001,16
1174,19820.0,-0.6000000000000001,-1.8,-2.6,-2.1,4.4,5.0,30.599999999999998,-35.5,48.70000000000001,16
1175,19836.0,-0.7000000000000001,-1.8,-2.7,-1.8,4.4,5.0,4.4,-56.10000000000001,57.699999999999996,16
1176,19863.0,-0.4,-1.9000000000000001,-1.7000000000000002,-1.3,4.3,5.6000000000000005,-1.2000000000000002,-66.80000000000001,61.199999999999996,16
1177,19869.0,-0.4,-1.9000000000000001,-1.7000000000000002,-1.3,4.3,5.6000000000000005,-1.2000000000000002,-66.80000000000001,61.199999999999996,16
1178,19885.0,0.5,-1.8,-1.0,0.4,4.6000000000000005,6.5,18.4,-63.30000000000001,54.199999999999996,16
1179,19902.0,0.8,-1.5,-1.2000000000000002,0.6000000000000001,5.0,5.9,34.400000000000006,-46.9,39.0,16
1180,19919.0,0.6000000000000001,-1.3,-1.8,0.6000000000000001,5.0,5.9,34.400000000000006,-46.9,39.0,16
1181,19935.0,-0.1,-1.1,-3.3000000000000003,-0.6000000000000001,5.5,3.4000000000000004,31.3,-10.8,10.200000000000001,16
1182,19956.0,-1.1,-0.8,-4.2,-1.1,5.800000000000001,3.0,7.400000000000001,2.7,7.500000000000001,16
1183,19974.0,-1.2000000000000002,-0.5,-3.6,-1.2000000000000002,6.0,3.7,-19.5,11.5,11.1,16
1184,19986.0,-1.1,-0.4,-2.9000000000000004,-0.9,6.1000000000000005,4.9,-38.1,14.600000000000001,15.100000000000001,16
1185,20002.0,-0.8,0.0,-1.5,-0.8,6.4,6.300000000000001,-44.6,13.900000000000002,18.4,16
1186,20022.0,-0.7000000000000001,0.5,0.1,-0.7000000000000001,6.7,7.5,-39.400000000000006,12.8,21.0,16
1187,20038.0,-0.7000000000000001,0.6000000000000001,0.6000000000000001,-0.8,6.7,8.3,-23.400000000000002,13.8,23.400000000000002,16
1188,20057.0,-1.0,0.5,1.2000000000000002,-0.9,6.6000000000000005,8.8,-6.300000000000001,12.8,30.1,16
1189,20070.0,-1.0,0.4,1.4000000000000001,-0.9,6.6000000000000005,8.8,-6.300000000000001,12.8,30.1,16
1190,20085.0,-0.6000000000000001,0.6000000000000001,1.9000000000000001,-0.2,6.9,9.600000000000001,9.4,-6.500000000000001,52.7,16
1191,20102.0,0.0,0.9,2.7,0.5,7.1000000000000005,10.4,9.0,-14.100000000000001,56.800000000000004,16
1192,20119.0,0.4,0.9,3.2,0.5,7.1000000000000005,10.4,9.0,-14.100000000000001,56.800000000000004,16
1193,20135.0,0.7000000000000001,0.7000000000000001,3.4000000000000004,1.1,6.9,10.600000000000001,18.1,26.799999999999997,45.2,16
1194,20152.0,0.6000000000000001,0.7000000000000001,3.1,1.1,6.9,10.600000000000001,18.1,26.799999999999997,45.2,16
1195,20170.0,-0.4,1.0,1.9000000000000001,0.30000000000000004,7.1000000000000005,9.700000000000001,16.8,50.900000000000006,40.1,16
1196,20187.0,-0.8,1.3,1.2000000000000002,-0.6000000000000001,7.6000000000000005,8.700000000000001,-8.2,70.0,39.8,16
1197,20202.0,-0.9,1.3,1.2000000000000002,-0.6000000000000001,7.6000000000000005,8.700000000000001,-8.2,70.0,39.8,16
1198,20225.0,-0.5,0.6000000000000001,1.7000000000000002,-0.30000000000000004,6.800000000000001,9.3,-23.700000000000003,44.9,38.7,16
1199,20238.0,-0.30000000000000004,0.2,1.5,-0.1,6.2,8.9,-15.700000000000001,38.60000000000001,37.9,16
1200,20265.0,-0.30000000000000004,-0.1,1.1,-0.1,6.2,8.9,-15.700000000000001,38.60000000000001,37.9,16
1201,20273.0,-0.30000000000000004,-0.1,1.1,-0.30000000000000004,5.7,7.7,3.7000000000000006,52.5,33.6,16
1202,20285.0,-0.8,-0.8,-2.3000000000000003,-1.0,5.5,5.0,-4.2,54.9,33.0,16
1203,20302.0,-1.0,-0.5,-2.8000000000000003,-1.0,5.5,5.0,-4.2,54.9,33.0,16
1204,20322.0,-1.2000000000000002,0.0,-2.5,-1.2000000000000002,6.1000000000000005,5.800000000000001,-42.7,18.0,32.1,16
1205,20338.0,-0.9,0.0,-1.1,-0.8,5.800000000000001,7.1000000000000005,-54.0,-0.9000000000000001,29.1,16
1206,20352.0,-0.7000000000000001,-0.2,-0.4,-0.8,5.800000000000001,7.1000000000000005,-54.0,-0.9000000000000001,29.1,16
1207,20369.0,-0.4,-0.5,0.9,-0.30000000000000004,5.0,9.1,-48.10000000000001,2.6,26.000000000000004,16
1208,20387.0,-0.2,-0.9,1.2000000000000002,-0.2,4.6000000000000005,9.200000000000001,-36.6,19.6,25.900000000000002,16
1209,20402.0,-0.2,-1.1,1.0,-0.2,4.6000000000000005,9.200000000000001,-36.6,19.6,25.900000000000002,16
1210,20419.0,-0.6000000000000001,-1.2000000000000002,0.4,-0.7000000000000001,4.3,8.3,-18.1,44.4,33.800000000000004,16
1211,20435.0,-0.7000000000000001,-1.1,-0.1,-0.7000000000000001,4.3,8.0,-12.5,38.400000000000006,40.300000000000004,16
1212,20452.0,-0.7000000000000001,-1.0,-0.2,-0.7000000000000001,4.3,8.0,-12.5,38.400000000000006,40.300000000000004,16
1213,20469.0,-0.30000000000000004,-0.8,-0.30000000000000004,-0.2,4.6000000000000005,7.6000000000000005,5.6,22.9,50.2,16
1214,20486.0,-0.1,-0.8,-0.5,-0.2,4.6000000000000005,7.6000000000000005,17.200000000000003,21.400000000000002,49.800000000000004,16
1215,20502.0,0.1,-0.7000000000000001,-1.0,0.1,4.7,7.2,17.200000000000003,21.400000000000002,49.800000000000004,16
1216,20519.0,0.2,-0.6000000000000001,-1.7000000000000002,0.2,5.1000000000000005,6.0,32.300000000000004,22.8,41.7,16
1217,20536.0,0.2,-0.4,-2.1,0.2,5.1000000000000005,6.0,32.300000000000004,22.8,41.7,16
1218,20552.0,-0.1,-0.30000000000000004,-2.5,0.0,5.300000000000001,5.5,30.4,21.1,34.400000000000006,16
1219,20569.0,-0.1,-0.30000000000000004,-2.1,-0.1,5.4,6.1000000000000005,13.6,8.8,21.7,16
1220,20585.0,-0.2,-0.30000000000000004,-1.7000000000000002,-0.1,5.4,6.1000000000000005,13.6,8.8,21.7,16
1221,20602.0,-0.4,-0.1,-1.0,-0.30000000000000004,5.5,6.6000000000000005,10.5,13.000000000000002,18.1,16
1222,20619.0,-0.4,0.1,-1.0,-0.5,6.0,6.6000000000000005,16.1,34.300000000000004,10.600000000000001,16
1223,20638.0,-0.7000000000000001,0.7000000000000001,-1.3,-0.8,6.6000000000000005,6.5,16.1,34.300000000000004,10.600000000000001,16
1224,20654.0,-0.8,1.1,-1.0,-0.9,7.300000000000001,7.300000000000001,0.2,25.300000000000004,3.5,16
1225,20672.0,-0.6000000000000001,1.5,0.5,-0.5,7.300000000000001,8.9,-12.0,5.6,-3.7000000000000006,16
1226,20688.0,-0.2,1.4000000000000001,1.6,-0.5,7.300000000000001,8.9,-12.0,5.6,-3.7000000000000006,16
1227,20702.0,0.4,1.3,4.0,0.5,7.0,12.8,-22.700000000000003,-5.4,-11.700000000000001,16
1228,20719.0,1.0,1.1,5.7,0.8,6.6000000000000005,13.8,-19.0,16.200000000000003,-12.8,16
1229,20736.0,1.1,0.9,6.0,0.8,6.6000000000000005,13.8,-19.0,16.200000000000003,-12.8,16
1230,20762.0,0.30000000000000004,0.30000000000000004,4.9,-0.1,6.0,12.9,2.2,63.8,-15.299999999999999,16
1231,20769.0,-0.1,0.1,4.0,-1.1,5.9,11.5,14.200000000000001,72.4,-9.700000000000001,16
1232,20785.0,-0.6000000000000001,0.2,3.1,-1.1,5.9,11.5,14.200000000000001,72.4,-9.700000000000001,16
1233,20804.0,-1.0,0.30000000000000004,1.8,-1.8,6.1000000000000005,9.5,26.1,32.300000000000004,14.600000000000001,16
1234,20822.0,-0.6000000000000001,0.30000000000000004,1.6,-1.2000000000000002,6.2,9.600000000000001,25.0,-12.9,23.800000000000004,16
1235,20839.0,0.5,-0.1,1.9000000000000001,-0.1,5.800000000000001,9.8,25.0,-49.4,28.600000000000005,16
1236,20852.0,0.9,-0.5,2.2,0.6000000000000001,5.4,10.100000000000001,26.1,-64.7,27.400000000000002,16
1237,20869.0,1.4000000000000001,-0.8,2.1,1.1,5.1000000000000005,9.700000000000001,28.500000000000004,-62.300000000000004,22.3,16
1238,20886.0,1.4000000000000001,-1.0,1.6,1.1,5.1000000000000005,9.700000000000001,28.500000000000004,-62.300000000000004,22.3,16
1239,20902.0,1.1,-1.3,0.4,1.0,4.7,7.800000000000001,17.7,-26.400000000000006,16.3,16
1240,20919.0,1.2000000000000002,-1.6,-0.30000000000000004,1.2000000000000002,4.6000000000000005,7.4,4.2,-12.200000000000001,13.200000000000003,16
1241,20935.0,1.3,-1.6,-0.4,1.2000000000000002,4.6000000000000005,7.4,4.2,-12.200000000000001,13.200000000000003,16
1242,20953.0,1.2000000000000002,-1.9000000000000001,-0.7000000000000001,1.1,4.1000000000000005,6.9,-2.7,9.8,-0.6000000000000001,16
