,ms,accelX,accelY,accelZ,accelWithGX,accelWithGY,accelWithGZ,rotRateAlpha,rotRateBeta,rotRateGamma,interval
0,89.0,-0.5,0.7000000000000001,0.9,-0.7000000000000001,6.5,8.8,-16.4,-22.8,-5.1000000000000005,16
1,106.0,-0.4,0.9,0.2,-0.6000000000000001,6.7,8.1,-0.1,16.900000000000002,4.300000000000001,16
2,127.0,0.2,1.2000000000000002,0.6000000000000001,0.0,7.0,8.5,-17.6,-11.1,-3.4,16
3,139.0,1.2000000000000002,0.1,2.5,1.0,5.800000000000001,10.5,-42.5,-39.8,-7.699999999999999,16
4,157.0,1.2000000000000002,-1.0,3.5,1.1,4.6000000000000005,11.5,-41.199999999999996,-27.3,-2.0,16
5,172.0,1.0,-1.3,3.3000000000000003,1.0,4.3,11.3,-28.900000000000002,-10.200000000000001,2.5,16
6,190.0,1.0,-1.4000000000000001,2.1,1.0,4.1000000000000005,10.200000000000001,3.0,0.9000000000000001,9.899999999999999,16
7,206.0,1.2000000000000002,-1.3,1.7000000000000002,1.3,4.2,9.8,15.100000000000001,-9.0,10.299999999999999,16
8,222.0,1.2000000000000002,-1.3,1.7000000000000002,1.3,4.2,9.8,15.100000000000001,-9.0,10.299999999999999,16
9,242.0,2.1,-1.0,0.8,2.2,4.6000000000000005,8.8,23.3,-31.3,2.3,16
10,255.0,2.1,-1.0,0.8,1.9000000000000001,4.6000000000000005,8.1,-7.1000000000000005,-1.7,-5.9,16
11,277.0,2.1,-1.0,0.8,1.9000000000000001,4.6000000000000005,8.1,-7.1000000000000005,-1.7,-5.9,16
12,289.0,0.4,-0.7000000000000001,-0.4,0.6000000000000001,4.800000000000001,7.7,-30.3,19.300000000000004,1.2000000000000002,16
13,307.0,0.2,-0.6000000000000001,-0.4,0.4,4.800000000000001,7.7,-23.900000000000006,10.299999999999999,1.3,16
14,322.0,0.1,-0.6000000000000001,-0.5,0.30000000000000004,4.9,7.6000000000000005,-14.5,0.5,1.0,16
15,339.0,0.1,-0.5,-0.9,0.30000000000000004,4.9,7.300000000000001,6.2,-18.0,-2.1,16
16,355.0,0.1,-0.30000000000000004,-1.3,0.30000000000000004,5.1000000000000005,6.9,11.4,-22.000000000000004,-5.8,16
17,372.0,0.0,-0.4,-1.3,0.30000000000000004,5.2,6.9,6.2,-18.200000000000003,-6.500000000000001,16
18,389.0,0.0,-0.30000000000000004,-0.8,0.30000000000000004,5.2,7.4,-11.5,-2.8,-6.0,16
19,405.0,-0.2,-0.30000000000000004,-0.30000000000000004,0.1,5.1000000000000005,7.9,-20.599999999999998,9.100000000000001,-2.0,16
20,422.0,-0.30000000000000004,-0.4,0.0,0.0,5.0,8.200000000000001,-22.9,10.299999999999999,1.3,16
21,439.0,0.1,-0.4,0.30000000000000004,0.4,4.9,8.5,-13.200000000000003,2.0,6.1000000000000005,16
22,455.0,0.7000000000000001,-0.2,0.1,0.9,5.1000000000000005,8.4,10.4,-7.400000000000001,9.0,16
23,472.0,0.8,0.0,-0.1,1.1,5.300000000000001,8.1,20.8,-8.5,7.9,16
24,489.0,0.7000000000000001,0.0,-0.4,0.9,5.6000000000000005,7.300000000000001,32.2,0.9000000000000001,3.3000000000000007,16
25,505.0,0.30000000000000004,0.30000000000000004,-1.3,0.6000000000000001,5.7,6.9,32.300000000000004,8.5,2.4000000000000004,16
26,522.0,-0.2,0.4,-1.8,0.1,5.9,6.300000000000001,24.3,18.700000000000003,2.0,16
27,539.0,-0.5,0.30000000000000004,-1.5,-0.2,5.9,6.6000000000000005,9.3,8.8,0.9000000000000001,16
28,555.0,0.0,-0.1,0.0,0.2,5.5,8.0,-8.700000000000001,-14.100000000000001,0.5,16
29,572.0,-0.1,-0.1,0.0,0.6000000000000001,5.300000000000001,9.0,-15.100000000000001,-20.1,1.7,16
30,589.0,0.9,-0.6000000000000001,2.5,1.2000000000000002,4.9,10.600000000000001,-20.3,-15.000000000000002,6.4,16
31,605.0,0.7000000000000001,-0.6000000000000001,2.8000000000000003,1.1,4.9,10.9,-16.1,2.0,10.4,16
32,622.0,-0.30000000000000004,-0.1,1.4000000000000001,0.1,5.300000000000001,9.600000000000001,7.8,53.599999999999994,23.0,16
33,639.0,-1.1,0.7000000000000001,-0.4,-0.9,6.2,7.7,31.099999999999998,57.49999999999999,29.300000000000004,16
34,655.0,-0.5,1.3,-0.7000000000000001,-0.30000000000000004,6.9,7.4,30.200000000000003,-5.1000000000000005,25.900000000000002,16
35,672.0,-0.5,1.2000000000000002,-0.7000000000000001,0.5,6.6000000000000005,7.9,20.3,-35.2,19.200000000000003,16
36,689.0,0.8,0.5,0.6000000000000001,1.5,5.6000000000000005,9.200000000000001,-1.3,-46.50000000000001,5.8,16
37,705.0,1.2000000000000002,-0.6000000000000001,1.6,1.6,5.1000000000000005,9.600000000000001,-10.700000000000001,-31.0,0.7,16
38,722.0,0.7000000000000001,-1.1,1.7000000000000002,1.1,4.5,9.700000000000001,-24.200000000000003,2.9,-5.1000000000000005,16
39,739.0,0.4,-1.5,1.7000000000000002,0.9,4.0,9.8,-33.6,3.4,-8.5,16
40,755.0,0.4,-1.8,1.8,0.8,3.6,9.9,-34.300000000000004,-5.0,-11.1,16
41,772.0,0.4,-1.8,1.8,0.8,3.5,9.9,-31.099999999999998,-6.300000000000001,-11.5,16
42,789.0,0.2,-1.9000000000000001,1.5,0.5,3.4000000000000004,9.5,-23.0,-5.0,-7.9,16
43,805.0,0.1,-1.8,0.9,0.5,3.5,9.200000000000001,-19.6,-3.1,-3.7000000000000006,16
44,822.0,0.1,-1.2000000000000002,0.30000000000000004,0.5,4.0,8.6,-14.100000000000001,1.5,6.9,16
45,839.0,0.2,-0.7000000000000001,-0.2,0.6000000000000001,4.4,8.1,-10.5,1.9,13.100000000000001,16
46,855.0,0.2,-0.30000000000000004,-0.6000000000000001,0.7000000000000001,4.800000000000001,7.800000000000001,-7.200000000000001,-3.9,14.100000000000001,16
47,872.0,0.2,-0.30000000000000004,-0.6000000000000001,0.8,5.0,7.7,-5.0,-9.700000000000001,14.200000000000001,16
48,889.0,0.8,0.2,-0.5,1.3,5.2,7.9,-2.0,-22.5,11.900000000000002,16
49,905.0,1.1,0.2,-0.30000000000000004,1.7000000000000002,5.2,8.0,-1.0,-23.800000000000004,9.4,16
50,922.0,1.1,0.2,-0.2,1.8,5.2,8.200000000000001,-1.8000000000000003,-15.5,2.2,16
51,939.0,0.8,0.0,-0.30000000000000004,1.5,5.0,8.0,-2.7,-2.9,-5.1000000000000005,16
52,955.0,0.2,-0.2,-0.5,0.9,4.9,7.9,-2.4000000000000004,1.3,-11.2,16
53,972.0,0.0,-0.2,-0.5,0.7000000000000001,4.800000000000001,7.9,-1.5,-0.2,-13.100000000000001,16
54,989.0,-0.2,-0.2,-0.6000000000000001,0.5,4.800000000000001,7.800000000000001,0.9000000000000001,-4.7,-14.600000000000001,16
55,1005.0,-0.2,-0.30000000000000004,-0.6000000000000001,0.5,4.800000000000001,7.800000000000001,2.2,-9.4,-13.5,16
56,1022.0,-0.1,-0.30000000000000004,-0.30000000000000004,0.6000000000000001,4.7,8.1,3.4,-8.4,-13.100000000000001,16
57,1039.0,-0.30000000000000004,-0.30000000000000004,-0.30000000000000004,0.4,4.7,8.0,6.9,-2.3,-13.200000000000003,16
58,1056.0,-0.6000000000000001,-0.4,-0.30000000000000004,0.1,4.7,8.0,7.200000000000001,-1.0,-14.300000000000002,16
59,1074.0,-0.6000000000000001,-0.4,-0.30000000000000004,0.0,4.7,8.1,6.2,-2.1,-13.200000000000003,16
60,1091.0,-0.6000000000000001,-0.1,0.2,0.1,5.0,8.5,0.9000000000000001,-11.000000000000002,-8.899999999999999,16
61,1108.0,-0.6000000000000001,0.1,0.5,0.1,5.2,8.8,-2.2,-13.399999999999999,-7.200000000000001,16
62,1123.0,-0.6000000000000001,0.30000000000000004,0.4,0.1,5.4,8.700000000000001,-11.1,-5.300000000000001,-9.0,16
63,1139.0,-0.8,0.1,0.30000000000000004,-0.1,5.2,8.6,-35.3,0.1,-16.900000000000002,16
64,1157.0,-0.5,-0.5,1.3,0.1,4.5,9.8,-73.5,-4.800000000000001,-17.7,16
65,1172.0,-0.5,-0.4,1.3,0.1,4.0,10.9,-88.20000000000002,-5.2,-12.8,16
66,1190.0,-0.30000000000000004,-1.3,4.2,0.4,3.2,12.9,-87.7,-11.2,5.300000000000001,16
67,1205.0,0.2,-1.5,4.9,0.9,3.0,13.600000000000001,-69.00000000000001,-14.5,16.900000000000002,16
68,1223.0,1.9000000000000001,-1.4000000000000001,4.6000000000000005,2.6,2.9000000000000004,13.4,-0.6000000000000001,-4.1,36.1,16
69,1239.0,2.5,-0.7000000000000001,1.9000000000000001,3.3000000000000003,3.6,10.600000000000001,69.00000000000001,10.700000000000001,34.800000000000004,16
70,1255.0,2.3000000000000003,-0.1,-1.2000000000000002,3.1,4.5,7.5,92.8,9.5,15.6,16
71,1274.0,1.1,0.30000000000000004,-3.1,1.9000000000000001,5.1000000000000005,5.4,62.50000000000001,1.8000000000000003,-7.699999999999999,16
72,1289.0,1.2000000000000002,0.2,-3.0,1.3,5.0,5.2,48.0,-0.9000000000000001,-13.6,16
73,1306.0,0.2,-0.30000000000000004,-3.0,0.9,4.7,5.4,14.600000000000001,-4.5,-22.700000000000003,16
74,1324.0,-0.2,-1.2000000000000002,-1.4000000000000001,0.5,3.8000000000000003,7.0,-44.9,0.2,-21.200000000000003,16
75,1340.0,0.2,-1.6,0.4,0.9,3.2,8.9,-67.60000000000001,5.6,-8.100000000000001,16
76,1358.0,0.9,-1.4000000000000001,1.4000000000000001,1.6,3.2,10.0,-49.699999999999996,-2.8,0.7,16
77,1374.0,1.2000000000000002,-1.3,1.5,1.9000000000000001,3.2,10.100000000000001,-30.699999999999996,-7.500000000000001,1.8000000000000003,16
78,1390.0,1.2000000000000002,-0.7000000000000001,0.5,1.9000000000000001,3.7,9.200000000000001,8.700000000000001,-8.4,-3.6000000000000005,16
79,1406.0,0.9,-0.4,-0.2,1.7000000000000002,4.1000000000000005,8.5,21.1,-5.500000000000001,-7.300000000000001,16
80,1423.0,0.4,0.0,-1.3,1.2000000000000002,4.5,7.4,23.0,2.2,-9.3,16
81,1439.0,0.0,0.2,-1.7000000000000002,0.7000000000000001,4.800000000000001,6.9,5.4,8.5,-5.4,16
82,1457.0,0.0,0.30000000000000004,-1.6,0.7000000000000001,4.9,7.0,-4.2,8.2,-2.0,16
83,1472.0,0.1,0.30000000000000004,-1.2000000000000002,0.8,4.9,7.4,-14.300000000000002,6.1000000000000005,3.1,16
84,1489.0,0.1,0.4,-1.0,0.8,5.0,7.9,-9.2,4.800000000000001,3.6000000000000005,16
85,1506.0,0.1,0.6000000000000001,-0.8,0.7000000000000001,5.2,7.9,-3.1,4.1,2.9,16
86,1523.0,0.1,0.8,-0.9,0.8,5.4,7.800000000000001,6.300000000000001,-0.6000000000000001,0.4,16
87,1539.0,0.2,0.8,-0.7000000000000001,0.9,5.4,8.0,6.4,-7.6,-1.8000000000000003,16
88,1566.0,0.30000000000000004,0.5,-0.2,1.0,5.0,8.5,1.6,-3.7000000000000006,-3.2,16
89,1573.0,0.2,0.30000000000000004,0.1,0.9,4.9,8.700000000000001,0.4,2.0,-3.0,16
90,1589.0,0.1,0.2,0.30000000000000004,0.7000000000000001,4.800000000000001,8.9,2.8,14.600000000000001,-1.9,16
91,1606.0,0.0,0.30000000000000004,0.4,0.7000000000000001,4.9,9.1,5.500000000000001,18.700000000000003,-1.3,16
92,1624.0,0.0,0.4,0.4,0.6000000000000001,5.1000000000000005,9.0,8.600000000000001,18.5,-0.30000000000000004,16
93,1651.0,0.30000000000000004,0.4,0.9,0.8,5.0,9.5,6.300000000000001,5.2,-1.3,16
94,1659.0,0.30000000000000004,0.4,0.9,0.8,5.0,9.5,6.300000000000001,5.2,-1.3,16
95,1674.0,0.30000000000000004,0.1,1.2000000000000002,0.8,4.800000000000001,9.8,6.500000000000001,13.3,-0.2,16
96,1689.0,-0.2,0.0,1.1,0.30000000000000004,4.7,9.700000000000001,9.4,32.2,6.699999999999999,16
97,1706.0,-0.6000000000000001,0.1,0.7000000000000001,-0.2,4.800000000000001,9.3,13.6,46.0,11.2,16
98,1726.0,-1.3,0.6000000000000001,-0.1,-1.0,5.4,8.5,21.6,48.9,19.400000000000002,16
99,1743.0,-0.9,1.1,0.6000000000000001,-0.7000000000000001,6.0,9.1,21.900000000000002,19.700000000000003,23.400000000000002,16
100,1756.0,0.30000000000000004,0.7000000000000001,1.8,0.5,5.6000000000000005,10.200000000000001,13.200000000000003,-18.900000000000002,22.4,16
101,1772.0,0.6000000000000001,0.30000000000000004,2.3000000000000003,0.8,5.300000000000001,10.8,8.100000000000001,-29.900000000000006,19.5,16
102,1789.0,0.5,-0.4,2.8000000000000003,0.9,4.5,11.3,6.600000000000001,-23.099999999999998,14.700000000000001,16
103,1810.0,0.2,-0.7000000000000001,2.6,0.4,4.3,10.8,13.6,3.7000000000000006,15.8,16
104,1822.0,-0.30000000000000004,-0.7000000000000001,1.9000000000000001,0.2,4.3,10.4,16.200000000000003,8.600000000000001,16.1,16
105,1839.0,0.1,-0.6000000000000001,1.1,0.6000000000000001,4.4,9.5,20.900000000000002,-2.7,9.899999999999999,16
106,1857.0,0.4,-0.5,0.5,0.9,4.6000000000000005,8.8,20.5,-11.900000000000002,3.0,16
107,1873.0,0.5,-0.5,0.4,1.0,4.6000000000000005,8.8,14.100000000000001,-28.600000000000005,-12.8,16
108,1889.0,0.2,-1.2000000000000002,0.1,0.8,4.0,8.4,6.2,-21.900000000000002,-19.400000000000002,16
109,1906.0,0.2,-1.2000000000000002,0.1,0.6000000000000001,3.8000000000000003,8.200000000000001,-0.8,-10.299999999999999,-17.799999999999997,16
110,1925.0,-0.2,-1.5,-0.6000000000000001,0.4,3.6,7.7,-11.3,14.100000000000001,-3.0,16
111,1944.0,0.0,-1.2000000000000002,-1.1,0.6000000000000001,3.9000000000000004,7.300000000000001,-13.399999999999999,22.3,9.600000000000001,16
112,1956.0,0.1,-0.6000000000000001,-1.2000000000000002,0.6000000000000001,4.5,7.2,-13.3,10.200000000000001,9.5,16
113,1973.0,0.0,-0.7000000000000001,-0.8,0.5,4.3,7.6000000000000005,-12.9,-3.9,7.0,16
114,1991.0,-0.4,-1.2000000000000002,-0.4,0.1,3.8000000000000003,8.0,-11.900000000000002,-14.100000000000001,4.9,16
115,2008.0,-0.6000000000000001,-1.2000000000000002,-0.4,0.1,4.0,8.0,-0.30000000000000004,-0.2,12.8,16
116,2025.0,-0.1,-0.7000000000000001,-0.5,0.5,4.3,7.9,5.1000000000000005,9.3,19.400000000000002,16
117,2052.0,0.5,0.1,-0.9,1.2000000000000002,5.2,7.2,9.0,23.0,15.700000000000001,16
118,2056.0,0.30000000000000004,0.30000000000000004,-1.4000000000000001,0.9,5.300000000000001,7.0,7.9,22.5,4.800000000000001,16
119,2073.0,0.4,0.30000000000000004,-1.4000000000000001,0.4,5.2,7.0,5.0,17.9,-6.300000000000001,16
120,2091.0,-0.5,0.0,-1.0,0.0,5.0,7.4,-2.1,0.1,-16.4,16
121,2107.0,-0.4,-0.1,-0.8,0.1,4.9,7.6000000000000005,-4.1,-1.1,-14.800000000000002,16
122,2122.0,-0.5,-0.2,-0.5,0.0,4.800000000000001,7.9,-5.300000000000001,2.2,-8.8,16
123,2139.0,-0.30000000000000004,0.0,0.2,0.1,5.0,8.6,1.4,-0.8,9.100000000000001,16
124,2161.0,0.2,0.0,0.7000000000000001,0.7000000000000001,5.0,9.1,8.100000000000001,-5.0,6.500000000000001,16
125,2172.0,0.5,0.1,1.1,1.0,5.1000000000000005,9.5,12.600000000000001,-3.7000000000000006,1.6,16
126,2189.0,0.7000000000000001,0.2,1.3,1.1,5.2,9.700000000000001,15.899999999999999,-1.0,-4.2,16
127,2206.0,0.8,0.30000000000000004,0.9,1.2000000000000002,5.4,9.3,17.400000000000002,13.399999999999999,-15.2,16
128,2222.0,-0.1,0.5,0.7000000000000001,0.30000000000000004,5.6000000000000005,9.1,7.300000000000001,25.6,-20.900000000000002,16
129,2239.0,-0.4,0.6000000000000001,0.7000000000000001,-0.2,5.7,9.0,-3.7000000000000006,26.5,-9.100000000000001,16
130,2256.0,-0.4,0.6000000000000001,0.6000000000000001,-0.1,5.800000000000001,9.0,-4.7,27.0,-0.8,16
131,2274.0,0.5,0.8,1.4000000000000001,0.6000000000000001,5.9,9.700000000000001,-12.9,-1.7,-1.8000000000000003,16
132,2289.0,0.5,0.8,1.4000000000000001,1.0,5.300000000000001,10.5,-26.000000000000004,-14.400000000000002,-8.5,16
133,2308.0,0.9,-0.30000000000000004,2.8000000000000003,1.0,4.7,11.200000000000001,-41.50000000000001,-22.2,-13.900000000000002,16
134,2322.0,0.6000000000000001,-1.3,3.6,0.8,3.6,12.100000000000001,-54.4,-11.1,-8.4,16
135,2339.0,0.4,-1.4000000000000001,2.8000000000000003,0.6000000000000001,3.3000000000000003,11.3,-29.200000000000003,25.900000000000002,12.9,16
136,2356.0,0.8,-0.9,1.0,0.9,3.8000000000000003,9.600000000000001,8.0,27.0,28.600000000000005,16
137,2373.0,1.3,-0.6000000000000001,0.2,1.4000000000000001,4.1000000000000005,8.8,22.5,14.0,28.500000000000004,16
138,2389.0,1.8,-0.4,-0.8,1.9000000000000001,4.4,7.7,34.50000000000001,-11.2,8.4,16
139,2406.0,1.7000000000000002,-0.5,-0.9,1.8,4.4,7.6000000000000005,29.400000000000002,-19.6,-4.800000000000001,16
140,2422.0,1.0,-1.0,-0.8,1.3,3.9000000000000004,7.7,6.1000000000000005,-21.7,-20.2,16
141,2439.0,0.1,-1.4000000000000001,-0.6000000000000001,0.4,3.5,7.9,-13.8,-3.0,-14.5,16
142,2456.0,0.0,-1.2000000000000002,-0.5,0.2,3.6,8.0,-18.700000000000003,7.1000000000000005,3.9,16
143,2476.0,0.8,-0.6000000000000001,-0.9,1.0,4.2,7.7,-13.6,4.7,10.700000000000001,16
144,2491.0,1.1,-0.30000000000000004,-1.2000000000000002,1.3,4.4,7.4,6.4,-1.6,10.299999999999999,16
145,2506.0,1.0,-0.1,-1.6,1.3,4.7,7.0,16.3,-3.3000000000000007,5.0,16
146,2524.0,0.9,0.1,-2.3000000000000003,1.2000000000000002,4.9,6.2,24.7,-3.8,-5.2,16
147,2542.0,0.30000000000000004,0.1,-2.5,0.6000000000000001,5.0,6.0,16.0,1.5,-11.6,16
148,2561.0,0.1,-0.1,-2.3000000000000003,0.1,4.800000000000001,6.5,1.9,-4.0,-11.4,16
149,2577.0,0.30000000000000004,0.0,-1.0,0.6000000000000001,4.9,7.4,-5.0,-11.700000000000001,-2.3,16
150,2590.0,0.4,0.0,-0.8,0.7000000000000001,5.0,7.6000000000000005,-6.4,-9.100000000000001,4.300000000000001,16
151,2606.0,0.5,0.1,-0.7000000000000001,0.8,5.0,7.800000000000001,-7.699999999999999,-1.4,10.700000000000001,16
152,2622.0,0.30000000000000004,0.5,-0.7000000000000001,0.6000000000000001,5.4,7.800000000000001,-8.4,12.8,16.700000000000003,16
153,2641.0,0.0,0.6000000000000001,-0.8,0.30000000000000004,5.5,7.7,-6.699999999999999,25.5,12.8,16
154,2662.0,-0.6000000000000001,0.5,-0.7000000000000001,-0.4,5.4,7.800000000000001,-7.500000000000001,19.6,2.2,16
155,2672.0,-0.8,0.4,-0.6000000000000001,-0.6000000000000001,5.300000000000001,7.9,-6.300000000000001,14.400000000000002,1.2000000000000002,16
156,2690.0,-0.5,0.5,0.2,-0.4,5.4,8.700000000000001,-2.0,1.6,8.5,16
157,2708.0,0.0,0.6000000000000001,1.4000000000000001,0.2,5.4,9.9,-2.5,-11.700000000000001,11.000000000000002,16
158,2723.0,0.2,0.4,1.8,0.4,5.2,10.3,-3.2,-11.8,9.600000000000001,16
159,2739.0,0.30000000000000004,0.1,2.4000000000000004,0.5,5.0,10.9,-4.6,-0.8,10.5,16
160,2759.0,0.2,0.30000000000000004,2.2,0.4,5.1000000000000005,10.700000000000001,0.0,25.0,17.6,16
161,2772.0,0.2,0.30000000000000004,2.2,0.2,5.4,10.200000000000001,4.9,39.599999999999994,19.5,16
162,2791.0,-0.4,0.8,1.2000000000000002,-0.6000000000000001,5.7,9.5,10.200000000000001,45.099999999999994,18.3,16
163,2806.0,-0.9,0.9,0.9,-0.7000000000000001,5.6000000000000005,9.600000000000001,7.8,33.0,17.799999999999997,16
164,2822.0,-0.5,0.4,1.7000000000000002,-0.4,5.2,10.200000000000001,-12.9,-5.1000000000000005,15.5,16
165,2839.0,0.30000000000000004,-0.4,3.0,0.4,4.4,11.600000000000001,-26.5,-24.7,23.3,16
166,2864.0,0.9,-0.6000000000000001,3.1,1.1,4.1000000000000005,11.700000000000001,-20.2,-10.0,30.000000000000004,16
167,2872.0,1.0,-0.7000000000000001,2.8000000000000003,1.2000000000000002,4.0,11.4,-11.700000000000001,0.1,26.400000000000006,16
168,2890.0,0.5,-0.8,1.8,0.8,3.9000000000000004,10.4,1.7,4.4,9.4,16
169,2909.0,0.30000000000000004,-0.9,1.2000000000000002,0.5,3.8000000000000003,9.4,5.0,-2.8,-2.1,16
170,2926.0,0.1,-1.0,0.30000000000000004,0.4,3.5,8.700000000000001,5.0,-7.6,-5.300000000000001,16
171,2939.0,0.1,-1.3,0.0,0.4,3.5,8.6,4.2,-12.9,-8.600000000000001,16
172,2961.0,0.30000000000000004,-1.4000000000000001,-0.30000000000000004,0.6000000000000001,3.3000000000000003,8.3,5.300000000000001,-0.2,-2.3,16
173,2975.0,0.30000000000000004,-1.3,-0.4,0.7000000000000001,3.5,7.9,6.8,6.4,0.4,16
174,2989.0,0.30000000000000004,-1.2000000000000002,-0.7000000000000001,0.7000000000000001,3.5,7.9,9.3,9.4,-1.3,16
175,3009.0,0.1,-1.0,-1.4000000000000001,0.4,3.7,7.2,15.399999999999999,0.1,-11.4,16
176,3022.0,-0.2,-0.8,-2.0,0.1,4.0,6.6000000000000005,20.0,-13.000000000000002,-17.200000000000003,16
177,3041.0,-0.30000000000000004,-0.8,-2.1,0.0,4.1000000000000005,6.5,19.6,-20.7,-16.6,16
178,3063.0,-0.1,-0.6000000000000001,-2.3000000000000003,0.2,4.3,6.2,17.799999999999997,-21.200000000000003,-16.0,16
179,3073.0,0.0,-0.7000000000000001,-2.3000000000000003,0.4,4.3,6.2,16.0,-16.3,-17.1,16
180,3090.0,0.1,-0.7000000000000001,-2.2,-0.2,3.5,6.6000000000000005,12.4,-9.5,-18.700000000000003,16
181,3109.0,-0.30000000000000004,0.30000000000000004,-1.4000000000000001,0.0,5.2,7.1000000000000005,-11.3,14.100000000000001,-11.3,16
182,3123.0,-0.5,0.2,-1.2000000000000002,-0.2,5.1000000000000005,7.2,-17.1,8.4,-15.100000000000001,16
183,3139.0,-0.9,-0.30000000000000004,-0.30000000000000004,-0.6000000000000001,4.6000000000000005,8.200000000000001,-15.2,-19.9,-25.900000000000002,16
184,3164.0,-0.6000000000000001,-0.2,0.5,-0.30000000000000004,4.7,9.0,-7.0,-31.2,-18.5,16
185,3172.0,-0.6000000000000001,-0.2,0.5,-0.4,4.6000000000000005,9.0,-0.9000000000000001,-24.900000000000002,-11.900000000000002,16
186,3189.0,-0.6000000000000001,-0.2,0.4,0.0,4.9,8.8,5.4,-7.400000000000001,-3.1,16
187,3206.0,-0.2,0.30000000000000004,0.2,0.2,5.2,8.700000000000001,2.9,-2.7,-3.9,16
188,3223.0,0.0,0.2,0.5,0.4,5.1000000000000005,9.0,-6.9,2.9,-10.9,16
189,3242.0,-0.4,0.0,1.2000000000000002,-0.1,4.9,9.700000000000001,-15.700000000000001,16.3,-12.200000000000001,16
190,3265.0,-0.4,0.2,1.4000000000000001,-0.2,5.0,9.9,-15.899999999999999,18.0,-6.699999999999999,16
191,3273.0,-0.4,0.2,1.4000000000000001,-0.2,5.300000000000001,9.9,-14.600000000000001,17.7,-3.4,16
192,3290.0,-0.4,0.8,1.1,-0.6000000000000001,5.7,9.4,-11.8,33.2,-1.6,16
193,3306.0,-0.9,0.9,0.7000000000000001,-0.9,5.6000000000000005,9.3,-22.8,32.8,-0.30000000000000004,16
194,3324.0,-0.8,0.8,1.0,-0.8,5.5,9.600000000000001,-35.8,18.6,1.0,16
195,3340.0,0.1,-0.5,2.9000000000000004,0.1,4.1000000000000005,11.600000000000001,-64.9,-14.100000000000001,1.1,16
196,3361.0,0.1,-1.4000000000000001,3.9000000000000004,0.1,2.9000000000000004,12.700000000000001,-59.60000000000001,-5.300000000000001,7.500000000000001,16
197,3374.0,0.0,-1.3,3.7,0.0,2.9000000000000004,12.5,-38.2,14.600000000000001,14.900000000000002,16
198,3391.0,-0.1,-1.0,2.8000000000000003,-0.2,3.9000000000000004,10.5,18.5,31.099999999999998,24.200000000000003,16
199,3408.0,0.6000000000000001,0.2,-0.4,0.5,4.4,8.4,44.10000000000001,-11.2,19.200000000000003,16
200,3425.0,1.0,0.2,-0.9,0.9,4.6000000000000005,7.9,44.2,-35.599999999999994,15.5,16
201,3440.0,1.7000000000000002,0.0,-0.9,1.8,4.5,7.9,25.300000000000004,-59.00000000000001,6.2,16
202,3463.0,1.9000000000000001,-0.7000000000000001,-0.30000000000000004,2.2,3.8000000000000003,8.4,-4.9,-36.5,-4.4,16
203,3473.0,1.7000000000000002,-0.8,-0.2,2.0,3.6,8.6,-18.3,-12.7,-7.1000000000000005,16
204,3490.0,0.9,-0.8,0.0,1.2000000000000002,3.6,8.700000000000001,-30.1,23.6,-4.4,16
205,3508.0,0.7000000000000001,-0.7000000000000001,-0.2,1.1,3.7,8.5,-29.200000000000003,28.700000000000003,-3.7000000000000006,16
206,3522.0,0.2,-0.30000000000000004,-1.0,0.5,4.0,7.9,-14.400000000000002,20.1,-4.800000000000001,16
207,3539.0,0.1,0.0,-2.0,0.30000000000000004,4.2,6.800000000000001,6.2,0.4,-5.1000000000000005,16
208,3563.0,-0.1,-0.30000000000000004,-2.2,0.2,4.0,6.6000000000000005,11.900000000000002,-27.099999999999998,-1.3,16
209,3576.0,0.4,-0.1,-1.3,0.7000000000000001,4.2,7.5,10.600000000000001,-28.1,10.600000000000001,16
210,3589.0,0.8,0.1,-1.2000000000000002,1.2000000000000002,4.4,7.6000000000000005,10.700000000000001,-17.0,11.700000000000001,16
211,3606.0,0.9,0.5,-1.3,1.3,4.9,7.5,9.5,-5.7,7.400000000000001,16
212,3623.0,0.7000000000000001,0.4,-1.6,1.1,4.7,7.2,7.699999999999999,1.4,-1.2000000000000002,16
213,3640.0,-0.1,0.4,-1.7000000000000002,0.30000000000000004,4.800000000000001,7.0,-16.4,23.800000000000004,-12.100000000000001,16
214,3660.0,-0.6000000000000001,0.30000000000000004,-0.9,-0.30000000000000004,4.6000000000000005,7.9,-24.3,15.2,-6.2,16
215,3672.0,-0.6000000000000001,0.30000000000000004,-0.5,-0.4,4.5,8.3,-17.6,-0.6000000000000001,-1.3,16
216,3691.0,-0.30000000000000004,0.6000000000000001,-0.4,0.0,4.800000000000001,8.4,6.300000000000001,-28.800000000000004,7.9,16
217,3705.0,0.0,0.9,-0.5,0.30000000000000004,5.1000000000000005,8.3,16.0,-37.0,9.100000000000001,16
218,3722.0,0.4,1.1,-0.1,0.9,5.4,8.700000000000001,21.900000000000002,-40.300000000000004,1.3,16
219,3739.0,0.1,0.8,0.7000000000000001,0.7000000000000001,5.2,9.5,17.400000000000002,-31.3,-9.4,16
220,3756.0,-0.30000000000000004,0.4,1.8,0.30000000000000004,4.800000000000001,10.5,8.600000000000001,-21.0,-11.900000000000002,16
221,3772.0,-0.2,0.4,2.3000000000000003,0.4,4.800000000000001,11.0,9.2,-23.2,-9.600000000000001,16
222,3789.0,0.1,0.4,3.1,0.9,4.9,11.8,19.200000000000003,-32.7,-6.2,16
223,3805.0,-0.2,0.2,2.8000000000000003,0.6000000000000001,4.800000000000001,11.4,28.400000000000002,-24.599999999999998,-3.3000000000000007,16
224,3822.0,-0.2,-0.5,1.6,0.6000000000000001,4.1000000000000005,10.200000000000001,42.400000000000006,7.8,-5.8,16
225,3839.0,-1.2000000000000002,-0.1,1.1,-0.4,4.7,9.700000000000001,44.9,5.500000000000001,17.1,16
226,3856.0,-0.2,0.7000000000000001,2.0,0.6000000000000001,5.6000000000000005,10.5,36.400000000000006,-47.900000000000006,44.300000000000004,16
227,3872.0,-0.30000000000000004,0.7000000000000001,2.1,1.5,4.5,11.8,35.4,-52.5,51.1,16
228,3893.0,2.5,-2.3000000000000003,3.7,3.7,2.7,12.100000000000001,32.5,-49.0,57.20000000000001,16
229,3906.0,3.0,-2.7,3.2,4.4,2.3000000000000003,11.5,31.400000000000002,-42.60000000000001,48.300000000000004,16
230,3922.0,3.1,-3.3000000000000003,1.6,4.6000000000000005,1.8,9.8,28.0,-64.30000000000001,16.4,16
231,3939.0,2.7,-3.9000000000000004,0.2,4.5,1.2000000000000002,8.3,25.6,-122.20000000000002,-9.3,16
232,3956.0,1.0,-3.5,-0.7000000000000001,3.1,1.8,7.300000000000001,13.700000000000001,-170.70000000000002,-24.3,16
233,3975.0,0.4,-3.1,-0.9,2.7,2.1,7.1000000000000005,2.0,-191.20000000000005,-29.700000000000006,16
234,3990.0,-0.8,-2.3000000000000003,-1.3,2.0,3.0,6.5,-21.0,-206.5,-11.700000000000001,16
235,4008.0,-4.4,-1.4000000000000001,-4.1000000000000005,-1.0,3.8000000000000003,3.5,-18.4,-265.1,43.70000000000001,16
236,4023.0,-6.1000000000000005,-0.8,-4.1000000000000005,-2.3000000000000003,4.4,3.4000000000000004,-1.4,-264.3,86.3,16
237,4041.0,-3.4000000000000004,-3.9000000000000004,-3.6,1.2000000000000002,1.2000000000000002,3.5,81.7,-174.6,165.3,16
238,4057.0,-2.6,-8.4,-4.6000000000000005,2.7,-3.4000000000000004,1.9000000000000001,175.10000000000002,-181.40000000000003,207.4,16
239,4074.0,-3.0,-8.4,-4.3,1.7000000000000002,-4.3,1.2000000000000002,204.0,-208.5,226.4,16
240,4089.0,-6.0,-9.0,-6.5,0.5,-4.0,-1.1,239.5,-233.2,279.9,16
241,4106.0,-5.800000000000001,-8.4,-6.5,1.2000000000000002,-3.6,-1.6,237.70000000000005,-232.5,320.0,16
242,4122.0,-5.0,-8.6,-5.800000000000001,4.2,-5.5,-1.7000000000000002,193.3,-216.79999999999998,354.8,16
243,4139.0,-3.7,-10.100000000000001,-4.3,5.5,-6.7,-0.5,130.5,-226.6,372.7,16
244,4159.0,-1.4000000000000001,-8.1,-1.2000000000000002,7.800000000000001,-5.7,1.0,89.70000000000002,-224.50000000000003,382.7,16
245,4174.0,-1.6,-7.5,-0.8,9.3,-7.6000000000000005,4.800000000000001,83.30000000000001,-214.60000000000002,372.20000000000005,16
246,4189.0,2.5,-10.700000000000001,5.4,12.200000000000001,-10.0,6.5,150.5,-165.9,353.8,16
247,4205.0,3.5,-10.700000000000001,6.9,13.200000000000001,-10.600000000000001,7.7,182.9,-142.90000000000003,353.8,16
248,4222.0,6.2,-9.1,7.5,16.0,-10.100000000000001,8.0,231.00000000000006,-52.5,364.50000000000006,16
249,4239.0,10.0,-5.300000000000001,5.4,19.5,-7.6000000000000005,5.800000000000001,254.39999999999998,0.5,367.3,16
250,4255.0,10.200000000000001,-4.800000000000001,5.2,24.3,-4.4,3.9000000000000004,256.2,-4.7,349.80000000000007,16
251,4272.0,17.8,1.0,2.3000000000000003,26.8,-2.9000000000000004,3.1,263.90000000000003,-28.700000000000003,282.90000000000003,16
252,4297.0,22.6,5.7,-3.4000000000000004,31.0,0.9,-2.1,223.60000000000002,55.2,119.20000000000002,16
253,4307.0,22.6,5.7,-3.4000000000000004,31.0,0.9,-2.1,223.60000000000002,55.2,119.20000000000002,16
254,4322.0,20.6,8.6,-8.700000000000001,28.8,3.7,-6.7,144.20000000000002,127.40000000000002,0.9000000000000001,16
255,4343.0,16.1,7.800000000000001,-11.9,24.3,3.0,-9.4,44.10000000000001,133.0,-91.6,16
256,4356.0,12.9,6.7,-12.100000000000001,21.1,2.1,-9.3,-10.9,112.7,-124.0,16
257,22909.0,0.6000000000000001,-1.4000000000000001,-2.2,-0.2,3.7,6.2,-14.100000000000001,-7.1000000000000005,16.3,16
258,22924.0,0.9,-1.2000000000000002,-1.9000000000000001,0.1,3.8000000000000003,6.5,-8.899999999999999,-16.900000000000002,16.5,16
259,22944.0,1.1,-0.7000000000000001,-1.2000000000000002,0.4,4.3,7.2,4.1,-21.6,13.000000000000002,16
260,22960.0,1.2000000000000002,-0.30000000000000004,-0.5,0.6000000000000001,4.7,7.9,14.400000000000002,-10.5,-1.0,16
261,22973.0,1.2000000000000002,-0.6000000000000001,-0.4,0.5,4.4,8.0,16.8,-1.7,-14.300000000000002,16
262,22992.0,0.9,-1.0,-0.2,-0.2,3.7,8.200000000000001,12.5,9.100000000000001,-33.1,16
263,23006.0,-0.2,-1.9000000000000001,0.1,-1.0,3.3000000000000003,8.4,4.5,17.799999999999997,-31.3,16
264,23024.0,-0.4,-1.9000000000000001,0.1,-1.2000000000000002,3.2,8.4,1.1,21.0,-23.700000000000003,16
265,23044.0,-0.30000000000000004,-1.3,0.5,-1.2000000000000002,3.8000000000000003,8.8,-0.7,25.4,-6.8,16
266,23058.0,0.0,-0.9,1.2000000000000002,-0.9,4.2,9.5,0.8,15.299999999999999,-0.6000000000000001,16
267,23077.0,0.30000000000000004,-0.9,2.1,-0.8,4.2,10.4,0.2,3.2,-4.2,16
268,23092.0,0.4,-0.9,3.4000000000000004,-0.6000000000000001,4.2,11.700000000000001,-0.8,-5.9,-9.0,16
269,23109.0,-0.1,-0.8,4.2,-1.1,4.2,12.600000000000001,8.0,-2.2,-16.3,16
270,23123.0,-0.5,-1.0,3.8000000000000003,-1.5,4.1000000000000005,12.200000000000001,16.200000000000003,19.9,-14.100000000000001,16
271,23143.0,-0.4,-1.4000000000000001,2.8000000000000003,-1.5,3.7,11.100000000000001,18.6,35.5,-7.8,16
272,23159.0,0.4,-1.9000000000000001,4.3,-0.8,3.3000000000000003,12.5,-26.1,-28.3,-15.6,16
273,23174.0,0.9,-3.2,6.5,-0.2,1.8,14.8,-55.5,-61.300000000000004,-19.5,16
274,23191.0,1.0,-3.8000000000000003,6.5,0.0,1.2000000000000002,14.9,-49.800000000000004,-52.00000000000001,-15.700000000000001,16
275,23206.0,0.5,-3.4000000000000004,5.0,-0.4,1.4000000000000001,13.4,-20.1,0.5,4.5,16
276,23225.0,0.4,-2.6,3.0,-0.6000000000000001,2.2,11.5,4.300000000000001,44.4,19.400000000000002,16
277,23241.0,0.5,-2.2,2.3000000000000003,-0.5,2.6,10.8,15.399999999999999,54.699999999999996,22.700000000000003,16
278,23260.0,0.8,-2.0,1.2000000000000002,-0.30000000000000004,3.0,9.1,17.0,37.2,14.800000000000002,16
279,23275.0,0.5,-2.2,0.1,-0.7000000000000001,2.7,8.5,-0.7,10.600000000000001,-1.5,16
280,23290.0,0.2,-2.7,0.2,-1.0,2.3000000000000003,8.6,-11.900000000000002,0.30000000000000004,-8.700000000000001,16
281,23307.0,0.0,-3.3000000000000003,0.6000000000000001,-1.2000000000000002,1.6,9.0,-27.700000000000003,-2.9,-8.8,16
282,23323.0,0.1,-3.3000000000000003,0.6000000000000001,-1.2000000000000002,1.5,9.0,-29.600000000000005,1.5,-2.2,16
283,23346.0,0.9,-2.9000000000000004,-0.2,-0.30000000000000004,1.8,8.3,-14.200000000000001,5.9,26.300000000000004,16
284,23360.0,1.2000000000000002,-2.7,-0.5,-0.1,2.0,8.0,-3.3000000000000007,3.8,31.3,16
285,23375.0,1.5,-2.3000000000000003,-1.0,0.30000000000000004,2.4000000000000004,7.5,22.2,-5.8,29.300000000000004,16
286,23390.0,1.4000000000000001,-2.2,-1.2000000000000002,0.30000000000000004,2.5,7.300000000000001,34.0,-9.2,25.1,16
287,23407.0,1.1,-2.3000000000000003,-1.5,0.0,2.5,7.0,48.9,-8.2,19.6,16
288,23423.0,0.9,-2.4000000000000004,-1.6,-0.2,2.5,6.9,50.5,-5.8,19.1,16
289,23440.0,0.8,-2.5,-1.4000000000000001,-0.2,2.6,7.0,45.099999999999994,-0.9000000000000001,21.400000000000002,16
290,23464.0,1.0,-2.2,-1.0,0.1,2.9000000000000004,7.2,40.2,9.2,24.400000000000002,16
291,23475.0,1.2000000000000002,-1.9000000000000001,-0.8,0.2,3.4000000000000004,7.4,39.2,11.000000000000002,21.500000000000004,16
292,23491.0,1.2000000000000002,-1.9000000000000001,-0.7000000000000001,0.2,3.5,7.4,38.800000000000004,7.500000000000001,16.700000000000003,16
293,23509.0,0.8,-1.7000000000000002,-0.2,-0.2,3.8000000000000003,7.9,35.599999999999994,-8.5,0.8,16
294,23523.0,0.7000000000000001,-1.9000000000000001,0.0,-0.2,3.7,8.1,37.6,-1.7,-3.7000000000000006,16
295,23542.0,1.0,-2.7,0.1,0.1,2.9000000000000004,8.1,36.5,4.9,-6.699999999999999,16
296,23560.0,1.0,-2.4000000000000004,0.4,0.0,3.3000000000000003,8.3,24.7,9.2,-7.9,16
297,23579.0,0.8,-2.0,0.9,-0.2,3.8000000000000003,8.8,5.8,0.8,-8.700000000000001,16
298,23590.0,0.9,-2.0,1.3,-0.1,3.8000000000000003,9.200000000000001,-0.4,-2.6,-11.000000000000002,16
299,23611.0,0.4,-2.1,1.8,-0.6000000000000001,3.7,9.700000000000001,-3.3000000000000007,0.8,-14.700000000000001,16
300,23623.0,0.4,-2.1,1.8,-0.6000000000000001,3.7,9.700000000000001,-3.3000000000000007,0.8,-14.700000000000001,16
301,23640.0,0.4,-2.1,1.8,-0.7000000000000001,4.5,8.8,-8.0,21.400000000000002,-4.6,16
302,23663.0,0.4,-1.2000000000000002,0.9,0.0,4.9,9.700000000000001,-41.4,2.6,-13.399999999999999,16
303,23675.0,1.5,-1.6,4.3,0.30000000000000004,4.0,12.3,-67.3,-10.4,-25.900000000000002,16
304,23696.0,1.2000000000000002,-2.6,5.6000000000000005,0.0,2.8000000000000003,13.700000000000001,-67.8,-9.2,-34.800000000000004,16
305,23707.0,0.9,-2.7,4.9,-0.30000000000000004,2.5,13.100000000000001,-52.900000000000006,-0.1,-34.60000000000001,16
306,23724.0,0.6000000000000001,-2.5,4.1000000000000005,-0.7000000000000001,2.6,12.3,-34.2,8.899999999999999,-29.600000000000005,16
307,23740.0,0.6000000000000001,-2.1,2.3000000000000003,-0.7000000000000001,3.0,10.5,-4.1,4.800000000000001,-10.0,16
308,23757.0,1.7000000000000002,-1.7000000000000002,1.3,0.4,3.3000000000000003,9.600000000000001,3.8,-23.5,3.4,16
309,23774.0,2.5,-1.8,1.3,1.2000000000000002,3.2,9.600000000000001,-8.100000000000001,-43.2,2.3,16
310,23790.0,2.5,-2.3000000000000003,1.8,1.4000000000000001,2.7,10.100000000000001,-17.6,-48.50000000000001,-1.1,16
311,23809.0,2.2,-2.4000000000000004,1.9000000000000001,1.2000000000000002,2.6,10.3,-27.099999999999998,-31.6,-6.1000000000000005,16
312,23824.0,1.9000000000000001,-2.3000000000000003,1.6,0.9,2.6,10.0,-27.2,-17.799999999999997,-8.899999999999999,16
313,23840.0,1.5,-2.7,0.4,0.6000000000000001,2.1,8.8,-22.2,8.700000000000001,-17.5,16
314,23859.0,1.2000000000000002,-2.8000000000000003,-1.1,0.2,2.0,7.4,-14.800000000000002,27.0,-27.2,16
315,23876.0,0.8,-2.0,-2.4000000000000004,-0.30000000000000004,2.7,6.1000000000000005,-6.2,14.700000000000001,-28.700000000000003,16
316,23893.0,0.8,-1.7000000000000002,-2.6,-0.4,3.1,5.9,-3.7000000000000006,-3.0,-27.6,16
317,23907.0,0.9,-1.3,-2.6,-0.4,3.5,5.9,-1.0,-22.000000000000004,-25.900000000000002,16
318,23927.0,0.8,-0.4,-1.6,-0.4,4.3,6.9,13.399999999999999,-30.3,-24.900000000000002,16
319,23940.0,0.5,-0.5,-1.5,-0.7000000000000001,4.2,7.0,16.6,-22.000000000000004,-26.1,16
320,23958.0,0.2,-1.1,-1.5,-0.9,3.6,7.0,13.3,-8.5,-25.7,16
321,23974.0,0.2,-1.4000000000000001,-1.5,-1.0,3.4000000000000004,7.0,7.6,-4.5,-21.8,16
322,23993.0,0.30000000000000004,-1.2000000000000002,-1.2000000000000002,-0.9,3.6,7.300000000000001,-7.200000000000001,4.0,-6.699999999999999,16
323,24007.0,0.6000000000000001,-0.8,-1.0,-0.5,4.2,7.6000000000000005,-14.5,4.300000000000001,-0.1,16
324,24024.0,0.7000000000000001,-0.5,-0.5,-0.5,4.2,8.0,-22.700000000000003,-6.300000000000001,0.30000000000000004,16
325,24042.0,0.5,-0.5,0.6000000000000001,-0.7000000000000001,4.2,9.200000000000001,-19.6,-20.5,-3.2,16
326,24061.0,0.9,-0.6000000000000001,1.5,-0.2,4.0,10.100000000000001,0.7,-10.8,-3.8,16
327,24077.0,0.6000000000000001,-0.5,1.6,-0.5,4.1000000000000005,10.200000000000001,26.000000000000004,16.900000000000002,-4.300000000000001,16
328,24091.0,0.2,-0.5,1.7000000000000002,-0.9,4.2,10.3,29.0,19.0,-5.0,16
329,24108.0,-0.1,-0.7000000000000001,2.9000000000000004,-1.2000000000000002,4.0,11.4,21.900000000000002,0.4,-7.1000000000000005,16
330,24126.0,-0.4,-0.9,4.1000000000000005,-1.6,3.9000000000000004,12.600000000000001,14.900000000000002,-11.5,-6.1000000000000005,16
331,24140.0,-0.9,-0.6000000000000001,4.7,-2.0,4.2,13.200000000000001,18.700000000000003,7.699999999999999,6.699999999999999,16
332,24158.0,-0.2,-1.1,2.9000000000000004,-1.4000000000000001,3.8000000000000003,11.4,39.2,40.4,22.8,16
333,24174.0,0.2,-1.2000000000000002,2.6,-1.0,3.7,11.0,34.300000000000004,31.2,22.4,16
334,24191.0,1.4000000000000001,-1.9000000000000001,4.1000000000000005,0.2,3.1,12.5,-17.9,-17.400000000000002,11.700000000000001,16
335,24207.0,1.3,-2.7,6.4,0.2,2.2,14.8,-49.50000000000001,-24.599999999999998,2.8,16
336,24224.0,0.5,-2.8000000000000003,6.2,-0.6000000000000001,2.1,14.700000000000001,-43.4,-12.0,4.5,16
337,24240.0,-0.30000000000000004,-2.9000000000000004,4.0,-1.4000000000000001,1.8,12.5,-13.5,20.900000000000002,22.6,16
338,24263.0,-0.30000000000000004,-2.3000000000000003,1.9000000000000001,-1.4000000000000001,2.4000000000000004,10.5,1.1,16.1,36.0,16
339,24275.0,-0.30000000000000004,-2.3000000000000003,2.0,-0.4,2.7,9.8,-8.3,-18.1,43.50000000000001,16
340,24290.0,0.7000000000000001,-2.1,1.3,-0.4,2.7,9.8,-13.900000000000002,-30.5,44.4,16
341,24315.0,2.0,-2.1,1.0,1.3,2.6,9.600000000000001,-17.1,-24.900000000000002,34.900000000000006,16
342,24323.0,2.0,-2.1,1.0,1.3,2.6,9.600000000000001,-17.1,-24.900000000000002,34.900000000000006,16
343,24340.0,1.8,-2.3000000000000003,0.0,1.2000000000000002,2.3000000000000003,8.6,-14.400000000000002,11.2,31.0,16
344,24357.0,1.4000000000000001,-2.0,-1.1,0.8,2.6,7.5,-11.6,43.900000000000006,35.1,16
345,24375.0,1.3,-1.4000000000000001,-2.0,0.6000000000000001,3.2,6.6000000000000005,-3.5,39.699999999999996,39.50000000000001,16
346,24390.0,1.1,-1.3,-2.1,0.4,3.3000000000000003,6.6000000000000005,4.2,24.0,38.400000000000006,16
347,24407.0,0.8,-1.4000000000000001,-1.8,0.1,3.2,6.800000000000001,27.6,-11.8,31.7,16
348,24423.0,0.9,-1.8,-1.6,0.2,2.8000000000000003,7.0,41.6,-15.399999999999999,27.800000000000004,16
349,24440.0,1.0,-1.9000000000000001,-1.6,0.4,2.9000000000000004,6.9,59.40000000000001,2.5,19.0,16
350,24456.0,1.2000000000000002,-1.8,-1.8,0.6000000000000001,3.2,6.6000000000000005,54.50000000000001,23.099999999999998,14.800000000000002,16
351,24478.0,1.0,-1.8,-1.7000000000000002,0.4,3.4000000000000004,6.6000000000000005,42.60000000000001,34.2,6.699999999999999,16
352,24491.0,0.8,-1.8,-1.5,0.1,3.4000000000000004,6.7,36.7,28.600000000000005,-0.5,16
353,24523.0,0.2,-2.1,-0.30000000000000004,-0.6000000000000001,3.2,7.9,21.1,-8.899999999999999,-15.700000000000001,16
354,24541.0,0.9,-2.3000000000000003,0.7000000000000001,0.1,3.1,8.8,18.900000000000002,-17.799999999999997,-13.8,16
355,24568.0,1.5,-2.1,1.9000000000000001,0.7000000000000001,3.4000000000000004,10.0,9.5,-15.2,-12.9,16
356,24574.0,1.7000000000000002,-2.1,2.3000000000000003,1.0,3.3000000000000003,10.4,4.6,-11.1,-12.299999999999999,16
357,24593.0,1.8,-2.1,2.9000000000000004,0.7000000000000001,3.9000000000000004,11.700000000000001,0.8,-6.9,-10.8,16
358,24607.0,1.4000000000000001,-1.5,3.6,0.30000000000000004,4.9,11.700000000000001,6.8,8.899999999999999,-7.400000000000001,16
359,24623.0,0.9,0.1,3.0,0.2,5.5,11.100000000000001,18.700000000000003,24.7,-6.500000000000001,16
360,24642.0,1.3,-0.1,2.1,0.5,5.4,10.100000000000001,26.700000000000003,11.900000000000002,-9.700000000000001,16
361,24658.0,2.0,-1.0,2.9000000000000004,1.1,4.6000000000000005,11.0,-11.5,-30.699999999999996,-31.7,16
362,24674.0,2.2,-1.9000000000000001,3.8000000000000003,1.2000000000000002,2.4000000000000004,13.200000000000001,-58.1,-37.1,-47.1,16
363,24691.0,2.0,-3.0,5.1000000000000005,0.7000000000000001,1.6,14.5,-68.80000000000001,-30.000000000000004,-49.300000000000004,16
364,24707.0,1.2000000000000002,-4.1000000000000005,6.9,-0.1,0.9,14.9,-50.7,-1.6,-38.2,16
365,24723.0,0.5,-4.4,5.5,-0.4,0.8,13.8,-28.3,13.000000000000002,-25.5,16
366,24740.0,1.0,-3.7,2.3000000000000003,0.0,1.3,10.600000000000001,11.2,27.9,2.1,16
367,24757.0,1.9000000000000001,-2.9000000000000004,-0.1,0.9,2.2,8.200000000000001,16.1,11.5,17.400000000000002,16
368,24781.0,2.5,-2.2,-0.9,1.4000000000000001,2.9000000000000004,7.4,3.5,-4.9,18.4,16
369,24790.0,2.5,-2.0,-1.0,1.5,3.1,7.2,-0.7,-7.1000000000000005,17.200000000000003,16
370,24807.0,2.2,-1.6,-1.4000000000000001,1.2000000000000002,3.6,6.9,-4.2,-8.700000000000001,9.3,16
371,24824.0,1.9000000000000001,-1.7000000000000002,-1.5,1.0,3.5,6.800000000000001,-5.9,-7.1000000000000005,1.7,16
372,24840.0,1.3,-2.4000000000000004,-1.3,0.4,2.8000000000000003,7.0,-9.3,8.600000000000001,-14.100000000000001,16
373,24859.0,0.7000000000000001,-3.0,-1.8,-0.30000000000000004,2.1,6.5,-6.300000000000001,35.3,-26.799999999999997,16
374,24880.0,0.2,-2.5,-2.6,-1.0,2.6,5.7,3.6000000000000005,39.50000000000001,-28.1,16
375,24891.0,0.2,-2.1,-2.7,-1.1,3.0,5.6000000000000005,8.0,27.800000000000004,-25.8,16
376,24907.0,0.4,-1.5,-1.9000000000000001,-1.0,3.6,6.4,12.5,8.899999999999999,-26.200000000000003,16
377,24924.0,0.4,-1.4000000000000001,-1.4000000000000001,-1.0,3.7,6.9,14.200000000000001,13.5,-31.400000000000002,16
378,24940.0,0.9,-2.3000000000000003,-1.3,-0.6000000000000001,2.9000000000000004,6.9,22.3,49.800000000000004,-45.6,16
379,24956.0,1.0,-2.9000000000000004,-1.6,-0.7000000000000001,2.3000000000000003,6.5,30.799999999999997,67.9,-47.5,16
380,24976.0,1.0,-2.5,-0.6000000000000001,-1.0,2.8000000000000003,7.4,30.5,52.1,-42.60000000000001,16
381,24990.0,0.8,-2.3000000000000003,-0.2,-1.3,3.0,7.800000000000001,29.300000000000004,50.400000000000006,-41.900000000000006,16
382,25007.0,0.4,-2.0,0.30000000000000004,-2.4000000000000004,3.7,8.5,28.600000000000005,58.60000000000001,-39.9,16
383,25024.0,-0.30000000000000004,-1.3,0.8,-2.8000000000000003,4.0,8.6,28.0,65.7,-38.400000000000006,16
384,25043.0,0.9,-1.2000000000000002,1.3,-1.8,4.2,9.0,22.1,77.20000000000002,-41.7,16
385,25058.0,0.7000000000000001,-0.6000000000000001,2.2,-2.3000000000000003,4.800000000000001,9.8,16.4,87.2,-50.60000000000001,16
386,25078.0,-0.5,0.2,3.2,-3.8000000000000003,5.5,10.700000000000001,22.4,84.9,-32.8,16
387,25090.0,-0.4,0.2,3.3000000000000003,-3.9000000000000004,5.6000000000000005,10.3,28.800000000000004,88.8,-20.400000000000002,16
388,25107.0,0.0,0.2,2.3000000000000003,-3.6,5.6000000000000005,9.600000000000001,31.099999999999998,97.50000000000001,-13.8,16
389,25123.0,0.5,-0.2,3.7,-3.3000000000000003,5.300000000000001,10.9,1.6,67.4,-30.599999999999998,16
390,25140.0,-1.1,-0.2,5.9,-5.2,5.2,13.0,-34.1,34.400000000000006,-65.89999999999999,16
391,25162.0,-1.8,-2.2,6.2,-6.1000000000000005,3.0,13.4,-34.1,48.300000000000004,-48.6,16
392,25174.0,-1.5,-2.9000000000000004,5.5,-5.6000000000000005,2.2,11.600000000000001,-10.299999999999999,72.50000000000001,9.5,16
393,25190.0,-0.5,-2.1,3.5,-5.0,2.9000000000000004,10.600000000000001,0.6000000000000001,74.2,30.799999999999997,16
394,25217.0,1.6,-1.1,1.1,-3.1,4.1000000000000005,8.0,4.7,17.799999999999997,23.800000000000004,16
395,25223.0,1.6,-1.1,1.1,-3.1,4.1000000000000005,8.0,4.7,17.799999999999997,23.800000000000004,16
396,25240.0,0.8,-1.4000000000000001,2.7,-3.9000000000000004,3.8000000000000003,9.600000000000001,-4.6,-22.2,-7.500000000000001,16
397,25264.0,0.6000000000000001,-2.5,2.8000000000000003,-4.1000000000000005,2.7,9.700000000000001,-7.8,-2.4000000000000004,-25.6,16
398,25282.0,0.5,-2.6,1.7000000000000002,-4.2,2.5,8.6,-13.000000000000002,35.3,-17.0,16
399,25290.0,0.5,-2.3000000000000003,1.1,-4.3,2.7,8.0,-12.5,46.7,-4.800000000000001,16
400,25307.0,0.8,-1.9000000000000001,0.4,-3.8000000000000003,3.5,6.9,-5.6,42.400000000000006,13.3,16
401,25325.0,1.5,-1.1,-0.2,-3.4000000000000004,3.9000000000000004,6.6000000000000005,-1.4,28.700000000000003,12.200000000000001,16
402,25341.0,1.6,-1.4000000000000001,0.0,-3.3000000000000003,3.6,6.7,6.0,-1.2000000000000002,-6.699999999999999,16
403,25357.0,1.1,-2.0,-0.30000000000000004,-3.9000000000000004,3.1,6.5,2.3,0.1,-26.700000000000003,16
404,25381.0,0.30000000000000004,-1.9000000000000001,-0.4,-4.7,3.1,6.4,-9.2,18.8,-19.799999999999997,16
405,25394.0,0.6000000000000001,-1.5,0.0,-4.5,3.4000000000000004,6.800000000000001,-6.2,28.1,1.5,16
406,25410.0,0.7000000000000001,-1.5,0.0,-4.1000000000000005,3.6,6.6000000000000005,-2.1,26.6,5.4,16
407,25429.0,1.3,-1.3,-2.8000000000000003,-3.9000000000000004,3.7,3.9000000000000004,6.0,11.1,2.7,16
408,25454.0,0.2,-1.3,0.0,-5.0,3.5,6.7,-25.0,-25.0,-11.6,16
409,25459.0,0.2,-1.3,0.0,-5.0,3.5,6.7,-25.0,-25.0,-11.6,16
410,25474.0,0.2,-1.3,-0.1,-5.2,3.4000000000000004,6.800000000000001,-18.6,-35.5,-15.6,16
411,25490.0,0.0,-1.5,0.0,-4.9,3.2,7.0,-12.5,-63.4,-6.2,16
412,25513.0,0.5,-1.0,0.4,-4.5,3.8000000000000003,7.4,-15.5,-101.0,-5.500000000000001,16
413,25528.0,0.30000000000000004,-0.30000000000000004,1.8,-4.3,4.3,9.0,-31.9,-141.6,-27.0,16
414,25546.0,0.2,-0.9,3.4000000000000004,-4.3,3.7,10.8,-35.599999999999994,-161.20000000000002,-43.70000000000001,16
415,25558.0,0.2,-1.7000000000000002,4.0,-4.0,2.7,11.8,-18.5,-174.90000000000003,-73.5,16
416,25577.0,0.4,-1.6,3.1,-3.4000000000000004,2.7,11.100000000000001,-14.800000000000002,-120.9,-81.0,16
417,25590.0,1.0,-1.7000000000000002,2.7,-2.7,2.5,10.8,-14.100000000000001,-84.5,-75.3,16
418,25606.0,1.1,-1.8,2.6,-2.5,2.1,11.3,-19.300000000000004,-63.500000000000014,-61.50000000000001,16
419,25623.0,0.5,-1.9000000000000001,4.0,-3.0,2.1,12.200000000000001,-33.9,-90.80000000000001,-58.60000000000001,16
420,25641.0,-0.7000000000000001,-1.4000000000000001,5.1000000000000005,-3.9000000000000004,2.4000000000000004,13.5,-73.7,-163.29999999999998,-56.10000000000001,16
421,25656.0,0.4,-1.9000000000000001,5.0,-2.5,1.6,13.700000000000001,-80.9,-151.1,-56.6,16
422,25673.0,0.4,-1.9000000000000001,5.0,-2.5,1.6,13.700000000000001,-80.9,-151.1,-56.6,16
423,25689.0,0.4,-1.9000000000000001,5.0,-2.5,1.6,13.700000000000001,-80.9,-151.1,-56.6,16
424,25706.0,0.9,-1.8,4.7,-1.4000000000000001,1.2000000000000002,13.700000000000001,-51.4,-68.5,-48.70000000000001,16
425,25723.0,0.9,-1.8,4.7,0.30000000000000004,0.6000000000000001,11.100000000000001,-50.60000000000001,-42.60000000000001,-23.400000000000002,16
426,25740.0,0.9,-1.8,4.7,0.30000000000000004,0.6000000000000001,11.100000000000001,-50.60000000000001,-42.60000000000001,-23.400000000000002,16
427,25757.0,2.3000000000000003,-1.7000000000000002,1.5,0.4,0.8,10.8,-55.0,-48.400000000000006,12.7,16
428,25777.0,2.4000000000000004,-1.4000000000000001,0.9,0.6000000000000001,0.9,10.3,-38.50000000000001,-28.900000000000002,23.800000000000004,16
429,25792.0,2.2,-1.2000000000000002,0.7000000000000001,0.5,1.1,10.100000000000001,-31.2,-16.900000000000002,27.800000000000004,16
430,25807.0,1.3,-0.7000000000000001,0.1,-0.30000000000000004,1.5,9.5,-22.9,8.0,32.8,16
431,25823.0,1.1,-0.5,-0.2,-0.5,1.6,9.200000000000001,-20.1,15.100000000000001,35.5,16
432,25840.0,1.0,-0.5,-1.1,-0.7000000000000001,1.6,8.3,-16.4,25.0,43.50000000000001,16
433,25856.0,1.2000000000000002,-0.6000000000000001,-1.9000000000000001,-0.6000000000000001,1.4000000000000001,7.5,-15.299999999999999,35.1,60.7,16
434,25877.0,1.4000000000000001,-0.7000000000000001,-0.5,-0.30000000000000004,1.3,9.0,-19.9,33.50000000000001,73.6,16
435,25894.0,1.9000000000000001,-1.4000000000000001,0.6000000000000001,0.1,0.6000000000000001,10.0,2.7,30.9,75.7,16
436,25911.0,2.2,-1.4000000000000001,0.30000000000000004,0.4,0.7000000000000001,9.700000000000001,24.599999999999998,37.800000000000004,73.7,16
437,25924.0,2.1,-1.5,0.0,0.30000000000000004,0.7000000000000001,9.4,47.1,41.6,69.60000000000001,16
438,25940.0,1.6,-1.5,-0.5,-0.4,0.9,8.8,74.4,26.799999999999997,57.20000000000001,16
439,25963.0,1.3,-1.2000000000000002,-0.4,-0.6000000000000001,1.4000000000000001,8.9,82.60000000000001,1.8000000000000003,43.800000000000004,16
440,25973.0,1.2000000000000002,-1.2000000000000002,-0.30000000000000004,-0.7000000000000001,1.5,8.9,87.80000000000001,-5.9,40.4,16
441,25990.0,1.0,-1.7000000000000002,-0.4,-0.8,1.4000000000000001,8.700000000000001,98.60000000000001,8.2,44.300000000000004,16
442,26007.0,1.1,-1.4000000000000001,-0.8,-0.8,2.0,8.200000000000001,90.5,36.7,48.50000000000001,16
443,26025.0,1.1,-0.7000000000000001,-0.6000000000000001,-0.8,2.8000000000000003,8.3,76.89999999999999,40.800000000000004,44.5,16
444,26043.0,1.1,-0.7000000000000001,0.30000000000000004,-0.8,3.1,9.200000000000001,52.900000000000006,33.2,32.400000000000006,16
445,26056.0,0.9,-0.9,1.8,-1.1,3.1,10.5,48.9,-2.1,33.300000000000004,16
446,26075.0,-0.30000000000000004,-0.6000000000000001,2.3000000000000003,-2.2,3.6,11.0,65.7,-28.700000000000003,41.900000000000006,16
447,26091.0,-0.4,-0.7000000000000001,1.2000000000000002,-2.3000000000000003,3.6,9.9,70.0,-16.0,46.300000000000004,16
448,26107.0,1.4000000000000001,-0.2,0.1,-0.4,4.3,8.6,41.4,6.8,45.099999999999994,16
449,26123.0,0.6000000000000001,-2.1,2.0,-1.1,2.5,10.5,16.8,-11.5,35.8,16
450,26140.0,1.7000000000000002,-3.5,5.1000000000000005,0.1,1.1,13.600000000000001,-23.900000000000006,-27.5,38.1,16
451,26164.0,1.4000000000000001,-4.1000000000000005,5.1000000000000005,-0.1,0.4,13.700000000000001,-10.1,-44.5,60.5,16
452,26173.0,1.3,-4.1000000000000005,5.1000000000000005,0.2,1.1,11.3,4.2,-29.200000000000003,68.7,16
453,26191.0,1.4000000000000001,-2.9000000000000004,1.8,0.30000000000000004,1.7000000000000002,10.3,22.000000000000004,20.0,66.80000000000001,16
454,26206.0,1.2000000000000002,-2.4000000000000004,1.0,-0.1,2.7,9.200000000000001,17.799999999999997,33.400000000000006,51.6,16
455,26223.0,1.0,-1.9000000000000001,0.5,-0.2,2.8000000000000003,9.0,13.6,19.799999999999997,45.400000000000006,16
456,26240.0,0.8,-2.3000000000000003,0.5,-0.4,2.5,9.0,11.2,-16.700000000000003,37.7,16
457,26257.0,0.7000000000000001,-2.6,0.5,-0.1,2.1,8.9,12.200000000000001,-27.5,33.50000000000001,16
458,26275.0,1.1,-2.6,0.1,0.2,2.3000000000000003,8.6,8.700000000000001,-16.0,30.699999999999996,16
459,26290.0,1.2000000000000002,-2.4000000000000004,0.0,0.4,2.5,8.4,5.2,-4.2,28.800000000000004,16
460,26315.0,1.1,-2.3000000000000003,-0.30000000000000004,0.30000000000000004,2.6,8.200000000000001,0.0,12.299999999999999,28.3,16
461,26323.0,0.9,-2.3000000000000003,-0.5,0.2,2.6,7.9,0.8,16.6,28.3,16
462,26339.0,0.6000000000000001,-2.3000000000000003,-1.0,-0.2,2.6,7.4,10.700000000000001,16.900000000000002,27.9,16
463,26357.0,0.6000000000000001,-2.1,-1.6,-0.1,2.8000000000000003,6.9,23.5,7.6,24.7,16
464,26373.0,0.8,-1.9000000000000001,-1.7000000000000002,0.0,3.1,6.7,28.3,1.5,22.2,16
465,26390.0,0.9,-1.7000000000000002,-1.5,0.2,3.4000000000000004,6.800000000000001,32.9,-13.700000000000001,17.1,16
466,26408.0,0.8,-1.6,-1.2000000000000002,0.1,3.5,7.1000000000000005,33.400000000000006,-25.900000000000002,14.0,16
467,26423.0,0.7000000000000001,-1.8,-0.7000000000000001,0.2,3.5,7.6000000000000005,38.50000000000001,-32.6,7.500000000000001,16
468,26441.0,0.5,-1.6,-0.6000000000000001,0.0,3.7,7.6000000000000005,44.5,-10.5,4.5,16
469,26456.0,0.6000000000000001,-1.3,-0.5,0.2,4.1000000000000005,7.6000000000000005,42.0,15.100000000000001,4.0,16
470,26473.0,0.7000000000000001,-1.4000000000000001,-0.5,0.2,4.4,7.6000000000000005,36.8,19.799999999999997,3.5,16
471,26490.0,0.7000000000000001,-1.0,0.0,0.2,4.7,8.0,22.5,12.8,0.9000000000000001,16
472,26508.0,0.6000000000000001,-1.0,0.5,0.1,4.5,9.0,11.2,-9.3,-5.0,16
473,26524.0,0.7000000000000001,-1.2000000000000002,1.5,0.2,4.5,9.5,9.0,-16.700000000000003,-7.699999999999999,16
474,26540.0,0.9,-1.1,2.3000000000000003,0.5,4.6000000000000005,10.3,11.1,-15.5,-13.8,16
475,26556.0,1.4000000000000001,-1.4000000000000001,2.9000000000000004,0.9,4.3,10.9,19.0,-6.9,-21.400000000000002,16
476,26573.0,1.2000000000000002,-1.6,3.3000000000000003,0.7000000000000001,4.2,11.200000000000001,23.6,1.9,-22.700000000000003,16
477,26590.0,0.6000000000000001,-1.2000000000000002,3.6,-0.5,5.2,11.3,40.2,56.300000000000004,-8.8,16
478,26609.0,0.0,-0.4,2.8000000000000003,-0.7000000000000001,5.6000000000000005,9.600000000000001,54.800000000000004,67.10000000000001,-3.8,16
479,26624.0,0.5,-0.7000000000000001,1.2000000000000002,-0.30000000000000004,5.4,8.9,51.6,45.2,-13.399999999999999,16
480,26640.0,1.9000000000000001,-1.9000000000000001,2.0,1.0,4.2,9.600000000000001,20.5,-16.900000000000002,-36.8,16
481,26664.0,2.1,-2.6,4.1000000000000005,1.1,3.5,11.700000000000001,-7.200000000000001,-19.700000000000003,-41.50000000000001,16
482,26675.0,1.0,-3.4000000000000004,3.3000000000000003,-0.1,2.8000000000000003,10.9,11.1,70.2,-32.8,16
483,26691.0,0.30000000000000004,-3.1,2.3000000000000003,-0.8,3.1,9.9,24.8,96.20000000000002,-29.700000000000006,16
484,26706.0,0.1,-2.2,0.30000000000000004,-1.4000000000000001,4.0,7.800000000000001,41.0,93.00000000000001,-22.4,16
485,26723.0,0.2,-1.6,-0.30000000000000004,-1.5,4.6000000000000005,7.1000000000000005,43.1,82.10000000000001,-20.3,16
486,26741.0,1.3,-1.7000000000000002,-0.30000000000000004,-0.5,4.6000000000000005,7.0,48.300000000000004,6.8,-14.0,16
487,26758.0,2.3000000000000003,-2.2,0.9,0.5,4.3,8.1,51.70000000000001,-66.5,-15.000000000000002,16
488,26774.0,2.4000000000000004,-2.3000000000000003,1.3,0.7000000000000001,4.1000000000000005,8.8,55.5,-75.4,-16.900000000000002,16
489,26793.0,2.3000000000000003,-2.5,1.7000000000000002,0.6000000000000001,4.1000000000000005,8.700000000000001,61.9,-37.50000000000001,-20.2,16
490,26809.0,1.7000000000000002,-2.5,0.5,0.0,4.3,7.4,60.8,16.3,-24.5,16
491,26823.0,1.2000000000000002,-2.4000000000000004,-0.5,-0.5,4.4,6.300000000000001,52.900000000000006,24.0,-24.3,16
492,26840.0,0.2,-1.8,-1.9000000000000001,-1.5,5.1000000000000005,4.800000000000001,23.700000000000003,0.2,-12.8,16
493,26856.0,0.30000000000000004,-1.6,-1.3,-1.5,5.4,5.4,5.300000000000001,-29.1,0.7,16
494,26875.0,1.4000000000000001,-1.6,0.0,-0.30000000000000004,5.300000000000001,6.7,-2.3,-44.300000000000004,5.4,16
495,26890.0,1.9000000000000001,-1.6,0.5,0.2,5.300000000000001,7.2,-2.4000000000000004,-33.800000000000004,1.9,16
496,26907.0,2.0,-1.5,0.8,0.4,5.4,7.6000000000000005,3.1,6.4,-10.0,16
497,26923.0,1.5,-1.5,0.5,-0.1,5.4,7.2,9.100000000000001,18.5,-15.299999999999999,16
498,26940.0,0.9,-1.7000000000000002,-0.5,-0.8,5.300000000000001,6.2,23.3,10.5,-17.300000000000004,16
499,26956.0,0.5,-1.4000000000000001,-0.5,-1.2000000000000002,5.6000000000000005,6.1000000000000005,30.5,-12.299999999999999,-9.600000000000001,16
500,26974.0,0.5,-1.4000000000000001,-0.5,-1.3,5.7,6.300000000000001,29.500000000000004,-17.5,-5.4,16
501,26990.0,1.0,-1.2000000000000002,0.9,-0.7000000000000001,5.9,7.5,22.2,5.6,0.4,16
502,27008.0,1.3,-0.9,1.6,-0.5,6.5,8.200000000000001,24.7,47.400000000000006,-3.4,16
503,27023.0,0.9,-0.6000000000000001,1.6,-0.9,6.6000000000000005,8.0,30.599999999999998,52.1,-8.4,16
504,27041.0,0.5,-0.7000000000000001,1.1,-1.4000000000000001,6.6000000000000005,7.4,37.300000000000004,28.3,-11.1,16
505,27057.0,0.1,-0.4,1.0,-1.9000000000000001,6.9,7.2,32.9,12.0,-4.9,16
506,27077.0,-0.2,-0.2,1.6,-2.2,7.2,7.800000000000001,20.900000000000002,4.0,4.300000000000001,16
507,27090.0,-0.30000000000000004,-0.1,1.7000000000000002,-2.3000000000000003,7.300000000000001,7.800000000000001,15.100000000000001,6.0,7.699999999999999,16
508,27107.0,0.1,0.4,1.8,-1.9000000000000001,7.800000000000001,7.9,8.8,12.600000000000001,7.500000000000001,16
509,27125.0,0.8,0.6000000000000001,2.3000000000000003,-1.2000000000000002,8.0,8.4,3.2,2.5,1.5,16
510,27140.0,1.3,0.1,3.7,-0.7000000000000001,7.6000000000000005,9.8,-20.599999999999998,-12.600000000000001,-15.5,16
511,27162.0,0.7000000000000001,-0.7000000000000001,4.5,-1.3,6.6000000000000005,10.700000000000001,-46.4,14.200000000000001,-18.8,16
512,27175.0,0.30000000000000004,-1.4000000000000001,4.1000000000000005,-1.9000000000000001,5.9,10.4,-48.6,44.9,-13.000000000000002,16
513,27196.0,0.4,-1.4000000000000001,2.3000000000000003,-1.8,5.7,8.700000000000001,-26.6,56.800000000000004,-6.4,16
514,27212.0,0.5,-1.4000000000000001,2.3000000000000003,-1.9000000000000001,5.800000000000001,8.0,-13.700000000000001,45.0,-5.500000000000001,16
515,27223.0,0.2,-0.9,1.2000000000000002,-2.2,6.2,7.5,-3.2,25.0,-5.7,16
516,27240.0,0.0,-0.8,1.1,-2.5,6.300000000000001,7.4,8.600000000000001,-24.8,-6.8,16
517,27256.0,-0.2,-1.3,1.6,-2.6,5.800000000000001,8.0,3.8,-36.9,-3.5,16
518,27279.0,0.2,-1.7000000000000002,1.9000000000000001,-2.1,5.4,8.200000000000001,-15.2,-2.6,0.6000000000000001,16
519,27291.0,0.2,-1.7000000000000002,1.8,-1.8,5.1000000000000005,8.0,-23.099999999999998,18.5,2.0,16
520,27307.0,0.8,-1.9000000000000001,1.1,-1.5,4.9,7.300000000000001,-28.1,40.300000000000004,2.4000000000000004,16
521,27323.0,0.8,-2.0,0.4,-1.7000000000000002,4.9,6.9,-25.0,40.300000000000004,4.2,16
522,27347.0,0.6000000000000001,-1.6,0.2,-1.9000000000000001,5.300000000000001,6.800000000000001,4.0,1.7,13.6,16
523,27360.0,0.8,-1.6,0.2,-1.7000000000000002,5.300000000000001,6.7,14.700000000000001,-10.4,15.100000000000001,16
524,27373.0,1.0,-1.8,0.1,-1.4000000000000001,5.1000000000000005,6.6000000000000005,20.599999999999998,-13.5,15.299999999999999,16
525,27390.0,1.3,-1.8,0.0,-1.1,5.2,6.4,19.5,6.0,13.900000000000002,16
526,27408.0,1.2000000000000002,-1.6,-0.4,-1.1,5.4,6.0,18.0,21.900000000000002,10.0,16
527,27424.0,1.1,-1.3,-0.6000000000000001,-1.2000000000000002,5.7,5.800000000000001,19.799999999999997,20.1,7.500000000000001,16
528,27440.0,1.0,-1.0,-0.6000000000000001,-1.4000000000000001,6.1000000000000005,5.7,26.200000000000003,6.300000000000001,1.2000000000000002,16
529,27461.0,0.8,-1.3,-0.4,-1.6,5.800000000000001,5.800000000000001,28.0,-5.7,-7.300000000000001,16
530,27476.0,0.2,-1.7000000000000002,-1.0,-2.2,5.5,5.2,18.6,6.9,-8.4,16
531,27496.0,0.0,-1.1,0.0,-2.5,6.1000000000000005,6.2,0.8,30.4,2.0,16
532,27507.0,0.0,-1.1,0.0,-2.5,6.1000000000000005,6.2,0.8,30.4,2.0,16
533,27524.0,0.5,-0.8,0.5,-2.0,6.4,6.6000000000000005,-1.6,25.8,3.3000000000000007,16
534,27541.0,0.4,-0.5,1.0,-2.1,6.7,7.1000000000000005,-4.0,5.9,-6.500000000000001,16
535,27561.0,0.30000000000000004,-0.7000000000000001,2.5,-2.3000000000000003,6.5,8.700000000000001,-7.400000000000001,-22.8,-18.5,16
536,27573.0,0.30000000000000004,-0.7000000000000001,2.5,-2.3000000000000003,6.5,9.4,-8.2,-29.400000000000002,-19.0,16
537,27595.0,-0.1,0.30000000000000004,2.6,-2.7,7.4,8.8,-3.0,-5.300000000000001,-7.8,16
538,27607.0,-0.1,0.30000000000000004,2.6,-2.7,7.4,8.8,-3.0,-5.300000000000001,-7.8,16
539,27623.0,0.30000000000000004,1.1,1.0,-2.3000000000000003,8.200000000000001,7.2,0.30000000000000004,-15.399999999999999,-4.4,16
540,27639.0,0.7000000000000001,1.6,2.5,-1.8,8.700000000000001,8.700000000000001,-22.000000000000004,-65.2,-9.2,16
541,27660.0,1.1,1.2000000000000002,3.8000000000000003,-1.4000000000000001,8.200000000000001,10.100000000000001,-42.5,-76.2,-15.5,16
542,27674.0,1.1,1.2000000000000002,3.8000000000000003,-1.4000000000000001,8.200000000000001,10.100000000000001,-42.5,-76.2,-15.5,16
543,27695.0,0.2,-1.6,4.0,-2.2,5.0,10.700000000000001,-53.599999999999994,-1.0,-27.9,16
544,27707.0,0.2,-1.6,3.9000000000000004,-2.5,5.1000000000000005,10.100000000000001,-36.5,-10.5,-21.1,16
545,27725.0,0.0,-1.6,2.6,-2.4000000000000004,5.0,9.5,-19.200000000000003,-28.0,-11.3,16
546,27739.0,0.9,-1.5,1.9000000000000001,-1.5,5.1000000000000005,8.8,1.4,-67.10000000000001,12.4,16
547,27757.0,2.0,-1.2000000000000002,1.7000000000000002,-0.1,5.4,8.700000000000001,-2.9,-88.3,26.200000000000003,16
548,27773.0,1.9000000000000001,-1.2000000000000002,1.7000000000000002,0.9,5.2,8.4,-22.700000000000003,-77.4,25.1,16
549,27792.0,2.9000000000000004,-1.4000000000000001,1.2000000000000002,1.2000000000000002,5.1000000000000005,8.4,-34.7,-60.6,22.000000000000004,16
550,27806.0,3.0,-1.5,1.1,1.4000000000000001,5.0,8.200000000000001,-46.7,-41.900000000000006,19.300000000000004,16
551,27824.0,2.8000000000000003,-1.9000000000000001,0.7000000000000001,1.3,4.5,8.0,-54.50000000000001,1.6,7.9,16
552,27840.0,1.9000000000000001,-2.4000000000000004,-0.5,0.4,3.9000000000000004,7.0,-38.2,19.799999999999997,-2.6,16
553,27861.0,0.8,-2.1,-1.3,-0.7000000000000001,4.0,6.2,-9.3,2.9,-3.3000000000000007,16
554,27875.0,0.4,-1.8,-1.6,-1.1,4.3,5.9,16.700000000000003,-29.0,3.3000000000000007,16
555,27890.0,0.4,-1.8,-1.6,-1.0,4.4,5.9,24.8,-38.900000000000006,7.8,16
556,27907.0,0.9,-1.5,-1.6,-0.4,4.7,5.9,29.800000000000004,-47.1,12.100000000000001,16
557,27931.0,1.2000000000000002,-1.5,-1.4000000000000001,0.0,4.800000000000001,6.0,23.700000000000003,-35.3,9.3,16
558,27939.0,1.2000000000000002,-1.3,-1.2000000000000002,0.1,5.0,6.2,16.5,-29.600000000000005,4.800000000000001,16
559,27962.0,0.9,-1.2000000000000002,-0.9,-0.2,5.2,6.4,-3.1,-21.1,-4.4,16
560,27977.0,0.5,-1.1,-0.30000000000000004,-0.6000000000000001,5.300000000000001,7.1000000000000005,-22.5,-13.700000000000001,-7.699999999999999,16
561,27990.0,0.5,-1.1,-0.30000000000000004,-0.6000000000000001,5.300000000000001,7.1000000000000005,-22.5,-13.700000000000001,-7.699999999999999,16
562,28007.0,0.0,-0.6000000000000001,0.6000000000000001,-1.0,5.6000000000000005,8.1,-42.800000000000004,4.0,0.30000000000000004,16
563,28023.0,0.0,-0.4,1.0,-1.1,5.800000000000001,8.5,-46.199999999999996,14.600000000000001,3.7000000000000006,16
564,28040.0,0.0,-0.30000000000000004,1.6,-1.0,5.7,9.3,-46.0,29.0,9.600000000000001,16
565,28057.0,0.1,-0.2,2.3000000000000003,-1.0,5.7,10.0,-40.9,24.900000000000002,12.299999999999999,16
566,28074.0,0.2,-0.2,2.7,-0.9,5.6000000000000005,10.5,-24.5,9.3,16.3,16
567,28090.0,0.30000000000000004,-0.2,2.9000000000000004,-0.8,5.6000000000000005,10.8,-14.700000000000001,-2.6,18.4,16
568,28108.0,0.4,-0.1,3.2,-0.7000000000000001,5.800000000000001,11.100000000000001,-6.0,-14.100000000000001,19.799999999999997,16
569,48266.0,0.7000000000000001,-0.1,-1.1,-0.4,4.800000000000001,7.300000000000001,21.200000000000003,-6.699999999999999,0.6000000000000001,16
570,48282.0,0.9,-0.1,-1.2000000000000002,-0.1,4.9,7.2,27.6,-15.100000000000001,-0.30000000000000004,16
571,48312.0,0.2,-0.30000000000000004,-1.6,-0.4,5.0,6.6000000000000005,34.800000000000004,19.1,-6.4,16
572,48314.0,0.2,-0.30000000000000004,-1.6,-0.4,5.0,6.6000000000000005,34.800000000000004,19.1,-6.4,16
573,48331.0,-0.2,0.1,-1.2000000000000002,-0.8,5.6000000000000005,6.9,33.7,9.700000000000001,-8.600000000000001,16
574,48349.0,-0.2,0.30000000000000004,-0.7000000000000001,-0.9,5.9,7.4,32.1,-2.3,-7.300000000000001,16
575,48366.0,0.1,0.4,0.4,-0.6000000000000001,6.0,8.4,29.800000000000004,-19.700000000000003,-3.6000000000000005,16
576,48381.0,0.2,0.4,0.6000000000000001,-0.4,6.0,8.6,28.200000000000003,-16.6,-2.7,16
577,48399.0,-0.2,0.9,0.8,-0.8,6.6000000000000005,8.700000000000001,17.0,20.900000000000002,-3.1,16
578,48416.0,-0.9,2.0,0.1,-1.6,7.800000000000001,8.0,5.6,75.1,-2.8,16
579,48433.0,-0.7000000000000001,2.2,0.1,-1.6,8.0,8.0,-8.2,43.70000000000001,-12.0,16
580,48448.0,-0.4,1.9000000000000001,1.1,-1.4000000000000001,7.7,9.0,-22.4,-1.0,-22.5,16
581,48465.0,0.0,0.2,3.2,-0.9,5.9,11.100000000000001,-58.7,-74.60000000000001,-34.800000000000004,16
582,48481.0,0.2,-0.4,3.9000000000000004,-0.7000000000000001,5.1000000000000005,12.0,-71.9,-69.5,-33.50000000000001,16
583,48499.0,-0.2,-1.4000000000000001,4.7,-0.9,4.0,12.9,-70.4,-15.000000000000002,-19.799999999999997,16
584,48515.0,-0.6000000000000001,-0.9,4.0,-1.4000000000000001,4.3,12.3,-38.300000000000004,29.300000000000004,-4.4,16
585,48531.0,-0.2,-0.6000000000000001,3.3000000000000003,-0.5,4.7,10.9,-12.600000000000001,21.1,6.699999999999999,16
586,48549.0,1.2000000000000002,-0.2,1.9000000000000001,0.30000000000000004,4.9,10.3,-0.6000000000000001,1.6,14.200000000000001,16
587,48564.0,2.2,0.1,0.9,1.4000000000000001,5.2,9.3,12.299999999999999,-35.699999999999996,24.0,16
588,48583.0,2.3000000000000003,0.1,0.5,1.5,5.2,8.9,15.000000000000002,-40.5,24.5,16
589,48598.0,1.9000000000000001,0.30000000000000004,-0.6000000000000001,1.3,5.4,7.7,13.3,-21.500000000000004,19.1,16
590,48615.0,1.3,0.2,-1.6,0.7000000000000001,5.4,6.7,2.4000000000000004,6.2,10.9,16
591,48633.0,0.7000000000000001,0.0,-2.2,0.2,5.2,6.1000000000000005,-11.4,12.200000000000001,1.3,16
592,48650.0,0.4,-0.2,-2.3000000000000003,-0.2,5.0,6.0,-16.900000000000002,6.4,-4.7,16
593,48664.0,-0.2,-0.5,-2.0,-0.8,4.6000000000000005,6.4,-21.900000000000002,-14.800000000000002,-11.4,16
594,48682.0,-0.30000000000000004,-0.6000000000000001,-1.8,-0.9,4.5,6.6000000000000005,-20.0,-22.3,-9.600000000000001,16
595,48699.0,-0.2,-0.6000000000000001,-1.5,-0.7000000000000001,4.4,6.9,-9.3,-25.300000000000004,-0.5,16
596,48715.0,0.30000000000000004,-0.30000000000000004,-1.3,-0.2,4.7,7.1000000000000005,3.9,-16.5,6.1000000000000005,16
597,48732.0,0.4,-0.2,-1.7000000000000002,0.0,4.800000000000001,6.7,9.8,-1.8000000000000003,2.3,16
598,48748.0,0.2,-0.30000000000000004,-1.9000000000000001,-0.2,4.7,6.5,9.8,5.0,-2.2,16
599,48764.0,0.1,-0.2,-2.0,-0.4,4.800000000000001,6.4,6.0,9.100000000000001,-6.8,16
600,48783.0,-0.2,0.0,-1.7000000000000002,-0.7000000000000001,5.1000000000000005,6.7,0.8,5.4,-4.4,16
601,48798.0,-0.4,0.2,-1.4000000000000001,-0.8,5.300000000000001,7.0,-1.2000000000000002,2.2,-2.9,16
602,48814.0,-0.6000000000000001,0.4,-1.1,-1.0,5.4,7.300000000000001,-1.1,-1.2000000000000002,-1.2000000000000002,16
603,48831.0,-0.6000000000000001,0.5,-0.30000000000000004,-1.0,5.6000000000000005,8.1,8.600000000000001,0.5,5.300000000000001,16
604,48850.0,-0.5,0.8,0.2,-0.9,5.9,8.5,12.7,-3.4,7.9,16
605,48865.0,-0.2,0.7000000000000001,0.30000000000000004,-0.6000000000000001,5.9,8.6,14.200000000000001,-4.9,8.0,16
606,48882.0,-0.1,0.7000000000000001,0.7000000000000001,-0.5,5.9,9.0,12.299999999999999,-9.8,6.0,16
607,48898.0,-0.5,1.0,0.9,-0.9,6.2,9.1,8.600000000000001,-8.5,6.1000000000000005,16
608,48915.0,-1.1,1.5,1.0,-1.5,6.7,9.3,4.0,20.1,12.7,16
609,48932.0,-0.7000000000000001,1.2000000000000002,1.4000000000000001,-1.0,6.4,10.200000000000001,2.1,22.9,14.400000000000002,16
610,48949.0,-0.2,1.0,2.8000000000000003,-0.7000000000000001,6.2,11.100000000000001,-13.100000000000001,-20.1,5.8,16
611,48964.0,0.4,0.0,4.3,0.1,5.2,12.600000000000001,-29.900000000000006,-60.00000000000001,-7.699999999999999,16
612,48981.0,0.30000000000000004,-0.30000000000000004,4.4,0.0,4.9,12.700000000000001,-31.6,-57.20000000000001,-8.8,16
613,49002.0,-0.7000000000000001,-0.5,3.5,-1.3,4.9,11.100000000000001,-24.3,2.7,-2.4000000000000004,16
614,49017.0,-1.5,0.4,2.0,-1.7000000000000002,5.4,10.4,-11.3,51.9,6.9,16
615,49032.0,-1.2000000000000002,0.6000000000000001,0.6000000000000001,-1.5,5.6000000000000005,9.0,-12.0,47.1,6.0,16
616,49049.0,-0.7000000000000001,0.4,0.1,-1.1,5.300000000000001,8.6,-16.6,33.400000000000006,2.3,16
617,49065.0,-0.30000000000000004,-0.2,0.0,-0.7000000000000001,4.7,8.5,-28.400000000000002,-0.1,-3.2,16
618,49086.0,0.0,-0.7000000000000001,0.2,-0.5,4.1000000000000005,8.700000000000001,-37.800000000000004,-23.3,-0.5,16
619,49100.0,0.1,-0.8,0.2,-0.30000000000000004,4.0,8.8,-39.50000000000001,-23.900000000000006,3.0,16
620,49115.0,0.4,-0.9,0.1,0.1,3.8000000000000003,8.8,-32.9,-9.100000000000001,11.700000000000001,16
621,49133.0,0.5,-0.9,-0.30000000000000004,0.2,3.7,8.4,-24.400000000000002,4.2,16.5,16
622,49148.0,0.5,-0.9,-0.30000000000000004,0.2,3.7,8.4,-24.400000000000002,4.2,16.5,16
623,49165.0,0.6000000000000001,-0.8,-0.6000000000000001,0.1,4.0,7.300000000000001,3.4,21.7,25.300000000000004,16
624,49181.0,0.6000000000000001,-0.8,-0.6000000000000001,0.1,4.0,7.300000000000001,3.4,21.7,25.300000000000004,16
625,49199.0,0.30000000000000004,-0.30000000000000004,-1.8,0.0,4.3,6.9,29.600000000000005,-12.0,17.300000000000004,16
626,49216.0,0.4,-0.2,-1.6,0.2,4.5,7.0,31.5,-11.3,12.200000000000001,16
627,49232.0,0.4,-0.2,-1.6,0.2,4.6000000000000005,7.0,27.700000000000003,10.200000000000001,8.0,16
628,49249.0,0.30000000000000004,-0.1,-1.7000000000000002,0.1,4.800000000000001,6.800000000000001,25.1,20.400000000000002,3.9,16
629,49264.0,0.0,-0.1,-1.5,-0.30000000000000004,4.800000000000001,7.0,23.800000000000004,18.900000000000002,-7.0,16
630,49282.0,-0.30000000000000004,-0.30000000000000004,-1.3,-0.6000000000000001,4.7,7.2,22.700000000000003,6.4,-9.5,16
631,49298.0,-0.8,-0.2,-0.9,-1.2000000000000002,4.800000000000001,7.5,18.5,-18.5,-6.300000000000001,16
632,49315.0,-0.4,-0.1,-0.30000000000000004,-0.7000000000000001,5.0,8.1,12.600000000000001,-22.3,1.6,16
633,49332.0,0.5,0.5,0.4,0.30000000000000004,5.6000000000000005,8.8,5.300000000000001,-14.0,1.0,16
634,49350.0,1.0,0.7000000000000001,0.6000000000000001,0.9,5.800000000000001,9.0,1.3,-4.7,-4.300000000000001,16
635,49365.0,1.3,0.7000000000000001,1.4000000000000001,1.1,5.800000000000001,9.8,-6.4,-1.2000000000000002,-16.4,16
636,49382.0,1.1,0.7000000000000001,2.0,0.9,5.800000000000001,10.4,-14.600000000000001,-18.200000000000003,-24.8,16
637,49401.0,0.0,1.0,2.4000000000000004,-0.2,6.1000000000000005,10.8,-14.400000000000002,-19.0,-15.899999999999999,16
638,49416.0,-0.1,1.3,1.0,-0.2,6.300000000000001,9.4,2.4000000000000004,27.099999999999998,7.6,16
639,49432.0,0.5,1.4000000000000001,1.1,0.30000000000000004,6.4,9.5,13.000000000000002,38.50000000000001,13.6,16
640,49451.0,0.5,1.7000000000000002,1.8,0.2,6.7,10.200000000000001,14.100000000000001,23.800000000000004,8.2,16
641,49471.0,0.6000000000000001,0.9,2.7,0.30000000000000004,5.9,11.100000000000001,4.800000000000001,-11.6,-15.100000000000001,16
642,49487.0,0.2,0.1,2.8000000000000003,-0.1,5.2,11.200000000000001,0.8,-19.400000000000002,-28.3,16
643,49503.0,0.0,-0.30000000000000004,2.3000000000000003,-0.4,4.5,10.100000000000001,15.100000000000001,11.1,-12.200000000000001,16
644,49519.0,-0.2,-0.6000000000000001,0.7000000000000001,-0.6000000000000001,4.5,9.1,22.5,23.400000000000002,-3.1,16
645,49532.0,-0.30000000000000004,-1.2000000000000002,-0.5,-0.7000000000000001,4.0,7.800000000000001,26.5,22.5,5.6,16
646,49548.0,-0.30000000000000004,-0.7000000000000001,-0.5,-0.7000000000000001,4.5,7.800000000000001,18.8,7.400000000000001,11.5,16
647,49568.0,0.6000000000000001,-0.2,0.0,0.2,5.1000000000000005,8.3,-4.1,-33.300000000000004,10.5,16
648,49582.0,0.7000000000000001,-0.2,0.1,0.4,5.1000000000000005,8.4,-11.1,-60.2,9.700000000000001,16
649,49599.0,1.0,-0.30000000000000004,0.0,0.9,4.9,8.3,-20.5,-77.4,19.799999999999997,16
650,49615.0,1.2000000000000002,-0.6000000000000001,-1.1,1.4000000000000001,4.5,7.300000000000001,-25.0,-59.300000000000004,32.0,16
651,49632.0,0.7000000000000001,-1.0,-2.2,1.0,4.1000000000000005,6.2,-22.8,-33.9,35.1,16
652,49659.0,-0.30000000000000004,-0.5,-2.9000000000000004,0.2,4.5,5.6000000000000005,-20.7,-21.6,35.5,16
653,49666.0,-0.6000000000000001,-0.30000000000000004,-3.0,0.0,4.7,5.4,-17.9,-24.400000000000002,34.50000000000001,16
654,49683.0,-0.9,-0.2,-3.1,-0.30000000000000004,4.7,5.4,-15.2,-32.300000000000004,31.9,16
655,49698.0,-1.0,-0.1,-2.9000000000000004,-0.2,4.7,5.5,-9.600000000000001,-50.3,23.900000000000006,16
656,49715.0,-0.6000000000000001,-0.1,-2.7,0.4,4.800000000000001,5.800000000000001,-1.7,-43.4,15.8,16
657,49731.0,-0.30000000000000004,0.0,-2.2,1.4000000000000001,5.0,7.0,2.9,-29.1,12.100000000000001,16
658,49748.0,0.5,0.1,-1.4000000000000001,1.6,5.0,7.0,9.8,21.6,0.2,16
659,49767.0,-0.1,0.1,-1.2000000000000002,0.9,4.9,7.300000000000001,10.4,28.3,-18.4,16
660,49782.0,-0.6000000000000001,0.1,-1.0,0.30000000000000004,5.0,7.5,7.9,23.0,-28.700000000000003,16
661,49801.0,-1.2000000000000002,0.0,-0.8,-0.4,5.0,7.7,9.700000000000001,17.9,-36.9,16
662,49815.0,-1.3,0.5,-0.7000000000000001,-0.5,5.5,7.7,18.200000000000003,9.4,-25.4,16
663,49832.0,-1.1,1.1,-0.7000000000000001,-0.4,6.1000000000000005,7.6000000000000005,14.900000000000002,1.0,-19.0,16
664,49848.0,-1.1,1.0,-0.7000000000000001,-0.4,6.2,7.9,9.5,-1.7,-18.3,16
665,49867.0,-1.1,0.8,1.0,-0.5,5.800000000000001,9.4,-20.900000000000002,-7.699999999999999,-13.399999999999999,16
666,49883.0,-1.1,0.9,1.8,-0.5,6.0,10.200000000000001,-30.5,1.6,-7.300000000000001,16
667,49898.0,-1.0,1.9000000000000001,1.6,-0.4,6.800000000000001,10.100000000000001,-22.4,24.8,1.8000000000000003,16
668,49918.0,-0.30000000000000004,2.2,1.7000000000000002,0.30000000000000004,7.1000000000000005,10.100000000000001,-28.800000000000004,-8.100000000000001,0.2,16
669,49933.0,0.30000000000000004,-0.4,3.8000000000000003,0.8,4.4,12.3,-77.9,-34.50000000000001,-5.7,16
670,49948.0,0.2,-0.30000000000000004,3.7,0.8,3.3000000000000003,13.5,-96.1,-23.2,-5.0,16
671,49967.0,-0.5,-1.4000000000000001,6.0,0.2,2.9000000000000004,14.8,-85.1,25.300000000000004,15.8,16
672,49982.0,-0.8,-0.5,5.5,-0.1,3.7,14.3,-58.800000000000004,40.4,21.6,16
673,49998.0,-0.8,-0.1,3.0,-0.30000000000000004,4.0,11.9,-1.6,27.400000000000002,18.900000000000002,16
674,50016.0,-0.7000000000000001,0.1,0.6000000000000001,-0.2,4.2,9.5,19.6,-7.6,14.200000000000001,16
675,50032.0,-0.8,0.2,-0.4,-0.2,4.4,8.5,7.699999999999999,-34.60000000000001,11.1,16
676,50048.0,-0.6000000000000001,0.30000000000000004,-0.2,0.0,4.5,8.700000000000001,-4.800000000000001,-40.300000000000004,14.600000000000001,16
677,50065.0,-0.4,0.1,0.1,0.30000000000000004,4.3,8.9,-15.5,-34.300000000000004,19.6,16
678,50086.0,-0.2,-1.3,0.4,0.7000000000000001,2.7,9.3,-22.2,17.6,26.300000000000004,16
679,50098.0,-0.4,-1.2000000000000002,0.1,0.5,2.8000000000000003,9.0,-11.8,27.3,31.2,16
680,50115.0,-0.30000000000000004,-0.9,-1.0,0.5,3.1,8.0,17.0,18.5,40.9,16
681,50133.0,0.2,-0.8,-1.9000000000000001,1.0,3.3000000000000003,7.0,41.7,-13.000000000000002,46.1,16
682,50155.0,0.8,-0.6000000000000001,-2.3000000000000003,1.7000000000000002,3.6,6.6000000000000005,56.800000000000004,-39.300000000000004,47.2,16
683,50165.0,0.8,-0.6000000000000001,-2.3000000000000003,2.1,3.8000000000000003,6.4,59.40000000000001,-39.300000000000004,44.6,16
684,50182.0,1.4000000000000001,-0.2,-2.2,2.5,4.1000000000000005,6.5,58.0,-30.799999999999997,40.1,16
685,50200.0,1.3,-0.2,-2.0,2.6,4.3,6.6000000000000005,49.800000000000004,-3.8,22.6,16
686,50215.0,0.7000000000000001,-0.2,-1.9000000000000001,1.9000000000000001,4.4,6.7,38.300000000000004,15.700000000000001,1.7,16
687,50234.0,0.0,-0.2,-1.6,1.2000000000000002,4.5,6.9,23.700000000000003,14.100000000000001,-5.7,16
688,50264.0,-0.4,-0.4,-0.9,0.8,4.4,7.6000000000000005,14.0,1.4,-3.9,16
689,50286.0,0.1,0.1,-0.4,1.3,4.9,8.1,14.800000000000002,-9.100000000000001,-1.1,16
690,50298.0,0.2,0.30000000000000004,-0.1,1.4000000000000001,5.1000000000000005,8.4,12.5,-14.400000000000002,-6.1000000000000005,16
691,50316.0,0.2,0.4,0.4,1.4000000000000001,5.300000000000001,8.8,7.6,-17.0,-11.2,16
692,50334.0,0.1,0.7000000000000001,1.0,1.3,5.7,9.4,-5.0,-15.6,-11.6,16
693,50355.0,0.2,1.5,1.1,1.5,6.4,9.4,-19.200000000000003,1.8000000000000003,-7.300000000000001,16
694,50365.0,0.5,1.6,1.0,1.7000000000000002,6.5,9.4,-27.700000000000003,9.3,-7.8,16
695,50388.0,1.1,1.6,1.5,2.4000000000000004,6.4,10.0,-55.3,4.5,-15.2,16
696,50398.0,1.3,0.8,2.8000000000000003,2.5,5.5,11.4,-74.7,-0.5,-26.200000000000003,16
697,50415.0,0.30000000000000004,-1.2000000000000002,5.4,1.4000000000000001,3.3000000000000003,14.100000000000001,-89.30000000000001,11.6,-40.7,16
698,50432.0,-1.0,-1.6,5.9,0.0,2.7,14.700000000000001,-57.800000000000004,32.8,-21.8,16
699,50455.0,-0.8,-1.1,4.2,0.1,3.0,13.0,-9.0,27.099999999999998,9.8,16
700,50465.0,-0.1,-0.8,3.0,0.8,3.3000000000000003,11.9,10.8,13.5,23.700000000000003,16
701,50482.0,0.8,-0.5,1.9000000000000001,1.6,3.6,10.8,24.7,-5.0,34.1,16
702,50504.0,3.1,0.2,0.1,4.1000000000000005,4.5,8.9,33.1,-62.300000000000004,33.2,16
703,50517.0,3.3000000000000003,0.2,-0.2,4.5,4.4,8.5,28.600000000000005,-68.0,23.6,16
704,50533.0,2.8000000000000003,-0.2,-0.8,4.2,4.1000000000000005,7.9,17.799999999999997,-44.300000000000004,1.3,16
705,50551.0,2.2,-0.4,-1.1,3.7,4.0,7.5,13.8,-22.8,-8.5,16
706,50569.0,0.8,-0.8,-2.1,2.3000000000000003,3.6,6.5,11.5,11.000000000000002,-21.6,16
707,50582.0,0.1,-0.9,-2.6,1.6,3.5,6.1000000000000005,12.4,17.1,-24.599999999999998,16
708,50599.0,-0.6000000000000001,-1.0,-3.1,0.8,3.4000000000000004,5.5,15.2,9.0,-25.7,16
709,50615.0,-0.9,-1.1,-3.3000000000000003,0.5,3.5,5.300000000000001,18.0,-14.100000000000001,-21.300000000000004,16
710,50633.0,-0.7000000000000001,-1.0,-2.9000000000000004,0.6000000000000001,3.6,5.7,18.5,-32.9,-15.5,16
711,50656.0,-0.30000000000000004,-0.9,-2.3000000000000003,1.1,3.8000000000000003,6.2,14.0,-27.700000000000003,-13.5,16
712,50665.0,-0.30000000000000004,-0.9,-2.3000000000000003,1.1,3.8000000000000003,6.2,14.0,-27.700000000000003,-13.5,16
713,50682.0,-0.1,-0.8,-1.8,1.3,4.0,6.7,7.400000000000001,-4.9,-15.8,16
714,50699.0,-0.4,-0.4,-1.4000000000000001,1.1,4.4,7.0,5.2,8.0,-16.900000000000002,16
715,50715.0,-0.6000000000000001,-0.30000000000000004,-1.2000000000000002,0.8,4.5,7.300000000000001,7.8,3.0,-16.200000000000003,16
716,50733.0,-0.7000000000000001,0.1,-0.9,0.6000000000000001,4.9,7.5,12.600000000000001,-7.1000000000000005,-12.0,16
717,50751.0,-0.7000000000000001,0.30000000000000004,-0.9,0.6000000000000001,5.1000000000000005,7.5,13.6,-7.699999999999999,-10.4,16
718,50765.0,-0.8,0.6000000000000001,-1.0,0.6000000000000001,5.4,7.4,14.5,-5.0,-7.8,16
719,50783.0,-1.0,1.2000000000000002,-0.9,0.4,6.1000000000000005,7.5,9.3,5.8,-4.2,16
720,50799.0,-1.3,1.6,-0.30000000000000004,0.0,6.5,8.1,-1.0,15.899999999999999,-0.9000000000000001,16
721,50815.0,-1.0,1.8,0.2,0.30000000000000004,6.7,8.6,-10.0,10.8,6.1000000000000005,16
722,50834.0,-0.2,2.1,1.3,1.1,6.9,9.700000000000001,-20.900000000000002,-11.6,9.0,16
723,50856.0,0.1,2.5,2.0,1.4000000000000001,7.4,10.4,-26.1,-15.000000000000002,7.500000000000001,16
724,50867.0,0.0,2.8000000000000003,1.9000000000000001,1.4000000000000001,7.6000000000000005,10.4,-27.2,-6.699999999999999,7.200000000000001,16
725,50887.0,0.0,3.0,2.1,1.4000000000000001,7.7,10.5,-34.0,-4.0,6.0,16
726,50898.0,0.7000000000000001,2.0,3.5,2.1,6.6000000000000005,12.0,-60.2,-9.0,0.8,16
727,50918.0,1.3,0.1,5.4,2.7,4.6000000000000005,14.0,-68.0,-6.0,-3.3000000000000007,16
728,50931.0,0.7000000000000001,-0.9,5.4,2.1,3.4000000000000004,14.100000000000001,-36.7,14.400000000000002,0.5,16
729,50953.0,-0.6000000000000001,-0.6000000000000001,3.0,0.8,3.6,11.8,12.200000000000001,31.9,9.3,16
730,50966.0,-0.8,-0.4,1.7000000000000002,0.5,3.7,10.5,30.3,29.500000000000004,15.299999999999999,16
731,50982.0,-1.0,-0.2,0.30000000000000004,0.30000000000000004,4.0,9.0,40.0,19.400000000000002,20.1,16
732,50999.0,-0.8,-0.1,-1.0,0.5,4.2,7.7,35.2,-10.200000000000001,23.800000000000004,16
733,51020.0,0.0,-0.5,-0.7000000000000001,1.4000000000000001,3.9000000000000004,8.0,16.4,-26.6,23.700000000000003,16
734,51033.0,0.30000000000000004,-0.7000000000000001,-0.30000000000000004,1.7000000000000002,3.5,8.5,6.500000000000001,-10.9,16.4,16
735,51051.0,-0.4,-1.3,-0.5,1.1,3.1,8.1,7.8,13.6,10.4,16
736,51070.0,-0.9,-1.5,-0.8,0.6000000000000001,3.0,7.800000000000001,9.899999999999999,22.9,10.5,16
737,51085.0,-1.4000000000000001,-1.4000000000000001,-1.4000000000000001,0.1,3.1,7.2,14.400000000000002,26.5,16.8,16
738,51098.0,-1.4000000000000001,-1.3,-1.6,0.0,3.1,7.0,16.900000000000002,21.500000000000004,20.2,16
739,51121.0,-1.1,-1.1,-1.9000000000000001,0.30000000000000004,3.4000000000000004,6.7,22.9,5.4,24.1,16
740,51132.0,-0.8,-1.0,-2.1,0.6000000000000001,3.6,6.5,27.2,-6.0,24.3,16
741,51150.0,-0.8,-0.9,-2.2,0.7000000000000001,3.7,6.4,27.5,-7.500000000000001,23.900000000000006,16
742,51165.0,-0.5,-0.9,-2.1,1.0,3.8000000000000003,6.4,27.099999999999998,-7.8,23.099999999999998,16
743,51182.0,-0.4,-0.8,-2.1,1.1,3.9000000000000004,6.4,27.0,-5.0,22.1,16
744,51199.0,-0.30000000000000004,-0.7000000000000001,-2.1,1.3,4.1000000000000005,6.300000000000001,26.700000000000003,-2.6,21.300000000000004,16
745,51215.0,-0.30000000000000004,-0.30000000000000004,-2.0,1.4000000000000001,4.6000000000000005,6.4,21.900000000000002,1.8000000000000003,19.5,16
746,51234.0,-0.1,0.1,-1.8,1.5,5.0,6.5,15.100000000000001,3.8,15.5,16
747,51253.0,-0.1,0.2,-1.2000000000000002,1.5,5.1000000000000005,7.1000000000000005,5.300000000000001,-0.8,7.300000000000001,16
748,51265.0,-0.30000000000000004,0.1,-0.5,1.4000000000000001,5.0,7.800000000000001,-0.7,-3.5,3.5,16
749,51282.0,-0.5,0.2,0.7000000000000001,1.2000000000000002,5.2,9.0,-6.300000000000001,3.7000000000000006,2.0,16
750,51298.0,-0.4,0.30000000000000004,1.0,1.3,5.2,9.4,-7.0,4.5,2.1,16
751,51315.0,-0.2,0.4,1.4000000000000001,1.5,5.300000000000001,9.8,-8.2,0.30000000000000004,1.1,16
752,51332.0,0.2,0.6000000000000001,1.7000000000000002,1.9000000000000001,5.5,10.0,-11.000000000000002,-7.400000000000001,0.9000000000000001,16
753,51357.0,0.30000000000000004,0.9,1.8,2.0,5.800000000000001,10.100000000000001,-11.8,-6.500000000000001,-0.1,16
754,51365.0,0.30000000000000004,0.9,1.8,2.0,5.800000000000001,10.100000000000001,-11.8,-6.500000000000001,-0.1,16
755,51382.0,0.5,1.7000000000000002,0.8,2.2,6.5,9.200000000000001,-9.8,7.0,-3.1,16
756,51398.0,0.6000000000000001,2.1,0.1,2.3000000000000003,6.9,8.5,-28.700000000000003,-4.2,-12.4,16
757,51416.0,0.9,0.9,1.5,2.6,5.5,10.0,-66.9,-15.399999999999999,-26.400000000000006,16
758,51432.0,0.2,-0.7000000000000001,3.8000000000000003,1.9000000000000001,3.8000000000000003,12.4,-81.90000000000002,1.6,-32.1,16
759,51449.0,0.2,-0.6000000000000001,3.8000000000000003,1.4000000000000001,3.3000000000000003,13.0,-74.5,18.3,-27.700000000000003,16
760,51478.0,-1.3,-1.3,3.6,0.2,2.8000000000000003,12.3,-19.6,33.1,6.2,16
761,51481.0,-1.3,-1.3,3.6,0.2,2.8000000000000003,12.3,-19.6,33.1,6.2,16
762,51498.0,-0.2,-1.0,1.7000000000000002,1.2000000000000002,3.1,10.5,11.900000000000002,-1.5,30.4,16
763,51515.0,1.5,-0.7000000000000001,0.4,3.0,3.4000000000000004,9.200000000000001,24.200000000000003,-39.8,38.0,16
764,51532.0,2.3000000000000003,-0.7000000000000001,-0.2,3.9000000000000004,3.4000000000000004,8.5,21.900000000000002,-48.10000000000001,29.700000000000006,16
765,51553.0,2.3000000000000003,-0.8,-0.5,3.9000000000000004,3.4000000000000004,7.7,17.5,-30.1,19.0,16
766,51565.0,1.7000000000000002,-0.9,-1.5,3.6,3.3000000000000003,7.2,14.900000000000002,-11.000000000000002,11.6,16
767,51582.0,1.2000000000000002,-1.0,-2.0,2.4000000000000004,3.2,6.1000000000000005,11.1,23.800000000000004,0.30000000000000004,16
768,51598.0,0.0,-1.1,-3.0,1.9000000000000001,3.2,5.6000000000000005,10.200000000000001,34.1,-2.4000000000000004,16
769,51616.0,-0.30000000000000004,-1.0,-3.6,1.4000000000000001,3.3000000000000003,5.1000000000000005,11.000000000000002,34.1,-1.4,16
770,51632.0,-0.30000000000000004,-0.6000000000000001,-3.8000000000000003,1.4000000000000001,3.7,4.9,15.100000000000001,18.1,0.6000000000000001,16
771,51657.0,-0.1,-0.1,-4.0,1.6,4.2,4.6000000000000005,17.400000000000002,-1.6,-0.8,16
772,51666.0,0.0,0.0,-4.1000000000000005,1.7000000000000002,4.4,4.6000000000000005,14.900000000000002,-7.6,-4.6,16
773,51684.0,-0.1,0.1,-3.7,1.6,4.6000000000000005,4.9,2.1,-11.5,-13.8,16
774,51700.0,-0.30000000000000004,0.1,-3.1,1.4000000000000001,4.6000000000000005,5.4,-6.4,-11.900000000000002,-17.1,16
775,51715.0,-0.2,0.0,-1.6,1.4000000000000001,4.5,7.0,-18.200000000000003,-11.1,-17.0,16
776,51732.0,-0.1,0.5,-0.4,1.6,4.800000000000001,8.200000000000001,-15.5,-9.5,-14.400000000000002,16
777,51751.0,0.1,0.7000000000000001,-0.2,1.8,5.1000000000000005,8.5,-6.300000000000001,-2.9,-14.600000000000001,16
778,51765.0,-0.2,1.0,-0.2,1.5,5.300000000000001,8.4,-3.0,7.300000000000001,-15.5,16
779,51784.0,-0.8,1.5,-0.4,0.9,5.800000000000001,8.200000000000001,-3.1,24.400000000000002,-15.2,16
780,51798.0,-1.0,1.6,-0.4,0.6000000000000001,5.9,8.3,-5.9,27.099999999999998,-13.100000000000001,16
781,51815.0,-0.9,1.8,0.5,0.6000000000000001,6.2,9.200000000000001,-10.700000000000001,16.4,-5.7,16
782,51832.0,-0.4,1.8,1.8,1.0,6.1000000000000005,10.4,-8.700000000000001,-1.8000000000000003,1.0,16
783,51848.0,-0.2,2.0,2.2,1.2000000000000002,6.300000000000001,10.9,-6.0,-5.300000000000001,4.6,16
784,51868.0,-0.2,2.9000000000000004,2.3000000000000003,1.2000000000000002,7.2,10.9,4.4,15.2,8.2,16
785,51883.0,-0.1,3.5,1.2000000000000002,1.3,7.800000000000001,9.9,-5.8,15.2,1.9,16
786,51899.0,0.2,2.9000000000000004,2.0,1.6,7.2,10.700000000000001,-27.3,-1.0,-5.2,16
787,51916.0,0.4,0.30000000000000004,5.2,1.8,4.5,14.0,-60.8,-23.2,-18.1,16
788,51933.0,-0.5,-0.9,7.4,0.9,3.1,16.2,-36.9,-1.5,-13.100000000000001,16
789,51948.0,-1.1,-0.9,6.800000000000001,0.30000000000000004,3.1,15.600000000000001,-23.5,8.600000000000001,-9.2,16
790,51965.0,-1.5,-0.5,4.0,-0.1,3.4000000000000004,12.9,22.3,25.0,8.600000000000001,16
791,51982.0,-1.2000000000000002,-0.4,2.5,0.1,3.6,11.4,35.5,11.6,18.6,16
792,51999.0,-0.30000000000000004,-0.4,0.9,1.1,3.7,9.700000000000001,35.4,-8.3,24.3,16
793,52018.0,0.6000000000000001,-0.8,0.4,2.0,3.3000000000000003,9.1,23.0,-20.8,23.0,16
794,52034.0,0.4,-1.3,0.0,1.9000000000000001,2.9000000000000004,8.700000000000001,12.5,-3.0,15.8,16
795,52048.0,0.0,-1.4000000000000001,-0.5,1.5,2.8000000000000003,8.200000000000001,11.2,12.9,14.200000000000001,16
796,52073.0,-0.7000000000000001,-1.4000000000000001,-2.0,0.7000000000000001,2.9000000000000004,6.7,12.200000000000001,38.900000000000006,20.3,16
797,52081.0,-0.7000000000000001,-1.4000000000000001,-2.0,0.7000000000000001,2.9000000000000004,6.7,12.200000000000001,38.900000000000006,20.3,16
798,52098.0,-0.5,-1.3,-2.3000000000000003,0.9,3.0,6.4,14.800000000000002,23.6,26.700000000000003,16
799,52122.0,0.0,-1.3,-2.2,1.4000000000000001,3.1,6.5,24.7,-9.899999999999999,29.800000000000004,16
800,52134.0,0.2,-1.3,-2.2,1.6,3.1,6.5,30.1,-12.9,29.300000000000004,16
801,52150.0,0.1,-1.1,-2.5,1.6,3.3000000000000003,6.1000000000000005,38.7,-11.000000000000002,29.0,16
802,52164.0,0.1,-1.1,-2.5,1.7000000000000002,3.4000000000000004,5.9,38.7,-11.000000000000002,29.0,16
803,52184.0,0.1,-0.7000000000000001,-2.9000000000000004,1.7000000000000002,3.9000000000000004,5.6000000000000005,39.699999999999996,-1.7,27.2,16
804,52198.0,0.30000000000000004,-0.4,-2.9000000000000004,1.9000000000000001,4.3,5.5,36.400000000000006,-0.4,25.0,16
805,52215.0,0.5,-0.1,-2.5,2.1,4.6000000000000005,5.9,25.200000000000003,-4.0,15.2,16
806,52231.0,0.4,-0.30000000000000004,-1.6,2.1,4.6000000000000005,6.800000000000001,14.300000000000002,-4.2,2.8,16
807,52256.0,-0.30000000000000004,-0.4,-0.6000000000000001,1.4000000000000001,4.5,7.7,10.9,2.3,-4.800000000000001,16
808,52265.0,-0.30000000000000004,-0.4,-0.6000000000000001,1.2000000000000002,4.5,8.1,11.2,5.7,-5.0,16
809,52282.0,-0.7000000000000001,-0.2,-0.1,1.0,4.7,8.200000000000001,12.100000000000001,8.2,-2.6,16
810,52298.0,-0.5,0.4,-0.1,1.1,5.300000000000001,8.200000000000001,10.5,5.4,-0.9000000000000001,16
811,52316.0,-0.2,0.6000000000000001,0.2,1.4000000000000001,5.5,8.5,0.4,-3.9,-4.1,16
812,52334.0,-0.30000000000000004,1.4000000000000001,0.8,1.4000000000000001,6.300000000000001,9.1,-8.700000000000001,-1.6,-4.6,16
813,52352.0,0.1,1.8,0.5,1.7000000000000002,6.800000000000001,8.8,-12.8,8.100000000000001,-7.400000000000001,16
814,52366.0,0.30000000000000004,2.2,0.2,1.9000000000000001,7.2,8.6,-20.900000000000002,7.1000000000000005,-10.9,16
815,52382.0,1.2000000000000002,1.7000000000000002,1.2000000000000002,2.8000000000000003,6.5,9.5,-48.10000000000001,-5.8,-21.500000000000004,16
816,52398.0,1.2000000000000002,0.5,2.5,2.8000000000000003,5.300000000000001,10.9,-81.8,-20.1,-37.7,16
817,52415.0,0.5,-1.4000000000000001,5.6000000000000005,2.0,3.1,14.200000000000001,-94.5,-5.2,-43.00000000000001,16
818,52435.0,-0.7000000000000001,-2.0,6.2,0.8,2.3000000000000003,14.8,-59.699999999999996,31.6,-24.7,16
819,52453.0,-0.5,-1.8,4.0,0.8,2.3000000000000003,12.700000000000001,-27.099999999999998,44.300000000000004,-4.0,16
820,52465.0,-0.5,-1.8,4.0,0.8,2.3000000000000003,12.700000000000001,-27.099999999999998,44.300000000000004,-4.0,16
821,52485.0,1.2000000000000002,-0.9,0.5,2.5,3.2,9.3,4.800000000000001,1.2000000000000002,28.200000000000003,16
822,52500.0,2.0,-0.7000000000000001,0.30000000000000004,3.2,3.4000000000000004,9.1,3.7000000000000006,-28.0,30.9,16
823,52515.0,2.8000000000000003,-0.6000000000000001,0.4,4.2,3.5,9.200000000000001,0.1,-60.1,26.000000000000004,16
824,52532.0,2.5,-0.6000000000000001,0.0,4.1000000000000005,3.4000000000000004,8.700000000000001,2.5,-46.1,13.100000000000001,16
825,52548.0,2.5,-0.6000000000000001,0.0,3.8000000000000003,3.4000000000000004,8.4,4.6,-28.500000000000004,5.6,16
826,52566.0,1.0,-0.6000000000000001,-1.7000000000000002,2.7,3.5,7.1000000000000005,8.700000000000001,8.2,-3.9,16
827,52582.0,0.5,-0.6000000000000001,-2.1,2.2,3.5,6.6000000000000005,8.3,17.5,-7.1000000000000005,16
828,52603.0,-0.1,-0.5,-2.7,1.5,3.7,6.1000000000000005,7.6,9.4,-7.699999999999999,16
829,52615.0,-0.1,-0.4,-2.7,1.5,3.7,6.0,9.899999999999999,0.30000000000000004,-7.699999999999999,16
830,52634.0,0.0,-0.30000000000000004,-2.8000000000000003,1.6,3.9000000000000004,5.9,17.6,-14.800000000000002,-8.700000000000001,16
831,52650.0,-0.1,-0.2,-3.0,1.6,4.1000000000000005,5.7,22.000000000000004,-18.1,-11.5,16
832,52668.0,-0.2,-0.1,-3.0,1.5,4.2,5.7,20.2,-15.5,-13.3,16
833,52682.0,-0.30000000000000004,0.0,-2.9000000000000004,1.5,4.4,5.800000000000001,13.3,-3.8,-14.5,16
834,52699.0,-0.30000000000000004,0.1,-2.6,1.4000000000000001,4.5,6.0,7.8,1.0,-16.3,16
835,52716.0,-0.4,0.2,-2.0,1.2000000000000002,4.6000000000000005,6.6000000000000005,-2.4000000000000004,10.1,-19.200000000000003,16
836,52732.0,-0.8,0.4,-1.1,0.8,4.800000000000001,7.6000000000000005,-6.8,13.5,-19.9,16
837,52748.0,-1.1,0.5,-0.6000000000000001,0.5,4.9,8.0,-5.500000000000001,14.200000000000001,-18.6,16
838,52765.0,-1.6,0.9,0.0,-0.1,5.300000000000001,8.700000000000001,-0.30000000000000004,14.700000000000001,-10.4,16
839,52788.0,-1.4000000000000001,1.4000000000000001,0.6000000000000001,0.0,5.800000000000001,9.200000000000001,3.6000000000000005,9.700000000000001,0.8,16
840,52799.0,-1.1,1.5,0.8,0.4,5.9,9.5,4.4,5.2,5.0,16
841,52816.0,-0.30000000000000004,1.5,1.6,1.1,6.0,10.200000000000001,1.9,-8.0,10.0,16
842,52833.0,-0.30000000000000004,2.3000000000000003,2.4000000000000004,1.1,6.800000000000001,11.0,3.7000000000000006,-0.9000000000000001,12.5,16
843,52848.0,-0.30000000000000004,2.3000000000000003,2.4000000000000004,1.3,6.800000000000001,10.8,5.8,3.4,12.8,16
844,52868.0,0.2,2.2,1.8,1.7000000000000002,6.7,10.4,-0.4,-2.8,10.1,16
845,52884.0,1.1,0.5,3.7,2.6,5.0,12.4,-26.700000000000003,-24.7,5.2,16
846,52898.0,1.2000000000000002,-0.30000000000000004,4.800000000000001,2.7,4.0,13.5,-32.7,-29.0,2.9,16
847,52917.0,0.8,-1.0,5.6000000000000005,2.5,3.3000000000000003,14.3,-16.1,-15.399999999999999,0.4,16
848,52932.0,-0.1,-0.5,3.2,1.6,3.8000000000000003,11.9,18.200000000000003,13.3,2.2,16
849,52948.0,-0.30000000000000004,-0.30000000000000004,1.8,1.3,4.0,10.4,24.599999999999998,17.6,2.9,16
850,52969.0,-0.4,-0.30000000000000004,0.1,1.2000000000000002,4.1000000000000005,8.8,14.700000000000001,12.4,3.4,16
851,52982.0,-0.30000000000000004,-0.5,-0.2,1.3,3.9000000000000004,8.4,2.8,8.2,4.1,16
852,52998.0,-0.2,-1.0,0.2,1.3,3.4000000000000004,8.9,-18.900000000000002,5.500000000000001,2.8,16
853,53017.0,-0.6000000000000001,-1.3,0.1,1.0,3.0,8.700000000000001,-21.400000000000002,15.899999999999999,4.2,16
854,53033.0,-1.0,-1.4000000000000001,-0.5,0.5,2.9000000000000004,8.200000000000001,-15.100000000000001,26.300000000000004,10.0,16
855,53049.0,-1.0,-1.2000000000000002,-0.9,0.4,3.0,7.800000000000001,-11.000000000000002,27.2,15.2,16
856,53065.0,-0.7000000000000001,-0.9,-1.4000000000000001,0.7000000000000001,3.3000000000000003,7.4,-2.9,14.800000000000002,24.1,16
857,53082.0,-0.4,-0.8,-1.5,1.0,3.4000000000000004,7.300000000000001,0.9000000000000001,3.2,27.5,16
858,53098.0,0.30000000000000004,-0.7000000000000001,-1.4000000000000001,1.8,3.5,7.4,6.300000000000001,-15.5,30.1,16
859,53119.0,0.7000000000000001,-0.6000000000000001,-1.4000000000000001,2.2,3.6,7.300000000000001,11.8,-15.100000000000001,28.1,16
860,53131.0,0.7000000000000001,-0.5,-1.4000000000000001,2.3000000000000003,3.7,7.300000000000001,15.700000000000001,-2.4000000000000004,23.900000000000006,16
861,53149.0,0.7000000000000001,-0.5,-1.4000000000000001,2.2,3.8000000000000003,7.2,17.400000000000002,3.8,21.6,16
862,53171.0,0.30000000000000004,-0.30000000000000004,-1.8,2.0,4.0,6.800000000000001,27.2,5.2,13.399999999999999,16
863,53182.0,0.30000000000000004,-0.30000000000000004,-1.8,2.0,4.0,6.800000000000001,27.2,5.2,13.399999999999999,16
864,53201.0,0.2,-0.2,-2.0,1.8,4.3,6.6000000000000005,31.3,-3.0,8.3,16
865,53220.0,0.0,-0.1,-2.0,1.7000000000000002,4.4,6.6000000000000005,31.9,-4.7,2.4000000000000004,16
866,53231.0,-0.1,-0.1,-1.7000000000000002,1.6,4.5,6.800000000000001,29.200000000000003,-4.7,-1.1,16
867,53251.0,0.1,-0.1,-1.1,1.8,4.5,7.4,20.599999999999998,-12.8,-3.5,16
868,53264.0,0.2,0.0,-0.6000000000000001,1.9000000000000001,4.6000000000000005,7.9,15.2,-14.400000000000002,-5.1000000000000005,16
869,53282.0,0.30000000000000004,0.1,-0.1,2.0,4.7,8.3,10.700000000000001,-13.8,-6.600000000000001,16
870,53298.0,0.4,0.30000000000000004,0.6000000000000001,2.2,5.0,9.0,3.4,-9.600000000000001,-11.000000000000002,16
871,53315.0,-0.1,1.1,1.2000000000000002,1.7000000000000002,5.800000000000001,9.700000000000001,1.6,4.9,-12.5,16
872,53332.0,0.0,1.8,0.1,1.8,6.6000000000000005,8.5,5.7,20.900000000000002,-11.4,16
873,53348.0,0.30000000000000004,2.4000000000000004,-0.5,2.0,7.2,7.9,1.1,17.7,-13.100000000000001,16
874,53366.0,0.6000000000000001,3.0,-0.5,2.7,7.0,9.0,-44.8,-18.900000000000002,-28.1,16
875,53383.0,1.1,-0.8,4.4,2.8000000000000003,3.8000000000000003,12.9,-97.40000000000002,-29.200000000000003,-46.6,16
876,53398.0,0.4,-1.5,6.300000000000001,2.1,3.0,14.9,-104.00000000000001,-12.100000000000001,-48.10000000000001,16
877,53415.0,-0.8,-2.0,6.800000000000001,0.8,2.2,15.600000000000001,-61.0,38.300000000000004,-29.500000000000004,16
878,53434.0,-0.7000000000000001,-1.6,3.8000000000000003,0.7000000000000001,2.5,12.600000000000001,1.8000000000000003,40.7,-2.5,16
879,53451.0,0.4,-0.8,1.1,1.7000000000000002,3.2,9.9,32.9,-3.4,20.7,16
880,53465.0,1.2000000000000002,-0.6000000000000001,0.30000000000000004,2.6,3.5,9.1,34.400000000000006,-32.0,27.0,16
881,53481.0,2.1,-0.5,0.0,3.5,3.7,8.8,28.900000000000002,-55.3,28.500000000000004,16
882,53500.0,2.9000000000000004,-0.30000000000000004,0.1,4.6000000000000005,3.9000000000000004,8.8,13.200000000000003,-67.10000000000001,18.3,16
883,53515.0,2.6,-0.5,-0.5,4.5,3.8000000000000003,8.200000000000001,2.6,-33.0,0.4,16
884,53533.0,1.4000000000000001,-0.6000000000000001,-1.4000000000000001,3.3000000000000003,3.6,7.2,-5.300000000000001,16.6,-17.6,16
885,53548.0,0.7000000000000001,-0.7000000000000001,-1.8,2.6,3.5,6.800000000000001,-7.6,36.0,-23.5,16
886,53565.0,-0.6000000000000001,-0.9,-2.4000000000000004,1.1,3.4000000000000004,6.300000000000001,-7.1000000000000005,48.10000000000001,-25.300000000000004,16
887,53581.0,-1.0,-0.7000000000000001,-2.7,0.5,3.5,6.0,3.1,32.300000000000004,-16.900000000000002,16
888,53598.0,-1.0,-0.5,-2.9000000000000004,0.5,3.7,5.800000000000001,10.1,17.300000000000004,-11.1,16
889,53619.0,-0.5,-0.1,-3.2,0.9,4.2,5.5,21.900000000000002,-12.4,-4.300000000000001,16
890,53636.0,-0.1,0.1,-3.3000000000000003,1.4000000000000001,4.5,5.4,22.700000000000003,-24.8,-7.200000000000001,16
891,53648.0,-0.1,0.2,-3.1,1.4000000000000001,4.6000000000000005,5.5,18.1,-24.0,-10.700000000000001,16
892,53665.0,-0.2,0.1,-2.4000000000000004,1.4000000000000001,4.6000000000000005,6.2,6.699999999999999,-10.5,-16.900000000000002,16
893,53682.0,-0.30000000000000004,0.1,-2.1,1.1,4.5,6.9,-2.4000000000000004,4.800000000000001,-18.5,16
894,53698.0,-0.5,0.1,-1.2000000000000002,1.1,4.6000000000000005,7.4,-4.1,9.899999999999999,-17.200000000000003,16
895,53715.0,-0.5,0.30000000000000004,-0.5,1.0,4.800000000000001,8.1,0.30000000000000004,16.200000000000003,-13.200000000000003,16
896,53733.0,-0.5,0.8,-0.30000000000000004,0.9,5.300000000000001,8.3,12.100000000000001,17.5,-9.100000000000001,16
897,53750.0,-0.8,1.0,-0.5,0.6000000000000001,5.5,8.1,19.9,9.100000000000001,-5.8,16
898,53770.0,-0.6000000000000001,1.2000000000000002,0.0,0.7000000000000001,5.800000000000001,8.5,19.300000000000004,2.8,-1.7,16
899,53782.0,-0.6000000000000001,1.2000000000000002,0.0,0.7000000000000001,5.800000000000001,8.5,19.300000000000004,2.8,-1.7,16
900,53798.0,0.0,1.3,0.6000000000000001,1.3,6.0,9.200000000000001,13.900000000000002,-3.0,3.0,16
901,53815.0,0.1,1.3,1.8,1.5,6.0,10.3,5.0,-4.4,4.300000000000001,16
902,53832.0,-0.5,2.5,2.1,0.9,7.300000000000001,10.600000000000001,6.0,21.300000000000004,6.9,16
903,53849.0,-0.4,2.5,2.1,0.6000000000000001,7.4,10.100000000000001,10.8,31.6,6.0,16
904,53865.0,-0.2,2.6,1.4000000000000001,1.0,7.4,9.9,-6.600000000000001,6.8,7.400000000000001,16
905,53884.0,0.6000000000000001,1.6,2.9000000000000004,2.1,5.4,12.600000000000001,-26.200000000000003,-13.6,4.800000000000001,16
906,53898.0,0.8,-0.1,5.4,2.1,4.5,13.9,-43.70000000000001,-28.700000000000003,-1.2000000000000002,16
907,53916.0,0.1,-0.8,6.1000000000000005,1.4000000000000001,3.8000000000000003,14.600000000000001,-19.700000000000003,-1.2000000000000002,-0.2,16
908,53931.0,-0.9,-0.6000000000000001,3.5,0.4,3.9000000000000004,12.100000000000001,13.900000000000002,22.2,7.300000000000001,16
909,53948.0,-0.9,-0.5,2.2,0.4,4.0,10.9,19.1,19.6,11.4,16
910,53965.0,-0.6000000000000001,-0.8,0.7000000000000001,0.7000000000000001,3.8000000000000003,9.200000000000001,16.0,5.6,18.4,16
911,53983.0,-0.1,-1.1,-0.1,1.2000000000000002,3.5,8.5,4.300000000000001,-6.4,22.6,16
912,53999.0,0.2,-1.3,-0.2,1.6,3.3000000000000003,8.4,-0.5,-8.899999999999999,23.2,16
913,54015.0,0.4,-1.4000000000000001,-0.30000000000000004,1.8,3.1,8.3,-6.0,-2.8,22.3,16
914,54032.0,0.1,-1.4000000000000001,-0.7000000000000001,1.5,3.1,7.9,-3.4,10.200000000000001,22.3,16
915,54048.0,0.0,-1.4000000000000001,-0.9,1.4000000000000001,3.1,7.7,0.1,14.800000000000002,23.0,16
916,54068.0,-0.2,-1.2000000000000002,-1.4000000000000001,1.2000000000000002,3.3000000000000003,7.2,9.899999999999999,15.6,26.1,16
917,54082.0,-0.2,-1.1,-1.7000000000000002,1.2000000000000002,3.5,6.9,15.6,11.900000000000002,27.700000000000003,16
918,54098.0,0.0,-0.8,-2.2,1.4000000000000001,3.8000000000000003,6.4,25.4,-0.30000000000000004,29.400000000000002,16
919,54115.0,0.2,-0.6000000000000001,-2.5,1.6,4.1000000000000005,6.0,31.3,-10.700000000000001,27.5,16
920,54132.0,0.4,-0.5,-2.7,2.0,4.2,5.800000000000001,31.099999999999998,-13.5,22.6,16
921,54161.0,0.5,-0.4,-2.7,2.1,4.4,5.7,25.5,-7.9,15.100000000000001,16
922,54167.0,0.5,-0.30000000000000004,-2.5,2.1,4.5,5.800000000000001,23.800000000000004,-6.2,13.100000000000001,16
923,54182.0,0.2,-0.2,-2.1,1.8,4.7,6.2,18.3,-1.9,4.300000000000001,16
924,54198.0,0.1,-0.2,-1.9000000000000001,1.8,4.7,6.4,15.2,-1.1,-1.3,16
925,54215.0,-0.30000000000000004,-0.2,-1.1,1.4000000000000001,4.800000000000001,7.2,12.600000000000001,-0.7,-6.2,16
926,54231.0,-0.6000000000000001,-0.1,-0.7000000000000001,1.1,4.9,7.6000000000000005,13.5,-0.2,-7.400000000000001,16
927,54248.0,-0.6000000000000001,-0.1,-0.7000000000000001,1.3,5.1000000000000005,7.6000000000000005,13.700000000000001,-2.1,-6.300000000000001,16
928,54265.0,-0.2,0.2,-0.5,1.8,5.4,8.1,11.700000000000001,-6.4,-6.0,16
929,54282.0,0.30000000000000004,0.4,0.2,2.0,5.5,8.5,2.2,-16.0,-8.8,16
930,54300.0,0.6000000000000001,0.30000000000000004,1.1,2.3000000000000003,5.300000000000001,9.3,-10.1,-12.8,-13.900000000000002,16
931,54317.0,0.2,0.4,2.1,1.9000000000000001,5.4,10.4,-16.6,4.2,-16.700000000000003,16
932,54332.0,-0.5,1.9000000000000001,1.0,1.2000000000000002,6.9,9.3,-4.300000000000001,34.300000000000004,-14.600000000000001,16
933,54350.0,-0.5,2.0,0.2,1.1,7.0,8.5,-1.5,35.1,-14.900000000000002,16
934,54367.0,0.1,2.6,-0.4,1.5,7.6000000000000005,7.9,-25.8,-2.6,-15.5,16
935,54381.0,0.8,1.7000000000000002,0.8,2.3000000000000003,6.7,9.1,-50.7,-26.700000000000003,-19.300000000000004,16
936,54405.0,1.1,-1.4000000000000001,5.300000000000001,2.6,3.3000000000000003,13.700000000000001,-78.5,-26.799999999999997,-24.1,16
937,54419.0,0.6000000000000001,-1.8,5.800000000000001,2.2,2.7,14.3,-61.0,-6.300000000000001,-17.300000000000004,16
938,54432.0,-0.4,-1.4000000000000001,4.2,1.2000000000000002,3.0,12.8,-8.5,19.1,1.7,16
939,54452.0,0.1,-1.0,1.7000000000000002,1.6,3.5,10.3,26.200000000000003,2.7,22.8,16
940,54466.0,0.6000000000000001,-0.6000000000000001,0.6000000000000001,2.1,3.8000000000000003,9.200000000000001,33.50000000000001,-12.7,30.599999999999998,16
941,54492.0,2.4000000000000004,-0.2,-0.9,4.1000000000000005,4.4,7.6000000000000005,23.6,-53.10000000000001,29.400000000000002,16
942,54498.0,2.4000000000000004,-0.2,-0.9,4.1000000000000005,4.4,7.6000000000000005,23.6,-53.10000000000001,29.400000000000002,16
943,54515.0,2.5,-0.4,-0.9,4.5,4.2,7.5,5.0,-48.6,10.4,16
944,54532.0,1.7000000000000002,-0.8,-0.9,3.8000000000000003,3.8000000000000003,7.4,-6.9,-12.5,-7.200000000000001,16
945,54549.0,1.2000000000000002,-0.9,-1.2000000000000002,3.3000000000000003,3.7,7.2,-8.700000000000001,6.600000000000001,-12.8,16
946,54566.0,0.1,-0.9,-1.8,2.1,3.7,6.6000000000000005,-5.4,28.600000000000005,-18.8,16
947,54586.0,-0.5,-0.8,-2.5,1.5,3.8000000000000003,6.0,3.0,25.8,-19.9,16
948,54608.0,-0.7000000000000001,-0.6000000000000001,-3.0,1.2000000000000002,4.0,5.5,8.8,14.300000000000002,-18.6,16
949,54615.0,-0.6000000000000001,-0.4,-3.2,1.2000000000000002,4.2,5.300000000000001,11.4,-0.5,-18.1,16
950,54632.0,-0.4,-0.2,-3.3000000000000003,1.4000000000000001,4.4,5.2,10.1,-15.899999999999999,-20.1,16
951,54664.0,-0.1,-0.2,-2.9000000000000004,1.7000000000000002,4.5,6.0,-0.4,-15.8,-25.6,16
952,54683.0,-0.2,-0.2,-1.4000000000000001,1.6,4.5,7.0,-8.3,-5.7,-27.800000000000004,16
953,54699.0,-0.2,-0.2,-0.9,1.6,4.6000000000000005,7.5,-9.4,0.4,-27.2,16
954,54717.0,-0.30000000000000004,-0.1,-0.4,1.5,4.6000000000000005,8.0,-5.0,6.9,-26.799999999999997,16
955,54733.0,-0.9,0.2,-0.5,0.8,5.0,7.9,7.300000000000001,12.9,-23.400000000000002,16
956,54753.0,-1.3,0.8,-1.0,0.30000000000000004,5.6000000000000005,7.4,14.600000000000001,12.100000000000001,-15.899999999999999,16
957,54765.0,-1.3,1.2000000000000002,-1.0,0.2,6.0,7.4,14.100000000000001,8.5,-11.6,16
958,54784.0,-1.1,2.0,-0.5,0.4,6.9,7.800000000000001,4.800000000000001,-2.9,-5.2,16
959,54800.0,-0.9,2.0,0.2,0.7000000000000001,6.9,8.5,-3.2,-9.8,-4.1,16
960,54820.0,-0.30000000000000004,1.5,2.0,1.3,6.4,10.4,-17.200000000000003,-16.3,-1.8000000000000003,16
961,54832.0,-0.6000000000000001,2.3000000000000003,3.7,1.0,7.1000000000000005,12.100000000000001,-13.8,4.5,3.2,16
962,54852.0,-1.0,2.7,2.3000000000000003,0.6000000000000001,7.5,10.8,11.000000000000002,30.9,8.8,16
963,54865.0,-1.0,2.8000000000000003,1.7000000000000002,0.5,7.6000000000000005,10.100000000000001,11.1,25.4,10.0,16
964,54893.0,-0.2,2.0,2.3000000000000003,1.3,6.1000000000000005,11.8,-23.400000000000002,-2.7,6.1000000000000005,16
965,54898.0,-0.2,2.0,2.3000000000000003,1.3,6.1000000000000005,11.8,-23.400000000000002,-2.7,6.1000000000000005,16
966,54915.0,-0.8,0.7000000000000001,4.4,0.7000000000000001,5.4,12.9,-18.900000000000002,10.9,5.0,16
967,54932.0,-1.6,0.8,3.2,-0.1,5.4,11.700000000000001,-8.2,20.400000000000002,5.9,16
968,54952.0,-1.4000000000000001,0.6000000000000001,1.7000000000000002,0.0,5.2,10.200000000000001,4.9,24.1,10.700000000000001,16
969,54965.0,-1.2000000000000002,0.30000000000000004,1.3,0.2,5.0,9.8,-2.8,15.5,11.8,16
970,54985.0,-0.6000000000000001,-0.30000000000000004,0.8,0.8,4.3,9.3,-17.5,7.9,8.0,16
971,55001.0,-0.4,-0.9,0.8,1.0,3.8000000000000003,9.3,-24.7,6.300000000000001,5.1000000000000005,16
972,55015.0,-0.4,-1.7000000000000002,1.1,0.9,2.8000000000000003,9.600000000000001,-30.799999999999997,11.1,1.8000000000000003,16
973,55032.0,-0.7000000000000001,-2.3000000000000003,1.3,0.6000000000000001,2.2,9.9,-16.4,25.0,8.3,16
974,55051.0,-0.7000000000000001,-2.2,0.30000000000000004,0.6000000000000001,2.3000000000000003,9.0,14.300000000000002,31.7,22.3,16
975,55065.0,-0.6000000000000001,-1.9000000000000001,-0.4,0.6000000000000001,2.5,8.3,22.5,30.3,25.5,16
976,55081.0,-0.4,-1.7000000000000002,-1.3,0.7000000000000001,2.7,7.4,42.7,20.3,33.6,16
977,55098.0,0.0,-1.4000000000000001,-2.7,1.1,3.2,5.9,55.2,3.0,39.8,16
978,55115.0,0.30000000000000004,-1.1,-3.2,1.6,3.6,5.300000000000001,54.0,-5.6,40.5,16
979,55137.0,0.6000000000000001,-1.1,-3.2,1.9000000000000001,3.8000000000000003,5.300000000000001,47.3,-8.8,36.6,16
980,55161.0,0.4,-0.8,-2.8000000000000003,1.8,4.1000000000000005,5.5,41.1,-4.4,29.0,16
981,55164.0,0.4,-0.7000000000000001,-2.8000000000000003,1.8,4.3,5.5,39.50000000000001,-1.9,25.8,16
982,55181.0,0.2,-0.6000000000000001,-2.7,1.7000000000000002,4.5,5.6000000000000005,37.1,-1.5,21.8,16
983,55198.0,0.1,-0.30000000000000004,-2.3000000000000003,1.6,4.9,5.9,27.3,-2.7,13.399999999999999,16
984,55220.0,-0.1,-0.1,-1.3,1.4000000000000001,5.1000000000000005,6.800000000000001,13.3,-8.8,5.1000000000000005,16
985,55231.0,-0.30000000000000004,0.0,-0.5,1.2000000000000002,5.300000000000001,7.6000000000000005,4.300000000000001,-10.600000000000001,-1.2000000000000002,16
986,55248.0,-0.4,0.0,-0.5,1.2000000000000002,5.4,7.9,1.3,-10.700000000000001,-3.3000000000000007,16
987,55265.0,-0.4,0.30000000000000004,0.2,1.2000000000000002,5.6000000000000005,8.3,-5.6,-8.899999999999999,-6.4,16
988,55281.0,-0.30000000000000004,0.4,0.4,1.3,5.7,8.5,-9.8,-7.1000000000000005,-7.400000000000001,16
989,55298.0,0.0,0.6000000000000001,0.8,1.6,5.9,8.9,-19.300000000000004,-6.2,-9.4,16
990,55315.0,0.0,0.9,1.4000000000000001,1.6,6.0,9.600000000000001,-27.099999999999998,-5.6,-11.1,16
991,55331.0,-0.2,2.0,1.2000000000000002,1.4000000000000001,7.1000000000000005,9.5,-24.400000000000002,9.600000000000001,-9.4,16
992,55360.0,-0.1,2.5,0.30000000000000004,1.5,7.5,8.6,-31.099999999999998,9.600000000000001,-12.5,16
993,55369.0,0.2,2.3000000000000003,0.6000000000000001,1.7000000000000002,7.300000000000001,8.9,-46.6,0.7,-16.4,16
994,55381.0,0.4,1.5,1.8,2.0,5.1000000000000005,11.600000000000001,-77.7,-6.8,-28.400000000000002,16
995,55399.0,0.2,-0.5,4.4,1.7000000000000002,4.2,12.9,-79.6,2.9,-27.9,16
996,55415.0,-0.5,-1.0,5.1000000000000005,0.9,3.5,13.700000000000001,-48.10000000000001,38.400000000000006,-15.899999999999999,16
997,55436.0,-0.9,-0.7000000000000001,2.9000000000000004,0.4,3.7,11.600000000000001,-3.7000000000000006,42.7,3.0,16
998,55451.0,-0.30000000000000004,-0.5,0.8,0.9,4.0,9.5,17.0,14.600000000000001,17.9,16
999,55469.0,0.30000000000000004,-0.5,0.0,1.5,4.0,8.6,17.9,-4.4,22.6,16
1000,55482.0,1.0,-0.5,-0.5,2.9000000000000004,4.0,8.1,2.8,-39.400000000000006,22.700000000000003,16
1001,55498.0,2.2,-0.7000000000000001,-0.1,3.5,3.8000000000000003,8.5,-8.0,-46.300000000000004,17.799999999999997,16
1002,55515.0,2.3000000000000003,-1.3,0.4,3.7,3.2,9.0,-20.900000000000002,-33.300000000000004,4.5,16
1003,55532.0,1.4000000000000001,-1.7000000000000002,0.7000000000000001,2.9000000000000004,2.7,9.3,-18.6,-0.7,-7.8,16
1004,55553.0,0.2,-1.6,-0.7000000000000001,1.8,2.7,8.0,-5.7,21.900000000000002,-10.1,16
1005,55566.0,-0.2,-1.5,-1.4000000000000001,1.3,2.8000000000000003,7.300000000000001,1.7,27.400000000000002,-8.899999999999999,16
1006,55583.0,-0.5,-1.3,-2.1,1.0,3.1,6.6000000000000005,7.1000000000000005,26.200000000000003,-6.8,16
1007,55598.0,-0.7000000000000001,-1.0,-3.0,0.7000000000000001,3.3000000000000003,5.7,13.3,9.899999999999999,-1.5,16
1008,55616.0,-0.5,-0.8,-3.3000000000000003,0.9,3.6,5.300000000000001,13.900000000000002,-10.200000000000001,3.7000000000000006,16
1009,55632.0,-0.2,-0.5,-3.3000000000000003,1.2000000000000002,3.9000000000000004,5.300000000000001,12.100000000000001,-19.0,4.9,16
1010,55650.0,-0.2,-0.5,-3.3000000000000003,1.3,4.1000000000000005,5.4,10.8,-19.799999999999997,4.0,16
1011,55675.0,-0.1,0.1,-2.7,1.5,4.6000000000000005,5.9,1.4,-11.2,-2.7,16
1012,55681.0,-0.1,0.1,-2.7,1.5,4.6000000000000005,5.9,1.4,-11.2,-2.7,16
1013,55698.0,-0.4,0.4,-1.8,1.2000000000000002,4.9,6.7,-9.899999999999999,-1.5,-9.700000000000001,16
1014,55715.0,-0.8,0.30000000000000004,-0.6000000000000001,0.7000000000000001,4.800000000000001,8.0,-18.200000000000003,9.2,-12.200000000000001,16
1015,55732.0,-1.3,0.7000000000000001,0.2,0.2,5.2,8.8,-13.3,21.0,-8.2,16
1016,55757.0,-1.6,1.3,0.0,-0.2,5.7,8.6,0.4,21.6,-0.7,16
1017,55765.0,-1.6,1.5,-0.2,-0.2,5.9,8.4,4.300000000000001,15.700000000000001,3.1,16
1018,55781.0,-1.4000000000000001,1.8,-0.2,-0.1,6.2,8.4,4.5,8.8,7.0,16
1019,55798.0,-0.6000000000000001,2.1,0.4,0.7000000000000001,6.5,9.1,-3.1,-7.0,13.200000000000003,16
1020,55815.0,0.30000000000000004,1.7000000000000002,1.9000000000000001,1.7000000000000002,6.1000000000000005,10.5,-14.100000000000001,-20.900000000000002,13.3,16
1021,55832.0,0.7000000000000001,1.4000000000000001,3.9000000000000004,2.2,5.7,12.5,-16.4,-18.700000000000003,14.300000000000002,16
1022,55848.0,0.7000000000000001,1.7000000000000002,4.4,2.2,6.1000000000000005,13.100000000000001,-5.4,-2.5,15.899999999999999,16
1023,55866.0,0.30000000000000004,2.6,2.3000000000000003,1.8,7.0,11.0,24.400000000000002,34.300000000000004,12.600000000000001,16
1024,55889.0,0.0,3.1,0.30000000000000004,1.4000000000000001,7.5,9.0,6.2,29.500000000000004,6.699999999999999,16
1025,55902.0,0.30000000000000004,1.4000000000000001,2.5,1.6,5.800000000000001,11.200000000000001,-36.1,10.200000000000001,-1.9,16
1026,55918.0,0.4,0.5,4.1000000000000005,1.7000000000000002,4.800000000000001,12.8,-41.4,4.9,-2.2,16
1027,55931.0,0.2,-0.6000000000000001,5.300000000000001,1.5,3.6,14.100000000000001,-13.200000000000003,9.8,2.7,16
1028,55948.0,0.1,-0.6000000000000001,4.4,1.4000000000000001,3.6,13.200000000000001,-1.4,12.7,5.6,16
1029,55964.0,0.2,-0.2,1.7000000000000002,1.4000000000000001,4.0,10.4,32.7,11.5,13.700000000000001,16
1030,55981.0,0.30000000000000004,-0.30000000000000004,-0.6000000000000001,1.6,4.0,8.1,32.2,3.5,11.6,16
1031,55998.0,0.4,-0.6000000000000001,-1.2000000000000002,1.6,3.8000000000000003,7.5,20.599999999999998,4.4,8.4,16
1032,56015.0,0.2,-1.3,-1.0,1.4000000000000001,3.1,7.7,-12.200000000000001,11.8,0.8,16
1033,56032.0,-0.1,-1.9000000000000001,-0.1,1.1,2.4000000000000004,8.6,-29.200000000000003,24.3,-1.4,16
1034,56052.0,-0.5,-2.1,-0.1,0.7000000000000001,2.2,8.700000000000001,-18.4,24.1,4.0,16
1035,56065.0,-0.5,-2.1,-0.1,0.5,2.1,8.5,-7.699999999999999,18.4,8.899999999999999,16
1036,56082.0,-0.6000000000000001,-1.9000000000000001,-0.7000000000000001,0.5,2.3000000000000003,8.1,4.6,10.600000000000001,14.900000000000002,16
1037,56098.0,-0.30000000000000004,-1.5,-1.7000000000000002,0.8,2.7,7.1000000000000005,28.400000000000002,-5.7,26.000000000000004,16
1038,56115.0,-0.1,-1.2000000000000002,-2.6,1.0,3.1,6.1000000000000005,41.0,-14.800000000000002,31.0,16
1039,56135.0,0.0,-1.0,-3.1,1.3,3.4000000000000004,5.6000000000000005,40.2,-15.299999999999999,31.2,16
1040,56149.0,0.0,-1.0,-3.0,1.3,3.7,5.5,37.0,-13.700000000000001,30.599999999999998,16
1041,56165.0,0.0,-0.6000000000000001,-3.1,1.4000000000000001,3.9000000000000004,5.6000000000000005,33.800000000000004,-10.299999999999999,29.400000000000002,16
1042,56184.0,0.1,-0.30000000000000004,-2.8000000000000003,1.5,4.3,5.7,27.0,-5.1000000000000005,24.1,16
1043,56198.0,0.1,-0.1,-2.5,1.6,4.6000000000000005,6.0,18.5,-6.699999999999999,14.800000000000002,16
1044,56215.0,-0.2,-0.30000000000000004,-1.0,1.3,4.4,7.5,5.500000000000001,-14.200000000000001,5.7,16
1045,56232.0,-0.1,-0.30000000000000004,0.1,1.4000000000000001,4.4,8.6,1.9,-9.899999999999999,4.1,16
1046,56248.0,-0.1,-0.1,0.30000000000000004,1.5,4.6000000000000005,8.8,4.300000000000001,-3.7000000000000006,3.7000000000000006,16
1047,56266.0,-0.1,0.30000000000000004,0.0,1.5,5.1000000000000005,8.4,5.9,3.4,0.1,16
1048,56284.0,0.0,0.6000000000000001,-0.30000000000000004,1.6,5.4,8.200000000000001,-1.8000000000000003,-0.4,-5.300000000000001,16
1049,56297.0,0.2,0.7000000000000001,-0.2,1.7000000000000002,5.4,8.3,-8.4,-5.6,-7.400000000000001,16
1050,56315.0,0.5,0.4,1.0,2.1,5.2,9.4,-22.3,-19.300000000000004,-10.9,16
1051,56331.0,0.5,0.9,2.1,2.2,5.5,10.600000000000001,-23.2,-17.200000000000003,-8.2,16
1052,56349.0,0.9,1.1,1.9000000000000001,2.5,5.7,10.4,-16.8,-8.5,-6.9,16
1053,56374.0,1.5,1.7000000000000002,0.7000000000000001,3.2,6.2,9.200000000000001,-34.60000000000001,-20.599999999999998,-21.200000000000003,16
1054,56381.0,1.5,1.7000000000000002,0.7000000000000001,3.2,6.2,9.200000000000001,-34.60000000000001,-20.599999999999998,-21.200000000000003,16
1055,56398.0,1.3,0.1,2.7,3.0,4.5,11.3,-70.3,-15.5,-38.800000000000004,16
1056,56416.0,0.1,-1.0,4.6000000000000005,1.8,3.3000000000000003,13.3,-72.10000000000001,18.8,-40.6,16
1057,56432.0,-1.1,-0.8,4.1000000000000005,0.4,3.2,12.9,-47.80000000000001,38.800000000000004,-30.3,16
1058,56448.0,-1.3,-0.8,3.2,0.2,3.2,12.100000000000001,-28.700000000000003,38.900000000000006,-21.0,16
1059,56465.0,-0.9,-0.6000000000000001,1.2000000000000002,0.4,3.3000000000000003,10.100000000000001,-5.1000000000000005,9.8,-0.9000000000000001,16
1060,56482.0,-0.4,-0.7000000000000001,0.7000000000000001,0.9,3.3000000000000003,9.5,-3.1,-10.200000000000001,8.2,16
1061,56500.0,1.2000000000000002,-0.7000000000000001,0.7000000000000001,2.6,3.2,9.600000000000001,-6.600000000000001,-37.0,19.1,16
1062,56515.0,1.8,-0.5,0.4,3.4000000000000004,3.4000000000000004,9.3,-2.6,-38.50000000000001,15.6,16
1063,56532.0,1.6,-0.4,-0.4,3.3000000000000003,3.4000000000000004,8.4,4.7,-19.700000000000003,7.8,16
1064,56548.0,1.4000000000000001,-0.4,-1.0,3.1,3.5,7.9,8.3,-6.1000000000000005,3.9,16
1065,56569.0,0.8,-0.30000000000000004,-2.2,2.5,3.6,6.6000000000000005,14.100000000000001,14.600000000000001,-4.0,16
1066,56583.0,0.1,-0.2,-3.2,1.8,3.7,5.6000000000000005,19.300000000000004,20.5,-9.8,16
1067,56599.0,-0.2,-0.2,-3.6,1.4000000000000001,3.8000000000000003,5.300000000000001,21.0,17.6,-12.0,16
1068,56616.0,-0.5,-0.2,-4.0,1.0,3.8000000000000003,4.800000000000001,24.0,5.6,-13.3,16
1069,56633.0,-0.6000000000000001,-0.2,-4.1000000000000005,0.9,3.9000000000000004,4.7,24.7,-10.1,-14.5,16
1070,56651.0,-0.5,-0.2,-3.6,1.0,4.0,5.1000000000000005,21.7,-20.2,-14.600000000000001,16
1071,56665.0,-0.6000000000000001,-0.2,-3.6,1.2000000000000002,4.3,5.300000000000001,20.2,-20.599999999999998,-14.900000000000002,16
1072,56685.0,-0.30000000000000004,0.4,-3.1,1.3,4.7,5.5,11.6,-18.1,-21.7,16
1073,56700.0,-0.30000000000000004,0.4,-2.9000000000000004,1.3,4.7,5.800000000000001,3.4,-13.5,-26.799999999999997,16
1074,56715.0,-0.6000000000000001,0.30000000000000004,-1.9000000000000001,1.1,4.7,6.7,-14.0,-3.4,-34.400000000000006,16
1075,56733.0,-1.1,-0.1,-0.30000000000000004,0.4,4.3,8.3,-23.0,8.3,-35.0,16
1076,56752.0,-1.6,0.4,0.5,-0.1,4.6000000000000005,9.200000000000001,-13.200000000000003,17.7,-22.5,16
1077,56765.0,-1.5,0.7000000000000001,0.5,-0.1,5.0,9.200000000000001,-5.7,14.100000000000001,-15.000000000000002,16
1078,56782.0,-1.3,1.1,0.30000000000000004,0.1,5.4,9.0,-1.0,5.4,-9.2,16
1079,56798.0,-0.5,1.7000000000000002,0.5,0.9,6.0,9.200000000000001,-6.699999999999999,-16.700000000000003,-3.3000000000000007,16
1080,56816.0,0.2,1.7000000000000002,1.8,1.7000000000000002,6.0,10.5,-24.1,-28.900000000000002,-5.2,16
1081,56831.0,0.1,2.0,3.8000000000000003,1.6,6.2,12.5,-31.3,-8.4,-4.6,16
1082,56848.0,0.1,2.2,4.2,1.6,6.4,12.9,-28.600000000000005,2.6,-3.9,16
1083,56869.0,-0.2,2.8000000000000003,3.4000000000000004,1.2000000000000002,6.9,12.200000000000001,-18.200000000000003,22.700000000000003,-3.7000000000000006,16
1084,56882.0,0.0,2.1,3.7,1.4000000000000001,6.2,12.5,-25.0,13.399999999999999,-5.4,16
1085,56898.0,0.4,0.4,5.5,1.8,4.3,14.4,-41.0,-4.6,-8.3,16
1086,56915.0,-0.1,-0.6000000000000001,6.1000000000000005,1.3,3.2,15.100000000000001,-24.400000000000002,-0.9000000000000001,-6.699999999999999,16
1087,56931.0,-0.8,-0.4,3.6,0.6000000000000001,3.4000000000000004,12.600000000000001,13.6,12.600000000000001,2.1,16
1088,56948.0,-1.0,-0.2,2.2,0.4,3.6,11.100000000000001,23.099999999999998,12.9,6.1000000000000005,16
1089,56966.0,-1.0,-0.2,0.2,0.30000000000000004,3.6,9.1,19.700000000000003,8.0,11.000000000000002,16
1090,56981.0,-1.0,-0.4,-0.30000000000000004,0.30000000000000004,3.5,8.6,8.100000000000001,6.4,12.100000000000001,16
1091,57005.0,-0.7000000000000001,-1.1,0.4,0.6000000000000001,2.8000000000000003,9.3,-27.3,5.7,14.200000000000001,16
1092,57015.0,-0.8,-1.4000000000000001,0.8,0.5,2.4000000000000004,9.700000000000001,-29.900000000000006,6.300000000000001,14.100000000000001,16
1093,57033.0,-1.2000000000000002,-1.8,1.1,0.1,1.9000000000000001,10.0,-20.599999999999998,10.600000000000001,18.3,16
1094,57049.0,-1.2000000000000002,-1.8,0.8,0.1,1.8,9.8,-11.000000000000002,14.200000000000001,23.2,16
1095,57072.0,-1.2000000000000002,-1.7000000000000002,-0.30000000000000004,0.2,2.1,7.9,17.799999999999997,14.700000000000001,39.8,16
1096,57083.0,-1.1,-1.5,-1.1,0.30000000000000004,2.2,7.4,17.799999999999997,14.700000000000001,39.8,16
1097,57099.0,-0.7000000000000001,-1.4000000000000001,-2.0,0.6000000000000001,2.3000000000000003,6.9,26.9,7.0,47.80000000000001,16
1098,57115.0,-0.4,-1.2000000000000002,-2.6,1.0,2.6,6.4,31.400000000000002,4.800000000000001,51.2,16
1099,57132.0,-0.2,-1.0,-3.0,1.2000000000000002,2.8000000000000003,5.9,35.3,2.7,49.6,16
1100,57148.0,-0.30000000000000004,-1.2000000000000002,-3.0,1.1,2.7,5.9,37.9,0.4,47.400000000000006,16
1101,57166.0,-0.5,-1.2000000000000002,-3.1,1.0,2.8000000000000003,5.7,45.099999999999994,-5.1000000000000005,46.50000000000001,16
1102,57184.0,-0.30000000000000004,-1.1,-3.4000000000000004,1.2000000000000002,3.0,5.300000000000001,49.800000000000004,-10.5,47.5,16
1103,57204.0,-0.2,-0.9,-3.4000000000000004,1.7000000000000002,3.5,5.5,44.300000000000004,-13.3,46.1,16
1104,57218.0,0.2,-0.4,-2.9000000000000004,2.0,3.9000000000000004,5.800000000000001,40.2,-12.600000000000001,43.300000000000004,16
1105,57232.0,0.5,0.30000000000000004,-2.5,2.4000000000000004,4.7,6.1000000000000005,29.0,-7.0,33.7,16
1106,57248.0,0.5,0.30000000000000004,-2.5,2.5,5.0,6.300000000000001,20.0,-3.5,26.200000000000003,16
1107,57265.0,0.9,0.9,-1.5,2.8000000000000003,5.4,7.0,5.2,1.0,13.900000000000002,16
1108,57283.0,0.9,1.2000000000000002,-0.6000000000000001,2.8000000000000003,5.6000000000000005,7.9,-13.399999999999999,6.4,-1.6,16
1109,57299.0,0.9,1.1,0.0,2.8000000000000003,5.5,8.5,-24.7,7.8,-10.9,16
1110,57315.0,1.0,0.9,1.1,2.9000000000000004,5.2,9.600000000000001,-34.50000000000001,7.9,-16.0,16
1111,57331.0,0.8,1.5,1.9000000000000001,2.7,5.7,10.600000000000001,-33.6,13.6,-16.1,16
1112,57348.0,0.9,2.3000000000000003,1.5,2.7,6.5,10.200000000000001,-26.6,23.3,-14.700000000000001,16
1113,57365.0,1.5,3.2,0.1,3.2,7.4,8.8,-25.0,20.7,-15.700000000000001,16
1114,57382.0,2.2,3.4000000000000004,0.6000000000000001,3.8000000000000003,7.5,9.4,-43.900000000000006,0.7,-20.0,16
1115,57400.0,3.1,0.8,4.0,4.800000000000001,4.800000000000001,12.9,-94.80000000000001,-38.900000000000006,-40.5,16
1116,57416.0,2.7,-1.4000000000000001,7.0,4.4,2.2,15.9,-106.20000000000002,-27.400000000000002,-46.9,16
1117,57432.0,1.7000000000000002,-2.0,6.4,3.4000000000000004,1.4000000000000001,15.5,-63.500000000000014,16.900000000000002,-36.8,16
1118,57450.0,0.9,-1.8,3.8000000000000003,2.5,1.5,12.9,-16.3,27.400000000000002,-22.9,16
1119,57464.0,0.8,-1.7000000000000002,2.4000000000000004,2.4000000000000004,1.5,11.600000000000001,-1.6,19.5,-13.6,16
1120,57488.0,1.6,-1.3,0.4,3.0,1.9000000000000001,9.5,9.700000000000001,-4.5,5.2,16
1121,57498.0,2.0,-1.1,-0.2,3.5,2.1,9.0,9.8,-18.700000000000003,9.8,16
1122,57515.0,2.4000000000000004,-0.9,-0.8,4.0,2.3000000000000003,8.3,8.100000000000001,-34.400000000000006,7.8,16
1123,57531.0,1.9000000000000001,-0.6000000000000001,-1.7000000000000002,3.6,2.7,7.4,6.9,-19.400000000000002,-2.4000000000000004,16
1124,57548.0,1.5,-0.6000000000000001,-2.2,3.2,2.7,6.9,6.2,-5.8,-8.600000000000001,16
1125,57565.0,0.30000000000000004,-0.5,-3.2,2.1,2.8000000000000003,5.9,3.6000000000000005,16.4,-17.5,16
1126,57582.0,-0.30000000000000004,-0.5,-3.5,1.4000000000000001,2.8000000000000003,5.6000000000000005,1.6,20.7,-19.6,16
1127,57598.0,-1.1,-0.4,-3.5,0.5,2.9000000000000004,5.6000000000000005,-0.2,16.200000000000003,-18.3,16
1128,57615.0,-1.2000000000000002,-0.30000000000000004,-3.3000000000000003,0.4,3.1,5.800000000000001,4.5,1.9,-11.3,16
1129,57632.0,-0.7000000000000001,0.0,-3.1,0.9,3.4000000000000004,6.0,11.000000000000002,-13.3,-8.100000000000001,16
1130,57657.0,-0.4,0.2,-2.7,1.2000000000000002,3.6,6.300000000000001,15.399999999999999,-18.8,-11.8,16
1131,57665.0,-0.30000000000000004,0.30000000000000004,-2.6,1.3,3.7,6.4,16.900000000000002,-17.0,-14.300000000000002,16
1132,57681.0,-0.1,0.4,-2.6,1.5,3.9000000000000004,6.4,17.0,-12.9,-17.6,16
1133,57699.0,0.0,0.6000000000000001,-2.5,1.6,4.1000000000000005,6.5,11.2,-3.2,-27.2,16
1134,57719.0,-0.2,0.4,-2.0,1.3,4.0,6.9,0.8,10.299999999999999,-33.800000000000004,16
1135,57731.0,-0.5,0.30000000000000004,-1.4000000000000001,1.0,3.9000000000000004,7.6000000000000005,-2.9,24.599999999999998,-35.599999999999994,16
1136,57749.0,-0.6000000000000001,0.4,-1.3,0.8,4.0,7.7,-2.1,27.0,-35.3,16
1137,57765.0,-0.8,0.5,-1.3,0.5,4.4,7.800000000000001,5.1000000000000005,24.5,-31.0,16
1138,57785.0,-0.8,1.3,-0.9,0.4,5.0,8.1,10.600000000000001,5.1000000000000005,-25.6,16
1139,57799.0,-0.6000000000000001,1.4000000000000001,-0.6000000000000001,0.6000000000000001,5.0,8.4,10.5,-4.7,-22.8,16
1140,57815.0,0.30000000000000004,1.2000000000000002,0.5,1.5,4.9,9.5,1.8000000000000003,-14.0,-16.200000000000003,16
1141,57832.0,0.8,0.7000000000000001,2.5,2.0,4.4,11.4,-12.9,-9.4,-15.399999999999999,16
1142,57849.0,0.7000000000000001,0.8,3.3000000000000003,1.9000000000000001,4.5,12.3,-13.100000000000001,5.0,-15.700000000000001,16
1143,57868.0,-0.5,2.0,2.2,0.6000000000000001,5.7,11.200000000000001,18.6,59.40000000000001,-11.3,16
