,ms,accelX,accelY,accelZ,accelWithGX,accelWithGY,accelWithGZ,rotRateAlpha,rotRateBeta,rotRateGamma,interval
0,103.0,-0.1,0.0,0.0,-0.1,2.1,9.600000000000001,3.1,-0.7,1.0,16
1,118.0,0.0,0.0,-0.1,-0.1,2.2,9.5,2.0,0.1,0.2,16
2,135.0,-0.1,0.1,-0.1,-0.1,2.2,9.5,0.5,-0.4,-0.2,16
3,152.0,0.0,0.1,-0.2,0.0,2.2,9.4,-1.7,0.4,0.2,16
4,168.0,0.1,0.0,-0.1,0.0,2.2,9.4,-2.3000000000000003,1.8,0.1,16
5,185.0,-0.1,0.0,-0.1,-0.2,2.2,9.4,-0.5,3.4,0.2,16
6,202.0,-0.2,0.1,0.0,-0.4,2.3000000000000003,9.5,0.8,2.5,0.2,16
7,218.0,-0.2,0.1,0.0,-0.4,2.4000000000000004,9.5,-0.1,-0.7,0.2,16
8,235.0,-0.2,0.2,0.1,-0.4,2.4000000000000004,9.600000000000001,-0.7,-2.5,0.30000000000000004,16
9,252.0,-0.1,0.1,0.1,-0.2,2.4000000000000004,9.600000000000001,0.1,-2.7,0.30000000000000004,16
10,268.0,0.0,0.1,0.0,-0.2,2.3000000000000003,9.600000000000001,0.6000000000000001,-1.6,-0.6000000000000001,16
11,285.0,0.0,0.0,0.0,-0.2,2.3000000000000003,9.5,0.6000000000000001,-0.6000000000000001,-1.3,16
12,302.0,-0.1,0.0,0.0,-0.30000000000000004,2.2,9.5,-0.30000000000000004,0.6000000000000001,-1.8,16
13,318.0,-0.2,-0.1,0.0,-0.4,2.2,9.600000000000001,-1.9,-0.30000000000000004,-1.2000000000000002,16
14,335.0,-0.1,-0.1,0.0,-0.30000000000000004,2.1,9.600000000000001,-2.8,-1.2000000000000002,-0.5,16
15,352.0,-0.1,-0.1,0.1,-0.2,2.1,9.600000000000001,-2.6,-1.3,0.2,16
16,368.0,0.0,-0.2,0.1,-0.1,2.1,9.600000000000001,-0.6000000000000001,-0.7,0.5,16
17,385.0,0.1,-0.1,0.0,-0.1,2.1,9.5,1.8,1.4,0.30000000000000004,16
18,402.0,-0.1,0.0,0.0,-0.30000000000000004,2.2,9.5,2.6,1.9,0.0,16
19,418.0,-0.2,0.1,0.0,-0.4,2.3000000000000003,9.5,2.3000000000000003,0.30000000000000004,0.6000000000000001,16
20,435.0,-0.2,0.1,0.0,-0.4,2.3000000000000003,9.600000000000001,1.5000000000000002,-1.7,1.5000000000000002,16
21,452.0,-0.1,0.1,0.0,-0.30000000000000004,2.3000000000000003,9.5,0.7,-2.9,1.7,16
22,468.0,0.0,0.1,-0.1,-0.1,2.4000000000000004,9.4,-0.1,-2.7,0.9,16
23,485.0,0.2,0.2,-0.2,0.0,2.5,9.4,-0.9,-0.5,0.0,16
24,502.0,0.0,0.30000000000000004,0.0,-0.1,2.6,9.5,-0.30000000000000004,1.4,-0.4,16
25,518.0,0.0,0.30000000000000004,0.1,-0.1,2.5,9.600000000000001,1.5000000000000002,1.2000000000000002,-1.2000000000000002,16
26,535.0,0.1,0.2,0.1,-0.1,2.5,9.600000000000001,2.1,-0.6000000000000001,-2.5,16
27,552.0,0.0,0.1,0.0,-0.2,2.4000000000000004,9.5,3.1,-2.5,-3.7000000000000006,16
28,568.0,0.0,0.1,-0.1,-0.2,2.4000000000000004,9.4,3.1,-3.2,-3.9,16
29,585.0,0.0,0.1,-0.2,-0.2,2.4000000000000004,9.3,2.5,-3.0000000000000004,-3.7000000000000006,16
30,602.0,0.0,0.1,-0.1,-0.2,2.4000000000000004,9.4,0.30000000000000004,-2.3000000000000003,-3.9,16
31,618.0,0.0,0.0,-0.1,-0.1,2.3000000000000003,9.4,-2.4000000000000004,-3.7000000000000006,-4.5,16
32,635.0,0.1,0.0,0.0,-0.1,2.3000000000000003,9.5,-4.2,-4.2,-4.9,16
33,652.0,0.2,0.0,-0.1,0.1,2.3000000000000003,9.4,-3.3000000000000003,-3.3000000000000003,-5.4,16
34,668.0,0.2,0.0,-0.1,0.1,2.3000000000000003,9.3,-2.6,-1.8,-7.0,16
35,685.0,0.30000000000000004,0.1,-0.2,0.2,2.4000000000000004,9.3,-3.8,-2.7,-9.1,16
36,702.0,0.5,0.1,-0.1,0.4,2.4000000000000004,9.4,-5.7,-4.0,-11.5,16
37,718.0,0.6000000000000001,0.2,0.0,0.6000000000000001,2.5,9.4,-8.4,-4.9,-14.0,16
38,735.0,0.8,0.2,-0.1,0.8,2.5,9.4,-10.8,-5.7,-16.5,16
39,752.0,1.0,0.2,-0.1,1.1,2.4000000000000004,9.4,-12.4,-4.3999999999999995,-19.3,16
40,768.0,1.0,0.2,-0.1,1.1,2.5,9.4,-12.9,-2.8,-22.4,16
41,785.0,1.1,0.4,-0.2,1.1,2.6,9.3,-13.4,-1.7,-26.200000000000003,16
42,802.0,0.7000000000000001,0.5,-0.2,0.9,2.7,9.3,-15.399999999999999,-3.0000000000000004,-29.500000000000004,16
43,818.0,0.8,0.5,-0.2,1.0,2.6,9.3,-18.7,-5.2,-32.800000000000004,16
44,835.0,0.8,0.4,-0.1,1.0,2.5,9.4,-19.400000000000002,-6.1000000000000005,-37.1,16
45,852.0,0.7000000000000001,0.30000000000000004,0.1,0.9,2.4000000000000004,9.600000000000001,-16.8,-6.8,-40.8,16
46,868.0,0.4,0.2,0.2,0.7000000000000001,2.3000000000000003,9.8,-12.5,-8.5,-43.800000000000004,16
47,885.0,0.30000000000000004,0.1,0.30000000000000004,0.5,2.2,9.8,-8.5,-11.8,-45.6,16
48,902.0,0.1,0.1,0.2,0.4,2.2,9.8,-4.2,-14.900000000000002,-45.5,16
49,918.0,0.1,0.1,0.0,0.5,2.2,9.5,-1.4,-13.6,-44.9,16
50,935.0,0.0,0.2,0.0,0.30000000000000004,2.2,9.600000000000001,-1.4,-15.000000000000002,-42.6,16
51,952.0,-0.1,0.2,0.1,0.2,2.2,9.700000000000001,-2.5,-17.8,-39.2,16
52,968.0,-0.1,0.1,0.2,0.30000000000000004,2.2,9.700000000000001,-1.8,-17.400000000000002,-35.5,16
53,986.0,-0.2,0.0,0.1,0.1,2.1,9.600000000000001,1.4,-14.0,-32.9,16
54,1002.0,-0.5,0.0,0.0,-0.1,2.1,9.5,2.4000000000000004,-12.100000000000001,-31.3,16
55,1018.0,-0.6000000000000001,0.1,-0.1,-0.30000000000000004,2.2,9.5,0.9,-10.700000000000001,-31.0,16
56,1035.0,-0.7000000000000001,0.2,-0.1,-0.30000000000000004,2.3000000000000003,9.4,-1.0999999999999999,-9.600000000000001,-30.100000000000005,16
57,1052.0,-0.6000000000000001,0.1,-0.2,-0.30000000000000004,2.2,9.4,-4.2,-7.2,-29.300000000000004,16
58,1068.0,-0.7000000000000001,0.2,-0.1,-0.4,2.2,9.4,-6.4,-4.800000000000001,-27.6,16
59,1085.0,-0.6000000000000001,0.1,-0.1,-0.4,2.2,9.5,-7.400000000000001,-2.8,-25.8,16
60,1102.0,-0.5,0.1,0.1,-0.30000000000000004,2.2,9.700000000000001,-8.1,-1.7,-25.1,16
61,1118.0,-0.4,0.1,0.30000000000000004,-0.2,2.2,9.8,-9.1,-1.8,-25.1,16
62,1135.0,-0.30000000000000004,0.1,0.30000000000000004,-0.1,2.2,9.9,-10.3,-1.0999999999999999,-24.200000000000003,16
63,1152.0,-0.1,0.2,0.2,0.1,2.2,9.700000000000001,-10.3,2.9,-21.6,16
64,1168.0,0.0,0.30000000000000004,0.0,0.0,2.3000000000000003,9.600000000000001,-9.4,8.5,-18.0,16
65,1185.0,-0.1,0.4,0.0,-0.1,2.4000000000000004,9.700000000000001,-8.700000000000001,10.1,-13.700000000000001,16
66,1202.0,-0.1,0.5,0.2,0.0,2.5,9.8,-7.500000000000001,8.3,-10.2,16
67,1218.0,0.2,0.4,0.1,0.2,2.4000000000000004,9.8,-4.5,6.5,-8.600000000000001,16
68,1235.0,0.1,0.4,0.0,0.1,2.4000000000000004,9.600000000000001,-0.4,4.5,-7.8,16
69,1252.0,0.1,0.4,-0.2,0.0,2.5,9.5,2.1999999999999997,2.4000000000000004,-6.9,16
70,1268.0,-0.1,0.4,-0.2,0.0,2.5,9.5,2.1999999999999997,2.4000000000000004,-6.9,16
71,1285.0,-0.2,0.30000000000000004,-0.2,-0.30000000000000004,2.4000000000000004,9.4,4.2,-1.7,-1.3,16
72,1302.0,-0.30000000000000004,0.30000000000000004,-0.2,-0.30000000000000004,2.4000000000000004,9.4,6.1000000000000005,-4.800000000000001,2.1999999999999997,16
73,1318.0,-0.2,0.2,-0.2,-0.2,2.3000000000000003,9.4,8.600000000000001,-7.2,4.9,16
74,1335.0,-0.2,0.0,-0.2,-0.2,2.2,9.3,10.5,-9.3,5.9,16
75,1352.0,-0.2,-0.1,-0.2,-0.2,2.1,9.5,10.1,-12.5,6.7,16
76,1368.0,-0.2,-0.1,0.1,-0.1,2.1,9.600000000000001,8.3,-15.2,8.200000000000001,16
77,1385.0,-0.1,-0.4,0.30000000000000004,0.0,1.9000000000000001,9.8,7.0,-16.900000000000002,9.9,16
78,1402.0,-0.1,-0.5,0.4,0.0,1.8,10.100000000000001,6.000000000000001,-17.7,10.700000000000001,16
79,1418.0,-0.30000000000000004,-0.5,0.7000000000000001,-0.1,1.8,10.3,7.699999999999999,-17.9,12.200000000000001,16
80,1435.0,-0.1,-0.5,0.7000000000000001,0.2,1.8,10.4,12.100000000000001,-16.3,13.0,16
81,1452.0,0.0,-0.5,0.6000000000000001,0.30000000000000004,1.8,10.200000000000001,17.1,-12.000000000000002,12.700000000000001,16
82,1468.0,0.0,-0.5,0.4,0.30000000000000004,1.8,10.0,23.0,-4.300000000000001,11.8,16
83,1485.0,-0.30000000000000004,-0.6000000000000001,0.1,-0.1,1.8,9.700000000000001,29.800000000000004,3.1,10.4,16
84,1502.0,-0.5,-0.6000000000000001,0.1,-0.30000000000000004,1.8,9.700000000000001,31.900000000000002,3.3000000000000003,9.200000000000001,16
85,1518.0,-0.5,-0.6000000000000001,0.0,-0.2,1.9000000000000001,9.600000000000001,28.200000000000003,-2.6,6.6000000000000005,16
86,1535.0,-0.30000000000000004,-0.7000000000000001,0.0,-0.1,1.8,9.600000000000001,18.8,-11.6,2.8,16
87,1552.0,-0.30000000000000004,-0.7000000000000001,-0.1,0.1,1.8,9.5,7.0,-15.000000000000002,0.4,16
88,1568.0,-0.30000000000000004,-0.6000000000000001,-0.1,0.0,1.9000000000000001,9.5,3.4,-8.9,3.2,16
89,1585.0,-0.30000000000000004,-0.4,0.0,0.0,2.1,9.5,7.699999999999999,1.3,9.3,16
90,1602.0,-0.2,-0.4,0.0,0.30000000000000004,2.1,9.600000000000001,12.3,5.300000000000001,10.5,16
91,1618.0,0.1,-0.4,0.1,0.2,2.1,9.600000000000001,13.6,5.1,5.7,16
92,1635.0,-0.4,-0.4,-0.2,-0.1,2.1,9.3,14.600000000000001,4.3999999999999995,1.6,16
93,1652.0,-0.4,-0.30000000000000004,-0.30000000000000004,-0.1,2.4000000000000004,9.0,14.100000000000001,3.5,-2.7,16
94,1668.0,-0.5,0.0,-0.7000000000000001,-0.4,2.6,8.700000000000001,9.700000000000001,3.0000000000000004,-7.1000000000000005,16
95,1685.0,-0.8,0.1,-0.8,-0.6000000000000001,2.6,8.700000000000001,1.0,1.4,-9.0,16
96,1702.0,-0.8,0.0,-0.7000000000000001,-0.6000000000000001,2.6,8.700000000000001,-7.2,-0.7,-10.8,16
97,1718.0,-0.6000000000000001,-0.1,-0.6000000000000001,-0.5,2.4000000000000004,8.9,-11.2,1.9,-13.5,16
98,1735.0,-0.6000000000000001,-0.2,-0.4,-0.5,2.4000000000000004,9.0,-13.3,4.5,-17.200000000000003,16
99,1752.0,-0.6000000000000001,-0.1,-0.30000000000000004,-0.6000000000000001,2.4000000000000004,9.1,-15.299999999999999,6.000000000000001,-19.8,16
100,1768.0,-0.6000000000000001,-0.1,-0.30000000000000004,-0.6000000000000001,2.4000000000000004,9.200000000000001,-17.7,9.8,-19.9,16
101,1785.0,-0.30000000000000004,-0.1,-0.1,-0.4,2.3000000000000003,9.4,-17.599999999999998,13.3,-21.0,16
102,1802.0,-0.4,-0.1,-0.1,-0.5,2.2,9.4,-14.3,18.1,-22.5,16
103,1818.0,-0.4,0.0,-0.1,-0.7000000000000001,2.3000000000000003,9.3,-10.9,19.3,-23.400000000000002,16
104,1835.0,-0.6000000000000001,0.1,-0.1,-0.9,2.4000000000000004,9.4,-8.9,16.1,-24.6,16
105,1852.0,-0.6000000000000001,0.2,0.0,-1.0,2.5,9.5,-7.0,9.0,-25.1,16
106,1868.0,-0.5,0.30000000000000004,0.0,-0.9,2.5,9.4,-5.0,2.9,-25.8,16
107,1885.0,-0.30000000000000004,0.30000000000000004,-0.2,-0.7000000000000001,2.5,9.200000000000001,-2.9,-0.8,-27.1,16
108,1902.0,-0.1,0.30000000000000004,-0.5,-0.6000000000000001,2.6,8.9,-1.4,0.5,-28.200000000000003,16
109,1918.0,-0.2,0.4,-0.7000000000000001,-0.8,2.7,8.700000000000001,-1.7,4.2,-28.500000000000004,16
110,1935.0,-0.4,0.6000000000000001,-0.6000000000000001,-1.0,2.9000000000000004,8.8,-4.5,0.7,-28.400000000000002,16
111,1952.0,-0.4,0.7000000000000001,-0.2,-1.0,3.0,9.200000000000001,-7.300000000000001,-6.6000000000000005,-27.900000000000002,16
112,1968.0,0.0,0.7000000000000001,0.1,-0.6000000000000001,3.0,9.700000000000001,-5.500000000000001,-12.100000000000001,-31.099999999999998,16
113,1985.0,-0.30000000000000004,0.4,0.2,-1.0,2.5,9.5,-0.4,-16.1,-29.800000000000004,16
114,2002.0,-0.1,0.0,0.0,-0.6000000000000001,2.3000000000000003,9.4,3.6,-13.4,-26.9,16
115,2018.0,0.30000000000000004,0.1,-0.2,-0.30000000000000004,2.6,9.1,4.0,-14.3,-32.1,16
116,2036.0,-0.1,0.5,-0.2,-0.7000000000000001,3.0,9.200000000000001,1.6,-9.700000000000001,-30.7,16
117,2052.0,-0.30000000000000004,0.7000000000000001,0.0,-0.8,3.1,9.4,-1.3,-5.8,-25.400000000000002,16
118,2068.0,-0.30000000000000004,0.7000000000000001,0.1,-0.9,3.0,9.700000000000001,-3.9,-4.7,-23.1,16
119,2085.0,-0.4,0.5,0.6000000000000001,-1.2000000000000002,2.8000000000000003,10.100000000000001,-1.6,-4.1000000000000005,-23.2,16
120,2102.0,-0.7000000000000001,0.30000000000000004,0.9,-1.4000000000000001,2.7,10.4,4.800000000000001,-3.3000000000000003,-22.5,16
121,2118.0,-0.7000000000000001,0.30000000000000004,1.1,-1.4000000000000001,2.7,10.600000000000001,11.4,-6.4,-22.5,16
122,2135.0,-0.6000000000000001,0.2,1.1,-1.3,2.7,10.600000000000001,14.900000000000002,-9.200000000000001,-23.1,16
123,2152.0,-0.6000000000000001,0.0,1.1,-1.3,2.5,10.600000000000001,11.9,-13.5,-23.0,16
124,2168.0,-0.5,-0.1,1.1,-0.9,2.2,10.600000000000001,5.2,-15.399999999999999,-22.1,16
125,2185.0,-0.2,-0.4,1.1,-0.8,2.1,10.700000000000001,1.8,-11.9,-20.3,16
126,2206.0,-0.1,-0.6000000000000001,1.2000000000000002,-0.7000000000000001,1.9000000000000001,10.700000000000001,0.4,-8.3,-18.1,16
127,2219.0,0.1,-0.7000000000000001,1.3,-0.5,1.8,10.8,-0.5,-6.5,-16.0,16
128,2235.0,0.30000000000000004,-0.8,1.5,-0.2,1.7000000000000002,11.100000000000001,-0.1,-8.0,-15.000000000000002,16
129,2252.0,0.8,-0.9,1.6,0.2,1.6,11.100000000000001,-0.2,-11.2,-16.700000000000003,16
130,2269.0,0.9,-1.0,1.5,0.5,1.5,10.9,1.3,-13.4,-19.1,16
131,2285.0,1.2000000000000002,-0.9,1.1,0.8,1.6,10.5,6.6000000000000005,-11.1,-21.0,16
132,2302.0,1.4000000000000001,-0.9,0.7000000000000001,0.9,1.6,10.100000000000001,11.000000000000002,-8.700000000000001,-24.000000000000004,16
133,2319.0,1.4000000000000001,-0.8,0.1,0.9,1.8,9.700000000000001,12.000000000000002,-4.2,-27.2,16
134,2336.0,1.3,-0.7000000000000001,0.1,0.7000000000000001,1.9000000000000001,9.600000000000001,8.200000000000001,-3.3000000000000003,-28.900000000000002,16
135,2352.0,1.1,-0.5,-0.1,0.6000000000000001,2.0,9.4,2.1999999999999997,-4.7,-28.8,16
136,2368.0,1.1,-0.4,-0.2,0.6000000000000001,2.2,9.4,-1.0,-3.3000000000000003,-27.3,16
137,2385.0,1.1,-0.4,-0.30000000000000004,0.4,2.2,9.200000000000001,-2.3000000000000003,-2.1,-27.5,16
138,2402.0,0.6000000000000001,-0.4,-0.4,0.1,2.1,9.1,-3.5,-3.7000000000000006,-26.9,16
139,2419.0,0.6000000000000001,-0.4,-0.4,0.1,2.1,9.1,-4.2,-8.4,-28.500000000000004,16
140,2436.0,0.5,-0.30000000000000004,-0.4,-0.1,2.2,9.1,-4.1000000000000005,-14.4,-31.4,16
141,2452.0,0.5,-0.30000000000000004,-0.7000000000000001,0.1,2.2,8.8,-5.0,-18.2,-34.400000000000006,16
142,2469.0,0.4,0.0,-1.0,0.0,2.4000000000000004,8.5,-7.699999999999999,-21.8,-35.9,16
143,2485.0,0.2,-0.4,-1.4000000000000001,0.0,1.9000000000000001,7.800000000000001,-10.4,-12.5,-31.900000000000002,16
144,2502.0,0.6000000000000001,-0.4,-1.7000000000000002,0.2,2.1,7.800000000000001,-15.100000000000001,-4.7,-34.400000000000006,16
145,2519.0,0.6000000000000001,-0.1,-1.8,-0.1,2.3000000000000003,7.800000000000001,-20.3,-3.2,-38.2,16
146,2536.0,0.0,0.0,-1.6,-0.5,2.2,7.9,-25.3,-0.1,-37.0,16
147,2553.0,-0.1,-0.30000000000000004,-1.5,-0.5,1.8,8.1,-29.300000000000004,1.2000000000000002,-33.5,16
148,2576.0,0.1,-0.1,-1.1,-0.30000000000000004,2.0,8.700000000000001,-29.500000000000004,-5.9,-34.800000000000004,16
149,2585.0,0.2,0.0,-0.9,-0.30000000000000004,2.0,8.700000000000001,-29.500000000000004,-5.9,-34.800000000000004,16
150,2602.0,0.4,0.0,-0.9,-0.1,2.0,8.6,-25.700000000000003,-8.200000000000001,-35.0,16
151,2618.0,0.5,0.2,-1.2000000000000002,0.0,2.0,8.5,-24.1,-7.0,-34.7,16
152,2635.0,0.5,0.4,-1.2000000000000002,0.0,2.1,8.4,-23.2,-5.1,-32.7,16
153,2652.0,0.6000000000000001,0.5,-1.0,0.1,2.2,8.700000000000001,-23.700000000000003,-4.5,-30.799999999999997,16
154,2669.0,0.6000000000000001,0.5,-0.8,0.2,2.2,8.8,-21.5,-2.5,-28.900000000000002,16
155,2686.0,0.6000000000000001,0.4,-0.8,0.1,2.1,8.700000000000001,-15.5,3.1,-28.3,16
156,2702.0,0.2,0.4,-0.8,-0.5,2.1,8.8,-7.6,4.1000000000000005,-27.6,16
157,2719.0,-0.2,0.6000000000000001,-0.6000000000000001,-0.7000000000000001,2.2,8.8,-1.8,-1.0999999999999999,-25.1,16
158,2735.0,-0.1,0.6000000000000001,-0.5,-0.6000000000000001,2.2,8.9,-0.9,-7.0,-24.1,16
159,2752.0,0.0,0.30000000000000004,-0.30000000000000004,-0.4,2.1,9.4,-2.1,-11.000000000000002,-23.2,16
160,2768.0,-0.1,0.30000000000000004,0.4,-0.6000000000000001,2.0,9.9,2.0,-9.200000000000001,-22.4,16
161,2785.0,-0.2,0.30000000000000004,0.6000000000000001,-0.6000000000000001,1.9000000000000001,10.100000000000001,8.200000000000001,-10.4,-21.900000000000002,16
162,2805.0,-0.2,0.1,0.6000000000000001,-0.6000000000000001,1.8,10.100000000000001,5.6,-12.5,-24.5,16
163,2820.0,-0.2,0.2,0.8,-0.6000000000000001,1.9000000000000001,10.3,-0.5,-15.399999999999999,-24.6,16
164,2836.0,-0.2,0.4,0.9,-0.6000000000000001,2.1,10.4,-3.0000000000000004,-11.5,-21.700000000000003,16
165,2852.0,-0.30000000000000004,0.4,1.0,-0.9,2.0,10.9,-1.2000000000000002,-3.9,-19.200000000000003,16
166,2872.0,-0.7000000000000001,0.30000000000000004,1.8,-1.1,1.9000000000000001,11.5,-3.5,-8.0,-18.3,16
167,2885.0,-0.6000000000000001,0.2,2.5,-0.9,1.8,12.100000000000001,-11.5,-19.1,-17.7,16
168,2903.0,-0.30000000000000004,0.2,2.6,-0.6000000000000001,1.8,12.200000000000001,-16.3,-21.1,-16.900000000000002,16
169,2919.0,-0.4,0.1,2.7,-0.6000000000000001,1.6,12.4,-15.2,-18.3,-16.1,16
170,2935.0,-0.4,0.2,3.0,-0.5,1.7000000000000002,12.700000000000001,-13.0,-16.900000000000002,-14.700000000000001,16
171,2952.0,-0.1,0.30000000000000004,3.3000000000000003,-0.30000000000000004,1.8,13.3,-7.9,-20.3,-14.100000000000001,16
172,2968.0,-0.1,0.0,3.6,0.2,1.3,13.100000000000001,-4.0,-18.8,-11.000000000000002,16
173,2985.0,1.3,-0.30000000000000004,3.0,1.3,1.1,12.600000000000001,-1.0999999999999999,-15.399999999999999,-15.299999999999999,16
174,3002.0,1.2000000000000002,-0.6000000000000001,1.8,1.1,0.9,11.600000000000001,8.5,1.7,-17.8,16
175,3018.0,1.0,-0.5,1.3,0.9,1.0,10.8,22.1,20.5,-12.8,16
176,3035.0,0.7000000000000001,-0.5,0.6000000000000001,0.5,1.1,10.200000000000001,32.5,32.9,-8.5,16
177,3052.0,0.5,-0.7000000000000001,0.0,0.2,1.0,9.700000000000001,35.199999999999996,41.0,-3.9,16
178,3069.0,0.4,-0.8,-0.1,0.0,1.0,9.600000000000001,36.1,40.2,-1.9,16
179,3085.0,0.5,-1.1,0.1,0.0,0.8,9.700000000000001,37.7,33.900000000000006,-2.5,16
180,3102.0,0.8,-1.3,0.1,0.30000000000000004,0.7000000000000001,9.700000000000001,38.1,24.400000000000002,-6.1000000000000005,16
181,3118.0,0.9,-1.3,-0.1,0.30000000000000004,0.8,9.3,38.5,20.5,-10.1,16
182,3135.0,0.9,-1.3,-0.6000000000000001,0.2,1.0,8.9,36.2,16.1,-12.9,16
183,3152.0,1.0,-1.2000000000000002,-0.9,0.30000000000000004,1.1,8.700000000000001,27.0,8.4,-14.600000000000001,16
184,3173.0,1.2000000000000002,-1.2000000000000002,-1.3,0.5,1.1,8.3,12.6,1.5000000000000002,-16.900000000000002,16
185,3185.0,1.2000000000000002,-1.3,-1.4000000000000001,0.4,1.0,8.0,-2.1999999999999997,-1.6,-18.400000000000002,16
186,3202.0,0.8,-1.3,-1.8,0.0,1.0,7.7,-13.200000000000001,-1.8,-17.1,16
187,3219.0,0.5,-1.1,-1.9000000000000001,-0.5,1.2000000000000002,7.6000000000000005,-18.1,0.8,-12.100000000000001,16
188,3235.0,-0.1,-0.8,-1.9000000000000001,-0.9,1.3,7.5,-18.0,2.3000000000000003,-4.9,16
189,3252.0,-0.4,-0.6000000000000001,-2.0,-1.2000000000000002,1.4000000000000001,7.5,-16.400000000000002,0.2,0.5,16
190,3276.0,-0.6000000000000001,-0.5,-2.0,-1.3,1.5,7.5,-16.3,-6.1000000000000005,2.9,16
191,3285.0,-0.7000000000000001,-0.4,-1.9000000000000001,-1.4000000000000001,1.6,7.6000000000000005,-17.599999999999998,-12.5,3.2,16
192,3302.0,-0.8,-0.30000000000000004,-1.7000000000000002,-1.5,1.6,7.800000000000001,-18.0,-18.2,3.1,16
193,3319.0,-0.8,-0.2,-1.5,-1.3,1.8,8.200000000000001,-15.100000000000001,-18.5,3.8,16
194,3336.0,-0.7000000000000001,0.1,-1.0,-1.2000000000000002,2.0,8.5,-10.1,-14.800000000000002,5.1,16
195,3352.0,-0.5,0.2,-0.8,-1.0,2.0,8.700000000000001,-6.8,-8.5,4.800000000000001,16
196,3372.0,-0.5,0.2,-0.5,-1.1,2.0,9.0,-9.0,-3.0000000000000004,1.8,16
197,3388.0,-0.7000000000000001,0.30000000000000004,-0.30000000000000004,-1.3,2.2,9.200000000000001,-13.3,3.8,-0.4,16
198,3403.0,-0.9,0.5,0.0,-1.5,2.2,9.600000000000001,-15.2,12.6,0.0,16
199,3419.0,-1.3,0.5,0.5,-1.9000000000000001,2.2,10.0,-14.0,20.3,2.1,16
200,3435.0,-1.4000000000000001,0.5,0.8,-2.2,2.1,10.5,-12.5,22.2,3.2,16
201,3452.0,-1.6,0.4,1.4000000000000001,-2.4000000000000004,2.1,11.0,-10.8,19.6,3.7000000000000006,16
202,3469.0,-1.5,0.4,1.9000000000000001,-2.3000000000000003,2.1,11.4,-7.699999999999999,17.7,5.2,16
203,3492.0,-1.4000000000000001,0.4,2.2,-2.3000000000000003,2.1,11.8,-0.1,15.299999999999999,8.799999999999999,16
204,3503.0,-1.1,0.4,2.2,-1.9000000000000001,2.0,11.700000000000001,9.600000000000001,15.5,11.8,16
205,3519.0,-0.9,0.4,2.2,-1.6,2.0,11.700000000000001,18.3,20.0,13.3,16
206,3535.0,-0.5,0.2,2.2,-1.5,2.1,11.700000000000001,24.7,23.8,13.3,16
207,3552.0,-0.4,0.4,2.1,-1.5,2.3000000000000003,11.600000000000001,31.7,27.400000000000002,14.200000000000001,16
208,3569.0,-0.2,0.5,1.9000000000000001,-1.4000000000000001,2.5,11.5,36.7,28.500000000000004,14.200000000000001,16
209,3589.0,0.4,0.5,1.9000000000000001,-0.9,2.6,11.4,31.0,17.9,10.3,16
210,3607.0,0.6000000000000001,0.30000000000000004,1.9000000000000001,-0.5,2.4000000000000004,11.4,16.3,4.9,7.300000000000001,16
211,3623.0,1.3,0.30000000000000004,1.9000000000000001,0.1,2.4000000000000004,11.5,3.4,-1.7,7.2,16
212,3635.0,1.5,0.1,1.8,0.4,2.0,11.100000000000001,-0.4,-1.7,8.4,16
213,3652.0,1.8,-0.5,1.2000000000000002,0.7000000000000001,1.5,10.600000000000001,0.1,4.2,10.0,16
214,3669.0,1.9000000000000001,-0.9,0.7000000000000001,0.7000000000000001,1.2000000000000002,10.200000000000001,3.8,13.200000000000001,8.9,16
215,3711.0,1.6,-1.5,0.0,0.30000000000000004,0.8,9.700000000000001,10.2,19.700000000000003,1.5000000000000002,16
216,3718.0,1.5,-1.6,-0.2,0.2,0.6000000000000001,9.3,11.4,13.9,-3.4,16
217,3735.0,1.5,-1.7000000000000002,-0.4,0.2,0.5,8.8,9.0,2.1,-8.600000000000001,16
218,3752.0,1.4000000000000001,-1.6,-1.0,0.1,0.6000000000000001,8.4,3.9,-11.6,-13.200000000000001,16
219,3768.0,1.4000000000000001,-1.5,-1.2000000000000002,0.1,0.6000000000000001,8.4,3.9,-11.6,-13.200000000000001,16
220,3785.0,1.2000000000000002,-1.1,-1.5,-0.4,1.2000000000000002,7.9,-6.7,-26.200000000000003,-15.2,16
221,3802.0,0.30000000000000004,-0.7000000000000001,-1.6,-0.9,1.5,7.9,-11.000000000000002,-30.000000000000004,-9.4,16
222,3819.0,0.0,-0.5,-1.7000000000000002,-1.0,1.6,7.9,-16.400000000000002,-36.0,-1.4,16
223,3835.0,0.2,-0.4,-1.6,-0.6000000000000001,1.6,8.0,-20.3,-40.5,4.3999999999999995,16
224,3852.0,-0.1,-0.9,-1.6,-0.9,1.1,8.0,-21.6,-39.300000000000004,11.700000000000001,16
225,3868.0,0.2,-0.6000000000000001,-1.4000000000000001,-0.4,1.4000000000000001,8.1,-19.200000000000003,-37.5,17.8,16
226,3885.0,0.6000000000000001,-0.30000000000000004,-1.6,0.30000000000000004,1.6,8.0,-15.000000000000002,-27.1,15.399999999999999,16
227,3902.0,0.9,-0.1,-1.5,0.30000000000000004,1.7000000000000002,8.1,-12.200000000000001,-15.299999999999999,7.699999999999999,16
228,3918.0,0.0,-0.4,-1.5,-0.6000000000000001,1.4000000000000001,8.0,-10.8,-6.7,5.6,16
229,3935.0,-0.30000000000000004,-0.5,-1.5,-0.8,1.3,8.0,-11.2,-1.9,8.5,16
230,3952.0,-0.2,-0.4,-1.5,-0.9,1.3,8.1,-13.3,-1.3,8.5,16
231,3969.0,-0.8,-0.4,-1.3,-1.2000000000000002,1.3,8.200000000000001,-15.6,3.8,10.8,16
232,3991.0,-0.8,-0.4,-1.3,-1.2000000000000002,1.3,8.200000000000001,-15.6,3.8,10.8,16
233,4002.0,-1.2000000000000002,-0.1,-0.9,-1.6,1.6,8.9,-23.8,0.6000000000000001,17.3,16
234,4018.0,-1.0,0.1,-0.4,-1.4000000000000001,1.6,9.3,-28.1,-3.2,19.8,16
235,4035.0,-0.8,0.1,0.1,-1.3,1.5,9.600000000000001,-31.8,-6.6000000000000005,19.9,16
236,4052.0,-0.8,0.1,0.30000000000000004,-1.1,1.5,10.200000000000001,-29.300000000000004,-3.4,20.8,16
237,4068.0,-0.5,0.2,1.0,-0.9,1.5,10.700000000000001,-18.5,0.8,24.9,16
238,4087.0,0.0,0.1,1.4000000000000001,-0.4,1.4000000000000001,11.0,-2.6,6.000000000000001,28.0,16
239,4102.0,0.30000000000000004,0.0,1.3,-0.1,1.3,10.9,9.3,6.6000000000000005,25.6,16
240,4118.0,0.5,0.2,1.3,0.1,1.7000000000000002,10.9,15.5,6.5,21.0,16
241,4135.0,0.8,0.5,1.3,0.30000000000000004,1.9000000000000001,10.9,17.3,6.2,16.2,16
242,4152.0,0.7000000000000001,0.6000000000000001,1.3,0.4,2.1,10.9,16.5,7.2,13.6,16
243,4168.0,1.0,0.7000000000000001,1.2000000000000002,0.5,2.2,10.8,15.2,8.3,10.0,16
244,4185.0,1.0,0.8,1.4000000000000001,0.4,2.4000000000000004,11.0,11.2,8.700000000000001,7.8,16
245,4202.0,0.8,1.0,1.5,0.0,2.8000000000000003,11.3,6.000000000000001,8.4,8.600000000000001,16
246,4219.0,0.0,1.5,2.0,-0.5,3.1,11.700000000000001,3.6,6.1000000000000005,13.5,16
247,4236.0,0.30000000000000004,1.4000000000000001,2.5,-0.2,2.9000000000000004,12.100000000000001,-0.1,3.8,14.3,16
248,4253.0,0.2,0.8,2.4000000000000004,-0.30000000000000004,2.4000000000000004,12.100000000000001,-6.000000000000001,3.1,9.3,16
249,4269.0,0.1,0.7000000000000001,2.7,-0.4,2.1,12.4,-10.0,0.0,5.0,16
250,4289.0,0.1,0.30000000000000004,2.8000000000000003,-0.4,1.8,12.5,-8.3,0.6000000000000001,2.5,16
251,4303.0,0.4,-0.30000000000000004,2.4000000000000004,-0.1,1.3,12.200000000000001,-0.2,5.300000000000001,1.7,16
252,4321.0,1.0,-0.8,1.4000000000000001,0.30000000000000004,0.8,11.4,9.3,10.3,-1.0999999999999999,16
253,4335.0,1.1,-1.0,1.0,0.5,0.6000000000000001,10.600000000000001,17.400000000000002,14.4,-3.2,16
254,4352.0,1.0,-1.2000000000000002,0.30000000000000004,0.4,0.5,10.0,26.0,16.3,-3.3000000000000003,16
255,4369.0,1.0,-1.2000000000000002,0.0,0.4,0.5,9.5,35.9,16.400000000000002,-2.8,16
256,4387.0,1.2000000000000002,-1.3,-0.7000000000000001,0.5,0.5,8.9,43.300000000000004,15.000000000000002,-3.4,16
257,4405.0,1.3,-1.4000000000000001,-1.4000000000000001,0.6000000000000001,0.6000000000000001,8.200000000000001,45.9,12.100000000000001,-5.1,16
258,4419.0,1.2000000000000002,-1.3,-1.7000000000000002,0.30000000000000004,0.8,7.800000000000001,42.7,7.8,-6.000000000000001,16
259,4435.0,0.8,-1.2000000000000002,-2.0,0.1,1.1,7.5,35.4,0.9,-5.0,16
260,4452.0,0.8,-1.0,-2.2,0.1,1.3,7.300000000000001,23.2,-7.699999999999999,-3.8,16
261,4468.0,0.7000000000000001,-1.0,-2.1,0.1,1.3,7.7,6.4,-18.7,-2.1,16
262,4485.0,1.0,-1.0,-1.5,0.5,1.2000000000000002,8.1,-8.0,-30.100000000000005,-1.6,16
263,4502.0,1.4000000000000001,-1.0,-1.2000000000000002,0.9,1.2000000000000002,8.4,-16.900000000000002,-34.50000000000001,-2.7,16
264,4519.0,1.3,-0.9,-1.1,0.8,1.2000000000000002,8.5,-22.7,-32.5,-3.5,16
265,4535.0,1.0,-0.8,-0.8,0.6000000000000001,1.3,8.700000000000001,-24.8,-28.500000000000004,-1.8,16
266,4552.0,0.8,-0.8,-0.6000000000000001,0.6000000000000001,1.2000000000000002,8.9,-21.8,-24.400000000000002,-0.7,16
267,4569.0,0.8,-0.9,-0.5,0.7000000000000001,1.0,9.0,-15.299999999999999,-21.900000000000002,-2.1999999999999997,16
268,4586.0,0.9,-0.9,-0.6000000000000001,0.6000000000000001,1.1,9.0,-5.8,-15.8,-6.1000000000000005,16
269,4605.0,0.4,-0.7000000000000001,-0.7000000000000001,0.30000000000000004,1.3,8.8,3.7000000000000006,-10.600000000000001,-9.9,16
270,4619.0,0.2,-0.5,-0.9,-0.1,1.5,8.5,10.2,-6.5,-12.5,16
271,4635.0,-0.30000000000000004,-0.4,-1.3,-0.5,1.6,8.200000000000001,11.9,-3.6,-15.000000000000002,16
272,4652.0,-0.6000000000000001,-0.30000000000000004,-1.4000000000000001,-0.7000000000000001,1.7000000000000002,8.1,9.8,-4.1000000000000005,-17.8,16
273,4669.0,-0.7000000000000001,-0.30000000000000004,-1.3,-0.8,1.7000000000000002,8.1,6.2,-4.6000000000000005,-20.6,16
274,4685.0,-0.8,-0.30000000000000004,-1.3,-1.0,1.7000000000000002,8.200000000000001,2.4000000000000004,0.4,-22.6,16
275,4702.0,-1.1,-0.1,-1.3,-1.3,1.9000000000000001,8.200000000000001,1.0,4.3999999999999995,-22.900000000000002,16
276,4719.0,-1.6,-0.1,-1.2000000000000002,-1.8,1.9000000000000001,8.3,-1.6,6.3,-22.2,16
277,4735.0,-1.9000000000000001,-0.1,-1.2000000000000002,-2.1,2.0,8.4,-6.6000000000000005,7.1000000000000005,-15.5,16
278,4752.0,-1.7000000000000002,0.1,-0.6000000000000001,-1.9000000000000001,2.1,8.9,-11.1,7.300000000000001,-13.6,16
279,4769.0,-1.6,0.2,-0.4,-1.9000000000000001,2.2,9.3,-15.9,2.1999999999999997,-17.0,16
280,4789.0,-1.5,0.2,0.5,-1.8,2.1,9.9,-18.8,-4.2,-22.3,16
281,4802.0,-1.6,0.1,0.7000000000000001,-1.8,1.9000000000000001,10.3,-21.1,-9.600000000000001,-17.599999999999998,16
282,4818.0,-1.0,0.0,1.4000000000000001,-1.3,1.8,10.9,-19.400000000000002,-9.5,-10.0,16
283,4835.0,-0.5,-0.1,1.5,-0.6000000000000001,1.6,11.0,-13.4,-7.699999999999999,-6.1000000000000005,16
284,4852.0,-0.4,-0.1,1.5,-0.7000000000000001,1.6,11.0,-5.7,2.0,-3.8,16
285,4868.0,-0.9,0.2,1.4000000000000001,-1.2000000000000002,1.9000000000000001,11.0,3.6,12.3,-0.8,16
286,4885.0,-1.2000000000000002,0.4,1.4000000000000001,-1.7000000000000002,2.2,11.0,7.1000000000000005,16.700000000000003,1.0999999999999999,16
287,4902.0,-1.7000000000000002,0.6000000000000001,1.7000000000000002,-2.1,2.3000000000000003,11.5,1.7,9.0,0.5,16
288,4918.0,-1.3,0.7000000000000001,2.5,-1.7000000000000002,2.4000000000000004,12.100000000000001,-14.4,-12.9,0.6000000000000001,16
289,4935.0,-0.5,0.7000000000000001,2.8000000000000003,-0.30000000000000004,2.3000000000000003,12.700000000000001,-28.400000000000002,-19.6,3.6,16
290,4952.0,0.5,0.4,3.1,0.2,1.8,12.8,-26.8,-17.200000000000003,3.8,16
291,4968.0,0.4,0.0,2.8000000000000003,0.1,1.5,12.5,-14.4,-8.600000000000001,5.0,16
292,4985.0,0.5,0.0,2.4000000000000004,0.4,1.5,11.700000000000001,-1.4,0.1,5.6,16
293,5002.0,0.5,0.0,1.6,0.30000000000000004,1.5,11.3,4.0,6.3,5.4,16
294,5019.0,0.5,0.0,1.5,0.30000000000000004,1.5,11.3,4.0,6.3,5.4,16
295,5035.0,0.8,0.0,1.4000000000000001,1.0,1.5,11.100000000000001,3.1,-1.4,2.0,16
296,5052.0,1.7000000000000002,-0.1,1.2000000000000002,1.7000000000000002,1.3,10.600000000000001,6.9,-3.0000000000000004,-4.3999999999999995,16
297,5069.0,2.3000000000000003,-0.4,0.1,2.1,1.2000000000000002,9.8,9.4,-0.1,-13.5,16
298,5086.0,2.2,-0.30000000000000004,-0.7000000000000001,2.0,1.3,9.1,6.2,2.8,-21.1,16
299,5102.0,2.2,-0.30000000000000004,-1.1,1.8,1.3,8.5,-7.2,-0.4,-25.1,16
300,5119.0,1.7000000000000002,-0.2,-1.3,1.4000000000000001,1.3,8.5,-22.000000000000004,-6.3,-24.7,16
301,5135.0,1.3,-0.2,-0.9,1.1,1.2000000000000002,8.8,-30.200000000000003,-12.3,-21.3,16
302,5152.0,1.0,-0.30000000000000004,-0.7000000000000001,0.8,1.1,9.3,-30.299999999999997,-19.400000000000002,-16.700000000000003,16
303,5169.0,0.7000000000000001,-0.1,-0.1,0.7000000000000001,1.2000000000000002,9.600000000000001,-24.5,-25.0,-10.1,16
304,5185.0,0.9,0.0,-0.2,0.9,1.3,9.600000000000001,-14.600000000000001,-28.200000000000003,-4.9,16
305,5202.0,0.9,0.0,-0.4,1.0,1.2000000000000002,9.3,-6.2,-26.200000000000003,-5.500000000000001,16
306,5218.0,0.7000000000000001,0.1,-0.7000000000000001,0.9,1.4000000000000001,9.0,0.9,-21.3,-9.5,16
307,5235.0,0.30000000000000004,0.4,-1.2000000000000002,0.5,1.6,8.6,8.4,-12.6,-12.8,16
308,5252.0,0.1,0.5,-1.3,0.2,1.8,8.3,13.3,-2.3000000000000003,-13.700000000000001,16
309,5269.0,-0.30000000000000004,0.7000000000000001,-1.6,-0.2,1.9000000000000001,8.1,15.2,4.5,-14.100000000000001,16
310,5285.0,-0.5,0.6000000000000001,-1.9000000000000001,-0.30000000000000004,1.9000000000000001,7.800000000000001,15.2,8.600000000000001,-15.5,16
311,5302.0,-0.5,0.5,-2.1,-0.5,1.9000000000000001,7.6000000000000005,14.0,10.8,-18.1,16
312,5319.0,-0.9,0.5,-2.2,-0.8,1.9000000000000001,7.4,12.5,9.9,-19.0,16
313,5335.0,-0.9,0.4,-2.3000000000000003,-0.8,1.9000000000000001,7.300000000000001,10.0,11.4,-17.9,16
314,5352.0,-0.9,0.5,-2.2,-1.0,2.0,7.5,8.0,11.8,-14.900000000000002,16
315,5369.0,-1.1,0.4,-2.0,-1.2000000000000002,1.9000000000000001,7.7,8.600000000000001,10.8,-10.4,16
316,5385.0,-1.0,0.4,-1.5,-1.0,2.0,8.1,8.700000000000001,8.700000000000001,-6.2,16
317,5402.0,-0.8,0.4,-1.2000000000000002,-0.7000000000000001,2.0,8.700000000000001,7.0,8.4,-3.7000000000000006,16
318,5419.0,-0.7000000000000001,0.5,-0.6000000000000001,-0.8,2.1,9.1,8.5,10.5,-1.8,16
319,5435.0,-0.6000000000000001,0.6000000000000001,0.0,-0.7000000000000001,2.2,9.600000000000001,10.700000000000001,10.0,-0.30000000000000004,16
320,5452.0,-0.30000000000000004,0.5,0.2,-0.30000000000000004,2.2,9.9,8.0,9.8,-2.3000000000000003,16
321,5469.0,-0.1,0.6000000000000001,0.5,-0.4,2.3000000000000003,10.100000000000001,5.4,12.000000000000002,-5.2,16
322,5485.0,-0.1,0.6000000000000001,0.9,-0.30000000000000004,2.3000000000000003,10.5,3.5,11.8,-6.5,16
323,5502.0,0.30000000000000004,0.5,1.1,0.30000000000000004,2.1,10.8,-2.3000000000000003,6.7,-8.200000000000001,16
324,5519.0,1.1,0.2,1.3,1.0,1.8,10.8,-6.8,6.000000000000001,-10.5,16
325,5535.0,1.4000000000000001,-0.1,1.2000000000000002,0.9,1.6,10.700000000000001,-6.2,13.9,-11.8,16
326,5552.0,0.9,0.1,1.1,-0.1,2.1,10.9,-1.2000000000000002,26.400000000000002,-7.6,16
327,5569.0,-0.4,0.7000000000000001,1.7000000000000002,-1.0,2.4000000000000004,11.600000000000001,4.800000000000001,21.8,-0.4,16
328,5585.0,-0.4,0.6000000000000001,2.7,-0.7000000000000001,2.2,12.5,2.1,4.7,4.3999999999999995,16
329,5602.0,0.6000000000000001,0.2,3.4000000000000004,0.2,1.9000000000000001,13.100000000000001,-6.000000000000001,-14.0,1.3,16
330,5619.0,1.0,-0.2,3.3000000000000003,0.7000000000000001,1.4000000000000001,12.700000000000001,-7.9,-19.1,-4.7,16
331,5635.0,1.0,-0.4,2.3000000000000003,0.5,1.3,11.8,-0.7,-4.800000000000001,-5.4,16
332,5653.0,0.2,0.0,1.2000000000000002,-0.2,1.6,10.9,10.0,12.4,0.5,16
333,5669.0,0.1,0.0,1.0,-0.30000000000000004,1.6,10.700000000000001,9.600000000000001,13.5,7.1000000000000005,16
334,5685.0,0.5,-0.30000000000000004,1.0,0.2,1.3,10.700000000000001,1.0,7.699999999999999,9.9,16
335,5702.0,1.1,-0.7000000000000001,1.2000000000000002,0.7000000000000001,0.9,10.9,-0.30000000000000004,0.30000000000000004,7.8,16
336,5719.0,1.4000000000000001,-0.9,1.2000000000000002,1.0,0.7000000000000001,10.700000000000001,9.200000000000001,-0.5,2.4000000000000004,16
337,5735.0,1.5,-1.0,0.6000000000000001,1.0,0.7000000000000001,10.200000000000001,18.1,-3.0000000000000004,-4.300000000000001,16
338,5752.0,1.5,-1.0,-0.1,1.2000000000000002,0.8,9.600000000000001,18.5,-7.2,-10.0,16
339,5768.0,1.5,-1.0,-0.5,1.1,0.8,9.1,11.5,-9.600000000000001,-14.100000000000001,16
340,5785.0,1.3,-1.1,-0.9,0.9,0.8,8.700000000000001,3.9,-11.9,-16.8,16
341,5803.0,1.0,-1.0,-1.0,0.7000000000000001,0.8,8.700000000000001,-5.7,-16.400000000000002,-17.5,16
342,5818.0,0.9,-1.0,-1.0,0.5,0.9,8.6,-15.000000000000002,-22.000000000000004,-15.100000000000001,16
343,5835.0,0.4,-0.7000000000000001,-1.1,0.1,1.1,8.5,-14.200000000000001,-20.7,-8.700000000000001,16
344,5852.0,0.0,-0.4,-1.6,-0.2,1.3,8.1,-6.000000000000001,-13.700000000000001,-0.30000000000000004,16
345,5869.0,-0.1,-0.30000000000000004,-1.8,-0.4,1.4000000000000001,7.7,1.5000000000000002,-6.1000000000000005,6.4,16
346,5885.0,-0.4,-0.30000000000000004,-2.1,-0.5,1.4000000000000001,7.5,6.3,-4.2,8.5,16
347,5902.0,-0.6000000000000001,-0.30000000000000004,-2.3000000000000003,-0.7000000000000001,1.4000000000000001,7.300000000000001,9.9,-7.2,5.9,16
348,5919.0,-0.7000000000000001,-0.30000000000000004,-2.4000000000000004,-0.8,1.5,7.1000000000000005,12.000000000000002,-7.2,3.1,16
349,5935.0,-0.8,-0.30000000000000004,-2.5,-0.9,1.5,7.1000000000000005,11.3,-7.2,1.0,16
350,5953.0,-0.9,-0.30000000000000004,-2.4000000000000004,-0.9,1.6,7.2,7.400000000000001,-7.2,-0.5,16
351,5969.0,-0.9,-0.2,-2.2,-1.0,1.6,7.5,1.5000000000000002,-5.8,-1.7,16
352,5992.0,-1.0,-0.4,-1.5,-1.0,1.4000000000000001,7.9,-5.2,-6.2,-4.800000000000001,16
353,6002.0,-1.1,-0.4,-1.2000000000000002,-1.1,1.4000000000000001,8.4,-13.0,-7.0,-8.700000000000001,16
354,6018.0,-1.1,-0.30000000000000004,-0.5,-1.1,1.4000000000000001,9.0,-19.3,-4.9,-11.1,16
355,6035.0,-1.2000000000000002,-0.2,-0.1,-1.2000000000000002,1.5,9.700000000000001,-19.3,0.8,-10.4,16
356,6052.0,-1.3,-0.1,0.30000000000000004,-1.4000000000000001,1.5,9.9,-14.500000000000002,6.9,-8.200000000000001,16
357,6068.0,-1.5,0.0,0.5,-1.6,1.6,10.100000000000001,-7.300000000000001,11.9,-6.000000000000001,16
358,6085.0,-1.7000000000000002,0.0,0.6000000000000001,-1.9000000000000001,1.7000000000000002,10.3,0.8,15.299999999999999,-3.3000000000000003,16
359,6102.0,-1.8,0.4,0.9,-2.1,2.1,10.5,6.2,15.9,0.2,16
360,6119.0,-1.9000000000000001,0.7000000000000001,1.3,-2.1,2.3000000000000003,10.9,7.9,11.1,5.1,16
361,6135.0,-1.6,0.7000000000000001,1.4000000000000001,-1.7000000000000002,2.3000000000000003,11.100000000000001,7.6,8.5,6.5,16
362,6152.0,-1.1,0.6000000000000001,1.6,-1.4000000000000001,2.3000000000000003,11.200000000000001,6.5,10.4,5.9,16
363,6177.0,-0.8,0.6000000000000001,2.2,-1.0,2.4000000000000004,12.200000000000001,-8.1,2.7,3.6,16
364,6185.0,-0.8,0.6000000000000001,2.2,-1.0,2.4000000000000004,12.200000000000001,-8.1,2.7,3.6,16
365,6202.0,-0.1,0.6000000000000001,3.3000000000000003,-0.2,2.2,13.100000000000001,-27.1,-9.1,3.1,16
366,6219.0,1.0,0.5,4.1000000000000005,0.7000000000000001,2.0,13.8,-42.0,-14.100000000000001,4.300000000000001,16
367,6235.0,1.1,0.30000000000000004,4.2,0.8,1.5,13.8,-37.5,-7.400000000000001,6.6000000000000005,16
368,6252.0,1.1,0.0,3.6,0.9,1.3,13.100000000000001,-18.1,4.1000000000000005,10.9,16
369,6274.0,1.3,0.0,3.0,0.9,1.3,13.100000000000001,-18.1,4.1000000000000005,10.9,16
370,6285.0,1.3,0.1,1.8,0.9,1.5,11.4,27.0,24.9,7.699999999999999,16
371,6302.0,1.2000000000000002,0.1,1.5,0.8,1.6,11.100000000000001,30.9,16.900000000000002,-0.2,16
372,6319.0,1.7000000000000002,0.0,0.8,1.4000000000000001,1.6,10.5,23.3,6.1000000000000005,-8.3,16
373,6335.0,2.3000000000000003,-0.1,0.5,1.9000000000000001,1.3,10.100000000000001,14.200000000000001,-0.6000000000000001,-20.6,16
374,6352.0,2.1,-0.5,0.0,1.8,1.1,9.600000000000001,6.3,-8.1,-27.8,16
375,6374.0,2.3000000000000003,-0.6000000000000001,-0.6000000000000001,1.9000000000000001,1.0,9.1,-0.30000000000000004,-7.500000000000001,-31.5,16
376,6385.0,1.6,-0.5,-1.2000000000000002,1.3,1.1,8.6,-5.500000000000001,-4.300000000000001,-31.2,16
377,6403.0,1.3,-0.4,-1.4000000000000001,0.8,1.2000000000000002,8.200000000000001,-8.200000000000001,-6.000000000000001,-26.200000000000003,16
378,6418.0,0.9,-0.30000000000000004,-1.6,0.5,1.2000000000000002,8.1,-11.6,-9.5,-20.4,16
379,6435.0,0.5,-0.4,-1.6,0.2,1.1,8.1,-13.5,-15.399999999999999,-15.399999999999999,16
380,6452.0,0.4,-0.5,-1.7000000000000002,0.1,1.0,8.0,-8.1,-19.3,-13.100000000000001,16
381,6468.0,0.0,-0.5,-1.9000000000000001,-0.2,1.0,7.800000000000001,3.9,-18.5,-12.200000000000001,16
382,6494.0,-0.30000000000000004,-0.4,-2.5,-0.5,1.1,7.2,17.9,-16.1,-11.5,16
383,6502.0,-0.4,-0.4,-2.8000000000000003,-0.5,1.1,6.7,27.3,-11.700000000000001,-11.8,16
384,6519.0,-0.4,-0.6000000000000001,-3.2,-0.5,1.0,6.5,30.000000000000004,-7.699999999999999,-14.600000000000001,16
385,6535.0,-0.7000000000000001,-0.8,-3.2,-0.8,1.0,6.4,28.1,-3.8,-18.1,16
386,6552.0,-1.0,-0.7000000000000001,-3.2,-1.3,1.2000000000000002,6.4,23.5,0.5,-16.8,16
387,6574.0,-1.4000000000000001,-0.2,-2.9000000000000004,-1.5,1.5,6.5,14.700000000000001,3.0000000000000004,-11.1,16
388,6585.0,-1.3,-0.1,-2.7,-1.5,1.7000000000000002,6.800000000000001,1.3,3.4,-3.7000000000000006,16
389,6602.0,-1.1,-0.1,-2.5,-1.2000000000000002,1.6,7.300000000000001,-11.9,4.300000000000001,1.2000000000000002,16
390,6619.0,-1.0,-0.2,-1.6,-1.2000000000000002,1.6,8.1,-18.1,5.6,3.6,16
391,6635.0,-1.1,0.0,-0.7000000000000001,-1.3,1.8,8.9,-18.6,6.9,5.9,16
392,6652.0,-1.0,0.2,-0.30000000000000004,-1.4000000000000001,2.0,9.5,-18.900000000000002,5.7,9.200000000000001,16
393,6669.0,-1.3,0.5,0.30000000000000004,-1.6,2.3000000000000003,10.0,-14.900000000000002,3.7000000000000006,15.100000000000001,16
394,6689.0,-1.3,0.9,0.9,-1.5,2.6,10.4,-7.400000000000001,1.8,22.6,16
395,6702.0,-0.9,1.1,1.1,-0.7000000000000001,2.7,10.8,-1.0,0.6000000000000001,27.3,16
396,6718.0,0.1,1.0,1.2000000000000002,0.0,2.6,10.8,5.500000000000001,5.1,25.1,16
397,6735.0,0.4,0.9,1.0,0.1,2.6,10.600000000000001,11.700000000000001,9.600000000000001,18.900000000000002,16
398,6753.0,0.2,0.9,1.1,0.1,2.6,10.700000000000001,11.5,9.700000000000001,14.900000000000002,16
399,6770.0,0.7000000000000001,0.9,1.4000000000000001,0.6000000000000001,2.7,11.0,4.800000000000001,5.300000000000001,10.0,16
400,6787.0,1.0,0.9,1.7000000000000002,0.7000000000000001,2.6,11.200000000000001,-1.6,6.1000000000000005,5.7,16
401,6802.0,0.30000000000000004,1.0,1.6,0.1,2.7,11.200000000000001,-1.4,17.5,5.4,16
402,6818.0,-0.2,0.9,2.0,-0.5,2.6,11.8,-1.8,12.8,4.9,16
403,6835.0,0.2,0.6000000000000001,2.7,-0.1,2.3000000000000003,12.4,-12.8,0.2,1.9,16
404,6852.0,0.5,0.5,3.1,0.5,1.9000000000000001,13.200000000000001,-27.2,-16.5,-2.6,16
405,6868.0,1.3,-0.2,3.7,1.3,1.1,13.3,-32.5,-23.3,-6.000000000000001,16
406,6885.0,1.7000000000000002,-0.6000000000000001,3.1,1.4000000000000001,0.9,12.700000000000001,-22.7,-8.3,-6.4,16
407,6902.0,1.0,-0.5,2.1,0.8,1.0,11.9,0.4,10.2,-1.3,16
408,6918.0,1.0,-0.4,2.0,0.8,1.1,11.600000000000001,12.000000000000002,9.8,2.8,16
409,6935.0,1.0,-0.4,1.8,0.8,1.1,11.5,10.5,6.2,6.6000000000000005,16
410,6952.0,1.2000000000000002,-0.4,1.7000000000000002,0.8,1.1,11.5,8.700000000000001,-2.3000000000000003,4.5,16
411,6968.0,1.3,-0.8,1.5,1.2000000000000002,0.7000000000000001,11.100000000000001,9.4,-8.200000000000001,1.2000000000000002,16
412,6986.0,1.5,-0.9,0.8,1.2000000000000002,0.7000000000000001,10.4,12.200000000000001,-8.5,-3.7000000000000006,16
413,7003.0,0.9,-0.9,0.2,0.8,0.7000000000000001,9.9,12.6,-10.600000000000001,-7.699999999999999,16
414,7021.0,0.7000000000000001,-0.9,0.1,0.6000000000000001,0.7000000000000001,9.700000000000001,6.7,-19.1,-8.1,16
415,7036.0,0.6000000000000001,-1.0,-0.30000000000000004,0.5,0.7000000000000001,9.3,1.0,-25.8,-6.1000000000000005,16
416,7052.0,0.30000000000000004,-0.9,-1.0,0.4,0.8,8.8,1.2000000000000002,-22.000000000000004,-1.0,16
417,7068.0,0.2,-0.8,-1.3,0.2,0.9,8.200000000000001,7.400000000000001,-14.0,4.1000000000000005,16
418,7085.0,-0.2,-0.6000000000000001,-1.8,-0.2,1.1,7.800000000000001,15.399999999999999,-4.7,7.6,16
419,7102.0,-0.8,-0.4,-2.2,-0.7000000000000001,1.3,7.5,25.900000000000002,1.8,9.700000000000001,16
420,7118.0,-1.0,-0.30000000000000004,-2.3000000000000003,-1.0,1.6,7.300000000000001,35.6,3.5,10.4,16
421,7135.0,-1.1,-0.30000000000000004,-2.6,-1.0,1.7000000000000002,7.0,40.2,2.3000000000000003,10.2,16
422,7152.0,-0.9,-0.2,-2.9000000000000004,-0.8,1.9000000000000001,6.7,40.1,4.800000000000001,9.200000000000001,16
423,7169.0,-0.9,-0.2,-2.8000000000000003,-0.8,2.0,6.7,36.800000000000004,14.100000000000001,7.9,16
424,7186.0,-1.0,-0.30000000000000004,-2.7,-1.0,1.9000000000000001,7.0,30.299999999999997,17.9,4.3999999999999995,16
425,7202.0,-1.0,-0.4,-2.2,-1.0,1.9000000000000001,7.300000000000001,16.6,16.3,0.7,16
426,7219.0,-0.8,-0.30000000000000004,-1.6,-0.9,2.0,7.800000000000001,-2.9,15.299999999999999,-3.1,16
427,7235.0,-0.8,-0.2,-1.1,-0.9,2.0,8.700000000000001,-18.7,12.3,-4.300000000000001,16
428,7252.0,-0.4,-0.30000000000000004,-0.1,-0.6000000000000001,1.9000000000000001,9.4,-25.6,12.6,-4.9,16
429,7269.0,-0.2,-0.4,0.2,-0.4,1.7000000000000002,9.8,-19.200000000000003,18.2,-6.9,16
430,7286.0,-0.1,-0.4,0.30000000000000004,-0.5,1.7000000000000002,9.700000000000001,-4.800000000000001,27.900000000000002,-9.0,16
431,7303.0,-0.4,-0.2,0.0,-0.8,1.9000000000000001,9.5,7.699999999999999,33.2,-11.000000000000002,16
432,7320.0,-0.6000000000000001,0.0,0.1,-1.1,2.1,9.600000000000001,11.8,30.4,-11.1,16
433,7335.0,-0.6000000000000001,0.0,0.2,-1.2000000000000002,2.3000000000000003,9.700000000000001,8.200000000000001,22.2,-9.8,16
434,7352.0,-0.6000000000000001,0.30000000000000004,0.4,-1.3,2.5,10.0,3.7000000000000006,16.8,-5.7,16
435,7368.0,-0.5,0.5,0.8,-1.2000000000000002,2.7,10.200000000000001,-0.7,14.200000000000001,-1.3,16
436,7388.0,-0.4,0.7000000000000001,1.2000000000000002,-1.2000000000000002,2.9000000000000004,10.600000000000001,-6.4,11.5,1.9,16
437,7406.0,-0.5,0.8,1.3,-1.2000000000000002,3.0,10.9,-10.3,8.4,3.0000000000000004,16
438,7419.0,-0.1,1.0,2.1,-0.9,3.1,11.700000000000001,-15.399999999999999,-0.5,2.1999999999999997,16
439,7435.0,0.30000000000000004,1.0,2.6,-0.2,3.0,12.3,-27.0,-12.700000000000001,-1.0999999999999999,16
440,7452.0,0.7000000000000001,0.8,3.0,0.1,2.7,12.700000000000001,-30.5,-24.3,-4.0,16
441,7469.0,1.2000000000000002,0.5,3.3000000000000003,0.6000000000000001,2.4000000000000004,12.9,-26.200000000000003,-28.8,-6.8,16
442,7488.0,1.7000000000000002,0.4,3.0,1.1,2.3000000000000003,12.700000000000001,-14.600000000000001,-23.3,-9.4,16
443,7503.0,1.8,0.30000000000000004,2.5,1.3,2.1,12.0,3.7000000000000006,-7.9,-14.0,16
444,7518.0,1.8,0.2,2.0,1.3,2.1,12.0,3.7000000000000006,-7.9,-14.0,16
445,7535.0,1.6,0.30000000000000004,1.2000000000000002,1.2000000000000002,2.2,10.700000000000001,12.200000000000001,4.3999999999999995,-24.5,16
446,7552.0,1.9000000000000001,0.2,0.9,1.5,2.1,10.600000000000001,2.6,-1.2000000000000002,-27.1,16
447,7569.0,2.2,0.0,0.7000000000000001,1.8,1.9000000000000001,10.4,-7.0,-7.2,-27.5,16
448,7589.0,2.3000000000000003,-0.1,0.4,1.9000000000000001,1.8,10.200000000000001,-10.3,-9.4,-26.400000000000002,16
449,7605.0,2.2,-0.1,-0.1,1.8,1.7000000000000002,9.4,-5.300000000000001,-4.800000000000001,-25.0,16
450,7622.0,2.0,-0.2,-1.0,1.5,1.7000000000000002,8.700000000000001,-0.7,2.8,-25.0,16
451,7635.0,1.6,-0.2,-1.2000000000000002,0.9,1.6,8.4,-0.7,1.0999999999999999,-26.1,16
452,7652.0,0.9,-0.2,-1.4000000000000001,0.4,1.6,8.3,-2.7,-8.5,-27.0,16
453,7669.0,0.5,-0.30000000000000004,-1.5,0.0,1.5,8.200000000000001,-2.8,-16.2,-28.0,16
454,7686.0,-0.1,-0.4,-1.9000000000000001,-0.4,1.4000000000000001,7.800000000000001,3.0000000000000004,-20.900000000000002,-27.1,16
455,7702.0,-0.1,-0.4,-2.2,-0.5,1.4000000000000001,7.2,13.0,-16.1,-25.1,16
456,7718.0,-0.30000000000000004,-0.5,-2.9000000000000004,-0.7000000000000001,1.4000000000000001,6.7,20.0,-11.1,-23.700000000000003,16
457,7735.0,-0.6000000000000001,-0.4,-3.3000000000000003,-0.9,1.5,6.300000000000001,19.1,-11.2,-22.2,16
458,7752.0,-0.8,-0.4,-3.4000000000000004,-1.0,1.6,6.2,9.9,-11.8,-19.400000000000002,16
459,7768.0,-0.8,-0.4,-3.4000000000000004,-1.0,1.6,6.2,-1.2000000000000002,-12.3,-15.6,16
460,7786.0,-0.8,-0.4,-2.9000000000000004,-1.1,1.6,6.6000000000000005,-9.9,-9.700000000000001,-10.9,16
461,7802.0,-0.8,-0.5,-2.7,-1.0,1.3,7.0,-14.4,-7.0,-7.400000000000001,16
462,7818.0,-0.6000000000000001,-0.7000000000000001,-2.0,-0.9,1.1,7.6000000000000005,-17.400000000000002,-6.2,-6.4,16
463,7835.0,-1.0,-0.6000000000000001,-1.3,-1.2000000000000002,1.3,8.200000000000001,-17.1,-6.9,-4.300000000000001,16
464,7852.0,-1.2000000000000002,-0.4,-1.0,-1.5,1.4000000000000001,8.6,-14.3,-4.6000000000000005,2.1999999999999997,16
465,7869.0,-1.3,-0.2,-0.6000000000000001,-1.5,1.6,9.0,-9.200000000000001,-0.4,9.9,16
466,7886.0,-1.4000000000000001,-0.2,-0.30000000000000004,-1.6,1.6,9.200000000000001,-3.4,6.2,16.6,16
467,7905.0,-1.3,-0.1,0.2,-1.5,1.6,9.600000000000001,-2.1999999999999997,7.0,20.0,16
468,7920.0,-1.4000000000000001,0.0,0.4,-1.7000000000000002,1.8,10.100000000000001,-5.1,3.1,22.6,16
469,7936.0,-1.4000000000000001,0.30000000000000004,1.0,-1.7000000000000002,2.0,10.5,-6.9,0.6000000000000001,27.6,16
470,7952.0,-1.4000000000000001,0.4,1.2000000000000002,-1.5,2.1,10.9,-5.2,-0.7,33.300000000000004,16
471,7968.0,-0.8,0.5,1.6,-0.7000000000000001,2.1,11.200000000000001,-2.1999999999999997,-2.3000000000000003,35.5,16
472,7993.0,0.30000000000000004,0.4,1.9000000000000001,0.2,2.1,11.5,1.0999999999999999,-3.7000000000000006,31.3,16
473,8002.0,0.7000000000000001,0.30000000000000004,2.0,0.6000000000000001,2.0,11.5,5.1,1.9,22.5,16
474,8018.0,0.8,0.4,1.7000000000000002,0.4,2.2,11.200000000000001,6.3,11.1,14.100000000000001,16
475,8035.0,-0.1,0.7000000000000001,1.4000000000000001,-0.4,2.5,11.100000000000001,0.8,18.3,8.5,16
476,8052.0,-0.7000000000000001,0.9,1.7000000000000002,-1.2000000000000002,2.8000000000000003,11.700000000000001,-12.100000000000001,15.9,9.9,16
477,8068.0,-0.9,1.1,2.4000000000000004,-1.2000000000000002,2.7,12.100000000000001,-32.0,8.5,15.2,16
478,8087.0,-0.9,1.0,2.9000000000000004,-1.2000000000000002,2.5,12.700000000000001,-45.800000000000004,1.8,20.900000000000002,16
479,8102.0,-0.8,0.9,3.4000000000000004,-0.8,2.1,13.3,-42.900000000000006,-0.6000000000000001,24.7,16
480,8118.0,-0.1,0.5,3.7,-0.2,1.8,13.4,-29.300000000000004,1.7,22.5,16
481,8135.0,0.30000000000000004,0.30000000000000004,3.5,0.0,1.5,13.3,-12.000000000000002,3.8,16.8,16
482,8152.0,0.7000000000000001,0.1,3.3000000000000003,0.4,1.4000000000000001,13.100000000000001,0.6000000000000001,-2.8,13.6,16
483,8168.0,1.0,0.2,2.9000000000000004,0.9,1.4000000000000001,12.4,12.5,-2.4000000000000004,14.4,16
484,8185.0,1.3,-0.2,1.8,1.1,1.2000000000000002,11.5,23.0,2.6,15.399999999999999,16
485,8202.0,1.4000000000000001,-0.4,0.9,1.1,1.1,10.700000000000001,29.700000000000003,6.6000000000000005,15.399999999999999,16
486,8218.0,1.4000000000000001,-0.4,0.5,1.1,1.1,10.100000000000001,31.5,8.1,14.700000000000001,16
487,8235.0,1.3,-0.6000000000000001,-0.2,1.0,1.0,9.5,30.200000000000003,7.400000000000001,13.5,16
488,8252.0,1.2000000000000002,-0.7000000000000001,-0.5,1.0,1.0,9.5,30.200000000000003,7.400000000000001,13.5,16
489,8268.0,1.1,-0.9,-0.9,0.8,0.8,8.8,18.8,-3.7000000000000006,8.0,16
490,8285.0,1.1,-1.1,-1.2000000000000002,0.8,0.7000000000000001,8.4,14.500000000000002,-10.1,5.7,16
491,8304.0,0.9,-1.1,-2.0,0.7000000000000001,0.7000000000000001,7.7,17.599999999999998,-9.4,6.4,16
492,8318.0,0.8,-1.1,-2.5,0.6000000000000001,0.9,6.800000000000001,23.900000000000002,2.1999999999999997,10.8,16
493,8335.0,0.5,-1.0,-3.3000000000000003,0.30000000000000004,1.0,6.2,26.8,13.700000000000001,15.9,16
494,8352.0,0.30000000000000004,-1.0,-3.8000000000000003,0.0,1.0,5.9,24.7,19.3,19.700000000000003,16
495,8368.0,0.2,-1.0,-3.9000000000000004,-0.2,1.0,5.6000000000000005,17.599999999999998,19.400000000000002,22.2,16
496,8385.0,0.1,-1.1,-3.9000000000000004,-0.2,1.1,5.800000000000001,7.500000000000001,16.700000000000003,23.700000000000003,16
497,8402.0,-0.1,-1.0,-3.5,-0.4,1.1,6.1000000000000005,-1.8,14.0,26.700000000000003,16
498,8418.0,-0.1,-1.1,-3.3000000000000003,-0.4,0.9,6.4,-6.9,11.6,28.1,16
499,8435.0,-0.1,-1.3,-2.9000000000000004,-0.6000000000000001,0.8,6.7,-9.5,7.500000000000001,25.700000000000003,16
500,8452.0,-0.5,-1.1,-2.5,-0.9,0.9,7.0,-13.100000000000001,3.0000000000000004,21.0,16
501,8468.0,-0.7000000000000001,-0.9,-2.2,-1.2000000000000002,1.3,7.7,-19.9,-7.2,17.9,16
502,8487.0,-0.6000000000000001,-0.6000000000000001,-1.2000000000000002,-0.6000000000000001,1.3,8.5,-28.6,-22.000000000000004,14.800000000000002,16
503,8502.0,0.2,-0.5,-0.4,0.0,1.3,9.1,-31.6,-25.700000000000003,7.699999999999999,16
504,8518.0,0.30000000000000004,-0.4,-0.30000000000000004,0.0,1.4000000000000001,9.4,-26.500000000000004,-7.1000000000000005,0.4,16
505,8535.0,-0.4,0.0,0.1,-1.0,1.9000000000000001,9.600000000000001,-19.700000000000003,12.100000000000001,-4.800000000000001,16
506,8555.0,-2.0,0.8,0.30000000000000004,-2.3000000000000003,2.5,9.9,-14.700000000000001,18.7,-4.3999999999999995,16
507,8569.0,-2.6,1.6,0.8,-2.9000000000000004,3.1,10.3,-14.3,20.0,1.7,16
508,8586.0,-2.5,1.7000000000000002,1.2000000000000002,-2.9000000000000004,3.2,11.100000000000001,-18.0,20.1,6.7,16
509,8602.0,-2.4000000000000004,1.6,2.3000000000000003,-2.8000000000000003,3.1,11.9,-16.5,18.8,9.1,16
510,8619.0,-2.0,1.4000000000000001,2.8000000000000003,-2.6,2.9000000000000004,12.4,-8.700000000000001,18.0,10.5,16
511,8638.0,-1.5,1.4000000000000001,2.9000000000000004,-2.2,2.8000000000000003,12.5,-1.2000000000000002,18.900000000000002,11.000000000000002,16
512,8652.0,-1.7000000000000002,1.4000000000000001,2.9000000000000004,-2.4000000000000004,2.9000000000000004,12.600000000000001,4.2,18.0,11.9,16
513,8668.0,-1.8,1.4000000000000001,3.4000000000000004,-2.5,2.9000000000000004,13.100000000000001,4.6000000000000005,8.5,13.0,16
514,8687.0,-1.0,1.3,4.2,-1.9000000000000001,2.9000000000000004,13.8,-6.2,-12.3,14.200000000000001,16
515,8704.0,-0.4,1.1,4.4,-0.8,2.5,14.200000000000001,-20.0,-29.800000000000004,15.2,16
516,8718.0,1.0,0.2,4.4,0.5,1.6,14.200000000000001,-23.900000000000002,-33.900000000000006,15.2,16
517,8736.0,1.8,-0.30000000000000004,4.0,1.7000000000000002,0.9,13.3,-12.8,-20.2,13.4,16
518,8752.0,2.2,-0.6000000000000001,2.4000000000000004,1.8,0.8,11.8,10.0,-3.2,10.1,16
519,8768.0,1.9000000000000001,-0.6000000000000001,0.8,1.5,0.9,10.600000000000001,28.200000000000003,13.3,8.0,16
520,8786.0,1.7000000000000002,-0.5,0.5,1.3,0.9,10.200000000000001,32.9,18.2,7.1000000000000005,16
521,8802.0,2.1,-0.9,0.1,1.8,0.8,9.8,22.5,7.2,3.2,16
522,8818.0,2.7,-0.8,-0.6000000000000001,2.4000000000000004,0.9,9.200000000000001,7.699999999999999,-2.3000000000000003,0.8,16
523,8835.0,3.0,-0.9,-0.7000000000000001,2.5,0.7000000000000001,9.0,-1.0999999999999999,-4.1000000000000005,-6.000000000000001,16
524,8852.0,2.5,-1.0,-0.9,2.0,0.7000000000000001,8.8,2.4000000000000004,-3.8,-9.600000000000001,16
525,8868.0,2.1,-0.7000000000000001,-1.2000000000000002,1.7000000000000002,1.0,8.5,12.4,1.2000000000000002,-9.600000000000001,16
526,8885.0,1.6,-0.5,-1.5,1.3,1.2000000000000002,8.3,17.9,0.6000000000000001,-11.000000000000002,16
527,8902.0,1.2000000000000002,-0.30000000000000004,-1.5,0.7000000000000001,1.5,8.200000000000001,13.4,-6.8,-14.700000000000001,16
528,8918.0,0.4,-0.1,-1.8,0.1,1.7000000000000002,7.9,2.0,-16.700000000000003,-16.8,16
529,8935.0,0.1,0.0,-1.8,-0.30000000000000004,1.7000000000000002,7.9,-10.1,-23.400000000000002,-15.5,16
530,8952.0,-0.1,0.0,-1.8,-0.4,1.7000000000000002,7.9,-16.900000000000002,-22.900000000000002,-12.200000000000001,16
531,8968.0,-0.4,-0.1,-1.9000000000000001,-0.6000000000000001,1.5,7.800000000000001,-17.599999999999998,-17.400000000000002,-7.699999999999999,16
532,8988.0,-0.5,-0.30000000000000004,-1.9000000000000001,-0.6000000000000001,1.3,7.800000000000001,-16.6,-10.5,-5.9,16
533,9003.0,-0.7000000000000001,-0.30000000000000004,-1.9000000000000001,-1.0,1.3,7.9,-15.100000000000001,-6.9,-6.1000000000000005,16
534,9018.0,-1.0,-0.30000000000000004,-1.8,-1.0,1.3,7.9,-15.100000000000001,-6.9,-6.1000000000000005,16
535,9035.0,-1.0,-0.30000000000000004,-1.8,-1.0,1.3,7.9,-15.100000000000001,-6.9,-6.1000000000000005,16
536,9052.0,-1.4000000000000001,-0.2,-2.0,-1.5,1.3,7.6000000000000005,0.5,1.0999999999999999,-1.7,16
537,9074.0,-1.4000000000000001,-0.2,-2.2,-1.6,1.3,7.4,5.2,8.600000000000001,2.3000000000000003,16
538,9085.0,-1.8,-0.2,-2.3000000000000003,-2.0,1.3,7.4,8.700000000000001,14.100000000000001,6.9,16
539,9102.0,-1.9000000000000001,-0.2,-2.1,-2.2,1.5,7.7,11.2,17.400000000000002,11.700000000000001,16
540,9118.0,-2.1,0.1,-1.5,-2.3000000000000003,1.7000000000000002,8.200000000000001,12.6,17.0,17.3,16
541,9135.0,-1.8,0.2,-1.0,-2.0,1.8,8.6,7.8,7.8,21.400000000000002,16
542,9154.0,-1.6,0.5,-0.30000000000000004,-2.0,2.1,9.200000000000001,2.3000000000000003,-1.2000000000000002,25.2,16
543,9168.0,-1.3,0.5,0.1,-1.4000000000000001,2.1,9.9,0.8,-8.799999999999999,28.400000000000002,16
544,9185.0,-0.2,0.6000000000000001,0.8,-0.4,2.3000000000000003,10.3,4.300000000000001,-8.700000000000001,28.500000000000004,16
545,9202.0,0.2,0.6000000000000001,0.8,-0.4,2.3000000000000003,10.3,10.700000000000001,1.5000000000000002,24.1,16
546,9218.0,0.0,0.7000000000000001,0.8,-0.30000000000000004,2.5,10.4,12.5,12.9,22.2,16
547,9235.0,0.0,1.0,1.0,-0.2,2.8000000000000003,10.600000000000001,8.700000000000001,11.3,20.8,16
548,9254.0,0.30000000000000004,1.1,1.3,0.4,2.9000000000000004,11.0,-0.1,8.4,19.0,16
549,9268.0,1.0,1.0,1.8,0.9,2.6,11.5,-7.6,6.7,14.500000000000002,16
550,9285.0,1.6,0.7000000000000001,2.1,1.2000000000000002,2.5,11.700000000000001,-10.700000000000001,10.8,9.4,16
551,9302.0,1.4000000000000001,0.9,2.0,0.4,3.0,11.600000000000001,-5.300000000000001,26.6,6.000000000000001,16
552,9319.0,-0.2,1.5,2.3000000000000003,-0.8,3.2,12.0,1.5000000000000002,24.9,7.300000000000001,16
553,9336.0,-0.1,1.3,2.5,-0.5,3.0,12.100000000000001,-7.300000000000001,11.700000000000001,8.200000000000001,16
554,9352.0,0.1,1.2000000000000002,2.5,-0.6000000000000001,2.8000000000000003,12.4,-16.700000000000003,2.1999999999999997,5.9,16
555,9376.0,0.30000000000000004,0.1,3.1,-0.30000000000000004,2.0,12.8,-21.5,-9.4,3.5,16
556,9385.0,0.9,-0.30000000000000004,3.0,0.6000000000000001,1.2000000000000002,12.600000000000001,-26.3,-20.3,0.6000000000000001,16
557,9402.0,1.4000000000000001,-0.7000000000000001,2.6,1.3,0.7000000000000001,12.200000000000001,-24.5,-15.299999999999999,3.3000000000000003,16
558,9418.0,1.8,-0.7000000000000001,2.3000000000000003,1.6,0.8,11.9,-11.1,-8.3,9.700000000000001,16
559,9435.0,1.8,-0.7000000000000001,1.4000000000000001,1.5,0.7000000000000001,11.100000000000001,4.6000000000000005,-6.1000000000000005,12.6,16
560,9454.0,1.8,-0.8,0.6000000000000001,1.6,0.7000000000000001,10.4,13.4,-4.5,14.100000000000001,16
561,9475.0,2.0,-0.8,0.1,1.8,0.7000000000000001,9.9,16.900000000000002,-5.0,7.300000000000001,16
562,9485.0,1.9000000000000001,-0.9,-0.2,1.7000000000000002,0.7000000000000001,9.600000000000001,17.9,-5.9,-2.7,16
563,9502.0,1.4000000000000001,-0.8,-0.7000000000000001,1.3,0.8,9.1,17.8,-7.300000000000001,-11.2,16
564,9519.0,1.2000000000000002,-0.7000000000000001,-0.9,1.0,1.0,8.6,15.399999999999999,-8.0,-16.5,16
565,9537.0,0.8,-0.7000000000000001,-1.5,0.7000000000000001,1.0,8.200000000000001,8.600000000000001,-11.5,-18.8,16
566,9552.0,0.6000000000000001,-0.6000000000000001,-2.0,0.6000000000000001,1.0,7.7,-1.3,-15.299999999999999,-18.400000000000002,16
567,9575.0,0.4,-0.6000000000000001,-2.4000000000000004,0.5,1.1,7.4,-9.4,-14.500000000000002,-16.400000000000002,16
568,9585.0,0.2,-0.5,-2.5,0.1,1.1,7.2,-11.9,-8.5,-12.4,16
569,9602.0,-0.30000000000000004,-0.4,-2.7,-0.30000000000000004,1.2000000000000002,7.0,-10.4,-2.3000000000000003,-6.8,16
570,9619.0,-0.5,-0.4,-2.7,-0.6000000000000001,1.2000000000000002,7.1000000000000005,-6.6000000000000005,0.5,-0.8,16
571,9635.0,-0.8,-0.30000000000000004,-2.6,-0.9,1.2000000000000002,7.1000000000000005,-1.0,-2.3000000000000003,2.8,16
572,9652.0,-1.0,-0.30000000000000004,-2.6,-0.9,1.3,7.1000000000000005,3.4,-7.9,2.8,16
573,9678.0,-1.1,-0.2,-2.7,-1.0,1.3,6.9,3.5,-13.5,-0.9,16
574,9685.0,-1.2000000000000002,-0.1,-2.8000000000000003,-1.2000000000000002,1.5,6.9,0.0,-13.3,-5.6,16
575,9702.0,-1.4000000000000001,0.0,-2.7,-1.2000000000000002,1.5,6.9,0.0,-13.3,-5.6,16
576,9718.0,-2.0,0.30000000000000004,-2.3000000000000003,-1.9000000000000001,1.9000000000000001,7.6000000000000005,-11.9,-15.8,-8.799999999999999,16
577,9735.0,-1.9000000000000001,0.5,-1.5,-1.7000000000000002,2.0,8.3,-21.400000000000002,-21.200000000000003,-9.600000000000001,16
578,9752.0,-1.5,0.4,-0.5,-1.2000000000000002,1.7000000000000002,9.200000000000001,-33.2,-27.400000000000002,-14.0,16
579,9775.0,-0.6000000000000001,-0.1,0.30000000000000004,-0.4,1.2000000000000002,9.9,-43.7,-25.700000000000003,-20.900000000000002,16
580,9785.0,-0.6000000000000001,-0.2,0.7000000000000001,-0.30000000000000004,0.9,10.4,-42.800000000000004,-10.600000000000001,-26.1,16
581,9803.0,-1.1,-0.2,1.1,-0.9,0.9,10.8,-33.0,11.8,-22.3,16
582,9818.0,-1.6,0.30000000000000004,1.4000000000000001,-1.3,1.3,11.0,-16.3,19.9,-13.4,16
583,9835.0,-1.8,0.5,1.6,-1.6,1.5,11.4,-2.8,20.900000000000002,-2.1999999999999997,16
584,9852.0,-1.3,0.4,2.3000000000000003,-1.1,1.4000000000000001,12.100000000000001,4.6000000000000005,14.600000000000001,3.7000000000000006,16
585,9868.0,-0.5,0.4,3.0,-0.5,1.4000000000000001,12.700000000000001,11.1,8.3,1.3,16
586,9892.0,-0.4,0.4,3.2,-0.4,1.5,12.9,18.7,4.9,-1.3,16
587,9902.0,-0.30000000000000004,0.6000000000000001,3.1,-0.30000000000000004,1.8,12.8,23.5,2.6,-1.7,16
588,9919.0,-0.5,1.1,2.8000000000000003,-0.5,2.4000000000000004,12.5,24.8,1.9,0.30000000000000004,16
589,9935.0,-0.5,1.2000000000000002,2.6,-0.30000000000000004,2.4000000000000004,12.4,21.5,-1.2000000000000002,0.4,16
590,9952.0,0.2,0.9,2.8000000000000003,0.5,2.2,12.5,5.8,-9.8,-4.7,16
591,9968.0,0.7000000000000001,0.9,2.7,0.5,2.2,12.5,-10.5,-13.9,-10.700000000000001,16
592,9993.0,0.9,0.5,2.2,1.0,1.8,12.100000000000001,-13.3,-8.799999999999999,-13.9,16
593,10002.0,1.0,0.2,1.8,1.1,1.4000000000000001,11.4,-14.100000000000001,-3.9,-14.100000000000001,16
594,10018.0,1.0,-0.2,0.9,1.2000000000000002,1.0,10.700000000000001,-12.5,2.1,-11.1,16
595,10035.0,1.1,-0.5,0.6000000000000001,1.6,0.6000000000000001,10.5,-9.600000000000001,6.4,-4.3999999999999995,16
596,10052.0,1.9000000000000001,-0.9,0.5,2.1,0.30000000000000004,10.3,-6.4,-0.30000000000000004,2.3000000000000003,16
597,10069.0,2.2,-1.0,0.4,2.4000000000000004,0.2,10.200000000000001,8.1,-2.5,9.200000000000001,16
598,10089.0,3.0,-1.3,-0.5,3.1,0.0,9.5,27.900000000000002,-3.0000000000000004,9.600000000000001,16
599,10108.0,3.2,-1.2000000000000002,-1.2000000000000002,3.4000000000000004,0.1,8.8,42.5,-1.5000000000000002,2.1,16
600,10119.0,2.9000000000000004,-1.0,-1.6,3.1,0.5,8.1,50.5,-2.7,-9.0,16
601,10135.0,2.6,-0.8,-2.1,2.4000000000000004,0.9,7.300000000000001,47.900000000000006,-6.4,-21.0,16
602,10152.0,1.5,-0.5,-2.8000000000000003,1.5,1.3,6.9,32.4,-11.3,-28.0,16
603,10168.0,0.7000000000000001,-0.2,-3.1,0.9,1.5,6.5,11.4,-16.900000000000002,-30.4,16
604,10185.0,0.4,-0.1,-3.3000000000000003,0.4,1.6,6.300000000000001,-9.5,-15.100000000000001,-28.500000000000004,16
605,10202.0,-0.4,-0.1,-3.3000000000000003,-0.2,1.5,6.5,-23.3,-10.5,-23.8,16
606,10220.0,-0.9,-0.30000000000000004,-2.9000000000000004,-0.5,1.3,6.9,-29.200000000000003,-6.1000000000000005,-18.8,16
607,10240.0,-0.8,-0.4,-2.1,-0.4,1.1,7.5,-29.1,-3.3000000000000003,-17.599999999999998,16
608,10252.0,-0.9,-0.5,-1.7000000000000002,-0.6000000000000001,1.0,8.1,-23.400000000000002,-2.8,-19.200000000000003,16
609,10268.0,-1.1,-0.30000000000000004,-1.0,-0.8,1.1,8.700000000000001,-13.5,-3.1,-20.2,16
610,10288.0,-1.2000000000000002,-0.2,-0.7000000000000001,-0.9,1.2000000000000002,8.9,-2.9,-5.8,-20.1,16
611,10302.0,-1.2000000000000002,-0.1,-0.8,-0.9,1.4000000000000001,8.700000000000001,3.9,-8.700000000000001,-19.700000000000003,16
612,10318.0,-1.3,0.2,-1.2000000000000002,-0.9,1.7000000000000002,8.4,7.400000000000001,-7.300000000000001,-18.3,16
613,10335.0,-1.3,0.5,-1.4000000000000001,-0.9,1.9000000000000001,8.200000000000001,7.400000000000001,-2.0,-16.1,16
614,10352.0,-1.5,0.6000000000000001,-1.4000000000000001,-1.4000000000000001,2.2,8.3,3.4,1.9,-11.4,16
615,10369.0,-1.9000000000000001,0.9,-1.1,-1.5,2.4000000000000004,8.6,-3.3000000000000003,1.8,-4.2,16
616,10390.0,-1.6,0.9,-0.4,-1.3,2.4000000000000004,9.200000000000001,-8.4,2.7,2.7,16
617,10405.0,-1.2000000000000002,0.7000000000000001,0.30000000000000004,-1.0,2.2,9.8,-3.9,5.4,7.6,16
618,10420.0,-0.9,0.7000000000000001,0.5,-0.6000000000000001,2.1,10.200000000000001,4.0,10.5,6.8,16
619,10437.0,-0.6000000000000001,0.6000000000000001,0.9,-0.4,2.1,10.5,9.8,13.700000000000001,2.1,16
620,10452.0,-0.5,0.6000000000000001,1.2000000000000002,-0.30000000000000004,2.1,10.9,11.6,14.600000000000001,-3.8,16
621,10468.0,-0.4,0.6000000000000001,1.7000000000000002,-0.2,2.2,11.5,12.000000000000002,13.9,-8.1,16
622,10487.0,0.2,0.6000000000000001,2.5,0.30000000000000004,2.2,12.200000000000001,10.9,8.1,-11.9,16
623,10507.0,0.9,0.5,2.9000000000000004,0.9,2.1,12.5,7.6,5.0,-16.1,16
624,10519.0,1.1,0.4,2.7,1.1,2.1,12.100000000000001,6.000000000000001,9.700000000000001,-18.3,16
625,10535.0,0.4,0.9,1.8,0.2,2.6,11.5,8.799999999999999,22.3,-17.0,16
626,10552.0,-0.5,1.2000000000000002,1.9000000000000001,-0.8,2.9000000000000004,11.8,10.3,24.000000000000004,-10.5,16
627,10568.0,-0.30000000000000004,1.0,2.3000000000000003,-0.4,2.6,12.100000000000001,-6.9,16.700000000000003,-6.1000000000000005,16
628,10588.0,-0.2,0.7000000000000001,2.4000000000000004,-0.4,2.3000000000000003,12.200000000000001,-24.000000000000004,8.600000000000001,-5.0,16
629,10604.0,-0.30000000000000004,0.30000000000000004,2.5,-0.5,1.9000000000000001,12.3,-26.500000000000004,8.3,-0.2,16
630,10618.0,-0.1,0.0,2.3000000000000003,-0.2,1.4000000000000001,12.0,-21.1,11.1,5.500000000000001,16
631,10635.0,0.4,-0.5,2.0,0.2,1.0,11.8,-14.200000000000001,10.0,10.0,16
632,10652.0,1.0,-0.6000000000000001,2.4000000000000004,0.7000000000000001,0.8,12.200000000000001,-9.4,1.5000000000000002,13.100000000000001,16
633,10668.0,1.3,-0.7000000000000001,2.5,1.3,0.6000000000000001,12.3,0.9,-5.8,13.0,16
634,10686.0,2.1,-1.1,2.3000000000000003,2.1,0.30000000000000004,12.100000000000001,16.0,-8.9,9.3,16
635,10703.0,2.1,-1.1,2.3000000000000003,2.1,0.30000000000000004,12.100000000000001,16.0,-8.9,9.3,16
636,10718.0,2.5,-1.4000000000000001,0.8,2.2,0.30000000000000004,10.200000000000001,39.6,-2.0,-6.1000000000000005,16
637,10736.0,1.8,-1.1,-0.4,1.6,0.7000000000000001,9.3,38.300000000000004,0.5,-10.0,16
638,10752.0,1.0,-0.8,-1.3,0.9,1.0,8.5,28.400000000000002,-1.0,-8.9,16
639,10768.0,0.7000000000000001,-0.7000000000000001,-1.7000000000000002,0.5,1.2000000000000002,7.800000000000001,12.000000000000002,-7.0,-4.9,16
640,10791.0,0.5,-0.8,-2.5,0.30000000000000004,1.2000000000000002,7.300000000000001,-2.1999999999999997,-11.700000000000001,-0.5,16
641,10805.0,0.4,-0.8,-2.6,0.4,1.1,7.1000000000000005,-9.5,-9.0,3.0000000000000004,16
642,10819.0,0.1,-0.7000000000000001,-2.8000000000000003,-0.2,1.2000000000000002,6.800000000000001,-4.5,-0.9,5.8,16
643,10835.0,-0.7000000000000001,-0.5,-3.2,-0.8,1.4000000000000001,6.5,2.9,4.1000000000000005,10.3,16
644,10853.0,-1.0,-0.30000000000000004,-3.3000000000000003,-1.1,1.5,6.4,5.6,0.6000000000000001,13.6,16
645,10868.0,-1.2000000000000002,-0.30000000000000004,-3.3000000000000003,-1.2000000000000002,1.5,6.4,4.800000000000001,-10.700000000000001,14.3,16
646,10885.0,-1.0,-0.4,-3.2,-0.9,1.3,6.5,1.6,-21.6,10.8,16
647,10902.0,-0.9,-0.6000000000000001,-2.9000000000000004,-0.9,1.3,6.5,-0.6000000000000001,-24.5,6.8,16
648,10920.0,-0.8,-0.5,-2.7,-0.7000000000000001,1.3,6.800000000000001,2.4000000000000004,-16.2,5.1,16
649,10935.0,-0.8,-0.5,-2.5,-0.7000000000000001,1.3,7.1000000000000005,2.8,-12.000000000000002,3.7000000000000006,16
650,10952.0,-0.9,-0.4,-2.2,-0.7000000000000001,1.4000000000000001,7.4,-2.5,-7.300000000000001,1.9,16
651,10968.0,-1.0,-0.4,-1.9000000000000001,-0.9,1.5,7.9,-10.2,0.2,-0.7,16
652,11001.0,-1.7000000000000002,0.0,-0.2,-1.6,1.7000000000000002,9.5,-21.6,9.600000000000001,-1.3,16
653,11019.0,-1.6,0.0,0.30000000000000004,-1.4000000000000001,1.7000000000000002,10.4,-22.7,11.9,-1.3,16
654,11035.0,-1.5,0.1,1.3,-1.5,1.7000000000000002,11.100000000000001,-15.000000000000002,17.8,-0.9,16
655,11052.0,-1.6,0.1,2.0,-1.6,1.7000000000000002,11.600000000000001,-4.2,20.4,-0.2,16
656,11068.0,-1.5,0.1,2.5,-1.6,1.7000000000000002,12.100000000000001,3.5,16.3,0.4,16
657,11085.0,-1.3,0.2,2.7,-1.4000000000000001,1.8,12.4,6.8,12.6,1.3,16
658,11101.0,-1.2000000000000002,0.2,3.0,-1.4000000000000001,1.9000000000000001,12.600000000000001,9.3,12.200000000000001,5.1,16
659,11118.0,-1.0,0.30000000000000004,3.0,-1.2000000000000002,1.9000000000000001,12.700000000000001,11.6,15.100000000000001,11.700000000000001,16
660,11135.0,-1.0,0.30000000000000004,3.0,-1.3,2.0,12.5,14.0,18.2,18.0,16
661,11151.0,-1.1,0.6000000000000001,2.7,-1.4000000000000001,2.3000000000000003,12.4,18.400000000000002,22.3,22.4,16
662,11168.0,-0.7000000000000001,0.5,2.8000000000000003,-1.0,2.3000000000000003,12.5,15.8,19.6,22.5,16
663,11185.0,-0.30000000000000004,0.4,2.7,-0.6000000000000001,2.1,12.4,-1.6,10.700000000000001,17.599999999999998,16
664,11202.0,0.0,0.4,2.5,-0.4,2.1,12.200000000000001,-12.9,5.6,17.3,16
665,11218.0,0.5,0.0,2.1,0.1,1.7000000000000002,11.8,-15.399999999999999,8.600000000000001,19.9,16
666,11235.0,0.7000000000000001,-0.1,1.8,0.4,1.6,11.4,-15.2,14.700000000000001,24.000000000000004,16
667,11253.0,1.2000000000000002,-0.30000000000000004,1.4000000000000001,0.9,1.3,11.100000000000001,-12.000000000000002,18.6,28.0,16
668,11268.0,2.0,-0.7000000000000001,1.2000000000000002,1.6,0.9,11.0,-9.700000000000001,18.1,28.700000000000003,16
669,11286.0,2.6,-0.9,1.0,2.4000000000000004,0.6000000000000001,10.700000000000001,-8.200000000000001,12.700000000000001,25.6,16
670,11301.0,3.2,-1.0,0.5,2.7,0.6000000000000001,10.200000000000001,-1.0,11.2,22.3,16
671,11318.0,3.1,-1.0,-0.4,2.6,0.6000000000000001,9.3,13.5,14.200000000000001,20.6,16
672,11335.0,3.1,-0.9,-0.9,2.6,0.8,8.6,26.6,14.200000000000001,16.900000000000002,16
673,11352.0,3.1,-0.8,-1.7000000000000002,2.6,1.0,7.9,29.800000000000004,11.5,9.1,16
674,11370.0,2.8000000000000003,-0.7000000000000001,-2.4000000000000004,2.2,1.1,7.300000000000001,22.6,7.400000000000001,-2.7,16
675,11385.0,2.4000000000000004,-0.5,-2.6,1.4000000000000001,1.5,7.0,8.600000000000001,1.2000000000000002,-11.6,16
676,11405.0,1.4000000000000001,-0.1,-2.7,0.7000000000000001,1.9000000000000001,7.1000000000000005,-6.9,-6.2,-12.6,16
677,11419.0,0.9,0.30000000000000004,-2.5,0.4,2.1,7.2,-16.700000000000003,-13.6,-9.1,16
678,11435.0,0.7000000000000001,0.30000000000000004,-2.4000000000000004,0.30000000000000004,2.0,7.300000000000001,-18.6,-14.3,-5.4,16
679,11452.0,0.7000000000000001,0.2,-2.3000000000000003,0.30000000000000004,1.9000000000000001,7.4,-17.400000000000002,-12.8,-5.9,16
680,11469.0,0.5,0.2,-2.1,0.1,1.8,7.6000000000000005,-15.399999999999999,-13.3,-9.3,16
681,11485.0,0.0,0.30000000000000004,-1.8,-0.30000000000000004,1.9000000000000001,7.9,-12.000000000000002,-15.2,-11.8,16
682,11502.0,0.0,0.30000000000000004,-1.7000000000000002,-0.4,1.9000000000000001,8.1,-8.9,-17.8,-13.0,16
683,11518.0,-0.30000000000000004,0.30000000000000004,-1.4000000000000001,-0.5,1.9000000000000001,8.3,-6.2,-20.1,-13.3,16
684,11535.0,-0.30000000000000004,0.4,-1.3,-0.5,1.9000000000000001,8.3,-4.0,-19.1,-12.6,16
685,11552.0,-0.30000000000000004,0.30000000000000004,-1.3,-0.5,1.9000000000000001,8.3,-1.2000000000000002,-15.399999999999999,-11.6,16
686,11568.0,-0.4,0.4,-1.3,-0.5,1.9000000000000001,8.3,0.2,-11.6,-11.4,16
687,11586.0,-0.5,0.4,-1.2000000000000002,-0.6000000000000001,1.9000000000000001,8.4,-2.1,-8.4,-13.3,16
688,11602.0,-0.8,0.4,-1.1,-1.0,2.1,8.6,-3.2,-6.9,-14.100000000000001,16
689,11618.0,-1.1,0.6000000000000001,-0.8,-1.1,2.2,8.8,-4.6000000000000005,-6.4,-13.4,16
690,11635.0,-1.0,0.6000000000000001,-0.6000000000000001,-1.1,2.2,8.8,-4.6000000000000005,-6.4,-13.4,16
691,11652.0,-0.9,0.5,0.1,-0.9,2.0,9.9,-12.100000000000001,-4.9,-14.4,16
692,11669.0,-0.8,0.5,0.6000000000000001,-0.9,2.0,10.3,-8.600000000000001,4.0,-13.3,16
693,11689.0,-0.9,0.6000000000000001,0.9,-1.1,2.1,10.5,-4.2,12.6,-11.8,16
694,11705.0,-1.1,0.7000000000000001,1.2000000000000002,-1.3,2.1,10.8,-2.1,16.1,-9.8,16
695,11719.0,-1.0,0.7000000000000001,1.4000000000000001,-1.2000000000000002,2.1,11.100000000000001,0.30000000000000004,17.7,-7.8,16
696,11735.0,-0.6000000000000001,0.5,1.8,-0.9,2.0,11.5,2.8,18.3,-7.699999999999999,16
697,11752.0,-0.4,0.30000000000000004,2.0,-0.7000000000000001,1.8,11.8,5.7,18.5,-9.3,16
698,11768.0,-0.1,0.30000000000000004,2.3000000000000003,-0.5,1.8,12.0,9.3,19.8,-10.3,16
699,11785.0,0.1,0.2,2.3000000000000003,-0.4,1.8,11.9,9.8,19.8,-10.1,16
700,11802.0,0.1,0.2,2.1,-0.5,1.8,11.600000000000001,7.500000000000001,17.9,-9.0,16
701,11818.0,-0.2,0.5,1.7000000000000002,-1.0,2.2,11.3,5.9,20.1,-5.8,16
702,11835.0,-0.9,0.9,1.8,-1.6,2.5,11.5,4.7,16.900000000000002,-1.7,16
703,11853.0,-0.6000000000000001,0.8,1.8,-1.4000000000000001,2.5,11.600000000000001,-3.9,7.1000000000000005,-0.5,16
704,11868.0,-0.6000000000000001,0.8,1.7000000000000002,-1.4000000000000001,2.3000000000000003,11.5,-10.600000000000001,-0.30000000000000004,-2.4000000000000004,16
705,11885.0,-0.7000000000000001,0.30000000000000004,1.6,-1.3,1.8,11.3,-12.700000000000001,-5.300000000000001,-3.6,16
706,11901.0,-0.30000000000000004,-0.1,0.8,-1.0,1.5,10.600000000000001,-12.000000000000002,-4.9,-3.2,16
707,11918.0,-0.4,-0.1,0.4,-1.0,1.3,10.0,-3.7000000000000006,1.5000000000000002,1.0,16
708,11935.0,-0.2,-0.5,-0.1,-0.9,1.0,9.700000000000001,4.6000000000000005,4.800000000000001,5.9,16
709,11951.0,-0.1,-0.6000000000000001,-0.2,-0.6000000000000001,0.8,9.4,12.6,3.2,8.700000000000001,16
710,11968.0,0.2,-0.9,-0.5,-0.4,0.7000000000000001,9.200000000000001,22.4,4.0,9.1,16
711,11986.0,0.30000000000000004,-1.0,-0.8,-0.4,0.7000000000000001,8.8,30.4,4.800000000000001,8.600000000000001,16
712,12006.0,0.2,-0.8,-1.2000000000000002,-0.5,0.9,8.5,32.6,3.3000000000000003,9.700000000000001,16
713,12018.0,0.30000000000000004,-0.7000000000000001,-1.4000000000000001,-0.4,1.1,8.200000000000001,27.2,-0.2,11.6,16
714,12035.0,0.4,-0.7000000000000001,-1.4000000000000001,-0.30000000000000004,1.2000000000000002,8.3,15.7,-5.4,12.5,16
715,12051.0,0.6000000000000001,-0.7000000000000001,-1.0,-0.1,1.2000000000000002,8.700000000000001,2.4000000000000004,-13.6,12.000000000000002,16
716,12068.0,0.8,-0.7000000000000001,-0.6000000000000001,0.30000000000000004,1.2000000000000002,9.1,-8.9,-21.400000000000002,11.4,16
717,12085.0,1.0,-0.7000000000000001,-0.5,0.5,1.1,9.1,-14.200000000000001,-24.200000000000003,10.2,16
718,12102.0,0.7000000000000001,-0.6000000000000001,-0.7000000000000001,0.2,1.2000000000000002,8.9,-13.0,-20.6,10.700000000000001,16
719,12118.0,0.5,-0.5,-0.9,0.1,1.3,8.6,-8.4,-14.800000000000002,13.0,16
720,12135.0,0.2,-0.4,-1.2000000000000002,-0.2,1.4000000000000001,8.5,-4.3999999999999995,-9.700000000000001,14.600000000000001,16
721,12152.0,-0.2,-0.30000000000000004,-1.2000000000000002,-0.5,1.5,8.4,0.8,-9.9,15.7,16
722,12168.0,-0.30000000000000004,-0.2,-1.2000000000000002,-0.6000000000000001,1.5,8.4,6.6000000000000005,-13.8,14.700000000000001,16
723,12185.0,-0.30000000000000004,-0.2,-1.4000000000000001,-0.6000000000000001,1.6,8.200000000000001,10.5,-17.400000000000002,11.5,16
724,12203.0,-0.5,-0.2,-1.4000000000000001,-0.7000000000000001,1.6,8.200000000000001,13.100000000000001,-19.200000000000003,7.9,16
725,12218.0,-0.7000000000000001,-0.2,-1.4000000000000001,-0.8,1.7000000000000002,8.1,15.5,-18.3,6.5,16
726,12235.0,-0.7000000000000001,-0.2,-1.6,-0.8,1.7000000000000002,8.0,16.3,-16.2,5.300000000000001,16
727,12252.0,-0.8,-0.30000000000000004,-1.4000000000000001,-0.8,1.6,8.1,12.9,-14.3,4.1000000000000005,16
728,12269.0,-0.8,-0.4,-1.3,-0.9,1.5,8.3,8.0,-11.9,2.1,16
729,12285.0,-1.2000000000000002,-0.4,-1.1,-1.4000000000000001,1.6,8.6,6.4,-4.6000000000000005,2.7,16
730,12301.0,-1.7000000000000002,-0.30000000000000004,-0.7000000000000001,-1.7000000000000002,1.7000000000000002,8.9,5.9,1.0999999999999999,6.000000000000001,16
731,12318.0,-1.8,-0.30000000000000004,-0.5,-1.7000000000000002,1.6,9.3,4.0,3.9,9.0,16
732,12335.0,-1.5,-0.4,0.1,-1.5,1.6,9.700000000000001,4.1000000000000005,7.400000000000001,9.600000000000001,16
733,12353.0,-1.2000000000000002,-0.4,0.7000000000000001,-1.2000000000000002,1.7000000000000002,10.3,5.500000000000001,11.700000000000001,8.200000000000001,16
734,12368.0,-0.9,-0.30000000000000004,1.3,-1.0,1.7000000000000002,10.8,4.1000000000000005,10.700000000000001,4.7,16
735,12385.0,-0.7000000000000001,-0.2,1.6,-0.7000000000000001,1.9000000000000001,11.200000000000001,-0.9,7.400000000000001,0.8,16
736,12402.0,-0.30000000000000004,-0.1,1.9000000000000001,-0.4,2.0,11.4,-7.300000000000001,5.8,-2.0,16
737,12418.0,0.1,-0.1,2.0,-0.1,1.9000000000000001,11.5,-15.000000000000002,4.7,-4.0,16
738,12435.0,0.2,-0.1,1.9000000000000001,0.0,1.9000000000000001,11.4,-22.2,6.7,-4.800000000000001,16
739,12452.0,0.2,0.2,1.8,-0.1,2.1,11.4,-25.400000000000002,13.4,-3.6,16
740,12468.0,-0.1,0.5,1.9000000000000001,-0.30000000000000004,2.3000000000000003,11.5,-27.7,17.599999999999998,-1.0999999999999999,16
741,12485.0,0.30000000000000004,0.4,2.0,0.1,2.1,11.8,-39.400000000000006,11.1,-0.9,16
742,12501.0,0.7000000000000001,0.5,2.1,0.5,2.1,11.700000000000001,-42.800000000000004,6.3,-0.1,16
743,12518.0,1.1,0.30000000000000004,1.8,0.8,1.8,11.5,-30.5,10.5,2.3000000000000003,16
744,12535.0,1.5,0.1,1.7000000000000002,1.3,1.5,11.200000000000001,-19.200000000000003,12.9,1.6,16
745,12551.0,1.7000000000000002,0.1,1.0,1.4000000000000001,1.5,10.600000000000001,-7.9,10.4,0.6000000000000001,16
746,12572.0,2.1,-0.1,0.5,1.7000000000000002,1.2000000000000002,10.200000000000001,1.8,6.9,0.0,16
747,12585.0,2.4000000000000004,-0.2,0.30000000000000004,2.2,1.2000000000000002,9.9,2.6,-2.4000000000000004,-3.3000000000000003,16
748,12603.0,2.7,-0.2,-0.1,2.4000000000000004,1.2000000000000002,9.600000000000001,1.9,-10.600000000000001,-4.1000000000000005,16
749,12618.0,2.7,-0.1,-0.6000000000000001,2.5,1.4000000000000001,9.200000000000001,4.800000000000001,-13.6,-1.7,16
750,12637.0,2.9000000000000004,0.0,-1.2000000000000002,2.7,1.4000000000000001,8.6,7.9,-11.6,-0.7,16
751,12651.0,2.9000000000000004,0.0,-1.5,2.6,1.5,8.1,8.5,-9.600000000000001,-3.5,16
752,12672.0,2.4000000000000004,0.2,-2.0,2.2,1.7000000000000002,7.7,6.6000000000000005,-9.4,-9.200000000000001,16
753,12685.0,1.5,0.30000000000000004,-2.1,1.5,1.8,7.6000000000000005,-0.8,-14.0,-15.299999999999999,16
754,12702.0,1.5,0.30000000000000004,-2.1,1.5,1.8,7.6000000000000005,-0.8,-14.0,-15.299999999999999,16
755,12718.0,0.7000000000000001,0.8,-1.5,0.7000000000000001,2.2,8.200000000000001,-17.200000000000003,-28.1,-19.700000000000003,16
756,12735.0,0.4,0.7000000000000001,-1.3,0.6000000000000001,2.1,8.4,-16.3,-30.799999999999997,-22.1,16
757,12752.0,0.4,0.7000000000000001,-1.3,0.7000000000000001,2.0,8.3,-12.5,-30.799999999999997,-26.200000000000003,16
758,12774.0,0.4,0.5,-1.4000000000000001,0.7000000000000001,1.8,8.200000000000001,-9.5,-28.8,-32.0,16
759,12785.0,0.0,0.4,-1.5,0.30000000000000004,1.7000000000000002,8.200000000000001,-7.400000000000001,-24.8,-37.4,16
760,12802.0,-0.30000000000000004,0.4,-1.5,-0.2,1.6,8.200000000000001,-8.4,-22.4,-40.1,16
761,12820.0,-1.2000000000000002,0.30000000000000004,-1.5,-0.8,1.5,8.1,-12.3,-22.1,-39.8,16
762,12835.0,-1.7000000000000002,0.2,-1.3,-1.2000000000000002,1.4000000000000001,8.3,-17.9,-25.700000000000003,-37.300000000000004,16
763,12852.0,-1.9000000000000001,0.2,-1.1,-1.4000000000000001,1.4000000000000001,8.8,-22.3,-28.400000000000002,-33.1,16
764,12873.0,-1.8,0.2,-0.4,-1.1,1.3,9.3,-22.3,-28.900000000000002,-28.8,16
765,12885.0,-1.6,0.1,-0.1,-1.1,1.3,9.3,-17.9,-25.8,-26.0,16
766,12902.0,-1.5,0.2,0.30000000000000004,-0.9,1.2000000000000002,10.0,-9.8,-20.0,-23.5,16
767,12918.0,-1.6,0.30000000000000004,0.4,-0.9,1.3,10.100000000000001,-3.1,-15.100000000000001,-20.6,16
768,12935.0,-1.5,0.4,0.5,-0.8,1.5,10.200000000000001,0.4,-12.200000000000001,-18.2,16
769,12955.0,-1.2000000000000002,0.6000000000000001,0.5,-0.5,1.6,10.200000000000001,2.8,-7.0,-16.2,16
770,12969.0,-1.3,0.7000000000000001,0.5,-0.6000000000000001,1.8,10.100000000000001,4.9,1.5000000000000002,-14.4,16
771,13003.0,-1.4000000000000001,1.0,0.30000000000000004,-0.8,2.1,10.0,2.5,18.3,-8.9,16
772,13018.0,-1.6,1.0,0.7000000000000001,-1.0,2.1,10.5,-1.4,20.4,-5.8,16
773,13035.0,-1.4000000000000001,1.0,1.3,-0.9,2.1,11.0,-2.8,21.200000000000003,-2.7,16
774,13052.0,-1.2000000000000002,0.9,1.7000000000000002,-0.5,1.8,11.700000000000001,-3.7000000000000006,18.7,-1.0,16
775,13078.0,0.1,0.30000000000000004,2.6,0.2,1.5,12.200000000000001,-3.4,11.6,0.6000000000000001,16
776,13088.0,0.6000000000000001,0.0,2.8000000000000003,1.1,1.1,12.5,-0.2,9.4,1.6,16
777,13103.0,0.9,-0.1,2.2,1.2000000000000002,1.0,12.0,10.600000000000001,22.2,1.7,16
778,13118.0,0.2,0.1,1.6,0.0,1.4000000000000001,11.4,25.3,37.300000000000004,1.9,16
779,13135.0,-1.0,0.30000000000000004,1.9000000000000001,-0.9,1.6,11.600000000000001,23.3,31.099999999999998,3.3000000000000003,16
780,13152.0,-0.9,0.4,1.9000000000000001,-0.8,1.9000000000000001,11.9,1.4,12.4,5.500000000000001,16
781,13170.0,-0.7000000000000001,0.7000000000000001,2.4000000000000004,-0.4,1.7000000000000002,12.4,-8.4,5.4,9.600000000000001,16
782,13189.0,0.2,0.0,2.7,0.4,1.2000000000000002,12.5,-6.000000000000001,2.0,10.3,16
783,13202.0,0.8,-0.30000000000000004,2.5,1.4000000000000001,0.7000000000000001,12.200000000000001,3.3000000000000003,-0.6000000000000001,5.9,16
784,13218.0,1.9000000000000001,-0.8,2.2,2.1,0.4,11.8,9.700000000000001,2.0,-1.7,16
785,13235.0,2.1,-0.9,1.8,2.1,0.4,11.8,9.700000000000001,2.0,-1.7,16
786,13251.0,1.3,-1.0,0.6000000000000001,1.3,0.4,10.4,24.3,10.600000000000001,-5.0,16
787,13268.0,1.0,-1.0,0.2,0.9,0.30000000000000004,9.8,30.100000000000005,12.100000000000001,-0.6000000000000001,16
788,13286.0,0.6000000000000001,-1.2000000000000002,-0.5,0.5,0.30000000000000004,9.200000000000001,29.200000000000003,9.0,3.1,16
789,13303.0,0.2,-1.1,-0.7000000000000001,0.2,0.4,9.1,23.2,2.1,7.6,16
790,13319.0,0.30000000000000004,-1.1,-0.7000000000000001,0.4,0.5,9.1,17.5,-4.6000000000000005,12.000000000000002,16
791,13335.0,0.5,-1.2000000000000002,-0.5,0.6000000000000001,0.4,9.3,13.9,-10.700000000000001,14.0,16
792,13352.0,1.0,-1.3,-0.5,1.1,0.4,9.3,11.3,-14.700000000000001,14.100000000000001,16
793,13368.0,1.2000000000000002,-1.3,-0.6000000000000001,1.4000000000000001,0.4,9.1,11.000000000000002,-12.000000000000002,12.700000000000001,16
794,13389.0,1.2000000000000002,-1.3,-0.9,1.3,0.4,8.700000000000001,12.8,-4.5,11.5,16
795,13402.0,0.8,-1.2000000000000002,-1.4000000000000001,1.0,0.5,8.3,13.5,4.5,10.700000000000001,16
796,13420.0,0.4,-1.1,-1.5,0.2,0.8,8.1,11.700000000000001,10.0,12.4,16
797,13436.0,-0.30000000000000004,-0.9,-1.7000000000000002,-0.2,0.9,8.0,8.700000000000001,10.3,15.7,16
798,13452.0,-0.5,-0.8,-1.8,-0.4,1.0,7.9,5.500000000000001,7.400000000000001,18.5,16
799,13468.0,-0.5,-0.8,-1.8,-0.30000000000000004,1.0,7.800000000000001,4.5,4.1000000000000005,19.6,16
800,13486.0,-0.30000000000000004,-0.7000000000000001,-2.0,-0.2,1.1,7.7,5.0,2.9,19.200000000000003,16
801,13503.0,-0.1,-0.8,-1.8,0.0,1.1,7.800000000000001,4.9,2.9,17.7,16
802,13519.0,-0.1,-0.7000000000000001,-1.7000000000000002,0.0,1.1,8.0,4.800000000000001,3.3000000000000003,14.600000000000001,16
803,13535.0,-0.30000000000000004,-0.6000000000000001,-1.4000000000000001,-0.2,1.3,8.3,4.7,2.3000000000000003,13.3,16
804,13552.0,-0.2,-0.4,-1.1,0.0,1.4000000000000001,8.6,2.1,-0.8,12.3,16
805,13570.0,0.0,-0.4,-0.8,0.2,1.4000000000000001,8.8,-3.4,-3.4,10.1,16
806,13590.0,0.2,-0.4,-0.30000000000000004,0.30000000000000004,1.4000000000000001,9.200000000000001,-8.200000000000001,-2.9,8.1,16
807,13603.0,0.2,-0.4,-0.1,0.4,1.4000000000000001,9.600000000000001,-9.200000000000001,1.4,7.8,16
808,13618.0,0.2,-0.4,0.2,0.30000000000000004,1.3,10.0,-5.8,7.300000000000001,8.5,16
809,13635.0,0.1,-0.4,0.5,0.30000000000000004,1.3,10.200000000000001,-1.3,12.100000000000001,8.600000000000001,16
810,13652.0,0.0,-0.4,0.7000000000000001,0.1,1.4000000000000001,10.3,1.8,14.0,8.200000000000001,16
811,13669.0,-0.1,-0.2,0.6000000000000001,-0.1,1.6,10.200000000000001,3.8,13.9,8.799999999999999,16
812,13689.0,-0.30000000000000004,0.0,0.30000000000000004,-0.2,1.7000000000000002,9.9,5.300000000000001,14.500000000000002,9.700000000000001,16
813,13707.0,-0.4,0.0,0.1,-0.5,1.8,9.700000000000001,5.300000000000001,14.3,10.3,16
814,13718.0,-0.6000000000000001,0.1,0.0,-0.6000000000000001,1.9000000000000001,9.600000000000001,3.7000000000000006,13.100000000000001,11.1,16
815,13736.0,-0.6000000000000001,0.2,0.1,-0.7000000000000001,2.0,9.8,2.5,12.3,12.100000000000001,16
816,13752.0,-0.6000000000000001,0.2,0.30000000000000004,-0.7000000000000001,2.1,10.0,3.1,10.3,12.200000000000001,16
817,13768.0,-0.5,0.30000000000000004,0.5,-0.7000000000000001,2.1,10.100000000000001,5.0,8.4,10.9,16
818,13788.0,-0.6000000000000001,0.4,0.7000000000000001,-0.8,2.2,10.3,3.0000000000000004,3.2,9.3,16
819,13801.0,-0.6000000000000001,0.4,0.8,-0.7000000000000001,2.3000000000000003,10.4,-3.8,-6.000000000000001,8.3,16
820,13821.0,-0.30000000000000004,0.30000000000000004,0.9,-0.4,2.2,10.5,-12.3,-12.000000000000002,8.9,16
821,13835.0,-0.2,0.2,1.0,-0.2,2.0,10.8,-22.6,-18.6,10.2,16
822,13852.0,0.1,0.1,1.5,0.2,1.7000000000000002,11.200000000000001,-34.300000000000004,-27.3,13.100000000000001,16
823,13868.0,0.7000000000000001,-0.2,1.8,0.9,1.4000000000000001,11.600000000000001,-39.400000000000006,-30.000000000000004,17.9,16
824,13887.0,1.3,-0.4,1.7000000000000002,1.4000000000000001,1.1,11.4,-28.3,-17.7,23.2,16
825,13904.0,1.4000000000000001,-0.4,1.2000000000000002,1.5,1.0,10.8,-9.5,-0.4,25.900000000000002,16
826,13918.0,1.2000000000000002,-0.30000000000000004,0.5,1.4000000000000001,1.1,10.3,7.300000000000001,11.1,26.9,16
827,13936.0,1.2000000000000002,-0.2,0.4,1.6,1.4000000000000001,10.0,17.1,12.6,25.2,16
828,13952.0,1.7000000000000002,0.0,0.0,1.9000000000000001,1.4000000000000001,9.600000000000001,19.6,8.799999999999999,18.6,16
829,13968.0,1.8,-0.1,-0.4,2.0,1.4000000000000001,9.3,15.6,6.7,10.2,16
830,13995.0,1.5,-0.1,-0.9,1.5,1.5,8.700000000000001,-1.0,4.1000000000000005,-3.6,16
831,14001.0,1.5,-0.1,-0.9,1.5,1.5,8.700000000000001,-1.0,4.1000000000000005,-3.6,16
832,14018.0,1.0,0.0,-1.0,1.2000000000000002,1.5,8.700000000000001,-10.700000000000001,4.9,-5.1,16
833,14035.0,0.9,-0.1,-0.9,1.0,1.5,8.9,-18.900000000000002,4.1000000000000005,-4.0,16
834,14054.0,0.8,-0.1,-0.6000000000000001,0.9,1.4000000000000001,9.200000000000001,-20.6,5.2,-1.9,16
835,14068.0,0.7000000000000001,-0.1,-0.5,0.9,1.4000000000000001,9.200000000000001,-20.6,5.2,-1.9,16
836,14087.0,0.5,-0.1,-0.6000000000000001,0.6000000000000001,1.3,9.200000000000001,-7.0,9.9,0.2,16
837,14106.0,0.0,0.0,-1.1,0.2,1.4000000000000001,8.700000000000001,1.9,10.8,-0.9,16
838,14118.0,-0.30000000000000004,0.2,-1.3,-0.30000000000000004,1.6,8.3,7.0,9.200000000000001,-1.9,16
839,14135.0,-0.8,0.4,-1.7000000000000002,-0.8,1.8,8.0,5.8,5.0,-1.4,16
840,14151.0,-1.0,0.4,-1.8,-1.0,1.9000000000000001,7.9,-1.5000000000000002,-2.7,0.4,16
841,14168.0,-1.0,0.5,-1.6,-1.0,1.9000000000000001,8.200000000000001,-10.2,-9.200000000000001,2.4000000000000004,16
842,14185.0,-0.9,0.4,-1.0,-0.8,1.8,8.700000000000001,-17.200000000000003,-13.0,3.8,16
843,14202.0,-0.8,0.4,-0.7000000000000001,-0.6000000000000001,1.7000000000000002,9.200000000000001,-19.500000000000004,-14.800000000000002,5.500000000000001,16
844,14218.0,-0.5,0.30000000000000004,-0.2,-0.30000000000000004,1.6,9.5,-18.1,-13.0,6.9,16
845,14235.0,-0.4,0.30000000000000004,0.1,-0.2,1.5,9.700000000000001,-13.700000000000001,-8.1,8.0,16
846,14252.0,-0.5,0.30000000000000004,0.2,-0.4,1.6,9.8,-7.2,-2.6,9.8,16
847,14269.0,-0.6000000000000001,0.4,0.2,-0.4,1.6,9.9,-1.8,2.1,11.4,16
848,14286.0,-0.6000000000000001,0.5,0.1,-0.4,1.7000000000000002,9.8,1.5000000000000002,5.9,12.5,16
849,14303.0,-0.6000000000000001,0.6000000000000001,0.0,-0.5,1.8,9.700000000000001,2.5,10.0,13.4,16
850,14321.0,-0.8,0.6000000000000001,0.0,-0.8,1.9000000000000001,9.700000000000001,2.4000000000000004,13.0,14.700000000000001,16
851,14335.0,-1.0,0.7000000000000001,0.2,-0.9,2.0,9.9,2.1999999999999997,13.200000000000001,16.900000000000002,16
852,14351.0,-0.8,0.7000000000000001,0.30000000000000004,-0.6000000000000001,1.9000000000000001,10.200000000000001,-0.4,10.0,17.5,16
853,14369.0,-0.4,0.6000000000000001,0.7000000000000001,-0.30000000000000004,1.9000000000000001,10.5,-3.3000000000000003,6.3,16.0,16
854,14388.0,0.0,0.6000000000000001,0.9,0.0,1.8,10.600000000000001,-3.8,7.1000000000000005,14.800000000000002,16
855,14405.0,0.0,0.6000000000000001,0.9,0.0,1.9000000000000001,10.600000000000001,-0.8,12.700000000000001,16.0,16
856,14419.0,0.1,0.6000000000000001,0.9,0.1,1.9000000000000001,10.600000000000001,3.5,19.6,18.6,16
857,14435.0,0.1,0.6000000000000001,0.9,-0.1,1.9000000000000001,10.700000000000001,6.7,23.400000000000002,19.200000000000003,16
858,14452.0,0.0,0.7000000000000001,1.2000000000000002,-0.1,1.9000000000000001,11.100000000000001,3.7000000000000006,16.3,17.400000000000002,16
859,14469.0,0.4,0.6000000000000001,1.6,0.4,1.8,11.3,-4.7,2.8,14.200000000000001,16
860,14486.0,0.8,0.30000000000000004,1.5,0.7000000000000001,1.5,11.200000000000001,-9.200000000000001,-3.1,12.3,16
861,14502.0,0.9,0.1,1.3,0.8,1.2000000000000002,10.9,-9.8,-2.8,12.8,16
862,14520.0,0.9,-0.1,1.1,0.6000000000000001,1.1,10.8,-7.0,1.0,16.0,16
863,14535.0,0.6000000000000001,-0.2,1.1,0.5,1.0,11.0,-1.7,4.5,21.200000000000003,16
864,14552.0,0.6000000000000001,-0.30000000000000004,1.4000000000000001,0.5,0.9,11.200000000000001,1.5000000000000002,0.0,24.7,16
865,14568.0,0.7000000000000001,-0.30000000000000004,1.3,0.6000000000000001,0.9,11.0,5.2,-4.2,25.8,16
866,14585.0,0.7000000000000001,-0.30000000000000004,0.8,0.7000000000000001,0.9,10.5,12.6,-3.7000000000000006,27.3,16
867,14604.0,0.8,-0.30000000000000004,0.1,0.8,1.0,9.9,21.8,-0.7,28.6,16
868,14619.0,0.9,-0.30000000000000004,-0.30000000000000004,0.8,1.1,9.200000000000001,29.1,3.6,27.0,16
869,14635.0,0.7000000000000001,-0.30000000000000004,-1.0,0.7000000000000001,1.1,8.700000000000001,31.7,5.2,22.7,16
870,14652.0,0.6000000000000001,-0.4,-1.4000000000000001,0.5,1.1,8.3,28.6,3.8,17.1,16
871,14668.0,0.5,-0.5,-1.5,0.4,1.1,8.200000000000001,20.5,-0.30000000000000004,11.700000000000001,16
872,14687.0,0.30000000000000004,-0.6000000000000001,-1.4000000000000001,0.30000000000000004,1.0,8.4,10.9,-4.1000000000000005,8.200000000000001,16
873,14704.0,0.4,-0.8,-1.0,0.4,0.8,8.700000000000001,3.4,-7.500000000000001,5.1,16
874,14718.0,0.5,-0.9,-0.9,0.6000000000000001,0.6000000000000001,8.8,0.2,-7.9,1.2000000000000002,16
875,14735.0,0.6000000000000001,-1.1,-0.7000000000000001,0.7000000000000001,0.5,9.0,-3.1,-8.200000000000001,-3.9,16
876,14752.0,0.5,-1.1,-0.5,0.6000000000000001,0.5,9.200000000000001,-7.8,-11.000000000000002,-8.0,16
877,14768.0,0.4,-1.1,-0.30000000000000004,0.5,0.5,9.3,-10.4,-13.200000000000001,-8.799999999999999,16
878,14785.0,0.30000000000000004,-1.0,-0.5,0.30000000000000004,0.5,9.1,-9.700000000000001,-9.4,-7.300000000000001,16
879,14802.0,0.1,-1.0,-0.7000000000000001,-0.1,0.7000000000000001,8.8,-7.300000000000001,-3.1,-3.0000000000000004,16
880,14818.0,-0.5,-0.7000000000000001,-0.9,-0.5,0.9,8.700000000000001,-5.2,-0.5,3.4,16
881,14835.0,-0.8,-0.5,-1.0,-0.6000000000000001,1.0,8.700000000000001,-4.300000000000001,-0.9,8.3,16
882,14852.0,-0.9,-0.30000000000000004,-0.9,-0.7000000000000001,1.1,8.8,-3.7000000000000006,-4.0,11.000000000000002,16
883,14869.0,-1.0,-0.1,-0.8,-0.8,1.3,8.8,-2.6,-7.2,12.5,16
884,14885.0,-1.0,-0.1,-0.8,-0.8,1.4000000000000001,8.9,-0.2,-10.2,12.700000000000001,16
885,14902.0,-0.9,0.0,-0.8,-0.7000000000000001,1.5,8.9,2.1,-12.000000000000002,11.700000000000001,16
886,14918.0,-1.0,0.1,-0.7000000000000001,-0.7000000000000001,1.6,8.9,3.5,-11.8,9.9,16
887,14935.0,-1.0,0.1,-0.6000000000000001,-0.8,1.6,9.1,1.8,-11.3,7.1000000000000005,16
888,14952.0,-1.2000000000000002,0.2,-0.30000000000000004,-0.9,1.7000000000000002,9.3,-2.1,-9.600000000000001,4.9,16
889,14969.0,-1.2000000000000002,0.2,-0.1,-0.9,1.6,9.5,-7.0,-5.500000000000001,3.8,16
890,14985.0,-1.3,0.2,0.0,-1.0,1.6,9.700000000000001,-10.0,1.6,3.6,16
891,15002.0,-1.5,0.1,0.1,-1.2000000000000002,1.5,9.8,-11.3,9.700000000000001,4.0,16
892,15018.0,-1.8,0.2,0.5,-1.6,1.5,10.200000000000001,-10.700000000000001,14.4,4.6000000000000005,16
893,15035.0,-1.9000000000000001,0.2,0.7000000000000001,-1.7000000000000002,1.5,10.5,-8.799999999999999,15.100000000000001,5.7,16
894,15051.0,-1.8,0.2,1.1,-1.6,1.5,10.8,-7.8,12.6,6.8,16
895,15068.0,-1.5,0.2,1.3,-1.3,1.5,11.0,-7.0,9.5,8.200000000000001,16
896,15085.0,-1.3,0.2,1.2000000000000002,-1.1,1.4000000000000001,10.9,-3.5,10.4,10.4,16
897,15109.0,-0.8,0.2,1.3,-0.9,1.5,11.0,-0.8,12.5,12.5,16
898,15118.0,-0.7000000000000001,0.30000000000000004,1.3,-0.7000000000000001,1.5,11.100000000000001,0.6000000000000001,14.4,14.700000000000001,16
899,15135.0,-0.6000000000000001,0.30000000000000004,1.4000000000000001,-0.6000000000000001,1.6,11.100000000000001,3.4,18.400000000000002,18.1,16
900,15152.0,-0.4,0.4,1.3,-0.5,1.7000000000000002,11.0,7.300000000000001,22.4,21.200000000000003,16
901,15168.0,-0.2,0.5,1.3,-0.30000000000000004,1.8,11.0,10.600000000000001,24.3,22.3,16
902,15185.0,-0.1,0.5,1.4000000000000001,0.0,1.9000000000000001,11.3,10.2,19.700000000000003,21.1,16
903,15202.0,0.6000000000000001,0.5,1.6,0.5,1.8,11.3,6.8,13.5,17.5,16
904,15218.0,1.1,0.30000000000000004,1.4000000000000001,0.8,1.7000000000000002,11.100000000000001,4.800000000000001,14.500000000000002,13.8,16
905,15235.0,1.1,0.2,1.2000000000000002,0.6000000000000001,1.6,10.9,2.7,14.700000000000001,9.200000000000001,16
906,15252.0,0.7000000000000001,0.2,1.0,0.4,1.6,10.8,-2.8,9.5,6.9,16
907,15268.0,0.7000000000000001,0.0,1.0,0.4,1.4000000000000001,10.700000000000001,-7.1000000000000005,1.8,6.5,16
908,15285.0,1.2000000000000002,-0.30000000000000004,0.6000000000000001,0.9,1.1,10.4,-5.8,-1.0999999999999999,6.2,16
909,15301.0,1.3,-0.5,0.1,1.0,0.9,9.600000000000001,1.2000000000000002,5.7,4.9,16
910,15318.0,0.9,-0.5,-0.9,0.5,0.9,8.700000000000001,10.4,16.1,4.9,16
911,15335.0,0.1,-0.4,-1.6,-0.30000000000000004,1.0,8.200000000000001,18.7,21.1,7.0,16
912,15352.0,-0.2,-0.4,-1.8,-0.8,1.2000000000000002,7.9,20.4,17.3,8.9,16
913,15368.0,-0.30000000000000004,-0.30000000000000004,-1.8,-0.8,1.3,7.9,13.5,7.500000000000001,10.2,16
914,15385.0,0.0,-0.30000000000000004,-1.7000000000000002,-0.5,1.3,8.0,3.9,0.5,7.699999999999999,16
915,15406.0,0.1,-0.5,-1.3,-0.30000000000000004,1.0,8.3,-6.1000000000000005,-0.7,5.1,16
916,15418.0,0.1,-0.5,-1.1,-0.4,1.0,8.700000000000001,-15.8,-1.6,5.4,16
917,15435.0,0.1,-0.5,-0.8,-0.4,1.0,8.700000000000001,-15.8,-1.6,5.4,16
918,15452.0,0.2,-0.6000000000000001,-0.1,-0.1,0.8,9.9,-29.200000000000003,-4.5,10.700000000000001,16
919,15468.0,0.7000000000000001,-0.7000000000000001,0.6000000000000001,0.4,0.5,10.4,-28.0,-4.6000000000000005,13.5,16
920,15485.0,1.0,-0.9,0.8,0.6000000000000001,0.30000000000000004,10.5,-20.4,-0.6000000000000001,13.5,16
921,15502.0,0.8,-1.0,0.6000000000000001,0.30000000000000004,0.2,10.200000000000001,-7.2,6.5,13.700000000000001,16
922,15518.0,0.4,-0.9,0.1,-0.1,0.4,9.700000000000001,3.7000000000000006,11.8,15.2,16
923,15535.0,0.0,-0.6000000000000001,-0.30000000000000004,-0.1,0.4,9.700000000000001,9.3,13.0,17.5,16
924,15553.0,-0.2,-0.4,-0.8,-0.6000000000000001,0.8,9.0,10.8,11.3,18.2,16
925,15568.0,-0.30000000000000004,-0.30000000000000004,-1.2000000000000002,-0.9,1.0,8.4,8.5,10.1,17.8,16
926,15585.0,-0.7000000000000001,0.0,-1.5,-1.3,1.2000000000000002,8.200000000000001,0.5,6.8,18.1,16
927,15602.0,-0.9,0.1,-1.4000000000000001,-1.5,1.4000000000000001,8.4,-11.700000000000001,0.8,20.4,16
928,15618.0,-0.9,0.30000000000000004,-1.0,-1.3,1.4000000000000001,8.8,-23.0,-3.9,24.200000000000003,16
929,15635.0,-0.4,0.2,-0.6000000000000001,-0.9,1.3,9.200000000000001,-30.100000000000005,-5.1,28.3,16
930,15652.0,-0.2,0.1,-0.30000000000000004,-0.6000000000000001,1.2000000000000002,9.600000000000001,-31.5,-3.6,32.4,16
931,15679.0,0.1,0.30000000000000004,0.30000000000000004,-0.4,1.2000000000000002,9.9,-26.500000000000004,-0.5,37.4,16
932,15685.0,0.30000000000000004,0.30000000000000004,0.4,-0.2,1.2000000000000002,10.100000000000001,-18.3,1.0,41.2,16
933,15701.0,0.30000000000000004,0.30000000000000004,0.4,-0.2,1.1,10.200000000000001,-8.3,0.9,41.6,16
934,15718.0,0.1,0.30000000000000004,0.4,-0.4,1.2000000000000002,10.100000000000001,-1.0999999999999999,-2.3000000000000003,40.9,16
935,15735.0,-0.30000000000000004,0.5,0.2,-0.7000000000000001,1.5,9.9,2.8,-6.000000000000001,41.9,16
936,15751.0,-0.30000000000000004,0.7000000000000001,0.30000000000000004,-0.7000000000000001,1.6,10.0,4.5,-9.0,44.7,16
937,15768.0,-0.2,0.7000000000000001,0.30000000000000004,-0.4,1.6,10.100000000000001,4.300000000000001,-10.4,45.9,16
938,15785.0,0.1,0.6000000000000001,0.4,-0.1,1.6,10.100000000000001,3.7000000000000006,-8.5,44.9,16
939,15801.0,0.5,0.6000000000000001,0.30000000000000004,0.2,1.6,10.100000000000001,2.1,-4.300000000000001,42.7,16
940,15819.0,0.6000000000000001,0.6000000000000001,0.30000000000000004,0.30000000000000004,1.6,10.0,-1.5000000000000002,4.5,39.400000000000006,16
941,15835.0,0.30000000000000004,0.7000000000000001,0.30000000000000004,0.0,1.7000000000000002,10.100000000000001,-7.500000000000001,14.0,37.5,16
942,15852.0,0.2,0.9,0.7000000000000001,-0.1,1.8,10.5,-15.5,21.3,38.1,16
943,15874.0,0.4,0.9,1.3,0.0,1.8,11.0,-23.1,21.900000000000002,40.4,16
944,15885.0,0.6000000000000001,0.9,1.7000000000000002,0.30000000000000004,1.7000000000000002,11.5,-22.000000000000004,24.7,42.900000000000006,16
945,15901.0,0.9,0.8,2.0,0.4,1.6,11.8,-9.700000000000001,30.7,44.2,16
946,15918.0,0.9,0.8,2.0,0.4,1.6,11.9,8.0,32.5,44.2,16
947,15935.0,1.1,0.8,2.0,0.6000000000000001,1.7000000000000002,11.600000000000001,21.6,25.5,42.300000000000004,16
948,15952.0,1.5,0.6000000000000001,1.2000000000000002,0.9,1.6,11.0,32.0,18.5,39.300000000000004,16
949,15976.0,1.6,0.2,0.4,1.0,1.3,10.3,38.1,13.6,35.1,16
950,15998.0,1.6,0.1,-0.1,0.9,1.3,9.8,41.1,7.699999999999999,32.7,16
951,16001.0,1.6,0.1,-0.1,1.0,1.4000000000000001,9.600000000000001,40.3,1.4,31.7,16
952,16018.0,1.8,-0.1,-0.2,1.4000000000000001,1.3,9.5,34.2,-8.799999999999999,27.2,16
953,16035.0,2.2,-0.4,-0.4,1.7000000000000002,1.1,9.200000000000001,24.7,-15.7,18.5,16
954,16052.0,2.1,-0.5,-0.7000000000000001,1.6,1.1,9.0,15.000000000000002,-17.3,10.3,16
955,16071.0,1.6,-0.5,-1.1,1.2000000000000002,1.1,8.700000000000001,7.6,-13.0,7.400000000000001,16
956,16085.0,1.2000000000000002,-0.30000000000000004,-1.1,0.7000000000000001,1.4000000000000001,8.6,7.300000000000001,-3.9,10.8,16
957,16101.0,1.0,0.1,-0.9,0.7000000000000001,1.7000000000000002,8.8,11.4,3.0000000000000004,15.7,16
958,16118.0,1.5,0.0,-0.7000000000000001,1.1,1.7000000000000002,9.0,15.7,4.300000000000001,14.100000000000001,16
959,16137.0,1.7000000000000002,0.0,-0.6000000000000001,1.3,1.7000000000000002,9.0,22.000000000000004,2.1,6.000000000000001,16
960,16151.0,1.6,0.0,-0.8,1.1,1.8,8.8,27.400000000000002,0.8,-5.0,16
961,16168.0,0.7000000000000001,0.2,-1.0,0.4,2.1,8.700000000000001,25.400000000000002,-5.9,-15.000000000000002,16
962,16188.0,0.30000000000000004,0.30000000000000004,-0.8,-0.2,2.3000000000000003,9.0,13.9,-19.200000000000003,-21.3,16
963,16201.0,0.1,0.4,-0.5,-0.2,2.3000000000000003,9.0,13.9,-19.200000000000003,-21.3,16
964,16222.0,0.5,0.1,0.6000000000000001,0.30000000000000004,2.1,10.3,-11.6,-39.00000000000001,-28.3,16
965,16235.0,0.6000000000000001,0.0,0.8,0.6000000000000001,1.8,10.600000000000001,-13.100000000000001,-36.3,-29.300000000000004,16
966,16252.0,0.8,-0.30000000000000004,1.0,0.9,1.5,10.600000000000001,-6.5,-30.200000000000003,-29.000000000000004,16
967,16273.0,1.1,-0.6000000000000001,0.8,1.2000000000000002,1.3,10.4,5.4,-22.4,-29.600000000000005,16
968,16285.0,1.1,-0.7000000000000001,0.6000000000000001,1.1,1.2000000000000002,10.200000000000001,17.1,-14.800000000000002,-32.1,16
969,16303.0,0.7000000000000001,-0.7000000000000001,0.2,0.8,1.3,9.700000000000001,22.900000000000002,-13.100000000000001,-35.6,16
970,16319.0,0.30000000000000004,-0.5,-0.4,0.4,1.5,9.200000000000001,22.8,-15.000000000000002,-38.300000000000004,16
971,16335.0,0.2,-0.6000000000000001,-0.7000000000000001,0.4,1.5,8.700000000000001,19.9,-15.5,-40.4,16
972,16351.0,0.2,-0.7000000000000001,-1.4000000000000001,0.4,1.4000000000000001,8.1,16.3,-10.8,-43.1,16
973,16368.0,0.1,-0.8,-1.6,0.30000000000000004,1.3,7.9,7.500000000000001,-7.400000000000001,-45.800000000000004,16
974,16387.0,-0.1,-0.9,-1.5,0.1,1.3,8.0,-4.9,-7.300000000000001,-46.900000000000006,16
975,16403.0,-0.2,-0.9,-1.3,-0.1,1.2000000000000002,8.3,-13.700000000000001,-8.0,-45.9,16
976,16419.0,-0.4,-0.9,-1.0,-0.2,1.1,8.6,-17.0,-9.9,-44.5,16
977,16435.0,-0.4,-1.0,-0.8,-0.30000000000000004,1.0,8.8,-15.8,-12.100000000000001,-45.1,16
978,16452.0,-0.7000000000000001,-0.9,-0.7000000000000001,-0.8,1.1,8.9,-12.200000000000001,-11.3,-45.800000000000004,16
979,16468.0,-1.4000000000000001,-0.6000000000000001,-0.5,-1.2000000000000002,1.4000000000000001,9.1,-10.3,-12.9,-43.900000000000006,16
980,16491.0,-1.4000000000000001,-0.30000000000000004,-0.1,-1.2000000000000002,1.5,9.4,-12.700000000000001,-17.1,-40.8,16
981,16503.0,-1.2000000000000002,-0.30000000000000004,0.0,-1.0,1.5,9.600000000000001,-14.500000000000002,-17.599999999999998,-37.6,16
982,16518.0,-1.1,-0.30000000000000004,0.1,-0.8,1.5,9.700000000000001,-14.4,-14.800000000000002,-34.900000000000006,16
983,16535.0,-1.0,-0.30000000000000004,0.1,-0.8,1.5,9.700000000000001,-12.6,-10.700000000000001,-32.2,16
984,16552.0,-1.0,-0.30000000000000004,0.1,-0.8,1.5,9.600000000000001,-10.9,-6.7,-29.600000000000005,16
985,16569.0,-1.3,-0.1,-0.1,-1.2000000000000002,1.7000000000000002,9.4,-7.9,-1.0,-25.8,16
986,16589.0,-1.9000000000000001,0.1,-0.2,-1.7000000000000002,1.8,9.4,-5.6,0.7,-21.700000000000003,16
987,16603.0,-2.1,0.2,-0.1,-2.0,2.0,9.600000000000001,-6.5,-5.300000000000001,-18.2,16
988,16619.0,-2.2,0.4,0.30000000000000004,-2.0,2.1,9.9,-7.1000000000000005,-13.6,-15.299999999999999,16
989,16635.0,-2.0,0.5,0.4,-1.7000000000000002,2.2,10.200000000000001,-5.8,-19.3,-13.3,16
990,16651.0,-1.7000000000000002,0.5,0.7000000000000001,-1.4000000000000001,2.2,10.4,-3.2,-20.3,-11.5,16
991,16668.0,-1.5,0.5,1.0,-1.1,2.1,10.600000000000001,0.2,-19.6,-9.8,16
992,16689.0,-1.1,0.4,1.1,-0.7000000000000001,2.1,10.700000000000001,2.8,-17.0,-9.1,16
993,16701.0,-0.9,0.30000000000000004,1.2000000000000002,-0.6000000000000001,2.0,10.8,2.1999999999999997,-13.6,-9.5,16
994,16719.0,-0.9,0.30000000000000004,1.2000000000000002,-0.5,2.0,10.8,1.0,-10.1,-8.3,16
995,16735.0,-0.8,0.30000000000000004,1.2000000000000002,-0.5,2.0,10.8,1.0,-10.1,-8.3,16
996,16751.0,-0.7000000000000001,0.2,1.0,-0.4,1.9000000000000001,10.700000000000001,3.2,1.3,-2.5,16
997,16768.0,-0.6000000000000001,0.2,1.2000000000000002,-0.2,1.9000000000000001,10.9,2.9,0.9,-2.1,16
998,16790.0,-0.1,0.2,1.6,0.30000000000000004,1.9000000000000001,11.200000000000001,-2.6,-8.200000000000001,-4.1000000000000005,16
999,16806.0,0.2,0.1,1.0,0.6000000000000001,1.8,10.8,-5.6,-11.8,-7.400000000000001,16
1000,16818.0,0.0,0.1,0.7000000000000001,0.4,1.8,10.3,-2.1,-7.2,-7.500000000000001,16
1001,16835.0,-0.1,0.1,0.5,0.4,1.8,10.3,-2.1,-7.2,-7.500000000000001,16
1002,16853.0,-0.30000000000000004,0.1,0.30000000000000004,0.1,1.7000000000000002,10.0,-5.500000000000001,-11.2,-5.300000000000001,16
1003,16868.0,-0.2,-0.1,0.4,0.4,1.5,10.100000000000001,-5.4,-13.8,-5.8,16
1004,16886.0,0.0,-0.2,0.30000000000000004,0.5,1.4000000000000001,10.0,-5.4,-17.599999999999998,-7.2,16
1005,16902.0,0.1,-0.30000000000000004,0.2,0.9,1.3,9.8,-4.2,-17.200000000000003,-7.500000000000001,16
1006,16918.0,0.6000000000000001,-0.5,0.0,1.3,1.1,9.600000000000001,-0.5,-10.0,-8.799999999999999,16
1007,16936.0,0.8,-0.6000000000000001,-0.4,1.5,1.0,9.3,7.300000000000001,2.6,-10.9,16
1008,16954.0,0.6000000000000001,-0.7000000000000001,-0.8,1.2000000000000002,1.0,8.9,14.500000000000002,15.000000000000002,-13.5,16
1009,16969.0,0.4,-0.7000000000000001,-0.9,0.8,1.1,8.8,13.200000000000001,18.1,-15.9,16
1010,17010.0,0.30000000000000004,-0.5,-0.8,0.7000000000000001,1.2000000000000002,8.8,-7.1000000000000005,2.8,-14.4,16
1011,17020.0,0.5,-0.6000000000000001,-0.8,1.1,1.0,8.9,-15.5,0.2,-12.4,16
1012,17034.0,0.8,-0.7000000000000001,-0.7000000000000001,1.3,0.9,8.9,-18.900000000000002,4.9,-9.3,16
1013,17051.0,0.6000000000000001,-0.6000000000000001,-0.5,1.1,1.0,9.1,-20.0,9.5,-4.800000000000001,16
1014,17068.0,0.6000000000000001,-0.5,-0.4,0.9,1.0,9.5,-19.200000000000003,10.4,0.2,16
1015,17084.0,0.30000000000000004,-0.30000000000000004,0.2,0.6000000000000001,1.2000000000000002,9.9,-17.599999999999998,5.4,4.5,16
1016,17101.0,0.1,-0.1,0.30000000000000004,0.5,1.3,10.0,-14.0,-1.4,7.500000000000001,16
1017,17118.0,0.0,0.1,0.4,0.4,1.5,10.100000000000001,-7.300000000000001,-7.500000000000001,9.5,16
1018,17135.0,0.1,0.2,0.30000000000000004,0.6000000000000001,1.6,9.9,-0.6000000000000001,-11.000000000000002,9.5,16
1019,17151.0,0.1,0.30000000000000004,0.0,0.5,1.7000000000000002,9.700000000000001,5.8,-11.9,8.1,16
1020,17169.0,0.0,0.30000000000000004,-0.30000000000000004,0.4,1.8,9.3,9.700000000000001,-9.3,6.7,16
1021,17185.0,-0.30000000000000004,0.5,-0.6000000000000001,0.2,1.9000000000000001,9.0,9.8,-7.699999999999999,5.8,16
1022,17201.0,-0.30000000000000004,0.5,-0.6000000000000001,0.2,1.9000000000000001,9.0,9.8,-7.699999999999999,5.8,16
1023,17222.0,-0.6000000000000001,0.4,-0.9,0.0,1.9000000000000001,8.8,3.4,-4.9,1.9,16
1024,17234.0,-0.7000000000000001,0.5,-0.8,-0.1,2.0,8.9,-1.6,-5.8,0.9,16
1025,17251.0,-0.6000000000000001,0.5,-0.7000000000000001,0.0,1.9000000000000001,9.0,-7.0,-6.3,1.2000000000000002,16
1026,17268.0,-0.5,0.4,-0.6000000000000001,0.2,1.8,9.0,-10.3,-2.1,1.5000000000000002,16
1027,17286.0,-0.4,0.4,-0.5,0.1,1.8,9.200000000000001,-12.3,1.0999999999999999,1.9,16
1028,17302.0,-0.5,0.5,-0.4,0.1,1.9000000000000001,9.3,-14.4,3.1,4.0,16
1029,17318.0,-0.5,0.6000000000000001,-0.30000000000000004,0.1,1.9000000000000001,9.4,-17.200000000000003,2.7,6.4,16
1030,17335.0,-0.4,0.6000000000000001,-0.1,0.2,1.9000000000000001,9.600000000000001,-18.400000000000002,1.7,8.9,16
1031,17351.0,-0.2,0.7000000000000001,0.0,0.4,2.0,9.700000000000001,-16.5,3.7000000000000006,11.9,16
1032,17368.0,-0.1,0.7000000000000001,0.1,0.5,2.0,9.8,-13.0,4.9,14.3,16
1033,17386.0,0.0,0.8,0.2,0.6000000000000001,2.1,9.9,-7.699999999999999,5.9,16.6,16
1034,17403.0,0.1,0.8,0.2,0.6000000000000001,2.1,9.9,-1.6,6.1000000000000005,17.8,16
1035,17418.0,0.1,0.9,0.2,0.7000000000000001,2.3000000000000003,9.9,4.2,4.7,18.6,16
1036,17435.0,0.30000000000000004,1.0,0.1,0.9,2.4000000000000004,9.700000000000001,6.8,3.8,17.9,16
1037,17452.0,0.4,1.1,-0.1,1.0,2.5,9.600000000000001,7.9,2.7,16.2,16
1038,17468.0,0.7000000000000001,1.1,-0.4,1.3,2.6,9.3,8.5,4.2,13.200000000000001,16
1039,17488.0,0.7000000000000001,1.3,-0.6000000000000001,1.3,2.8000000000000003,9.1,6.3,7.699999999999999,9.5,16
1040,17502.0,0.6000000000000001,1.4000000000000001,-0.7000000000000001,1.1,3.0,9.0,1.8,9.5,7.500000000000001,16
1041,17518.0,0.5,1.4000000000000001,-0.5,1.0,3.0,9.200000000000001,-3.8,8.700000000000001,6.9,16
1042,17535.0,0.5,1.3,-0.5,1.1,2.9000000000000004,9.3,-9.8,5.9,6.1000000000000005,16
1043,17551.0,0.7000000000000001,1.3,-0.2,1.3,2.8000000000000003,9.5,-13.0,3.8,4.9,16
1044,17569.0,0.6000000000000001,1.0,0.0,1.2000000000000002,2.5,9.700000000000001,-11.8,7.400000000000001,4.2,16
1045,17585.0,0.4,0.9,0.2,1.0,2.4000000000000004,10.0,-8.3,4.9,5.4,16
1046,17602.0,0.7000000000000001,0.8,0.4,1.2000000000000002,2.3000000000000003,10.100000000000001,-5.2,1.3,6.000000000000001,16
1047,17618.0,0.8,0.7000000000000001,0.2,1.3,2.2,9.9,0.30000000000000004,1.6,5.0,16
1048,17635.0,0.7000000000000001,0.6000000000000001,0.0,1.2000000000000002,2.1,9.700000000000001,4.5,3.3000000000000003,0.9,16
1049,17652.0,0.7000000000000001,0.4,0.1,1.3,1.9000000000000001,9.8,1.0,2.0,-5.9,16
1050,17668.0,0.5,0.2,0.2,1.1,1.7000000000000002,9.9,-3.0000000000000004,1.5000000000000002,-11.8,16
1051,17686.0,0.30000000000000004,-0.1,0.2,0.9,1.5,10.0,-5.7,2.1999999999999997,-12.8,16
1052,17703.0,0.30000000000000004,-0.30000000000000004,0.2,0.7000000000000001,1.2000000000000002,10.0,-10.3,2.1999999999999997,-10.600000000000001,16
1053,17718.0,-0.1,-0.30000000000000004,0.6000000000000001,0.4,1.2000000000000002,10.4,-12.200000000000001,0.30000000000000004,-4.6000000000000005,16
1054,17735.0,-0.1,-0.2,0.9,0.5,1.2000000000000002,10.9,-6.8,-2.1999999999999997,1.5000000000000002,16
1055,17751.0,0.1,-0.5,1.5,0.7000000000000001,0.9,11.3,-0.4,-8.799999999999999,0.9,16
1056,17768.0,0.2,-0.6000000000000001,1.7000000000000002,0.8,0.9,11.5,6.8,-16.900000000000002,-4.6000000000000005,16
1057,17788.0,0.0,-0.5,1.6,0.7000000000000001,1.0,11.4,15.9,-19.700000000000003,-8.5,16
1058,17802.0,-0.1,-0.6000000000000001,1.5,0.5,0.9,11.200000000000001,19.700000000000003,-20.5,-9.600000000000001,16
1059,17818.0,-0.4,-0.8,1.2000000000000002,0.4,0.8,11.0,18.7,-20.1,-9.1,16
1060,17835.0,-0.5,-0.8,1.3,0.4,0.8,11.0,15.5,-17.3,-9.1,16
1061,17852.0,-0.5,-0.9,1.4000000000000001,0.4,0.6000000000000001,11.0,14.200000000000001,-12.700000000000001,-9.200000000000001,16
1062,17868.0,-0.4,-1.3,1.0,0.5,0.4,10.700000000000001,13.8,-3.7000000000000006,-10.3,16
1063,17885.0,-0.6000000000000001,-1.5,0.4,0.2,0.30000000000000004,10.200000000000001,15.399999999999999,7.1000000000000005,-9.8,16
1064,17901.0,-0.7000000000000001,-1.5,0.2,0.1,0.30000000000000004,9.700000000000001,19.8,18.900000000000002,-6.9,16
1065,17918.0,-0.7000000000000001,-1.6,-0.30000000000000004,0.0,0.2,9.4,23.8,24.9,-4.800000000000001,16
1066,17935.0,-0.7000000000000001,-1.6,-0.5,0.0,0.30000000000000004,9.0,26.700000000000003,26.9,-4.2,16
1067,17953.0,-0.6000000000000001,-1.7000000000000002,-0.8,0.0,0.30000000000000004,8.8,27.900000000000002,23.0,-5.1,16
1068,17968.0,-0.4,-1.7000000000000002,-1.1,0.1,0.4,8.5,25.6,17.599999999999998,-6.8,16
1069,17989.0,-0.30000000000000004,-1.6,-1.4000000000000001,0.2,0.5,8.3,19.200000000000003,12.200000000000001,-8.4,16
1070,18004.0,-0.2,-1.6,-1.5,0.30000000000000004,0.5,8.200000000000001,10.700000000000001,7.500000000000001,-8.5,16
1071,18018.0,-0.1,-1.5,-1.5,0.4,0.6000000000000001,8.1,3.0000000000000004,6.000000000000001,-7.1000000000000005,16
1072,18035.0,0.0,-1.5,-1.5,0.4,0.6000000000000001,8.1,3.0000000000000004,6.000000000000001,-7.1000000000000005,16
1073,18052.0,0.2,-1.5,-1.2000000000000002,0.6000000000000001,0.6000000000000001,8.6,-9.4,2.7,-6.5,16
1074,18068.0,0.30000000000000004,-1.5,-0.9,0.7000000000000001,0.6000000000000001,8.700000000000001,-10.1,2.9,-8.1,16
1075,18086.0,0.30000000000000004,-1.4000000000000001,-1.0,0.6000000000000001,0.6000000000000001,8.700000000000001,-9.700000000000001,3.5,-10.8,16
1076,18101.0,0.1,-1.2000000000000002,-1.0,0.30000000000000004,0.8,8.6,-10.9,3.0000000000000004,-12.6,16
1077,18119.0,-0.30000000000000004,-1.0,-1.1,-0.1,1.0,8.6,-14.500000000000002,2.1,-12.5,16
1078,18135.0,-0.5,-0.9,-1.0,-0.4,1.1,8.700000000000001,-19.6,-0.5,-11.2,16
1079,18151.0,-0.8,-0.6000000000000001,-0.8,-0.5,1.2000000000000002,9.0,-24.000000000000004,-3.8,-9.5,16
1080,18168.0,-0.7000000000000001,-0.5,-0.30000000000000004,-0.4,1.3,9.5,-25.2,-5.500000000000001,-8.200000000000001,16
1081,18186.0,-0.6000000000000001,-0.30000000000000004,0.2,-0.30000000000000004,1.3,9.9,-22.4,-5.7,-7.6,16
1082,18206.0,-0.5,-0.2,0.4,-0.2,1.4000000000000001,10.100000000000001,-15.8,-5.1,-7.500000000000001,16
1083,18218.0,-0.4,-0.1,0.5,0.0,1.4000000000000001,10.200000000000001,-8.3,-5.4,-7.6,16
1084,18235.0,-0.4,-0.1,0.4,0.0,1.5,10.0,-1.0,-5.9,-8.5,16
1085,18251.0,-0.4,0.0,0.0,0.0,1.6,9.700000000000001,4.3999999999999995,-5.6,-10.2,16
1086,18269.0,-0.5,0.1,-0.1,-0.2,1.7000000000000002,9.5,6.3,-5.7,-12.3,16
1087,18286.0,-0.8,0.2,-0.30000000000000004,-0.5,1.9000000000000001,9.4,4.800000000000001,-6.6000000000000005,-13.200000000000001,16
1088,18301.0,-1.1,0.4,-0.30000000000000004,-0.7000000000000001,2.0,9.4,-0.5,-10.0,-12.5,16
1089,18318.0,-1.2000000000000002,0.4,-0.1,-0.7000000000000001,2.1,9.700000000000001,-6.8,-13.9,-11.000000000000002,16
1090,18335.0,-1.0,0.5,0.30000000000000004,-0.5,2.0,10.0,-10.1,-15.100000000000001,-9.700000000000001,16
1091,18351.0,-0.8,0.4,0.4,-0.30000000000000004,1.9000000000000001,10.100000000000001,-8.700000000000001,-9.9,-9.600000000000001,16
1092,18368.0,-0.8,0.30000000000000004,0.4,-0.30000000000000004,1.8,10.100000000000001,-7.699999999999999,-3.5,-11.1,16
1093,18385.0,-1.0,0.30000000000000004,0.4,-0.6000000000000001,1.9000000000000001,10.100000000000001,-8.3,2.1999999999999997,-12.3,16
1094,18401.0,-1.2000000000000002,0.4,0.4,-0.6000000000000001,1.9000000000000001,10.100000000000001,-8.3,2.1999999999999997,-12.3,16
1095,18418.0,-1.5,0.6000000000000001,0.7000000000000001,-1.2000000000000002,2.1,10.5,-9.1,9.9,-4.800000000000001,16
1096,18435.0,-1.5,0.7000000000000001,1.0,-1.1,2.1,10.8,-5.0,12.5,-0.7,16
1097,18452.0,-1.2000000000000002,0.6000000000000001,1.1,-0.9,2.1,10.9,1.8,14.200000000000001,0.0,16
1098,18471.0,-1.2000000000000002,0.6000000000000001,1.0,-1.0,2.1,10.8,10.600000000000001,16.5,-1.2000000000000002,16
1099,18485.0,-1.3,0.6000000000000001,0.9,-1.2000000000000002,2.2,10.600000000000001,16.900000000000002,15.9,-1.4,16
1100,18501.0,-1.4000000000000001,0.6000000000000001,0.8,-1.3,2.2,10.5,18.7,13.0,-0.5,16
1101,18518.0,-1.4000000000000001,0.5,0.7000000000000001,-1.3,2.1,10.4,16.8,8.3,1.5000000000000002,16
1102,18536.0,-1.3,0.30000000000000004,0.7000000000000001,-1.2000000000000002,1.9000000000000001,10.4,15.299999999999999,5.9,4.1000000000000005,16
1103,18552.0,-1.2000000000000002,0.0,0.8,-1.1,1.7000000000000002,10.600000000000001,15.7,4.300000000000001,6.5,16
1104,18568.0,-1.1,-0.1,1.1,-0.8,1.6,11.0,16.3,-0.30000000000000004,8.1,16
1105,18585.0,-0.5,-0.30000000000000004,1.5,-0.30000000000000004,1.5,11.200000000000001,14.4,-5.7,8.3,16
1106,18601.0,-0.1,-0.5,1.1,0.0,1.4000000000000001,10.8,17.5,-2.5,10.1,16
1107,18618.0,-0.1,-0.5,0.8,0.1,1.3,10.4,22.5,4.5,12.8,16
1108,18635.0,0.2,-0.7000000000000001,0.5,0.30000000000000004,1.3,10.100000000000001,18.1,4.0,12.100000000000001,16
1109,18652.0,0.30000000000000004,-0.7000000000000001,0.1,0.30000000000000004,1.3,9.700000000000001,14.0,5.300000000000001,11.1,16
1110,18668.0,0.2,-0.6000000000000001,-0.4,0.2,1.4000000000000001,9.3,13.0,9.600000000000001,11.8,16
1111,18685.0,0.2,-0.6000000000000001,-0.6000000000000001,0.2,1.6,9.0,8.600000000000001,8.700000000000001,12.200000000000001,16
1112,18702.0,0.30000000000000004,-0.5,-0.9,0.30000000000000004,1.6,8.8,5.300000000000001,7.400000000000001,12.000000000000002,16
1113,18718.0,0.5,-0.6000000000000001,-0.8,0.5,1.5,8.8,4.800000000000001,7.2,9.600000000000001,16
1114,18735.0,0.5,-0.6000000000000001,-0.8,0.6000000000000001,1.5,8.9,6.3,6.3,5.6,16
1115,18751.0,0.5,-0.6000000000000001,-0.7000000000000001,0.5,1.6,8.9,8.4,5.7,2.1,16
1116,18779.0,0.8,-0.7000000000000001,-0.6000000000000001,0.9,1.4000000000000001,9.0,2.3000000000000003,-3.7000000000000006,-3.9,16
1117,18785.0,0.8,-0.7000000000000001,-0.6000000000000001,0.9,1.4000000000000001,9.0,2.3000000000000003,-3.7000000000000006,-3.9,16
1118,18804.0,1.0,-0.8,-0.6000000000000001,1.0,1.3,9.0,-2.8,-6.1000000000000005,-6.3,16
1119,18818.0,1.2000000000000002,-0.9,-0.6000000000000001,1.2000000000000002,1.2000000000000002,9.1,-7.2,-4.800000000000001,-7.9,16
1120,18835.0,1.2000000000000002,-0.9,-0.5,1.1,1.2000000000000002,9.200000000000001,-8.9,1.2000000000000002,-7.6,16
1121,18852.0,0.9,-0.8,-0.30000000000000004,1.0,1.2000000000000002,9.4,-7.6,6.7,-4.5,16
1122,18869.0,0.9,-0.8,-0.30000000000000004,0.9,1.3,9.3,-6.1000000000000005,10.700000000000001,-2.6,16
1123,18885.0,0.7000000000000001,-0.7000000000000001,-0.4,0.4,1.4000000000000001,9.1,-3.5,12.200000000000001,-1.8,16
1124,18902.0,0.2,-0.4,-0.7000000000000001,0.0,1.7000000000000002,8.9,-1.6,10.8,-0.6000000000000001,16
1125,18918.0,-0.2,-0.30000000000000004,-1.1,-0.30000000000000004,1.7000000000000002,8.5,-0.7,7.0,0.5,16
1126,18935.0,-0.30000000000000004,-0.2,-1.1,-0.5,1.8,8.4,-0.9,2.7,-0.1,16
1127,18951.0,-0.7000000000000001,-0.1,-1.2000000000000002,-0.9,1.9000000000000001,8.4,-1.0999999999999999,-2.5,-0.9,16
1128,18968.0,-0.9,0.1,-1.0,-1.0,2.1,8.6,-4.6000000000000005,-8.700000000000001,-0.4,16
1129,18986.0,-1.0,0.2,-0.8,-1.0,2.1,8.8,-11.2,-18.2,0.0,16
1130,19001.0,-0.9,0.1,-0.6000000000000001,-0.9,2.0,9.0,-15.6,-23.900000000000002,0.30000000000000004,16
1131,19018.0,-0.8,0.0,-0.30000000000000004,-0.7000000000000001,1.9000000000000001,9.3,-17.9,-26.8,0.9,16
1132,19035.0,-0.5,0.0,0.30000000000000004,-0.4,1.8,9.8,-18.5,-27.5,2.0,16
1133,19051.0,-0.30000000000000004,0.0,0.6000000000000001,-0.1,1.8,10.200000000000001,-14.900000000000002,-22.900000000000002,2.8,16
1134,19068.0,-0.2,0.1,0.9,0.1,1.8,10.5,-8.799999999999999,-17.0,4.300000000000001,16
1135,19085.0,0.1,0.2,1.1,0.4,1.9000000000000001,10.600000000000001,-3.9,-13.700000000000001,5.7,16
1136,19101.0,0.30000000000000004,0.2,1.2000000000000002,0.7000000000000001,1.9000000000000001,10.8,0.4,-9.9,5.9,16
1137,19126.0,0.4,0.2,1.2000000000000002,0.7000000000000001,1.9000000000000001,10.8,0.4,-9.9,5.9,16
1138,19135.0,0.4,0.2,1.2000000000000002,0.7000000000000001,1.9000000000000001,10.8,0.4,-9.9,5.9,16
1139,19151.0,0.5,0.5,0.30000000000000004,0.7000000000000001,2.4000000000000004,9.700000000000001,11.1,18.0,0.30000000000000004,16
1140,19170.0,0.2,0.7000000000000001,-0.1,0.4,2.6,9.4,7.300000000000001,22.000000000000004,-0.2,16
1141,19185.0,0.2,0.7000000000000001,-0.1,0.30000000000000004,2.6,9.200000000000001,2.5,24.1,-0.5,16
1142,19201.0,0.2,0.8,-0.30000000000000004,0.30000000000000004,2.6,8.9,0.6000000000000001,27.3,-1.7,16
1143,19219.0,0.1,0.8,-0.8,0.1,2.7,8.700000000000001,1.4,30.9,-3.2,16
1144,19234.0,0.0,0.8,-1.0,-0.2,2.7,8.6,3.5,32.5,-4.800000000000001,16
1145,19251.0,-0.2,0.9,-0.9,-0.4,2.8000000000000003,8.700000000000001,5.7,29.000000000000004,-6.6000000000000005,16
1146,19269.0,-0.30000000000000004,1.0,-0.8,-0.5,2.9000000000000004,8.8,7.0,22.5,-8.9,16
1147,19285.0,-0.1,1.0,-0.7000000000000001,-0.4,2.9000000000000004,8.9,6.3,15.6,-12.200000000000001,16
1148,19301.0,0.0,0.9,-0.7000000000000001,-0.30000000000000004,2.9000000000000004,8.8,4.300000000000001,10.0,-16.6,16
1149,19318.0,-0.1,1.0,-0.7000000000000001,-0.6000000000000001,3.0,8.8,4.1000000000000005,8.0,-18.5,16
1150,19335.0,-0.30000000000000004,1.1,-0.7000000000000001,-0.6000000000000001,3.0,8.8,4.1000000000000005,8.0,-18.5,16
1151,19351.0,-0.5,1.2000000000000002,-0.5,-1.0,3.2,9.200000000000001,0.8,2.1,-14.900000000000002,16
1152,19369.0,-0.6000000000000001,1.1,0.1,-1.0,3.1,9.8,-1.2000000000000002,-5.4,-13.100000000000001,16
1153,19385.0,0.0,1.0,0.9,-0.4,3.0,10.5,-5.2,-14.700000000000001,-14.3,16
1154,19404.0,0.4,0.7000000000000001,1.4000000000000001,0.0,2.7,10.9,-9.4,-20.2,-17.7,16
1155,19418.0,0.4,0.5,1.6,0.0,2.5,11.200000000000001,-10.0,-19.6,-20.3,16
1156,19435.0,0.1,0.4,1.7000000000000002,-0.1,2.4000000000000004,11.3,-8.600000000000001,-14.700000000000001,-19.0,16
1157,19451.0,0.1,0.4,1.9000000000000001,0.0,2.3000000000000003,11.5,-8.0,-12.6,-16.2,16
1158,19469.0,0.2,0.30000000000000004,2.0,-0.1,2.2,11.700000000000001,-6.4,-11.5,-14.500000000000002,16
1159,19495.0,0.30000000000000004,0.1,1.9000000000000001,0.0,1.8,11.5,-0.7,-9.700000000000001,-16.1,16
1160,19502.0,0.2,-0.1,1.8,0.0,1.8,11.5,-0.7,-9.700000000000001,-16.1,16
1161,19525.0,0.1,-0.30000000000000004,1.2000000000000002,-0.1,1.6,11.0,3.3000000000000003,-6.7,-17.200000000000003,16
1162,19534.0,0.0,-0.4,1.0,-0.1,1.5,10.600000000000001,7.300000000000001,-2.6,-15.9,16
1163,19551.0,0.0,-0.7000000000000001,0.5,-0.2,1.2000000000000002,10.200000000000001,11.1,2.4000000000000004,-13.3,16
1164,19574.0,-0.1,-0.7000000000000001,0.0,-0.30000000000000004,1.2000000000000002,9.700000000000001,17.0,9.700000000000001,-8.4,16
1165,19585.0,-0.2,-0.7000000000000001,-0.2,-0.4,1.2000000000000002,9.3,23.0,13.9,-3.3000000000000003,16
1166,19601.0,0.0,-0.9,-0.7000000000000001,-0.30000000000000004,1.2000000000000002,8.9,26.500000000000004,13.9,-1.2000000000000002,16
1167,19618.0,0.0,-0.9,-0.9,-0.30000000000000004,1.2000000000000002,8.6,26.3,10.9,-2.5,16
1168,19635.0,0.0,-0.9,-1.1,-0.30000000000000004,1.3,8.4,23.5,7.400000000000001,-3.9,16
1169,19651.0,0.1,-0.9,-1.3,-0.30000000000000004,1.4000000000000001,8.200000000000001,18.5,6.1000000000000005,-3.9,16
1170,19668.0,-0.1,-0.9,-1.5,-0.5,1.4000000000000001,8.0,12.9,7.1000000000000005,-1.9,16
1171,19690.0,-0.2,-1.0,-1.4000000000000001,-0.6000000000000001,1.3,8.200000000000001,5.1,5.2,-0.7,16
1172,19701.0,-0.2,-1.0,-1.4000000000000001,-0.5,1.2000000000000002,8.5,5.1,5.2,-0.7,16
1173,19718.0,-0.1,-1.1,-0.7000000000000001,-0.4,1.2000000000000002,9.0,-7.6,-5.300000000000001,-3.1,16
1174,19735.0,0.2,-1.0,-0.1,-0.1,1.2000000000000002,9.5,-8.4,-8.200000000000001,-4.7,16
1175,19753.0,0.6000000000000001,-1.1,0.1,0.30000000000000004,1.1,9.600000000000001,-8.3,-9.4,-6.9,16
1176,19768.0,0.7000000000000001,-1.0,0.1,0.4,1.2000000000000002,9.600000000000001,-8.4,-7.6,-9.1,16
1177,19786.0,0.7000000000000001,-0.9,0.0,0.30000000000000004,1.2000000000000002,9.4,-10.0,-4.3999999999999995,-10.600000000000001,16
1178,19801.0,0.4,-0.9,-0.30000000000000004,0.1,1.2000000000000002,9.200000000000001,-12.8,0.1,-11.2,16
1179,19818.0,0.2,-0.8,-0.30000000000000004,-0.30000000000000004,1.3,9.1,-16.3,2.9,-10.3,16
1180,19835.0,-0.1,-0.7000000000000001,-0.5,-0.5,1.3,9.0,-18.400000000000002,5.1,-8.200000000000001,16
1181,19851.0,-0.5,-0.7000000000000001,-0.6000000000000001,-0.9,1.3,8.9,-17.1,7.400000000000001,-6.1000000000000005,16
1182,19868.0,-0.7000000000000001,-0.7000000000000001,-0.6000000000000001,-1.2000000000000002,1.2000000000000002,8.9,-13.9,6.4,-4.3999999999999995,16
1183,19889.0,-1.2000000000000002,-0.6000000000000001,-0.7000000000000001,-1.5,1.3,8.9,-11.5,1.9,-3.6,16
1184,19901.0,-1.3,-0.5,-0.7000000000000001,-1.7000000000000002,1.3,8.9,-10.700000000000001,-5.6,-2.8,16
1185,19919.0,-1.3,-0.5,-0.8,-1.7000000000000002,1.3,8.8,-12.8,-13.3,-1.9,16
1186,19935.0,-1.1,-0.4,-0.6000000000000001,-1.5,1.3,9.0,-16.2,-16.1,-1.2000000000000002,16
1187,19952.0,-1.2000000000000002,-0.4,-0.5,-1.5,1.3,9.200000000000001,-16.1,-17.8,2.1,16
1188,19969.0,-0.8,-0.30000000000000004,0.0,-1.1,1.3,9.5,-14.200000000000001,-14.100000000000001,4.9,16
1189,20000.0,-0.5,-0.30000000000000004,0.30000000000000004,-0.5,1.3,10.0,-10.600000000000001,-10.0,2.7,16
