,ms,accelX,accelY,accelZ,accelWithGX,accelWithGY,accelWithGZ,rotRateAlpha,rotRateBeta,rotRateGamma,interval
0,2.0,0.0010411796160042285,-0.1534066009044647,0.055201662740111346,1.6349404586791991,-6.196342949566245,-7.493551921081543,-3.7636395652389494,0.31994164209244136,-0.35767288772806116,0.01666666753590107
1,52.0,0.39907632883414623,0.12945011738613246,-0.2791863592147827,1.1097127617433666,-2.0663466932319103,-9.810390940093994,1.6980383885180605,2.6448458280109866,1.4396638581607026,0.01666666753590107
2,57.0,0.4386085671469569,0.12445859270915388,-0.26909692687690256,1.1504141169007867,-2.0726314725898205,-9.79991572330892,1.0811865022144609,2.043664743540923,2.000027518707358,0.01666666753590107
3,74.0,0.4814207769785076,0.13794643531367182,-0.2633428933948278,1.1941083702638744,-2.0605108266852796,-9.79378058155477,-0.17221530917543046,0.1874521672130463,3.4774183536354495,0.01666666753590107
4,91.0,0.48813737188242373,0.2458458151489496,-0.15042612378895281,1.196951411670074,-1.9502277665838599,-9.681702600860595,-1.2262677243134654,-2.7186564807201408,5.256028641810742,0.01666666753590107
5,112.0,0.24021643095985054,0.24624723555669187,0.1617290235698223,0.9329907517030834,-1.9431949453376232,-9.3722520362854,-2.6500982434827263,-5.646923356218334,5.187979467109905,0.01666666753590107
6,124.0,0.14318645485900341,0.2179403017438948,0.252352128303051,0.8245034159120171,-1.9629472551643847,-9.284414762878418,-4.068143912590104,-3.4955465294663095,4.426320740212865,0.01666666753590107
7,141.0,-0.03985365228690207,0.13103636366426943,0.06727379332780838,0.6400002504762262,-2.03312699906677,-9.473406471905111,-5.140825548627429,-0.6608710147613038,3.6459169860255485,0.01666666753590107
8,157.0,-0.17428930300064385,0.06286693667098879,-0.1418295603573322,0.513706112902984,-2.086398132135719,-9.68529390335083,-5.322130358824479,1.3864769616504018,3.23330419104802,0.01666666753590107
9,174.0,-0.20945267857946454,0.05045855986624956,-0.1700683973699808,0.4879685181215405,-2.0849017560981213,-9.715969027599693,-5.453105639461821,4.610029350110937,3.3005343833786904,0.01666666753590107
10,191.0,-0.2437995501436293,-0.02454495093077421,-0.1647095006853342,0.4774938127931207,-2.1413152788460255,-9.712976860046385,-5.276822725852023,8.46417788647584,2.5364569157418195,0.01666666753590107
11,208.0,-0.10016410940811038,0.04353621325716376,-0.2743120311766863,0.6443397409852594,-2.060061913874,-9.823708686828613,-4.997974276570728,9.994294793588669,2.5755672192595473,0.01666666753590107
12,224.0,-0.039149668736010786,0.04670885194391012,-0.286209389719367,0.72693969826065,-2.0467440210089087,-9.836128023418784,-3.5328474731842183,9.054246466609705,3.004243338504476,0.01666666753590107
13,241.0,0.0279689340300858,0.10253595310598611,-0.20414836162626743,0.8158245079591869,-1.9825496351264416,-9.754126616558432,-1.9045854434533618,7.233858472602382,3.1053156240686786,0.01666666753590107
14,258.0,-0.014356076806411147,0.0374849503941834,0.045243747827410696,0.7788640198305249,-2.0437514150641856,-9.505130228424072,-1.7102800085014276,4.439836830806674,2.486251183360818,0.01666666753590107
15,274.0,-0.10910327573232352,-0.05975728021785617,0.16175006635785102,0.6904281960085034,-2.134731224280596,-9.389460360717774,-4.144108422765339,4.81818961035083,1.3252272402683125,0.01666666753590107
16,291.0,-0.10208068361915647,-0.06538754118978977,0.041218730095028876,0.702698406451568,-2.1206651433967054,-9.513808624920248,-7.225940575807045,1.179896075934368,1.0353279717967607,0.01666666753590107
17,308.0,-0.1604396413464099,-0.07057356552556157,-0.1371335114955902,0.6435915529664605,-2.107197759058326,-9.696216863903402,-6.93198759006309,0.602842421263963,0.32867150430579034,0.01666666753590107
18,325.0,-0.19475684842467306,-0.08230842698290944,-0.1743330690771341,0.6150108437135815,-2.102259718134254,-9.736469963836669,-5.916165998205652,4.355993270537006,-0.8437462348589275,0.01666666753590107
19,341.0,-0.2215756625715643,-0.09865282806232571,-0.3363683821171522,0.6105215694703161,-2.099416457532346,-9.900621830639242,-5.252692521288014,7.541811211710747,-1.5148584779504308,0.01666666753590107
20,358.0,-0.07622275039367378,-0.044483284848928446,-0.4569055635988712,0.7721302545960992,-2.03447388363108,-10.021978511810302,-4.174033615953281,6.437852858803463,-1.2948572310106738,0.01666666753590107
21,375.0,-0.07969451815746724,-0.07754018966779112,-0.3891986395508051,0.7855975658692419,-2.059163795990497,-9.954491367992759,-2.7501146244899273,7.531305526993621,-1.5428713248924746,0.01666666753590107
22,391.0,-0.06109444710575044,-0.08722951677218078,-0.2371399461239576,0.830488993127644,-2.060660464289039,-9.801711959075927,-2.666382268237683,8.229860563035736,-2.868201978493689,0.01666666753590107
23,408.0,-0.024441271360591054,-0.08829027787148952,-0.16844284199476242,0.8846578056886791,-2.054375684931129,-9.732878661346435,-3.348488928097938,7.488870415453978,-2.9100699708888094,0.01666666753590107
24,425.0,0.05770414708033204,0.001452244634926319,-0.3164040369749069,0.9835682617738842,-1.9559141416572032,-9.881019889068602,-2.8038018323569314,5.712522627441252,-2.129002834578355,0.01666666753590107
25,441.0,0.16960896316468715,0.08162102924063801,-0.49386780529320234,1.1064205883301794,-1.8719672998175023,-10.058190227398276,1.055310117100456,1.2738024258421692,-1.9754862221326792,0.01666666753590107
26,458.0,0.11667064224667846,0.06051935063153505,-0.3222480868279934,1.0555438030518591,-1.898004389002174,-9.885358795055746,2.9470488284986702,0.1918016236723825,-2.964637205941688,0.01666666753590107
27,474.0,0.09795242470800876,0.023077800987660883,-0.2090770502001047,1.037288088458404,-1.9422971197150647,-9.770736390575767,2.7522962295995117,-0.9002552179876463,-3.7699591977685034,0.01666666753590107
28,491.0,0.09180098940618335,-0.01185746492370963,-0.11108195539414882,1.0293572954591363,-1.9818014471076428,-9.67197615661621,0.43072293484011115,-1.3012061052876123,-2.797869599619364,0.01666666753590107
29,508.0,0.14873239854834974,0.01049041435420513,-0.12213000363111495,1.083226905877888,-1.958607618524879,-9.683498252105712,-0.2695103533862704,-2.167749217079368,-1.5002078289024592,0.01666666753590107
30,525.0,0.14737535791620612,-0.007540186246484518,-0.08451192837655544,1.0775406038697808,-1.9747684797309337,-9.64668681705892,-0.6984095209962824,-1.9157271895369452,-0.7139637293662525,0.01666666753590107
31,541.0,0.13036796288341282,0.0168846454359591,0.03636719841063022,1.0541970646180212,-1.946187551282346,-9.527276009258628,-1.033211893814526,-2.8330745290357253,-0.8650715795515883,0.01666666753590107
32,558.0,0.05816000108905136,-0.01357245214805007,0.16426760213673114,0.9762359461244196,-1.9729726823553442,-9.400682596477866,-1.712548485079518,-2.3902797684461454,-1.4796804424039265,0.01666666753590107
33,574.0,0.04600004608742893,-0.027841508258134126,0.1762818650573492,0.9621700844362377,-1.980604492408037,-9.390208548736572,-3.207945406207055,-0.3988778715260143,-1.8594519803047407,0.01666666753590107
34,591.0,0.08719568756781518,-0.0053171033695340155,0.05733166050612926,1.0051160767152905,-1.9446913213752208,-9.511713698467611,-3.828585272735662,-1.0193693415227316,-1.4957283987456944,0.01666666753590107
35,608.0,0.07990574975535274,-0.02697480842620134,0.06674012484252452,1.000327673394978,-1.957111096356809,-9.503933127593994,-3.2071230087423035,0.3885902192537999,-1.5987487823272315,0.01666666753590107
36,624.0,0.07230849955938756,-0.05244447298645973,0.10583762499988078,0.9989808618959038,-1.9741699293158947,-9.465924591717123,-3.0891906146553363,2.6347407765773645,-1.815389149308519,0.01666666753590107
37,641.0,0.08040588129721582,-0.08802066714987158,0.07512918300330639,1.0190323007997124,-1.9988599878057836,-9.497647763714193,-3.7386747969357295,2.899606974853996,-1.4370188674046152,0.01666666753590107
38,658.0,0.1307837040774524,-0.0889274067312479,-0.04746610005199909,1.0785880670960992,-1.9909293409369884,-9.621098786816,-3.824520883292681,3.0335636330640483,-0.5832438337708462,0.01666666753590107
39,674.0,0.1386491036903113,-0.10350012196302413,-0.0516787493109703,1.0932526253297925,-1.996166510938108,-9.626485740551352,-3.7380024501893065,1.8253614389401494,-0.13150307283328355,0.01666666753590107
40,691.0,0.058763666070625185,-0.18362857455834744,-0.040516719305515286,1.0194812136109919,-2.0651494462713598,-9.616908933910727,-3.7671861409654785,1.7401950631273198,-0.16159090990083597,0.01666666753590107
41,708.0,-0.014016761849448084,-0.2547325936987996,-0.06441080511212348,0.9524435671266168,-2.1269499227546156,-9.642048051342368,-4.995498759883422,2.1395362669389844,-0.32842409671136247,0.01666666753590107
42,724.0,-0.01381933958120644,-0.2659478151962161,-0.14370470657944678,0.9591773323610424,-2.1247055048286914,-9.72330185470581,-6.382760552958141,2.5078461070822824,0.15213872850233168,0.01666666753590107
43,741.0,0.022646569963544607,-0.21632307580560445,-0.297556128641963,1.00541535192281,-2.054525322534889,-9.880121478924154,-6.541648255412386,2.927720887251415,0.8252904233913184,0.01666666753590107
44,758.0,0.11293576656728982,-0.07570259897708892,-0.45604397833347315,1.1040264597352594,-1.902493517114967,-10.039934439739584,-4.052161696819097,3.0159016176440416,1.5963780663550025,0.01666666753590107
45,774.0,0.1661198058746755,-0.023467530957609412,-0.5098901348114013,1.1640312119081615,-1.845631227686256,-10.09395361469686,-0.6217268271019906,2.9425458128449278,1.7621326702460487,0.01666666753590107
46,791.0,0.1468803409408778,-0.022437749518454075,-0.4789361936211586,1.154155056994781,-1.850569122479856,-10.060883704265951,2.508921648433148,2.38577910066993,1.469863539575914,0.01666666753590107
47,808.0,0.1822746757313609,-0.03289440773352981,-0.37483459863364693,1.1903674301698803,-1.8694236066840588,-9.955089918407797,3.0917609002173765,-0.5259610649143591,0.9436005589558992,0.01666666753590107
48,824.0,0.18836627060472963,-0.04478709010109305,-0.346154447594285,1.1933600361146033,-1.8887268575690686,-9.925312035259603,2.707600538888006,-1.6072519409570742,0.7063613019332052,0.01666666753590107
49,841.0,0.2514003074709326,-0.04743614330515265,-0.27521102584302426,1.2467807337220758,-1.9011469248116015,-9.853486569976805,3.033157877138667,-3.4382337718104976,1.787241726295485,0.01666666753590107
50,858.0,0.259683859430626,-0.00549596706777811,-0.23029870192706584,1.2451347931459544,-1.867478317835182,-9.807996153911947,3.1953283392627494,-4.225602824847346,2.8496957943809513,0.01666666753590107
51,874.0,0.2380234509602189,-0.017535802821069955,-0.18305588923692703,1.2110173464234917,-1.8885770738348364,-9.760261758312582,3.361008237959749,-4.757615650809749,2.967295430189292,0.01666666753590107
52,891.0,0.21633388946056364,0.012428981201350688,-0.11006605634987354,1.1716627296999096,-1.8716680246099828,-9.686491004180908,3.754584441946805,-5.132134132908589,3.050092263968656,0.01666666753590107
53,908.0,0.17581994663402437,-0.01870879212319851,0.011145663392543793,1.1171945688661187,-1.9128185117743908,-9.56468541019857,3.90158932279252,-5.095338196302437,2.59206233954854,0.01666666753590107
54,924.0,0.15459244968816638,-0.04617313763201236,0.0686889208227396,1.0844239336427302,-1.9493299409613012,-9.50647638233602,2.7892569445193893,-3.886366111793031,2.483968619517564,0.01666666753590107
55,941.0,0.16023462029360233,-0.04708937569409609,0.1649538308352232,1.0769420534547418,-1.9571112424872814,-9.410109765514731,1.0752288697109174,-4.489034256511453,2.267921838663833,0.01666666753590107
56,958.0,0.12439473369270562,-0.06611527094244957,0.26073183411359785,1.0341456987794488,-1.9771628275215625,-9.31479061191976,-0.1739013520442187,-3.1502894315454504,1.917885102427846,0.01666666753590107
57,974.0,0.1303414402026683,-0.04009440224021673,0.2720417481571436,1.0341456987794488,-1.9497788537725804,-9.304315979656577,-0.6350329427396745,-2.747911461595775,2.04402076715141,0.01666666753590107
58,991.0,0.13953311998322604,-0.01449409703761339,0.18491174623668194,1.0408794640138745,-1.9232932901680468,-9.391853977856039,-0.2330071544190777,-0.5877743836246803,1.1878022333420692,0.01666666753590107
59,1008.0,0.15322890625,0.027044220400601626,0.10654781909584998,1.056441701739654,-1.882142803003639,-9.469964807018638,0.0361611959208028,-1.1109289878421045,0.49435158976577476,0.01666666753590107
60,1024.0,0.16160853899531066,0.03713467565178871,0.11895955690145492,1.0628761187013238,-1.873762804932147,-9.457395248302817,0.958478631958891,-1.457822236234299,-0.6862972477203225,0.01666666753590107
61,1041.0,0.1260113020438701,0.001837444560229778,0.14880407554507255,1.0313026573732496,-1.9135666997931897,-9.426270626720786,0.9542772118456869,1.101832456528117,-2.642759205219548,0.01666666753590107
62,1058.0,0.1506987301852554,-0.0270298996143043,0.14155951124429703,1.0619782930787651,-1.944391900037229,-9.432555406078695,0.6965562452145346,0.5003919849521519,-3.2851694459539234,0.01666666753590107
63,1074.0,0.18101276603676378,-0.02328969017267227,0.15643208620548246,1.0966942171510308,-1.9412496564887463,-9.417143317413329,0.11567386930794099,1.3030229356068357,-3.1133035303030083,0.01666666753590107
64,1091.0,0.21220972220264375,-0.06062354165837169,0.08903145162761211,1.1411366585329175,-1.9762648557685314,-9.483732051086426,-0.8637639184906483,3.572256170591311,-2.13820822203224,0.01666666753590107
65,1108.0,0.22292671185433863,-0.08440729895830154,0.0064794251471757885,1.162385198266804,-1.996914845087379,-9.565882511028647,-1.3524121402169036,2.1152974196784897,-1.177854916589592,0.01666666753590107
66,1125.0,0.19650792987570165,-0.0957937853693962,0.017629764714837074,1.14188477348648,-2.004246941541135,-9.554958965954183,-1.9626108886603821,1.340957059205146,-1.3641467253761028,0.01666666753590107
67,1141.0,0.08755852953083813,-0.1444130009792745,0.04584580537378788,1.0392333042420445,-2.0455469201788303,-9.527575284466147,-2.4762705694361364,0.5634288146584044,-2.4952791993396937,0.01666666753590107
68,1158.0,0.053071153517439955,-0.16009250840917227,-0.07738777558505534,1.0108022325929253,-2.0555727857612074,-9.651325582775472,-2.6470317019888023,0.7388438139959347,-2.389230694078314,0.01666666753590107
69,1175.0,0.04007255573458969,-0.1720369209639728,-0.12687515233159063,1.0031707878664136,-2.062306624060869,-9.701305126953125,-1.9219319895110787,1.386121791813561,-1.8235653126318474,0.01666666753590107
70,1191.0,-0.0024344606053084135,-0.20372721360474824,-0.16725918516814708,0.9717468910768627,-2.0866974073432383,-9.74200597065389,-2.882246341531116,2.3333127891170657,-0.7535834689465281,0.01666666753590107
71,1208.0,-0.06514489154033362,-0.23080592079684137,-0.10650748708546161,0.9175780054505914,-2.1070481214545667,-9.681702016338706,-3.7444945449954035,2.236372554557309,-0.7806313915857487,0.01666666753590107
72,1224.0,-0.0931872561328113,-0.23535467014238237,-0.09225041367411613,0.8975265665467828,-2.101810951453447,-9.668533907207847,-4.804063071599951,3.3601440055863305,-0.9939099181132148,0.01666666753590107
73,1240.0,-0.06496610090732574,-0.20234408868327736,-0.19680033695101737,0.9340382149294019,-2.057967133551836,-9.77432827758789,-5.044663742189643,2.372931087954313,-1.415174641778445,0.01666666753590107
74,1258.0,-0.058329658567532895,-0.14105463046208022,-0.29914310557246204,0.9481041496828198,-1.9832978231452405,-9.878476049804688,-3.2530016028406905,1.8731480036944972,-2.2040674673304417,0.01666666753590107
75,1274.0,-0.050775078469514845,-0.13313786598816513,-0.2947019082546234,0.9608233460023998,-1.9696806550726293,-9.874584887585044,-1.2115713983754193,1.6945563794235292,-3.1059440014723196,0.01666666753590107
76,1291.0,-0.10326857822947204,-0.1571970792286098,-0.17838906646966934,0.9165306152895092,-1.9928746297858655,-9.757568865966796,0.20093821564667783,2.5370852931454606,-4.873031760517801,0.01666666753590107
77,1308.0,-0.09449746194854378,-0.20698796896636484,-0.11314531766474246,0.933290026910603,-2.042105401422828,-9.69157868270874,-0.488961449932724,2.3429508263661885,-5.704076244758885,0.01666666753590107
78,1325.0,-0.056440483820065855,-0.2345724337235093,-0.12606091333925723,0.9793784088686108,-2.066196909497678,-9.70429729450643,-1.3349077527563362,2.264341325434865,-5.609635219105119,0.01666666753590107
79,1341.0,0.05020392751805484,-0.18274667715728282,-0.17479484136998652,1.0938511026795952,-2.0088859995186326,-9.753228790935873,-0.7579701045801158,0.894703661574601,-4.62316636520581,0.01666666753590107
80,1358.0,0.09459843810498714,-0.1355889124020934,-0.12721183694005012,1.140837383325398,-1.960253486035764,-9.705644032940269,0.2724559258266913,0.5567520379404526,-4.3012518656602925,0.01666666753590107
81,1374.0,0.09412709426619112,-0.1247030689895153,-0.1047737951606512,1.1427825991090386,-1.9503772580571472,-9.682749479565024,1.2739432984938006,0.16376323022201736,-4.4191093411098015,0.01666666753590107
82,1391.0,0.09825783739537,-0.08885594893023371,-0.027706337571144102,1.1454760759767144,-1.9192527826055883,-9.604937925609946,2.0593923213219356,-1.8387456215056124,-4.387569235069975,0.01666666753590107
83,1408.0,0.0453524688988924,-0.1044395947702229,0.030296938586235046,1.0893620476320385,-1.9393043676398694,-9.546430207061768,1.6157621432194986,-1.8124944297609031,-4.674400041056899,0.01666666753590107
84,1424.0,0.01727437540590763,-0.14158479181602596,0.013887655577063559,1.059733802087605,-1.9794072454474865,-9.562440846142172,1.196507522882662,-1.2332590632592082,-4.465178113287891,0.01666666753590107
85,1441.0,-0.029630072175338862,-0.20372546003907918,-0.08857961620688438,1.0154410713747144,-2.043003227045387,-9.664344054302573,-0.007940228312272049,0.6353939289094802,-3.9248397136140665,0.01666666753590107
86,1458.0,0.02365457796230912,-0.16520181424692273,-0.20365093349814414,1.0735004616335033,-2.0040974500678477,-9.778966458782554,-0.06720536619386279,0.7282588884122662,-3.0201918302164557,0.01666666753590107
87,1474.0,0.026865064441412685,-0.15042071696147322,-0.20041443579494952,1.0818801674440504,-1.988983905957639,-9.77522551868856,0.18356715027705778,2.192350491252696,-2.728640509739407,0.01666666753590107
88,1491.0,0.11541223968341946,-0.019717823035269973,-0.1798147153586149,1.1806409128602593,-1.8604453504584728,-9.753079153332113,1.334949801108414,0.967860643835844,-1.72860722031357,0.01666666753590107
89,1508.0,0.13822481386363505,0.03076265640184283,-0.030572248396277427,1.2021888008669017,-1.8158533445380627,-9.6028435836792,2.4559347483994816,-1.6868530999785185,-1.8120233601515838,0.01666666753590107
90,1524.0,0.047334217300638554,-0.002866056955605745,0.08934650892615317,1.1094134134706108,-1.8549087591193616,-9.482085452923178,0.9928991568377588,-0.05028353250451653,-2.635683983013061,0.01666666753590107
91,1541.0,-0.061292307765409344,-0.09361220354661345,0.07394961782991885,1.003320352404937,-1.9433444368109105,-9.497647763714193,-2.6974957008977953,0.3887460863050937,-2.7011530537549255,0.01666666753590107
92,1558.0,-0.0014129355378448962,-0.03354702642336488,-0.1895569416940212,1.0657193062379955,-1.8748105604194103,-9.76250632236898,-3.8971876927592697,0.8822763991840273,-1.5181544711117851,0.01666666753590107
93,1574.0,0.03490640514306724,-0.0060781508699059485,-0.2757183908432722,1.106271096856892,-1.837700580817461,-9.850044320568442,-2.932258267294419,1.265757530216952,-0.8099498718763227,0.01666666753590107
94,1591.0,0.04423997761234641,0.07908654232695699,-0.24590076020658014,1.1227312332704662,-1.7465711339972911,-9.820566297149657,-0.2839286426003293,1.3456488655564158,-1.789278510050324,0.01666666753590107
95,1608.0,0.0363886795900762,0.10341565854996443,-0.16407470991313455,1.1182421051576732,-1.7235269430182873,-9.738115392956137,1.2350173033619574,0.28933929968131655,-3.455170293074602,0.01666666753590107
96,1624.0,0.050598406728357075,0.09372910792455076,-0.1258960781663656,1.1335051407411694,-1.7363957769416272,-9.699210200500488,1.5415592882415974,-0.5896731762139438,-4.44186838519793,0.01666666753590107
97,1641.0,0.1064325221531093,0.07375774851962924,-0.1043383263528347,1.1878235909059642,-1.760337939673662,-9.677063835144043,1.4475458964628973,-1.478723468868184,-4.3539523246356415,0.01666666753590107
98,1657.0,0.18166962251029908,0.085518913462013,-0.08186579778194426,1.260697030871734,-1.7506112031683325,-9.654467972454428,1.5193080260295768,-1.623178554719369,-2.7241150825274505,0.01666666753590107
99,1674.0,0.19695150892473756,0.08205883613601327,-0.04641512969434261,1.2731170250490307,-1.7565968534491956,-9.618854807281494,1.3100663547449998,-1.5968064472820092,-1.267866030958076,0.01666666753590107
100,1691.0,0.15847762055844067,0.04844605100005865,0.08373860591650009,1.2289739319398998,-1.7905645895026623,-9.489268057903647,-0.2887178058276983,-2.6045018215744253,-0.2903667629037275,0.01666666753590107
101,1708.0,0.12973361050263046,0.04719400511234999,0.0915022256553173,1.192462356622517,-1.7886193006537854,-9.482983863067627,-1.1946829018789165,-4.2505509445644645,-0.14984410510632473,0.01666666753590107
102,1724.0,0.11084975407347082,0.046756636608392,0.046504561543464655,1.1641808495119212,-1.7848783605597913,-9.529819848522543,-1.5937062884507638,-3.688833625901677,-0.2904823425110888,0.01666666753590107
103,1741.0,0.07975099758505821,0.036421412815898654,-0.1010965679526329,1.1257239853456615,-1.7887689382575451,-9.6794580368042,-1.5085784391737214,-2.756165958651147,0.0467306601973463,0.01666666753590107
104,1758.0,0.055800578481331464,0.023226269547641277,-0.14198855031132698,1.0998366798952222,-1.7969990064643322,-9.721505618938803,-2.09988701880706,-1.2111371477545947,0.3854605251904796,0.01666666753590107
105,1774.0,0.05259440285116434,0.03406944286227226,-0.15929916607439518,1.0971432030275463,-1.7800899572394788,-9.739911044201254,-2.701764782572465,0.34149761239129584,0.6076545029776487,0.01666666753590107
106,1791.0,0.10726247017122804,0.09566840542405843,-0.17168167778551577,1.155352157824859,-1.7099097749456762,-9.753528066143392,-2.085314810212838,0.3659265843706398,0.7444711428200848,0.01666666753590107
107,1807.0,0.11416845016740262,0.12755305159315466,-0.17825638000071048,1.164480124719441,-1.6742961713813245,-9.760561618041992,-0.8111063082801705,0.4383830987159862,0.37683898550849876,0.01666666753590107
108,1824.0,0.116204339909181,0.11974734627828001,-0.17787702529430388,1.1682209917481987,-1.6814786302313207,-9.760112120708822,0.3143103645651774,0.5578249646095264,-0.0055113756908184925,0.01666666753590107
109,1841.0,0.12423355178162455,0.08812997274324297,-0.17404548430740832,1.1754036697939036,-1.714698324396461,-9.756072489929199,0.6196633629207062,-1.2335681293191512,-0.02702609805038842,0.01666666753590107
110,1858.0,0.06990984091982246,0.019310995800048112,-0.147546184438467,1.1179428299501537,-1.7836814058601855,-9.729885909271239,0.02449427232306899,-1.6708544490648214,-0.09100624091404326,0.01666666753590107
111,1874.0,0.05458338471129536,0.009297697438299656,-0.19309914434552192,1.099238129480183,-1.792809153559059,-9.775974291229247,-0.2120601915342651,-1.4944667347399463,0.12829080285011482,0.01666666753590107
112,1891.0,0.040594460716843604,-0.0024805647693574425,-0.19160919804871082,1.0806830666139722,-1.8032837858222424,-9.775226103210448,-0.012692252386029085,-0.8804682666838252,0.3524098000857432,0.01666666753590107
113,1908.0,0.05633168968334794,0.026357553310692308,-0.2567974172741175,1.097292840631306,-1.7736555402778087,-9.840467513927816,0.13471022017457476,0.4621639497761194,0.49605380097298885,0.01666666753590107
114,1924.0,0.07084785242229699,0.024685090053826568,-0.2604939337044954,1.111957252734527,-1.7773963342413306,-9.843759541210531,1.5654311195559094,-0.5105111770117903,0.8232263722406523,0.01666666753590107
115,1941.0,0.03185315505228936,-0.028369185394048688,-0.14268646944761276,1.0739493744447828,-1.8368026090644298,-9.724648008617757,2.1317041743950953,1.3824519525168544,0.591238143307523,0.01666666753590107
116,1958.0,0.05220971438251436,-0.0687402126185596,-0.0722398913025856,1.0987892166689037,-1.881095193646848,-9.65297159641683,1.1168727465238966,1.6718654237836892,0.9630948793424676,0.01666666753590107
117,1974.0,0.10946516784727572,-0.03772270467281341,-0.11838380284011363,1.1566989693239331,-1.8523649198554455,-9.69861106556356,0.4326507557333472,-0.8704889334196133,2.2180104447473763,0.01666666753590107
118,1991.0,0.09366481051668524,-0.04634308737143874,-0.022267361387610433,1.1350014437135307,-1.862540130780637,-9.602842999157309,-0.1453608729887915,-0.8034182900390864,2.884653983213546,0.01666666753590107
119,2008.0,-0.001473360488191247,-0.06634937195926904,0.03795943603813648,1.0386348268922418,-1.8804967893622815,-9.543138179779053,-1.740226652752231,0.25059035585936484,3.164735921970262,0.01666666753590107
120,2024.0,-0.021258111279830336,-0.05762099884152412,-0.02291150451004505,1.0170870850160718,-1.8662812170051037,-9.605237785339355,-3.2482699892931644,-0.4499454350420542,3.5295011073777354,0.01666666753590107
121,2041.0,-0.02184095266908407,0.041458384069800375,-0.26529052033126355,1.0131965073183178,-1.7577941004097462,-9.849745045360923,-2.5463483103204676,-0.5208482414337814,3.8551653807775894,0.01666666753590107
122,2058.0,-0.03303732333555817,0.10190101620331406,-0.35748598894774913,1.0000283981874585,-1.6953950735114514,-9.942520359691978,0.22904225628631178,-0.5130357323229033,2.971559602665496,0.01666666753590107
123,2074.0,-0.04343815971016884,0.10561711411699652,-0.30993221061229703,0.9892544176515191,-1.6952454359076916,-9.894337635803222,1.7022117408226443,0.6491910711154647,1.7131079202612243,0.01666666753590107
124,2091.0,-0.051878655797243114,0.06843026988655328,-0.20212240875661372,0.9820718857362866,-1.7384908495247362,-9.785251822662353,0.9767910094539299,-0.25166856525287484,1.0215056966290648,0.01666666753590107
125,2108.0,-0.022205986589193344,0.038878450579196214,-0.13459668649435041,1.0091561458863318,-1.7693159036383033,-9.717764678844809,-0.2371804000019555,-0.8978517384517423,1.0304450268704362,0.01666666753590107
126,2124.0,0.001452244634926319,0.038675767613947386,-0.15070026455521582,1.0295070061281322,-1.7687174993537365,-9.734375037384032,-0.031771798863077905,-1.377122270530129,1.4251181165495141,0.01666666753590107
127,2141.0,0.036741073224321005,0.025956132902950048,-0.12107494162023066,1.0576388756349682,-1.7823343751654028,-9.705345342254638,0.599445736173204,-1.571049270313362,1.5104827812916857,0.01666666753590107
128,2158.0,-0.008602993172407149,0.0011418635115027426,-0.05073825359046459,1.0075102783754468,-1.8082218267463146,-9.635314359173178,0.7646984278819602,-1.6322979244783937,1.0221405840567586,0.01666666753590107
129,2174.0,-0.027127076378464697,-0.03140519208908081,-0.020014614024758338,0.9843163767274469,-1.8423390542730689,-9.604788288006185,0.49787602073835424,-1.0893262734361178,0.40801303609749473,0.01666666753590107
130,2191.0,0.010150003418698907,-0.029924305881559848,-0.06556172871291636,1.0227733139589428,-1.8412917371772228,-9.650129066467285,0.048035226328818736,1.7729758089968555,1.080182998014998,0.01666666753590107
131,2208.0,0.07057495376504958,-0.01357785897552967,-0.15980127037763595,1.0854714699342847,-1.825879063989967,-9.743951259502769,0.6197740333296016,0.617991460677934,1.9854604327550134,0.01666666753590107
132,2224.0,0.05438961570486426,-0.019466478622704744,-0.09276713102459908,1.069909159143269,-1.833810003119707,-9.676464700207113,0.3878618969726944,0.7657989954728314,2.4152086782562225,0.01666666753590107
133,2241.0,-0.017827771504968403,-0.04955211254581809,0.06746960816085339,0.9973348482545464,-1.8634381025336682,-9.516352464184164,-1.1099425591155667,-0.5830785218485907,1.886347344265547,0.01666666753590107
134,2258.0,-0.1132055964846164,-0.11795476377308368,0.11601181301176547,0.8981251169618218,-1.927333359339088,-9.469067565917967,-3.198214521073903,-1.0155584161309819,1.6299386277286831,0.01666666753590107
135,2274.0,-0.14252492221035062,-0.14234306283742187,0.07767886748611927,0.8656538300111889,-1.9416985693000255,-9.509618772014974,-5.021066292380896,-0.7909514338956678,1.584618615038356,0.01666666753590107
136,2291.0,-0.06978606840968131,-0.08716068931967019,-0.17334814969301224,0.9343374170716852,-1.8700220109686254,-9.764152336010337,-4.626535356013918,-1.0994663295892364,2.8326779511770415,0.01666666753590107
137,2308.0,0.006416881304979324,-0.0057411740005016325,-0.33555531216859813,1.0067620172914118,-1.7802395948432386,-9.92830537185669,-3.179624240257009,-1.1885774598128656,4.2921792400084,0.01666666753590107
138,2324.0,-0.006695844376832246,-0.014220102401822804,-0.2660942379295826,0.9868602890565991,-1.7842799562752245,-9.860369315227866,-2.1212144979338365,-2.2210520133621476,4.704909642305699,0.01666666753590107
139,2341.0,-0.1251088733114302,-0.056289896368235344,-0.12479308536052704,0.8544310097292065,-1.8209408769354223,-9.721505618938803,-3.3401127682979754,-4.615426907102539,3.8908138456031787,0.01666666753590107
140,2358.0,-0.21243249810785053,-0.1153382976643741,-0.12884908275306223,0.7493854118898511,-1.8727156339667737,-9.728688223919272,-4.746454267932301,-6.909158963422792,3.2624266235650734,0.01666666753590107
141,2374.0,-0.18670637456849215,-0.11187252124994992,-0.19329495917856693,0.7525278015688062,-1.8574527445137499,-9.797521521648765,-5.35032239151053,-9.420125186295301,3.3276216329664914,0.01666666753590107
142,2391.0,-0.2261743154734373,-0.1481469268105924,-0.34558103162050247,0.6765118988588452,-1.8781027338325975,-9.956137381634116,-4.326106924049968,-10.752336508433363,3.212643722582378,0.01666666753590107
143,2408.0,-0.27813582724854347,-0.17206833901554344,-0.4899620300263166,0.5967550560548901,-1.8945628702461719,-10.104428246960044,-2.2723179191683824,-10.355508494071145,2.4368040288645103,0.01666666753590107
144,2424.0,-0.2897258003424853,-0.20279577797353265,-0.5140209510058165,0.5602434807375073,-1.9225449560187755,-10.13121396255493,-0.34928202701312694,-8.41371986398237,1.7459235641285507,0.01666666753590107
145,2440.0,-0.253852449863404,-0.20882219865620136,-0.6076514208614826,0.5776014427736401,-1.9315232122443615,-10.225934565734862,2.1226264261013252,-5.557869642272415,1.3457007323054258,0.01666666753590107
146,2458.0,-0.16443514072336254,-0.16222557491511105,-0.6684247462540864,0.6554129967287182,-1.8989022146247325,-10.28519047230184,5.59543354827337,-0.4094549263838815,2.0149425174205504,0.01666666753590107
147,2474.0,-0.07679901591166853,-0.10524930371791123,-0.6328267786502838,0.7438488205507398,-1.8589489744208751,-10.246434917449951,7.380917568074634,1.525301517026263,2.625790667443709,0.01666666753590107
148,2491.0,0.08582279177941382,0.01524330796971917,-0.45296354797482485,0.9074027214601635,-1.7681189489386975,-10.061033341869711,9.623389908447589,0.10323622823147999,2.6590899740816365,0.01666666753590107
149,2508.0,0.2210990580357611,0.1352910984992981,-0.16349661776423452,1.0383356247499584,-1.6736976209662853,-9.767145088085531,10.157271644921634,-2.2721764061865164,2.1707976158833096,0.01666666753590107
150,2524.0,0.25729360329322515,0.13882131845206022,-0.04628536583483219,1.062726481097564,-1.6956942025884985,-9.646088266643881,9.54761066715359,-6.2516495223110455,2.2897921043862137,0.01666666753590107
151,2541.0,0.27737558346576985,0.13318813487067818,0.1493517725557089,1.0531497475221752,-1.7284649839423596,-9.447668804058432,6.015015910968661,-9.379941475860823,2.327956426703895,0.01666666753590107
152,2558.0,0.25108744212947787,0.15440715624913573,0.09198620977997779,1.0009261507447809,-1.7188881773017346,-9.504830368694662,3.280839319463547,-10.445447571288227,2.4124902629665574,0.01666666753590107
153,2575.0,0.24848288565427062,0.20883272005021572,0.06510346355140209,0.9704000065125524,-1.6705550851568578,-9.532662962993978,1.6294892226256374,-10.629308579782155,2.7228474421061786,0.01666666753590107
154,2591.0,0.21561134733967482,0.26465324534103274,0.11954349426925182,0.906355185168609,-1.6181820699714122,-9.479841473388671,0.4192371713379413,-7.421129453039438,2.6345730100558757,0.01666666753590107
155,2608.0,0.11408347529768943,0.18108970373049377,0.198804077988863,0.7921816204346716,-1.700482605908811,-9.401730059704184,-1.46006211139524,-4.207254375415753,1.9638119347372465,0.01666666753590107
156,2624.0,0.06831168500818312,0.12900047392249106,0.1586480086892843,0.7395092569764703,-1.7453740331672132,-9.443778810882568,-4.206522691400916,-2.2192541795065535,0.9635052243011973,0.01666666753590107
157,2640.0,0.07856332217045128,0.1512234116464853,-0.09263152194619179,0.7519292511537671,-1.7087128202460706,-9.697713239941,-6.046305434443313,0.15829406296583542,0.3864636291835458,0.01666666753590107
158,2658.0,0.17261852024421095,0.19962518511340022,-0.4299316319555044,0.8574236887391656,-1.6398795225165783,-10.038138788494468,-4.299984865569255,2.638910607065657,1.2309650801934358,0.01666666753590107
159,2674.0,0.25626206828840076,0.22730156593769787,-0.4183013999164104,0.9466076275147497,-1.6048643232367932,-10.027514518627523,-1.0433885555127278,1.7072538078122887,1.611409605170908,0.01666666753590107
160,2691.0,0.27876689169369634,0.2573600195929408,-0.47569618878662584,0.9762359461244196,-1.575684990503639,-10.084227170452476,1.6392594880682234,1.8916426618630109,2.1066151820263457,0.01666666753590107
161,2708.0,0.2576225429866463,0.233861508975178,-0.5457710110098123,0.9569326952394097,-1.6057620027288793,-10.152910830578207,3.6149980003133697,0.039515525834579866,1.4487476895917022,0.01666666753590107
162,2725.0,0.24475224775858223,0.22657851236015558,-0.5550327603518963,0.9440639343813061,-1.6238682989142834,-10.160093435558677,4.9428627608183655,0.495673338091878,0.7691932259643575,0.01666666753590107
163,2741.0,0.23458171300850808,0.1921871440671384,-0.5854191307872534,0.9359835037782788,-1.6768400106452404,-10.186729513549803,6.78247731045245,0.28270638558444083,0.7115149998270972,0.01666666753590107
164,2758.0,0.3116673638418317,0.22215675039514898,-0.5549263773679733,1.0119993334230035,-1.66427045192942,-10.152911415100098,7.512443105826985,-1.3268212356658642,1.7715430700967396,0.01666666753590107
165,2774.0,0.2812875692777336,0.19305092128962278,-0.4763683889597654,0.9754877581056207,-1.712304122736305,-10.071059061321616,7.297671222470519,-3.0402301111373924,1.8122515311585445,0.01666666753590107
166,2791.0,0.160266038345173,0.11223843195289372,-0.2942366288304329,0.8421605800904333,-1.8139079095587134,-9.885658070263267,5.123715924756548,-3.9954527705745972,0.69160499839651,0.01666666753590107
167,2808.0,0.12927768342867493,0.13449834068641064,-0.31862405111193653,0.8004117617066949,-1.8020866849921642,-9.90870226124227,3.7913790978924866,-4.777802701788544,-0.11470731749910484,0.01666666753590107
168,2824.0,0.14807956066280603,0.15413739939704538,-0.3257581407755613,0.8081929171022028,-1.7911628476567565,-9.91483740299642,3.6261692015877487,-4.537625502927393,-0.7164658197582986,0.01666666753590107
169,2841.0,0.14245156471319495,0.13981778214350343,-0.3196352739810943,0.791433505481109,-1.818097908594459,-9.906906609997153,4.394721296904624,-2.870674933860057,-1.1298852173881229,0.01666666753590107
170,2858.0,0.13114698443189263,0.1009777638785541,-0.1925374188095331,0.7743748186524957,-1.8673285341009496,-9.778068633159995,4.449606989527554,-2.892357582823674,-1.738985479313993,0.01666666753590107
171,2874.0,0.14107735375054178,0.10154606528580189,-0.09811258370578288,0.7790136574342846,-1.8764565740607677,-9.682001291546225,3.6930124210132558,-2.4160048221813524,-2.0176694704466778,0.01666666753590107
172,2891.0,0.10724303481839596,-0.0026465689860284327,0.08234159860014915,0.7387611420229077,-1.9885351392768322,-9.500341825103758,1.4754265152114778,-2.902559964452969,-2.588842332241702,0.01666666753590107
173,2908.0,0.08033566560521721,-0.07104322886392474,0.14766718046963215,0.7061401444032788,-2.0561711900457738,-9.43554815815389,-1.0404065376097824,-3.7180416492267674,-2.8005355078297844,0.01666666753590107
174,2925.0,0.07451799230240284,-0.09686945177689193,0.136305828499794,0.693271310479939,-2.075474587061256,-9.44871626728475,-3.403095436738544,-3.630750977860358,-2.893014775087876,0.01666666753590107
175,2941.0,0.040635048455558716,-0.13624533048421145,0.058007367810606954,0.6527195198610425,-2.0967232729256153,-9.531167171478272,-6.027991989731216,-2.622013999719515,-3.042036055842626,0.01666666753590107
176,2958.0,0.022988880595192312,-0.12223711726740003,-0.06865092689990997,0.6349126084810123,-2.0647005334600803,-9.661500939831138,-7.270713319590125,-1.1463364750560392,-3.1680432276324293,0.01666666753590107
177,2974.0,0.0409839714910835,-0.11469181645438074,-0.09694178636074066,0.6542158958986402,-2.0389631578743455,-9.693373749431967,-7.068625097522372,0.0016469427038325473,-3.668068997051192,0.01666666753590107
178,2991.0,0.1069685287259519,-0.03794146199002862,-0.21232406929731368,0.7267901337221264,-1.9428956701301037,-9.812186591339112,-4.5702806373492235,0.8234884807500515,-3.8784640098101493,0.01666666753590107
179,3008.0,0.17412001084834336,-0.015550766483694314,-0.1902501846551895,0.799214733941853,-1.914614163019508,-9.790937467083335,-1.3914349319358905,0.8718322928911374,-4.460584811071057,0.01666666753590107
180,3024.0,0.17175949226208032,-0.032614129487425085,-0.07471241889595985,0.8029556740358471,-1.930325965283811,-9.675267599377035,-0.24661566601009344,1.9974025916319575,-4.609836824153707,0.01666666753590107
181,3041.0,0.16589235379435122,-0.07119900394752621,0.1058762034446001,0.8041527748659253,-1.968184425165504,-9.494355736431478,-0.6504194379490091,0.25631941714955103,-4.837712852319665,0.01666666753590107
182,3058.0,0.1584217987179756,-0.08259381979554892,0.13779752836227416,0.8008607475832105,-1.9771628275215625,-9.462633148956298,-1.3831312361741535,1.1748374670803272,-4.876409289062372,0.01666666753590107
183,3074.0,0.15416443353444337,-0.06487433097064495,0.13408932149410246,0.8054995132997631,-1.9547170408271253,-9.466673364257812,-1.7047409385279588,3.5313260485465983,-3.7844520054136246,0.01666666753590107
184,3091.0,0.20075309316478668,-0.002115092457830906,0.055007016950845714,0.8692451325014233,-1.8863326559089124,-9.545682019042967,-0.9996247587361057,4.133794837118621,-2.3787457133721097,0.01666666753590107
185,3108.0,0.145998735800758,0.015641221246123313,0.10586392848491669,0.8276458786562084,-1.8677775930427014,-9.494056461223959,0.09365101155661251,4.055308706479181,-1.9853037652909262,0.01666666753590107
186,3124.0,0.10934599844701587,0.02626008428558707,0.190763979396224,0.8028059633668512,-1.857901511194557,-9.408164476665855,0.265600123447291,3.705953495056314,-1.7059877682166034,0.01666666753590107
187,3141.0,0.025553616516664622,-0.02148936275243759,0.2864233247309923,0.7317281015809625,-1.9075810495123267,-9.311199309429526,0.06100075298271444,2.1626383145894947,-2.151134355036489,0.01666666753590107
188,3158.0,-0.04220343028344214,-0.039921383760869504,0.3199906632900238,0.6726213211610913,-1.9247895200751721,-9.277232157897949,-1.3571357496364964,2.3441111047514442,-1.8566091275061345,0.01666666753590107
189,3174.0,-0.08350530861727892,-0.08255012678429484,0.31333120540082454,0.6400002504762262,-1.9621986287541686,-9.284264540752767,-2.6467621229599985,3.4190202362318405,-1.2327493603923958,0.01666666753590107
190,3191.0,-0.12353811686336993,-0.057279345797002314,0.20335399637818335,0.6165072197511792,-1.9258369833014903,-9.395146589660644,-3.786417819234119,5.093858606573483,-0.3041061686668841,0.01666666753590107
191,3208.0,-0.18085114573426544,-0.07511413156464695,0.14486498253047467,0.574459053094685,-1.9343663267157971,-9.45425344314575,-3.771158322854664,6.725652697878883,-0.2498415963716022,0.01666666753590107
192,3224.0,-0.1714219308707863,-0.03941474941298365,0.10243512308001518,0.6027404871400446,-1.889774320795387,-9.496899575695394,-3.400363361070539,7.818678906132738,-0.18991789218384736,0.01666666753590107
193,3241.0,-0.11367299480065703,0.015526947216689586,-0.026037527576088904,0.6833952286317944,-1.827076164820045,-9.624989364513754,-1.4220035502879884,5.932555037119097,-0.545892197242691,0.01666666753590107
194,3258.0,-0.11701470644399523,0.01352116035223007,0.04516834450364113,0.6935705856874584,-1.8279739904426038,-9.552864039501547,-0.12612045688049037,5.500090510762338,-1.5365079364635499,0.01666666753590107
195,3275.0,-0.1475993028651923,-0.0038781566075980663,0.0834849234163761,0.6756140732362866,-1.8451823148749769,-9.513509349712729,0.013244243728757186,4.2490026260569875,-2.2678010296928885,0.01666666753590107
196,3291.0,-0.1784090863443911,-0.09070683749392629,0.06336100379824638,0.6563108223512768,-1.9303262575447557,-9.532962822723388,-1.1779601441914924,3.1552985215280085,-3.1335672074665553,0.01666666753590107
197,3308.0,-0.17085574835538864,-0.0836029968380928,-0.03466507066786289,0.669628569085896,-1.9191034372627733,-9.631274143871664,-1.776320040369223,2.3209249603967783,-3.0430605842181278,0.01666666753590107
198,3324.0,-0.16955138775855302,-0.08593670048266648,-0.06301788944900036,0.6756140732362866,-1.9173076398871838,-9.66000514831543,-0.9364527659894809,1.5278347701563972,-2.4233293462925447,0.01666666753590107
199,3341.0,-0.22882278415560722,-0.08615911106169223,-0.02717442265152931,0.619799247033894,-1.9155119886420666,-9.624241176494955,0.22342481256015972,0.8151760338084403,-2.612634442441795,0.01666666753590107
200,3358.0,-0.300749444790557,-0.1247800797484815,-0.023971242696046828,0.5473746468141675,-1.9556148664496837,-9.620799511608482,0.988775216682952,-0.4733218641981286,-3.8265170060776175,0.01666666753590107
201,3374.0,-0.3212549841374159,-0.12621201224774123,-0.04344283588528633,0.525228208392486,-1.9602536321662365,-9.63980348728597,1.7274238900398653,-1.1133354555857704,-4.6819939307534835,0.01666666753590107
202,3391.0,-0.33729506850801405,-0.14730696885511277,-0.01628477984666824,0.5047279297426343,-1.9861410837471485,-9.612121115112304,1.486685975336538,-1.7349328292586481,-5.156557608720084,0.01666666753590107
203,3408.0,-0.36539281654953953,-0.17808818382695316,-0.011431494596600532,0.4722565697267651,-2.019360485651344,-9.607183074188232,0.9030587971985249,-1.39938110998326,-5.332277885497002,0.01666666753590107
204,3424.0,-0.37360045372880996,-0.1665849391683936,-0.042431028494238854,0.463128529766947,-2.0091849824652073,-9.638007836040854,0.9595115913491497,-0.06950648627370917,-5.267385538853181,0.01666666753590107
205,3441.0,-0.3147027860149741,-0.11483239396885037,-0.13962766639888285,0.5220858917787671,-1.962498196222633,-9.734225399780273,2.390833867542563,0.7053591851159174,-5.10212740433743,0.01666666753590107
206,3458.0,-0.2786158658504486,-0.07583484705463052,-0.14094517873823642,0.557849279077351,-1.930475749018043,-9.734224815258383,2.9271956030155586,0.8969485526557138,-5.416564981175899,0.01666666753590107
207,3474.0,-0.26625724647156895,-0.06924933118447661,-0.1325894383251667,0.5710173882082105,-1.9313735746406018,-9.724348733410238,3.3845265002628064,-0.4411017007686364,-5.6169691347264195,0.01666666753590107
208,3491.0,-0.22112039308473466,-0.06087050215676427,-0.12005319735705852,0.6109706284120678,-1.933169225885719,-9.71028279865682,2.5216260137327833,-1.599827205164153,-5.7162015380829505,0.01666666753590107
209,3508.0,-0.176946174184978,-0.03994900242015719,-0.1456599323004484,0.6470332178529351,-1.9174571313604711,-9.735571553692221,1.6405574374539373,-2.7159431880723535,-5.345132301514966,0.01666666753590107
210,3524.0,-0.17660400968380272,-0.03176598822548985,-0.1574853946506977,0.6402995987489819,-1.9116212648138402,-9.747542561993003,0.819951883503013,-2.682092557102359,-4.750772228148219,0.01666666753590107
211,3541.0,-0.12005180911757052,0.043196021517366165,-0.2868354126632213,0.688782182367146,-1.83665297146067,-9.877577639660238,-0.05394726198356724,-1.7294664367668164,-3.974881948341811,0.01666666753590107
212,3558.0,-0.027889512118324637,0.14140081355124712,-0.48102469033300876,0.7757216301515698,-1.7381914281867443,-10.072256162151694,0.8341294885901083,-2.073933580621481,-3.6760539150777602,0.01666666753590107
213,3574.0,0.03487601000480354,0.1942386697694659,-0.5286211387664079,0.83303283239156,-1.689259931757301,-10.11954222946167,3.046825299111274,-2.9054309917819015,-3.8065301650188674,0.01666666753590107
214,3591.0,0.07274974052086472,0.21687939451411364,-0.4488403305649757,0.8626610779359937,-1.6798327627204357,-10.037839513286947,5.0612781773457,-3.0895020285928063,-4.305952316469731,0.01666666753590107
215,3608.0,0.0888160553112626,0.18333777491822836,-0.3623842823833227,0.8710407106813043,-1.7257715070746837,-9.949553327068687,5.318270021282953,-4.299478150910205,-4.4628865848213515,0.01666666753590107
216,3624.0,0.10100151008032261,0.1716230794660747,-0.3465373094320297,0.8735845499452203,-1.7489653356574475,-9.932195365032554,4.9050649208383374,-5.453263160699554,-4.573558701264007,0.01666666753590107
217,3641.0,0.14357296995855867,0.18125965346992015,-0.2950572975635528,0.9023151159975678,-1.7507609869025647,-9.879523513031005,5.5806171604163195,-6.791077372391142,-4.072017056736325,0.01666666753590107
218,3658.0,0.11467091979682445,0.16724632568657397,-0.23352117110490797,0.8550295601442456,-1.7827834341071545,-9.815777309307455,6.303996092110023,-5.72965359565329,-4.0067294128942885,0.01666666753590107
219,3674.0,0.12954232571423052,0.1476654269039631,-0.23420973789095878,0.858471151965484,-1.817349574445188,-9.814280933269858,6.552982100566376,-5.008751461307362,-3.9680065091685472,0.01666666753590107
220,3691.0,0.16935966457873583,0.126626438267529,-0.19316285723149776,0.8860046171877533,-1.857901511194557,-9.770137840160727,6.354538638194471,-4.228242692961556,-3.0618790360419825,0.01666666753590107
221,3708.0,0.24197394215166568,0.12189517196193336,-0.14312953703999517,0.950498351342976,-1.8775040372870861,-9.717615625762939,6.4719137315338475,-4.078263264732301,-1.8705096296841681,0.01666666753590107
222,3724.0,0.25934790547452863,0.13019845153540371,-0.09651800799071789,0.9597758827760815,-1.884537004663795,-9.668384269604086,6.129098426241268,-3.2650135577132158,-1.3200393914285704,0.01666666753590107
223,3741.0,0.27639804367050524,0.10745996550470589,-0.05816343515515327,0.9681555885866284,-1.924190969660133,-9.62708429096639,4.8682228804552885,-2.868817762736048,-0.8941219749172393,0.01666666753590107
224,3757.0,0.37166027944646773,0.1179595860786736,-0.11075286957025528,1.0586863388612866,-1.9240413320563732,-9.677811438640951,4.495908415024248,-1.9413427468020201,-0.17701988034907165,0.01666666753590107
225,3774.0,0.42337431926652785,0.13180661738440394,-0.15150456667542456,1.1074682707522063,-1.9211982175849378,-9.71641794041097,4.729987108730224,-0.6882714391947207,1.2682318729654949,0.01666666753590107
226,3791.0,0.49709516984187063,0.10293868868798017,-0.12326046896576881,1.1827359123781322,-1.966388773920387,-9.684545130810141,5.474676230634367,1.1239808390157642,2.4458245743239817,0.01666666753590107
227,3808.0,0.5934141481291503,0.035536154413968325,-0.05503507400155067,1.2853873085573315,-2.046893512482196,-9.613018356212972,5.794076793678497,2.5422220222881333,3.1992021237392043,0.01666666753590107
228,3824.0,0.6588824994701892,0.009142653007060289,-0.03755670045614242,1.3585600967958569,-2.0886426961921156,-9.591620178875326,6.336943217118872,4.022756878668546,4.361482181308757,0.01666666753590107
229,3841.0,0.7474963102076202,-0.05663944045826792,0.020066636472940443,1.4649524330690502,-2.174833809827268,-9.528173834881185,5.855101118817975,6.09743366924909,6.839250269720419,0.01666666753590107
230,3858.0,0.7907028531190008,-0.15563596739172936,0.07662555904090404,1.5267527634218334,-2.2863141168892382,-9.467420967754721,4.973051770062998,7.0406251639067285,8.2808095053758,0.01666666753590107
231,3874.0,0.809035870732367,-0.20076558732017874,0.03346329366266727,1.5625162237856536,-2.344373361017555,-9.50632674473226,5.049841879354159,8.475546736349326,9.085188077323508,0.01666666753590107
232,3891.0,0.8589873578593135,-0.2674140883564949,-0.04136544508934021,1.6449664703920484,-2.431911359217018,-9.573813888549804,7.164205057220238,11.182267888381693,10.083660134915469,0.01666666753590107
233,3908.0,0.8515565502714365,-0.300367532800883,-0.09829729262292385,1.669207689135894,-2.4875764016851782,-9.622894438061117,9.939985398176958,13.202228033521264,11.071125342659952,0.01666666753590107
234,3924.0,0.8060328164588659,-0.2750225175336003,-0.0993055928826332,1.655890015466511,-2.4919160383246837,-9.614215457043052,12.006901386313073,15.21722604622882,11.721758063937967,0.01666666753590107
235,3941.0,0.6676523736421018,-0.2511364689029753,0.007693477112054824,1.570297233050689,-2.514660807965696,-9.491362984356284,13.45700518862014,17.948763836836783,12.022203571374842,0.01666666753590107
236,3958.0,0.53878400166668,-0.2290549854762852,0.14500994395911693,1.4841060463503002,-2.5284276136420667,-9.34127705230713,12.74220710895809,19.512621024675827,11.931672829020908,0.01666666753590107
237,3974.0,0.4717050733238458,-0.15806027192920447,0.1423310801386833,1.460014392144978,-2.4902700246833263,-9.331550023540855,11.362508042841867,20.763585539089295,11.77649519994645,0.01666666753590107
238,3991.0,0.33509763152897354,-0.05926920443996787,0.16395839005708693,1.3826516048707067,-2.4305644746527073,-9.293841347393393,9.806672058409356,21.197765296701373,11.76119813752656,0.01666666753590107
239,4008.0,0.16191709348782896,0.01901347415819764,0.18586802404820918,1.2559087006166576,-2.378041821863502,-9.260172886547446,8.481740010379236,22.193709330526783,11.420170207362407,0.01666666753590107
240,4024.0,0.05506335024796426,0.061594724778085946,0.17694237479269503,1.1979989479616284,-2.3576909616217017,-9.25762904728353,6.901679906281628,22.899088579323386,10.792390445273611,0.01666666753590107
241,4041.0,-0.11444397917315363,0.10747998537942767,0.09925532400012016,1.0971432030275463,-2.3349461919806895,-9.320776116070151,4.502278847085754,24.45361231366161,10.01851293683824,0.01666666753590107
242,4058.0,-0.1944451521269977,0.18529753068387508,-0.03713116852045059,1.0715551727846264,-2.2695547052681446,-9.446771562957764,3.1834766803923076,24.747527306478304,9.825519965424007,0.01666666753590107
243,4074.0,-0.2779128321476281,0.20072773952782152,-0.062081485381722444,1.0429743904665112,-2.264018113929033,-9.46158510120809,2.4596151531450605,24.690030774045137,9.092167676881616,0.01666666753590107
244,4091.0,-0.35103958928734064,0.2813411991611123,-0.10656652379631995,1.040430551202595,-2.1948855409920216,-9.492859360393881,2.1885541867346383,23.054582958420603,8.059539550797714,0.01666666753590107
245,4108.0,-0.4274260788753628,0.28460341582745313,-0.10984686064124106,1.0145432457521557,-2.1995243067085744,-9.486424943432212,1.867702421935293,22.22278886091811,7.324222729095297,0.01666666753590107
246,4124.0,-0.47206309298127885,0.30809593509584665,-0.12457973487079142,1.0182840397156774,-2.1821660524114965,-9.491961534771322,0.8440835821709027,20.707444799206375,7.052273624649362,0.01666666753590107
247,4141.0,-0.5038134452462196,0.34272271957993505,-0.1009662195712328,1.044769895581156,-2.1514906359016894,-9.457844745635986,-0.9677100595089864,19.02850746158908,7.564307293515831,0.01666666753590107
248,4158.0,-0.5636062351688742,0.31807606184035536,-0.017740239351987836,1.025017731884867,-2.174983447431028,-9.368211236461997,-3.0094274520845157,17.84297615942433,8.387274225289728,0.01666666753590107
249,4174.0,-0.5968696223452687,0.30473522649109364,0.05545826784968376,1.0260653412416576,-2.181268226788938,-9.290998232921957,-6.02727695430248,14.475148191021738,9.35765712992001,0.01666666753590107
250,4191.0,-0.6094558399349451,0.2458741644605994,0.1798497866719961,1.0378865658082068,-2.2255612497627735,-9.166200471386313,-9.622394408376058,11.083933654901019,10.920154256340576,0.01666666753590107
251,4208.0,-0.5040250421702861,0.31590880080386996,0.22970541220903395,1.1625348358705638,-2.1236578954719008,-9.121309190258383,-14.069247977894452,7.396224022004633,15.131905030664313,0.01666666753590107
252,4224.0,-0.44677185372784733,0.3127003601513803,0.13192074528336525,1.2201453133180737,-2.0968727643989027,-9.226804285430907,-16.838572936311863,1.6741007099112815,20.1613387316653,0.01666666753590107
253,4241.0,-0.4866027827262878,0.3401049382969737,0.09052256696820259,1.148169479779154,-2.0192109941780565,-9.286658742412925,-22.567590470598695,-9.267271529085939,24.97665624747014,0.01666666753590107
254,4258.0,-0.7737912466108798,0.3506313007473945,0.24500468814969062,0.8170214626587927,-1.956363200598955,-9.152733087047935,-28.494975481402918,-13.792906208038552,24.60470805093334,0.01666666753590107
255,4274.0,-1.000131858561933,0.18968188324794172,0.3019605010807514,0.5348049419678748,-2.0500361944220957,-9.121309190258383,-33.72150795128296,-20.259469767018164,20.688878637494987,0.01666666753590107
256,4291.0,-1.0706770747758447,0.21495924010649323,0.17015139947831628,0.3782840084351599,-1.9105739477179944,-9.293093743896485,-40.38556643011349,-23.81293203177795,13.881029308710056,0.01666666753590107
257,4308.0,-1.038696274755895,0.24813845613077282,-0.09137363083958626,0.34237098353281614,-1.7793417692206799,-9.586233225139974,-41.5873006485368,-25.070813820273347,9.463633491308283,0.01666666753590107
258,4324.0,-0.9668385146386921,0.28114041589200495,-0.31456863824129105,0.34895503809824585,-1.647361548835039,-9.839270997619629,-39.46860670385011,-24.19424612521413,5.910473462419269,0.01666666753590107
259,4341.0,-0.7546379255905747,0.326294878000766,-0.6668371848016977,0.48482612844258544,-1.4857527906440198,-10.224587827301026,-30.954902261928858,-18.96523258911808,3.1188637311742218,0.01666666753590107
260,4358.0,-0.7140127774745225,0.2500299689657986,-0.7668892121374606,0.48602308314219117,-1.4945814092658458,-10.3422029838562,-23.28859719221629,-11.923592715232783,0.4408240909314724,0.01666666753590107
261,4374.0,-0.6785712425414473,0.16303572225421667,-0.7652683329373597,0.5009867704529315,-1.5316913888677954,-10.352078481182456,-16.240663299010823,-4.974133928159622,-3.5256373547416238,0.01666666753590107
262,4391.0,-0.593686096938327,0.014111089069396256,-0.7218307577490806,0.5868788280762731,-1.6376348123297095,-10.316015818676352,-7.835867930952721,3.039885400027718,-8.501001143838671,0.01666666753590107
263,4408.0,-0.23664719417095184,-0.06605564970970153,-0.5844231054872274,0.9602247225221245,-1.702278549414873,-10.179247633361816,-2.3735257412989275,6.674057875775429,-9.544434629189533,0.01666666753590107
264,4424.0,-0.059024582029134035,-0.11569514827802777,-0.4913087684601545,1.1599907774109393,-1.7476184510931372,-10.084077532848715,0.7605298780541367,7.3706073975225,-7.995331503731363,0.01666666753590107
265,4441.0,0.1642969743616879,-0.25834581575989723,-0.1406891581505537,1.4086884017944334,-1.8894750455878675,-9.73033423756063,-0.2899191187088272,4.989755424565088,-4.83833354576049,0.01666666753590107
266,4458.0,0.15989932392463088,-0.42844753087759013,0.18920213690698146,1.4155717315673828,-2.053028946497291,-9.400084046062826,-4.079744562008548,2.8670137390215187,-4.308884175170959,0.01666666753590107
267,4474.0,0.12455913047417998,-0.4940807173915207,0.2271674181640148,1.38699109537974,-2.101212401038408,-9.364171021160482,-8.306270743054315,1.0139995321746322,-5.239475678357216,0.01666666753590107
268,4491.0,0.2036371972337365,-0.4751720187820494,0.1013578492373228,1.4686932270325719,-2.04749235515818,-9.495403199657797,-10.562575070270192,-0.9942206917204505,-4.284304031895375,0.01666666753590107
269,4508.0,0.3747716164000332,-0.41244112958088514,-0.13780980332195758,1.6386815449036656,-1.957410517694801,-9.739162856182455,-10.785996534436832,-0.3962608952176945,-1.2690675039217636,0.01666666753590107
270,4524.0,0.43797991385459895,-0.3869603591047227,-0.2497586046785116,1.699434558160603,-1.9059351820014416,-9.855581496429442,-10.111125179341736,-1.8181502532804967,1.671600327066528,0.01666666753590107
271,4541.0,0.4065228454478085,-0.4070382476240396,-0.28870296010076996,1.66142646067515,-1.898303810340166,-9.899724005016685,-8.215366901616969,-0.9497578677709599,3.8327674829418252,0.01666666753590107
272,4558.0,0.37380101780220865,-0.36788463336527344,-0.2765489964485168,1.6271594494141637,-1.844733255933225,-9.889997560772299,-6.551669850472087,0.03182474616935873,5.157276059243405,0.01666666753590107
273,4574.0,0.3699177466280758,-0.3314551833733916,-0.2840928359568119,1.6223711922243236,-1.7977470483526587,-9.899275092205405,-4.529871103785313,0.3445186904385571,6.095067862475326,0.01666666753590107
274,4591.0,0.27654519705623387,-0.25409838744848967,-0.23449966074824333,1.5319899334229528,-1.7154466585457324,-9.850044320568442,-3.185024998899785,1.9116461515078624,6.40247418645009,0.01666666753590107
275,4608.0,0.2233059204302728,-0.1606366982884705,-0.18008417994976042,1.4869490146912634,-1.6162369272530077,-9.795427179718017,-3.2347701203986343,2.2258756210200574,6.824373690821308,0.01666666753590107
276,4624.0,0.20781448291838167,-0.10796586920022964,-0.13774199878275395,1.4734817764833568,-1.5578781156562267,-9.753678288269043,-3.6899917698528175,0.7126986502659193,7.333648390149914,0.01666666753590107
277,4641.0,0.12629852148741483,-0.03316431071609258,-0.09953414094150066,1.392078773907572,-1.4746796079657971,-9.71671780014038,-3.75000053124008,0.5169754708135312,7.460656611539948,0.01666666753590107
278,4658.0,0.08360007422864436,0.07614230556860566,-0.1940583447664976,1.3485343773439527,-1.3608055376350878,-9.812036953735351,-2.668716912273358,-0.3857192186052938,7.633889845685335,0.01666666753590107
279,4674.0,0.06097542383596301,0.08661153100430966,-0.2069032132923603,1.32144967880249,-1.348086049054563,-9.82580302875936,-1.657573893275672,-1.4296016021310987,7.585452705412544,0.01666666753590107
280,4691.0,0.03620280162915587,0.132254068890959,-0.17225509375929832,1.2862849880494176,-1.3009504961311817,-9.792733702850342,-2.015284667209286,-3.410768513940819,8.035056737717802,0.01666666753590107
281,4708.0,-0.07202128011584281,0.09667436759620904,-0.08911153112649917,1.1667246887758373,-1.3326735219977794,-9.711629537090658,-3.292692685881281,-4.2191751899515415,7.511474072738489,0.01666666753590107
282,4724.0,-0.10151822743080556,0.08744242887049913,-0.07207271804213523,1.1237786234315483,-1.3344693193733692,-9.697413964733482,-4.4123521495865425,-4.960708764459139,6.461977513838772,0.01666666753590107
283,4741.0,-0.0821812204066664,0.08928060408309102,-0.11873743858337402,1.1243771738465875,-1.319056500055641,-9.74844097213745,-4.729533754924065,-4.984926053935066,5.6332676736333624,0.01666666753590107
284,4757.0,-0.021229104381054638,0.07659501777216791,-0.15479484039247035,1.173308670276031,-1.321450701715797,-9.78749580219686,-4.098491296846117,-3.8322466810176117,5.480969823067711,0.01666666753590107
285,4774.0,0.053149698646366594,0.09913798123076557,-0.16846739191412924,1.2381016796387732,-1.2909247766792773,-9.803507610321045,-3.29944859674407,-2.7607733481331436,6.684910192592933,0.01666666753590107
286,4791.0,0.1312704646810889,0.08407046821936964,-0.13315700908005237,1.3075335277833045,-1.299902886774391,-9.770138424682617,-2.9247038646289734,-1.739027954552894,8.237302907910111,0.01666666753590107
287,4808.0,0.1471099849782884,0.07334083828181027,-0.0699701928049326,1.3135191049989312,-1.303045276453346,-9.709235335430503,-3.616270549933108,-1.9573672243685163,9.157290115523102,0.01666666753590107
288,4824.0,0.1290836952265352,0.045060938606411215,0.0063292030215263365,1.285836002172902,-1.323844757245481,-9.635164721569419,-4.508057187123585,-2.46096027352473,8.687111845890472,0.01666666753590107
289,4841.0,0.08413345045298337,0.050286125908792015,0.09797405201792717,1.2313679874695838,-1.3039432482063769,-9.546728897747396,-5.79110139252131,-0.8305912371566301,7.897466845756127,0.01666666753590107
290,4858.0,0.09928696124739944,0.02631239899471402,0.05664660085141658,1.245134647015482,-1.31322063350901,-9.59027344044149,-7.190118794931267,0.6515102938646542,7.977056478833347,0.01666666753590107
291,4873.0,0.1324147393453866,0.03533873214572668,0.027211247530579564,1.2810476719178259,-1.2862858648322522,-9.62184755935669,-8.75440201581979,2.744135861088639,8.795687094257932,0.01666666753590107
292,4890.0,0.20450323947854337,0.08364479015320539,-0.11156126334369182,1.3611037899293004,-1.2182007551215588,-9.76235668476522,-8.681424005859144,3.6837041538349977,9.865316916396733,0.01666666753590107
293,4907.0,0.19402100843079387,0.05697714798003435,-0.14389759880304337,1.3624505283631383,-1.2231389421761034,-9.796174783214926,-7.096861526438028,5.011688015763645,10.111223363311055,0.01666666753590107
294,4924.0,0.1646283982731402,0.04231894642189145,-0.14945347936451434,1.3450924932617694,-1.2234379251226781,-9.802160287365316,-6.951112973512772,5.865021114813773,8.918060178522467,0.01666666753590107
295,4941.0,0.09223499690927564,0.00358998731598258,-0.17949965806007384,1.2856864376343786,-1.2473802339851856,-9.832537305450439,-7.220369702765253,5.3868562196072824,6.6264804855644135,0.01666666753590107
296,4957.0,0.12313399304188787,-0.009016542409360409,-0.25498949106931684,1.3373113378662616,-1.2381024102911353,-9.908253348430991,-7.136933392524846,7.516742709909508,4.249806453944933,0.01666666753590107
297,4974.0,0.1664364706084132,0.024082740246504544,-0.34440906523168086,1.401057030133158,-1.1899193210761994,-9.996989031982421,-5.541984329810258,8.392145857715239,3.9320088509216413,0.01666666753590107
298,4991.0,0.21243059841170905,0.030275822732970116,-0.30889000808298583,1.4668975757874547,-1.173608895331621,-9.960178181457518,-3.4542911196623747,7.368758123804719,4.338980123088151,0.01666666753590107
299,5007.0,0.07545593073964119,-0.04457658915556967,-0.07650397848784923,1.3531729969300328,-1.2419932071845978,-9.725546418762207,-1.8492677413654286,7.098666403926204,3.391503325056563,0.01666666753590107
300,5024.0,-0.01683598398864269,-0.10437237475290893,0.014533552265167235,1.277755644635111,-1.2976583957832306,-9.632771104431152,-2.3000879742297733,7.174367524931571,1.5724344113326996,0.01666666753590107
301,5041.0,-0.1074661029845476,-0.15023191639110445,0.01910334439873695,1.2054806820191442,-1.3373123607795685,-9.626486325073241,-2.8576136911762884,7.780782455296568,0.13546842453329908,0.01666666753590107
302,5058.0,-0.12712985774502158,-0.13045074579603969,-0.07315759066939354,1.2150573425292968,-1.3085819408576935,-9.715819389995932,-1.8046905117473404,9.560682795451347,-1.448066164778582,0.01666666753590107
303,5074.0,-0.1482778597138822,-0.1249799131695181,-0.11104746860265731,1.221641543225199,-1.2996036115668714,-9.750236623382568,-0.3726531734447652,11.42503244827781,-2.17957227453266,0.01666666753590107
304,5093.0,-0.14247911030724644,-0.11736731927394867,-0.08925064733624458,1.2696750679016113,-1.292720281793922,-9.722253806957601,0.8514338795740414,13.46122624552721,-1.8962338296457288,0.01666666753590107
305,5108.0,-0.09270458718240261,-0.1002067795060575,-0.04150456129908561,1.3521255337037146,-1.2786544201057404,-9.669282679748534,0.9717592944697462,13.326926797198187,-1.0994915159118008,0.01666666753590107
306,5124.0,-0.09932809697538614,-0.12960837668776512,-0.005021627554297447,1.3763668255127965,-1.3103775921028107,-9.627832478985189,0.5129964053743229,12.417763731872375,-0.8413472376346663,0.01666666753590107
307,5141.0,-0.1069981932118535,-0.14539419403634965,0.03372165233790874,1.394472975567728,-1.326688090912625,-9.585036708831787,-0.9516794988052607,11.865609531821251,-0.6652607986852122,0.01666666753590107
308,5158.0,-0.12167612238377332,-0.12724303579591215,-0.05987140811681747,1.4119805752076209,-1.3018482486885041,-9.674369773754478,-3.169314496591698,10.265899827255163,-0.41205960301560995,0.01666666753590107
309,5174.0,-0.11011369488388299,-0.09371865959577262,-0.13532441624701022,1.44445193522349,-1.2606979807198047,-9.747393508911133,-3.0134711375165746,8.520267399939986,0.5390996274739662,0.01666666753590107
310,5191.0,-0.05730141149833798,-0.021917451971396804,-0.10913666654527186,1.513285232952982,-1.1846820049446076,-9.719111417278647,-1.7429411193387823,7.871964626942592,1.6829666156190755,0.01666666753590107
311,5208.0,-0.1404305072143674,-0.06760777452252804,0.03463818266093731,1.448641641998291,-1.2289747356574983,-9.572466565594077,-1.505766428948086,5.578401617804297,3.3519584507528934,0.01666666753590107
312,5224.0,-0.23638459771201012,-0.1115496459711343,0.11909165884852409,1.3606547309875487,-1.2689279027961193,-9.48717313145101,-3.8510954418059082,3.270371414230268,3.1514266580422574,0.01666666753590107
313,5241.0,-0.3579800560750067,-0.1729820197943598,0.1576812094837427,1.245283992358297,-1.3130709959052502,-9.449614092907309,-8.440072441347573,3.264712389059501,2.8724452335155597,0.01666666753590107
314,5258.0,-0.31257717216312886,-0.10123714546710252,-0.09800503167808056,1.294365418652445,-1.2204453191779554,-9.707140993499756,-9.576730324906292,2.6365234559507376,3.1778345172510543,0.01666666753590107
315,5275.0,-0.29343261897116896,-0.06251600434146821,-0.1872264529198408,1.3193548984803258,-1.160590277674049,-9.797821381378172,-8.509020639697912,3.8676321835601555,4.0897802443334115,0.01666666753590107
316,5291.0,-0.28277327779084444,0.01676467231810093,-0.2405564765691757,1.3385085117615758,-1.0652711971443145,-9.851541281127929,-6.621136716312525,5.2543825662207695,4.498862044953455,0.01666666753590107
317,5308.0,-0.32634821562319993,-0.042682445972040295,-0.17660569018423555,1.3061867893494665,-1.1098631299994886,-9.78734674911499,-5.838207499679595,5.311637480712047,3.4340778151439566,0.01666666753590107
318,5325.0,-0.3334393429279327,-0.06231237152814865,-0.16352642838060855,1.3093291790284216,-1.1158487802803516,-9.77402900238037,-7.159651882364779,5.413084572906954,2.6219388676386446,0.01666666753590107
319,5341.0,-0.2039173293493688,-0.04818279695399105,-0.29355332274138923,1.445050485638529,-1.080833434870094,-9.905260596355795,-7.010023355104132,2.6319271655261423,2.5439169764193545,0.01666666753590107
320,5358.0,-0.15203721224740147,-0.03745112118981778,-0.36492344547212124,1.497124225616455,-1.0556943905036895,-9.978134693908691,-5.784132465133781,2.656936330058967,1.808001019060681,0.01666666753590107
321,5375.0,-0.14537468561828135,-0.028650121227279304,-0.36755379397571086,1.5071500911988318,-1.0336977358162402,-9.981576358795165,-5.190873332883875,2.118366522493353,0.8032884097231504,0.01666666753590107
322,5391.0,-0.14378084055557847,-0.051938861551880836,-0.3951677770882845,1.5095441467285156,-1.044920336902514,-10.01030619419515,-4.675863409086573,1.511078822018475,-0.43396151172375497,0.01666666753590107
323,5408.0,-0.012083528764545918,-0.005509484136477113,-0.44365386783778665,1.6452654533386228,-0.984466818048805,-10.059537550354003,-3.112774404085744,1.4746318653902293,-0.6428722389987037,0.01666666753590107
324,5424.0,0.049598582036048174,0.01296703360080719,-0.45573535077571864,1.709160710144043,-0.9603752369087188,-10.071807249340415,-1.0364184541864354,0.6989245065875307,-0.4462127366606422,0.01666666753590107
325,5441.0,0.06298471783176064,0.002981280833110213,-0.33732407540678977,1.7233761363707483,-0.9699519704841076,-9.95329426716268,0.6600231641697231,0.5572161172780432,-1.025146400900093,0.01666666753590107
326,5458.0,-0.010227817895263433,-0.06831614198759198,-0.12873743907213211,1.6505027694702148,-1.0422270061653107,-9.744550394439697,0.14840869816356425,-0.31023941173729114,-2.6683250301697288,0.01666666753590107
327,5474.0,-0.019527268899232147,-0.09743599961847066,-0.10099310757815837,1.6415246593751012,-1.068712788965553,-9.7170170753479,-1.1068502976905492,0.5042792697243883,-3.6451592619145,0.01666666753590107
328,5491.0,0.07024930200725793,-0.05333871841244399,-0.1756850682079792,1.7345989566527307,-1.0191827421210706,-9.791685655102134,-1.5435201928636257,1.7236656851707717,-3.323153408588834,0.01666666753590107
329,5508.0,0.13026625607460737,-0.006471387971192598,-0.21510113279521464,1.8047792850770055,-0.9672585666816681,-9.829843828582764,0.0901000202195067,3.9802671256155433,-2.540653426656558,0.01666666753590107
330,5524.0,0.14486644383519887,0.044961642950400706,-0.19759820933043956,1.8320133289612828,-0.9177284467719494,-9.809941442760824,2.204687947327855,5.445165117664858,-2.3660422018461205,0.01666666753590107
331,5541.0,0.07658566542193293,0.005677534179762005,-0.127853641974926,1.7851766128540039,-0.9668095077399164,-9.73542191608846,3.987824729932162,7.159072596945797,-3.584607500488221,0.01666666753590107
332,5558.0,0.11549904118403792,-0.003946691799163818,-0.03452829254567623,1.8433857868470251,-0.9841676159065216,-9.637858782958984,3.1734785641078784,7.544433150578386,-3.9318214476062887,0.01666666753590107
333,5574.0,0.14613602537959813,0.0013934271197766064,-0.02424655250608921,1.8929156875610351,-0.9838682676337659,-9.623642626079917,2.2229420547715373,6.945046057982508,-3.1818775623528786,0.01666666753590107
334,5591.0,0.16933701435551046,0.00897774476893246,-0.016393500918149947,1.93451494140625,-0.979229428851977,-9.612120530590415,1.3678118689177552,7.228504458066738,-2.8208113512677904,0.01666666753590107
335,5608.0,0.1534983708411455,0.030660218940675256,-0.020014029502868652,1.9437924728393554,-0.9576816139105707,-9.611073067364096,0.02867348098125732,6.949758888509817,-2.077480369791422,0.01666666753590107
336,5624.0,0.12788096837326884,0.022703122456371783,-0.036596330991387364,1.93451494140625,-0.9632183513801544,-9.624839726909995,-0.8992590775858822,6.032519978264111,-2.2732935690026363,0.01666666753590107
337,5641.0,0.14538725283890963,0.06331299993805586,-0.0891974558442831,1.970876879119873,-0.9177285198371857,-9.674369773754478,-0.8341628924840179,4.537931153892751,-1.6345901999968735,0.01666666753590107
338,5657.0,0.1335077222138643,0.07282865097597241,-0.09619885903894901,1.971026662854105,-0.9059071491401642,-9.679308399200439,-0.49209133075902944,3.8503701610934176,-0.9233779696490781,0.01666666753590107
339,5675.0,0.08414177988991141,0.057687049815058705,-0.08090776640474796,1.9321208858765662,-0.9201226484321057,-9.662100074768066,-0.14924472932622967,3.8472137599232252,-0.6170631419201941,0.01666666753590107
340,5691.0,0.022437164996564386,0.03013568360991776,-0.09200842161178588,1.8857332287110387,-0.9452618389289825,-9.670479780578614,-0.8917134261003107,4.387074046355149,-0.9213687200943308,0.01666666753590107
341,5708.0,0.013194120354950427,0.03693301559984684,-0.12635960402488708,1.8887261269167064,-0.9349368442695587,-9.702800918468832,-1.3948698767581722,4.193998685784051,-0.9465402083416492,0.01666666753590107
342,5724.0,0.028990386032313107,0.05925992515496909,-0.15466040035784243,1.914912561444193,-0.9088999012153595,-9.72943699645996,-0.8839304255410811,3.332970311416846,-0.6740651259687702,0.01666666753590107
343,5741.0,0.02587736857831478,0.0675352207429707,-0.13469722425937652,1.9232921211242675,-0.8982756313484161,-9.707440268707275,0.2566256284038645,3.2483440541569766,-0.7449535782910698,0.01666666753590107
344,5758.0,-0.007106763265281916,0.04127740147970617,-0.11492343325316905,1.8993502506531774,-0.9243125744026154,-9.68589186924398,0.28372523102910985,3.5956647229808256,-0.7925152804113362,0.01666666753590107
345,5774.0,-0.01768617107719183,0.029222733483463523,-0.1272480772972107,1.8966567737855016,-0.9361339450996369,-9.696666361236572,-0.05517429479578945,2.6038815550204237,-0.763181272112571,0.01666666753590107
346,5791.0,-0.032331367023289204,0.04412124660350382,-0.09259761967658996,1.8872296047486363,-0.9204219967048615,-9.661052611541747,-0.05243049308036161,2.203037602869651,-0.5043593110037243,0.01666666753590107
347,5808.0,-0.05029153273627162,0.02915675557516515,-0.07843523881137371,1.8779519271850584,-0.9334403951667248,-9.645340078625082,-0.6782651053389462,2.965522355769439,0.01055483006263822,0.01666666753590107
348,5824.0,-0.041497400905936954,0.031290114342048765,-0.11842355032861232,1.892317137145996,-0.9294001798652112,-9.684395493206381,-0.6238005365670298,1.5988472864616678,0.720106524029327,0.01666666753590107
349,5841.0,-0.031932138572633266,0.03209069013521075,-0.14303542901575564,1.9036897411622107,-0.9271556888740509,-9.708787007141114,-0.37268190826404685,0.5868112735908556,1.2570237459809155,0.01666666753590107
350,5858.0,-0.09556041500493884,-0.002497296708449721,-0.08946867400109768,1.8396448467530309,-0.9611233518622815,-9.655366382598876,-0.2233899679232221,0.038913935579089835,0.9728287526833821,0.01666666753590107
351,5874.0,-0.08962269551903009,-0.008994768968969584,-0.10395195738375186,1.8435354244507849,-0.9669592914741486,-9.670330142974853,-0.3181757180268757,-1.2868080665172255,0.9286022105904916,0.01666666753590107
352,5891.0,-0.05825549735277891,0.01898855891264975,-0.150205759036541,1.8688241794861853,-0.9394259723823517,-9.717764678844809,0.4600620657807538,-2.3250094135204455,1.32779987370788,0.01666666753590107
353,5908.0,-0.07568272523283957,-0.006513765808194875,-0.11852817974686622,1.8430865116395054,-0.968605305115506,-9.687388829803465,1.1083572081761832,-1.8807393320701433,2.0932692058315525,0.01666666753590107
354,5924.0,-0.0869143133431673,-0.014217764314264058,-0.1112958904057741,1.8257285496033726,-0.9790800104439258,-9.681103465923666,0.5765306115903699,-2.2513170084612972,2.223360190414789,0.01666666753590107
355,5941.0,-0.07517886736392974,-0.003956701736524701,-0.1086076742351055,1.826776012829691,-0.9707001585029065,-9.680355862426758,0.02889001932228788,-2.7869726731288433,1.8943676938984344,0.01666666753590107
356,5958.0,-0.06891425401121377,0.030161987094953654,-0.12634382193386554,1.8248307239808141,-0.9371814083259552,-9.699659113311768,-0.011927244518561211,-2.322434005316528,1.3967785944660736,0.01666666753590107
357,5975.0,-0.05824088430553674,0.02807349038310349,-0.14113164122104643,1.8305168067932127,-0.9398749582588672,-9.715370477184653,-0.03572582472206738,-0.838969317947297,1.1969937469742022,0.01666666753590107
358,5991.0,0.01541004283875227,0.09077741851210594,-0.2614139711588621,1.9009961181640624,-0.877176656153053,-9.836277661022544,-0.03614442727278189,-1.2284145381469649,1.601901554959427,0.01666666753590107
359,6008.0,0.07562514982670546,0.12363690106272697,-0.30015082131028176,1.9541174674987791,-0.8475484106086194,-9.876081263622641,1.3801353444494564,-1.375094237955164,1.9876802442352677,0.01666666753590107
360,6024.0,0.06443038659542799,0.14094612858630717,-0.2770475936204195,1.9388544319152832,-0.8360263151191174,-9.853186710247396,2.49541665689674,-1.5905275824440634,1.7032271978531546,0.01666666753590107
361,6041.0,0.12642901599928735,0.1624365142520517,-0.274754514247179,1.9913773769654333,-0.8248035679023712,-9.85169091873169,3.204230423628803,-3.8206105999928486,1.2848792851286372,0.01666666753590107
362,6058.0,0.12460633061677216,0.13156586743108928,-0.16554478246569632,1.9771618046082555,-0.8632603590033948,-9.744101481628418,2.5963659990558825,-5.16504753385841,1.2389503183851212,0.01666666753590107
363,6074.0,0.10554755601212382,0.11858991987146436,-0.12118424721360206,1.9439422565735875,-0.8816658573310822,-9.701903092846274,1.6446393292566663,-5.964795664435673,0.7129968307118726,0.01666666753590107
364,6091.0,0.07449629192724823,0.10661430846080183,-0.1493120250672102,1.898003366088867,-0.896479980103299,-9.732579386138916,1.2292592404482252,-6.412497915943907,0.15218301801023099,0.01666666753590107
365,6108.0,0.09026099342256784,0.13248451664596794,-0.21046528968811035,1.894262425994873,-0.8753810049079358,-9.796922971233725,2.3346058293043135,-5.334311574322374,-0.45372823926433054,0.01666666753590107
366,6124.0,0.1199322013258934,0.15897241833806036,-0.21550854455232618,1.9122190845765172,-0.8565267398994415,-9.803357972717285,4.069844202806614,-4.505052757662425,-0.43729405706933944,0.01666666753590107
367,6141.0,0.114158878621459,0.10970029177740216,-0.0889800137013197,1.8950106140136718,-0.919374460413307,-9.677512747955321,4.044006877836925,-3.231660463335574,-0.25926704398280825,0.01666666753590107
368,6158.0,0.008774842607975005,0.002094341930747032,-0.0025537761360406876,1.7829320487976072,-1.0335479520820081,-9.591620178875326,2.1598210750002758,-3.2855239754605297,-1.2571613102596677,0.01666666753590107
369,6175.0,0.008160510101914405,0.0015991788249462842,-0.06668751787245274,1.77485161819458,-1.0365407041572035,-9.656862174114584,1.0914124693407337,-3.4482893043726373,-1.9020151578913214,0.01666666753590107
370,6191.0,0.10166530775129795,0.072441039897874,-0.24318039533197877,1.861042877960205,-0.9677073333624749,-9.834482009777426,2.1833796781081194,-3.480872935251595,-1.7053131803143589,0.01666666753590107
371,6208.0,0.11448460344448685,0.07963855018652975,-0.2423474516391754,1.8652328769959508,-0.9701016811531037,-9.834183319091796,4.551778935548128,-2.5198791928525526,-1.7199163382032576,0.01666666753590107
372,6224.0,0.08919277966916561,0.06391527668014169,-0.22246084790825843,1.835903614398092,-0.9967370284918695,-9.813832020458578,4.852983020869698,-1.9130252093899704,-1.9384591263118054,0.01666666753590107
373,6241.0,0.061773296215385194,0.021017215196043253,-0.19893033471703528,1.8035821842469273,-1.0500081615608186,-9.790040225982665,4.405717047694699,-2.926910656061122,-2.0867286593710306,0.01666666753590107
374,6258.0,0.11559534116536378,0.042065483117476106,-0.244644038143754,1.8448821628846228,-1.0431248317878692,-9.836427883148193,5.417045655738739,-4.723759683754465,-2.1659372959586105,0.01666666753590107
375,6275.0,0.09033098991885781,0.01514298940040171,-0.2310673482120037,1.8085202251709998,-1.0839758976142853,-9.823259189495444,6.552172296262905,-4.743374279503449,-2.3545160441783124,0.01666666753590107
376,6291.0,0.05591945562064647,0.003913447116687893,-0.1883463968604803,1.7642274944581091,-1.1098630569342522,-9.780612472423911,6.593796322838609,-4.550800510949524,-2.7768878988193193,0.01666666753590107
377,6308.0,0.10594926868081092,0.020888547315075993,-0.23386545449793336,1.7998412441529332,-1.1124070423286407,-9.826402163696288,6.628605528169933,-5.108278416571849,-2.112510702497125,0.01666666753590107
378,6325.0,0.12993220181465148,0.04909326286241412,-0.28205168551802634,1.8125604404725133,-1.1008848737739025,-9.874584887585044,7.488591231471654,-4.479060045889119,-1.1309922416421938,0.01666666753590107
379,6341.0,0.12443024339750408,0.042945992279052735,-0.2987485532969236,1.7969979835510252,-1.1260239912055432,-9.890745748791097,8.133274857982586,-4.3337810684693014,-0.7669631692003482,0.01666666753590107
380,6358.0,0.07411766787320374,0.009721329677850008,-0.18579086715877055,1.729810845593363,-1.185579830567166,-9.777470667266845,7.768107331744317,-6.6442803854282895,-1.0890657657523053,0.01666666753590107
381,6374.0,0.04510053996443748,-0.0049244507901370525,-0.11147592314779758,1.682525362805277,-1.2173030025642364,-9.70414824142456,6.389747836479064,-8.23444020487423,-1.799406079763866,0.01666666753590107
382,6391.0,-0.05117737566009164,-0.051672100374475116,-0.10437105957865714,1.5673044079102574,-1.277008406464383,-9.698611650085448,4.887847721488028,-7.791875536282315,-2.727690259671129,0.01666666753590107
383,6408.0,0.010622662431746721,-0.0017547347128391265,-0.35074002181887626,1.6045641712464391,-1.2409456708930433,-9.94730934753418,5.174027951956508,-8.57610846527307,-1.877660197414937,0.01666666753590107
384,6425.0,0.04706862516701221,0.030896219653636214,-0.3988040877640247,1.6195279316224156,-1.2231389421761034,-9.996989031982421,7.388365035590887,-9.095516177122214,-1.1123151960784998,0.01666666753590107
385,6441.0,-0.04171761952787637,0.01755319234728813,-0.29487609577775,1.5086463211059569,-1.2563581979498266,-9.894037776073812,9.123685584806639,-9.60381714760727,-1.5301923593588151,0.01666666753590107
386,6458.0,-0.09583601707592607,-0.052218701406568285,-0.1967418847620487,1.4227544826783238,-1.358560827448219,-9.796624280548095,10.497402258983575,-10.322574175666992,-3.0387153032455303,0.01666666753590107
387,6474.0,-0.10182269027009606,-0.05666705911755562,-0.1455430279225111,1.3908816730774938,-1.3880395815193651,-9.746046185955406,10.385280434889586,-11.044532001126509,-3.789146906694362,0.01666666753590107
388,6491.0,-0.053162704258412116,-0.03439677512049675,-0.14676993936896324,1.4130278923034667,-1.3898349405035375,-9.747991474804282,10.344349672514637,-11.57582509590512,-3.446746535393861,0.01666666753590107
389,6508.0,-0.019339345111697912,0.02479088851585984,-0.2133078196376562,1.408987677001953,-1.3639477811835705,-9.815478034099936,11.041367062219853,-12.06926357475623,-2.446809829111756,0.01666666753590107
390,6524.0,-0.0031526188120245932,0.04856880059689283,-0.23673311888873574,1.3953708011902868,-1.3676887212775646,-9.839270997619629,11.819077160553247,-12.66498157510734,-2.009904826020843,0.01666666753590107
391,6541.0,-0.0764098704636097,-0.0008113163828849792,-0.1286152739971876,1.2903252033509314,-1.4462484632514416,-9.731382285308838,12.268723027767173,-13.437656116475141,-1.9234790273580864,0.01666666753590107
392,6558.0,-0.09069733901321887,0.011499299135804176,-0.05276771359145641,1.228075960186869,-1.4740810575507581,-9.656114570617675,12.072396924037973,-15.651458737806966,-1.6102462318561843,0.01666666753590107
393,6574.0,-0.08260331827625632,0.021540216156840323,-0.02451192544400692,1.196352934320271,-1.4929353956244884,-9.628730889129638,11.12424201628785,-16.32045186134762,-1.493995665130627,0.01666666753590107
394,6591.0,-0.1588612130485475,0.01917231798171997,0.04488017521202564,1.0803834991455077,-1.5207678437933325,-9.560495557293295,9.461996807228418,-15.95641643896428,-1.793944276305383,0.01666666753590107
395,6608.0,-0.12236125510372221,0.04929623808860779,-0.0034767361998558045,1.0649709720887244,-1.5183739343941212,-9.610923429760335,7.583283266577418,-14.966143169697274,-1.342683709682984,0.01666666753590107
396,6624.0,-0.06394347986131906,0.10982084941715002,-0.09305003961920738,1.0871172643799334,-1.4761758378729224,-9.701903092846274,7.626458599868362,-14.387161694133633,-0.39616548601272583,0.01666666753590107
397,6641.0,0.0032581250131130217,0.17331643938049673,-0.19263971014022827,1.1177929731506853,-1.433678758405149,-9.802309924969077,9.194559042729276,-14.45626784060853,0.4337448399805922,0.01666666753590107
398,6658.0,-0.04526749402917921,0.14564444247037173,-0.08194237014949321,1.021875342205912,-1.4942822801887987,-9.69142904510498,10.071127591562142,-13.369805871033881,-0.06285326837230851,0.01666666753590107
399,6674.0,-0.024273659708723423,0.15029139149338006,-0.03514905479252338,1.0111015078004448,-1.513585384943336,-9.643993924713135,9.123590815931905,-12.356425218031076,-1.4193393496248603,0.01666666753590107
400,6691.0,-0.012692965899780391,0.13024609006941318,-0.029908231529593467,0.9937434726990759,-1.5538379003547131,-9.638307111248373,7.69052833560402,-11.326563318561028,-2.5113209658225264,0.01666666753590107
401,6708.0,0.15659597153030336,0.1754528668873012,-0.15106851334571839,1.1278187656678258,-1.5322902315437792,-9.758915604400634,7.336743319617576,-10.971880986472375,-2.184726932921904,0.01666666753590107
402,6724.0,0.21748941617123782,0.16910335173010826,-0.14564181212186814,1.1626843273438512,-1.5571300737679004,-9.752780462646484,7.571935761045088,-10.046917986049031,-1.2806156462609626,0.01666666753590107
403,6741.0,0.24727321760356424,0.15027093322724103,-0.12347732658684253,1.1685201938904821,-1.5945391824468969,-9.72958604954183,7.432333524599198,-9.830609310129311,-0.8365544725497273,0.01666666753590107
404,6758.0,0.29121187418177724,0.1370867497444153,-0.19444471373558042,1.1766006975587457,-1.6320985132515429,-9.799466810497641,8.035165166970877,-12.283766519414126,-0.5687576428714838,0.01666666753590107
405,6774.0,0.3290522869501263,0.14643632350042463,-0.1988508397400379,1.182885476916656,-1.6425729993842542,-9.803058112987875,8.958506851239989,-13.84776970254668,-0.6184163731495028,0.01666666753590107
406,6791.0,0.24060389590747652,0.0697258626550436,-0.1874579235881567,1.0634745960511267,-1.7399870794318615,-9.790489138793944,9.652844245469621,-13.912688943060358,-1.1171871486691287,0.01666666753590107
407,6808.0,0.2116227891601622,0.026803251251578328,-0.21520400864779948,0.9947910089906304,-1.8133096514046192,-9.815777893829345,10.191998034209272,-13.807330713791973,-1.7263680922045694,0.01666666753590107
408,6824.0,0.24146584649905561,0.04312412532493472,-0.2752297305434942,0.9922470235962421,-1.8221379777655005,-9.873537424358725,11.001856125418623,-14.246501632140037,-0.8647280957415308,0.01666666753590107
409,6841.0,0.21355331883132456,-0.02091404708251357,-0.34689620587229725,0.9304468393739312,-1.9131179331123829,-9.942520944213866,11.11344348721006,-13.940913846031789,1.1970395305859824,0.01666666753590107
410,6858.0,0.4620036904554814,-0.15096081518754362,-0.634799540027976,1.1287165912903845,-2.0816097288154065,-10.226382894024253,11.552407792335732,-13.58537176388136,6.141447408260651,0.01666666753590107
411,6874.0,-0.20301709257401523,-0.14909502131566404,-0.1165209315776825,0.4234744917053729,-2.1060005120977756,-9.705494395336508,8.263744277734524,-14.970599868130709,3.6976889661605985,0.01666666753590107
412,6891.0,-0.289692080735974,0.03215425689071417,-0.12579086422622204,0.3013703166352585,-1.940800743677467,-9.713725048065186,5.123493943608523,-13.068604773920073,0.7460098030131888,0.01666666753590107
413,6908.0,0.05534012136273086,-0.03269362446442246,-0.5590770673066378,0.6024411388672888,-2.0287876546882093,-10.14483098449707,9.724365717589764,-13.080903383294327,-0.014963130202499652,0.01666666753590107
414,6924.0,0.06461096732672303,0.090610391382128,-0.533210804644227,0.5825394106324762,-1.935413936072588,-10.114304913330077,14.027872399449807,-9.468775769979656,0.18805207660167028,0.01666666753590107
415,6941.0,0.05869195254128426,0.09258958250060677,-0.42690673117637634,0.557699531875737,-1.9735713789008558,-10.000430112347006,17.972789027242303,-5.930094888357423,-0.11764248457321204,0.01666666753590107
416,6958.0,0.1555722179731354,0.02225041025280952,-0.22235388040244577,0.6382045626984909,-2.1064495710395277,-9.783006674084067,18.76452406526267,-4.630642861026034,-0.30844824798830817,0.01666666753590107
417,6975.0,0.19814630819987505,0.04130538546517491,-0.11888240001201629,0.667533533035405,-2.131887817548215,-9.670180505371093,16.687661614147725,-6.3949328038327495,-0.12852281583848368,0.01666666753590107
418,6991.0,0.25929730779845267,0.03614259587451815,-0.05192132589519024,0.7092823879517615,-2.17662975333333,-9.595062428283692,15.303778203391223,-9.494286526529653,-0.22644275565731367,0.01666666753590107
419,7008.0,0.32004049378111954,0.04601487833037972,-0.14501052848100662,0.7308302394257858,-2.218977049066871,-9.677662385559081,16.120139488464073,-13.325675165032782,-1.3859353489935609,0.01666666753590107
420,7024.0,0.33349414185509085,0.09493190784305333,-0.12714987761974333,0.7125744517670944,-2.211495168878883,-9.651175945171714,17.33452150968295,-12.143791183884824,-1.5667920347480344,0.01666666753590107
421,7041.0,0.3341213338427245,0.032847207590937615,-0.27655776427686213,0.6841432339875028,-2.3193837350592017,-9.790488554272056,19.21882897526419,-13.004478689123763,-2.1500897629803,0.01666666753590107
422,7058.0,0.34512346057873217,0.12911942412704228,-0.3185007169932127,0.6615479923523963,-2.2864636083625256,-9.817722598156333,18.730480694892034,-9.850756660633557,-1.6563302652382008,0.01666666753590107
423,7074.0,0.31816790484227236,0.04887772041559219,-0.13690613248050212,0.6099230190552771,-2.4114108613714573,-9.625438277325033,17.325097556175624,-10.029407942338057,-0.9209422601580282,0.01666666753590107
424,7091.0,0.29715154816275463,0.03787994106113911,-0.150440736836195,0.5654806872712448,-2.4636343850836155,-9.628879942211508,16.059458380330387,-9.30801019239048,-0.81510292943998,0.01666666753590107
425,7108.0,0.3209182264637202,0.11078443375229835,-0.1716635576069355,0.5582981005570851,-2.444181496594846,-9.636661682128906,16.578872068595054,-9.940708544455333,-1.2139606839244543,0.01666666753590107
426,7125.0,0.29574354452835394,0.11665975552648306,-0.1638683736860752,0.5111622188401408,-2.4808427095159886,-9.617807344055175,17.67914382689782,-8.155149392573199,-1.8492617649499048,0.01666666753590107
427,7141.0,0.2984998027002439,0.1413791862413287,-0.08570902920663356,0.496348096067924,-2.501043786023557,-9.527575284466147,18.47708579932644,-7.06609963507676,-1.9597353790198067,0.01666666753590107
428,7158.0,0.315809359017387,0.1959776223912835,-0.09031623074114323,0.4938042933366261,-2.507927115796506,-9.515155947875977,18.76928641466146,-6.484757902268057,-1.1311434662992863,0.01666666753590107
429,7174.0,0.3172851306583732,0.2164382266178727,-0.08703881650567054,0.4797383585832081,-2.5339640588507053,-9.498695226940512,18.968435947838817,-5.934368879230559,-0.18903252891268446,0.01666666753590107
430,7191.0,0.2482134210631251,0.2098749225795269,-0.1024380456894636,0.39683914436660706,-2.5884321466192604,-9.50019160297811,19.94751282950888,-5.553200354201065,-0.250446708443383,0.01666666753590107
431,7208.0,0.1421181041082833,0.16901479666382074,-0.09329027811586857,0.274285946887359,-2.6960215837225316,-9.471161907848716,20.57774975215159,-4.341604623276727,-1.1227517251302792,0.01666666753590107
432,7224.0,0.10503645555167458,0.17301555673778057,-0.0629243659466505,0.22849682187056167,-2.742409240888059,-9.425372801098227,20.507171699910554,-3.4435348523800737,-2.051641977604675,0.01666666753590107
433,7241.0,0.12834670445518567,0.18010317691117525,0.0018698855251073835,0.24630371498428283,-2.7850559579595924,-9.345017407879233,20.161666580745457,-2.525520288776748,-1.9376130366283701,0.01666666753590107
434,7258.0,0.17774459455367175,0.1911690530657768,0.03664659987390041,0.29104537677476183,-2.8392247705206275,-9.28935280380249,19.846695822264905,-0.9467012513956734,-0.1043983208857342,0.01666666753590107
435,7274.0,0.1453987880130764,0.1686670061394572,0.1023468602746725,0.25662870051055214,-2.9092551690801978,-9.208099000439047,18.93312386982985,-0.23140526161529817,1.0622897166585628,0.01666666753590107
436,7291.0,0.06761023134109563,0.04100245699584484,0.2841787606745958,0.17821851394204422,-3.080440295520425,-9.011774464306235,16.426671548225073,0.30172523409132646,1.277931168473736,0.01666666753590107
437,7308.0,0.07176588058266788,-0.004781973579525947,0.3116670715808868,0.18195948143550195,-3.173216194373369,-8.968379559215903,12.501651261484826,0.18621023338265436,1.9419666418940185,0.01666666753590107
438,7324.0,0.07655904227648862,0.007593816129863261,0.34777298870682716,0.18360548594370482,-3.187431474469602,-8.923189002880454,9.563850295678941,-1.5815645599840082,2.2775013924181873,0.01666666753590107
439,7341.0,0.11692353929551318,0.04973550628870725,0.3337164063036442,0.2150294192658737,-3.1658836595281956,-8.930221970257163,7.710579209686238,-3.8874879703642056,2.653203631677555,0.01666666753590107
440,7358.0,0.08464245028789155,0.03842003928720951,0.30229777021110055,0.16505050527588463,-3.200001325446367,-8.953864711651205,6.327187999436801,-4.847518015760041,2.7537674950354147,0.01666666753590107
441,7374.0,0.059031902252486904,0.021817571793496606,0.2920902644515037,0.12599501306277233,-3.23022812140584,-8.959401302990317,4.6000239767505136,-4.4878479380299865,2.3752125845805088,0.01666666753590107
442,7391.0,-0.03921136776141356,-0.0455745872169733,0.17444120562672613,0.017208479695999992,-3.306842282269895,-9.073874069866537,2.900932031552979,-3.451361395395262,2.157292837790313,0.01666666753590107
443,7408.0,0.02715790077499114,0.013601532112061977,-0.08557458917200565,0.07227519094482995,-3.2544694132149217,-9.331550023540855,1.9245978977214993,-2.671685056354552,3.1872228257086483,0.01666666753590107
444,7424.0,0.05698670125966891,0.015116028328239916,-0.18059739016890525,0.0939725521584507,-3.259407454138994,-9.424325922393798,3.383179458892433,-2.1796277698196667,4.145879576194488,0.01666666753590107
445,7441.0,0.011237983601784799,0.030220658479630947,-0.16084581099450587,0.041300188700249416,-3.2549180337652563,-9.400832234081625,5.023819712390057,-2.250733667617496,4.045538120871478,0.01666666753590107
446,7458.0,-0.0836627459350042,-0.04020779948681593,-0.08915010957121848,-0.06449369077273877,-3.344251683209836,-9.322422129711509,5.933593225872939,-3.2791823582595843,1.9139799417698913,0.01666666753590107
447,7474.0,-0.07361655908380635,-0.030515549772977827,-0.04533317967653274,-0.06404470889197837,-3.3484418283760546,-9.273640855407715,5.362616732016553,-3.78125846508982,0.523664093640825,0.01666666753590107
448,7491.0,-0.04830119460269343,-0.04652969598472118,-0.05297346529662609,-0.047883897097716725,-3.3761244928106664,-9.277082520294188,4.819991499631244,-4.03415689128012,0.008462390938234235,0.01666666753590107
449,7507.0,0.014216977721330477,0.00834025058299303,-0.13844810122549533,0.0038907866186636965,-3.334974444037676,-9.357586966595052,5.121999412840759,-3.696455263241765,0.4796719124138306,0.01666666753590107
450,7524.0,0.015355490506766363,-0.010678922663629055,-0.13982932645082474,-0.0044890116650727575,-3.366398340827226,-9.354444576916098,5.8707490822064745,-3.775858346777279,0.939820155972003,0.01666666753590107
451,7541.0,-0.05788280528259929,-0.03882803556621074,-0.09636018708050251,-0.0867895887016668,-3.4073987519964573,-9.306261268505454,5.395956592902678,-2.880381059557468,0.6456460428536694,0.01666666753590107
452,7558.0,-0.0955537478021346,-0.04045154511481523,-0.12717092040777206,-0.13407512400539126,-3.4252056268438693,-9.331101695251464,5.037739211031719,-2.648960803542508,-0.37271115001143096,0.01666666753590107
453,7574.0,-0.06714276452639606,0.006225450386106967,-0.14063772022426127,-0.11147979103873949,-3.3906393403753636,-9.34007936695516,5.3617638121439475,-2.5336467197851826,-0.9417814874808544,0.01666666753590107
454,7591.0,-0.043167681338870896,0.016911095051467418,-0.15361235260963438,-0.09053060871076304,-3.3927345590889453,-9.348309435161948,6.137430830141861,-1.276542932524931,-0.940327510961288,0.01666666753590107
455,7608.0,0.021682419372815637,0.04747194527089595,-0.08763970500826836,-0.026784884477825833,-3.381511446546018,-9.275137231445312,6.495724624754159,-0.5136579732284621,-0.5430825348945828,0.01666666753590107
456,7624.0,0.042326714169816114,0.049256490600109094,-0.0776601627856493,-0.007481756890402175,-3.394230642865598,-9.259723973736167,5.651046229156083,-0.47185508107386837,-0.4915833888003626,0.01666666753590107
457,7641.0,0.0796545423401054,0.05055559049993753,-0.040648236730694766,0.027383855017973108,-3.4047055673897266,-9.218274357494712,4.721282459519866,-0.608512758935543,0.12990710308417486,0.01666666753590107
458,7658.0,0.0940342100846581,0.05114478856474161,-0.07476561038792133,0.03681106515403371,-3.417125488501787,-9.247454274749755,4.465775327953444,-1.5573133330056435,0.6973629012276836,0.01666666753590107
459,7674.0,0.07897164724301546,0.03831424082517624,-0.06333119318187236,0.016011401698808186,-3.439570836804807,-9.232340876770019,4.052293604847443,-2.2623878913322417,0.776667107102791,0.01666666753590107
460,7691.0,0.03751501673888415,0.037575405156612396,-0.036710897281765936,-0.032321576281636955,-3.448099887958169,-9.202712046703695,3.568881843697913,-3.31606089746601,0.2881045295454252,0.01666666753590107
461,7708.0,0.023032591872755435,0.06495265690386295,-0.052176177439093585,-0.054617579241842025,-3.4289465669378636,-9.214982914733886,2.4619062547247768,-2.138785159573694,0.139241677162908,0.01666666753590107
462,7724.0,0.06209196110996417,0.08784516445249319,-0.06268237388432026,-0.021248293138714507,-3.4118878801092505,-9.223212398418784,3.112907165887736,-3.0373904599899593,0.4439596813690372,0.01666666753590107
463,7741.0,0.0037429859206080432,0.03325608065277338,-0.10453121857643127,-0.0833480265631806,-3.4736882104620337,-9.262267813000083,3.8151780382817497,-1.4827944750569233,0.2233175705860626,0.01666666753590107
464,7758.0,-0.011180689040152356,0.0003527589604258537,-0.10485153657197951,-0.09846129667875356,-3.5167841326057907,-9.258676510509847,3.165900042336926,-0.0991769080695239,0.22415250785124377,0.01666666753590107
465,7774.0,-0.009613037864631042,-0.018426175789535044,-0.1155056170552969,-0.09816208540331571,-3.542222525244951,-9.266756941112876,2.796061307036603,-1.1416552341536417,0.12821503043900997,0.01666666753590107
466,7791.0,0.004648629523441195,0.035661388228833676,-0.058766661745309826,-0.08634065990736707,-3.4934403741583226,-9.207949362835288,2.6461606394262143,-1.4077182096389067,0.3662070490134334,0.01666666753590107
467,7808.0,-0.012282339272275566,0.031654198414087294,0.025852818658947944,-0.10818775918944738,-3.505262037116289,-9.120261727032064,3.239420838893178,-2.360407936111095,-0.29967988591959854,0.01666666753590107
468,7824.0,-0.06017419958882965,0.007539163333177566,0.07645663221478462,-0.1602617457625456,-3.536536004041135,-9.066841102489828,3.03777017581913,-1.7477894864324335,-1.2671279436408915,0.01666666753590107
469,7841.0,-0.04365327289872802,0.0006067337214946747,0.08639116625189781,-0.14589640793744474,-3.548656649945676,-9.054870094189047,1.9283796880875705,-1.6462271347952826,-1.784980720236799,0.01666666753590107
470,7858.0,-0.042138073429651556,-0.021628186701238155,-0.034008652585744856,-0.1460460820738226,-3.5745442476570606,-9.17383257369995,0.6926458551929965,-0.6734218608871725,-1.632976994692281,0.01666666753590107
471,7874.0,-0.011456528573157265,0.011108546252548694,-0.13018529979288576,-0.11447257507997564,-3.5432696962103245,-9.26945041798055,1.064753173793116,0.16779309519317778,-1.1288955870104116,0.01666666753590107
472,7891.0,0.023193390191346405,0.010406535463035107,-0.17075521059036253,-0.07751205955184996,-3.5471602739080783,-9.308805692291259,1.9491584042032188,1.001661862656062,-0.7575931635152957,0.01666666753590107
473,7907.0,0.034442870151391254,0.02329845800101757,-0.10596505077183246,-0.06060298292753286,-3.540575927081704,-9.241617823681235,1.6951784602465294,1.9538951403926226,-0.8836406761098845,0.01666666753590107
474,7924.0,0.05447102864431217,0.02520458388328552,-0.07798924860954284,-0.037259589806245635,-3.542222525244951,-9.212289437866211,1.1505982996547155,0.6640939569150507,-1.106675594258185,0.01666666753590107
475,7941.0,0.08999611367499455,0.05622282248139381,-0.07091653374433517,-0.0007479688230901956,-3.513042900250852,-9.204507697948813,0.4162538194136738,0.0670785674671812,-1.383622689629277,0.01666666753590107
476,7958.0,0.10399628971582278,0.04965221191942692,-0.0904044935464859,0.01616105300229974,-3.519776884680986,-9.223960586437583,0.18876427056498957,0.911484155704853,-1.703002441940779,0.01666666753590107
477,7974.0,0.11252845527487806,0.053178340218961236,-0.13007833228707313,0.028880203656107186,-3.516783840344846,-9.26346491383016,0.4587389300724754,1.1685678870307843,-0.9823408583196827,0.01666666753590107
478,7991.0,0.12295246246252209,0.035198739153146745,-0.1393424197167158,0.04264686320200562,-3.5351892656072974,-9.272592807659507,0.5359655311402823,0.8786124829419915,-0.4333057602025809,0.01666666753590107
479,8008.0,0.12869781031464225,0.04328238462656736,-0.0691939477354288,0.051625146827055136,-3.52725847260803,-9.202412771496176,0.0337064366052708,0.5704601208829624,-0.017256206133772763,0.01666666753590107
480,8024.0,0.12477399706756695,0.05800123033076524,-0.05140636211037636,0.0487820186558878,-3.5118460916817185,-9.184905171856284,-0.2294856849738337,-0.45209742487828425,-0.248869948601315,0.01666666753590107
481,8040.0,0.13190719168204815,0.054717678615450856,-0.01371463709771633,0.055964701268170026,-3.513641742926836,-9.147795046123862,-0.5725642993950023,-0.7152200039258589,-0.7991171384918295,0.01666666753590107
482,8058.0,0.1058680932033807,0.02922784804999828,-0.06898761150836945,0.03202270749949384,-3.535488540814817,-9.204507697948813,-1.3529675199737903,-0.060741219134467186,-1.0277968344631754,0.01666666753590107
483,8074.0,0.12546166880447418,0.016632278110086916,-0.14091244551241397,0.05312155483069363,-3.544915709851682,-9.277680486187338,-1.0350419576252663,-0.01441068529252198,-0.5293221583162401,0.01666666753590107
484,8091.0,0.11051801963476464,0.019935995830595493,-0.13420447230637073,0.042796578437578864,-3.539079843305051,-9.271994257244467,-0.830848169663299,2.4393465667830476,0.19214079859356917,0.01666666753590107
485,8108.0,0.1418200253440067,0.005265373182296753,-0.0694949765086174,0.07930813548865262,-3.550601938794553,-9.208547913250326,-0.6558801741904343,0.062036513817749855,1.622241431420902,0.01666666753590107
486,8124.0,0.15106258592843078,0.020933482435345648,-0.07827449529170989,0.08723893762107472,-3.53324397675842,-9.217975666809082,-0.6619941539929478,-0.40710720893924823,2.237024197292811,0.01666666753590107
487,8141.0,0.12721015643961728,0.02569090609550476,-0.09104162240624428,0.06195015061963349,-3.5266599221929904,-9.231442466625571,-0.49982374522971856,-0.27728542985884563,2.418344375415493,0.01666666753590107
488,8158.0,0.06684526571743189,-0.0021776363000273703,-0.06455225940942765,-0.0008976429594680667,-3.552547519904375,-9.205704798778891,-0.46677539468293583,-1.0259620748973806,1.9219906864492584,0.01666666753590107
489,8174.0,0.03103353663193993,-0.04007102136462927,-0.04360241036117077,-0.03935442949391436,-3.588460544806719,-9.185503722271323,-1.2020257821235034,-0.4219856287877839,1.582578522910638,0.01666666753590107
490,8191.0,0.06978657073318026,-0.01506575944572687,-0.16096856059134004,0.0007483067498076707,-3.5589816446051,-9.304615254864096,-2.08343181243603,0.2890087025172321,1.5543475368019768,0.01666666753590107
491,8208.0,0.10514162382604554,-0.006314589974284171,-0.2569529000967741,0.036661395584233106,-3.5446164346441624,-9.402778107452392,-0.8599321823662711,0.043450648611432795,1.430928686542491,0.01666666753590107
492,8224.0,0.10176249364861287,-0.01816840163618326,-0.22332360221743583,0.034117506087967195,-3.5565877352058886,-9.369109646606445,1.1796529638885977,0.9801260627596002,1.1816324380874321,0.01666666753590107
493,8241.0,0.04144985370347276,-0.10059212556183338,-0.13095453059971332,-0.02214616442704573,-3.643227907782793,-9.275137231445312,2.2509725107950347,2.253029464952266,1.002570597980791,0.01666666753590107
494,8258.0,0.03492151138065382,-0.14096622152626515,-0.11403963615596294,-0.02349292569376994,-3.6894656350836157,-9.255983033642172,1.116123987036134,1.1754129105179008,1.803535356003962,0.01666666753590107
495,8274.0,0.044927539751399306,-0.13590835361480713,-0.11395488048195838,-0.013766499715694226,-3.685724987250566,-9.255385067749023,-0.020474892759501602,0.11079758781812128,2.4554357177032475,0.01666666753590107
496,8291.0,0.0011525630020303651,-0.10562865842431783,-0.11917699904441832,-0.0583584782366408,-3.6538521776497364,-9.261220349773764,-0.882934818747846,0.5831401536336795,2.658128198069134,0.01666666753590107
497,8308.0,-0.018115141645562834,-0.04187427139431238,-0.1769914746314287,-0.0784098669080995,-3.586365618354082,-9.32047742538452,-1.175297971240774,0.31764680525302286,2.0743284509328723,0.01666666753590107
498,8324.0,-0.026099030238669364,-0.017607552883028982,-0.20769816306233405,-0.08678955901891458,-3.5606279505074023,-9.351751100048423,-0.22902920955777997,0.8536424319143355,1.424610868281935,0.01666666753590107
499,8341.0,-0.032193744084308855,0.008391980770230293,-0.2461380760937929,-0.09023126500458456,-3.5357878160223364,-9.389759051403402,1.022771309337927,2.428288490516797,1.2499892914660369,0.01666666753590107
500,8360.0,-0.041578654015180655,0.0066857613742351526,-0.2507002694427967,-0.08978239785907789,-3.5420728876411913,-9.392602165874838,1.5067037656899644,4.105300141674974,1.3517956089226042,0.01666666753590107
501,8374.0,-0.0421873011325486,0.011865794360637665,-0.21728782918453216,-0.08304868285700212,-3.5407258569464086,-9.357736604198813,1.7078349075002688,2.9937180169934865,1.1551694037567466,0.01666666753590107
502,8391.0,-0.059602893373742694,0.023492519268393516,-0.097519293987751,-0.09457076693006092,-3.53324397675842,-9.236380507549644,1.6750982376952208,2.9860630824811945,0.5836825133424608,0.01666666753590107
503,8408.0,-0.011279320259171072,0.07527502121478319,-0.03417641036808491,-0.03815734693014528,-3.4864074067816135,-9.171138512310385,1.5329054385631913,2.0831539091141753,0.6152548493374332,0.01666666753590107
504,8424.0,0.011798887153866235,0.07757540711164473,-0.018990531674027443,-0.013018270597700029,-3.4870062494575977,-9.154828013500572,1.2538908235859951,0.7823131122254529,0.9611984346307313,0.01666666753590107
505,8441.0,0.00539018458876526,0.07650777788013219,0.040104631373286244,-0.01990160493722651,-3.4892505212530494,-9.095272247204184,0.49050880794484925,0.6251475779374033,1.2649856121190346,0.01666666753590107
506,8458.0,0.010700949549057986,0.05567921712398529,0.028127193331718443,-0.01571183194705518,-3.508553772138059,-9.107841805920005,-0.9452412984605832,0.1350324797053951,1.6499741338852694,0.01666666753590107
507,8474.0,0.042209604295901954,0.060467328183352945,0.020266542959213256,0.01286903028616216,-3.4997254457771776,-9.11726897495687,-2.036670843274242,-0.5394204329215452,2.559699409157138,0.01666666753590107
508,8490.0,0.07027315780688077,0.061820204097032545,-0.03111234662234783,0.035314604634756684,-3.4926921861395237,-9.170839237102866,-2.08093665895486,-1.4314187526154394,3.187812356411385,0.01666666753590107
509,8508.0,0.03619010197778698,0.04330225837081671,-0.008379121288657188,-0.007032807546504773,-3.5042142816290256,-9.150788382720947,-1.9285442529578856,-1.492610737554701,2.5171099780309354,0.01666666753590107
510,8524.0,0.015368637682707048,0.014253566280007362,0.014494973820447921,-0.03396755339037627,-3.5286055033028125,-9.12968889606893,-1.957905955539301,-1.8265334567130411,1.7611263912822355,0.01666666753590107
511,8541.0,0.050874561355193144,-0.008960720568895339,0.03424421490728855,-0.0029925054800231006,-3.5459631730780004,-9.112181296429037,-2.840565752451348,-1.1682692796980079,0.9901607845891125,0.01666666753590107
512,8558.0,0.17162866895664483,0.009346212755143642,-0.025660510957241058,0.11611894491435959,-3.5176819582283496,-9.175926915630697,-3.10184972995172,0.12375469012736687,1.4300221923735834,0.01666666753590107
513,8573.0,0.24461952475700527,0.02182750866562128,-0.04311550362706184,0.18989032923369667,-3.49807943213582,-9.196128576660156,-2.6930851062412593,1.2674510969659978,2.2715926384558918,0.01666666753590107
514,8591.0,0.2827218763971701,0.00893587838858366,-0.10073357985913753,0.2314896196115296,-3.5048128320440646,-9.256132671245933,-2.3941949609444437,2.905058319585313,3.069391817242173,0.01666666753590107
515,8608.0,0.3879102437080815,0.05068447757661342,-0.1781768850237131,0.342670281573222,-3.4563302484259006,-9.336188789257406,-2.023086877675556,2.8438670816979914,3.772310063503457,0.01666666753590107
516,8624.0,0.4456166923433542,0.10734802956283092,-0.1742337003558874,0.40162757965296036,-3.3960262941107153,-9.333644949993491,-1.106501744599467,0.8674600646878301,4.725670002287953,0.01666666753590107
517,8640.0,0.5060864316795021,0.18584288960695267,-0.005725976431369781,0.4584897503506625,-3.31626945130676,-9.165601920971273,-0.12934417276660415,-1.1750966941036702,5.685554479277103,0.01666666753590107
518,8658.0,0.45981487517431374,0.18934739059656858,0.20663141061365603,0.3990836444909219,-3.311331118121743,-8.953715074047446,-1.0061238971747843,-4.350105647472454,7.117106207137946,0.01666666753590107
519,8674.0,0.36388208319302645,0.10228636225908994,0.24815058495998382,0.2867057766678743,-3.3931831796392795,-8.914061109051108,-3.262360029220666,-5.527046279208617,7.614404169756935,0.01666666753590107
520,8691.0,0.16710549244377762,-0.03883563435077667,0.2393143675535917,0.07496861301357857,-3.5221707940801976,-8.927379440307616,-6.07524409218301,-5.86480767140221,7.300464769841054,0.01666666753590107
521,8708.0,0.07922159428293817,-0.1274500296100974,0.05022562789320945,-0.02887993879462592,-3.5860660508856177,-9.125648680767416,-7.879655419948026,-3.4998749484093934,7.148979711786634,0.01666666753590107
522,8724.0,0.07045729133528657,-0.14571546187996864,-0.028219547790288922,-0.04653714863881468,-3.5850185876592993,-9.211241390118003,-7.4528838562644735,-1.9532198054384375,7.247325898098355,0.01666666753590107
523,8740.0,0.02586462782775052,-0.1663303798854351,-0.08715922801494598,-0.09247588385990821,-3.588310907202959,-9.27663302296102,-6.295901464169912,-0.6510500565084717,7.598735715800926,0.01666666753590107
524,8757.0,-0.04332257050648331,-0.18642770375758408,-0.04958966807723045,-0.16594799297172574,-3.591303659278154,-9.24535876377523,-5.105873763097182,0.30939913838682087,6.684369753874856,0.01666666753590107
525,8774.0,-0.10540742602222598,-0.21894056482762098,-0.04465221167504787,-0.23133959841527973,-3.611953356336057,-9.24476021336019,-5.225478059426922,0.5803127221215587,5.65689372485926,0.01666666753590107
526,8790.0,-0.1794934109823778,-0.2655909645825624,-0.043836803638935086,-0.30660728570697826,-3.645771747046709,-9.248650791057944,-6.429415867631206,1.273116418717406,4.817478416903502,0.01666666753590107
527,8807.0,-0.17116594681572167,-0.2340457795009017,-0.08733984527885913,-0.2985269190360326,-3.593248948127031,-9.299826851543784,-7.230604741236517,1.4663414031200088,4.601313174956354,0.01666666753590107
528,8824.0,-0.1887014208432287,-0.2314028637766838,-0.09853343946635723,-0.31618404668183064,-3.573646129773557,-9.317185398101806,-7.4422979168246,1.8599091760923083,4.9730398172319505,0.01666666753590107
529,8840.0,-0.254989545868244,-0.2069558202624321,-0.08392740648686885,-0.38187506433022206,-3.53324397675842,-9.30835619495809,-7.473029499221426,2.427658405565863,4.963915111387637,0.01666666753590107
530,8857.0,-0.32560448458380997,-0.16762012743502855,-0.13093290328979493,-0.4516062059485819,-3.4702468378365037,-9.363871745952963,-8.508048191514831,2.294082957288863,4.811144270221962,0.01666666753590107
531,8874.0,-0.3448022292677313,-0.1380427352949977,-0.14629881472587586,-0.4707598466292955,-3.4199686029732224,-9.386617246246338,-9.137882132996511,1.3963438102367198,3.5825157550549047,0.01666666753590107
532,8890.0,-0.36740605606809257,-0.08065116129517555,-0.2923275803387165,-0.4941032397505827,-3.343054582379758,-9.539546292766929,-8.042491398629362,1.434491910855122,2.62557231483368,0.01666666753590107
533,8907.0,-0.30906887178122994,0.005324117632210254,-0.4031307187914848,-0.4335000010947231,-3.23651290076375,-9.657610362133383,-5.207571437857264,2.532334469690894,2.085249283085488,0.01666666753590107
534,8924.0,-0.30855558849684894,0.004586451007425785,-0.4018237278461456,-0.4287115977744106,-3.227683989880979,-9.65970528858602,-3.276616341565775,2.927756959187969,1.7024643511002289,0.01666666753590107
535,8940.0,-0.3294845408875495,0.01676554910093546,-0.30167466987669467,-0.44472279397724196,-3.209128927014768,-9.561842295727134,-2.558125690883685,3.2104414134618717,0.8542739576082973,0.01666666753590107
536,8957.0,-0.32005678732879456,0.04922083476483822,-0.25192250471413136,-0.42706561153251676,-3.1685771363958715,-9.515005725750326,-2.488379641060923,3.04432416921458,-0.07088284943274607,0.01666666753590107
537,8974.0,-0.29287951513305305,0.09180120860189199,-0.2497106738835573,-0.39399560063690875,-3.120244190381467,-9.514856088146567,-2.079653864051367,2.0139297284326845,-0.8485787537792703,0.01666666753590107
538,8990.0,-0.268820502822008,0.13791501726210117,-0.1957090345829725,-0.3666120013472624,-3.069965663257241,-9.462333289226889,-1.1836693285639768,1.3301073037085809,-1.5045718928952743,0.01666666753590107
539,9007.0,-0.27518607406485823,0.11878478485643863,-0.10685118595659732,-0.3691558223448694,-3.085827541516721,-9.374645653423666,-0.7898256799822322,0.6937511185389221,-2.888166834881048,0.01666666753590107
540,9024.0,-0.2930825634244829,0.07253098320364952,-0.10622224040329456,-0.3832218301635235,-3.1290728090032935,-9.375094566234946,-1.7794981060456887,0.8588548801072602,-3.6462320285010152,0.01666666753590107
541,9040.0,-0.24980620667990294,0.07512918300330639,-0.15951836178302764,-0.3369836918707471,-3.120992378400266,-9.4303108420223,-2.2536956218397544,0.2333665664437232,-4.537818455771446,0.01666666753590107
542,9057.0,-0.2130351401761174,0.05302431870102882,-0.14530688107907772,-0.2953844197592232,-3.1371535318672654,-9.418190196117758,-1.028204191214143,1.3416146783561713,-4.980637975796767,0.01666666753590107
543,9074.0,-0.17935544555010274,0.07395604757070541,-0.1409767429202795,-0.2542340650255559,-3.1142583939701316,-9.414598893627524,-0.48522896499472357,1.9591178872301551,-5.079668034799136,0.01666666753590107
544,9091.0,-0.13858118042009882,0.062271454995870584,-0.09886310981214046,-0.20799618702768347,-3.124134768079221,-9.37314927738607,-0.4645244738254464,1.080954489226092,-5.846926663041939,0.01666666753590107
545,9107.0,-0.06422037427367176,0.11003449216783046,-0.05281213725507259,-0.12689260122331325,-3.0740061708196995,-9.327958721050619,-0.4587060597870947,1.009653077263271,-6.713894527222705,0.01666666753590107
546,9124.0,-0.022139172997255808,0.11228928535729646,-0.04787643441855907,-0.07796102716205641,-3.071013711005449,-9.323319955334068,0.2601621189291973,1.6247051019988668,-7.11353956773073,0.01666666753590107
547,9141.0,0.0887582789757289,0.1407639769524336,0.01433773743212223,0.03920520288210828,-3.0431808244451877,-9.260921074566244,0.9019925406360625,2.0818736755316207,-6.573149514751307,0.01666666753590107
548,9157.0,0.12177961929086595,0.08877513877898455,0.10613047046661377,0.08319868578694295,-3.0960028985723853,-9.168894532775878,0.03099327735961546,2.0685178809398956,-5.84767243432194,0.01666666753590107
549,9174.0,0.12896151188528165,0.05000175600945949,0.17851181606650351,0.09741420791177079,-3.1323648362860084,-9.09736717365682,-1.8951141055086698,1.108702986502915,-5.501888131174521,0.01666666753590107
550,9190.0,0.10335411935476585,-0.009068272596597671,0.20408757134974,0.07706352119990624,-3.1823440882027145,-9.074921533092855,-4.702892175179606,0.8753520814695154,-5.232345387750546,0.01666666753590107
551,9208.0,0.1411914085842669,0.013205810792744159,0.1287894615203142,0.12090730485218809,-3.1404455591499802,-9.156922939953207,-6.451817607448378,-0.0035201621043482122,-4.421933624331602,0.01666666753590107
552,9224.0,0.14571203694702126,0.017907412612438202,0.07284720954596996,0.12928709742770297,-3.119794985309243,-9.218274357494712,-6.111746757541674,0.21865575303411733,-3.5972651216807243,0.01666666753590107
553,9241.0,0.07243053677016868,-0.039573593236505986,-0.036971009522676464,0.062399089688732055,-3.163040837317705,-9.332896761974691,-5.633139607586425,1.5880556942947535,-3.403646334183788,0.01666666753590107
554,9258.0,0.028133180114510468,-0.06683394060581922,-0.09079904582202435,0.02888020279987395,-3.1741137277349827,-9.39215325306356,-5.204789416430953,2.096487932477921,-3.3695246300811084,0.01666666753590107
555,9274.0,0.00643322850993718,-0.10378419960141182,-0.11654489697515964,0.01616100162830553,-3.198953569959104,-9.421931136211752,-5.2581276443200515,2.7143111997475433,-2.8069949457939125,0.01666666753590107
556,9291.0,0.05603314512819051,-0.06639993310272693,-0.09691489835381507,0.07511820380992139,-3.149722798322141,-9.406218603295088,-5.311986247246541,2.2075393378629236,-2.0255098872836177,0.01666666753590107
557,9308.0,-0.008930583442247007,-0.09052052114158868,-0.05488835900723934,0.020350940156902652,-3.15660612809509,-9.369857250103355,-5.913014719677337,1.9568250781031467,-1.8049667075219027,0.01666666753590107
558,9324.0,-0.02769591207525227,-0.07919073335379362,-0.05731354032754898,0.0071827785104047505,-3.1302699098333715,-9.377189492687583,-6.717558069938772,1.3323844247448395,-1.754384460962904,0.01666666753590107
559,9341.0,-0.031294918381329626,-0.03733692022562027,-0.17987433659136295,0.008080590433231555,-3.0732579828009006,-9.504680731090902,-6.555219841293201,1.265856141073094,-2.3646140519793533,0.01666666753590107
560,9358.0,-0.034916506411973386,-0.023548341108858582,-0.2824894924134016,0.013018576558376661,-3.0407866227850318,-9.613318215942382,-5.436854911879068,2.4152483787307735,-3.2934873357025296,0.01666666753590107
561,9374.0,-0.027692637839354575,-0.013001520392298698,-0.3164607355982065,0.02977801557893399,-3.0184909120857712,-9.651026307567953,-4.2867214919747365,2.635155497126031,-3.7281712466527193,0.01666666753590107
562,9391.0,0.03743736209252383,0.020105799439549446,-0.2860568295061588,0.10429752855156547,-2.977190933448076,-9.623193713268638,-3.0373919540938403,2.796703771705407,-3.840929132113167,0.01666666753590107
563,9408.0,0.019277011332055553,0.00013356325179338455,-0.1761421643257141,0.09696535903257317,-2.988713028937578,-9.515903551372885,-2.3375216797496745,1.0769712082795053,-4.939194949234068,0.01666666753590107
564,9424.0,-0.004376087059220299,-0.008771627737581729,-0.12580430822968483,0.0781109478936065,-2.9921546938240526,-9.467271330150961,-2.2836077949795905,-0.051825234266235344,-5.544169136571016,0.01666666753590107
565,9441.0,-0.0034837047967594113,0.023335867401957512,-0.06290098507106304,0.08170233258223161,-2.9536978296577927,-9.406369409942627,-2.6319352763757817,-0.691778848055228,-5.630609876272581,0.01666666753590107
566,9458.0,-0.04537420580666512,0.03281125949472189,-0.09712883336544036,0.04204834931958466,-2.936040300153196,-9.44317967594564,-1.8972180172164452,-1.3887288963640962,-6.266169650712846,0.01666666753590107
567,9474.0,-0.057986032761633395,0.03917553382962942,-0.08421616030037403,0.03187301966338418,-2.9261642183050514,-9.431358305248617,-0.7168181081090832,-0.7912283233613178,-6.792207341811956,0.01666666753590107
568,9491.0,-0.0437088207445573,0.04678863918185234,-0.01059329020678997,0.05072733033765107,-2.917934150098264,-9.357886241802573,0.3198496479820577,-0.15454882478399415,-7.214604169332116,0.01666666753590107
569,9508.0,0.004955677045462653,0.08168255016952752,0.10208616351187229,0.10624281740044243,-2.8851635148748755,-9.24446152267456,0.8314417024300025,-0.5532057823790408,-7.301364647264203,0.01666666753590107
570,9524.0,0.04110578037300147,0.0849532424032688,0.14317162261605262,0.14589685546201653,-2.882919243079424,-9.203011321911216,0.21143975155749142,-1.0548818428951552,-7.117625301514867,0.01666666753590107
571,9541.0,0.08520238572559319,0.11275222669392823,0.31433833661675453,0.19003987550591117,-2.8532907052740453,-9.032425038146972,-1.029298088698403,-2.4936023878984557,-6.615961567355771,0.01666666753590107
572,9558.0,0.1064607983995229,0.1056716207832098,0.36448096240162847,0.2063503925820347,-2.8538892556890842,-8.984390782818197,-2.5030156692352024,-4.398222195741079,-6.350238180338302,0.01666666753590107
573,9575.0,0.1288547544420231,0.08702069632709025,0.4212696020722389,0.2207156847413629,-2.864513233295083,-8.930221970257163,-3.973897974214506,-5.497816911542371,-6.095963897917067,0.01666666753590107
574,9591.0,0.11251955044921487,0.027280513374507424,0.3911334070056677,0.1961750355263706,-2.910901182721555,-8.964638619121908,-6.727111797040327,-4.800679566639856,-5.227781540724508,0.01666666753590107
