,ms,accelX,accelY,accelZ,accelWithGX,accelWithGY,accelWithGZ,rotRateAlpha,rotRateBeta,rotRateGamma,interval
0,164.0,0.1,0.0,-0.1,0.6000000000000001,1.7000000000000002,9.600000000000001,-1.4,0.8,1.5,16
1,176.0,0.1,0.0,0.0,0.6000000000000001,1.7000000000000002,9.700000000000001,-1.8000000000000003,0.1,0.7,16
2,185.0,0.1,0.0,0.0,0.6000000000000001,1.7000000000000002,9.700000000000001,-1.8000000000000003,0.1,0.7,16
3,201.0,0.0,0.0,0.0,0.5,1.7000000000000002,9.700000000000001,-1.6,-0.5,0.2,16
4,223.0,0.0,0.0,0.0,0.5,1.7000000000000002,9.700000000000001,-0.6000000000000001,0.30000000000000004,0.7,16
5,249.0,0.1,0.0,0.0,0.6000000000000001,1.7000000000000002,9.600000000000001,-0.4,0.2,0.5,16
6,251.0,0.1,0.0,0.0,0.6000000000000001,1.7000000000000002,9.600000000000001,-0.4,0.2,0.5,16
7,268.0,0.0,0.0,0.0,0.6000000000000001,1.7000000000000002,9.600000000000001,-0.5,0.30000000000000004,0.0,16
8,284.0,-0.1,0.0,0.0,0.5,1.8,9.600000000000001,0.0,0.6000000000000001,0.2,16
9,301.0,0.0,0.0,-0.1,0.6000000000000001,1.7000000000000002,9.5,-0.1,-0.8,0.4,16
10,318.0,0.1,0.0,0.0,0.7000000000000001,1.7000000000000002,9.600000000000001,-1.4,-0.9000000000000001,-0.2,16
11,335.0,0.1,0.0,0.0,0.6000000000000001,1.7000000000000002,9.700000000000001,-1.7,0.6000000000000001,-0.6000000000000001,16
12,351.0,0.0,0.0,0.1,0.6000000000000001,1.7000000000000002,9.700000000000001,-1.6,0.8,-0.8,16
13,368.0,0.1,0.0,0.0,0.6000000000000001,1.7000000000000002,9.700000000000001,-0.9000000000000001,0.0,-0.9000000000000001,16
14,384.0,0.0,0.0,0.1,0.6000000000000001,1.7000000000000002,9.700000000000001,-0.2,0.0,-1.1,16
15,401.0,0.0,0.0,0.0,0.5,1.7000000000000002,9.600000000000001,0.6000000000000001,0.5,-1.4,16
16,419.0,-0.1,0.0,-0.1,0.5,1.7000000000000002,9.600000000000001,0.6000000000000001,-0.2,-1.6,16
17,434.0,-0.1,0.0,-0.1,0.5,1.7000000000000002,9.5,-0.2,-1.0,-1.7,16
18,452.0,0.0,0.0,-0.1,0.5,1.7000000000000002,9.600000000000001,-1.4,-0.9000000000000001,-1.2000000000000002,16
19,468.0,0.0,0.0,0.0,0.5,1.7000000000000002,9.700000000000001,-2.5,0.2,-1.2000000000000002,16
20,487.0,0.0,0.0,0.1,0.5,1.7000000000000002,9.700000000000001,-1.7,-0.30000000000000004,-1.0,16
21,501.0,-0.1,0.0,0.2,0.5,1.6,9.8,-1.7,-0.30000000000000004,-1.0,16
22,518.0,0.0,0.0,0.1,0.5,1.6,9.8,0.1,-0.5,-0.2,16
23,535.0,0.0,0.0,0.0,0.6000000000000001,1.6,9.700000000000001,1.1,-0.30000000000000004,0.2,16
24,551.0,0.0,0.0,0.0,0.6000000000000001,1.7000000000000002,9.700000000000001,0.7,-0.8,0.0,16
25,568.0,0.0,0.0,0.0,0.6000000000000001,1.7000000000000002,9.700000000000001,0.30000000000000004,-0.7,-0.6000000000000001,16
26,584.0,-0.1,0.0,0.1,0.5,1.7000000000000002,9.700000000000001,0.6000000000000001,0.0,-0.7,16
27,601.0,0.0,0.0,0.0,0.5,1.7000000000000002,9.700000000000001,1.2000000000000002,0.2,-0.1,16
28,618.0,0.0,0.0,0.1,0.6000000000000001,1.7000000000000002,9.700000000000001,1.6,-0.7,-0.30000000000000004,16
29,635.0,0.0,0.0,0.0,0.6000000000000001,1.8,9.700000000000001,2.8,-0.8,-0.9000000000000001,16
30,651.0,0.0,0.0,-0.1,0.5,1.8,9.600000000000001,3.9,-1.5,-1.3,16
31,668.0,0.0,0.1,-0.1,0.6000000000000001,1.8,9.5,3.3000000000000007,-1.9,-1.3,16
32,684.0,0.0,0.1,-0.2,0.6000000000000001,1.8,9.5,3.3000000000000007,-1.9,-1.3,16
33,701.0,-0.1,0.0,-0.1,0.5,1.8,9.5,-0.1,0.0,-1.0,16
34,720.0,0.0,0.0,0.0,0.6000000000000001,1.8,9.700000000000001,-1.9,-1.1,0.0,16
35,736.0,0.1,0.0,0.1,0.6000000000000001,1.8,9.700000000000001,-1.9,-1.1,0.0,16
36,755.0,0.1,0.0,0.2,0.7000000000000001,1.8,9.9,-1.4,-1.0,-0.2,16
37,772.0,0.1,0.0,0.2,0.7000000000000001,1.8,9.9,0.0,-0.1,-0.8,16
38,787.0,0.0,0.0,0.1,0.6000000000000001,1.8,9.8,1.9,-0.5,-1.2000000000000002,16
39,803.0,0.0,0.1,-0.1,0.6000000000000001,1.8,9.600000000000001,2.6,-1.5,-1.8000000000000003,16
40,822.0,-0.1,0.1,-0.1,0.5,1.9000000000000001,9.5,1.8000000000000003,-0.2,-1.8000000000000003,16
41,841.0,-0.2,0.0,-0.2,0.4,1.8,9.5,1.1,-0.8,-1.1,16
42,857.0,-0.2,0.0,-0.1,0.4,1.8,9.5,1.1,-0.8,-1.1,16
43,869.0,-0.1,-0.1,-0.1,0.5,1.7000000000000002,9.600000000000001,0.30000000000000004,-0.9000000000000001,-0.30000000000000004,16
44,889.0,0.0,-0.2,0.0,0.5,1.6,9.600000000000001,0.4,-1.3,-0.2,16
45,908.0,0.0,-0.2,-0.1,0.6000000000000001,1.6,9.5,1.4,-0.9000000000000001,-0.4,16
46,918.0,-0.1,-0.2,-0.2,0.4,1.6,9.4,1.9,-2.4000000000000004,-0.2,16
47,936.0,-0.2,-0.1,-0.30000000000000004,0.4,1.6,9.3,2.1,-2.9,1.2000000000000002,16
48,957.0,-0.1,0.0,-0.4,0.5,1.7000000000000002,9.200000000000001,1.3,-1.8000000000000003,3.7000000000000006,16
49,968.0,0.0,0.0,-0.4,0.6000000000000001,1.8,9.200000000000001,0.0,-2.1,5.300000000000001,16
50,985.0,0.0,0.1,-0.4,0.6000000000000001,1.9000000000000001,9.1,-1.7,-5.1000000000000005,5.9,16
51,1002.0,0.1,0.2,-0.2,0.7000000000000001,1.9000000000000001,9.200000000000001,-3.6000000000000005,-9.600000000000001,6.699999999999999,16
52,1018.0,0.1,0.1,-0.1,0.8,1.9000000000000001,9.4,-5.0,-12.0,7.500000000000001,16
53,1041.0,0.1,0.1,0.0,0.8,1.9000000000000001,9.600000000000001,-4.2,-12.4,10.0,16
54,1052.0,0.1,0.1,0.1,0.9,1.9000000000000001,9.700000000000001,-3.0,-13.8,12.9,16
55,1069.0,0.1,0.1,0.30000000000000004,0.9,1.8,9.9,-0.30000000000000004,-16.200000000000003,15.8,16
56,1084.0,0.0,0.0,0.30000000000000004,0.9,1.7000000000000002,9.9,4.1,-20.1,17.7,16
57,1101.0,-0.1,0.0,0.30000000000000004,0.9,1.7000000000000002,9.8,8.0,-25.8,19.200000000000003,16
58,1121.0,-0.1,-0.1,0.2,0.9,1.7000000000000002,9.700000000000001,11.2,-31.7,21.300000000000004,16
59,1142.0,-0.30000000000000004,-0.2,0.30000000000000004,0.9,1.6,9.8,13.900000000000002,-33.7,24.1,16
60,1153.0,-0.5,-0.4,0.0,0.6000000000000001,1.4000000000000001,9.3,21.1,-31.099999999999998,30.699999999999996,16
61,1168.0,-0.7000000000000001,-0.4,-0.2,0.6000000000000001,1.4000000000000001,9.3,21.1,-31.099999999999998,30.699999999999996,16
62,1184.0,-0.9,-0.6000000000000001,-0.5,0.5,1.3,9.0,19.6,-33.400000000000006,35.3,16
63,1203.0,-1.1,-0.6000000000000001,-0.5,0.4,1.3,8.9,15.000000000000002,-33.1,39.50000000000001,16
64,1222.0,-0.9,-0.7000000000000001,-0.5,0.6000000000000001,1.2000000000000002,8.9,11.8,-27.800000000000004,44.9,16
65,1235.0,-0.7000000000000001,-0.7000000000000001,-0.30000000000000004,0.9,1.1,9.0,5.1000000000000005,-23.5,47.7,16
66,1251.0,-0.6000000000000001,-0.6000000000000001,-0.30000000000000004,1.0,1.2000000000000002,9.1,0.1,-18.0,49.6,16
67,1268.0,-0.6000000000000001,-0.30000000000000004,-0.1,1.0,1.4000000000000001,9.200000000000001,-3.5,-12.299999999999999,51.6,16
68,1285.0,-0.2,-0.2,-0.2,1.4000000000000001,1.5,9.1,-6.8,-9.3,54.0,16
69,1305.0,0.2,-0.1,0.1,2.1,1.5,9.600000000000001,-19.1,-7.8,53.599999999999994,16
70,1319.0,0.4,0.0,0.4,2.1,1.5,9.600000000000001,-19.1,-7.8,53.599999999999994,16
71,1341.0,0.7000000000000001,0.1,0.9,2.5,1.5,10.200000000000001,-20.8,-5.7,51.70000000000001,16
72,1355.0,0.7000000000000001,0.1,1.0,2.6,1.5,10.3,-14.800000000000002,0.1,49.50000000000001,16
73,1368.0,0.6000000000000001,0.2,0.6000000000000001,2.5,1.5,10.0,-8.2,2.0,47.5,16
74,1384.0,0.30000000000000004,0.2,0.0,2.3000000000000003,1.5,9.5,-4.800000000000001,0.0,47.7,16
75,1401.0,0.2,0.30000000000000004,-0.4,2.1,1.5,9.0,-5.9,-1.5,49.0,16
76,1418.0,0.0,0.30000000000000004,-1.2000000000000002,2.0,1.5,8.200000000000001,-9.899999999999999,1.3,53.300000000000004,16
77,1435.0,0.0,0.30000000000000004,-1.4000000000000001,2.1,1.3,8.0,-19.700000000000003,3.6000000000000005,57.20000000000001,16
78,1454.0,0.4,0.0,-1.2000000000000002,2.4000000000000004,1.0,8.200000000000001,-33.1,2.1,57.00000000000001,16
79,1468.0,0.7000000000000001,0.1,-0.8,2.7,0.9,8.5,-40.5,5.8,54.4,16
80,1485.0,0.7000000000000001,0.0,-0.8,2.7,0.7000000000000001,8.6,-45.099999999999994,9.2,49.699999999999996,16
81,1501.0,0.7000000000000001,-0.1,-0.8,2.7,0.5,8.6,-50.7,8.0,44.9,16
82,1519.0,0.9,-0.4,0.4,2.8000000000000003,0.0,9.5,-57.800000000000004,-1.5,39.50000000000001,16
83,1546.0,1.1,-0.5,1.7000000000000002,3.1,-0.30000000000000004,11.3,-43.2,-17.7,29.300000000000004,16
84,1556.0,1.0,-0.4,2.0,3.1,-0.30000000000000004,11.3,-43.2,-17.7,29.300000000000004,16
85,1569.0,0.8,-0.1,1.8,3.0,-0.2,11.3,-23.900000000000006,-21.200000000000003,28.500000000000004,16
86,1585.0,0.8,0.0,1.5,3.1,-0.1,10.8,-7.9,-23.3,28.900000000000002,16
87,1601.0,1.0,0.0,0.6000000000000001,3.3000000000000003,-0.1,10.100000000000001,-0.4,-21.8,28.400000000000002,16
88,1621.0,0.8,0.30000000000000004,0.6000000000000001,3.3000000000000003,0.1,9.8,-7.400000000000001,-7.300000000000001,24.200000000000003,16
89,1640.0,0.9,0.1,0.9,3.2,-0.2,10.3,-15.5,16.8,20.0,16
90,1661.0,0.6000000000000001,0.1,1.0,2.8000000000000003,-0.30000000000000004,10.5,-13.000000000000002,21.200000000000003,18.4,16
91,1668.0,0.5,0.0,1.1,2.8000000000000003,-0.30000000000000004,10.5,-13.000000000000002,21.200000000000003,18.4,16
92,1684.0,0.6000000000000001,-0.1,1.0,2.8000000000000003,-0.5,10.4,-3.9,12.9,16.6,16
93,1701.0,0.7000000000000001,-0.1,0.9,3.0,-0.5,10.3,4.2,-3.7000000000000006,11.6,16
94,1720.0,0.9,0.2,0.7000000000000001,3.2,-0.2,10.3,9.899999999999999,-12.299999999999999,7.500000000000001,16
95,1738.0,1.0,0.2,0.6000000000000001,3.3000000000000003,0.0,10.0,15.700000000000001,-8.600000000000001,4.6,16
96,1753.0,1.1,0.30000000000000004,0.1,3.4000000000000004,0.1,9.600000000000001,18.0,-0.9000000000000001,2.0,16
97,1769.0,1.1,0.4,-0.2,3.4000000000000004,0.2,9.3,17.9,6.2,-1.2000000000000002,16
98,1784.0,1.3,0.30000000000000004,-0.1,3.6,0.2,9.4,14.900000000000002,5.2,-5.7,16
99,1803.0,1.1,0.6000000000000001,0.0,3.4000000000000004,0.5,9.4,13.399999999999999,1.8000000000000003,-14.400000000000002,16
100,1820.0,0.5,0.4,-0.1,2.9000000000000004,0.4,9.5,15.000000000000002,-1.3,-21.200000000000003,16
101,1836.0,0.30000000000000004,0.4,-0.2,2.7,0.4,9.3,18.1,-6.4,-25.6,16
102,1852.0,0.0,0.4,-0.30000000000000004,2.4000000000000004,0.5,9.200000000000001,20.3,-10.0,-27.099999999999998,16
103,1868.0,-0.2,0.4,-0.4,2.1,0.5,9.0,22.9,-11.4,-26.400000000000006,16
104,1885.0,-0.5,0.1,-0.7000000000000001,2.0,0.4,8.700000000000001,24.200000000000003,-11.1,-24.400000000000002,16
105,1902.0,-0.7000000000000001,-0.1,-0.8,1.7000000000000002,0.30000000000000004,8.6,23.3,-10.4,-22.8,16
106,1921.0,-1.2000000000000002,-0.5,-1.1,1.4000000000000001,0.1,8.4,24.1,-12.600000000000001,-22.2,16
107,1936.0,-1.6,-0.6000000000000001,-1.3,0.9,-0.1,8.1,21.400000000000002,-19.9,-17.400000000000002,16
108,1958.0,-1.8,-0.6000000000000001,-1.3,0.7000000000000001,-0.1,8.0,11.1,-25.300000000000004,-3.9,16
109,1970.0,-1.2000000000000002,-0.9,-1.2000000000000002,1.9000000000000001,-0.30000000000000004,8.3,-14.100000000000001,-22.2,28.1,16
110,1984.0,-0.8,-0.8,-1.0,1.9000000000000001,-0.30000000000000004,8.3,-14.100000000000001,-22.2,28.1,16
111,2001.0,0.2,-0.6000000000000001,-0.30000000000000004,2.7,-0.30000000000000004,8.8,-29.300000000000004,-11.8,35.5,16
112,2021.0,0.6000000000000001,-0.5,0.2,3.3000000000000003,-0.4,9.9,-42.400000000000006,6.0,37.50000000000001,16
113,2037.0,0.6000000000000001,-0.5,0.6000000000000001,3.3000000000000003,-0.4,9.9,-42.400000000000006,6.0,37.50000000000001,16
114,2052.0,0.7000000000000001,-0.2,1.4000000000000001,3.4000000000000004,-0.30000000000000004,10.600000000000001,-39.9,-5.300000000000001,36.1,16
115,2068.0,1.0,0.0,1.8,3.9000000000000004,-0.1,11.200000000000001,-27.099999999999998,-21.8,32.400000000000006,16
116,2086.0,1.6,0.30000000000000004,2.2,4.5,0.1,11.5,-7.8,-33.6,22.6,16
117,2101.0,1.4000000000000001,0.7000000000000001,1.6,4.4,0.5,11.100000000000001,12.7,-30.4,11.1,16
118,2119.0,1.1,0.8,1.0,4.1000000000000005,0.7000000000000001,10.100000000000001,25.0,-21.500000000000004,3.4,16
119,2141.0,0.5,0.6000000000000001,0.0,3.6,0.6000000000000001,9.3,23.800000000000004,-11.5,0.2,16
120,2152.0,0.0,0.30000000000000004,-0.1,3.2,0.4,9.1,15.899999999999999,-8.4,0.9000000000000001,16
121,2168.0,0.0,0.1,0.0,3.1,0.1,9.3,10.1,-14.800000000000002,1.6,16
122,2184.0,-0.2,-0.2,0.30000000000000004,3.0,-0.1,9.5,10.200000000000001,-21.8,-0.7,16
123,2202.0,-0.4,-0.30000000000000004,0.1,2.9000000000000004,-0.2,9.4,15.6,-23.6,-0.5,16
124,2220.0,-0.4,-0.4,-0.1,2.9000000000000004,-0.2,9.0,20.7,-21.6,3.0,16
125,2237.0,-0.4,-0.5,-0.7000000000000001,2.9000000000000004,-0.30000000000000004,8.6,20.599999999999998,-19.1,7.500000000000001,16
126,2253.0,-0.30000000000000004,-0.5,-0.7000000000000001,3.1,-0.30000000000000004,8.4,15.000000000000002,-18.6,11.6,16
127,2268.0,-0.4,-0.6000000000000001,-0.6000000000000001,3.0,-0.5,8.6,7.400000000000001,-19.5,15.6,16
128,2284.0,-1.4000000000000001,-1.2000000000000002,-0.4,2.1,-1.0,8.700000000000001,12.8,-18.8,17.200000000000003,16
129,2301.0,-1.1,-0.30000000000000004,-0.30000000000000004,2.4000000000000004,0.0,8.6,18.200000000000003,-33.400000000000006,19.0,16
130,2318.0,-1.0,-0.30000000000000004,-1.2000000000000002,2.7,0.0,7.800000000000001,15.5,-42.60000000000001,31.0,16
131,2348.0,1.0,0.30000000000000004,-0.5,5.1000000000000005,0.4,8.6,-12.299999999999999,-17.9,45.099999999999994,16
132,2354.0,1.7000000000000002,0.2,0.0,5.5,-0.2,9.200000000000001,-20.599999999999998,-8.5,39.1,16
133,2369.0,1.6,-0.30000000000000004,0.30000000000000004,5.5,-0.2,9.200000000000001,-20.599999999999998,-8.5,39.1,16
134,2384.0,1.7000000000000002,0.6000000000000001,1.5,5.5,0.30000000000000004,10.200000000000001,-21.400000000000002,3.2,31.0,16
135,2401.0,1.7000000000000002,0.5,1.6,5.6000000000000005,0.30000000000000004,10.5,-10.8,-4.9,22.6,16
136,2425.0,1.2000000000000002,0.30000000000000004,1.0,5.1000000000000005,0.2,9.700000000000001,11.2,-16.200000000000003,7.6,16
137,2445.0,1.0,0.2,0.4,5.0,0.2,9.3,14.300000000000002,-14.100000000000001,2.2,16
138,2456.0,0.8,0.2,0.30000000000000004,4.7,0.2,9.1,14.0,-10.4,-2.4000000000000004,16
139,2468.0,0.6000000000000001,0.2,0.2,4.7,0.2,9.1,14.0,-10.4,-2.4000000000000004,16
140,2484.0,0.30000000000000004,-0.1,-0.1,4.4,0.0,8.9,14.5,-8.0,-5.4,16
141,2501.0,0.1,-0.2,-0.30000000000000004,4.2,-0.1,8.6,13.399999999999999,-6.699999999999999,-6.1000000000000005,16
142,2518.0,-0.2,-0.1,-0.5,3.9000000000000004,0.0,8.4,11.000000000000002,-5.7,-4.9,16
143,2535.0,-0.1,0.0,-0.7000000000000001,3.9000000000000004,0.1,8.200000000000001,9.100000000000001,-3.4,-1.1,16
144,2554.0,0.1,0.0,-0.8,4.3,0.1,8.0,-1.0,1.0,2.3,16
145,2568.0,0.2,-0.1,-0.8,4.3,0.1,8.0,-1.0,1.0,2.3,16
146,2589.0,0.4,-0.1,-0.4,4.5,0.0,8.3,-7.8,2.6,2.3,16
147,2606.0,0.7000000000000001,0.0,0.1,4.800000000000001,0.0,9.0,-12.4,7.0,-2.1,16
148,2623.0,0.7000000000000001,0.0,0.2,4.800000000000001,0.0,9.0,-12.4,7.0,-2.1,16
149,2634.0,0.7000000000000001,-0.1,0.2,4.7,-0.1,9.0,-10.8,10.200000000000001,-4.800000000000001,16
150,2654.0,0.30000000000000004,-0.1,0.2,4.3,-0.1,9.1,-10.200000000000001,11.000000000000002,-5.7,16
151,2668.0,0.2,-0.2,0.2,4.2,-0.2,9.1,-9.0,9.0,-5.300000000000001,16
152,2685.0,0.2,-0.30000000000000004,0.30000000000000004,4.1000000000000005,-0.30000000000000004,9.3,-8.100000000000001,5.6,-6.4,16
153,2701.0,-0.1,-0.2,0.5,3.9000000000000004,-0.2,9.4,-5.7,1.8000000000000003,-8.0,16
154,2717.0,-0.2,-0.2,0.30000000000000004,3.9000000000000004,-0.2,9.200000000000001,-1.7,1.5,-7.699999999999999,16
155,2739.0,-0.30000000000000004,-0.30000000000000004,0.0,3.8000000000000003,-0.2,9.0,-0.9000000000000001,3.8,-5.7,16
156,2755.0,-0.4,-0.4,-0.1,3.6,-0.4,8.8,-2.0,7.6,-2.7,16
157,2768.0,-0.2,-0.5,0.0,3.7,-0.5,8.9,-3.7000000000000006,11.4,0.7,16
158,2784.0,-0.1,-0.4,0.30000000000000004,3.8000000000000003,-0.5,9.4,-4.0,10.8,0.8,16
159,2808.0,-0.2,-0.2,0.5,3.6,-0.30000000000000004,9.4,12.100000000000001,-0.7,2.3,16
160,2819.0,-0.30000000000000004,-0.2,0.30000000000000004,3.6,-0.30000000000000004,9.4,12.100000000000001,-0.7,2.3,16
161,2841.0,0.2,0.0,-0.2,4.1000000000000005,-0.1,8.6,17.1,-9.8,4.9,16
162,2854.0,0.1,-0.1,-0.30000000000000004,4.1000000000000005,-0.1,8.6,17.1,-9.8,4.9,16
163,2868.0,0.1,0.0,0.0,4.0,0.0,8.8,11.3,-4.800000000000001,5.500000000000001,16
164,2886.0,0.0,0.0,0.2,4.0,0.1,9.200000000000001,7.6,0.2,6.0,16
165,2902.0,-0.1,0.1,0.2,3.8000000000000003,0.2,9.200000000000001,8.899999999999999,8.100000000000001,9.100000000000001,16
166,2918.0,0.0,0.1,0.2,4.0,0.30000000000000004,9.3,8.8,12.100000000000001,13.200000000000003,16
167,2948.0,2.2,0.30000000000000004,2.1,6.0,0.5,11.200000000000001,16.5,15.899999999999999,7.6,16
168,2960.0,1.6,0.30000000000000004,1.7000000000000002,5.1000000000000005,0.6000000000000001,10.600000000000001,33.1,-2.3,-4.2,16
169,2976.0,0.9,0.30000000000000004,1.3,5.1000000000000005,0.6000000000000001,10.600000000000001,33.1,-2.3,-4.2,16
170,2984.0,0.4,0.4,1.0,4.3,0.7000000000000001,10.0,48.2,-8.2,-13.100000000000001,16
171,3001.0,-0.2,0.2,0.5,3.8000000000000003,0.8,9.600000000000001,54.6,-6.2,-16.3,16
172,3018.0,-0.2,0.0,0.2,3.7,0.7000000000000001,9.3,57.3,-3.5,-16.4,16
173,3038.0,-0.1,0.0,0.2,3.8000000000000003,0.8,9.200000000000001,59.00000000000001,-0.8,-15.8,16
174,3051.0,0.4,-0.1,0.0,4.2,1.0,9.1,61.0,-2.0,-16.3,16
175,3069.0,0.6000000000000001,-0.1,0.0,4.6000000000000005,1.1,9.1,61.300000000000004,-5.2,-20.599999999999998,16
176,3085.0,0.4,0.0,-0.2,4.3,1.4000000000000001,8.700000000000001,64.0,-5.7,-26.5,16
177,3101.0,0.2,0.0,-1.1,4.1000000000000005,1.6,8.0,63.4,-1.1,-28.200000000000003,16
178,3122.0,0.1,0.2,-1.7000000000000002,4.1000000000000005,1.8,7.5,57.20000000000001,4.2,-26.300000000000004,16
179,3140.0,0.2,0.0,-1.6,4.0,2.1,7.4,26.400000000000006,13.700000000000001,-19.799999999999997,16
180,3153.0,0.2,0.1,-1.4000000000000001,4.0,2.1,7.4,26.400000000000006,13.700000000000001,-19.799999999999997,16
181,3169.0,0.7000000000000001,0.2,-0.9,4.5,2.4000000000000004,8.0,13.5,12.9,-20.400000000000002,16
182,3188.0,0.7000000000000001,0.2,-0.8,4.5,2.4000000000000004,8.0,13.5,12.9,-20.400000000000002,16
183,3206.0,0.2,0.30000000000000004,-0.9,4.0,2.5,8.0,11.5,9.100000000000001,-27.9,16
184,3219.0,-0.1,0.4,-1.1,3.5,2.7,7.7,7.1000000000000005,6.9,-30.799999999999997,16
185,3244.0,-0.30000000000000004,0.30000000000000004,-1.0,3.4000000000000004,2.7,7.9,-10.5,9.2,-23.900000000000006,16
186,3255.0,-0.30000000000000004,0.30000000000000004,-1.0,3.4000000000000004,2.7,7.9,-10.5,9.2,-23.900000000000006,16
187,3271.0,0.1,0.4,-0.8,3.7,2.7,8.1,-16.8,13.399999999999999,-19.799999999999997,16
188,3285.0,0.5,0.30000000000000004,-0.7000000000000001,4.0,2.6,8.200000000000001,-21.7,20.900000000000002,-20.0,16
189,3305.0,0.5,0.2,-0.5,3.9000000000000004,2.5,8.4,-27.3,26.9,-23.700000000000003,16
190,3318.0,0.30000000000000004,0.1,-0.30000000000000004,3.6,2.3000000000000003,8.700000000000001,-31.5,30.599999999999998,-26.400000000000006,16
191,3335.0,0.1,0.0,0.0,3.3000000000000003,2.1,9.0,-32.2,33.300000000000004,-24.900000000000002,16
192,3360.0,-0.1,0.0,0.0,3.1,2.1,9.1,-30.000000000000004,33.800000000000004,-20.900000000000002,16
193,3375.0,0.2,-0.1,0.30000000000000004,3.1,1.8,9.5,-23.900000000000006,25.200000000000003,-20.5,16
194,3384.0,0.2,-0.2,0.30000000000000004,3.1,1.8,9.5,-23.900000000000006,25.200000000000003,-20.5,16
195,3403.0,0.1,-0.2,0.2,2.9000000000000004,1.7000000000000002,9.4,-18.200000000000003,22.000000000000004,-21.500000000000004,16
196,3421.0,-0.1,-0.2,0.1,2.7,1.7000000000000002,9.3,-15.100000000000001,16.3,-20.3,16
197,3435.0,0.1,-0.1,0.0,2.9000000000000004,1.8,9.200000000000001,-14.0,11.1,-18.0,16
198,3456.0,0.4,0.0,0.0,3.1,1.9000000000000001,9.3,-12.5,10.299999999999999,-17.400000000000002,16
199,3473.0,0.5,0.1,-0.2,3.1,1.9000000000000001,9.1,-10.700000000000001,12.5,-19.1,16
200,3484.0,0.5,0.1,-0.2,3.1,1.9000000000000001,9.1,-10.700000000000001,12.5,-19.1,16
201,3503.0,0.7000000000000001,0.1,-0.1,3.2,1.9000000000000001,9.200000000000001,-11.4,11.700000000000001,-20.599999999999998,16
202,3518.0,0.8,0.0,-0.1,3.4000000000000004,1.8,9.200000000000001,-11.000000000000002,8.600000000000001,-24.1,16
203,3541.0,0.7000000000000001,0.1,0.0,3.3000000000000003,1.8,9.3,-11.000000000000002,9.3,-28.0,16
204,3555.0,0.6000000000000001,0.0,-0.1,3.1,1.8,9.1,-9.899999999999999,9.899999999999999,-29.700000000000006,16
205,3568.0,0.4,0.0,-0.30000000000000004,2.9000000000000004,1.8,9.0,-12.4,9.899999999999999,-29.700000000000006,16
206,3588.0,0.4,-0.2,-0.1,2.8000000000000003,1.6,9.200000000000001,-14.0,8.899999999999999,-29.200000000000003,16
207,3601.0,0.30000000000000004,-0.2,-0.2,2.8000000000000003,1.5,9.200000000000001,-15.299999999999999,6.600000000000001,-29.800000000000004,16
208,3618.0,0.2,-0.30000000000000004,0.0,2.6,1.4000000000000001,9.3,-15.5,6.4,-30.3,16
209,3644.0,-0.1,-0.30000000000000004,-0.1,2.3000000000000003,1.4000000000000001,9.3,-14.5,4.800000000000001,-31.099999999999998,16
210,3652.0,-0.2,-0.2,-0.1,2.2,1.4000000000000001,9.3,-13.100000000000001,2.3,-30.699999999999996,16
211,3668.0,-0.2,-0.2,-0.1,2.1,1.4000000000000001,9.3,-11.1,1.2000000000000002,-29.200000000000003,16
212,3684.0,-0.30000000000000004,-0.1,-0.2,1.9000000000000001,1.5,9.200000000000001,-10.0,2.0,-27.3,16
213,3702.0,-0.4,0.0,-0.30000000000000004,1.9000000000000001,1.6,9.1,-10.5,2.8,-25.0,16
214,3723.0,-0.30000000000000004,0.1,-0.2,1.9000000000000001,1.6,9.1,-12.0,3.1,-23.800000000000004,16
215,3735.0,-0.4,0.1,-0.1,1.8,1.7000000000000002,9.200000000000001,-13.000000000000002,4.4,-23.3,16
216,3756.0,-0.4,0.30000000000000004,-0.2,1.8,1.8,9.200000000000001,-14.400000000000002,7.500000000000001,-20.0,16
217,3769.0,-0.30000000000000004,0.30000000000000004,-0.1,1.8,1.8,9.200000000000001,-14.400000000000002,7.500000000000001,-20.0,16
218,3785.0,-0.1,0.4,0.1,1.9000000000000001,1.8,9.5,-16.1,8.3,-19.400000000000002,16
219,3801.0,0.0,0.4,0.1,2.0,1.9000000000000001,9.5,-15.5,9.3,-19.1,16
220,3818.0,0.2,0.5,0.1,2.2,1.9000000000000001,9.5,-15.8,10.0,-19.5,16
221,3847.0,0.1,0.4,0.4,2.0,1.9000000000000001,9.9,-16.1,13.200000000000003,-18.6,16
222,3854.0,0.1,0.4,0.4,2.0,1.9000000000000001,9.9,-16.1,13.200000000000003,-18.6,16
223,3870.0,0.30000000000000004,0.4,0.4,2.1,1.8,9.9,-13.100000000000001,13.100000000000001,-16.4,16
224,3884.0,0.4,0.30000000000000004,0.4,2.3000000000000003,1.7000000000000002,9.9,-9.600000000000001,13.700000000000001,-16.5,16
225,3901.0,0.4,0.1,0.4,2.2,1.5,10.0,-6.699999999999999,16.1,-18.700000000000003,16
226,3917.0,0.4,0.1,0.4,2.2,1.5,10.0,-4.800000000000001,13.700000000000001,-19.9,16
227,3936.0,0.30000000000000004,0.1,0.30000000000000004,2.0,1.4000000000000001,9.9,-3.2,14.200000000000001,-20.900000000000002,16
228,3957.0,0.0,0.1,0.1,1.6,1.5,9.700000000000001,-4.300000000000001,17.7,-17.9,16
229,3968.0,-0.1,0.1,0.1,1.6,1.5,9.700000000000001,-4.300000000000001,17.7,-17.9,16
230,3984.0,0.0,0.1,0.1,1.6,1.5,9.8,-4.4,15.6,-15.8,16
231,4003.0,0.2,0.1,0.2,1.8,1.5,9.9,-2.1,10.9,-15.6,16
232,4018.0,0.30000000000000004,0.1,0.0,1.9000000000000001,1.5,9.700000000000001,1.5,5.6,-18.5,16
233,4036.0,0.2,0.1,0.0,1.8,1.5,9.700000000000001,4.800000000000001,2.1,-22.1,16
234,4052.0,-0.1,0.1,-0.1,1.5,1.5,9.600000000000001,8.5,1.6,-23.0,16
235,4069.0,-0.30000000000000004,0.1,-0.4,1.3,1.6,9.3,10.200000000000001,1.7,-21.300000000000004,16
236,4084.0,-0.2,0.1,-0.5,1.3,1.7000000000000002,9.1,8.5,-0.8,-19.1,16
237,4101.0,-0.1,0.1,-0.4,1.4000000000000001,1.7000000000000002,9.200000000000001,5.4,-2.5,-17.6,16
238,4120.0,-0.1,0.1,-0.4,1.4000000000000001,1.7000000000000002,9.1,3.0,-3.1,-16.900000000000002,16
239,4142.0,0.2,0.0,-0.4,1.7000000000000002,1.6,9.200000000000001,-2.8,-1.3,-17.9,16
240,4156.0,0.2,0.0,-0.30000000000000004,1.7000000000000002,1.6,9.200000000000001,-2.8,-1.3,-17.9,16
241,4172.0,0.0,-0.1,-0.2,1.6,1.5,9.3,-4.6,1.2000000000000002,-19.400000000000002,16
242,4184.0,-0.1,-0.1,-0.1,1.4000000000000001,1.5,9.4,-5.1000000000000005,3.3000000000000007,-19.1,16
243,4203.0,-0.2,-0.1,0.0,1.2000000000000002,1.5,9.5,-5.2,4.0,-17.200000000000003,16
244,4218.0,-0.2,-0.1,0.0,1.2000000000000002,1.5,9.5,-4.300000000000001,2.9,-15.100000000000001,16
245,4240.0,0.0,-0.1,-0.1,1.5,1.5,9.5,-3.1,-2.8,-11.900000000000002,16
246,4251.0,0.1,-0.1,0.0,1.5,1.5,9.5,-3.1,-2.8,-11.900000000000002,16
247,4270.0,0.1,-0.2,-0.1,1.5,1.4000000000000001,9.5,-1.9,-2.1,-12.8,16
248,4289.0,-0.1,-0.2,-0.2,1.2000000000000002,1.3,9.4,-5.0,-2.3,-15.299999999999999,16
249,4304.0,-0.2,-0.2,-0.1,1.2000000000000002,1.3,9.4,-5.0,-2.3,-15.299999999999999,16
250,4323.0,-0.4,-0.1,0.0,1.1,1.4000000000000001,9.5,-6.8,-1.0,-14.900000000000002,16
251,4335.0,-0.4,-0.1,0.0,0.9,1.4000000000000001,9.5,-7.500000000000001,1.7,-13.8,16
252,4351.0,-0.5,0.0,0.0,0.9,1.5,9.5,-8.700000000000001,2.4000000000000004,-12.5,16
253,4370.0,-0.30000000000000004,0.0,0.1,0.9,1.5,9.600000000000001,-9.5,1.0,-12.7,16
254,4384.0,-0.30000000000000004,0.0,0.2,1.0,1.4000000000000001,9.700000000000001,-9.2,-1.1,-14.5,16
255,4401.0,-0.4,0.1,0.2,0.9,1.5,9.700000000000001,-8.100000000000001,-2.0,-16.1,16
256,4418.0,-0.30000000000000004,0.1,0.1,1.0,1.5,9.700000000000001,-8.2,-3.8,-16.4,16
257,4453.0,0.2,0.1,0.0,1.4000000000000001,1.5,9.600000000000001,-9.899999999999999,-2.9,-17.799999999999997,16
258,4468.0,0.2,0.1,0.0,1.5,1.5,9.600000000000001,-11.5,-2.4000000000000004,-19.1,16
259,4484.0,0.2,0.2,0.1,1.5,1.5,9.700000000000001,-13.5,-2.3,-20.8,16
260,4501.0,0.1,0.30000000000000004,0.2,1.4000000000000001,1.6,9.8,-12.8,-1.0,-21.6,16
261,4519.0,0.0,0.4,0.2,1.3,1.7000000000000002,9.8,-10.9,-1.3,-22.4,16
262,4539.0,0.2,0.4,0.2,1.5,1.7000000000000002,9.8,-8.8,-4.300000000000001,-23.800000000000004,16
263,4552.0,0.2,0.30000000000000004,0.2,1.5,1.7000000000000002,9.8,-7.500000000000001,-7.6,-27.6,16
264,4568.0,0.1,0.30000000000000004,0.30000000000000004,1.4000000000000001,1.6,9.9,-5.9,-8.0,-31.099999999999998,16
265,4584.0,-0.1,0.2,0.2,1.2000000000000002,1.6,9.9,-3.6000000000000005,-6.1000000000000005,-33.50000000000001,16
266,4601.0,0.0,0.0,-0.1,1.3,1.4000000000000001,9.700000000000001,-1.6,-3.8,-34.7,16
267,4617.0,-0.1,0.0,-0.2,1.2000000000000002,1.4000000000000001,9.4,-2.4000000000000004,-2.1,-37.0,16
268,4636.0,-0.2,0.0,-0.2,1.1,1.3,9.4,-4.9,-1.1,-39.400000000000006,16
269,4654.0,-0.30000000000000004,-0.1,0.0,1.0,1.3,9.600000000000001,-6.2,-0.4,-40.9,16
270,4668.0,-0.30000000000000004,-0.1,0.1,0.9,1.3,9.700000000000001,-4.300000000000001,-1.0,-40.9,16
271,4684.0,-0.2,0.0,0.1,1.0,1.4000000000000001,9.700000000000001,-1.7,-3.7000000000000006,-40.6,16
272,4701.0,-0.1,0.1,0.1,1.3,1.5,9.700000000000001,0.7,-6.500000000000001,-41.300000000000004,16
273,4718.0,0.4,0.2,0.1,1.6,1.7000000000000002,9.700000000000001,2.3,-6.2,-44.6,16
274,4740.0,0.2,0.30000000000000004,0.0,1.4000000000000001,1.7000000000000002,9.600000000000001,1.6,-4.9,-49.699999999999996,16
275,4753.0,-0.2,0.2,0.0,1.1,1.7000000000000002,9.700000000000001,0.30000000000000004,-3.9,-53.599999999999994,16
276,4767.0,-0.4,0.2,0.0,0.8,1.7000000000000002,9.700000000000001,-1.4,-5.1000000000000005,-54.6,16
277,4786.0,-0.4,0.1,0.0,0.8,1.6,9.600000000000001,-2.3,-6.600000000000001,-53.9,16
278,4801.0,-0.2,0.0,0.0,1.1,1.5,9.700000000000001,-4.1,-8.4,-53.9,16
279,4817.0,0.1,-0.2,0.2,1.2000000000000002,1.4000000000000001,9.8,-6.4,-8.600000000000001,-55.3,16
280,4838.0,0.1,-0.2,0.2,1.2000000000000002,1.3,9.8,-8.600000000000001,-5.500000000000001,-56.10000000000001,16
281,4858.0,-0.1,-0.2,0.2,1.1,1.3,9.9,-11.6,1.9,-51.70000000000001,16
282,4869.0,0.0,-0.2,0.2,1.1,1.3,9.9,-11.6,1.9,-51.70000000000001,16
283,4884.0,0.1,-0.2,0.2,1.2000000000000002,1.3,9.9,-10.299999999999999,2.5,-48.800000000000004,16
284,4901.0,0.1,0.0,0.2,1.1,1.4000000000000001,9.9,-7.699999999999999,1.4,-47.60000000000001,16
285,4917.0,0.0,0.1,0.0,1.0,1.5,9.700000000000001,-3.4,-0.1,-47.0,16
286,4938.0,-0.1,0.1,-0.2,0.9,1.5,9.5,-1.2000000000000002,-2.9,-47.1,16
287,4951.0,-0.1,0.1,-0.30000000000000004,0.9,1.5,9.4,-1.3,-4.6,-46.800000000000004,16
288,4967.0,0.0,-0.1,-0.4,1.0,1.4000000000000001,9.200000000000001,-4.0,-5.7,-47.3,16
289,4988.0,0.1,-0.30000000000000004,-0.5,1.1,1.2000000000000002,9.200000000000001,-7.500000000000001,-4.2,-48.0,16
290,5006.0,0.2,-0.4,-0.4,1.4000000000000001,1.0,9.3,-11.900000000000002,-1.4,-43.4,16
291,5021.0,0.4,-0.30000000000000004,-0.4,1.4000000000000001,1.0,9.3,-11.900000000000002,-1.4,-43.4,16
292,5038.0,0.9,-0.30000000000000004,-0.5,1.7000000000000002,1.1,9.200000000000001,-12.600000000000001,-0.5,-39.699999999999996,16
293,5056.0,1.0,-0.1,-0.4,2.0,1.1,9.1,-13.6,0.30000000000000004,-39.300000000000004,16
294,5069.0,1.1,0.1,-0.30000000000000004,2.1,1.3,9.3,-14.800000000000002,0.30000000000000004,-38.400000000000006,16
295,5086.0,1.4000000000000001,0.4,-0.30000000000000004,2.4000000000000004,1.5,9.3,-15.8,-1.7,-38.0,16
296,5103.0,1.5,0.4,-0.30000000000000004,2.7,1.7000000000000002,9.3,-15.100000000000001,7.0,-40.800000000000004,16
297,5122.0,1.9000000000000001,0.30000000000000004,0.0,2.9000000000000004,1.5,9.5,-14.0,14.0,-43.6,16
298,5144.0,1.7000000000000002,0.2,0.0,2.9000000000000004,1.4000000000000001,9.600000000000001,-16.700000000000003,9.600000000000001,-46.7,16
299,5159.0,1.3,0.2,0.1,2.2,1.3,9.700000000000001,-16.900000000000002,4.7,-51.1,16
300,5171.0,1.1,0.1,0.1,2.2,1.3,9.700000000000001,-16.900000000000002,4.7,-51.1,16
301,5184.0,1.0,0.2,0.2,1.9000000000000001,1.3,9.8,-15.6,-4.1,-50.3,16
302,5201.0,0.8,0.30000000000000004,0.2,1.8,1.4000000000000001,9.8,-11.700000000000001,-12.299999999999999,-49.800000000000004,16
303,5217.0,0.6000000000000001,0.5,-0.2,1.7000000000000002,1.5,9.5,-6.9,-17.300000000000004,-48.9,16
304,5242.0,0.30000000000000004,0.9,-0.30000000000000004,1.4000000000000001,2.1,9.3,-8.3,-22.8,-46.0,16
305,5253.0,0.2,1.0,-0.30000000000000004,1.4000000000000001,2.1,9.3,-8.3,-22.8,-46.0,16
306,5268.0,0.1,1.1,-0.1,1.3,2.1,9.4,-9.0,-19.799999999999997,-44.300000000000004,16
307,5284.0,0.1,1.1,-0.1,1.3,2.1,9.5,-7.9,-16.200000000000003,-43.2,16
308,5301.0,-0.1,1.0,-0.1,1.2000000000000002,2.1,9.5,-5.9,-11.2,-44.00000000000001,16
309,5319.0,-0.2,1.0,-0.2,1.1,2.1,9.4,-3.7000000000000006,-8.3,-44.2,16
310,5335.0,-0.2,1.0,-0.30000000000000004,1.0,2.1,9.3,-2.6,-8.0,-44.10000000000001,16
311,5351.0,-0.30000000000000004,0.9,-0.4,1.0,2.0,9.200000000000001,-2.0,-9.3,-43.2,16
312,5368.0,-0.30000000000000004,1.0,-0.5,1.0,2.1,9.0,-3.1,-11.3,-40.9,16
313,5384.0,-0.2,1.0,-0.5,1.1,2.2,9.1,-5.1000000000000005,-12.0,-37.9,16
314,5403.0,0.0,1.1,-0.6000000000000001,1.3,2.3000000000000003,8.9,-7.0,-11.3,-34.900000000000006,16
315,5419.0,0.1,1.1,-0.7000000000000001,1.4000000000000001,2.3000000000000003,8.9,-11.4,-10.4,-32.300000000000004,16
316,5435.0,0.2,1.1,-0.6000000000000001,1.6,2.2,9.0,-16.1,-7.9,-30.599999999999998,16
317,5454.0,0.2,1.1,-0.30000000000000004,1.6,2.2,9.200000000000001,-19.1,-4.300000000000001,-29.300000000000004,16
318,5468.0,0.2,1.2000000000000002,-0.1,1.5,2.3000000000000003,9.5,-17.7,-2.0,-28.0,16
319,5484.0,0.0,1.3,0.1,1.3,2.5,9.600000000000001,-12.100000000000001,-0.5,-26.6,16
320,5502.0,-0.30000000000000004,1.5,-0.30000000000000004,1.1,2.7,9.3,-4.0,2.8,-25.6,16
321,5527.0,-0.5,1.6,-0.5,0.9,2.9000000000000004,9.1,0.5,2.1,-24.599999999999998,16
322,5534.0,-0.5,1.6,-0.4,0.8,3.0,9.1,1.6,-1.4,-23.5,16
323,5552.0,-0.30000000000000004,1.5,-0.30000000000000004,0.9,2.9000000000000004,9.200000000000001,3.9,-2.7,-23.3,16
324,5568.0,-0.30000000000000004,1.5,-0.30000000000000004,1.0,3.0,9.1,7.500000000000001,-2.3,-23.400000000000002,16
325,5585.0,-0.4,1.4000000000000001,-0.4,0.8,3.0,9.0,9.4,-1.4,-23.900000000000006,16
326,5601.0,-0.6000000000000001,1.2000000000000002,-0.30000000000000004,0.6000000000000001,3.0,9.1,9.700000000000001,-0.4,-22.4,16
327,5618.0,-0.6000000000000001,1.1,-0.2,0.6000000000000001,2.9000000000000004,9.200000000000001,11.000000000000002,0.5,-18.900000000000002,16
328,5639.0,-0.4,1.0,-0.1,0.7000000000000001,2.9000000000000004,9.3,12.9,2.1,-14.600000000000001,16
329,5651.0,-0.2,1.0,-0.1,0.8,3.0,9.3,14.900000000000002,4.9,-11.6,16
330,5672.0,-0.2,0.8,-0.1,0.9,3.0,9.4,19.5,5.500000000000001,-8.4,16
331,5684.0,-0.1,0.8,0.0,0.9,3.0,9.4,19.5,5.500000000000001,-8.4,16
332,5704.0,-0.1,0.7000000000000001,0.1,0.9,3.1,9.5,22.1,4.800000000000001,-7.400000000000001,16
333,5725.0,0.1,0.4,0.4,1.2000000000000002,2.6,10.100000000000001,16.200000000000003,-3.6000000000000005,-6.300000000000001,16
334,5736.0,0.30000000000000004,0.1,0.7000000000000001,1.2000000000000002,2.6,10.100000000000001,16.200000000000003,-3.6000000000000005,-6.300000000000001,16
335,5757.0,0.30000000000000004,-0.1,1.7000000000000002,1.3,2.4000000000000004,10.9,9.3,-1.5,-6.9,16
336,5769.0,0.0,-0.30000000000000004,2.5,1.0,2.2,12.0,4.300000000000001,2.3,-7.6,16
337,5787.0,-0.1,-0.5,3.5,0.9,2.0,12.9,5.8,9.2,-7.400000000000001,16
338,5806.0,-0.4,-0.6000000000000001,3.5,0.6000000000000001,2.0,13.100000000000001,11.4,14.5,-5.4,16
339,5819.0,-0.4,-0.8,3.2,0.5,1.7000000000000002,12.600000000000001,14.100000000000001,10.9,-3.3000000000000007,16
340,5836.0,0.1,-1.5,2.5,1.0,1.1,12.100000000000001,9.0,-6.600000000000001,-0.7,16
341,5857.0,0.8,-2.0,2.6,1.6,0.7000000000000001,12.0,-10.600000000000001,-32.7,0.0,16
342,5867.0,1.0,-2.2,3.0,2.1,0.2,12.600000000000001,-30.200000000000003,-36.0,-1.3,16
343,5884.0,0.7000000000000001,-2.6,3.3000000000000003,1.9000000000000001,-0.2,12.9,-33.6,-9.700000000000001,-0.2,16
344,5902.0,0.2,-2.6,3.0,1.2000000000000002,-0.30000000000000004,12.4,-22.700000000000003,24.200000000000003,6.0,16
345,5921.0,-0.30000000000000004,-2.3000000000000003,1.5,0.6000000000000001,-0.1,11.100000000000001,-8.3,42.60000000000001,13.3,16
346,5934.0,-0.7000000000000001,-1.9000000000000001,0.0,0.2,0.30000000000000004,9.8,0.5,41.800000000000004,16.0,16
347,5951.0,-0.8,-1.6,-0.5,0.0,0.6000000000000001,9.1,5.4,29.700000000000006,14.800000000000002,16
348,5967.0,-0.8,-1.3,-0.8,-0.1,0.9,8.9,8.899999999999999,13.5,11.4,16
349,5984.0,-0.8,-1.2000000000000002,-1.1,-0.1,1.0,8.6,11.8,0.8,9.600000000000001,16
350,6001.0,-0.8,-1.1,-1.2000000000000002,0.0,1.2000000000000002,8.5,10.600000000000001,-9.5,11.000000000000002,16
351,6017.0,0.0,-0.9,-1.1,0.8,1.3,8.5,5.4,-12.8,14.300000000000002,16
352,6039.0,0.7000000000000001,-1.0,-1.0,1.4000000000000001,1.3,8.6,-0.2,-5.0,14.600000000000001,16
353,6056.0,1.0,-1.0,-1.0,1.7000000000000002,1.3,8.5,-5.300000000000001,18.1,9.8,16
354,6068.0,0.9,-0.9,-1.1,1.7000000000000002,1.3,8.5,-5.300000000000001,18.1,9.8,16
355,6084.0,0.5,-0.6000000000000001,-1.3,1.3,1.5,8.4,-3.6000000000000005,22.9,8.700000000000001,16
356,6101.0,0.5,-0.6000000000000001,-1.3,1.3,1.5,8.4,-3.6000000000000005,22.9,8.700000000000001,16
357,6119.0,0.6000000000000001,-0.2,-1.8,1.2000000000000002,2.0,7.9,9.8,19.1,10.299999999999999,16
358,6149.0,0.6000000000000001,0.1,-2.4000000000000004,1.2000000000000002,2.4000000000000004,7.2,17.7,5.500000000000001,4.5,16
359,6159.0,0.5,0.2,-2.4000000000000004,1.1,2.6,7.2,17.5,2.1,-1.4,16
360,6168.0,0.5,0.30000000000000004,-2.4000000000000004,1.1,2.6,7.2,17.5,2.1,-1.4,16
361,6185.0,0.30000000000000004,0.1,-2.4000000000000004,0.9,2.5,7.1000000000000005,17.400000000000002,2.7,-8.3,16
362,6201.0,0.0,0.0,-2.5,0.5,2.5,7.0,15.2,4.1,-13.3,16
363,6220.0,-0.4,0.0,-2.4000000000000004,0.2,2.5,7.1000000000000005,9.5,6.0,-14.700000000000001,16
364,6238.0,-0.6000000000000001,0.0,-1.9000000000000001,0.0,2.5,7.4,5.7,11.900000000000002,-12.7,16
365,6254.0,-0.6000000000000001,0.1,-1.6,-0.2,2.6,7.800000000000001,5.1000000000000005,18.900000000000002,-10.200000000000001,16
366,6268.0,-0.6000000000000001,0.30000000000000004,-1.2000000000000002,-0.2,2.8000000000000003,8.200000000000001,7.8,20.599999999999998,-8.8,16
367,6284.0,-0.6000000000000001,0.30000000000000004,-1.0,-0.30000000000000004,2.9000000000000004,8.5,10.299999999999999,13.6,-9.600000000000001,16
368,6303.0,-0.6000000000000001,0.4,-0.6000000000000001,-0.30000000000000004,3.0,8.9,11.1,4.300000000000001,-10.1,16
369,6320.0,-0.5,0.2,0.30000000000000004,-0.2,2.8000000000000003,9.5,8.2,-2.9,-11.3,16
370,6341.0,-0.5,-0.2,1.8,-0.30000000000000004,2.6,10.700000000000001,7.200000000000001,-6.2,-13.6,16
371,6352.0,-0.5,-0.30000000000000004,2.1,-0.30000000000000004,2.4000000000000004,11.5,15.899999999999999,-1.0,-9.3,16
372,6368.0,-0.1,-0.30000000000000004,1.8,0.0,2.5,11.3,27.099999999999998,16.5,-1.2000000000000002,16
373,6384.0,-0.1,0.0,1.8,0.0,3.0,11.3,24.3,34.800000000000004,4.300000000000001,16
374,6401.0,-0.1,0.6000000000000001,2.4000000000000004,0.0,3.4000000000000004,11.8,9.899999999999999,38.1,8.100000000000001,16
375,6420.0,1.1,-0.5,3.3000000000000003,0.9,2.6,12.600000000000001,-1.6,30.200000000000003,6.0,16
376,6442.0,1.4000000000000001,-0.7000000000000001,3.5,1.0,2.0,12.9,-4.5,32.6,-0.9000000000000001,16
377,6453.0,1.1,-0.8,3.4000000000000004,1.0,2.0,12.9,-4.5,32.6,-0.9000000000000001,16
378,6469.0,0.8,-1.4000000000000001,2.4000000000000004,0.5,1.5,12.200000000000001,1.4,40.800000000000004,-1.5,16
379,6484.0,0.8,-1.7000000000000002,1.0,0.30000000000000004,1.3,10.9,0.0,47.900000000000006,-4.7,16
380,6501.0,-0.30000000000000004,-0.2,2.7,-0.7000000000000001,2.5,12.200000000000001,-12.600000000000001,22.8,-5.300000000000001,16
381,6517.0,0.5,-1.4000000000000001,2.4000000000000004,-0.2,1.6,11.8,-9.8,-3.3000000000000007,-3.5,16
382,6540.0,1.0,-1.6,2.5,0.8,0.9,11.9,-3.6000000000000005,-35.4,-14.800000000000002,16
383,6559.0,1.3,-2.0,2.0,1.1,0.6000000000000001,11.4,0.9000000000000001,-36.5,-19.1,16
384,6569.0,1.4000000000000001,-2.2,1.7000000000000002,1.1,0.6000000000000001,11.4,0.9000000000000001,-36.5,-19.1,16
385,6584.0,1.3,-2.3000000000000003,1.4000000000000001,1.2000000000000002,0.4,10.9,5.4,-27.0,-20.2,16
386,6601.0,1.3,-2.2,0.7000000000000001,1.2000000000000002,0.5,10.4,13.100000000000001,-11.8,-18.700000000000003,16
387,6617.0,1.2000000000000002,-2.1,0.2,1.0,0.6000000000000001,9.5,22.000000000000004,0.9000000000000001,-17.400000000000002,16
388,6639.0,0.30000000000000004,-2.0,-1.4000000000000001,-0.2,1.0,7.5,30.5,-7.500000000000001,-18.700000000000003,16
389,6652.0,-0.1,-1.8,-2.2,-0.2,1.0,7.5,30.5,-7.500000000000001,-18.700000000000003,16
390,6667.0,0.4,-0.8,-2.2,0.1,2.0,7.2,21.500000000000004,-18.4,-18.4,16
391,6691.0,0.1,-1.1,-2.4000000000000004,0.0,1.9000000000000001,7.0,5.300000000000001,-29.1,-13.5,16
392,6701.0,0.0,-1.1,-2.4000000000000004,0.0,1.9000000000000001,7.0,5.300000000000001,-29.1,-13.5,16
393,6718.0,0.2,-0.8,-2.8000000000000003,0.30000000000000004,2.2,6.6000000000000005,3.8,-22.4,-9.5,16
394,6742.0,0.6000000000000001,-0.6000000000000001,-2.9000000000000004,0.8,2.3000000000000003,6.9,-8.2,-14.0,-13.5,16
395,6751.0,0.7000000000000001,-0.7000000000000001,-2.3000000000000003,0.8,2.3000000000000003,6.9,-8.2,-14.0,-13.5,16
396,6768.0,0.7000000000000001,-0.7000000000000001,-2.0,0.8,2.1,7.5,-9.100000000000001,-10.0,-19.1,16
397,6784.0,0.30000000000000004,-0.7000000000000001,-1.7000000000000002,0.4,2.2,7.6000000000000005,-1.0,-0.4,-23.099999999999998,16
398,6801.0,-0.2,-0.7000000000000001,-2.0,-0.1,2.2,7.4,5.2,1.1,-24.7,16
399,6817.0,-0.4,-0.5,-2.1,-0.30000000000000004,2.4000000000000004,7.2,5.6,-1.1,-22.3,16
400,6837.0,-0.4,-0.30000000000000004,-1.9000000000000001,-0.30000000000000004,2.6,7.5,1.7,-4.300000000000001,-17.7,16
401,6851.0,-0.2,-0.4,-1.0,-0.1,2.5,8.1,-3.8,-7.400000000000001,-13.5,16
402,6868.0,0.1,-0.5,-0.4,0.30000000000000004,2.4000000000000004,9.1,-5.9,-5.4,-9.5,16
403,6884.0,0.2,-0.6000000000000001,0.7000000000000001,0.30000000000000004,2.3000000000000003,10.0,-1.0,6.8,-6.600000000000001,16
404,6902.0,-0.2,-0.30000000000000004,0.6000000000000001,-0.1,2.6,10.0,11.3,21.7,-0.5,16
405,6918.0,-0.2,-0.1,0.4,-0.30000000000000004,2.8000000000000003,9.700000000000001,19.0,22.9,6.9,16
406,6937.0,-0.2,0.1,0.5,-0.2,3.0,9.700000000000001,19.5,11.4,11.4,16
407,6957.0,0.2,-0.1,1.3,0.1,2.9000000000000004,10.4,13.900000000000002,-4.2,11.900000000000002,16
408,6967.0,0.30000000000000004,-0.2,1.7000000000000002,0.30000000000000004,2.8000000000000003,11.0,9.600000000000001,-11.4,10.299999999999999,16
409,6984.0,0.0,-0.30000000000000004,1.8,0.1,2.8000000000000003,11.100000000000001,5.9,-7.6,8.700000000000001,16
410,7002.0,-0.5,-0.1,1.9000000000000001,-0.4,2.9000000000000004,11.200000000000001,-1.3,6.8,9.100000000000001,16
411,7019.0,-0.7000000000000001,-0.2,1.9000000000000001,-0.7000000000000001,2.9000000000000004,11.200000000000001,-9.2,23.400000000000002,12.0,16
412,7037.0,-0.7000000000000001,-0.30000000000000004,1.7000000000000002,-0.8,2.7,11.100000000000001,-19.5,27.2,14.700000000000001,16
413,7052.0,-0.6000000000000001,-0.4,1.9000000000000001,-0.6000000000000001,2.4000000000000004,11.4,-30.9,17.400000000000002,13.700000000000001,16
414,7068.0,0.1,-0.9,2.3000000000000003,-0.1,1.8,11.700000000000001,-39.1,0.6000000000000001,10.299999999999999,16
415,7084.0,0.30000000000000004,-1.6,2.4000000000000004,0.2,1.2000000000000002,11.9,-40.2,-9.8,5.1000000000000005,16
416,7104.0,-0.1,-1.7000000000000002,1.4000000000000001,-0.1,0.9,11.3,-30.000000000000004,-3.0,3.5,16
417,7119.0,-0.30000000000000004,-1.6,0.5,-0.5,0.9,10.0,-16.8,11.6,6.699999999999999,16
418,7140.0,-0.8,-1.0,-0.9,-0.9,1.4000000000000001,8.8,-14.600000000000001,14.700000000000001,11.1,16
419,7152.0,-0.9,-0.7000000000000001,-0.9,-1.0,1.8,8.700000000000001,-19.300000000000004,10.9,15.000000000000002,16
420,7168.0,-0.9,-0.4,-0.4,-1.0,1.9000000000000001,9.200000000000001,-21.400000000000002,5.2,19.799999999999997,16
421,7184.0,-0.5,-0.2,0.1,-0.8,2.0,9.600000000000001,-18.200000000000003,1.4,23.800000000000004,16
422,7201.0,-0.2,-0.2,0.2,-0.2,2.1,9.8,-12.5,-2.6,24.400000000000002,16
423,7217.0,0.5,-0.30000000000000004,0.1,0.30000000000000004,2.0,9.700000000000001,-7.1000000000000005,-7.9,20.900000000000002,16
424,7237.0,1.0,-0.5,0.1,0.8,1.8,9.700000000000001,-5.0,-11.000000000000002,12.5,16
425,7255.0,0.6000000000000001,-0.8,-0.30000000000000004,0.30000000000000004,1.4000000000000001,9.0,-0.2,6.1000000000000005,0.4,16
426,7269.0,0.30000000000000004,-0.8,-0.6000000000000001,0.30000000000000004,1.4000000000000001,9.0,-0.2,6.1000000000000005,0.4,16
427,7284.0,0.0,-0.8,-1.3,0.0,1.4000000000000001,8.4,3.3000000000000007,20.8,3.3000000000000007,16
428,7301.0,0.0,-0.7000000000000001,-1.7000000000000002,-0.2,1.5,7.800000000000001,7.300000000000001,29.200000000000003,7.500000000000001,16
429,7317.0,0.0,-0.6000000000000001,-2.3000000000000003,-0.2,1.6,7.300000000000001,9.700000000000001,26.000000000000004,10.5,16
430,7338.0,0.0,-0.5,-2.3000000000000003,-0.2,1.8,7.2,10.5,14.0,10.600000000000001,16
431,7352.0,0.0,-0.30000000000000004,-2.2,-0.30000000000000004,2.0,7.300000000000001,13.6,3.2,9.5,16
432,7368.0,-0.1,-0.1,-2.0,-0.4,2.2,7.4,19.300000000000004,-0.7,9.700000000000001,16
433,7384.0,1.1,-1.1,-3.1,0.30000000000000004,1.8,6.800000000000001,23.400000000000002,0.4,11.5,16
434,7401.0,0.1,-0.30000000000000004,-2.4000000000000004,-0.4,2.4000000000000004,7.2,14.300000000000002,-6.699999999999999,8.4,16
435,7417.0,-0.30000000000000004,0.7000000000000001,-1.5,-0.7000000000000001,3.2,7.800000000000001,8.5,6.2,11.6,16
436,7437.0,0.6000000000000001,0.1,-0.7000000000000001,0.2,2.6,8.5,8.4,19.300000000000004,13.900000000000002,16
437,7452.0,0.7000000000000001,0.4,-0.30000000000000004,0.30000000000000004,3.0,9.1,10.299999999999999,24.0,7.500000000000001,16
438,7468.0,0.6000000000000001,0.6000000000000001,0.0,0.1,3.2,9.4,11.4,22.1,-2.1,16
439,7484.0,0.7000000000000001,0.5,0.30000000000000004,0.0,3.2,9.9,5.300000000000001,15.5,-13.100000000000001,16
440,7501.0,-0.1,0.9,1.5,-0.6000000000000001,3.4000000000000004,10.9,-3.3000000000000007,13.3,-23.0,16
441,7517.0,0.2,-0.1,2.4000000000000004,-0.4,2.5,11.700000000000001,-7.400000000000001,15.100000000000001,-26.9,16
442,7542.0,-1.0,0.7000000000000001,3.2,-1.6,3.1,12.4,-10.9,17.0,-30.599999999999998,16
443,7554.0,-0.6000000000000001,0.1,3.6,-1.3,2.6,13.100000000000001,-11.000000000000002,17.1,-27.800000000000004,16
444,7567.0,-0.4,-0.4,4.4,-1.2000000000000002,2.1,13.8,-13.399999999999999,-1.7,-28.800000000000004,16
445,7584.0,-0.2,-0.6000000000000001,4.9,-0.8,1.7000000000000002,14.5,-11.6,-16.4,-27.6,16
446,7602.0,0.7000000000000001,-1.1,4.5,0.0,1.3,14.100000000000001,-4.1,-22.700000000000003,-27.2,16
447,7619.0,1.0,-1.2000000000000002,2.8000000000000003,0.30000000000000004,1.2000000000000002,12.600000000000001,-0.8,-18.4,-29.500000000000004,16
448,7638.0,0.30000000000000004,-1.0,1.5,-0.1,1.3,11.5,-2.9,-1.2000000000000002,-30.4,16
449,7652.0,0.1,-0.9,1.1,-0.6000000000000001,1.4000000000000001,10.700000000000001,-4.300000000000001,15.8,-27.2,16
450,7667.0,-0.1,-0.9,0.9,-0.7000000000000001,1.4000000000000001,10.5,-5.500000000000001,11.000000000000002,-22.000000000000004,16
451,7684.0,0.4,-1.0,1.0,-0.2,1.3,10.700000000000001,-3.4,-5.8,-19.300000000000004,16
452,7701.0,0.7000000000000001,-1.1,1.0,0.0,1.2000000000000002,10.600000000000001,2.4000000000000004,-28.200000000000003,-20.3,16
453,7717.0,0.9,-1.2000000000000002,0.7000000000000001,0.30000000000000004,1.1,10.4,9.2,-40.7,-20.1,16
454,7746.0,1.1,-1.4000000000000001,0.1,0.6000000000000001,0.9,9.4,18.1,-35.699999999999996,-18.8,16
455,7751.0,0.9,-1.4000000000000001,-0.30000000000000004,0.6000000000000001,0.9,9.4,18.1,-35.699999999999996,-18.8,16
456,7768.0,0.5,-1.3,-1.3,0.30000000000000004,1.1,8.5,17.0,-23.800000000000004,-15.899999999999999,16
457,7784.0,0.30000000000000004,-1.2000000000000002,-1.7000000000000002,-0.1,1.3,7.800000000000001,12.4,-10.9,-11.2,16
458,7801.0,0.0,-0.9,-2.2,-0.2,1.5,7.4,7.500000000000001,-1.1,-4.5,16
459,7817.0,0.2,-0.9,-2.4000000000000004,-0.1,1.7000000000000002,7.1000000000000005,4.5,2.1,0.2,16
460,7837.0,0.1,-0.6000000000000001,-2.6,-0.1,1.9000000000000001,6.9,3.4,1.5,1.2000000000000002,16
461,7854.0,0.2,-0.4,-3.0,0.0,2.1,6.6000000000000005,2.1,-3.5,0.30000000000000004,16
462,7870.0,0.30000000000000004,-0.30000000000000004,-2.8000000000000003,0.1,2.1,6.800000000000001,0.5,-8.3,-5.0,16
463,7884.0,0.30000000000000004,-0.30000000000000004,-2.3000000000000003,0.1,2.1,7.2,4.0,-6.1000000000000005,-10.200000000000001,16
464,7901.0,0.1,-0.5,-2.2,-0.1,2.0,7.300000000000001,9.5,0.8,-14.100000000000001,16
465,7917.0,-0.2,-0.4,-2.3000000000000003,-0.6000000000000001,2.1,7.2,12.600000000000001,7.200000000000001,-13.3,16
466,7937.0,-0.5,-0.30000000000000004,-2.2,-0.8,2.3000000000000003,7.2,10.5,7.6,-8.3,16
467,7951.0,-0.30000000000000004,-0.2,-1.6,-0.7000000000000001,2.4000000000000004,7.7,5.500000000000001,4.1,-2.4000000000000004,16
468,7967.0,-0.1,-0.2,-1.0,-0.4,2.3000000000000003,8.6,3.4,2.3,1.4,16
469,7984.0,-0.2,-0.1,0.2,-0.6000000000000001,2.5,9.600000000000001,8.5,8.899999999999999,4.2,16
470,8001.0,-0.6000000000000001,0.1,0.30000000000000004,-1.0,2.7,9.700000000000001,20.3,18.5,11.4,16
471,8019.0,-0.5,0.2,0.2,-0.8,2.9000000000000004,9.5,27.2,14.900000000000002,19.799999999999997,16
472,8037.0,-0.1,0.2,0.30000000000000004,-0.5,3.0,9.600000000000001,26.799999999999997,1.8000000000000003,23.2,16
473,8052.0,0.4,0.1,1.2000000000000002,0.0,3.0,10.4,21.400000000000002,-15.700000000000001,19.700000000000003,16
474,8067.0,0.6000000000000001,-0.1,1.7000000000000002,0.30000000000000004,2.7,11.200000000000001,17.1,-27.400000000000002,13.700000000000001,16
475,8084.0,0.4,-0.30000000000000004,2.4000000000000004,0.2,2.6,11.8,13.6,-27.5,8.2,16
476,8101.0,-0.4,-0.1,2.4000000000000004,-0.4,2.8000000000000003,11.8,12.5,-11.8,7.1000000000000005,16
477,8123.0,-0.4,-0.1,2.0,-0.5,3.0,11.3,-8.700000000000001,-0.4,13.700000000000001,16
478,8137.0,-0.30000000000000004,0.1,2.0,-0.5,3.0,11.3,-8.700000000000001,-0.4,13.700000000000001,16
479,8152.0,-0.2,-0.1,2.4000000000000004,-0.30000000000000004,2.9000000000000004,11.700000000000001,-20.0,-4.300000000000001,10.299999999999999,16
480,8169.0,0.0,-0.6000000000000001,2.6,-0.1,2.2,12.100000000000001,-23.900000000000006,-10.9,6.0,16
481,8184.0,0.1,-1.3,3.0,0.0,1.5,12.4,-18.900000000000002,-12.7,3.1,16
482,8204.0,-0.30000000000000004,-1.5,2.3000000000000003,-0.2,1.3,12.0,-4.2,-0.5,4.800000000000001,16
483,8219.0,-0.4,-1.6,1.7000000000000002,-0.5,1.2000000000000002,11.0,10.0,12.0,10.299999999999999,16
484,8237.0,-0.7000000000000001,-1.3,0.5,-0.7000000000000001,1.5,10.0,18.4,16.0,15.6,16
485,8252.0,-0.7000000000000001,-0.9,-0.5,-0.8,1.8,9.200000000000001,22.000000000000004,16.0,19.1,16
486,8268.0,-0.7000000000000001,-0.8,-0.9,-0.9,2.2,8.5,20.5,14.200000000000001,20.8,16
487,8284.0,-0.7000000000000001,-0.4,-1.3,-0.9,2.5,8.1,15.299999999999999,12.5,19.799999999999997,16
488,8301.0,-0.7000000000000001,-0.30000000000000004,-1.5,-0.8,2.7,7.800000000000001,7.0,9.4,18.900000000000002,16
489,8317.0,-0.2,-0.4,-1.9000000000000001,-0.30000000000000004,2.6,7.5,-8.5,3.5,18.4,16
490,8340.0,0.4,-0.7000000000000001,-1.3,0.2,2.2,8.0,-30.000000000000004,-0.6000000000000001,15.2,16
491,8355.0,0.9,-1.1,-0.1,0.6000000000000001,1.8,9.0,-45.7,1.3,8.899999999999999,16
492,8369.0,0.8,-1.3,0.4,0.6000000000000001,1.3,9.9,-47.0,9.5,0.5,16
493,8387.0,0.2,-1.4000000000000001,0.6000000000000001,0.1,1.1,10.100000000000001,-30.9,22.8,-4.6,16
494,8403.0,-0.5,-1.2000000000000002,-0.5,-0.7000000000000001,1.2000000000000002,9.4,-8.3,29.0,-3.7000000000000006,16
495,8419.0,-0.6000000000000001,-0.9,-1.2000000000000002,-0.9,1.6,8.200000000000001,8.899999999999999,21.900000000000002,2.2,16
496,8439.0,-0.4,-0.5,-2.1,-0.8,2.0,7.4,15.5,8.0,7.400000000000001,16
497,8457.0,0.2,-0.1,-2.4000000000000004,-0.4,2.3000000000000003,7.1000000000000005,16.4,-3.7000000000000006,9.899999999999999,16
498,8472.0,0.30000000000000004,0.0,-2.4000000000000004,0.0,2.6,7.0,14.200000000000001,-8.2,8.899999999999999,16
499,8488.0,0.4,0.0,-2.1,0.0,2.6,7.2,9.899999999999999,-5.6,6.0,16
500,8501.0,0.4,0.0,-2.0,0.0,2.6,7.5,5.9,0.8,3.9,16
501,8520.0,0.30000000000000004,0.0,-1.5,-0.1,2.7,7.800000000000001,4.1,5.4,2.7,16
502,8537.0,0.2,0.1,-1.0,-0.1,2.8000000000000003,8.3,5.9,6.2,1.1,16
503,8552.0,0.1,0.1,-0.8,-0.30000000000000004,2.9000000000000004,8.6,10.299999999999999,5.1000000000000005,-1.6,16
504,8567.0,-0.2,0.30000000000000004,-0.4,-0.6000000000000001,3.0,8.9,17.6,1.2000000000000002,-4.7,16
505,8584.0,-0.4,0.30000000000000004,-0.1,-0.8,3.1,9.1,23.3,-7.699999999999999,-7.6,16
506,8602.0,-0.4,0.30000000000000004,0.1,-0.7000000000000001,3.1,9.5,25.0,-20.599999999999998,-10.0,16
507,8622.0,0.0,0.2,1.1,-0.30000000000000004,3.2,10.3,22.4,-32.1,-13.399999999999999,16
508,8639.0,0.30000000000000004,-0.1,2.1,0.1,3.0,11.100000000000001,20.0,-35.4,-17.0,16
509,8656.0,0.30000000000000004,0.0,2.6,-0.2,3.2,12.200000000000001,16.6,-30.200000000000003,-21.400000000000002,16
510,8668.0,-0.1,0.1,2.9000000000000004,-0.2,3.2,12.200000000000001,12.7,-18.6,-23.3,16
511,8684.0,-0.1,0.0,2.7,-0.2,3.1,12.0,0.9000000000000001,-15.100000000000001,-20.8,16
512,8704.0,-0.1,0.0,2.8000000000000003,-0.1,3.0,12.200000000000001,-16.4,-11.000000000000002,-17.400000000000002,16
513,8720.0,0.1,-0.5,3.6,0.0,2.5,12.9,-29.1,2.6,-13.399999999999999,16
514,8738.0,0.2,-0.8,3.6,0.1,2.1,13.100000000000001,-32.1,17.9,-8.0,16
515,8752.0,0.1,-0.8,3.5,-0.1,2.0,12.9,-26.700000000000003,33.300000000000004,-2.6,16
516,8768.0,0.30000000000000004,-0.9,2.7,-0.1,1.8,12.3,-16.900000000000002,37.0,2.2,16
517,8784.0,0.4,-0.9,2.4000000000000004,0.0,1.9000000000000001,11.8,-5.1000000000000005,31.099999999999998,5.2,16
518,8801.0,0.5,-0.8,1.5,0.1,2.0,10.9,9.0,20.400000000000002,6.8,16
519,8823.0,0.8,-0.8,0.1,0.30000000000000004,2.0,9.8,20.900000000000002,7.1000000000000005,6.1000000000000005,16
520,8843.0,1.0,-0.6000000000000001,-1.0,0.5,2.2,8.8,26.6,-6.1000000000000005,2.0,16
521,8863.0,0.9,-0.5,-1.5,0.5,2.4000000000000004,7.7,18.3,-14.100000000000001,-9.0,16
522,8869.0,0.8,-0.5,-1.8,0.5,2.4000000000000004,7.7,18.3,-14.100000000000001,-9.0,16
523,8884.0,0.5,-0.4,-2.1,0.2,2.5,7.2,11.700000000000001,-8.3,-12.9,16
524,8901.0,0.30000000000000004,-0.5,-2.6,0.0,2.5,6.7,1.3,-3.2,-13.3,16
525,8923.0,0.5,-0.4,-2.4000000000000004,0.2,2.5,6.9,-13.700000000000001,-1.9,-12.0,16
526,8938.0,0.5,-0.4,-1.5,0.2,2.4000000000000004,8.3,-28.3,-1.1,-11.3,16
527,8957.0,0.5,-0.4,-1.1,0.2,2.4000000000000004,8.3,-28.3,-1.1,-11.3,16
528,8969.0,0.6000000000000001,-0.30000000000000004,-0.8,0.2,2.4000000000000004,8.6,-19.9,-0.1,-11.000000000000002,16
529,8984.0,0.5,-0.2,-0.9,0.2,2.5,8.5,-5.7,-1.4,-11.6,16
530,9001.0,0.4,-0.30000000000000004,-1.4000000000000001,0.1,2.4000000000000004,8.1,8.600000000000001,-9.100000000000001,-12.7,16
531,9018.0,0.1,-0.1,-1.9000000000000001,-0.1,2.6,7.6000000000000005,17.400000000000002,-20.0,-14.200000000000001,16
532,9035.0,0.0,-0.1,-2.1,-0.2,2.8000000000000003,7.2,22.3,-29.300000000000004,-14.700000000000001,16
533,9051.0,0.0,-0.1,-2.3000000000000003,-0.1,2.8000000000000003,7.0,21.7,-34.2,-14.400000000000002,16
534,9068.0,0.0,-0.1,-2.4000000000000004,-0.1,2.8000000000000003,6.800000000000001,17.300000000000004,-29.600000000000005,-12.7,16
535,9084.0,-0.2,0.0,-2.4000000000000004,-0.2,2.9000000000000004,6.9,9.2,-18.900000000000002,-8.8,16
536,9100.0,-0.2,0.0,-1.8,-0.2,3.0,7.4,0.6000000000000001,-8.899999999999999,-2.7,16
537,9117.0,-0.1,-0.1,-1.4000000000000001,0.0,3.0,8.0,-2.7,-3.0,3.6000000000000005,16
538,9136.0,-0.1,0.4,-0.8,-0.1,3.3000000000000003,8.5,-3.2,-1.4,9.0,16
539,9151.0,-0.1,0.6000000000000001,-0.30000000000000004,0.0,3.6,8.9,-3.4,-3.9,12.9,16
540,9168.0,0.0,0.6000000000000001,0.2,0.2,3.5,9.8,-2.6,-8.700000000000001,14.300000000000002,16
541,9184.0,0.2,0.30000000000000004,1.5,0.4,3.2,10.8,1.2000000000000002,-14.0,13.6,16
542,9201.0,0.5,0.1,1.9000000000000001,0.7000000000000001,3.1,11.100000000000001,6.8,-20.5,12.5,16
543,9217.0,0.5,0.1,1.9000000000000001,0.8,3.1,11.200000000000001,4.1,-25.200000000000003,10.600000000000001,16
544,9236.0,0.30000000000000004,0.1,2.5,0.6000000000000001,3.1,11.8,-3.6000000000000005,-18.200000000000003,8.5,16
545,9253.0,-0.1,-0.2,3.5,0.30000000000000004,2.8000000000000003,12.600000000000001,-6.1000000000000005,4.5,10.200000000000001,16
546,9267.0,-0.2,-0.1,3.8000000000000003,0.1,2.9000000000000004,13.200000000000001,-1.6,23.6,15.899999999999999,16
547,9284.0,-0.30000000000000004,0.2,3.7,0.0,3.2,13.100000000000001,5.6,27.6,19.9,16
548,9301.0,0.0,0.2,3.3000000000000003,0.1,3.2,12.700000000000001,11.3,19.0,18.6,16
549,9317.0,0.1,0.2,2.9000000000000004,0.30000000000000004,3.1,12.200000000000001,13.900000000000002,1.5,13.3,16
550,9335.0,0.30000000000000004,-0.2,2.3000000000000003,0.6000000000000001,2.9000000000000004,11.700000000000001,11.3,-17.0,6.1000000000000005,16
551,9351.0,0.2,-0.5,1.5,0.6000000000000001,2.6,11.100000000000001,7.300000000000001,-20.599999999999998,0.2,16
552,9367.0,0.1,-0.7000000000000001,1.0,0.4,2.4000000000000004,10.200000000000001,3.7000000000000006,-9.0,-1.4,16
553,9387.0,-0.2,-0.9,-0.5,0.1,2.2,9.0,-1.3,6.2,2.1,16
554,9402.0,-0.2,-0.8,-1.4000000000000001,0.0,2.2,8.200000000000001,-9.100000000000001,20.2,6.0,16
555,9419.0,-0.30000000000000004,-0.7000000000000001,-1.7000000000000002,-0.1,2.4000000000000004,7.6000000000000005,-15.6,30.599999999999998,8.100000000000001,16
556,9440.0,-0.5,-0.4,-1.8,-0.4,2.5,7.6000000000000005,-20.3,34.300000000000004,8.5,16
557,9453.0,-0.7000000000000001,-0.1,-1.5,-0.6000000000000001,2.7,7.800000000000001,-19.300000000000004,27.9,8.0,16
558,9469.0,-0.6000000000000001,-0.1,-1.5,-0.6000000000000001,2.8000000000000003,7.800000000000001,-14.900000000000002,13.200000000000003,7.1000000000000005,16
559,9485.0,-0.2,-0.1,-1.8,-0.30000000000000004,2.8000000000000003,7.6000000000000005,-12.9,-5.7,3.7000000000000006,16
560,9504.0,0.1,-0.30000000000000004,-1.8,0.1,2.5,7.5,-15.8,-20.599999999999998,-2.2,16
561,9523.0,0.1,-0.6000000000000001,-1.3,0.30000000000000004,2.0,8.700000000000001,-26.9,-25.6,-7.200000000000001,16
562,9555.0,0.1,-0.7000000000000001,-0.2,0.30000000000000004,1.8,9.200000000000001,-22.8,-16.0,-4.2,16
563,9569.0,0.0,-0.6000000000000001,-0.2,0.30000000000000004,1.9000000000000001,9.200000000000001,-11.6,-3.6000000000000005,1.3,16
564,9584.0,0.0,-0.30000000000000004,-0.8,0.30000000000000004,2.2,8.700000000000001,1.5,2.4000000000000004,6.699999999999999,16
565,9601.0,0.1,-0.1,-1.2000000000000002,0.4,2.5,8.1,10.5,0.8,7.8,16
566,9617.0,0.2,0.2,-1.8,0.5,2.8000000000000003,7.6000000000000005,14.5,-5.0,5.300000000000001,16
567,9641.0,0.0,0.4,-2.0,0.4,3.0,7.4,15.100000000000001,-9.2,0.1,16
568,9662.0,-0.2,0.5,-2.1,0.2,3.2,7.300000000000001,14.900000000000002,-8.899999999999999,-4.5,16
569,9668.0,-0.2,0.5,-2.1,0.1,3.2,7.2,12.200000000000001,-5.2,-7.0,16
570,9684.0,-0.30000000000000004,0.5,-1.7000000000000002,0.1,3.2,7.5,5.500000000000001,0.7,-8.600000000000001,16
571,9701.0,-0.30000000000000004,0.5,-1.1,0.0,3.2,8.4,0.5,7.0,-10.0,16
572,9717.0,-0.30000000000000004,0.4,0.1,-0.1,3.2,9.4,2.5,10.5,-10.600000000000001,16
573,9735.0,-0.2,0.4,0.9,0.0,3.2,10.100000000000001,10.700000000000001,6.9,-11.700000000000001,16
574,9751.0,-0.1,0.4,1.1,0.1,3.3000000000000003,10.4,17.9,0.8,-13.200000000000003,16
575,9774.0,0.30000000000000004,0.30000000000000004,1.3,0.6000000000000001,3.2,10.9,11.6,-14.700000000000001,-20.599999999999998,16
576,9784.0,0.4,0.2,1.8,0.6000000000000001,3.2,10.9,11.6,-14.700000000000001,-20.599999999999998,16
577,9801.0,0.4,0.0,2.4000000000000004,0.6000000000000001,2.9000000000000004,11.8,8.4,-13.6,-25.7,16
578,9817.0,0.0,0.0,3.0,0.30000000000000004,2.9000000000000004,12.3,11.5,-1.4,-26.5,16
579,9836.0,-0.1,0.0,2.7,0.1,3.0,12.100000000000001,14.900000000000002,8.2,-23.2,16
580,9853.0,0.0,-0.1,2.4000000000000004,0.2,3.0,11.700000000000001,11.3,5.2,-21.400000000000002,16
581,9867.0,0.1,0.0,2.4000000000000004,0.30000000000000004,3.0,11.8,3.1,-2.3,-22.1,16
582,9886.0,0.1,-0.30000000000000004,2.6,0.2,2.9000000000000004,11.9,-0.1,-2.4000000000000004,-23.400000000000002,16
583,9901.0,0.0,-0.4,2.4000000000000004,0.1,2.6,11.700000000000001,0.30000000000000004,1.2000000000000002,-22.5,16
584,9918.0,-0.1,-0.5,1.9000000000000001,0.0,2.6,11.3,0.2,5.0,-19.700000000000003,16
585,9942.0,0.0,-0.4,1.4000000000000001,0.0,2.6,10.9,-0.7,7.300000000000001,-17.200000000000003,16
586,9960.0,0.1,-0.30000000000000004,0.8,0.2,2.8000000000000003,10.0,-0.4,5.0,-12.8,16
587,9968.0,0.2,-0.30000000000000004,0.5,0.2,2.8000000000000003,10.0,-0.4,5.0,-12.8,16
588,9984.0,0.5,-0.30000000000000004,0.2,0.5,2.8000000000000003,9.4,-1.1,-0.7,-13.000000000000002,16
589,10001.0,0.7000000000000001,-0.2,-0.5,0.7000000000000001,2.9000000000000004,8.8,-3.8,-5.300000000000001,-15.6,16
590,10019.0,0.7000000000000001,-0.1,-1.3,0.7000000000000001,2.9000000000000004,8.200000000000001,-10.5,-6.8,-18.200000000000003,16
591,10044.0,0.8,-0.4,-1.4000000000000001,0.8,2.7,8.0,-19.799999999999997,-3.5,-20.8,16
592,10054.0,0.8,-0.6000000000000001,-1.3,0.8,2.3000000000000003,8.1,-27.3,2.8,-23.700000000000003,16
593,10068.0,0.30000000000000004,-0.9,-1.5,0.30000000000000004,2.0,8.0,-31.0,7.1000000000000005,-26.799999999999997,16
594,10084.0,0.0,-0.9,-1.5,-0.2,1.8,7.9,-32.2,9.3,-26.400000000000006,16
595,10101.0,-0.5,-0.9,-1.5,-0.6000000000000001,1.7000000000000002,7.9,-30.000000000000004,7.9,-20.2,16
596,10121.0,-0.2,-0.7000000000000001,-1.3,-0.4,1.7000000000000002,8.1,-23.099999999999998,4.0,-10.200000000000001,16
597,10139.0,0.1,-0.30000000000000004,-1.6,-0.1,2.3000000000000003,7.6000000000000005,-0.8,1.3,2.1,16
598,10159.0,0.1,0.0,-1.9000000000000001,0.0,2.5,7.7,7.300000000000001,2.3,4.4,16
599,10169.0,0.2,0.0,-1.7000000000000002,0.0,2.5,7.7,7.300000000000001,2.3,4.4,16
600,10186.0,0.2,0.0,-1.6,0.0,2.6,7.800000000000001,15.299999999999999,4.1,4.7,16
601,10201.0,0.0,0.30000000000000004,-1.7000000000000002,-0.2,2.9000000000000004,7.7,22.000000000000004,3.6000000000000005,4.5,16
602,10218.0,-0.30000000000000004,0.7000000000000001,-2.0,-0.4,3.3000000000000003,7.4,24.900000000000002,0.7,4.5,16
603,10240.0,0.0,0.9,-1.9000000000000001,0.0,3.6,7.6000000000000005,18.6,-9.600000000000001,5.6,16
604,10252.0,0.2,0.8,-1.6,0.0,3.6,7.6000000000000005,18.6,-9.600000000000001,5.6,16
605,10268.0,0.4,0.6000000000000001,-0.7000000000000001,0.2,3.5,8.4,15.5,-10.1,4.300000000000001,16
606,10284.0,0.30000000000000004,0.5,-0.2,0.2,3.4000000000000004,9.1,18.6,-5.0,2.4000000000000004,16
607,10300.0,-0.2,0.6000000000000001,-0.2,-0.30000000000000004,3.5,9.1,25.900000000000002,0.8,3.6000000000000005,16
608,10320.0,-0.4,0.6000000000000001,-0.30000000000000004,-0.5,3.6,8.9,26.5,-1.9,8.100000000000001,16
609,10337.0,-0.1,0.6000000000000001,0.0,-0.1,3.6,9.200000000000001,20.2,-10.1,11.700000000000001,16
610,10352.0,0.2,0.4,1.1,0.2,3.5,10.200000000000001,10.8,-20.0,10.299999999999999,16
611,10370.0,0.30000000000000004,0.1,2.2,0.4,3.3000000000000003,11.200000000000001,4.800000000000001,-21.1,7.300000000000001,16
612,10384.0,0.0,0.1,2.3000000000000003,0.1,3.3000000000000003,11.600000000000001,3.8,-8.2,6.4,16
613,10401.0,-0.5,0.4,2.1,-0.4,3.5,11.3,2.6,10.600000000000001,11.2,16
614,10417.0,-0.2,0.30000000000000004,2.1,-0.1,3.5,11.4,-5.1000000000000005,14.0,17.6,16
615,10437.0,0.2,0.4,2.6,0.30000000000000004,3.5,11.9,-16.1,5.0,16.700000000000003,16
616,10455.0,0.5,-0.1,3.6,0.6000000000000001,3.0,12.8,-24.8,-9.899999999999999,10.4,16
617,10468.0,0.5,-0.5,4.0,0.6000000000000001,2.3000000000000003,13.4,-26.6,-19.700000000000003,6.1000000000000005,16
618,10484.0,0.4,-1.1,4.1000000000000005,0.6000000000000001,1.8,13.5,-17.400000000000002,-13.8,6.8,16
619,10501.0,0.9,-1.6,2.3000000000000003,1.0,1.4000000000000001,12.100000000000001,-3.2,-1.6,10.8,16
620,10519.0,1.0,-1.7000000000000002,1.4000000000000001,1.2000000000000002,1.3,10.600000000000001,-1.2000000000000002,4.300000000000001,11.4,16
621,10536.0,0.7000000000000001,-1.3,0.2,0.9,1.6,9.700000000000001,-1.9,17.400000000000002,9.100000000000001,16
622,10551.0,0.2,-1.0,-1.1,0.4,1.9000000000000001,8.6,1.9,27.9,6.2,16
623,10567.0,0.0,-0.9,-1.5,0.0,2.0,7.9,3.3000000000000007,27.2,3.0,16
624,10584.0,-0.2,-0.6000000000000001,-1.7000000000000002,-0.2,2.3000000000000003,7.800000000000001,0.2,15.5,-0.5,16
625,10604.0,-0.1,-0.6000000000000001,-1.3,-0.1,2.3000000000000003,8.0,-8.0,-2.5,-4.5,16
626,10618.0,0.0,-0.8,-1.1,0.1,1.9000000000000001,8.5,-16.700000000000003,-12.4,-8.700000000000001,16
627,10654.0,-0.30000000000000004,-1.1,-0.8,-0.1,1.5,8.8,-13.5,-4.800000000000001,-12.4,16
628,10668.0,-0.4,-0.9,-1.4000000000000001,-0.4,1.8,7.9,-2.2,0.5,-8.700000000000001,16
629,10691.0,-0.4,-0.6000000000000001,-2.6,-0.30000000000000004,2.1,6.9,6.300000000000001,-0.9000000000000001,-5.8,16
630,10702.0,-0.1,-0.4,-3.1,0.1,2.3000000000000003,6.2,8.4,-10.8,-5.8,16
631,10719.0,0.2,-0.30000000000000004,-3.3000000000000003,0.30000000000000004,2.5,6.1000000000000005,5.1000000000000005,-20.0,-9.700000000000001,16
632,10742.0,-0.30000000000000004,0.4,-3.0,0.0,3.0,6.300000000000001,-1.6,-20.1,-12.600000000000001,16
633,10756.0,-0.4,1.0,-2.5,-0.2,3.6,6.7,-1.6,-20.1,-12.600000000000001,16
634,10767.0,-0.2,1.3,-2.3000000000000003,0.1,4.0,7.1000000000000005,-5.2,-22.6,-11.900000000000002,16
635,10784.0,0.7000000000000001,1.1,-1.9000000000000001,0.9,3.8000000000000003,7.4,-12.200000000000001,-31.5,-15.700000000000001,16
636,10801.0,0.9,1.0,-1.1,1.4000000000000001,3.6,8.8,-24.0,-41.7,-26.300000000000004,16
637,10817.0,1.1,0.7000000000000001,1.3,1.5,3.3000000000000003,10.700000000000001,-24.3,-38.60000000000001,-39.300000000000004,16
638,10841.0,-0.30000000000000004,1.0,1.8,0.5,3.6,11.200000000000001,-8.100000000000001,-21.1,-51.4,16
639,10858.0,-1.4000000000000001,0.9,0.9,-0.6000000000000001,3.6,10.600000000000001,7.300000000000001,-5.6,-54.6,16
640,10870.0,-1.4000000000000001,0.7000000000000001,0.6000000000000001,-1.0,3.4000000000000004,10.0,10.299999999999999,-3.3000000000000007,-50.1,16
641,10887.0,-1.3,0.8,1.4000000000000001,-0.9,3.5,10.600000000000001,5.1000000000000005,-4.800000000000001,-46.199999999999996,16
642,10905.0,-1.0,0.2,2.3000000000000003,-0.7000000000000001,3.1,11.4,5.7,-6.500000000000001,-44.2,16
643,10917.0,-0.8,0.0,2.6,-0.4,2.7,11.9,10.200000000000001,-9.8,-43.00000000000001,16
644,10939.0,-0.9,0.1,2.7,-0.5,2.8000000000000003,12.100000000000001,15.399999999999999,-9.700000000000001,-40.4,16
645,10952.0,-0.7000000000000001,0.2,2.3000000000000003,-0.2,3.0,11.600000000000001,18.700000000000003,-7.699999999999999,-35.0,16
646,10969.0,-0.2,0.0,1.4000000000000001,0.2,2.9000000000000004,10.8,14.300000000000002,-7.8,-31.6,16
647,10985.0,0.1,0.2,1.0,0.4,3.1,10.4,0.7,-5.6,-30.699999999999996,16
648,11001.0,0.2,-0.1,1.0,0.5,2.7,10.5,-14.200000000000001,3.5,-30.3,16
649,11017.0,-0.2,-0.30000000000000004,1.3,0.1,2.5,10.700000000000001,-24.200000000000003,17.7,-26.6,16
650,11038.0,-0.4,-0.2,1.4000000000000001,-0.30000000000000004,2.6,10.8,-28.3,27.400000000000002,-16.700000000000003,16
651,11051.0,-0.1,-0.5,1.7000000000000002,0.1,2.0,11.200000000000001,-30.4,20.900000000000002,-7.699999999999999,16
652,11069.0,0.30000000000000004,-1.2000000000000002,2.4000000000000004,0.4,1.4000000000000001,11.9,-23.700000000000003,-0.1,-3.9,16
653,11084.0,0.30000000000000004,-1.0,2.4000000000000004,0.4,1.6,11.700000000000001,-4.5,-19.799999999999997,-3.1,16
654,11101.0,0.30000000000000004,-0.8,1.0,0.5,1.8,10.4,15.000000000000002,-29.1,-3.1,16
655,11117.0,0.4,-0.7000000000000001,-0.9,0.7000000000000001,1.9000000000000001,8.8,20.400000000000002,-27.800000000000004,-1.6,16
656,11144.0,0.6000000000000001,-0.5,-1.5,1.0,2.2,7.800000000000001,11.3,-18.0,0.0,16
657,11151.0,0.6000000000000001,-0.5,-1.5,1.0,2.2,7.800000000000001,11.3,-18.0,0.0,16
658,11168.0,0.7000000000000001,-0.1,-2.4000000000000004,1.1,2.5,7.1000000000000005,-23.099999999999998,13.000000000000002,-5.7,16
659,11184.0,0.4,-0.1,-2.1,0.6000000000000001,2.4000000000000004,7.6000000000000005,-36.0,23.5,-9.700000000000001,16
660,11201.0,0.0,-0.1,-1.3,0.2,2.2,8.200000000000001,-40.1,26.9,-11.000000000000002,16
661,11220.0,-0.2,-0.2,-0.8,0.0,2.1,8.700000000000001,-35.5,22.700000000000003,-10.200000000000001,16
662,11243.0,-0.2,-0.2,-0.5,-0.1,2.0,9.0,-24.599999999999998,14.300000000000002,-8.0,16
663,11251.0,-0.30000000000000004,-0.2,-0.6000000000000001,-0.2,1.9000000000000001,9.0,-9.0,6.4,-4.5,16
664,11269.0,-0.6000000000000001,-0.1,-1.2000000000000002,-0.5,2.0,8.5,6.8,1.2000000000000002,0.4,16
665,11284.0,-0.7000000000000001,0.0,-1.7000000000000002,-0.6000000000000001,2.3000000000000003,7.6000000000000005,17.0,-2.6,8.4,16
666,11301.0,-0.6000000000000001,0.30000000000000004,-2.6,-0.5,2.6,6.9,19.300000000000004,-4.800000000000001,18.4,16
667,11318.0,-0.30000000000000004,0.8,-2.8000000000000003,-0.30000000000000004,3.1,6.7,16.0,-7.1000000000000005,28.900000000000002,16
668,11342.0,0.2,0.6000000000000001,-2.2,0.6000000000000001,2.8000000000000003,7.7,1.9,-10.700000000000001,42.0,16
669,11352.0,0.4,0.4,-1.8,0.6000000000000001,2.8000000000000003,7.7,1.9,-10.700000000000001,42.0,16
670,11367.0,0.4,0.4,-1.5,0.6000000000000001,2.9000000000000004,8.3,-1.1,-10.299999999999999,50.2,16
671,11384.0,0.30000000000000004,0.9,-0.2,0.7000000000000001,3.3000000000000003,9.3,2.8,-9.5,61.599999999999994,16
672,11401.0,0.6000000000000001,1.2000000000000002,0.1,1.0,3.6,9.5,15.6,-11.900000000000002,69.4,16
673,11417.0,1.0,1.3,0.1,1.5,3.7,9.5,25.200000000000003,-18.5,68.2,16
674,11439.0,1.2000000000000002,1.2000000000000002,0.30000000000000004,2.0,3.6,10.3,16.6,-46.199999999999996,45.3,16
675,11461.0,1.1,0.8,1.8,1.9000000000000001,3.3000000000000003,11.5,9.2,-48.6,30.1,16
676,11470.0,0.8,0.6000000000000001,2.4000000000000004,1.9000000000000001,3.3000000000000003,11.5,9.2,-48.6,30.1,16
677,11484.0,0.6000000000000001,0.4,2.8000000000000003,1.6,2.9000000000000004,12.200000000000001,7.0,-38.0,20.0,16
678,11500.0,-0.1,0.1,3.0,1.1,2.8000000000000003,12.4,9.600000000000001,-11.5,16.4,16
679,11517.0,-0.1,0.1,2.6,1.2000000000000002,2.6,11.700000000000001,14.400000000000002,19.5,18.900000000000002,16
680,11536.0,0.30000000000000004,-0.1,1.7000000000000002,1.3,2.7,11.0,13.399999999999999,32.400000000000006,16.700000000000003,16
681,11551.0,-0.30000000000000004,0.4,1.2000000000000002,0.7000000000000001,3.1,10.600000000000001,9.100000000000001,34.50000000000001,10.9,16
682,11569.0,-0.6000000000000001,0.30000000000000004,1.6,0.30000000000000004,3.1,10.8,5.500000000000001,27.2,5.8,16
683,11584.0,-0.7000000000000001,0.1,1.7000000000000002,0.1,2.9000000000000004,11.200000000000001,8.2,15.2,3.8,16
684,11600.0,-0.9,-0.1,1.8,0.0,2.7,11.200000000000001,16.8,4.4,4.800000000000001,16
685,11620.0,-0.5,-0.6000000000000001,1.0,0.2,2.3000000000000003,10.600000000000001,22.6,-4.800000000000001,7.9,16
686,11637.0,-0.5,-0.8,0.6000000000000001,0.4,2.1,10.0,17.9,-7.400000000000001,9.600000000000001,16
687,11651.0,-0.30000000000000004,-1.2000000000000002,1.0,0.6000000000000001,1.8,10.3,7.200000000000001,-0.6000000000000001,9.2,16
688,11669.0,-0.4,-1.4000000000000001,1.7000000000000002,0.5,1.6,11.0,4.1,9.2,8.899999999999999,16
689,11691.0,0.0,-1.3,1.1,0.9,1.7000000000000002,10.100000000000001,17.1,15.399999999999999,12.5,16
690,11703.0,0.2,-1.2000000000000002,0.6000000000000001,0.9,1.7000000000000002,10.100000000000001,17.1,15.399999999999999,12.5,16
691,11718.0,0.2,-1.2000000000000002,0.2,0.9,1.8,9.4,19.200000000000003,12.8,8.100000000000001,16
692,11735.0,-0.2,-1.2000000000000002,-0.7000000000000001,0.6000000000000001,1.9000000000000001,8.700000000000001,17.7,12.200000000000001,4.6,16
693,11753.0,-0.30000000000000004,-1.1,-1.3,0.4,2.0,8.1,12.200000000000001,14.600000000000001,5.2,16
694,11770.0,-0.30000000000000004,-1.1,-1.5,0.5,2.0,7.800000000000001,4.4,18.3,8.0,16
695,11784.0,0.0,-1.0,-1.7000000000000002,0.6000000000000001,2.1,7.7,-2.0,22.700000000000003,10.8,16
696,11801.0,0.0,-0.9,-2.0,0.6000000000000001,2.2,7.4,-4.4,26.300000000000004,12.0,16
697,11817.0,-0.1,-0.9,-2.2,0.4,2.1,7.1000000000000005,-4.7,28.1,12.7,16
698,11835.0,-0.30000000000000004,-1.1,-2.1,0.1,1.9000000000000001,7.2,-2.8,27.3,14.400000000000002,16
699,11851.0,-0.6000000000000001,-1.1,-1.8,-0.2,1.9000000000000001,7.4,5.8,24.3,18.8,16
700,11868.0,-0.8,-1.0,-1.8,-0.4,2.1,7.4,19.799999999999997,21.500000000000004,26.5,16
701,11884.0,-0.30000000000000004,-0.8,-2.6,0.0,2.3000000000000003,6.7,31.099999999999998,10.299999999999999,35.3,16
702,11900.0,0.0,-0.9,-3.0,0.5,2.3000000000000003,6.300000000000001,26.300000000000004,-6.1000000000000005,36.2,16
703,11922.0,0.2,-0.5,-1.6,0.8,2.8000000000000003,8.1,13.000000000000002,-17.300000000000004,31.2,16
704,11942.0,0.30000000000000004,-0.5,-1.0,0.8,2.8000000000000003,8.1,16.200000000000003,-19.700000000000003,31.9,16
705,11958.0,0.7000000000000001,-0.30000000000000004,-0.30000000000000004,1.2000000000000002,2.9000000000000004,8.6,16.200000000000003,-19.700000000000003,31.9,16
706,11967.0,0.9,-0.1,0.2,1.7000000000000002,3.3000000000000003,9.4,16.700000000000003,-24.5,29.800000000000004,16
707,11987.0,1.2000000000000002,0.5,0.6000000000000001,1.9000000000000001,3.8000000000000003,9.700000000000001,17.1,-24.8,23.400000000000002,16
708,12004.0,1.1,0.8,0.4,2.1,4.1000000000000005,9.5,14.300000000000002,-19.300000000000004,13.5,16
709,12021.0,0.9,0.7000000000000001,0.5,1.8,4.2,9.600000000000001,5.300000000000001,-11.1,2.4000000000000004,16
710,12037.0,0.4,0.7000000000000001,1.3,1.4000000000000001,4.2,10.200000000000001,-6.2,-5.300000000000001,-3.9,16
711,12051.0,0.2,0.8,1.8,1.2000000000000002,4.3,11.0,-14.900000000000002,-6.0,-6.600000000000001,16
712,12067.0,0.4,0.8,2.5,1.4000000000000001,4.2,11.600000000000001,-20.3,-13.200000000000003,-8.8,16
713,12084.0,0.7000000000000001,0.30000000000000004,3.4000000000000004,1.7000000000000002,3.7,12.5,-25.8,-26.400000000000006,-12.8,16
714,12101.0,0.8,0.2,3.8000000000000003,1.9000000000000001,3.3000000000000003,13.100000000000001,-27.099999999999998,-34.7,-15.899999999999999,16
715,12117.0,1.1,-0.4,4.3,2.3000000000000003,2.7,13.600000000000001,-20.1,-28.0,-16.4,16
716,12147.0,0.6000000000000001,-0.5,3.7,1.9000000000000001,2.6,13.100000000000001,15.399999999999999,7.9,-10.700000000000001,16
717,12151.0,0.30000000000000004,-0.2,2.7,1.5,3.0,11.5,15.399999999999999,7.9,-10.700000000000001,16
718,12167.0,0.4,-0.2,0.8,1.5,3.1,10.0,16.900000000000002,6.4,-7.8,16
719,12184.0,0.6000000000000001,0.0,0.6000000000000001,1.7000000000000002,3.2,9.8,6.300000000000001,-5.1000000000000005,-8.3,16
720,12201.0,0.8,-0.1,0.8,2.0,3.1,10.100000000000001,-1.0,-15.6,-11.1,16
721,12217.0,0.7000000000000001,-0.4,0.8,2.0,2.8000000000000003,10.0,-1.3,-18.0,-13.8,16
722,12241.0,0.4,-0.6000000000000001,-0.2,1.8,2.7,9.200000000000001,-0.7,-12.5,-14.100000000000001,16
723,12251.0,0.30000000000000004,-0.6000000000000001,-0.9,1.5,2.7,8.3,-5.300000000000001,-2.7,-11.8,16
724,12267.0,0.2,-0.6000000000000001,-1.6,1.5,2.6,7.7,-16.700000000000003,9.0,-8.2,16
725,12284.0,-0.1,-0.6000000000000001,-1.7000000000000002,1.2000000000000002,2.5,7.6000000000000005,-25.4,22.4,-5.6,16
726,12301.0,-0.30000000000000004,-0.7000000000000001,-1.6,0.8,2.4000000000000004,7.7,-26.9,33.0,-2.6,16
727,12317.0,-0.6000000000000001,-0.6000000000000001,-1.7000000000000002,0.4,2.4000000000000004,7.6000000000000005,-19.300000000000004,37.7,3.0,16
728,12337.0,-0.2,-0.30000000000000004,-2.2,0.5,2.6,7.2,-9.2,32.5,9.5,16
729,12351.0,0.1,-0.2,-2.5,0.9,2.8000000000000003,6.7,-0.4,20.599999999999998,12.5,16
730,12367.0,0.1,0.1,-3.1,1.0,3.1,6.300000000000001,5.8,9.700000000000001,9.700000000000001,16
731,12384.0,0.0,0.2,-3.3000000000000003,0.7000000000000001,3.2,5.9,9.100000000000001,5.1000000000000005,5.8,16
732,12400.0,-0.4,0.30000000000000004,-3.6,0.4,3.3000000000000003,5.7,7.200000000000001,5.2,4.4,16
733,12418.0,-0.5,0.4,-3.4000000000000004,0.30000000000000004,3.4000000000000004,5.7,-1.0,5.6,4.9,16
734,12438.0,-0.4,0.2,-2.2,0.30000000000000004,3.3000000000000003,6.6000000000000005,-11.700000000000001,4.300000000000001,5.500000000000001,16
735,12454.0,-0.30000000000000004,0.2,-1.3,0.5,3.1,8.0,-17.9,2.2,5.2,16
736,12470.0,-0.2,0.1,-0.30000000000000004,0.6000000000000001,3.0,8.9,-13.8,0.9000000000000001,3.9,16
737,12485.0,-0.2,0.0,0.0,0.6000000000000001,2.9000000000000004,9.3,-3.8,3.0,2.4000000000000004,16
738,12501.0,-0.30000000000000004,-0.2,0.30000000000000004,0.4,2.7,9.5,8.0,8.2,1.3,16
739,12517.0,-1.2000000000000002,-0.4,0.8,-0.4,2.6,9.9,22.1,15.299999999999999,3.3000000000000007,16
740,12538.0,-1.5,-0.5,1.3,-0.9,2.6,10.4,38.0,12.299999999999999,13.5,16
741,12552.0,-1.2000000000000002,-0.30000000000000004,1.4000000000000001,-0.5,2.9000000000000004,10.600000000000001,47.400000000000006,-7.9,26.1,16
742,12568.0,-0.30000000000000004,0.4,1.5,0.4,3.6,10.600000000000001,44.5,-25.900000000000002,30.3,16
743,12584.0,0.0,0.7000000000000001,1.7000000000000002,0.9,4.1000000000000005,10.9,32.1,-32.300000000000004,27.400000000000002,16
744,12600.0,0.2,0.9,2.2,1.2000000000000002,4.3,11.3,15.8,-23.5,24.200000000000003,16
745,12618.0,0.5,0.9,2.5,1.5,4.3,11.5,-1.9,-2.5,22.1,16
746,12638.0,0.6000000000000001,1.0,3.2,1.7000000000000002,4.2,13.0,-33.2,42.1,22.4,16
747,12652.0,0.7000000000000001,0.9,3.8000000000000003,1.7000000000000002,4.2,13.0,-33.2,42.1,22.4,16
748,12668.0,0.9,0.30000000000000004,4.5,1.7000000000000002,3.7,13.700000000000001,-33.9,47.2,20.0,16
749,12684.0,0.8,0.1,4.6000000000000005,1.4000000000000001,3.2,13.9,-23.6,44.9,15.8,16
750,12701.0,0.2,-0.2,3.8000000000000003,0.9,3.0,13.3,-2.5,42.0,14.400000000000002,16
751,12717.0,0.1,-0.4,2.8000000000000003,0.6000000000000001,2.6,11.600000000000001,17.5,34.50000000000001,16.5,16
752,12745.0,-0.2,-0.6000000000000001,-0.1,0.1,2.8000000000000003,8.6,31.2,17.9,17.5,16
753,12751.0,-0.30000000000000004,-0.5,-0.8,0.1,2.8000000000000003,8.6,31.2,17.9,17.5,16
754,12769.0,-0.5,-0.4,-1.8,0.0,2.9000000000000004,7.7,27.6,10.200000000000001,17.1,16
755,12784.0,-0.6000000000000001,-0.30000000000000004,-2.0,-0.1,3.1,7.2,20.3,1.1,15.8,16
756,12801.0,-0.5,-0.30000000000000004,-2.2,0.0,3.2,7.0,9.0,-10.0,14.300000000000002,16
757,12817.0,-0.4,-0.30000000000000004,-2.1,0.1,3.0,7.2,-4.1,-19.700000000000003,12.600000000000001,16
758,12835.0,-0.1,-0.7000000000000001,-1.8,0.5,2.7,7.4,-16.1,-24.599999999999998,12.600000000000001,16
759,12851.0,0.4,-1.1,-1.3,1.0,2.3000000000000003,7.9,-25.1,-22.8,11.700000000000001,16
760,12868.0,0.4,-1.2000000000000002,-1.0,1.1,1.9000000000000001,8.3,-28.0,-14.100000000000001,10.600000000000001,16
761,12884.0,0.1,-1.4000000000000001,-0.7000000000000001,0.9,1.8,8.6,-23.400000000000002,0.1,12.200000000000001,16
762,12901.0,-0.1,-1.2000000000000002,-1.2000000000000002,0.7000000000000001,1.8,8.200000000000001,-13.200000000000003,12.9,16.3,16
763,12917.0,-0.1,-1.1,-1.7000000000000002,0.5,2.1,7.4,-4.6,16.4,19.5,16
764,12936.0,-0.4,-0.5,-2.5,0.30000000000000004,2.6,6.800000000000001,-0.5,9.700000000000001,21.500000000000004,16
765,12951.0,-0.2,-0.2,-2.5,0.5,2.8000000000000003,6.7,0.4,-3.7000000000000006,21.1,16
766,12968.0,-0.2,0.0,-2.4000000000000004,0.6000000000000001,3.1,6.9,3.7000000000000006,-15.5,16.900000000000002,16
767,12986.0,-0.2,0.2,-2.4000000000000004,0.6000000000000001,3.3000000000000003,6.800000000000001,8.8,-23.099999999999998,11.5,16
768,13010.0,-0.1,0.2,-2.6,0.8,3.3000000000000003,6.6000000000000005,1.5,-27.400000000000002,1.2000000000000002,16
769,13023.0,-0.2,0.30000000000000004,-2.4000000000000004,0.7000000000000001,3.4000000000000004,7.4,-8.600000000000001,-23.700000000000003,-2.9,16
770,13036.0,-0.30000000000000004,0.30000000000000004,-1.7000000000000002,0.7000000000000001,3.4000000000000004,7.4,-8.600000000000001,-23.700000000000003,-2.9,16
771,13056.0,-0.30000000000000004,0.4,0.2,0.8,3.4000000000000004,9.0,-11.8,-19.1,-4.800000000000001,16
772,13067.0,-0.2,0.4,1.0,0.9,3.5,10.200000000000001,-4.4,-14.800000000000002,-5.500000000000001,16
773,13084.0,-0.2,0.7000000000000001,1.4000000000000001,0.9,3.7,10.5,9.3,-12.8,-6.600000000000001,16
774,13100.0,-0.1,1.0,0.8,1.1,4.1000000000000005,10.0,18.0,-14.400000000000002,-7.400000000000001,16
775,13117.0,0.0,1.0,0.7000000000000001,1.2000000000000002,4.1000000000000005,10.0,16.3,-19.0,-11.700000000000001,16
776,13134.0,0.0,0.4,2.4000000000000004,1.3,3.7,11.3,9.2,-26.5,-18.4,16
777,13151.0,-0.4,0.2,3.8000000000000003,1.1,3.5,12.700000000000001,12.600000000000001,-32.1,-19.9,16
778,13167.0,-0.6000000000000001,0.30000000000000004,3.9000000000000004,0.8,3.7,12.9,25.900000000000002,-28.600000000000005,-12.7,16
779,13187.0,0.0,0.30000000000000004,3.0,1.4000000000000001,3.7,12.200000000000001,35.599999999999994,-20.8,-0.9000000000000001,16
780,13201.0,0.4,0.30000000000000004,2.5,2.1,3.9000000000000004,11.4,32.400000000000006,-13.8,5.0,16
781,13218.0,1.1,0.6000000000000001,1.8,2.6,4.2,10.8,22.2,-2.9,2.0,16
782,13238.0,0.9,0.7000000000000001,1.2000000000000002,2.5,4.3,10.3,9.8,10.5,-4.9,16
783,13253.0,0.6000000000000001,0.6000000000000001,0.8,2.1,4.3,9.9,-3.1,19.400000000000002,-10.299999999999999,16
784,13267.0,0.4,0.4,0.6000000000000001,1.8,4.0,9.600000000000001,-16.900000000000002,18.700000000000003,-14.600000000000001,16
785,13284.0,0.1,0.0,0.6000000000000001,1.5,3.6,9.700000000000001,-31.3,9.8,-17.6,16
786,13305.0,0.30000000000000004,-0.4,1.1,1.5,3.2,10.100000000000001,-40.0,0.4,-18.3,16
787,13319.0,0.4,-0.6000000000000001,1.3,1.8,2.7,10.5,-40.1,-6.300000000000001,-17.200000000000003,16
788,13344.0,0.7000000000000001,-0.9,0.6000000000000001,2.0,2.3000000000000003,9.600000000000001,-20.3,-1.9,-14.300000000000002,16
789,13352.0,0.7000000000000001,-0.9,0.6000000000000001,2.0,2.3000000000000003,9.600000000000001,-20.3,-1.9,-14.300000000000002,16
790,13370.0,0.4,-0.7000000000000001,-0.8,1.7000000000000002,2.4000000000000004,8.5,-11.5,3.3000000000000007,-12.600000000000001,16
791,13387.0,0.0,-0.5,-2.0,1.4000000000000001,2.5,7.4,-7.6,10.0,-10.700000000000001,16
792,13401.0,-0.2,-0.4,-2.6,1.0,2.7,6.5,-8.2,14.900000000000002,-8.0,16
793,13417.0,-0.30000000000000004,-0.4,-3.3000000000000003,0.9,2.6,6.0,-13.5,15.299999999999999,-5.500000000000001,16
794,13440.0,-0.5,-0.4,-3.5,0.7000000000000001,2.6,5.800000000000001,-21.1,13.000000000000002,-3.5,16
795,13452.0,-0.4,-0.4,-3.4000000000000004,0.8,2.5,5.9,-27.9,9.600000000000001,-1.3,16
796,13467.0,0.1,-0.5,-2.7,1.1,2.3000000000000003,6.5,-35.599999999999994,3.2,-0.9000000000000001,16
797,13486.0,0.1,-0.4,-1.3,1.2000000000000002,2.3000000000000003,7.7,-37.6,-3.7000000000000006,-3.3000000000000007,16
798,13506.0,0.2,-0.30000000000000004,-0.6000000000000001,1.3,2.3000000000000003,8.9,-17.5,-14.900000000000002,-7.400000000000001,16
799,13527.0,0.1,-0.2,-0.30000000000000004,1.2000000000000002,2.5,9.0,-6.9,-14.900000000000002,-7.699999999999999,16
800,13538.0,-0.1,-0.1,-0.4,1.2000000000000002,2.5,9.0,-6.9,-14.900000000000002,-7.699999999999999,16
801,13551.0,-0.1,0.1,-0.6000000000000001,1.1,2.7,8.6,0.8,-10.0,-4.7,16
802,13571.0,-0.2,0.5,-1.0,1.0,3.1,8.3,2.8,-1.3,-0.8,16
803,13591.0,0.0,0.7000000000000001,-1.1,1.1,3.3000000000000003,8.200000000000001,0.6000000000000001,3.1,2.7,16
804,13601.0,0.0,0.8,-0.8,1.2000000000000002,3.4000000000000004,8.5,-3.4,2.6,4.2,16
805,13618.0,-0.2,0.7000000000000001,0.1,1.1,3.3000000000000003,9.3,-3.4,2.3,5.500000000000001,16
806,13647.0,-0.4,0.7000000000000001,0.9,0.9,3.3000000000000003,10.200000000000001,15.6,-3.9,15.5,16
807,13657.0,-0.4,0.7000000000000001,0.9,1.2000000000000002,3.3000000000000003,10.3,25.7,-14.400000000000002,21.300000000000004,16
808,13668.0,0.0,0.6000000000000001,1.1,1.2000000000000002,3.3000000000000003,10.3,25.7,-14.400000000000002,21.300000000000004,16
809,13690.0,0.4,0.5,1.5,1.7000000000000002,3.3000000000000003,10.600000000000001,32.1,-26.400000000000006,24.0,16
810,13702.0,0.6000000000000001,0.4,1.8,2.1,3.3000000000000003,11.0,37.800000000000004,-34.7,24.200000000000003,16
811,13719.0,0.9,0.30000000000000004,1.4000000000000001,2.5,3.3000000000000003,10.700000000000001,42.60000000000001,-34.400000000000006,23.700000000000003,16
812,13741.0,1.0,0.6000000000000001,0.6000000000000001,2.7,3.5,9.9,37.9,-26.799999999999997,22.700000000000003,16
813,13752.0,1.1,0.5,0.30000000000000004,2.9000000000000004,3.6,9.4,22.3,-9.8,21.500000000000004,16
814,13768.0,1.0,0.5,0.8,2.8000000000000003,3.6,9.8,-1.4,9.600000000000001,18.6,16
815,13784.0,0.7000000000000001,0.5,1.6,2.4000000000000004,3.5,10.9,-20.3,24.1,14.800000000000002,16
816,13801.0,0.5,0.2,2.5,2.1,3.2,11.700000000000001,-28.0,29.300000000000004,13.100000000000001,16
817,13819.0,0.30000000000000004,-0.2,2.9000000000000004,1.9000000000000001,2.8000000000000003,12.100000000000001,-29.1,26.1,11.000000000000002,16
818,13843.0,0.1,-0.5,3.1,1.6,2.1,12.100000000000001,-13.3,16.3,9.5,16
819,13851.0,0.1,-0.7000000000000001,2.8000000000000003,1.6,2.1,12.100000000000001,-13.3,16.3,9.5,16
820,13867.0,0.0,-0.9,1.8,1.6,1.8,11.4,-3.8,13.200000000000003,9.8,16
821,13884.0,-0.1,-0.9,1.1,1.3,1.9000000000000001,10.3,3.9,16.8,9.700000000000001,16
822,13900.0,-0.5,-0.8,-0.2,0.9,2.0,9.3,7.1000000000000005,21.8,9.4,16
823,13919.0,-1.0,-0.6000000000000001,-1.0,0.4,2.1,8.6,5.2,20.900000000000002,10.700000000000001,16
824,13942.0,-1.0,-0.4,-1.4000000000000001,0.6000000000000001,2.4000000000000004,7.9,-5.500000000000001,0.1,14.100000000000001,16
825,13957.0,-0.7000000000000001,-0.4,-1.5,0.6000000000000001,2.4000000000000004,7.9,-5.500000000000001,0.1,14.100000000000001,16
826,13967.0,-0.4,-0.2,-1.6,1.1,2.4000000000000004,7.800000000000001,-12.7,-7.500000000000001,13.100000000000001,16
827,13988.0,0.30000000000000004,-0.4,-1.4000000000000001,1.8,2.0,8.200000000000001,-22.700000000000003,-3.3000000000000007,6.1000000000000005,16
828,14004.0,0.4,-0.6000000000000001,-1.1,1.8,2.0,8.200000000000001,-22.700000000000003,-3.3000000000000007,6.1000000000000005,16
829,14021.0,0.2,-0.6000000000000001,-1.1,1.7000000000000002,1.9000000000000001,8.3,-20.3,6.699999999999999,2.4000000000000004,16
830,14037.0,0.0,-0.5,-1.4000000000000001,1.3,2.0,8.0,-15.2,16.900000000000002,0.9000000000000001,16
831,14050.0,-0.2,-0.30000000000000004,-1.9000000000000001,1.1,2.1,7.6000000000000005,-10.5,23.400000000000002,2.6,16
832,14067.0,-0.30000000000000004,-0.30000000000000004,-1.9000000000000001,0.9,2.1,7.5,-4.7,24.200000000000003,4.7,16
833,14084.0,-0.4,-0.30000000000000004,-1.8,0.8,2.1,7.6000000000000005,5.2,20.1,7.1000000000000005,16
834,14104.0,-0.6000000000000001,0.0,-2.0,0.6000000000000001,2.4000000000000004,7.4,16.1,8.4,10.200000000000001,16
835,14122.0,-0.30000000000000004,0.4,-2.2,0.8,2.8000000000000003,7.2,23.0,-5.4,14.800000000000002,16
836,14141.0,0.1,0.7000000000000001,-2.2,1.6,3.3000000000000003,7.2,19.700000000000003,-31.6,13.200000000000003,16
837,14151.0,0.4,0.7000000000000001,-2.0,1.6,3.3000000000000003,7.2,19.700000000000003,-31.6,13.200000000000003,16
838,14167.0,0.6000000000000001,0.7000000000000001,-1.6,2.1,3.4000000000000004,7.9,14.700000000000001,-36.1,5.4,16
839,14184.0,0.8,0.7000000000000001,-0.5,2.3000000000000003,3.4000000000000004,8.700000000000001,14.900000000000002,-32.7,-4.4,16
840,14201.0,0.4,0.7000000000000001,-0.1,2.0,3.4000000000000004,9.0,17.1,-26.6,-10.5,16
841,14219.0,0.4,0.6000000000000001,0.30000000000000004,2.0,3.5,9.600000000000001,16.1,-23.700000000000003,-12.5,16
842,14251.0,0.5,0.8,1.4000000000000001,2.2,3.8000000000000003,10.4,19.6,-19.0,-15.6,16
843,14268.0,0.5,0.9,1.0,2.3000000000000003,3.9000000000000004,10.0,18.0,-14.700000000000001,-20.0,16
844,14284.0,0.5,0.8,0.9,2.2,3.8000000000000003,10.0,7.9,-12.299999999999999,-24.0,16
845,14301.0,0.4,0.6000000000000001,1.7000000000000002,2.2,3.7,10.600000000000001,-5.9,-11.2,-24.7,16
846,14320.0,0.5,0.5,2.1,2.4000000000000004,3.5,11.3,-17.200000000000003,-10.0,-23.0,16
847,14340.0,0.9,0.2,2.7,2.7,3.2,11.8,-25.300000000000004,-7.500000000000001,-20.7,16
848,14351.0,1.0,-0.1,3.3000000000000003,2.7,2.9000000000000004,12.3,-28.1,-2.3,-19.400000000000002,16
849,14368.0,1.2000000000000002,-0.5,3.4000000000000004,3.0,2.3000000000000003,12.600000000000001,-26.700000000000003,-0.5,-17.7,16
850,14384.0,1.4000000000000001,-0.9,3.3000000000000003,3.2,1.9000000000000001,12.600000000000001,-21.6,-1.2000000000000002,-18.4,16
851,14402.0,1.3,-0.9,3.0,3.1,1.8,12.100000000000001,-13.200000000000003,-3.1,-20.599999999999998,16
852,14417.0,1.1,-1.1,2.1,2.9000000000000004,1.7000000000000002,11.3,-5.7,-4.4,-22.8,16
853,14440.0,1.0,-1.1,1.1,2.7,1.7000000000000002,10.5,-1.5,-3.8,-22.8,16
854,14460.0,0.9,-1.0,0.30000000000000004,2.7,1.7000000000000002,9.8,-1.5,-2.6,-22.1,16
855,14473.0,0.8,-0.9,-0.1,2.5,2.0,9.0,-4.2,-2.2,-24.200000000000003,16
856,14484.0,0.7000000000000001,-0.7000000000000001,-0.4,2.5,2.0,9.0,-4.2,-2.2,-24.200000000000003,16
857,14501.0,0.4,-0.6000000000000001,-0.8,2.1,2.2,8.5,-7.200000000000001,-3.4,-25.900000000000002,16
858,14518.0,0.1,-0.4,-1.3,1.8,2.3000000000000003,8.0,-12.0,-3.0,-26.1,16
859,14546.0,-0.30000000000000004,-0.30000000000000004,-1.6,1.3,2.3000000000000003,7.7,-24.599999999999998,3.5,-24.5,16
860,14551.0,-0.30000000000000004,-0.30000000000000004,-1.6,1.3,2.3000000000000003,7.7,-24.599999999999998,3.5,-24.5,16
861,14567.0,-0.6000000000000001,-0.4,-1.7000000000000002,1.1,2.1,7.7,-29.1,4.2,-22.9,16
862,14584.0,-0.6000000000000001,-0.5,-1.5,1.1,2.0,7.800000000000001,-30.3,2.2,-21.0,16
863,14601.0,-0.5,-0.6000000000000001,-1.5,1.1,1.9000000000000001,8.0,-28.600000000000005,1.1,-18.8,16
864,14618.0,-0.6000000000000001,-0.4,-1.4000000000000001,0.9,1.9000000000000001,8.0,-23.099999999999998,4.2,-16.200000000000003,16
865,14644.0,-0.9,-0.30000000000000004,-1.7000000000000002,0.7000000000000001,2.0,7.800000000000001,-13.900000000000002,9.0,-12.8,16
866,14651.0,-1.0,-0.1,-1.9000000000000001,0.5,2.3000000000000003,7.4,-5.6,10.1,-8.700000000000001,16
867,14671.0,-0.9,0.2,-2.3000000000000003,0.6000000000000001,2.4000000000000004,7.1000000000000005,-1.8000000000000003,3.4,-5.300000000000001,16
868,14684.0,-0.7000000000000001,0.30000000000000004,-1.9000000000000001,0.7000000000000001,2.6,7.300000000000001,-1.2000000000000002,-5.7,-4.1,16
869,14700.0,-0.7000000000000001,0.4,-1.5,0.9,2.7,8.0,1.3,-14.300000000000002,-3.9,16
870,14717.0,-0.5,0.4,-0.7000000000000001,1.0,2.7,8.6,8.0,-19.400000000000002,-3.2,16
871,14735.0,-0.30000000000000004,0.30000000000000004,-0.1,1.3,2.7,9.1,16.5,-19.9,-1.8000000000000003,16
872,14751.0,-0.30000000000000004,0.4,-0.2,1.4000000000000001,2.9000000000000004,9.0,24.3,-16.0,0.1,16
873,14769.0,-0.30000000000000004,0.6000000000000001,-0.4,1.4000000000000001,3.1,8.8,25.200000000000003,-8.700000000000001,1.5,16
874,14785.0,-0.30000000000000004,0.6000000000000001,-0.4,1.3,3.1,9.0,20.900000000000002,0.30000000000000004,3.9,16
875,14800.0,-0.30000000000000004,0.5,0.5,1.4000000000000001,3.1,9.8,16.3,5.9,6.4,16
876,14817.0,-0.4,0.2,1.6,1.3,2.9000000000000004,10.700000000000001,18.3,7.300000000000001,8.5,16
877,14835.0,-0.4,0.2,1.6,1.2000000000000002,2.9000000000000004,10.9,24.1,4.2,12.5,16
878,14857.0,-0.2,0.4,1.4000000000000001,1.5,3.3000000000000003,10.600000000000001,18.200000000000003,3.3000000000000007,21.400000000000002,16
879,14867.0,-0.2,0.5,1.4000000000000001,1.5,3.3000000000000003,10.600000000000001,18.200000000000003,3.3000000000000007,21.400000000000002,16
880,14885.0,0.1,0.30000000000000004,1.5,1.8,3.1,10.9,7.9,9.5,22.9,16
881,14901.0,0.1,0.30000000000000004,2.0,1.7000000000000002,3.1,11.200000000000001,-2.0,16.1,23.099999999999998,16
882,14919.0,0.0,0.30000000000000004,2.2,1.6,3.1,11.4,-7.8,20.8,25.0,16
883,14937.0,0.2,0.1,2.2,1.7000000000000002,2.9000000000000004,11.5,-10.1,21.0,26.5,16
884,14951.0,0.30000000000000004,-0.1,2.1,1.8,2.7,11.4,-11.2,14.200000000000001,25.5,16
885,14967.0,0.4,-0.4,2.2,1.9000000000000001,2.3000000000000003,11.5,-12.600000000000001,3.6000000000000005,21.7,16
886,14984.0,0.30000000000000004,-0.6000000000000001,2.0,1.8,1.9000000000000001,11.3,-10.1,0.4,18.4,16
887,15000.0,-0.2,-1.0,1.3,1.4000000000000001,1.6,10.700000000000001,-3.9,4.7,17.0,16
888,15019.0,-0.5,-1.0,0.4,1.1,1.6,10.0,2.4000000000000004,12.299999999999999,20.1,16
889,15039.0,-0.5,-0.7000000000000001,-0.7000000000000001,0.9,2.1,8.3,7.400000000000001,25.7,24.900000000000002,16
890,15053.0,-0.6000000000000001,-0.5,-1.1,0.9,2.1,8.3,7.400000000000001,25.7,24.900000000000002,16
891,15067.0,-0.8,-0.30000000000000004,-1.4000000000000001,0.6000000000000001,2.3000000000000003,8.0,1.8000000000000003,25.0,25.200000000000003,16
892,15084.0,-0.8,-0.30000000000000004,-1.3,0.6000000000000001,2.3000000000000003,8.200000000000001,-3.6000000000000005,18.200000000000003,25.0,16
893,15100.0,-0.5,-0.30000000000000004,-0.9,0.8,2.2,8.5,-5.500000000000001,7.699999999999999,24.1,16
894,15121.0,0.0,-0.5,-0.5,1.2000000000000002,2.1,8.8,-2.9,-1.0,22.4,16
895,15141.0,0.4,-0.6000000000000001,-0.9,1.7000000000000002,1.9000000000000001,8.3,-0.6000000000000001,0.9000000000000001,12.7,16
896,15152.0,0.30000000000000004,-0.6000000000000001,-1.1,1.7000000000000002,1.9000000000000001,8.3,-0.6000000000000001,0.9000000000000001,12.7,16
897,15167.0,-0.1,-0.5,-1.4000000000000001,1.4000000000000001,2.0,8.1,-4.0,11.4,9.4,16
898,15184.0,-0.30000000000000004,-0.5,-1.5,1.1,2.0,7.9,-7.9,20.2,8.899999999999999,16
899,15200.0,-0.30000000000000004,-0.4,-1.4000000000000001,1.0,2.0,8.0,-9.2,23.900000000000006,9.4,16
900,15219.0,-0.30000000000000004,-0.2,-1.3,0.9,2.1,8.1,-6.4,22.000000000000004,10.200000000000001,16
901,15256.0,-0.1,0.2,-1.5,1.1,2.6,7.9,4.6,9.2,11.5,16
902,15267.0,0.1,0.30000000000000004,-1.6,1.3,2.8000000000000003,7.7,7.6,1.5,8.5,16
903,15284.0,0.30000000000000004,0.6000000000000001,-1.9000000000000001,1.4000000000000001,3.1,7.4,7.6,-1.3,2.7,16
904,15300.0,0.0,0.5,-1.9000000000000001,1.2000000000000002,3.0,7.4,3.8,0.30000000000000004,-2.4000000000000004,16
905,15317.0,0.0,0.4,-1.7000000000000002,1.1,2.9000000000000004,7.800000000000001,-1.4,1.9,-4.4,16
906,15342.0,0.1,0.5,-0.6000000000000001,1.2000000000000002,3.1,9.0,-1.8000000000000003,2.6,-5.7,16
907,15351.0,0.1,0.7000000000000001,-0.2,1.2000000000000002,3.1,9.0,-1.8000000000000003,2.6,-5.7,16
908,15367.0,0.1,0.8,0.1,1.2000000000000002,3.2,9.600000000000001,5.7,-0.2,-7.500000000000001,16
909,15384.0,0.2,0.7000000000000001,0.8,1.3,3.2,10.100000000000001,14.600000000000001,-8.3,-10.5,16
910,15400.0,0.1,0.8,0.8,1.4000000000000001,3.4000000000000004,10.100000000000001,22.700000000000003,-17.5,-14.200000000000001,16
911,15418.0,0.0,0.9,0.6000000000000001,1.2000000000000002,3.6,9.8,24.900000000000002,-22.4,-16.0,16
912,15439.0,-0.1,1.0,0.30000000000000004,1.2000000000000002,3.8000000000000003,9.5,17.799999999999997,-20.3,-15.5,16
913,15458.0,-0.1,1.2000000000000002,0.8,1.2000000000000002,3.9000000000000004,9.9,5.2,-11.700000000000001,-13.5,16
914,15473.0,0.30000000000000004,1.0,1.4000000000000001,2.0,3.3000000000000003,11.200000000000001,-21.0,-7.699999999999999,-17.300000000000004,16
915,15491.0,0.7000000000000001,0.1,2.3000000000000003,1.8,2.7,11.9,-32.8,-13.100000000000001,-23.400000000000002,16
916,15504.0,0.4,0.0,2.7,1.8,2.7,11.9,-32.8,-13.100000000000001,-23.400000000000002,16
917,15524.0,0.5,-0.5,3.3000000000000003,2.2,1.7000000000000002,13.100000000000001,-43.6,-5.500000000000001,-12.0,16
918,15545.0,1.2000000000000002,-0.9,3.9000000000000004,2.6,1.4000000000000001,13.4,-35.699999999999996,5.0,-6.8,16
919,15552.0,1.3,-0.9,3.9000000000000004,2.6,1.4000000000000001,13.4,-35.699999999999996,5.0,-6.8,16
920,15567.0,1.3,-0.9,3.5,2.6,1.4000000000000001,12.9,-18.6,14.400000000000002,-5.9,16
921,15584.0,0.9,-0.8,2.1,2.3000000000000003,1.4000000000000001,11.700000000000001,0.2,16.6,-7.1000000000000005,16
922,15601.0,0.6000000000000001,-0.6000000000000001,0.5,1.9000000000000001,1.6,10.5,16.6,12.8,-7.1000000000000005,16
923,15618.0,0.6000000000000001,-0.5,-0.2,1.9000000000000001,1.9000000000000001,9.200000000000001,26.700000000000003,1.4,-7.200000000000001,16
924,15638.0,0.7000000000000001,-0.4,-1.3,2.0,2.0,8.200000000000001,26.6,-14.0,-10.8,16
925,15651.0,0.8,-0.4,-1.6,2.1,2.1,7.800000000000001,19.300000000000004,-25.5,-16.900000000000002,16
926,15667.0,0.6000000000000001,-0.30000000000000004,-1.9000000000000001,2.0,2.2,7.5,8.100000000000001,-28.1,-23.5,16
927,15684.0,0.30000000000000004,-0.5,-2.0,1.8,2.1,7.4,-4.300000000000001,-16.8,-26.700000000000003,16
928,15705.0,-0.1,-0.6000000000000001,-1.8,1.4000000000000001,1.9000000000000001,7.5,-17.6,0.9000000000000001,-26.6,16
929,15719.0,-0.2,-0.7000000000000001,-1.5,1.1,1.7000000000000002,7.9,-28.900000000000002,15.000000000000002,-24.0,16
930,15739.0,-0.30000000000000004,-0.7000000000000001,-1.0,1.0,1.6,8.4,-33.2,17.799999999999997,-19.9,16
931,15753.0,-0.2,-0.5,-0.7000000000000001,1.0,1.7000000000000002,8.8,-30.200000000000003,13.8,-16.700000000000003,16
932,15767.0,-0.2,-0.30000000000000004,-0.7000000000000001,1.0,1.9000000000000001,8.8,-19.6,7.500000000000001,-14.400000000000002,16
933,15784.0,-0.2,-0.2,-1.1,1.0,2.0,8.5,-6.300000000000001,0.8,-12.7,16
934,15800.0,-0.2,-0.1,-1.4000000000000001,1.0,2.2,7.9,4.5,-6.699999999999999,-11.1,16
935,15817.0,-0.2,0.30000000000000004,-2.0,1.0,2.5,7.4,8.700000000000001,-13.200000000000003,-9.700000000000001,16
936,15837.0,-0.1,0.6000000000000001,-2.2,1.2000000000000002,2.8000000000000003,7.2,6.300000000000001,-16.4,-9.2,16
937,15856.0,-0.1,0.7000000000000001,-2.1,1.2000000000000002,2.9000000000000004,7.4,-3.0,-6.9,-8.5,16
938,15867.0,-0.1,0.7000000000000001,-1.9000000000000001,1.2000000000000002,2.9000000000000004,7.4,-3.0,-6.9,-8.5,16
939,15888.0,-0.1,0.6000000000000001,-1.5,1.2000000000000002,2.9000000000000004,7.800000000000001,-5.4,1.2000000000000002,-7.1000000000000005,16
940,15906.0,0.0,0.6000000000000001,-0.9,1.2000000000000002,3.0,8.700000000000001,-2.3,2.1,-2.4000000000000004,16
941,15918.0,0.0,0.7000000000000001,-0.7000000000000001,1.2000000000000002,3.0,8.700000000000001,-2.3,2.1,-2.4000000000000004,16
942,15939.0,0.0,0.9,-0.6000000000000001,1.3,3.1,8.8,3.8,0.6000000000000001,-0.4,16
943,15959.0,-0.1,1.0,-0.5,1.2000000000000002,3.3000000000000003,9.1,11.5,3.9,3.6000000000000005,16
944,15968.0,-0.1,1.0,-0.30000000000000004,1.2000000000000002,3.3000000000000003,9.1,11.5,3.9,3.6000000000000005,16
945,15984.0,-0.1,1.0,0.5,1.2000000000000002,3.4000000000000004,9.700000000000001,11.2,2.0,5.300000000000001,16
946,16002.0,0.0,1.0,0.9,1.3,3.3000000000000003,10.3,9.4,-5.300000000000001,6.699999999999999,16
947,16017.0,0.2,0.8,1.6,1.5,3.2,10.9,5.9,-12.299999999999999,7.400000000000001,16
948,16045.0,0.2,0.5,2.9000000000000004,1.6,2.9000000000000004,12.4,-1.0,-7.1000000000000005,8.2,16
949,16051.0,0.2,0.5,2.9000000000000004,1.6,2.9000000000000004,12.4,-1.0,-7.1000000000000005,8.2,16
950,16067.0,0.5,0.1,3.4000000000000004,1.9000000000000001,2.6,12.8,-2.5,-0.1,10.200000000000001,16
951,16084.0,0.4,0.2,3.4000000000000004,1.8,2.6,12.8,-2.3,7.400000000000001,10.5,16
952,16100.0,0.30000000000000004,0.0,3.2,1.7000000000000002,2.4000000000000004,12.600000000000001,-3.2,9.8,9.600000000000001,16
953,16124.0,0.1,-0.30000000000000004,2.9000000000000004,1.5,2.1,12.4,-4.9,7.699999999999999,7.6,16
954,16147.0,-0.2,-0.9,2.3000000000000003,1.1,1.4000000000000001,11.8,-0.6000000000000001,4.0,5.8,16
955,16158.0,-0.4,-1.1,1.7000000000000002,0.8,1.2000000000000002,10.8,5.0,8.2,6.8,16
956,16168.0,-0.5,-1.2000000000000002,1.1,0.8,1.2000000000000002,10.8,5.0,8.2,6.8,16
957,16212.0,-1.0,-1.1,-0.1,0.4,1.2000000000000002,9.8,6.600000000000001,15.000000000000002,9.0,16
958,16217.0,-1.5,-0.8,-1.1,-0.30000000000000004,1.5,8.5,4.9,30.000000000000004,15.6,16
959,16234.0,-1.6,-0.7000000000000001,-1.3,-0.5,1.7000000000000002,8.200000000000001,1.5,25.6,20.7,16
960,16251.0,-1.2000000000000002,-0.4,-1.3,-0.2,2.0,8.200000000000001,-2.0,15.100000000000001,26.9,16
961,16267.0,-0.5,-0.2,-1.2000000000000002,0.4,2.1,8.3,-2.3,3.9,28.500000000000004,16
962,16284.0,-0.2,-0.30000000000000004,-1.2000000000000002,0.9,2.0,8.200000000000001,-0.4,-5.6,25.200000000000003,16
963,16300.0,0.0,-0.4,-1.6,1.1,1.9000000000000001,7.9,0.0,-10.9,18.900000000000002,16
964,16318.0,-0.2,-0.4,-2.0,1.0,1.9000000000000001,7.5,-3.6000000000000005,-7.6,13.200000000000003,16
965,16339.0,-0.30000000000000004,-0.30000000000000004,-2.2,0.8,1.9000000000000001,7.300000000000001,-9.700000000000001,2.3,10.9,16
966,16355.0,-0.6000000000000001,-0.2,-2.2,0.5,2.0,7.300000000000001,-15.8,14.100000000000001,11.3,16
967,16370.0,-0.4,0.0,-1.8,0.6000000000000001,2.1,7.5,-19.799999999999997,19.1,12.8,16
968,16386.0,-0.30000000000000004,0.1,-1.6,0.7000000000000001,2.2,7.9,-20.7,16.8,12.100000000000001,16
969,16403.0,-0.2,0.30000000000000004,-1.1,0.7000000000000001,2.3000000000000003,8.3,-18.200000000000003,11.5,9.899999999999999,16
970,16423.0,-0.1,0.4,-0.6000000000000001,0.8,2.4000000000000004,8.8,-13.000000000000002,5.9,6.4,16
971,16440.0,-0.2,0.4,-0.5,0.8,2.4000000000000004,9.0,1.5,1.3,0.5,16
972,16452.0,-0.2,0.4,-0.5,0.8,2.4000000000000004,9.0,1.5,1.3,0.5,16
973,16467.0,-0.1,0.4,-0.6000000000000001,0.8,2.4000000000000004,8.9,5.2,0.9000000000000001,-0.6000000000000001,16
974,16484.0,-0.1,0.5,-0.4,0.9,2.6,9.1,8.100000000000001,2.7,-2.0,16
975,16500.0,0.0,0.6000000000000001,-0.2,1.0,2.7,9.200000000000001,13.200000000000003,3.8,-4.1,16
976,16517.0,0.2,0.7000000000000001,-0.1,1.2000000000000002,2.9000000000000004,9.5,19.1,1.1,-7.699999999999999,16
977,16536.0,0.30000000000000004,0.9,0.1,1.2000000000000002,3.1,9.5,26.300000000000004,-0.7,-13.5,16
978,16558.0,0.0,1.0,-0.2,0.9,3.3000000000000003,9.3,28.500000000000004,-3.3000000000000007,-17.300000000000004,16
979,16567.0,-0.2,1.1,-0.2,0.7000000000000001,3.4000000000000004,9.200000000000001,24.1,-5.6,-18.5,16
980,16584.0,-0.2,1.0,0.1,0.8,3.4000000000000004,9.5,15.8,-8.2,-18.700000000000003,16
981,16600.0,0.0,0.8,1.0,1.0,3.3000000000000003,10.200000000000001,6.300000000000001,-12.7,-18.6,16
982,16617.0,0.1,0.7000000000000001,1.8,1.1,3.2,11.5,-3.1,-21.500000000000004,-19.1,16
983,16636.0,0.30000000000000004,0.7000000000000001,2.9000000000000004,1.4000000000000001,3.2,12.3,-7.6,-32.7,-18.700000000000003,16
984,16651.0,1.3,-0.1,3.2,2.3000000000000003,2.4000000000000004,12.600000000000001,-13.900000000000002,-45.2,-19.1,16
985,16667.0,1.3,-0.1,3.3000000000000003,2.6,2.3000000000000003,12.8,-20.1,-42.1,-21.8,16
986,16684.0,1.2000000000000002,-0.4,3.0,2.5,1.9000000000000001,12.5,-21.0,-20.3,-23.3,16
987,16700.0,0.5,-0.8,2.4000000000000004,2.0,1.5,12.0,-24.5,1.8000000000000003,-22.1,16
988,16717.0,0.2,-0.6000000000000001,2.3000000000000003,1.4000000000000001,1.6,11.8,-25.5,16.8,-17.300000000000004,16
989,16740.0,0.0,-0.6000000000000001,1.5,1.1,1.5,10.9,-7.8,15.899999999999999,-9.600000000000001,16
990,16753.0,-0.1,-0.6000000000000001,1.2000000000000002,1.1,1.5,10.9,-7.8,15.899999999999999,-9.600000000000001,16
991,16767.0,-0.1,-0.5,0.8,1.1,1.6,10.3,4.6,4.300000000000001,-7.400000000000001,16
992,16785.0,0.1,-0.6000000000000001,0.0,1.3,1.6,9.600000000000001,15.399999999999999,-9.5,-5.6,16
993,16801.0,0.4,-0.6000000000000001,-0.7000000000000001,1.6,1.6,9.0,20.900000000000002,-22.5,-5.7,16
994,16817.0,0.5,-0.5,-1.1,1.8,1.7000000000000002,8.3,21.900000000000002,-30.799999999999997,-7.300000000000001,16
995,16834.0,0.6000000000000001,-0.5,-2.0,1.9000000000000001,1.8,7.6000000000000005,16.0,-31.5,-8.899999999999999,16
996,16850.0,0.6000000000000001,-0.5,-2.3000000000000003,2.0,1.8,7.1000000000000005,3.4,-23.099999999999998,-9.8,16
997,16867.0,0.5,-0.6000000000000001,-2.6,1.9000000000000001,1.7000000000000002,6.9,-12.100000000000001,-10.600000000000001,-10.200000000000001,16
998,16884.0,0.4,-0.6000000000000001,-2.1,1.9000000000000001,1.7000000000000002,7.300000000000001,-25.200000000000003,-0.5,-10.700000000000001,16
999,16900.0,0.4,-0.6000000000000001,-1.7000000000000002,1.8,1.5,7.9,-29.900000000000006,2.4000000000000004,-12.600000000000001,16
1000,16917.0,0.1,-0.5,-1.2000000000000002,1.5,1.6,8.200000000000001,-23.3,2.4000000000000004,-14.200000000000001,16
1001,16935.0,-0.2,-0.30000000000000004,-1.6,1.2000000000000002,1.7000000000000002,8.0,-12.200000000000001,-1.7,-12.299999999999999,16
1002,16951.0,-0.30000000000000004,-0.2,-1.7000000000000002,1.2000000000000002,1.9000000000000001,7.7,-4.2,-7.300000000000001,-8.100000000000001,16
1003,16967.0,-0.1,0.2,-1.9000000000000001,1.4000000000000001,2.3000000000000003,7.5,2.3,-9.5,-4.6,16
1004,16989.0,-0.1,0.6000000000000001,-2.3000000000000003,1.4000000000000001,2.7,7.2,7.1000000000000005,-7.9,-3.8,16
1005,17003.0,-0.30000000000000004,1.1,-2.5,1.3,3.0,6.9,7.300000000000001,-5.500000000000001,-4.6,16
1006,17018.0,-0.4,1.2000000000000002,-2.5,1.1,3.4000000000000004,6.9,3.1,-3.3000000000000007,-4.7,16
1007,17042.0,-0.30000000000000004,1.2000000000000002,-2.0,1.2000000000000002,3.4000000000000004,7.300000000000001,-2.4000000000000004,-0.5,-3.2,16
1008,17051.0,-0.2,1.2000000000000002,-1.6,1.3,3.4000000000000004,7.9,-5.0,2.8,-1.4,16
1009,17067.0,-0.1,1.2000000000000002,-0.6000000000000001,1.4000000000000001,3.3000000000000003,8.700000000000001,-3.3000000000000007,6.1000000000000005,0.2,16
1010,17084.0,-0.30000000000000004,1.2000000000000002,0.1,1.3,3.4000000000000004,9.4,5.8,10.4,1.7,16
1011,17100.0,-0.4,1.2000000000000002,0.30000000000000004,1.0,3.4000000000000004,9.600000000000001,18.4,11.3,4.6,16
1012,17119.0,-0.30000000000000004,1.2000000000000002,0.1,1.1,3.4000000000000004,9.4,28.400000000000002,3.1,9.3,16
1013,17137.0,0.1,1.0,0.6000000000000001,1.5,3.4000000000000004,9.700000000000001,30.200000000000003,-13.000000000000002,9.600000000000001,16
1014,17156.0,0.4,0.8,1.4000000000000001,2.0,3.2,10.8,29.800000000000004,-33.7,-0.2,16
1015,17170.0,0.4,0.7000000000000001,1.6,2.0,3.2,10.8,29.800000000000004,-33.7,-0.2,16
1016,17185.0,0.2,0.4,1.7000000000000002,2.0,3.1,10.9,25.0,-26.6,-3.5,16
1017,17200.0,0.0,0.30000000000000004,1.5,1.7000000000000002,2.9000000000000004,10.700000000000001,11.2,-10.1,-0.1,16
1018,17217.0,0.0,0.1,1.6,1.7000000000000002,2.8000000000000003,10.8,-13.8,12.5,5.7,16
1019,17236.0,0.4,0.0,3.1,1.9000000000000001,2.6,12.0,-37.0,32.8,12.8,16
1020,17257.0,0.5,-0.30000000000000004,4.5,2.0,1.9000000000000001,14.100000000000001,-34.900000000000006,39.9,14.700000000000001,16
1021,17267.0,0.5,-0.4,4.7,2.0,1.9000000000000001,14.100000000000001,-34.900000000000006,39.9,14.700000000000001,16
1022,17284.0,0.30000000000000004,-0.5,4.5,1.6,1.7000000000000002,13.8,-15.000000000000002,27.2,13.8,16
1023,17303.0,0.0,-0.6000000000000001,3.2,1.4000000000000001,1.6,12.600000000000001,3.9,10.200000000000001,14.100000000000001,16
1024,17317.0,0.30000000000000004,-0.8,1.6,1.6,1.5,11.3,12.600000000000001,-6.500000000000001,14.5,16
1025,17335.0,0.4,-0.8,1.0,1.9000000000000001,1.4000000000000001,10.4,12.7,-14.600000000000001,12.200000000000001,16
1026,17350.0,0.30000000000000004,-0.9,0.2,1.7000000000000002,1.4000000000000001,9.700000000000001,11.1,-9.5,8.899999999999999,16
1027,17387.0,-0.9,-0.7000000000000001,-1.0,0.6000000000000001,1.5,8.6,4.800000000000001,11.2,11.700000000000001,16
1028,17402.0,-0.9,-0.7000000000000001,-1.2000000000000002,0.5,1.6,8.3,1.2000000000000002,11.6,16.6,16
1029,17418.0,-0.5,-0.6000000000000001,-1.3,0.9,1.7000000000000002,8.200000000000001,-3.3000000000000007,2.6,19.0,16
1030,17435.0,-0.2,-0.7000000000000001,-1.3,1.4000000000000001,1.6,8.200000000000001,-6.600000000000001,-7.0,18.4,16
1031,17452.0,0.4,-0.8,-1.4000000000000001,1.9000000000000001,1.5,8.1,-9.0,-12.600000000000001,15.299999999999999,16
1032,17467.0,0.30000000000000004,-0.7000000000000001,-1.7000000000000002,1.9000000000000001,1.5,7.800000000000001,-9.899999999999999,-9.100000000000001,9.8,16
1033,17484.0,-0.1,-0.4,-2.0,1.2000000000000002,1.8,7.4,-10.1,1.6,4.300000000000001,16
1034,17500.0,-1.1,0.2,-2.7,0.4,2.3000000000000003,6.800000000000001,-11.1,9.700000000000001,1.8000000000000003,16
1035,17517.0,-1.4000000000000001,0.30000000000000004,-3.1,0.1,2.4000000000000004,6.4,-15.700000000000001,12.0,1.8000000000000003,16
1036,17538.0,-1.5,0.4,-3.0,-0.1,2.4000000000000004,6.5,-20.599999999999998,12.0,1.8000000000000003,16
1037,17552.0,-1.4000000000000001,0.4,-2.3000000000000003,-0.1,2.3000000000000003,7.1000000000000005,-20.7,9.2,4.0,16
1038,17569.0,-1.1,0.4,-1.7000000000000002,0.2,2.3000000000000003,7.6000000000000005,-13.000000000000002,7.300000000000001,8.2,16
1039,17584.0,-0.8,0.5,-1.6,0.6000000000000001,2.4000000000000004,7.800000000000001,-1.6,5.2,11.3,16
1040,17600.0,-0.2,0.7000000000000001,-1.9000000000000001,1.1,2.6,7.5,4.4,-1.4,11.8,16
1041,17617.0,0.1,0.7000000000000001,-1.9000000000000001,1.6,2.6,7.800000000000001,-0.2,-11.5,9.600000000000001,16
1042,17645.0,0.7000000000000001,0.30000000000000004,0.8,2.1,2.2,10.700000000000001,5.9,-7.6,0.6000000000000001,16
1043,17659.0,0.5,0.2,1.3,1.8,2.3000000000000003,10.5,25.6,1.2000000000000002,0.5,16
1044,17668.0,0.30000000000000004,0.4,0.9,1.8,2.3000000000000003,10.5,25.6,1.2000000000000002,0.5,16
1045,17684.0,0.30000000000000004,0.6000000000000001,0.30000000000000004,1.8,2.7,9.700000000000001,35.599999999999994,0.4,2.3,16
1046,17700.0,0.8,0.7000000000000001,-0.1,2.2,2.9000000000000004,9.200000000000001,31.400000000000002,-7.1000000000000005,1.4,16
1047,17717.0,1.0,0.8,0.2,2.6,3.0,9.8,21.400000000000002,-13.100000000000001,-3.8,16
1048,17734.0,1.4000000000000001,0.6000000000000001,1.1,2.9000000000000004,2.9000000000000004,10.4,14.400000000000002,-13.000000000000002,-11.900000000000002,16
1049,17752.0,1.0,0.4,1.2000000000000002,2.6,2.7,10.5,9.899999999999999,-4.4,-17.300000000000004,16
1050,17768.0,0.6000000000000001,0.6000000000000001,1.2000000000000002,2.0,3.0,10.5,2.8,6.300000000000001,-18.200000000000003,16
1051,17784.0,0.2,0.9,1.0,1.7000000000000002,3.3000000000000003,10.4,-7.400000000000001,12.299999999999999,-14.600000000000001,16
1052,17800.0,0.7000000000000001,0.8,1.7000000000000002,2.1,3.2,10.9,-22.6,7.9,-12.600000000000001,16
1053,17817.0,0.8,0.7000000000000001,2.3000000000000003,2.2,2.9000000000000004,12.0,-34.800000000000004,1.2000000000000002,-15.5,16
1054,17835.0,0.7000000000000001,0.4,3.4000000000000004,2.2,2.6,12.8,-38.1,-0.5,-19.1,16
1055,17850.0,0.5,0.0,3.6,2.0,2.1,13.100000000000001,-35.0,4.5,-21.1,16
1056,17867.0,0.1,-0.1,3.7,1.3,1.9000000000000001,13.200000000000001,-27.5,12.9,-21.1,16
1057,17886.0,-0.5,-0.30000000000000004,3.2,0.8,1.7000000000000002,12.8,-15.899999999999999,17.300000000000004,-18.1,16
1058,17903.0,-0.5,-0.9,2.6,0.8,1.2000000000000002,12.3,-6.300000000000001,8.8,-14.800000000000002,16
1059,17923.0,-0.2,-1.2000000000000002,2.0,1.4000000000000001,0.6000000000000001,11.3,9.2,-20.3,-9.0,16
1060,17947.0,0.30000000000000004,-1.5,1.1,1.8,0.5,10.4,14.400000000000002,-22.3,-6.1000000000000005,16
1061,17950.0,0.30000000000000004,-1.5,1.1,1.8,0.5,10.4,14.400000000000002,-22.3,-6.1000000000000005,16
1062,17968.0,0.5,-1.5,-0.30000000000000004,1.9000000000000001,0.5,9.1,15.899999999999999,-14.200000000000001,-2.8,16
1063,17984.0,0.5,-1.4000000000000001,-1.7000000000000002,2.0,0.6000000000000001,8.0,12.299999999999999,0.8,0.9000000000000001,16
1064,18001.0,0.30000000000000004,-1.2000000000000002,-2.7,1.8,0.8,7.0,5.1000000000000005,14.200000000000001,5.0,16
1065,18017.0,0.30000000000000004,-1.1,-3.1,1.7000000000000002,1.0,6.5,-2.8,23.099999999999998,8.5,16
1066,18041.0,0.4,-0.7000000000000001,-3.3000000000000003,1.7000000000000002,1.3,6.4,-13.900000000000002,22.5,7.8,16
1067,18051.0,0.4,-0.6000000000000001,-3.2,1.7000000000000002,1.3,6.4,-13.900000000000002,22.5,7.8,16
1068,18067.0,0.4,-0.5,-3.1,1.6,1.4000000000000001,6.4,-11.2,15.8,4.5,16
1069,18084.0,0.4,-0.30000000000000004,-3.1,1.6,1.5,6.5,-5.300000000000001,5.8,1.2000000000000002,16
1070,18100.0,0.4,-0.2,-3.2,1.6,1.8,6.300000000000001,1.0,-2.3,-2.6,16
1071,18117.0,0.30000000000000004,0.2,-3.4000000000000004,1.5,2.1,6.1000000000000005,3.2,-6.1000000000000005,-7.200000000000001,16
1072,18135.0,0.1,0.4,-3.5,1.3,2.3000000000000003,6.0,2.3,-4.0,-10.600000000000001,16
1073,18152.0,-0.2,0.5,-2.9000000000000004,1.1,2.4000000000000004,6.300000000000001,-2.8,-2.8,-12.8,16
1074,18167.0,-0.30000000000000004,0.5,-2.2,0.9,2.4000000000000004,7.300000000000001,-8.899999999999999,-3.1,-13.000000000000002,16
1075,18184.0,-0.4,0.6000000000000001,-0.8,0.8,2.4000000000000004,8.4,-9.5,-2.4000000000000004,-11.3,16
1076,18200.0,-0.5,0.6000000000000001,-0.30000000000000004,0.6000000000000001,2.5,9.3,-4.300000000000001,-1.9,-7.400000000000001,16
1077,18220.0,-0.7000000000000001,0.8,0.30000000000000004,0.5,2.7,9.700000000000001,2.9,-3.5,-1.3,16
1078,18239.0,-0.5,1.0,0.7000000000000001,0.7000000000000001,2.9000000000000004,10.0,9.899999999999999,-7.6,6.300000000000001,16
1079,18260.0,-0.1,1.2000000000000002,1.2000000000000002,1.0,3.1,10.5,17.200000000000003,-11.8,12.600000000000001,16
1080,18267.0,0.1,1.2000000000000002,1.2000000000000002,1.5,3.2,10.600000000000001,24.900000000000002,-16.1,16.8,16
1081,18284.0,0.6000000000000001,1.1,1.4000000000000001,1.9000000000000001,3.2,10.700000000000001,27.0,-20.3,18.3,16
1082,18300.0,0.8,1.0,1.8,2.3000000000000003,3.1,11.3,23.5,-22.4,16.0,16
1083,18325.0,0.5,0.7000000000000001,2.3000000000000003,1.8,3.0,11.5,15.299999999999999,-4.4,8.100000000000001,16
1084,18343.0,0.1,0.7000000000000001,2.1,1.8,3.0,11.5,15.299999999999999,-4.4,8.100000000000001,16
1085,18352.0,-0.2,0.7000000000000001,1.9000000000000001,1.3,3.0,11.3,7.8,10.9,10.5,16
1086,18367.0,0.0,0.4,2.0,1.5,2.7,11.4,-2.8,17.9,14.900000000000002,16
1087,18388.0,-0.1,0.2,2.8000000000000003,1.5,2.5,12.100000000000001,-10.8,15.2,13.200000000000003,16
1088,18401.0,-0.1,0.0,3.1,1.3,2.2,12.600000000000001,-12.8,7.200000000000001,10.4,16
1089,18418.0,-0.1,-0.5,3.2,1.4000000000000001,1.7000000000000002,12.700000000000001,-10.299999999999999,-4.300000000000001,9.3,16
1090,18456.0,0.5,-1.4000000000000001,2.6,2.1,0.6000000000000001,11.600000000000001,2.0,-11.5,6.8,16
1091,18467.0,0.4,-1.5,1.9000000000000001,2.1,0.6000000000000001,11.600000000000001,2.0,-11.5,6.8,16
1092,18484.0,0.1,-1.5,1.2000000000000002,1.5,0.7000000000000001,10.4,4.0,6.9,7.400000000000001,16
1093,18500.0,-0.6000000000000001,-1.2000000000000002,-0.30000000000000004,0.9,0.9,9.200000000000001,3.1,23.400000000000002,10.299999999999999,16
1094,18519.0,-1.0,-0.9,-1.3,0.5,1.2000000000000002,8.4,-0.4,30.000000000000004,13.6,16
1095,18545.0,-0.9,-0.7000000000000001,-1.6,0.4,1.4000000000000001,8.0,-6.8,24.200000000000003,15.5,16
1096,18552.0,-0.8,-0.6000000000000001,-1.4000000000000001,0.6000000000000001,1.4000000000000001,8.200000000000001,-13.8,11.3,15.399999999999999,16
1097,18567.0,-0.5,-0.6000000000000001,-1.2000000000000002,1.0,1.3,8.6,-16.6,-2.2,12.9,16
1098,18584.0,-0.2,-0.7000000000000001,-0.7000000000000001,1.3,1.2000000000000002,8.8,-14.100000000000001,-8.2,10.700000000000001,16
1099,18604.0,0.1,-0.6000000000000001,-1.0,1.5,1.3,8.5,-9.2,-4.800000000000001,8.899999999999999,16
1100,18618.0,0.1,-0.5,-1.7000000000000002,1.5,1.4000000000000001,7.9,-8.5,3.7000000000000006,7.9,16
1101,18642.0,-0.1,-0.30000000000000004,-2.0,1.4000000000000001,1.5,7.6000000000000005,-12.0,12.7,7.6,16
1102,18661.0,-0.4,-0.1,-1.4000000000000001,0.8,1.7000000000000002,8.200000000000001,-9.600000000000001,24.3,10.9,16
1103,18667.0,-0.4,-0.1,-1.4000000000000001,0.8,1.7000000000000002,8.200000000000001,-9.600000000000001,24.3,10.9,16
1104,18684.0,-0.4,0.1,-1.5,0.8,1.9000000000000001,8.0,1.6,22.4,15.2,16
1105,18700.0,-0.2,0.5,-1.9000000000000001,1.0,2.2,7.7,11.3,15.8,17.300000000000004,16
1106,18721.0,0.0,0.7000000000000001,-2.2,1.2000000000000002,2.4000000000000004,7.4,14.800000000000002,6.300000000000001,14.700000000000001,16
1107,18740.0,0.0,0.7000000000000001,-1.9000000000000001,1.2000000000000002,2.6,8.0,15.2,-8.100000000000001,4.2,16
1108,18751.0,0.0,0.7000000000000001,-1.5,1.2000000000000002,2.6,8.0,15.2,-8.100000000000001,4.2,16
1109,18767.0,0.0,0.6000000000000001,-0.7000000000000001,1.2000000000000002,2.6,8.6,19.300000000000004,-8.4,1.0,16
1110,18784.0,0.0,0.6000000000000001,-0.5,1.3,2.6,9.0,26.5,-5.500000000000001,-1.2000000000000002,16
1111,18802.0,0.0,0.7000000000000001,-0.30000000000000004,1.3,2.8000000000000003,9.1,33.300000000000004,-3.6000000000000005,-4.0,16
1112,18822.0,0.2,0.6000000000000001,-0.6000000000000001,1.4000000000000001,2.9000000000000004,8.8,34.1,-6.9,-8.3,16
1113,18839.0,0.4,0.5,-0.2,1.8,2.8000000000000003,9.600000000000001,15.2,-14.800000000000002,-19.700000000000003,16
1114,18852.0,0.4,0.4,0.30000000000000004,1.8,2.8000000000000003,9.600000000000001,15.2,-14.800000000000002,-19.700000000000003,16
1115,18868.0,0.5,0.2,0.9,1.8,2.5,10.600000000000001,8.700000000000001,-12.9,-26.200000000000003,16
1116,18884.0,0.30000000000000004,-0.2,1.8,1.7000000000000002,2.3000000000000003,11.200000000000001,8.2,-8.899999999999999,-30.1,16
1117,18901.0,0.0,0.1,1.9000000000000001,1.4000000000000001,2.5,11.200000000000001,9.8,-5.6,-30.200000000000003,16
1118,18919.0,0.0,0.1,1.6,1.5,2.5,10.700000000000001,5.500000000000001,-7.1000000000000005,-28.0,16
1119,18944.0,0.6000000000000001,-0.30000000000000004,1.5,2.1,2.1,11.4,-30.1,-26.799999999999997,-24.8,16
1120,18952.0,0.7000000000000001,-0.30000000000000004,2.2,2.1,2.1,11.4,-30.1,-26.799999999999997,-24.8,16
1121,18972.0,1.1,-0.7000000000000001,2.9000000000000004,2.5,1.8,12.200000000000001,-40.800000000000004,-24.5,-23.2,16
1122,18989.0,0.9,-0.8,3.3000000000000003,2.3000000000000003,1.3,13.0,-42.400000000000006,-4.6,-16.200000000000003,16
1123,19000.0,0.7000000000000001,-0.7000000000000001,3.5,2.3000000000000003,1.3,13.0,-42.400000000000006,-4.6,-16.200000000000003,16
1124,19017.0,0.7000000000000001,-0.7000000000000001,3.5,2.3000000000000003,1.2000000000000002,13.0,-33.1,4.4,-10.9,16
1125,19045.0,0.9,-0.8,2.6,2.4000000000000004,1.1,11.8,-4.6,3.7000000000000006,-4.800000000000001,16
1126,19053.0,0.9,-0.8,2.0,2.4000000000000004,1.1,11.8,-4.6,3.7000000000000006,-4.800000000000001,16
1127,19072.0,1.0,-0.7000000000000001,0.5,2.5,1.2000000000000002,10.600000000000001,8.2,-7.200000000000001,-4.4,16
1128,19086.0,1.0,-0.6000000000000001,-0.4,2.6,1.4000000000000001,9.200000000000001,15.000000000000002,-17.0,-5.4,16
1129,19100.0,0.9,-0.30000000000000004,-1.7000000000000002,2.5,1.7000000000000002,8.0,13.700000000000001,-16.200000000000003,-8.0,16
1130,19121.0,0.7000000000000001,-0.4,-2.3000000000000003,2.1,1.6,7.0,1.6,-1.4,-17.0,16
1131,19147.0,0.2,-0.30000000000000004,-2.7,1.7000000000000002,1.7000000000000002,6.7,-3.0,3.0,-19.9,16
1132,19151.0,0.2,-0.30000000000000004,-2.7,1.7000000000000002,1.7000000000000002,6.7,-3.0,3.0,-19.9,16
1133,19173.0,-0.2,-0.30000000000000004,-3.2,1.4000000000000001,1.8,6.5,-15.5,-3.8,-21.0,16
1134,19184.0,-0.2,-0.2,-3.0,1.4000000000000001,1.8,6.5,-15.5,-3.8,-21.0,16
1135,19201.0,0.0,-0.2,-2.4000000000000004,1.6,1.8,7.0,-16.0,-6.1000000000000005,-19.700000000000003,16
1136,19217.0,0.2,-0.2,-2.0,1.8,1.8,7.5,-10.0,-6.699999999999999,-21.0,16
1137,19243.0,0.0,0.1,-1.8,1.4000000000000001,2.4000000000000004,7.300000000000001,0.6000000000000001,-6.2,-23.5,16
1138,19255.0,-0.2,0.6000000000000001,-2.2,1.4000000000000001,2.4000000000000004,7.300000000000001,8.899999999999999,-7.200000000000001,-21.6,16
1139,19267.0,-0.30000000000000004,0.7000000000000001,-2.2,1.4000000000000001,2.8000000000000003,7.2,13.100000000000001,-5.4,-19.1,16
1140,19284.0,-0.30000000000000004,0.8,-2.3000000000000003,1.3,2.8000000000000003,7.1000000000000005,16.4,-2.3,-17.400000000000002,16
1141,19301.0,-0.7000000000000001,0.9,-2.8000000000000003,1.0,2.9000000000000004,6.7,12.9,-1.4,-16.0,16
1142,19319.0,-0.8,1.0,-2.9000000000000004,0.8,3.2,6.4,0.0,-2.3,-12.0,16
1143,19345.0,-0.4,1.3,-1.4000000000000001,1.3,3.2,8.3,-31.9,2.6,-4.2,16
1144,19351.0,-0.4,1.3,-1.4000000000000001,1.3,3.2,8.3,-31.9,2.6,-4.2,16
1145,19367.0,-0.1,0.8,0.2,1.5,2.7,9.600000000000001,-30.3,8.3,-3.7000000000000006,16
1146,19384.0,-0.5,0.7000000000000001,1.3,1.1,2.7,10.600000000000001,-17.200000000000003,9.100000000000001,-3.6000000000000005,16
1147,19400.0,-0.7000000000000001,0.7000000000000001,1.7000000000000002,0.8,2.6,11.100000000000001,1.8000000000000003,2.2,-0.2,16
1148,19426.0,-0.30000000000000004,0.30000000000000004,1.5,1.6,2.3000000000000003,11.0,23.2,-28.0,7.699999999999999,16
1149,19436.0,0.0,0.2,1.6,1.6,2.3000000000000003,11.0,23.2,-28.0,7.699999999999999,16
1150,19451.0,0.2,0.2,1.9000000000000001,2.0,2.2,11.3,20.0,-39.400000000000006,7.300000000000001,16
1151,19467.0,0.6000000000000001,-0.1,2.3000000000000003,2.4000000000000004,2.0,11.600000000000001,14.100000000000001,-42.3,5.7,16
1152,19484.0,0.5,0.0,2.1,2.4000000000000004,2.1,11.5,8.4,-24.200000000000003,4.5,16
1153,19500.0,0.5,-0.2,2.0,2.5,1.9000000000000001,11.3,-2.4000000000000004,-5.0,6.1000000000000005,16
1154,19520.0,0.8,-0.30000000000000004,2.2,2.7,1.8,11.5,-16.900000000000002,7.0,7.699999999999999,16
1155,19537.0,1.1,-0.2,2.9000000000000004,3.0,1.8,12.100000000000001,-26.300000000000004,14.400000000000002,7.9,16
1156,19551.0,1.2000000000000002,-0.30000000000000004,3.1,3.1,1.6,12.5,-25.7,19.400000000000002,5.7,16
1157,19567.0,1.3,-0.5,3.0,3.1,1.4000000000000001,12.5,-19.200000000000003,18.900000000000002,0.8,16
1158,19584.0,0.9,-0.7000000000000001,2.5,2.8000000000000003,1.2000000000000002,12.100000000000001,-11.1,15.299999999999999,-5.4,16
1159,19600.0,0.6000000000000001,-0.8,2.1,2.4000000000000004,1.0,11.5,-4.9,12.5,-10.600000000000001,16
1160,19617.0,0.0,-1.0,1.2000000000000002,1.8,0.8,10.8,-2.1,12.8,-13.700000000000001,16
1161,19639.0,-0.8,-0.9,0.30000000000000004,1.1,0.9,10.100000000000001,-0.1,20.400000000000002,-12.7,16
1162,19651.0,-1.3,-0.8,-0.2,0.30000000000000004,1.0,9.3,3.4,29.700000000000006,-7.8,16
1163,19667.0,-1.8,-0.6000000000000001,-1.0,-0.30000000000000004,1.2000000000000002,8.700000000000001,5.6,34.800000000000004,0.7,16
1164,19684.0,-1.9000000000000001,-0.5,-1.3,-0.5,1.4000000000000001,8.200000000000001,6.2,29.700000000000006,9.4,16
1165,19700.0,-1.7000000000000002,-0.2,-1.7000000000000002,-0.30000000000000004,1.7000000000000002,7.800000000000001,2.3,14.100000000000001,15.700000000000001,16
1166,19718.0,-1.1,-0.1,-1.7000000000000002,0.2,1.8,7.9,-4.1,-5.7,17.5,16
1167,19736.0,-0.7000000000000001,0.0,-1.6,0.6000000000000001,1.8,8.0,-10.200000000000001,-21.6,17.300000000000004,16
1168,19751.0,-0.4,0.1,-1.6,1.1,1.9000000000000001,7.9,-15.399999999999999,-29.500000000000004,16.700000000000003,16
1169,19767.0,0.2,0.30000000000000004,-1.6,1.7000000000000002,1.9000000000000001,7.9,-22.000000000000004,-29.900000000000006,14.600000000000001,16
