,ms,accelX,accelY,accelZ,accelWithGX,accelWithGY,accelWithGZ,rotRateAlpha,rotRateBeta,rotRateGamma,interval
0,110.0,0.0,0.1,0.0,2.3000000000000003,3.7,8.9,-1.3,-5.300000000000001,-12.0,16
1,117.0,0.0,0.1,-0.1,2.3000000000000003,3.7,8.9,-0.9000000000000001,-5.8,-12.100000000000001,16
2,134.0,0.0,0.1,-0.1,2.3000000000000003,3.8000000000000003,8.9,-0.9000000000000001,-5.8,-12.100000000000001,16
3,151.0,0.0,0.1,-0.1,2.3000000000000003,3.8000000000000003,8.9,-1.3,-5.300000000000001,-12.5,16
4,168.0,0.0,0.1,0.0,2.3000000000000003,3.8000000000000003,9.0,-1.6,-3.7000000000000006,-12.600000000000001,16
5,184.0,0.0,0.1,0.0,2.2,3.8000000000000003,8.8,-1.7,-2.6,-12.9,16
6,201.0,-0.1,0.1,-0.1,2.2,3.8000000000000003,8.9,-2.8,-2.6,-14.200000000000001,16
7,221.0,-0.2,0.0,0.0,2.1,3.8000000000000003,8.9,-3.4,-2.8,-14.200000000000001,16
8,234.0,-0.2,0.0,0.0,2.1,3.7,9.0,-3.8,-3.7000000000000006,-13.900000000000002,16
9,251.0,-0.1,0.0,0.1,2.1,3.7,9.0,-3.8,-3.5,-13.5,16
10,267.0,-0.1,-0.1,0.2,2.1,3.7,9.200000000000001,-3.5,-2.2,-13.200000000000003,16
11,284.0,-0.1,-0.1,0.2,2.1,3.6,9.1,-2.4000000000000004,0.30000000000000004,-13.200000000000003,16
12,305.0,-0.1,-0.1,0.0,2.1,3.6,9.0,-1.5,2.5,-13.000000000000002,16
13,318.0,-0.1,-0.1,0.1,2.1,3.7,9.1,-1.4,3.6000000000000005,-12.5,16
14,335.0,-0.1,-0.1,0.0,2.0,3.7,8.9,-0.7,4.0,-12.5,16
15,351.0,-0.1,-0.1,0.0,1.9000000000000001,3.7,8.8,-0.7,4.0,-12.5,16
16,370.0,-0.2,0.0,0.0,1.9000000000000001,3.7,9.0,-2.7,2.5,-11.900000000000002,16
17,384.0,-0.2,0.0,0.0,1.9000000000000001,3.7,9.0,-2.7,2.5,-11.900000000000002,16
18,406.0,-0.2,0.0,0.0,1.8,3.7,9.0,-3.7000000000000006,0.7,-9.5,16
19,418.0,-0.1,0.0,0.0,1.9000000000000001,3.7,9.0,-4.300000000000001,0.30000000000000004,-7.8,16
20,437.0,0.0,0.0,0.1,2.0,3.8000000000000003,9.1,-4.1,1.0,-7.300000000000001,16
21,452.0,0.0,0.0,0.0,2.0,3.8000000000000003,9.0,-3.3000000000000007,2.2,-7.8,16
22,468.0,0.0,0.1,-0.1,2.0,3.8000000000000003,8.9,-3.4,3.1,-8.3,16
23,485.0,-0.1,0.1,-0.1,1.8,3.8000000000000003,8.9,-4.7,3.3000000000000007,-8.3,16
24,501.0,-0.1,0.1,-0.1,1.8,3.7,9.0,-4.7,3.3000000000000007,-8.3,16
25,521.0,-0.1,0.0,0.0,1.7000000000000002,3.7,9.0,-6.9,4.0,-7.400000000000001,16
26,534.0,-0.2,0.0,0.0,1.7000000000000002,3.7,9.1,-7.500000000000001,4.0,-7.0,16
27,552.0,-0.2,0.0,0.2,1.6,3.6,9.4,-7.500000000000001,3.2,-6.2,16
28,569.0,-0.2,0.0,0.2,1.7000000000000002,3.6,9.5,-7.500000000000001,3.2,-6.2,16
29,585.0,-0.2,0.0,0.4,1.6,3.6,9.5,-3.0,1.7,-4.7,16
30,601.0,-0.2,-0.1,0.30000000000000004,1.6,3.5,9.3,-0.7,0.6000000000000001,-4.0,16
31,620.0,-0.2,-0.1,0.1,1.6,3.5,9.200000000000001,0.30000000000000004,1.6,-2.9,16
32,634.0,-0.1,-0.1,0.0,1.7000000000000002,3.6,9.1,0.2,4.1,-2.1,16
33,651.0,-0.1,-0.1,-0.1,1.6,3.6,8.9,-0.9000000000000001,6.500000000000001,-1.8000000000000003,16
34,667.0,-0.1,0.0,-0.1,1.6,3.6,9.0,-2.8,8.0,-1.8000000000000003,16
35,684.0,-0.1,0.0,0.0,1.6,3.6,9.1,-4.1,7.9,-1.3,16
36,701.0,-0.1,-0.1,0.1,1.5,3.5,9.200000000000001,-4.1,7.1000000000000005,-0.6000000000000001,16
37,720.0,-0.1,-0.1,0.2,1.5,3.5,9.3,-3.2,5.7,0.2,16
38,736.0,-0.1,-0.1,0.2,1.5,3.5,9.3,-1.4,4.5,1.5,16
39,751.0,0.0,0.0,0.1,1.6,3.6,9.200000000000001,-0.1,3.2,2.2,16
40,767.0,0.0,0.0,-0.1,1.6,3.6,9.0,0.0,2.2,2.5,16
41,784.0,0.0,0.0,-0.2,1.6,3.6,9.0,-0.8,2.4000000000000004,2.7,16
42,801.0,0.0,0.0,-0.2,1.7000000000000002,3.6,8.9,-2.2,3.6000000000000005,3.2,16
43,819.0,0.0,0.0,-0.2,1.6,3.6,9.0,-3.5,3.8,3.2,16
44,834.0,0.0,0.0,-0.2,1.6,3.6,9.0,-3.5,3.8,3.2,16
45,851.0,0.0,0.0,0.0,1.6,3.5,9.200000000000001,-4.0,3.2,3.9,16
46,867.0,0.1,0.0,0.2,1.7000000000000002,3.5,9.3,-2.3,2.3,3.8,16
47,884.0,0.1,0.0,0.2,1.6,3.5,9.1,-0.4,1.5,3.3000000000000007,16
48,901.0,-0.1,0.0,-0.30000000000000004,1.5,3.5,8.9,-1.5,1.0,3.6000000000000005,16
49,921.0,0.0,0.0,-0.2,1.6,3.5,9.0,-4.300000000000001,1.5,4.2,16
50,935.0,0.1,0.0,-0.1,1.7000000000000002,3.5,9.200000000000001,-5.9,2.4000000000000004,4.1,16
51,951.0,0.1,0.0,0.1,1.7000000000000002,3.5,9.3,-6.0,2.5,3.9,16
52,967.0,0.0,0.0,0.2,1.6,3.4000000000000004,9.4,-4.6,2.7,4.0,16
53,984.0,0.0,0.0,0.2,1.6,3.5,9.4,-2.9,3.1,4.4,16
54,1003.0,0.0,0.1,0.1,1.6,3.6,9.1,-1.1,3.7000000000000006,4.7,16
55,1019.0,0.0,0.1,-0.1,1.6,3.5,9.1,-1.3,3.1,5.0,16
56,1034.0,0.0,0.2,-0.1,1.6,3.6,9.200000000000001,-3.2,2.6,5.2,16
57,1051.0,0.0,0.2,0.1,1.6,3.6,9.3,-4.800000000000001,3.0,5.6,16
58,1067.0,0.1,0.1,0.30000000000000004,1.7000000000000002,3.6,9.5,-4.7,5.0,5.4,16
59,1084.0,0.1,0.1,0.4,1.7000000000000002,3.5,9.600000000000001,-3.7000000000000006,6.0,4.9,16
60,1101.0,0.1,0.1,0.4,1.8,3.5,9.600000000000001,-3.7000000000000006,6.0,4.9,16
61,1122.0,0.2,0.1,0.30000000000000004,1.8,3.4000000000000004,9.600000000000001,-0.4,8.899999999999999,4.4,16
62,1134.0,0.30000000000000004,0.0,0.30000000000000004,1.8,3.4000000000000004,9.600000000000001,1.5,9.100000000000001,4.5,16
63,1151.0,0.30000000000000004,0.0,0.30000000000000004,1.7000000000000002,3.4000000000000004,9.5,1.5,9.100000000000001,4.5,16
64,1167.0,0.1,0.0,0.1,1.6,3.4000000000000004,9.4,6.1000000000000005,11.5,6.4,16
65,1184.0,0.2,0.1,0.0,1.7000000000000002,3.6,9.3,8.4,13.3,8.4,16
66,1201.0,0.5,0.2,0.0,2.0,3.7,9.3,8.4,13.3,8.4,16
67,1217.0,0.6000000000000001,0.2,0.0,2.0,3.7,9.3,11.700000000000001,15.299999999999999,6.4,16
68,1235.0,0.5,0.2,0.1,2.0,3.7,9.4,13.6,16.8,3.5,16
69,1251.0,0.6000000000000001,0.1,0.0,2.0,3.7,9.3,15.8,18.3,0.7,16
70,1267.0,0.8,-0.2,0.1,2.2,3.5,9.4,17.6,17.799999999999997,-3.0,16
71,1284.0,1.0,-0.4,0.4,2.2,3.3000000000000003,9.700000000000001,20.8,17.7,-8.2,16
72,1301.0,0.6000000000000001,-0.4,0.4,1.8,3.5,9.200000000000001,25.300000000000004,25.1,-12.5,16
73,1320.0,1.7000000000000002,-0.8,0.0,2.9000000000000004,3.0,9.200000000000001,22.8,33.300000000000004,-17.400000000000002,16
74,1335.0,0.5,0.1,0.0,1.1,4.3,9.1,19.6,27.700000000000003,-31.7,16
75,1351.0,-0.1,0.4,-0.6000000000000001,0.8,4.5,8.700000000000001,19.6,27.700000000000003,-31.7,16
76,1368.0,-0.1,0.4,-0.6000000000000001,2.0,3.3000000000000003,8.4,17.0,32.300000000000004,-34.800000000000004,16
77,1386.0,2.0,-1.1,-0.6000000000000001,2.8000000000000003,2.9000000000000004,8.6,0.0,30.699999999999996,-45.7,16
78,1404.0,2.0,-1.1,-0.6000000000000001,1.2000000000000002,3.8000000000000003,8.5,0.0,30.699999999999996,-45.7,16
79,1420.0,0.1,0.0,-0.8,0.1,4.2,8.1,-2.8,43.70000000000001,-56.10000000000001,16
80,1434.0,-0.4,-0.5,-0.8,-0.2,3.3000000000000003,8.4,-15.8,55.5,-44.10000000000001,16
81,1451.0,-0.4,-0.30000000000000004,-0.30000000000000004,-0.6000000000000001,3.6,9.1,-17.200000000000003,66.2,-36.6,16
82,1467.0,-0.6000000000000001,0.1,0.2,-1.0,4.0,9.700000000000001,-15.399999999999999,58.2,-30.9,16
83,1484.0,-0.6000000000000001,0.1,0.2,-1.0,4.0,9.700000000000001,-15.399999999999999,58.2,-30.9,16
84,1500.0,-0.8,0.1,0.9,-1.0,3.8000000000000003,10.3,-9.700000000000001,26.200000000000003,-26.9,16
85,1526.0,-0.30000000000000004,-0.2,1.2000000000000002,-0.9,3.7,10.3,20.900000000000002,-0.1,-16.200000000000003,16
86,1534.0,-1.0,0.1,0.5,-1.5,4.0,9.600000000000001,34.300000000000004,-2.3,-12.7,16
87,1550.0,-2.2,0.4,-0.7000000000000001,-2.8000000000000003,4.5,8.200000000000001,38.2,-1.9,-3.9,16
88,1567.0,-1.1,-0.30000000000000004,-1.2000000000000002,-0.8,3.6,7.9,29.0,-6.4,9.3,16
89,1584.0,-0.1,-0.30000000000000004,-0.9,-0.5,3.8000000000000003,8.200000000000001,15.8,-5.8,13.5,16
90,1601.0,0.30000000000000004,-0.30000000000000004,-0.5,0.2,3.8000000000000003,8.6,6.500000000000001,-0.6000000000000001,12.5,16
91,1619.0,0.4,-0.1,-0.30000000000000004,-0.2,4.1000000000000005,8.700000000000001,2.4000000000000004,8.4,8.2,16
92,1635.0,-0.2,0.0,-0.4,-0.6000000000000001,4.1000000000000005,8.700000000000001,1.0,16.200000000000003,2.9,16
93,1651.0,0.1,-0.30000000000000004,-0.7000000000000001,-0.30000000000000004,3.7,8.200000000000001,-1.0,21.200000000000003,1.8000000000000003,16
94,1667.0,-0.1,-0.4,-1.0,-0.8,3.9000000000000004,8.0,-6.4,23.5,0.2,16
95,1685.0,-0.2,-0.30000000000000004,-1.2000000000000002,-0.5,3.7,8.0,-13.5,24.400000000000002,1.4,16
96,1701.0,0.1,-0.30000000000000004,-0.8,-0.5,3.8000000000000003,8.3,-20.1,21.500000000000004,2.8,16
97,1725.0,0.1,-0.2,-0.30000000000000004,-0.5,3.6,8.9,-21.300000000000004,18.6,1.1,16
98,1735.0,0.2,-0.30000000000000004,-0.2,-0.6000000000000001,3.6,8.8,-19.400000000000002,14.600000000000001,0.30000000000000004,16
99,1751.0,0.0,-0.1,-0.4,-0.7000000000000001,3.8000000000000003,8.6,-18.200000000000003,11.2,-0.4,16
100,1767.0,0.1,-0.1,-0.8,-0.6000000000000001,3.7,8.200000000000001,-20.2,7.1000000000000005,-0.30000000000000004,16
101,1784.0,-0.2,0.1,-0.5,-1.3,4.2,9.1,-24.0,3.5,-1.2000000000000002,16
102,1801.0,-0.2,0.5,0.6000000000000001,-0.9,4.2,9.9,-22.8,8.2,-0.4,16
103,1819.0,0.30000000000000004,0.1,1.3,-0.6000000000000001,3.7,10.4,-10.200000000000001,17.0,-3.2,16
104,1834.0,-0.30000000000000004,0.0,0.9,-1.3,3.6,10.0,0.1,13.6,-5.1000000000000005,16
105,1851.0,-0.4,-0.2,0.6000000000000001,-1.3,3.5,9.700000000000001,7.1000000000000005,10.9,-1.9,16
106,1867.0,-0.30000000000000004,-0.1,0.30000000000000004,-1.2000000000000002,3.6,9.5,9.700000000000001,9.2,1.3,16
107,1884.0,-0.2,0.0,0.4,-1.0,3.8000000000000003,9.5,10.700000000000001,9.2,2.3,16
108,1900.0,0.0,0.1,0.1,-1.0,3.8000000000000003,9.3,11.900000000000002,8.899999999999999,1.8000000000000003,16
109,1924.0,0.1,0.2,0.1,-0.7000000000000001,4.0,9.3,11.700000000000001,7.6,0.4,16
110,1934.0,0.30000000000000004,0.2,0.1,-0.6000000000000001,4.1000000000000005,9.1,13.100000000000001,4.9,-1.3,16
111,1950.0,0.30000000000000004,0.2,0.1,-0.7000000000000001,4.2,8.9,13.100000000000001,4.9,-1.3,16
112,1967.0,0.30000000000000004,0.2,-0.7000000000000001,-0.7000000000000001,4.2,8.200000000000001,13.100000000000001,-4.4,-8.3,16
113,1984.0,0.30000000000000004,0.30000000000000004,-0.9,-0.7000000000000001,4.2,8.1,8.0,-8.100000000000001,-10.700000000000001,16
114,2001.0,0.4,0.2,-0.7000000000000001,-0.5,4.1000000000000005,8.4,3.0,-14.100000000000001,-12.100000000000001,16
115,2018.0,0.5,0.2,-0.6000000000000001,-0.5,4.1000000000000005,8.5,0.0,-19.5,-14.200000000000001,16
116,2034.0,0.30000000000000004,0.1,-0.5,-0.6000000000000001,4.0,8.6,-2.1,-23.700000000000003,-15.6,16
117,2051.0,0.30000000000000004,0.1,-0.5,-0.5,3.9000000000000004,8.700000000000001,-2.2,-22.4,-16.4,16
118,2072.0,0.2,0.0,-0.4,-0.5,3.8000000000000003,8.5,-2.2,-20.0,-15.700000000000001,16
119,2084.0,0.30000000000000004,0.0,-0.6000000000000001,-0.4,3.9000000000000004,8.4,-3.2,-15.2,-14.600000000000001,16
120,2101.0,0.30000000000000004,0.0,-0.8,-0.5,3.8000000000000003,8.4,-6.699999999999999,-11.6,-16.200000000000003,16
121,2123.0,0.1,-0.1,-0.5,-0.9,3.6,8.700000000000001,-11.700000000000001,-8.8,-17.799999999999997,16
122,2135.0,0.0,-0.4,-0.1,-0.7000000000000001,3.3000000000000003,9.1,-14.5,-4.6,-17.400000000000002,16
123,2151.0,-0.4,-0.4,0.5,-1.5,3.6,9.9,-14.300000000000002,-10.200000000000001,-16.3,16
124,2167.0,-0.6000000000000001,0.30000000000000004,0.7000000000000001,-1.4000000000000001,4.1000000000000005,9.8,-10.200000000000001,-18.200000000000003,-12.600000000000001,16
125,2184.0,-0.7000000000000001,0.1,0.6000000000000001,-1.5,3.6,9.8,-8.8,-5.4,-12.200000000000001,16
126,2201.0,-0.9,-0.1,0.6000000000000001,-1.5,3.7,9.600000000000001,-8.3,-5.500000000000001,-7.0,16
127,2226.0,-0.6000000000000001,0.1,0.1,-1.4000000000000001,3.7,9.200000000000001,-10.8,1.4,-2.8,16
128,2235.0,-0.6000000000000001,0.1,-0.1,-1.5,3.7,9.0,-17.300000000000004,15.299999999999999,-0.7,16
129,2253.0,-0.7000000000000001,0.30000000000000004,-0.2,-1.5,3.7,9.1,-24.3,28.400000000000002,3.2,16
130,2268.0,-0.2,0.0,0.1,-1.2000000000000002,3.5,9.3,-28.500000000000004,40.300000000000004,6.2,16
131,2284.0,-0.30000000000000004,0.0,0.30000000000000004,-1.4000000000000001,3.4000000000000004,9.5,-29.500000000000004,41.50000000000001,4.6,16
132,2301.0,-0.30000000000000004,0.0,0.6000000000000001,-1.5,3.3000000000000003,9.9,-26.1,35.9,3.1,16
133,2322.0,-0.4,-0.1,0.6000000000000001,-1.7000000000000002,2.9000000000000004,9.9,-17.6,25.900000000000002,2.2,16
134,2334.0,-0.5,-0.4,0.5,-1.8,2.8000000000000003,9.8,-9.100000000000001,10.0,0.4,16
135,2356.0,-0.6000000000000001,-0.6000000000000001,0.7000000000000001,-1.9000000000000001,2.6,10.0,-2.7,-9.600000000000001,-0.4,16
136,2368.0,-0.30000000000000004,-0.8,0.7000000000000001,-1.4000000000000001,2.5,9.9,4.800000000000001,-25.200000000000003,-0.1,16
137,2384.0,-0.4,-0.4,0.2,-1.5,2.9000000000000004,9.5,14.400000000000002,-27.0,-1.7,16
138,2401.0,-0.6000000000000001,0.0,-0.4,-1.5,3.4000000000000004,8.8,20.900000000000002,-23.700000000000003,0.9000000000000001,16
139,2422.0,-0.1,-0.1,-0.5,-0.8,3.1,8.700000000000001,20.7,-28.3,4.9,16
140,2435.0,0.5,-0.4,-0.5,-0.4,3.0,8.700000000000001,17.6,-33.800000000000004,4.2,16
141,2451.0,0.30000000000000004,0.0,-0.7000000000000001,-0.6000000000000001,3.6,8.4,14.700000000000001,-30.1,0.1,16
142,2475.0,0.2,0.2,-1.2000000000000002,-0.6000000000000001,3.7,7.800000000000001,7.9,-25.900000000000002,-0.6000000000000001,16
143,2485.0,0.2,0.2,-1.2000000000000002,-1.1,4.2,8.1,7.9,-25.900000000000002,-0.6000000000000001,16
144,2501.0,0.7000000000000001,0.30000000000000004,-0.2,0.1,3.7,9.200000000000001,-7.0,-11.5,5.8,16
145,2519.0,0.5,0.5,0.0,-0.1,3.9000000000000004,9.200000000000001,-5.1000000000000005,-9.899999999999999,1.9,16
146,2534.0,0.5,0.5,0.0,-0.1,3.9000000000000004,9.200000000000001,-5.1000000000000005,-9.899999999999999,1.9,16
147,2552.0,0.5,0.5,0.0,-0.30000000000000004,3.8000000000000003,9.1,-5.1000000000000005,-9.899999999999999,1.9,16
148,2569.0,-0.2,0.30000000000000004,-0.5,-0.6000000000000001,3.7,8.8,-7.6,-22.2,2.2,16
149,2584.0,-0.1,0.2,-0.4,-0.4,3.6,8.9,-9.4,-16.200000000000003,6.2,16
150,2601.0,0.1,0.30000000000000004,-0.30000000000000004,-0.30000000000000004,3.6,9.0,-9.8,-9.2,8.8,16
151,2621.0,0.30000000000000004,0.2,0.0,0.0,3.6,9.4,-9.0,-7.8,8.0,16
152,2636.0,0.30000000000000004,0.1,-0.1,-0.1,3.3000000000000003,9.0,-7.1000000000000005,-8.600000000000001,5.2,16
153,2651.0,0.1,0.0,-0.5,-0.2,3.3000000000000003,8.700000000000001,-7.9,-8.8,2.8,16
154,2667.0,0.1,-0.2,-0.7000000000000001,-0.2,3.0,8.6,-12.8,-6.2,2.5,16
155,2684.0,0.1,-0.30000000000000004,-0.5,-0.2,3.0,8.8,-17.7,1.9,2.8,16
156,2701.0,0.2,-0.30000000000000004,-0.4,-0.1,2.9000000000000004,9.0,-19.9,13.000000000000002,3.7000000000000006,16
157,2720.0,0.2,-0.30000000000000004,-0.30000000000000004,-0.30000000000000004,2.8000000000000003,9.0,-21.500000000000004,22.4,3.0,16
158,2736.0,0.1,-0.30000000000000004,-0.30000000000000004,-0.5,2.7,8.9,-23.900000000000006,25.1,2.0,16
159,2751.0,0.1,-0.30000000000000004,-0.30000000000000004,-0.5,2.7,8.8,-23.900000000000006,25.1,2.0,16
160,2767.0,-0.30000000000000004,-0.2,-1.0,-0.9,2.7,8.3,-37.400000000000006,8.8,-2.5,16
161,2784.0,-0.30000000000000004,-0.1,-0.5,-0.8,2.6,9.4,-47.60000000000001,-0.30000000000000004,-2.3,16
162,2802.0,-0.30000000000000004,0.1,1.1,-0.8,2.7,10.5,-47.60000000000001,-0.30000000000000004,-2.3,16
163,2826.0,-0.1,0.0,2.1,-0.5,2.2,11.600000000000001,-37.2,-11.6,0.9000000000000001,16
164,2836.0,-0.1,-0.2,1.9000000000000001,-0.7000000000000001,2.3000000000000003,11.200000000000001,-16.3,-6.4,2.4000000000000004,16
165,2851.0,-0.1,-0.2,1.9000000000000001,-0.9,2.4000000000000004,10.700000000000001,-16.3,-6.4,2.4000000000000004,16
166,2867.0,-0.2,-0.1,0.30000000000000004,-0.6000000000000001,2.3000000000000003,9.8,2.5,-11.1,10.0,16
167,2885.0,-0.1,0.0,0.0,-0.4,2.5,9.5,0.9000000000000001,-11.4,11.4,16
168,2903.0,-0.1,0.2,-0.2,-0.4,2.7,9.4,-2.8,-12.5,11.000000000000002,16
169,2921.0,-0.1,0.30000000000000004,-0.2,-0.2,2.7,9.5,-6.2,-12.8,10.600000000000001,16
170,2935.0,0.1,0.30000000000000004,0.0,-0.1,2.6,9.600000000000001,-7.300000000000001,-12.100000000000001,9.700000000000001,16
171,2951.0,0.1,0.30000000000000004,0.0,0.1,2.5,9.700000000000001,-7.300000000000001,-12.100000000000001,9.700000000000001,16
172,2968.0,0.2,0.2,0.1,0.0,2.6,9.700000000000001,-3.7000000000000006,-5.9,1.8000000000000003,16
173,2984.0,-0.1,0.2,-0.1,-0.2,2.5,9.5,-1.4,0.0,0.8,16
174,3001.0,-0.1,0.1,-0.2,-0.4,2.5,9.4,-1.3,4.2,0.30000000000000004,16
175,3024.0,-0.1,0.1,-0.2,-0.4,2.4000000000000004,9.4,-1.3,4.2,0.30000000000000004,16
176,3035.0,-0.2,0.1,-0.2,-0.4,2.3000000000000003,9.3,-1.3,10.299999999999999,0.8,16
177,3051.0,-0.4,0.0,-0.4,-0.8,2.4000000000000004,9.3,-4.0,16.200000000000003,3.6000000000000005,16
178,3068.0,-0.4,0.0,-0.4,-0.7000000000000001,2.3000000000000003,9.4,-4.0,16.200000000000003,3.6000000000000005,16
179,3085.0,-0.2,-0.1,0.0,-0.6000000000000001,2.2,9.600000000000001,-5.2,12.9,5.6,16
180,3101.0,-0.2,-0.1,0.0,-0.7000000000000001,2.2,9.600000000000001,-4.0,10.600000000000001,4.800000000000001,16
181,3118.0,-0.2,-0.1,0.0,-0.7000000000000001,2.2,9.600000000000001,-4.0,10.600000000000001,4.800000000000001,16
182,3144.0,-0.30000000000000004,-0.2,0.0,-0.5,1.9000000000000001,9.700000000000001,-4.2,10.5,5.1000000000000005,16
183,3151.0,0.0,-0.30000000000000004,0.2,-0.5,2.0,9.8,-4.5,11.8,5.6,16
184,3169.0,0.0,-0.30000000000000004,0.2,-0.5,2.0,9.8,-3.0,14.900000000000002,6.0,16
185,3185.0,0.1,-0.2,0.1,-0.5,2.1,9.700000000000001,-1.5,14.400000000000002,7.0,16
186,3201.0,0.30000000000000004,-0.2,-0.1,-0.30000000000000004,2.1,9.4,0.0,14.200000000000001,6.1000000000000005,16
187,3217.0,0.30000000000000004,-0.2,-0.1,-0.4,2.3000000000000003,8.9,0.0,14.200000000000001,6.1000000000000005,16
188,3234.0,0.30000000000000004,0.0,-0.8,-0.4,2.2,8.8,-4.2,7.400000000000001,2.0,16
189,3251.0,0.2,0.0,-0.7000000000000001,-0.4,2.2,9.0,-8.3,5.1000000000000005,0.5,16
190,3267.0,0.30000000000000004,-0.1,-0.4,-0.30000000000000004,2.2,9.200000000000001,-9.5,5.7,-0.4,16
191,3284.0,0.2,0.1,-0.4,-0.4,2.2,9.200000000000001,-8.8,5.6,-2.0,16
192,3302.0,0.1,0.1,-0.6000000000000001,-0.6000000000000001,2.3000000000000003,9.0,-9.3,5.500000000000001,-2.7,16
193,3325.0,0.0,0.2,-0.7000000000000001,-0.7000000000000001,2.3000000000000003,9.1,-12.600000000000001,2.4000000000000004,-2.9,16
194,3334.0,0.0,0.2,-0.7000000000000001,-0.7000000000000001,2.3000000000000003,9.1,-12.600000000000001,2.4000000000000004,-2.9,16
195,3360.0,-0.1,0.2,-0.1,-0.8,2.1,9.600000000000001,-19.0,-3.5,-3.2,16
196,3372.0,-0.2,0.1,0.0,-0.9,2.1,9.700000000000001,-19.0,-7.0,-2.9,16
197,3384.0,-0.30000000000000004,0.0,0.2,-0.9,1.8,10.0,-19.700000000000003,-10.9,-2.1,16
198,3403.0,-0.2,-0.1,0.6000000000000001,-0.8,1.8,10.3,-18.700000000000003,-11.1,-0.30000000000000004,16
199,3419.0,-0.1,-0.1,0.8,-0.6000000000000001,1.7000000000000002,10.600000000000001,-14.900000000000002,-11.4,0.4,16
200,3435.0,-0.1,-0.2,0.9,-0.6000000000000001,1.6,10.700000000000001,-8.899999999999999,-12.100000000000001,-0.2,16
201,3451.0,0.0,-0.30000000000000004,0.7000000000000001,-0.6000000000000001,1.5,10.5,-1.6,-11.4,-0.30000000000000004,16
202,3467.0,-0.1,-0.2,0.4,-0.6000000000000001,1.6,10.0,3.8,-10.4,0.1,16
203,3484.0,-0.1,-0.2,-0.1,-0.6000000000000001,1.6,9.4,6.0,-8.4,1.1,16
204,3501.0,-0.2,-0.1,-0.5,-0.6000000000000001,1.7000000000000002,9.3,3.8,-6.699999999999999,2.0,16
205,3520.0,-0.2,0.0,-0.4,-0.7000000000000001,1.8,9.4,-0.30000000000000004,-6.0,2.7,16
206,3534.0,-0.2,0.0,-0.1,-0.7000000000000001,1.8,9.5,-2.7,-4.6,3.9,16
207,3551.0,-0.30000000000000004,0.0,0.1,-0.7000000000000001,1.8,9.9,-2.4000000000000004,-2.9,5.300000000000001,16
208,3569.0,-0.30000000000000004,0.1,0.2,-0.8,1.9000000000000001,10.0,0.4,-3.8,6.600000000000001,16
209,3585.0,-0.30000000000000004,0.0,0.1,-0.8,1.8,9.8,2.9,-6.2,7.400000000000001,16
210,3603.0,-0.4,0.0,-0.1,-0.8,1.8,9.600000000000001,4.0,-8.8,7.9,16
211,3622.0,-0.30000000000000004,0.0,-0.1,-0.7000000000000001,1.8,9.600000000000001,2.2,-10.700000000000001,9.2,16
212,3634.0,-0.2,-0.1,0.1,-0.5,1.7000000000000002,10.0,0.30000000000000004,-9.4,10.299999999999999,16
213,3652.0,-0.2,-0.1,0.1,-0.4,1.6,10.100000000000001,1.0,-6.300000000000001,11.000000000000002,16
214,3668.0,0.0,-0.2,0.5,-0.4,1.6,10.200000000000001,3.6000000000000005,-2.8,11.1,16
215,3684.0,0.0,-0.30000000000000004,0.4,-0.4,1.5,10.100000000000001,6.0,-1.7,11.6,16
216,3701.0,0.0,-0.30000000000000004,0.4,-0.5,1.5,9.600000000000001,6.300000000000001,-5.0,11.900000000000002,16
217,3723.0,-0.1,-0.30000000000000004,-0.2,-0.2,1.5,9.4,3.5,-7.300000000000001,13.399999999999999,16
218,3734.0,0.1,-0.4,-0.5,-0.1,1.5,9.1,1.3,-3.9,14.900000000000002,16
219,3753.0,0.2,-0.30000000000000004,-0.8,0.0,1.6,9.0,-2.2,0.30000000000000004,15.5,16
220,3768.0,0.2,-0.30000000000000004,-0.5,0.0,1.6,9.3,-5.7,0.8,15.000000000000002,16
221,3786.0,0.2,-0.2,0.0,0.0,1.6,9.8,-4.300000000000001,-4.4,13.6,16
222,3801.0,0.2,-0.2,-0.1,0.1,1.7000000000000002,9.5,0.30000000000000004,-8.3,13.200000000000003,16
223,3822.0,0.2,-0.1,-0.5,0.2,1.9000000000000001,9.1,2.7,-12.8,13.100000000000001,16
224,3834.0,0.30000000000000004,0.1,-0.6000000000000001,0.30000000000000004,1.9000000000000001,9.1,-0.1,-16.5,13.200000000000003,16
225,3852.0,0.5,0.1,-0.4,0.6000000000000001,2.0,9.4,-3.6000000000000005,-16.8,12.8,16
226,3868.0,0.5,0.1,-0.4,0.6000000000000001,2.1,9.600000000000001,-3.6000000000000005,-16.8,12.8,16
227,3884.0,0.5,0.30000000000000004,0.2,0.7000000000000001,2.0,9.9,-6.8,-16.1,9.4,16
228,3901.0,0.5,0.30000000000000004,0.2,0.7000000000000001,2.1,10.0,-5.300000000000001,-10.700000000000001,8.8,16
229,3923.0,0.5,0.30000000000000004,0.30000000000000004,0.7000000000000001,2.1,10.0,-3.9,-8.3,7.500000000000001,16
230,3935.0,0.4,0.30000000000000004,0.30000000000000004,0.6000000000000001,2.1,10.0,-2.0,-6.500000000000001,5.8,16
231,3951.0,0.4,0.30000000000000004,0.1,0.7000000000000001,2.0,9.8,-0.30000000000000004,-4.6,4.4,16
232,3967.0,0.4,0.30000000000000004,-0.1,0.6000000000000001,2.1,9.700000000000001,-0.1,-5.7,2.0,16
233,3985.0,0.2,0.2,-0.2,0.4,1.9000000000000001,9.5,-1.5,-6.600000000000001,-0.5,16
234,4005.0,0.2,0.1,-0.1,0.5,1.9000000000000001,9.700000000000001,-3.5,-5.6,-1.9,16
235,4020.0,0.2,0.1,-0.1,0.4,1.7000000000000002,9.600000000000001,-4.5,-3.2,-4.0,16
236,4036.0,0.0,-0.1,-0.2,0.30000000000000004,1.7000000000000002,9.5,-5.4,0.4,-5.300000000000001,16
237,4051.0,0.0,-0.1,-0.1,0.30000000000000004,1.6,9.600000000000001,-6.9,3.4,-5.7,16
238,4067.0,-0.1,-0.1,0.0,0.1,1.6,9.700000000000001,-7.8,6.699999999999999,-6.1000000000000005,16
239,4085.0,-0.2,-0.2,0.0,0.0,1.5,9.700000000000001,-7.9,9.899999999999999,-5.6,16
240,4103.0,-0.4,-0.2,-0.2,-0.2,1.5,9.600000000000001,-8.4,10.200000000000001,-3.7000000000000006,16
241,4122.0,-0.4,-0.2,0.0,-0.2,1.4000000000000001,9.8,-8.899999999999999,8.2,-1.1,16
242,4135.0,-0.4,-0.2,0.0,-0.2,1.5,9.9,-8.899999999999999,8.2,-1.1,16
243,4151.0,-0.1,-0.1,0.2,0.0,1.5,9.9,-4.0,0.30000000000000004,3.7000000000000006,16
244,4169.0,0.0,0.0,0.2,0.2,1.6,9.9,-1.2000000000000002,-4.800000000000001,4.2,16
245,4184.0,0.0,0.0,0.2,0.2,1.6,9.9,-1.2000000000000002,-4.800000000000001,4.2,16
246,4201.0,0.0,0.0,0.0,0.30000000000000004,1.6,9.8,1.8000000000000003,-7.400000000000001,4.800000000000001,16
247,4222.0,0.1,0.1,-0.1,0.30000000000000004,1.7000000000000002,9.700000000000001,1.4,-5.1000000000000005,4.7,16
248,4235.0,0.1,0.1,-0.1,0.30000000000000004,1.7000000000000002,9.600000000000001,1.4,-5.1000000000000005,4.7,16
249,4251.0,0.1,0.1,0.0,0.30000000000000004,1.7000000000000002,9.700000000000001,-0.7,2.3,4.2,16
250,4268.0,0.1,0.1,-0.2,0.2,1.7000000000000002,9.5,-0.9000000000000001,3.6000000000000005,3.6000000000000005,16
251,4284.0,0.0,0.1,-0.30000000000000004,0.2,1.7000000000000002,9.4,-1.5,2.6,3.0,16
252,4301.0,0.1,0.1,-0.2,0.30000000000000004,1.7000000000000002,9.5,-2.6,0.4,2.4000000000000004,16
253,4325.0,0.1,0.1,-0.1,0.4,1.7000000000000002,9.8,-2.8,-2.0,1.2000000000000002,16
254,4334.0,0.2,0.1,0.1,0.5,1.7000000000000002,9.8,-1.5,-3.2,-0.30000000000000004,16
255,4351.0,0.30000000000000004,0.2,0.0,0.5,1.7000000000000002,9.700000000000001,-0.1,-2.8,-2.9,16
256,4367.0,0.0,0.1,-0.2,0.2,1.6,9.4,-1.3,-2.0,-5.2,16
257,4385.0,-0.2,0.0,-0.2,0.0,1.6,9.600000000000001,-4.5,-0.30000000000000004,-5.4,16
258,4402.0,-0.2,0.0,-0.2,0.0,1.6,9.8,-4.5,-0.30000000000000004,-5.4,16
259,4422.0,-0.2,0.0,0.4,0.0,1.5,10.100000000000001,-6.300000000000001,1.4,-0.8,16
260,4435.0,-0.2,0.0,0.5,0.0,1.5,10.200000000000001,-3.1,1.1,1.8000000000000003,16
261,4451.0,-0.2,0.0,0.5,0.1,1.5,10.200000000000001,-3.1,1.1,1.8000000000000003,16
262,4467.0,0.0,0.0,0.1,0.30000000000000004,1.6,9.8,4.7,0.1,5.300000000000001,16
263,4484.0,0.2,0.0,-0.2,0.4,1.6,9.5,5.0,-1.1,4.9,16
264,4501.0,0.2,0.0,-0.2,0.4,1.6,9.4,5.0,-1.1,4.9,16
265,4522.0,0.2,0.1,-0.4,0.4,1.6,9.4,0.0,1.8000000000000003,3.7000000000000006,16
266,4534.0,0.2,0.1,-0.30000000000000004,0.4,1.6,9.5,-2.8,4.300000000000001,3.2,16
267,4551.0,0.2,0.1,-0.30000000000000004,0.4,1.7000000000000002,9.700000000000001,-2.8,4.300000000000001,3.2,16
268,4568.0,0.1,0.1,0.2,0.30000000000000004,1.6,9.9,-3.4,4.0,1.9,16
269,4584.0,0.0,0.0,0.1,0.1,1.5,9.8,-1.2000000000000002,1.6,1.8000000000000003,16
270,4601.0,-0.1,0.0,0.0,0.1,1.5,9.8,-0.2,-1.5,2.3,16
271,4623.0,-0.1,0.0,0.2,0.1,1.5,10.0,0.8,-2.1,3.6000000000000005,16
272,4635.0,-0.1,0.0,0.2,0.1,1.5,9.9,2.4000000000000004,-2.4000000000000004,4.4,16
273,4653.0,-0.1,-0.1,0.0,0.2,1.5,9.8,3.0,-3.4,4.800000000000001,16
274,4668.0,-0.1,-0.1,0.0,0.2,1.5,9.8,3.0,-3.4,4.800000000000001,16
275,4684.0,0.0,0.0,0.1,0.30000000000000004,1.5,9.9,2.8,-2.7,5.6,16
276,4705.0,0.0,0.0,0.1,0.30000000000000004,1.5,9.8,4.0,-2.0,5.500000000000001,16
277,4720.0,0.0,0.0,0.0,0.30000000000000004,1.5,9.700000000000001,4.800000000000001,-2.3,5.1000000000000005,16
278,4735.0,0.0,0.0,0.0,0.30000000000000004,1.5,9.8,4.4,-3.2,5.2,16
279,4757.0,-0.1,-0.1,0.0,0.2,1.5,9.8,4.2,-3.3000000000000007,5.4,16
280,4768.0,-0.1,-0.1,0.0,0.30000000000000004,1.6,9.700000000000001,4.5,-3.0,6.300000000000001,16
281,4784.0,0.0,-0.1,-0.1,0.30000000000000004,1.6,9.600000000000001,4.800000000000001,-2.0,7.0,16
282,4801.0,0.0,0.0,-0.1,0.30000000000000004,1.6,9.700000000000001,4.2,-2.2,7.300000000000001,16
283,4818.0,0.0,0.0,-0.1,0.30000000000000004,1.7000000000000002,9.700000000000001,3.8,-3.0,7.300000000000001,16
284,4834.0,0.1,0.0,-0.1,0.4,1.7000000000000002,9.700000000000001,4.5,-2.9,7.699999999999999,16
285,4851.0,0.1,0.0,-0.1,0.4,1.7000000000000002,9.600000000000001,5.300000000000001,-3.2,7.400000000000001,16
286,4868.0,0.1,0.1,-0.2,0.4,1.7000000000000002,9.600000000000001,5.500000000000001,-4.2,6.600000000000001,16
287,4885.0,0.0,0.0,-0.1,0.4,1.7000000000000002,9.600000000000001,5.2,-4.9,6.500000000000001,16
288,4901.0,0.0,0.0,-0.1,0.5,1.8,9.600000000000001,4.800000000000001,-4.800000000000001,6.9,16
289,4928.0,0.1,0.1,-0.2,0.5,1.8,9.5,2.8,-4.7,6.300000000000001,16
290,4934.0,0.1,0.1,-0.2,0.5,1.8,9.5,2.8,-4.7,6.300000000000001,16
291,4951.0,0.1,0.1,-0.1,0.6000000000000001,1.9000000000000001,9.600000000000001,1.6,-3.6000000000000005,6.1000000000000005,16
292,4970.0,0.1,0.1,0.0,0.6000000000000001,1.9000000000000001,9.700000000000001,0.9000000000000001,-2.4000000000000004,5.6,16
293,4985.0,0.1,0.1,0.0,0.6000000000000001,1.8,9.700000000000001,0.9000000000000001,-2.4000000000000004,5.6,16
294,5004.0,0.0,0.1,0.0,0.5,1.8,9.700000000000001,1.1,-1.6,4.9,16
295,5019.0,0.0,0.0,0.1,0.6000000000000001,1.8,9.8,1.8000000000000003,-2.5,5.2,16
296,5034.0,0.0,0.0,0.1,0.6000000000000001,1.8,9.9,1.8000000000000003,-2.5,5.2,16
297,5051.0,0.1,0.0,0.2,0.6000000000000001,1.8,9.9,4.6,-5.0,5.6,16
298,5067.0,0.1,0.0,0.2,0.6000000000000001,1.8,9.9,5.9,-6.8,5.4,16
299,5084.0,0.1,0.0,0.2,0.6000000000000001,1.8,10.0,5.9,-6.8,5.4,16
300,5101.0,0.0,0.0,0.30000000000000004,0.6000000000000001,1.8,10.0,7.300000000000001,-8.4,5.6,16
301,5121.0,0.0,0.0,0.0,0.7000000000000001,1.9000000000000001,9.700000000000001,11.900000000000002,-8.3,7.0,16
302,5134.0,0.0,0.0,0.0,0.7000000000000001,1.9000000000000001,9.600000000000001,11.900000000000002,-8.3,7.0,16
303,5152.0,0.1,0.0,-0.2,0.8,1.9000000000000001,9.5,11.5,-5.9,6.8,16
304,5167.0,0.1,0.0,-0.30000000000000004,0.8,2.0,9.3,10.600000000000001,-4.300000000000001,6.300000000000001,16
305,5184.0,0.1,0.0,-0.5,0.8,2.1,9.0,8.700000000000001,-3.7000000000000006,5.7,16
306,5203.0,0.2,0.1,-0.6000000000000001,0.9,2.2,9.200000000000001,4.7,-3.8,4.9,16
307,5218.0,0.1,0.2,-0.30000000000000004,0.9,2.2,9.3,0.7,-3.5,3.7000000000000006,16
308,5235.0,0.2,0.2,-0.2,0.9,2.2,9.4,-1.9,-1.9,2.5,16
309,5250.0,0.2,0.2,-0.2,1.0,2.1,9.5,-1.9,-1.9,2.5,16
310,5268.0,0.1,0.1,0.1,0.9,2.1,9.8,-4.4,-0.8,0.8,16
311,5284.0,0.1,0.1,0.1,0.9,2.1,9.700000000000001,-3.9,0.8,0.6000000000000001,16
312,5301.0,0.1,0.1,0.1,0.9,2.1,9.700000000000001,-3.9,0.8,0.6000000000000001,16
313,5319.0,0.1,0.0,0.2,0.9,2.0,9.8,-2.5,1.5,-0.2,16
314,5334.0,0.0,0.0,0.2,0.8,2.0,9.8,-1.7,0.0,-0.8,16
315,5351.0,0.0,0.0,0.2,0.8,2.0,9.700000000000001,-1.7,0.0,-0.8,16
316,5367.0,0.0,0.0,0.1,0.8,1.9000000000000001,9.700000000000001,-0.7,-0.9000000000000001,-1.0,16
317,5384.0,0.1,0.0,0.2,0.9,1.9000000000000001,9.8,-0.7,-0.8,-1.5,16
318,5400.0,0.1,0.0,0.2,0.8,2.0,9.700000000000001,-0.7,-0.8,-1.5,16
319,5419.0,0.0,0.0,0.0,0.8,2.0,9.600000000000001,-1.0,2.8,-1.4,16
320,5436.0,0.0,0.1,0.1,0.8,2.0,9.8,-1.7,3.3000000000000007,-1.7,16
321,5450.0,-0.1,0.0,0.1,0.6000000000000001,2.0,9.700000000000001,-0.9000000000000001,3.5,-1.8000000000000003,16
322,5468.0,-0.1,0.1,0.0,0.7000000000000001,2.0,9.600000000000001,-0.30000000000000004,2.7,-1.4,16
323,5484.0,-0.1,0.1,0.0,0.7000000000000001,2.0,9.600000000000001,-0.30000000000000004,2.4000000000000004,-0.8,16
324,5501.0,0.0,0.1,-0.1,0.7000000000000001,2.0,9.4,0.1,1.9,-0.8,16
325,5523.0,0.0,0.0,-0.2,0.7000000000000001,2.0,9.4,-0.2,0.5,-1.7,16
326,5534.0,-0.1,0.0,-0.30000000000000004,0.6000000000000001,1.9000000000000001,9.3,-1.3,-0.9000000000000001,-2.2,16
327,5550.0,-0.1,0.0,-0.30000000000000004,0.7000000000000001,1.9000000000000001,9.4,-2.7,-0.6000000000000001,-1.6,16
328,5568.0,-0.1,0.0,-0.30000000000000004,0.7000000000000001,1.9000000000000001,9.4,-2.7,-0.6000000000000001,-1.6,16
329,5586.0,0.0,0.0,-0.1,0.7000000000000001,1.9000000000000001,9.600000000000001,-4.300000000000001,-0.7,-1.7,16
330,5601.0,0.0,0.0,0.0,0.7000000000000001,1.9000000000000001,9.600000000000001,-4.0,-0.4,-1.6,16
331,5630.0,0.1,0.0,-0.1,0.8,1.9000000000000001,9.600000000000001,-4.7,-0.1,-1.4,16
332,5634.0,0.1,0.0,0.0,0.9,1.9000000000000001,9.700000000000001,-4.7,-0.1,-1.4,16
333,5651.0,0.1,0.0,0.2,0.9,1.9000000000000001,9.8,-5.0,1.1,-1.8000000000000003,16
334,5667.0,0.1,0.0,0.2,0.8,1.9000000000000001,9.9,-5.0,1.1,-1.8000000000000003,16
335,5684.0,0.0,0.0,0.30000000000000004,0.7000000000000001,1.9000000000000001,10.0,-4.5,3.6000000000000005,-2.7,16
336,5700.0,0.0,0.0,0.4,0.7000000000000001,1.8,10.0,-3.5,3.5,-2.8,16
337,5718.0,0.0,0.0,0.4,0.6000000000000001,1.8,10.0,-2.1,2.2,-3.1,16
338,5743.0,-0.1,0.0,0.2,0.5,1.8,9.9,-0.9000000000000001,1.6,-2.7,16
339,5753.0,-0.1,-0.1,0.2,0.6000000000000001,1.8,9.9,0.4,2.5,-2.1,16
340,5768.0,-0.1,-0.1,0.1,0.5,1.8,9.700000000000001,1.3,2.7,-1.8000000000000003,16
341,5784.0,-0.1,-0.1,0.1,0.5,1.7000000000000002,9.600000000000001,1.3,2.7,-1.8000000000000003,16
342,5800.0,-0.1,-0.1,-0.1,0.5,1.8,9.600000000000001,1.3,3.6000000000000005,-0.6000000000000001,16
343,5835.0,-0.1,-0.1,-0.2,0.4,1.8,9.4,1.1,3.2,-0.8,16
344,5836.0,-0.1,-0.1,-0.2,0.4,1.8,9.4,1.1,3.2,-0.8,16
345,5851.0,-0.2,-0.1,-0.1,0.4,1.8,9.600000000000001,-0.5,-0.2,-0.7,16
346,5867.0,-0.1,-0.1,0.0,0.5,1.8,9.700000000000001,-0.1,-1.1,0.30000000000000004,16
347,5884.0,-0.1,-0.1,0.0,0.5,1.8,9.700000000000001,-0.1,-1.1,0.30000000000000004,16
348,5901.0,0.0,0.0,-0.2,0.6000000000000001,1.8,9.5,1.6,-2.1,1.2000000000000002,16
349,5919.0,0.0,0.0,-0.30000000000000004,0.7000000000000001,1.9000000000000001,9.4,0.0,-3.9,1.1,16
350,5936.0,0.1,0.1,-0.2,0.7000000000000001,1.9000000000000001,9.600000000000001,-2.3,-4.0,0.30000000000000004,16
351,5950.0,0.0,0.0,0.1,0.7000000000000001,1.9000000000000001,9.8,-3.7000000000000006,-2.5,0.1,16
352,5967.0,0.0,0.0,0.4,0.7000000000000001,1.9000000000000001,10.100000000000001,-3.2,-1.2000000000000002,0.1,16
353,5984.0,0.0,0.0,0.4,0.7000000000000001,1.9000000000000001,9.9,-0.2,1.3,0.30000000000000004,16
354,6000.0,0.0,0.1,0.1,0.7000000000000001,1.9000000000000001,9.8,1.6,2.0,0.2,16
355,6017.0,0.0,0.0,0.0,0.6000000000000001,1.9000000000000001,9.600000000000001,1.4,1.2000000000000002,-0.1,16
356,6034.0,0.0,0.1,0.0,0.6000000000000001,1.9000000000000001,9.8,0.7,-0.4,-0.7,16
357,6051.0,0.0,0.1,0.0,0.6000000000000001,1.9000000000000001,9.8,0.7,-0.4,-0.7,16
358,6067.0,0.0,0.0,-0.1,0.6000000000000001,1.8,9.600000000000001,0.9000000000000001,-1.8000000000000003,-1.0,16
359,6084.0,0.0,0.0,0.0,0.7000000000000001,1.8,9.700000000000001,0.30000000000000004,-1.8000000000000003,-0.9000000000000001,16
360,6101.0,0.0,0.0,0.0,0.7000000000000001,1.8,9.700000000000001,0.30000000000000004,-1.8000000000000003,-0.9000000000000001,16
361,6119.0,0.0,0.0,-0.1,0.6000000000000001,1.8,9.600000000000001,0.6000000000000001,0.0,-0.8,16
362,6134.0,0.0,0.0,-0.1,0.7000000000000001,1.8,9.600000000000001,-0.1,-0.30000000000000004,-0.30000000000000004,16
363,6151.0,0.0,0.0,-0.1,0.7000000000000001,1.8,9.5,-0.1,-0.30000000000000004,-0.30000000000000004,16
364,6169.0,0.1,0.0,-0.1,0.8,1.9000000000000001,9.600000000000001,-0.9000000000000001,-0.30000000000000004,-1.0,16
365,6185.0,0.0,0.0,0.1,0.6000000000000001,1.8,9.8,0.1,-1.6,-1.5,16
366,6200.0,0.0,0.0,0.1,0.5,1.8,9.700000000000001,0.1,-1.6,-1.5,16
367,6218.0,0.0,0.0,-0.2,0.7000000000000001,1.8,9.4,2.6,-3.1,0.4,16
368,6235.0,0.1,0.0,-0.1,0.8,1.9000000000000001,9.600000000000001,1.1,-5.2,-0.2,16
369,6251.0,0.1,0.0,0.1,0.7000000000000001,1.8,9.8,0.0,-5.9,-1.2000000000000002,16
370,6267.0,0.0,0.0,0.1,0.7000000000000001,1.8,9.8,0.1,-3.4,-1.0,16
371,6284.0,0.1,0.0,0.1,0.8,1.9000000000000001,9.700000000000001,-0.30000000000000004,-2.1,-0.30000000000000004,16
372,6300.0,0.1,0.1,0.30000000000000004,0.8,1.9000000000000001,10.0,-0.9000000000000001,-1.8000000000000003,-0.7,16
373,6318.0,0.1,0.1,0.30000000000000004,0.8,1.9000000000000001,10.0,0.5,0.7,-1.0,16
374,6334.0,0.0,0.1,0.1,0.7000000000000001,1.9000000000000001,9.700000000000001,1.7,2.0,-1.2000000000000002,16
375,6350.0,0.0,0.1,0.0,0.7000000000000001,2.0,9.700000000000001,1.6,0.5,-1.3,16
376,6367.0,0.0,0.1,0.0,0.7000000000000001,2.0,9.700000000000001,1.6,0.5,-1.3,16
377,6384.0,-0.1,0.0,0.2,0.6000000000000001,1.9000000000000001,9.9,2.7,-1.6,-0.9000000000000001,16
378,6400.0,-0.1,0.0,0.4,0.6000000000000001,1.9000000000000001,10.100000000000001,5.4,2.4000000000000004,0.5,16
379,6420.0,-0.1,0.0,0.2,0.6000000000000001,1.9000000000000001,9.8,8.100000000000001,5.500000000000001,1.9,16
380,6434.0,-0.2,-0.1,-0.1,0.5,1.8,9.600000000000001,8.5,6.300000000000001,2.3,16
381,6450.0,-0.2,-0.1,-0.2,0.6000000000000001,1.9000000000000001,9.5,6.9,5.300000000000001,3.1,16
382,6467.0,-0.2,-0.1,-0.2,0.7000000000000001,1.9000000000000001,9.4,6.9,5.300000000000001,3.1,16
383,6484.0,-0.1,0.0,-0.30000000000000004,0.6000000000000001,2.0,9.4,3.2,2.2,1.5,16
384,6501.0,0.0,0.0,-0.30000000000000004,0.6000000000000001,2.0,9.3,2.0,2.1,1.0,16
385,6517.0,0.0,0.0,-0.30000000000000004,0.6000000000000001,2.0,9.3,2.0,2.1,1.0,16
386,6534.0,0.0,0.0,-0.30000000000000004,0.6000000000000001,2.0,9.3,-0.2,-0.7,-0.2,16
387,6550.0,0.1,0.0,-0.30000000000000004,0.7000000000000001,2.0,9.3,-1.8000000000000003,-1.0,-0.4,16
388,6567.0,0.1,0.0,-0.1,0.8,2.0,9.600000000000001,-2.9,-0.9000000000000001,-0.7,16
389,6584.0,0.1,0.0,0.0,0.7000000000000001,2.0,9.600000000000001,-2.2,-1.7,-1.2000000000000002,16
390,6601.0,-0.1,0.0,0.0,0.6000000000000001,1.9000000000000001,9.700000000000001,-2.3,-3.7000000000000006,-1.4,16
391,6618.0,-0.1,0.0,0.1,0.7000000000000001,1.9000000000000001,9.700000000000001,-2.3,-5.2,-0.5,16
392,6639.0,0.0,0.0,0.1,0.7000000000000001,2.0,9.8,-1.5,-3.4,0.2,16
393,6650.0,0.0,0.0,0.2,0.7000000000000001,2.0,9.8,-0.9000000000000001,-1.8000000000000003,0.30000000000000004,16
394,6667.0,0.0,0.0,0.2,0.7000000000000001,2.0,9.8,-0.4,-0.5,0.30000000000000004,16
395,6684.0,0.0,0.0,0.2,0.6000000000000001,2.0,9.9,-0.4,-0.5,0.30000000000000004,16
396,6701.0,-0.1,0.0,0.30000000000000004,0.6000000000000001,2.0,10.0,2.2,-0.9000000000000001,0.6000000000000001,16
397,6718.0,-0.1,0.0,0.1,0.6000000000000001,2.0,9.700000000000001,4.1,-1.3,1.3,16
398,6736.0,-0.1,0.0,-0.1,0.7000000000000001,2.0,9.5,3.9,-1.2000000000000002,1.8000000000000003,16
399,6750.0,0.0,0.0,-0.1,0.7000000000000001,2.0,9.5,1.9,-1.0,1.9,16
400,6767.0,0.0,0.0,0.0,0.7000000000000001,2.0,9.600000000000001,1.3,-1.6,2.0,16
401,6784.0,0.0,0.0,-0.1,0.7000000000000001,2.0,9.600000000000001,1.7,-1.5,2.4000000000000004,16
402,6800.0,0.0,0.0,-0.30000000000000004,0.7000000000000001,2.0,9.3,1.2000000000000002,-0.9000000000000001,2.9,16
403,6819.0,0.2,0.0,-0.2,0.9,2.0,9.5,-0.2,-0.7,2.7,16
404,6837.0,0.1,0.1,-0.2,0.8,2.1,9.4,-0.9000000000000001,-0.1,1.4,16
405,6853.0,0.0,0.0,-0.30000000000000004,0.8,2.0,9.3,-1.9,1.6,0.4,16
406,6867.0,0.0,0.1,-0.30000000000000004,0.8,2.0,9.4,-4.1,1.5,0.2,16
407,6884.0,0.0,0.0,0.1,0.7000000000000001,2.0,9.9,-4.9,0.7,0.1,16
408,6901.0,0.0,0.0,0.1,0.7000000000000001,1.9000000000000001,10.0,-4.9,0.7,0.1,16
409,6920.0,-0.1,0.0,0.30000000000000004,0.6000000000000001,1.9000000000000001,9.9,0.5,-1.6,0.8,16
410,6934.0,0.0,0.0,0.0,0.7000000000000001,2.0,9.600000000000001,1.8000000000000003,-2.0,2.1,16
411,6950.0,0.0,0.0,0.0,0.8,2.0,9.5,1.8000000000000003,-2.0,2.1,16
412,6968.0,0.2,0.1,0.0,0.9,2.0,9.700000000000001,-1.1,-1.4,1.3,16
413,6985.0,0.1,0.0,0.2,0.8,2.0,9.8,-0.9000000000000001,-0.2,0.2,16
414,7000.0,0.1,0.0,0.2,0.8,1.9000000000000001,9.8,-0.9000000000000001,-0.2,0.2,16
415,7018.0,0.1,0.0,-0.2,0.8,2.0,9.5,1.0,3.4,0.6000000000000001,16
416,7035.0,0.2,0.0,-0.30000000000000004,1.0,2.0,9.3,-0.2,4.9,0.4,16
417,7053.0,0.0,0.1,-0.4,0.8,2.0,9.200000000000001,-2.4000000000000004,6.1000000000000005,-1.0,16
418,7068.0,-0.1,0.1,-0.4,0.6000000000000001,2.0,9.200000000000001,-5.300000000000001,5.0,-1.7,16
419,7084.0,-0.2,0.1,-0.2,0.5,2.0,9.4,-7.300000000000001,5.1000000000000005,-1.4,16
420,7102.0,-0.2,0.1,-0.1,0.4,2.0,9.5,-7.400000000000001,3.8,-0.6000000000000001,16
421,7117.0,-0.2,0.1,0.0,0.4,2.0,9.600000000000001,-6.699999999999999,2.4000000000000004,0.30000000000000004,16
422,7138.0,-0.2,0.1,0.1,0.4,2.0,9.700000000000001,-4.800000000000001,1.0,0.9000000000000001,16
423,7150.0,-0.1,0.1,0.0,0.5,1.9000000000000001,9.600000000000001,-3.2,-1.2000000000000002,1.2000000000000002,16
424,7168.0,-0.1,0.1,0.0,0.6000000000000001,1.9000000000000001,9.600000000000001,-3.2,-1.2000000000000002,1.2000000000000002,16
425,7184.0,0.0,0.0,0.2,0.7000000000000001,1.8,9.8,-4.0,-4.6,1.0,16
426,7201.0,0.1,-0.1,0.5,0.8,1.7000000000000002,10.200000000000001,-3.9,-4.800000000000001,0.6000000000000001,16
427,7217.0,0.1,-0.1,0.5,0.8,1.6,10.200000000000001,-3.9,-4.800000000000001,0.6000000000000001,16
428,7240.0,0.2,-0.2,0.5,0.9,1.5,10.200000000000001,-0.9000000000000001,-1.2000000000000002,0.0,16
429,7250.0,0.2,-0.2,0.5,0.9,1.5,10.200000000000001,-0.9000000000000001,-1.2000000000000002,0.0,16
430,7272.0,0.2,-0.30000000000000004,0.5,0.9,1.5,10.200000000000001,0.0,2.1,0.4,16
431,7284.0,0.2,-0.30000000000000004,0.4,0.9,1.5,10.100000000000001,0.7,2.7,0.8,16
432,7300.0,0.1,-0.1,0.2,0.8,1.7000000000000002,9.9,1.8000000000000003,2.6,1.5,16
433,7317.0,0.1,-0.1,0.2,0.8,1.8,9.700000000000001,1.8000000000000003,2.6,1.5,16
434,7340.0,0.1,0.2,-0.30000000000000004,0.8,2.1,9.3,2.8,4.1,2.7,16
435,7350.0,0.0,0.2,-0.5,0.7000000000000001,2.1,9.200000000000001,1.6,4.4,1.7,16
436,7368.0,0.0,0.30000000000000004,-0.5,0.6000000000000001,2.2,9.3,-0.30000000000000004,4.1,0.6000000000000001,16
437,7384.0,0.0,0.30000000000000004,-0.4,0.6000000000000001,2.1,9.3,-1.6,2.0,-0.9000000000000001,16
438,7401.0,-0.2,0.2,-0.30000000000000004,0.5,2.0,9.4,-2.2,-0.6000000000000001,-2.5,16
439,7419.0,-0.2,0.1,-0.2,0.4,1.9000000000000001,9.5,-2.6,-2.2,-3.1,16
440,7437.0,-0.2,0.1,-0.2,0.4,1.7000000000000002,9.9,-3.1,-4.5,-2.9,16
441,7452.0,-0.30000000000000004,-0.1,0.30000000000000004,0.4,1.7000000000000002,10.0,-2.8,-6.2,-1.8000000000000003,16
442,7471.0,-0.30000000000000004,-0.2,0.30000000000000004,0.4,1.6,10.0,-0.9000000000000001,-5.1000000000000005,-0.2,16
443,7484.0,-0.30000000000000004,-0.2,0.30000000000000004,0.5,1.5,9.9,-0.9000000000000001,-5.1000000000000005,-0.2,16
444,7506.0,0.0,-0.30000000000000004,0.1,0.7000000000000001,1.6,9.8,0.5,-2.0,2.9,16
445,7520.0,0.0,-0.2,0.2,0.8,1.6,9.9,-0.5,-2.3,3.3000000000000007,16
446,7547.0,0.1,-0.2,0.2,0.8,1.6,9.9,-0.2,-1.8000000000000003,3.9,16
447,7550.0,0.1,-0.1,0.30000000000000004,0.8,1.7000000000000002,10.0,1.0,-2.2,4.1,16
448,7568.0,0.1,0.0,0.2,0.9,1.8,9.8,2.8,-1.7,4.2,16
449,7584.0,0.1,0.0,0.2,0.9,1.9000000000000001,9.5,2.8,-1.7,4.2,16
450,7602.0,0.2,0.1,-0.2,1.0,2.0,9.200000000000001,4.0,1.6,4.1,16
451,7620.0,0.1,0.2,-0.5,0.8,2.0,9.200000000000001,-1.9,7.300000000000001,1.1,16
452,7642.0,0.0,0.2,-0.4,0.7000000000000001,2.1,9.200000000000001,-4.6,7.9,-0.2,16
453,7651.0,-0.1,0.2,-0.2,0.6000000000000001,2.0,9.4,-6.500000000000001,5.500000000000001,-1.3,16
454,7671.0,-0.2,0.2,0.30000000000000004,0.4,1.9000000000000001,10.100000000000001,-5.1000000000000005,1.5,-1.6,16
455,7684.0,-0.30000000000000004,0.1,0.4,0.30000000000000004,1.8,10.0,-0.30000000000000004,-0.7,-0.4,16
456,7700.0,-0.30000000000000004,0.1,0.4,0.30000000000000004,1.8,9.9,-0.30000000000000004,-0.7,-0.4,16
457,7717.0,-0.30000000000000004,0.0,0.2,0.30000000000000004,1.8,9.8,3.4,-3.7000000000000006,3.8,16
458,7734.0,-0.2,0.0,0.0,0.5,1.8,9.700000000000001,2.1,-2.3,4.800000000000001,16
459,7750.0,-0.2,0.0,0.0,0.5,1.8,9.600000000000001,2.1,-2.3,4.800000000000001,16
460,7767.0,-0.2,0.0,0.0,0.4,1.8,9.700000000000001,-2.5,4.0,3.9,16
461,7784.0,-0.2,0.0,0.2,0.30000000000000004,1.8,10.0,-3.8,5.2,3.6000000000000005,16
462,7801.0,-0.2,0.0,0.2,0.30000000000000004,1.8,10.200000000000001,-3.8,5.2,3.6000000000000005,16
463,7842.0,-0.1,0.0,0.6000000000000001,0.6000000000000001,1.8,10.4,4.0,2.2,6.9,16
464,7851.0,-0.1,0.0,0.6000000000000001,0.7000000000000001,1.8,10.200000000000001,4.0,2.2,6.9,16
465,7867.0,0.30000000000000004,0.0,-0.1,0.9,1.8,9.600000000000001,11.2,3.8,6.2,16
466,7884.0,0.30000000000000004,0.0,-0.4,0.8,1.8,9.3,9.100000000000001,4.5,4.800000000000001,16
467,7900.0,0.30000000000000004,0.0,-0.4,0.8,1.8,9.3,6.0,6.600000000000001,4.300000000000001,16
468,7917.0,0.4,-0.1,-0.5,0.9,1.8,9.200000000000001,4.1,10.1,4.2,16
469,7934.0,0.30000000000000004,-0.1,-0.7000000000000001,0.8,1.8,9.0,1.3,10.9,3.3000000000000007,16
470,7951.0,0.2,-0.1,-0.7000000000000001,0.6000000000000001,1.8,8.9,-1.9,9.5,3.0,16
471,7967.0,0.1,-0.1,-0.7000000000000001,0.6000000000000001,1.8,9.0,-4.5,7.6,4.0,16
472,7986.0,0.0,0.0,-0.5,0.5,1.8,9.200000000000001,-5.6,3.8,4.9,16
473,8001.0,0.0,0.0,-0.5,0.4,1.9000000000000001,9.3,-5.6,3.8,4.9,16
474,8023.0,-0.1,0.1,-0.1,0.4,1.9000000000000001,9.600000000000001,-4.800000000000001,-3.9,6.8,16
475,8034.0,-0.1,0.1,0.0,0.4,2.0,9.600000000000001,-4.0,-6.8,7.0,16
476,8053.0,-0.1,0.2,0.0,0.4,1.9000000000000001,9.700000000000001,-3.9,-7.9,6.600000000000001,16
477,8067.0,-0.1,0.2,0.0,0.4,1.9000000000000001,9.9,-3.9,-7.9,6.600000000000001,16
478,8084.0,0.1,0.1,0.6000000000000001,0.7000000000000001,1.8,10.3,-4.4,-6.0,6.500000000000001,16
479,8100.0,0.1,0.0,0.8,0.7000000000000001,1.8,10.5,-2.3,-6.699999999999999,5.1000000000000005,16
480,8118.0,0.1,0.0,0.8,0.8,1.7000000000000002,10.4,1.0,-9.3,3.6000000000000005,16
481,8135.0,0.2,-0.1,0.6000000000000001,0.9,1.7000000000000002,10.3,5.1000000000000005,-12.299999999999999,2.6,16
482,8150.0,0.2,-0.1,0.30000000000000004,1.0,1.7000000000000002,9.9,8.600000000000001,-11.000000000000002,1.9,16
483,8167.0,0.30000000000000004,-0.1,-0.1,1.1,1.7000000000000002,9.3,9.3,-7.200000000000001,1.7,16
484,8184.0,0.30000000000000004,-0.1,-0.6000000000000001,1.1,1.8,9.1,6.600000000000001,-1.0,1.4,16
485,8201.0,0.30000000000000004,0.0,-0.8,1.1,1.8,8.8,1.4,5.6,1.0,16
486,8217.0,0.30000000000000004,0.0,-0.8,0.9,1.8,8.8,1.4,5.6,1.0,16
487,8237.0,0.0,0.1,-0.4,0.6000000000000001,1.9000000000000001,9.5,-8.600000000000001,10.4,1.1,16
488,8251.0,-0.1,0.2,0.1,0.6000000000000001,2.0,9.8,-7.8,7.500000000000001,2.1,16
489,8268.0,0.0,0.30000000000000004,0.2,0.7000000000000001,2.1,9.9,-3.8,3.9,3.1,16
490,8284.0,0.0,0.30000000000000004,0.2,0.8,2.1,9.700000000000001,-3.8,3.9,3.1,16
491,8300.0,0.1,0.30000000000000004,-0.1,0.8,2.1,9.5,0.6000000000000001,-2.4000000000000004,1.1,16
492,8328.0,0.1,0.2,-0.1,0.8,1.8,9.700000000000001,-1.4,-2.6,-1.1,16
493,8341.0,0.1,0.0,0.1,0.7000000000000001,1.8,10.0,-4.7,-2.5,-2.7,16
494,8353.0,0.0,-0.1,0.6000000000000001,0.7000000000000001,1.6,10.4,-6.0,-2.6,-3.7000000000000006,16
495,8367.0,-0.1,-0.2,0.8,0.6000000000000001,1.5,10.5,-3.1,-1.0,-3.1,16
496,8384.0,-0.1,-0.2,0.8,0.6000000000000001,1.5,10.3,-3.1,-1.0,-3.1,16
497,8402.0,0.0,-0.1,0.1,0.7000000000000001,1.7000000000000002,9.8,2.8,3.2,-0.2,16
498,8417.0,0.0,0.0,-0.1,0.6000000000000001,1.8,9.700000000000001,2.5,3.3000000000000007,-0.4,16
499,8434.0,0.0,0.0,-0.1,0.7000000000000001,1.8,9.600000000000001,2.5,3.3000000000000007,-0.4,16
500,8457.0,-0.1,0.1,-0.4,0.6000000000000001,1.9000000000000001,9.200000000000001,2.7,6.0,-0.9000000000000001,16
501,8467.0,-0.1,0.1,-0.5,0.6000000000000001,1.9000000000000001,9.200000000000001,1.5,5.2,-1.2000000000000002,16
502,8487.0,-0.1,0.1,-0.5,0.5,1.9000000000000001,9.3,-0.30000000000000004,2.7,-1.8000000000000003,16
503,8501.0,-0.1,0.0,-0.2,0.5,1.8,9.4,-2.3,-0.9000000000000001,-2.2,16
504,8523.0,-0.1,0.0,0.0,0.6000000000000001,1.8,9.700000000000001,-2.3,-2.7,-1.7,16
505,8534.0,-0.1,0.0,0.0,0.6000000000000001,1.8,9.8,-1.1,-5.2,-1.4,16
506,8550.0,-0.1,0.0,0.2,0.6000000000000001,1.8,10.0,-1.1,-5.2,-1.4,16
507,8568.0,-0.1,0.0,0.30000000000000004,0.6000000000000001,1.8,10.0,4.2,-10.8,-0.4,16
508,8585.0,-0.1,0.0,0.2,0.7000000000000001,1.8,9.9,6.0,-11.000000000000002,0.6000000000000001,16
509,8605.0,0.0,0.0,0.1,0.8,1.8,9.700000000000001,6.300000000000001,-8.8,1.6,16
510,8620.0,0.1,0.0,-0.1,0.9,1.8,9.600000000000001,5.0,-5.0,1.9,16
511,8640.0,0.1,0.0,-0.1,0.9,1.9000000000000001,9.600000000000001,2.8,0.1,1.4,16
512,8651.0,0.1,0.0,-0.1,0.8,1.8,9.5,2.8,0.1,1.4,16
513,8668.0,0.1,0.0,-0.1,0.8,1.9000000000000001,9.5,-0.2,5.2,-0.2,16
514,8684.0,0.0,0.0,0.0,0.7000000000000001,1.8,9.700000000000001,-0.8,4.1,-0.9000000000000001,16
515,8701.0,0.0,0.0,0.0,0.7000000000000001,1.8,9.700000000000001,-0.8,4.1,-0.9000000000000001,16
516,8721.0,0.0,0.0,0.0,0.7000000000000001,1.8,9.700000000000001,-0.2,3.5,-1.0,16
517,8734.0,0.0,0.0,0.0,0.7000000000000001,1.8,9.700000000000001,-0.2,2.7,-1.1,16
518,8751.0,0.0,0.0,0.0,0.7000000000000001,1.8,9.600000000000001,0.1,3.3000000000000007,-1.0,16
519,8769.0,0.0,0.0,-0.2,0.6000000000000001,1.9000000000000001,9.5,-0.1,3.9,-0.6000000000000001,16
520,8785.0,-0.1,0.0,-0.2,0.6000000000000001,1.9000000000000001,9.5,-1.2000000000000002,3.4,-0.1,16
521,8802.0,-0.1,0.0,-0.1,0.6000000000000001,1.9000000000000001,9.5,-1.7,2.4000000000000004,0.1,16
522,8824.0,-0.1,0.0,-0.1,0.6000000000000001,1.9000000000000001,9.4,-1.7,2.4000000000000004,0.1,16
523,8834.0,-0.1,0.0,-0.1,0.6000000000000001,1.9000000000000001,9.600000000000001,-2.8,-0.30000000000000004,0.4,16
524,8850.0,0.0,0.0,0.1,0.6000000000000001,1.8,9.8,-2.5,-1.3,0.6000000000000001,16
525,8869.0,0.0,0.0,0.1,0.6000000000000001,1.9000000000000001,9.8,-1.4,-2.3,0.8,16
526,8884.0,0.0,0.0,0.2,0.6000000000000001,1.8,9.9,-0.8,-3.4,0.8,16
527,8900.0,0.0,0.0,0.2,0.7000000000000001,1.8,9.8,0.1,-2.7,0.9000000000000001,16
528,8919.0,0.0,0.0,0.1,0.7000000000000001,1.8,9.8,0.2,-0.6000000000000001,1.4,16
529,8937.0,0.0,0.0,0.1,0.7000000000000001,1.9000000000000001,9.8,-0.30000000000000004,0.8,1.5,16
530,8950.0,0.0,0.0,0.0,0.7000000000000001,1.9000000000000001,9.600000000000001,0.2,1.1,1.3,16
531,8968.0,0.0,0.0,0.0,0.7000000000000001,1.8,9.700000000000001,0.2,0.0,0.9000000000000001,16
532,8985.0,0.0,0.0,0.0,0.7000000000000001,1.8,9.700000000000001,0.5,-1.3,1.0,16
533,9001.0,0.1,0.0,-0.2,0.8,1.8,9.4,0.4,-1.2000000000000002,1.2000000000000002,16
534,9020.0,0.2,0.0,-0.2,0.9,1.8,9.5,-0.9000000000000001,-1.7,0.8,16
535,9036.0,0.2,0.0,-0.2,1.0,1.8,9.5,-2.4000000000000004,-2.1,-0.6000000000000001,16
536,9051.0,0.1,0.0,-0.30000000000000004,0.8,1.9000000000000001,9.4,-2.9,-0.8,-2.2,16
537,9073.0,-0.1,0.0,-0.30000000000000004,0.6000000000000001,1.8,9.4,-4.0,0.5,-2.4000000000000004,16
538,9084.0,-0.1,0.0,-0.30000000000000004,0.4,1.8,9.5,-4.0,0.5,-2.4000000000000004,16
539,9100.0,-0.30000000000000004,0.1,0.1,0.5,1.8,9.8,-3.9,-4.2,0.30000000000000004,16
540,9117.0,-0.30000000000000004,0.1,0.1,0.5,1.8,9.9,-3.9,-4.2,0.30000000000000004,16
541,9134.0,-0.2,0.1,0.2,0.5,1.9000000000000001,9.8,-1.3,-7.6,1.2000000000000002,16
542,9150.0,-0.2,0.1,0.2,0.6000000000000001,1.9000000000000001,9.9,1.0,-8.899999999999999,2.1,16
543,9168.0,-0.1,0.0,0.30000000000000004,0.7000000000000001,1.8,10.0,1.3,-7.200000000000001,2.2,16
544,9185.0,-0.1,0.0,0.30000000000000004,0.8,1.8,10.100000000000001,1.3,-7.200000000000001,2.2,16
545,9201.0,0.0,-0.1,0.5,0.8,1.7000000000000002,10.200000000000001,1.8000000000000003,-2.9,2.1,16
546,9221.0,0.0,-0.1,0.4,0.9,1.7000000000000002,10.200000000000001,2.7,0.0,2.5,16
547,9234.0,0.0,-0.1,0.4,0.9,1.7000000000000002,10.0,2.7,0.0,2.5,16
548,9250.0,0.1,-0.1,0.2,0.9,1.7000000000000002,9.9,5.0,1.2000000000000002,2.5,16
549,9268.0,0.1,0.0,0.0,0.9,1.8,9.700000000000001,5.6,1.2000000000000002,2.6,16
550,9287.0,0.1,0.0,-0.2,1.0,1.9000000000000001,9.4,5.8,2.4000000000000004,2.9,16
551,9301.0,0.2,0.0,-0.30000000000000004,1.0,1.9000000000000001,9.4,4.4,2.8,2.7,16
552,9327.0,0.1,0.0,-0.30000000000000004,0.8,1.9000000000000001,9.4,3.4,2.9,2.2,16
553,9335.0,0.1,0.0,-0.30000000000000004,0.8,1.9000000000000001,9.4,3.0,2.5,2.0,16
554,9351.0,0.0,0.0,-0.30000000000000004,0.9,1.9000000000000001,9.3,3.0,2.5,2.0,16
555,9367.0,0.0,0.1,-0.4,0.8,2.0,9.3,-0.1,-1.5,1.1,16
556,9384.0,0.0,0.1,0.0,0.8,1.9000000000000001,9.8,-2.1,-2.0,0.2,16
557,9402.0,0.0,0.1,0.0,0.8,1.9000000000000001,9.9,-2.1,-2.0,0.2,16
558,9417.0,-0.1,0.0,0.4,0.7000000000000001,1.9000000000000001,10.100000000000001,-1.4,-3.9,-0.30000000000000004,16
559,9434.0,-0.1,0.1,0.4,0.8,1.9000000000000001,10.0,-0.6000000000000001,-3.8,0.30000000000000004,16
560,9450.0,-0.1,0.1,0.4,0.8,1.9000000000000001,9.9,-0.6000000000000001,-3.8,0.30000000000000004,16
561,9469.0,0.0,0.1,0.2,0.8,1.9000000000000001,9.9,-3.6000000000000005,3.2,1.7,16
562,9484.0,-0.1,0.0,0.30000000000000004,0.6000000000000001,1.9000000000000001,10.0,-5.6,6.0,2.0,16
563,9504.0,-0.2,0.0,0.5,0.5,1.8,10.4,-5.9,8.0,3.4,16
564,9521.0,-0.30000000000000004,0.0,0.6000000000000001,0.5,1.8,10.4,-1.7,10.5,6.0,16
565,9534.0,-0.2,0.0,0.2,0.5,1.9000000000000001,9.8,5.300000000000001,9.5,8.0,16
566,9550.0,-0.2,0.0,0.2,0.5,1.9000000000000001,9.5,5.300000000000001,9.5,8.0,16
567,9568.0,0.0,0.1,-0.8,0.7000000000000001,2.0,8.9,12.100000000000001,0.30000000000000004,9.899999999999999,16
568,9584.0,0.1,0.0,-0.8,0.9,2.0,9.0,11.4,-5.7,8.700000000000001,16
569,9600.0,0.2,-0.1,-0.5,1.0,1.8,9.3,11.700000000000001,-14.300000000000002,6.1000000000000005,16
570,9618.0,0.2,-0.2,-0.1,1.0,1.8,9.5,14.600000000000001,-24.400000000000002,3.6000000000000005,16
571,9634.0,0.0,-0.4,0.0,0.9,1.7000000000000002,9.600000000000001,19.300000000000004,-34.50000000000001,1.8000000000000003,16
572,9655.0,-0.1,-0.5,0.0,1.0,1.6,9.5,23.5,-40.4,1.7,16
573,9668.0,-0.1,-0.5,0.0,1.2000000000000002,1.6,9.200000000000001,23.5,-40.4,1.7,16
574,9686.0,0.2,-0.4,-0.6000000000000001,1.5,1.8,8.9,22.000000000000004,-36.2,1.8000000000000003,16
575,9701.0,0.2,-0.30000000000000004,-0.8,1.7000000000000002,2.0,8.6,15.2,-28.800000000000004,0.6000000000000001,16
576,9723.0,0.30000000000000004,-0.2,-0.7000000000000001,1.6,2.1,8.700000000000001,6.300000000000001,-18.4,-1.4,16
577,9735.0,0.1,-0.1,-0.6000000000000001,1.6,2.1,8.8,-3.0,-8.0,-2.7,16
578,9752.0,0.1,0.0,-0.30000000000000004,1.5,2.2,9.200000000000001,-11.3,0.6000000000000001,-3.1,16
579,9767.0,0.1,0.0,-0.30000000000000004,1.5,2.2,9.600000000000001,-11.3,0.6000000000000001,-3.1,16
580,9784.0,0.1,0.2,0.6000000000000001,1.5,2.3000000000000003,10.100000000000001,-15.8,7.200000000000001,-2.3,16
581,9801.0,0.0,0.2,0.7000000000000001,1.4000000000000001,2.3000000000000003,10.200000000000001,-12.4,6.0,-1.8000000000000003,16
582,9828.0,0.0,0.30000000000000004,0.7000000000000001,1.4000000000000001,2.4000000000000004,10.200000000000001,-9.0,3.2,-1.4,16
583,9834.0,0.0,0.30000000000000004,0.7000000000000001,1.4000000000000001,2.4000000000000004,10.200000000000001,-6.1000000000000005,0.7,-0.9000000000000001,16
584,9850.0,-0.1,0.30000000000000004,0.7000000000000001,1.3,2.3000000000000003,10.200000000000001,-3.2,-0.9000000000000001,-0.9000000000000001,16
585,9868.0,-0.1,0.2,0.8,1.3,2.3000000000000003,10.3,0.0,-1.0,-0.6000000000000001,16
586,9884.0,-0.1,0.2,0.9,1.2000000000000002,2.2,10.4,3.4,-0.7,-0.4,16
587,9901.0,-0.2,0.1,0.9,1.2000000000000002,2.1,10.4,5.8,0.4,-0.1,16
588,9925.0,-0.2,0.0,0.8,1.2000000000000002,2.0,10.3,7.9,2.0,0.5,16
589,9934.0,-0.2,0.0,0.8,1.2000000000000002,2.0,10.3,7.9,2.0,0.5,16
590,9950.0,-0.1,-0.2,0.7000000000000001,1.2000000000000002,2.0,10.100000000000001,12.100000000000001,5.7,1.3,16
591,9968.0,-0.2,-0.2,0.4,1.2000000000000002,1.9000000000000001,9.8,14.0,7.0,1.9,16
592,9984.0,-0.2,-0.2,0.4,1.2000000000000002,2.0,9.600000000000001,14.0,7.0,1.9,16
593,10009.0,-0.1,-0.2,-0.1,1.2000000000000002,2.2,9.3,13.900000000000002,4.9,3.2,16
594,10017.0,0.0,-0.1,-0.1,1.3,2.2,9.4,12.8,2.4000000000000004,3.5,16
595,10035.0,0.0,-0.1,-0.1,1.3,2.2,9.5,13.200000000000003,0.1,3.6000000000000005,16
596,10051.0,0.1,-0.1,-0.1,1.4000000000000001,2.3000000000000003,9.4,15.5,-0.7,3.8,16
597,10070.0,0.2,0.0,-0.4,1.6,2.5,9.0,16.3,0.2,3.6000000000000005,16
598,10084.0,0.2,0.1,-0.6000000000000001,1.5,2.6,8.6,14.900000000000002,0.30000000000000004,2.2,16
599,10101.0,0.2,0.1,-0.9,1.5,2.6,8.5,11.1,0.1,0.30000000000000004,16
600,10117.0,0.2,0.1,-0.9,1.5,2.6,8.6,6.0,0.6000000000000001,-1.0,16
601,10134.0,0.2,0.1,-0.9,1.5,2.6,8.700000000000001,6.0,0.6000000000000001,-1.0,16
602,10151.0,0.1,0.1,-0.30000000000000004,1.4000000000000001,2.6,9.1,-1.4,-0.4,-2.9,16
603,10167.0,0.0,0.1,-0.2,1.3,2.6,9.200000000000001,-2.0,-1.8000000000000003,-2.7,16
604,10188.0,0.2,0.2,-0.1,1.5,2.7,9.4,-3.1,-2.8,-2.0,16
605,10201.0,0.2,0.2,-0.1,1.6,2.8000000000000003,9.5,-3.1,-2.8,-2.0,16
606,10220.0,0.30000000000000004,0.30000000000000004,0.30000000000000004,1.7000000000000002,2.8000000000000003,9.700000000000001,-5.4,1.1,-1.9,16
607,10234.0,0.30000000000000004,0.30000000000000004,0.5,1.7000000000000002,2.8000000000000003,9.9,-4.6,2.9,-2.6,16
608,10250.0,0.30000000000000004,0.30000000000000004,0.5,1.6,2.8000000000000003,10.0,-4.6,2.9,-2.6,16
609,10267.0,0.2,0.4,0.4,1.5,2.8000000000000003,9.8,2.1,1.5,-4.9,16
610,10287.0,0.2,0.30000000000000004,0.30000000000000004,1.4000000000000001,2.8000000000000003,9.600000000000001,3.7000000000000006,3.6000000000000005,-5.1000000000000005,16
611,10301.0,0.2,0.30000000000000004,0.30000000000000004,1.4000000000000001,2.8000000000000003,9.5,3.7000000000000006,3.6000000000000005,-5.1000000000000005,16
612,10325.0,0.1,0.2,-0.2,1.2000000000000002,2.7,9.1,2.7,10.4,-5.8,16
613,10334.0,0.0,0.2,-0.4,1.1,2.6,9.0,-0.2,12.299999999999999,-6.8,16
614,10351.0,0.0,0.2,-0.4,1.1,2.6,8.9,-0.2,12.299999999999999,-6.8,16
615,10368.0,-0.30000000000000004,0.1,-0.4,0.8,2.5,9.1,-7.200000000000001,12.200000000000001,-8.3,16
616,10384.0,-0.30000000000000004,0.0,-0.1,0.8,2.5,9.4,-9.4,9.899999999999999,-8.100000000000001,16
617,10402.0,-0.30000000000000004,0.0,-0.1,0.8,2.4000000000000004,9.700000000000001,-9.0,7.400000000000001,-7.6,16
618,10417.0,-0.30000000000000004,0.0,0.30000000000000004,0.8,2.4000000000000004,9.8,-6.1000000000000005,4.7,-6.600000000000001,16
619,10434.0,-0.2,0.0,0.4,0.8,2.4000000000000004,9.8,-3.1,1.8000000000000003,-5.4,16
620,10451.0,-0.2,0.0,0.30000000000000004,0.9,2.4000000000000004,9.700000000000001,-1.1,-0.2,-3.4,16
621,10467.0,-0.2,0.0,0.30000000000000004,1.0,2.4000000000000004,9.700000000000001,-1.1,-0.2,-3.4,16
622,10484.0,0.0,0.0,0.30000000000000004,1.0,2.5,9.700000000000001,2.1,-1.7,-1.4,16
623,10500.0,0.0,0.0,-0.1,1.0,2.4000000000000004,9.3,3.0,-1.3,-1.0,16
624,10518.0,0.0,0.0,-0.1,1.1,2.4000000000000004,9.200000000000001,3.0,-1.3,-1.0,16
625,10539.0,0.0,0.1,-0.2,1.1,2.4000000000000004,9.200000000000001,-1.3,0.8,-1.0,16
626,10550.0,0.0,0.0,-0.30000000000000004,1.0,2.4000000000000004,9.1,-2.6,1.5,-1.2000000000000002,16
627,10567.0,0.0,0.0,-0.30000000000000004,1.0,2.4000000000000004,9.200000000000001,-2.6,1.5,-1.2000000000000002,16
628,10584.0,0.0,0.0,-0.1,1.0,2.4000000000000004,9.3,-4.2,-1.1,-1.0,16
629,10601.0,0.0,0.0,-0.1,1.0,2.4000000000000004,9.4,-3.6000000000000005,-1.1,-0.2,16
630,10617.0,0.0,0.0,-0.1,1.3,2.4000000000000004,9.600000000000001,-3.6000000000000005,-1.1,-0.2,16
631,10634.0,0.0,0.0,0.1,1.0,2.4000000000000004,9.5,2.0,12.600000000000001,0.0,16
632,10651.0,0.0,0.0,-0.4,0.9,2.4000000000000004,8.9,1.0,15.8,0.1,16
633,10668.0,0.0,0.0,-0.4,0.9,2.4000000000000004,8.8,1.0,15.8,0.1,16
634,10686.0,0.6000000000000001,-0.30000000000000004,-0.1,1.5,2.0,9.4,-9.100000000000001,7.9,-6.600000000000001,16
635,10700.0,-0.9,0.5,-0.1,0.1,2.7,9.4,-10.0,4.0,-7.400000000000001,16
636,10722.0,0.1,-0.30000000000000004,0.2,0.8,2.2,9.9,-12.200000000000001,-7.0,-5.1000000000000005,16
637,10734.0,0.1,-0.30000000000000004,0.2,0.5,2.3000000000000003,10.100000000000001,-12.200000000000001,-7.0,-5.1000000000000005,16
638,10752.0,0.0,0.0,0.6000000000000001,1.0,2.3000000000000003,10.0,-6.8,-13.5,-3.8,16
639,10768.0,0.1,0.1,0.4,1.1,2.4000000000000004,9.9,-4.1,-9.700000000000001,-3.5,16
640,10785.0,0.1,0.1,0.4,1.1,2.5,9.8,-4.1,-9.700000000000001,-3.5,16
641,10800.0,0.1,0.30000000000000004,0.1,1.1,2.5,9.600000000000001,-3.9,-0.4,-4.6,16
642,10818.0,0.0,0.2,0.2,1.0,2.4000000000000004,9.700000000000001,-5.300000000000001,3.1,-4.9,16
643,10834.0,0.0,0.2,0.2,0.9,2.4000000000000004,9.8,-5.300000000000001,3.1,-4.9,16
644,10850.0,-0.1,0.0,0.30000000000000004,0.8,2.3000000000000003,9.8,-2.2,2.6,-4.4,16
645,10867.0,-0.1,0.0,0.1,0.8,2.2,9.5,0.6000000000000001,1.6,-5.1000000000000005,16
646,10884.0,-0.1,0.0,0.1,0.7000000000000001,2.1,9.4,0.6000000000000001,1.6,-5.1000000000000005,16
647,10900.0,-0.2,-0.2,-0.30000000000000004,0.7000000000000001,2.1,9.3,-2.1,1.8000000000000003,-5.9,16
648,10927.0,-0.2,-0.2,0.0,0.6000000000000001,2.0,9.700000000000001,-5.1000000000000005,2.7,-5.6,16
649,10934.0,-0.2,-0.2,0.0,0.6000000000000001,2.0,9.700000000000001,-5.1000000000000005,2.7,-5.6,16
650,10950.0,-0.2,-0.30000000000000004,0.1,0.6000000000000001,1.9000000000000001,9.700000000000001,-5.4,5.2,-4.300000000000001,16
651,10967.0,-0.2,-0.2,0.1,0.6000000000000001,1.9000000000000001,9.600000000000001,-4.7,6.1000000000000005,-3.0,16
652,10984.0,-0.2,-0.2,0.1,0.7000000000000001,1.9000000000000001,9.600000000000001,-4.300000000000001,5.2,-2.0,16
653,11001.0,-0.1,-0.2,0.0,0.8,1.9000000000000001,9.600000000000001,-4.300000000000001,5.2,-2.0,16
654,11018.0,0.0,-0.1,-0.1,0.8,2.0,9.4,-4.1,5.300000000000001,-0.5,16
655,11035.0,0.1,0.0,-0.2,0.8,2.1,9.5,-5.4,5.4,-0.1,16
656,11051.0,0.1,0.0,-0.2,0.8,2.1,9.5,-5.4,5.4,-0.1,16
657,11067.0,0.2,0.0,0.0,0.9,2.0,9.600000000000001,-6.600000000000001,3.5,0.7,16
658,11084.0,0.2,0.0,0.1,0.9,2.1,9.700000000000001,-5.9,1.4,0.30000000000000004,16
659,11106.0,0.1,0.0,0.1,0.8,2.0,9.600000000000001,-4.9,-1.7,0.0,16
660,11117.0,0.1,0.0,-0.1,0.9,2.0,9.5,-4.2,-2.5,0.0,16
661,11134.0,0.1,0.0,0.0,0.9,2.0,9.600000000000001,-5.300000000000001,-3.3000000000000007,-0.2,16
662,11151.0,0.1,0.0,0.0,0.9,2.0,9.700000000000001,-5.300000000000001,-3.3000000000000007,-0.2,16
663,11171.0,0.2,0.0,0.1,0.9,2.0,9.8,-6.0,-0.9000000000000001,-1.0,16
664,11184.0,0.1,0.0,0.2,0.9,1.9000000000000001,9.8,-6.0,-2.1,-2.0,16
665,11203.0,0.1,0.0,0.2,0.9,1.9000000000000001,9.8,-5.300000000000001,-2.6,-2.2,16
666,11222.0,0.1,0.0,0.1,0.9,1.9000000000000001,9.8,-4.0,-2.3,-2.1,16
667,11235.0,0.1,0.0,0.0,0.9,1.9000000000000001,9.600000000000001,-4.1,-4.9,-2.5,16
668,11250.0,0.1,0.0,0.1,0.9,1.9000000000000001,9.9,-5.0,-5.9,-2.8,16
669,11268.0,0.1,0.0,0.30000000000000004,0.9,1.9000000000000001,10.0,-4.6,-6.500000000000001,-3.0,16
670,11289.0,0.0,0.0,0.30000000000000004,0.9,1.8,10.0,-2.2,-6.2,-2.2,16
671,11301.0,0.1,0.0,0.2,1.0,1.9000000000000001,9.8,0.0,-5.8,-1.4,16
672,11320.0,0.1,0.0,0.2,1.0,1.9000000000000001,9.700000000000001,0.8,-5.6,-1.5,16
673,11333.0,0.2,0.0,0.0,1.1,1.9000000000000001,9.600000000000001,0.8,-4.9,-2.1,16
674,11351.0,0.2,0.1,-0.2,1.1,1.9000000000000001,9.5,0.0,-4.4,-3.2,16
675,11368.0,0.2,0.1,-0.2,1.1,1.9000000000000001,9.5,0.0,-4.4,-3.2,16
676,11384.0,0.1,0.0,0.0,1.0,1.9000000000000001,9.700000000000001,-3.4,-2.6,-4.9,16
677,11402.0,0.1,0.0,0.1,1.0,1.9000000000000001,9.700000000000001,-3.2,-2.0,-5.2,16
678,11421.0,0.0,0.0,0.0,1.0,1.9000000000000001,9.600000000000001,-2.4000000000000004,-1.6,-5.500000000000001,16
679,11439.0,0.0,0.0,0.0,0.9,1.9000000000000001,9.600000000000001,-2.2,-3.3000000000000007,-6.1000000000000005,16
680,11450.0,-0.1,0.0,-0.1,0.9,1.9000000000000001,9.5,-2.1,-4.7,-6.2,16
681,11467.0,-0.1,0.0,-0.1,0.9,1.9000000000000001,9.600000000000001,-3.2,-5.8,-6.500000000000001,16
682,11484.0,-0.1,0.1,0.0,0.9,1.9000000000000001,9.700000000000001,-4.5,-5.300000000000001,-6.9,16
683,11502.0,-0.2,0.0,0.1,0.8,1.8,9.8,-4.6,-4.5,-6.8,16
684,11518.0,-0.2,0.0,0.1,0.8,1.9000000000000001,9.8,-4.0,-3.5,-5.7,16
685,11534.0,-0.2,0.0,0.1,0.8,1.9000000000000001,9.8,-3.3000000000000007,-3.5,-4.6,16
686,11551.0,-0.1,0.1,0.1,0.9,1.9000000000000001,9.700000000000001,-2.6,-4.1,-4.0,16
687,11574.0,-0.1,0.1,0.1,0.9,1.9000000000000001,9.700000000000001,-2.4000000000000004,-4.300000000000001,-3.7000000000000006,16
688,11584.0,-0.1,0.1,0.1,0.9,1.9000000000000001,9.700000000000001,-2.4000000000000004,-4.300000000000001,-3.7000000000000006,16
689,11601.0,-0.2,0.1,0.0,0.8,1.9000000000000001,9.700000000000001,-3.1,-2.9,-2.8,16
690,11640.0,-0.30000000000000004,0.0,0.0,0.7000000000000001,1.8,9.600000000000001,-2.6,-1.9,-0.9000000000000001,16
691,11651.0,-0.30000000000000004,0.0,0.0,0.7000000000000001,1.8,9.700000000000001,-2.6,-2.0,0.9000000000000001,16
692,11667.0,-0.30000000000000004,0.0,0.1,0.7000000000000001,1.7000000000000002,9.8,-1.9,-2.2,2.3,16
693,11685.0,-0.30000000000000004,0.0,0.1,0.8,1.7000000000000002,9.8,-1.9,-2.2,2.3,16
694,11700.0,-0.2,0.0,0.0,0.8,1.7000000000000002,9.700000000000001,-0.4,-3.9,3.3000000000000007,16
695,11720.0,-0.1,0.0,0.1,1.0,1.8,9.8,-0.8,-4.2,2.8,16
696,11734.0,-0.1,0.0,0.1,1.1,1.8,9.8,-0.8,-4.2,2.8,16
697,11751.0,0.1,0.0,-0.1,1.1,1.8,9.600000000000001,-1.5,0.4,1.2000000000000002,16
698,11767.0,0.1,0.0,-0.1,1.1,1.8,9.5,-2.8,1.5,0.2,16
699,11787.0,0.1,0.0,-0.1,1.1,1.8,9.600000000000001,-4.2,1.4,-0.5,16
700,11801.0,0.2,0.0,0.1,1.2000000000000002,1.8,9.8,-5.300000000000001,1.2000000000000002,-0.7,16
701,11819.0,0.2,0.1,0.1,1.3,1.8,9.8,-3.9,2.8,-1.0,16
702,11838.0,0.2,0.1,0.0,1.2000000000000002,1.8,9.600000000000001,-2.2,4.7,-1.1,16
703,11850.0,0.2,0.1,0.0,1.2000000000000002,1.9000000000000001,9.5,-2.2,4.7,-1.1,16
704,11867.0,0.2,0.2,-0.4,1.2000000000000002,1.9000000000000001,9.3,-1.4,7.0,-0.4,16
705,11884.0,0.2,0.2,-0.4,1.2000000000000002,1.9000000000000001,9.3,-2.8,5.500000000000001,-0.30000000000000004,16
706,11901.0,0.2,0.2,-0.4,1.2000000000000002,1.9000000000000001,9.4,-2.8,5.500000000000001,-0.30000000000000004,16
707,11917.0,0.1,0.1,-0.2,1.1,1.8,9.4,-2.3,-0.7,-0.5,16
708,11937.0,0.1,0.1,-0.2,1.2000000000000002,1.8,9.5,-2.7,-3.4,-0.1,16
709,11951.0,0.1,0.1,-0.2,1.3,1.7000000000000002,9.700000000000001,-2.7,-3.4,-0.1,16
710,11968.0,0.2,0.0,0.30000000000000004,1.3,1.7000000000000002,9.9,-3.6000000000000005,-4.4,-2.8,16
711,11984.0,0.1,-0.1,0.30000000000000004,1.2000000000000002,1.6,9.9,-2.8,-2.7,-4.1,16
712,12009.0,0.0,-0.1,0.2,1.1,1.5,10.0,-2.5,-0.6000000000000001,-4.6,16
713,12018.0,0.1,-0.1,0.30000000000000004,1.1,1.5,10.0,-2.3,0.8,-4.800000000000001,16
714,12034.0,0.0,-0.1,0.2,1.0,1.6,9.9,-1.9,2.8,-5.300000000000001,16
715,12051.0,-0.1,-0.1,0.1,1.0,1.6,9.8,-2.5,4.7,-5.300000000000001,16
716,12067.0,-0.1,0.0,0.0,0.9,1.6,9.700000000000001,-3.1,6.0,-4.9,16
717,12084.0,-0.1,0.0,-0.1,0.9,1.6,9.700000000000001,-3.7000000000000006,6.4,-4.4,16
718,12101.0,0.0,0.1,0.0,0.9,1.7000000000000002,9.8,-3.7000000000000006,6.1000000000000005,-4.2,16
719,12129.0,-0.1,0.1,0.1,0.8,1.7000000000000002,9.700000000000001,-2.4000000000000004,5.7,-4.5,16
720,12136.0,-0.1,0.1,0.0,0.8,1.7000000000000002,9.700000000000001,-1.6,4.5,-3.9,16
721,12150.0,-0.1,0.1,0.0,0.8,1.7000000000000002,9.700000000000001,-1.8000000000000003,3.5,-2.8,16
722,12167.0,-0.1,0.1,0.0,0.8,1.7000000000000002,9.8,-1.8000000000000003,3.5,-2.8,16
723,12184.0,0.1,0.1,0.1,1.0,1.7000000000000002,9.8,-1.1,2.1,-1.7,16
724,12200.0,0.1,0.1,0.0,1.0,1.7000000000000002,9.8,-0.5,2.0,-2.0,16
725,12219.0,0.0,0.1,0.0,0.9,1.7000000000000002,9.700000000000001,-0.6000000000000001,2.5,-2.3,16
726,12234.0,0.1,0.1,-0.1,0.9,1.7000000000000002,9.600000000000001,-0.9000000000000001,4.2,-2.3,16
727,12253.0,0.0,0.1,-0.1,0.9,1.6,9.700000000000001,-1.3,4.300000000000001,-2.5,16
728,12268.0,0.1,0.0,0.0,0.9,1.7000000000000002,9.8,-1.5,2.3,-2.6,16
729,12284.0,0.1,0.1,0.2,0.9,1.7000000000000002,9.9,-1.0,-1.1,-3.3000000000000007,16
730,12301.0,0.1,0.0,0.30000000000000004,0.9,1.6,10.100000000000001,0.5,-2.6,-3.4,16
731,12318.0,0.1,0.0,0.30000000000000004,0.9,1.6,10.100000000000001,2.3,-2.0,-3.2,16
732,12337.0,0.1,0.0,0.1,1.0,1.6,9.9,3.9,0.7,-3.1,16
733,12351.0,0.1,0.0,-0.2,1.0,1.6,9.5,4.1,3.1,-3.6000000000000005,16
734,12367.0,0.1,0.0,-0.2,1.0,1.6,9.4,4.1,3.1,-3.6000000000000005,16
735,12384.0,0.1,0.0,-0.4,0.9,1.6,9.3,2.6,4.4,-4.800000000000001,16
736,12401.0,-0.2,-0.1,-0.30000000000000004,0.6000000000000001,1.5,9.5,-1.6,2.3,-7.0,16
737,12421.0,-0.2,-0.1,-0.2,0.6000000000000001,1.5,9.5,-2.2,2.1,-6.2,16
738,12437.0,-0.2,-0.1,-0.2,0.6000000000000001,1.5,9.600000000000001,-2.2,2.1,-6.2,16
739,12450.0,-0.1,-0.2,0.0,0.7000000000000001,1.4000000000000001,9.8,-2.0,-0.4,-4.4,16
740,12468.0,-0.1,-0.2,0.0,0.6000000000000001,1.4000000000000001,9.700000000000001,-1.4,-0.5,-4.2,16
741,12484.0,-0.1,-0.2,0.0,0.7000000000000001,1.5,9.700000000000001,-1.4,-0.5,-4.2,16
742,12504.0,-0.2,-0.1,-0.1,0.6000000000000001,1.4000000000000001,9.5,-1.9,1.8000000000000003,-3.9,16
743,12518.0,-0.2,-0.1,-0.2,0.5,1.4000000000000001,9.600000000000001,-3.4,1.9,-3.3000000000000007,16
744,12536.0,-0.2,-0.1,-0.2,0.5,1.4000000000000001,9.700000000000001,-4.2,1.7,-2.2,16
745,12555.0,-0.1,-0.1,0.1,0.6000000000000001,1.4000000000000001,9.8,-3.1,1.0,-1.1,16
746,12574.0,-0.2,-0.1,0.1,0.6000000000000001,1.4000000000000001,9.8,-1.8000000000000003,-0.5,-0.5,16
747,12584.0,-0.2,-0.1,0.1,0.6000000000000001,1.5,9.8,-1.8000000000000003,-0.5,-0.5,16
748,12602.0,0.0,-0.1,0.1,0.7000000000000001,1.4000000000000001,9.8,1.0,-1.6,0.5,16
749,12618.0,0.0,-0.1,-0.1,0.7000000000000001,1.5,9.600000000000001,1.1,-1.4,0.8,16
750,12634.0,0.0,-0.1,-0.1,0.8,1.5,9.700000000000001,1.1,-1.4,0.8,16
751,12651.0,0.1,-0.1,0.0,0.8,1.5,9.9,0.1,-1.4,1.0,16
752,12667.0,0.1,0.0,0.1,0.9,1.5,9.8,0.9000000000000001,0.9000000000000001,0.5,16
753,12687.0,0.1,0.0,-0.1,0.9,1.5,9.600000000000001,1.9,1.9,0.30000000000000004,16
754,12700.0,0.1,0.0,-0.1,0.8,1.5,9.5,1.9,1.9,0.30000000000000004,16
755,12728.0,0.1,0.0,-0.4,0.8,1.6,9.3,1.3,3.6000000000000005,-0.5,16
756,12736.0,0.0,0.0,-0.4,0.7000000000000001,1.6,9.3,-0.4,2.6,-1.0,16
757,12751.0,0.0,0.0,-0.4,0.7000000000000001,1.6,9.4,-0.4,2.6,-1.0,16
758,12767.0,0.0,0.1,-0.30000000000000004,0.7000000000000001,1.6,9.4,-2.0,-1.2000000000000002,-1.9,16
759,12787.0,-0.1,0.0,-0.2,0.6000000000000001,1.5,9.600000000000001,-3.7000000000000006,-3.6000000000000005,-2.8,16
760,12801.0,-0.1,0.0,-0.2,0.6000000000000001,1.4000000000000001,10.0,-5.2,-3.9,-2.6,16
761,12817.0,-0.2,-0.1,0.4,0.6000000000000001,1.4000000000000001,10.100000000000001,-4.5,-2.4000000000000004,-2.0,16
762,12838.0,-0.2,-0.1,0.5,0.5,1.4000000000000001,10.200000000000001,-2.9,-0.1,-0.6000000000000001,16
763,12851.0,-0.2,-0.1,0.5,0.5,1.4000000000000001,10.200000000000001,-2.9,-0.1,-0.6000000000000001,16
764,12867.0,-0.1,-0.1,0.30000000000000004,0.6000000000000001,1.4000000000000001,10.100000000000001,-1.4,4.800000000000001,2.1,16
765,12884.0,-0.1,0.0,0.4,0.6000000000000001,1.5,10.200000000000001,-0.8,5.300000000000001,2.8,16
766,12901.0,0.0,0.0,0.5,0.7000000000000001,1.5,10.200000000000001,1.6,4.1,3.0,16
767,12919.0,0.0,0.0,0.30000000000000004,0.7000000000000001,1.5,10.100000000000001,5.0,2.2,3.0,16
768,12938.0,0.1,0.1,0.1,0.8,1.6,9.8,7.300000000000001,0.6000000000000001,3.0,16
769,12951.0,0.2,0.1,-0.1,0.9,1.6,9.600000000000001,7.400000000000001,0.6000000000000001,2.5,16
770,12967.0,0.2,0.1,-0.1,0.9,1.6,9.5,7.400000000000001,0.6000000000000001,2.5,16
771,12984.0,0.2,0.1,-0.30000000000000004,0.9,1.6,9.5,3.4,4.2,0.30000000000000004,16
772,13001.0,0.2,0.0,-0.30000000000000004,0.8,1.6,9.5,1.2000000000000002,5.8,-0.2,16
773,13018.0,0.2,0.0,-0.30000000000000004,0.8,1.6,9.600000000000001,0.5,5.500000000000001,-0.8,16
774,13034.0,0.1,0.0,-0.1,0.8,1.6,9.600000000000001,1.3,3.6000000000000005,-1.1,16
775,13051.0,0.1,0.0,-0.1,0.7000000000000001,1.6,9.600000000000001,1.8000000000000003,0.8,-1.4,16
776,13067.0,0.1,0.0,-0.1,0.7000000000000001,1.6,9.600000000000001,1.8000000000000003,0.8,-1.4,16
777,13087.0,0.0,0.0,-0.1,0.7000000000000001,1.6,9.700000000000001,1.7,-0.5,-1.6,16
778,13100.0,0.0,0.0,0.1,0.6000000000000001,1.6,9.9,1.0,-0.8,-1.7,16
779,13120.0,0.0,0.0,0.30000000000000004,0.6000000000000001,1.6,10.100000000000001,1.6,-1.2000000000000002,-1.3,16
780,13134.0,-0.1,0.0,0.4,0.6000000000000001,1.6,10.100000000000001,4.4,-1.6,-0.5,16
781,13151.0,0.0,0.0,0.2,0.7000000000000001,1.6,9.9,6.600000000000001,-2.8,0.30000000000000004,16
782,13167.0,0.0,0.0,0.2,0.7000000000000001,1.7000000000000002,9.8,6.600000000000001,-2.8,0.30000000000000004,16
783,13184.0,0.0,0.0,0.1,0.7000000000000001,1.7000000000000002,9.8,6.600000000000001,-3.0,-0.4,16
784,13201.0,0.0,-0.1,0.2,0.7000000000000001,1.6,10.0,7.0,-1.9,0.0,16
785,13218.0,-0.2,0.0,0.30000000000000004,0.6000000000000001,1.7000000000000002,10.0,9.0,-0.1,1.5,16
786,13233.0,-0.2,0.0,0.30000000000000004,0.5,1.7000000000000002,9.8,9.0,-0.1,1.5,16
787,13250.0,0.0,-0.1,-0.1,0.6000000000000001,1.7000000000000002,9.700000000000001,10.5,10.600000000000001,5.1000000000000005,16
788,13268.0,-0.1,0.1,-0.1,0.30000000000000004,2.0,9.600000000000001,8.8,14.100000000000001,4.5,16
789,13286.0,0.2,-0.2,-0.1,1.7000000000000002,1.1,9.700000000000001,6.0,17.200000000000003,5.1000000000000005,16
790,13301.0,0.9,-0.6000000000000001,0.1,1.4000000000000001,1.3,9.9,5.7,31.799999999999997,-1.2000000000000002,16
791,13317.0,-0.6000000000000001,0.8,-0.5,0.0,2.6,9.0,5.4,39.0,-2.8,16
792,13337.0,0.5,0.2,-0.7000000000000001,0.4,2.0,9.3,-0.1,28.400000000000002,-1.2000000000000002,16
793,13352.0,0.1,0.1,-0.1,0.30000000000000004,2.0,9.600000000000001,-1.3,21.300000000000004,-9.2,16
794,13371.0,0.1,-0.1,0.0,0.30000000000000004,1.7000000000000002,9.600000000000001,4.2,21.300000000000004,-10.5,16
795,13384.0,0.1,-0.1,0.0,-0.1,1.9000000000000001,9.0,4.2,21.300000000000004,-10.5,16
796,13405.0,-0.30000000000000004,0.0,-0.9,-0.2,2.0,9.200000000000001,1.4,8.2,-9.899999999999999,16
797,13417.0,-0.1,0.0,-0.1,0.1,1.8,9.700000000000001,-2.6,0.8,-8.3,16
798,13435.0,0.30000000000000004,-0.1,0.2,0.30000000000000004,1.8,9.8,-0.1,-6.0,-9.100000000000001,16
799,13452.0,0.2,-0.1,0.30000000000000004,0.30000000000000004,1.8,10.0,4.6,-13.200000000000003,-11.700000000000001,16
800,13467.0,0.0,-0.1,0.4,0.1,1.9000000000000001,10.100000000000001,10.9,-19.400000000000002,-12.5,16
801,13484.0,-0.1,-0.1,0.2,0.30000000000000004,1.8,9.700000000000001,16.8,-18.700000000000003,-11.8,16
802,13501.0,-0.1,-0.1,0.2,0.4,1.8,9.4,16.8,-18.700000000000003,-11.8,16
803,13517.0,-0.1,-0.1,0.2,0.4,1.8,9.4,16.8,-18.700000000000003,-11.8,16
804,13534.0,0.2,-0.2,-0.2,0.5,1.8,9.5,18.200000000000003,-17.300000000000004,-11.2,16
805,13555.0,0.0,-0.30000000000000004,0.30000000000000004,0.4,2.0,9.700000000000001,17.0,-12.9,-5.9,16
806,13567.0,0.2,0.0,-0.1,0.7000000000000001,2.2,9.4,17.6,-17.1,-6.300000000000001,16
807,13587.0,1.0,0.1,-0.1,2.0,2.4000000000000004,9.8,15.299999999999999,-20.3,-10.0,16
808,13601.0,1.0,0.1,-0.1,1.6,2.3000000000000003,9.3,15.299999999999999,-20.3,-10.0,16
809,13618.0,0.7000000000000001,-0.1,-0.8,0.9,2.1,8.8,-3.8,41.4,-14.400000000000002,16
810,13636.0,-0.30000000000000004,-0.1,-0.5,-0.2,2.1,9.4,-17.7,39.400000000000006,-13.700000000000001,16
811,13651.0,-0.30000000000000004,-0.1,-0.5,-0.30000000000000004,2.0,10.0,-17.7,39.400000000000006,-13.700000000000001,16
812,13667.0,-0.5,-0.5,0.4,-0.30000000000000004,1.6,10.0,-0.9000000000000001,-16.5,-10.200000000000001,16
813,13684.0,-0.6000000000000001,-0.7000000000000001,0.5,-0.30000000000000004,1.5,10.100000000000001,11.3,-40.7,-8.899999999999999,16
814,13700.0,-0.6000000000000001,-0.7000000000000001,0.5,-0.2,1.6,10.100000000000001,11.3,-40.7,-8.899999999999999,16
815,13717.0,-0.7000000000000001,-0.6000000000000001,-0.8,-0.1,1.7000000000000002,8.8,16.5,-35.2,0.7,16
816,13736.0,-0.9,-0.8,-1.1,-0.4,1.5,8.6,-0.6000000000000001,-4.300000000000001,3.0,16
817,13752.0,-0.30000000000000004,-0.2,-0.2,1.2000000000000002,2.6,9.8,-15.399999999999999,17.5,8.899999999999999,16
818,13768.0,-0.30000000000000004,-0.2,-0.2,2.7,3.7,10.4,-15.399999999999999,17.5,8.899999999999999,16
819,13784.0,1.9000000000000001,1.6,1.1,2.0,3.7,10.600000000000001,7.699999999999999,17.799999999999997,-1.5,16
820,13801.0,-0.2,0.2,0.2,-0.30000000000000004,2.1,9.4,11.000000000000002,17.400000000000002,-7.300000000000001,16
821,13821.0,-0.7000000000000001,-0.2,-0.30000000000000004,-0.6000000000000001,2.5,9.200000000000001,6.1000000000000005,11.5,-3.8,16
822,13875.0,0.0,-0.1,-0.8,0.5,2.3000000000000003,8.5,7.300000000000001,-25.7,3.1,16
823,13884.0,0.0,0.1,-1.5,0.5,2.5,8.0,-1.4,-27.700000000000003,1.8000000000000003,16
824,13917.0,0.1,0.2,-1.6,1.0,2.2,8.6,-16.0,-35.4,0.4,16
825,13937.0,0.2,-0.30000000000000004,-0.5,0.6000000000000001,1.8,9.1,-37.9,-16.3,-1.1,16
826,13950.0,-1.0,0.0,0.1,-0.8,2.0,10.100000000000001,-39.699999999999996,-5.7,-0.2,16
827,13968.0,-1.0,0.0,0.1,-2.5,2.2,9.9,-39.699999999999996,-5.7,-0.2,16
828,13987.0,1.4000000000000001,0.0,-0.9,2.1,1.8,8.9,-34.2,72.30000000000001,18.1,16
829,14000.0,1.4000000000000001,0.0,-0.9,2.1,1.8,8.9,-34.2,72.30000000000001,18.1,16
830,14017.0,1.4000000000000001,0.0,-0.9,1.9000000000000001,2.2,11.4,-34.2,72.30000000000001,18.1,16
831,14033.0,0.6000000000000001,0.1,1.5,0.6000000000000001,1.3,11.100000000000001,-34.0,22.2,7.9,16
832,14050.0,0.7000000000000001,-0.4,2.9000000000000004,1.5,1.0,13.200000000000001,-4.7,-9.100000000000001,2.6,16
833,14067.0,0.7000000000000001,-0.30000000000000004,3.6,0.8,1.3,12.4,17.7,-39.599999999999994,-6.2,16
834,14083.0,0.7000000000000001,-0.30000000000000004,3.6,0.2,1.2000000000000002,10.9,17.7,-39.599999999999994,-6.2,16
835,14100.0,-1.1,-0.6000000000000001,0.2,-0.30000000000000004,1.1,9.8,38.0,-30.599999999999998,-7.8,16
836,14117.0,-0.5,-0.1,-0.7000000000000001,0.8,1.9000000000000001,8.6,35.8,-31.400000000000002,-2.9,16
837,14134.0,-0.5,-0.1,-0.7000000000000001,1.6,1.8,8.0,35.8,-31.400000000000002,-2.9,16
838,14151.0,-0.30000000000000004,0.1,-3.0,0.9,2.0,6.6000000000000005,-20.599999999999998,-101.20000000000002,-3.7000000000000006,16
839,14167.0,-0.6000000000000001,0.2,-1.4000000000000001,1.3,1.7000000000000002,8.9,-54.0,-134.6,-0.8,16
840,14184.0,-0.6000000000000001,0.2,-1.4000000000000001,1.7000000000000002,1.4000000000000001,10.200000000000001,-55.7,-131.10000000000002,-1.9,16
841,14200.0,-0.5,-0.1,1.6,1.9000000000000001,1.4000000000000001,11.100000000000001,-35.699999999999996,-109.30000000000001,-3.3000000000000007,16
842,14219.0,-0.5,0.2,1.8,2.1,1.7000000000000002,11.3,-9.100000000000001,-77.1,2.5,16
843,14234.0,-0.5,0.2,1.8,2.6,1.7000000000000002,10.4,13.6,-48.400000000000006,8.700000000000001,16
844,14250.0,0.30000000000000004,0.0,-0.6000000000000001,3.0,1.5,8.8,18.6,-29.600000000000005,6.8,16
845,14268.0,0.1,0.0,-1.2000000000000002,2.9000000000000004,1.5,8.0,10.1,-20.8,-0.8,16
846,14287.0,0.0,0.2,-2.5,2.7,1.8,6.5,-7.200000000000001,-18.900000000000002,-6.600000000000001,16
847,14302.0,-0.7000000000000001,0.30000000000000004,-3.1,1.4000000000000001,1.4000000000000001,8.200000000000001,-27.6,8.600000000000001,-7.6,16
848,14317.0,-0.4,0.0,3.2,2.5,1.4000000000000001,14.700000000000001,-23.700000000000003,102.10000000000001,-0.5,16
849,14333.0,1.3,0.7000000000000001,3.4000000000000004,2.3000000000000003,2.4000000000000004,11.100000000000001,23.3,120.60000000000001,-2.5,16
850,14350.0,1.3,0.7000000000000001,3.4000000000000004,2.2,0.9,10.5,23.3,120.60000000000001,-2.5,16
851,14367.0,1.0,-0.9,-0.8,2.8000000000000003,1.0,8.3,34.2,35.1,-10.600000000000001,16
852,14383.0,0.0,0.4,-1.4000000000000001,1.6,2.4000000000000004,8.4,15.2,29.500000000000004,-21.7,16
853,14403.0,0.0,0.4,-0.6000000000000001,2.3000000000000003,1.7000000000000002,9.0,-3.9,17.300000000000004,-19.6,16
854,14417.0,0.2,-0.1,-0.30000000000000004,2.0,1.5,9.3,-15.2,-1.5,-22.700000000000003,16
855,14434.0,-0.4,0.0,0.2,1.1,1.7000000000000002,9.9,-19.200000000000003,-12.7,-21.300000000000004,16
856,14451.0,-1.0,0.4,0.4,0.9,2.1,9.8,-16.3,-15.899999999999999,-12.100000000000001,16
857,14467.0,-0.8,0.6000000000000001,0.0,1.1,2.1,9.5,-8.899999999999999,-9.5,-2.5,16
858,14483.0,-0.6000000000000001,0.5,-0.1,1.4000000000000001,2.0,9.600000000000001,-3.1,3.6000000000000005,6.600000000000001,16
859,14500.0,-0.4,0.4,0.0,1.4000000000000001,2.0,9.600000000000001,2.1,15.700000000000001,11.900000000000002,16
860,14519.0,-0.5,0.4,-0.1,1.2000000000000002,2.0,9.5,5.6,24.7,13.8,16
861,14536.0,-0.5,0.4,-0.5,1.2000000000000002,1.9000000000000001,9.0,5.9,28.800000000000004,16.5,16
862,14552.0,-0.30000000000000004,0.2,-0.7000000000000001,1.5,1.7000000000000002,9.0,1.9,28.800000000000004,16.900000000000002,16
863,14568.0,0.0,0.0,-0.2,1.5,1.5,9.4,-3.2,28.600000000000005,15.6,16
864,14584.0,0.0,-0.30000000000000004,0.5,1.5,1.2000000000000002,10.3,-5.0,28.400000000000002,14.0,16
865,14600.0,0.0,-0.5,1.2000000000000002,1.3,1.0,10.700000000000001,-3.2,15.299999999999999,10.700000000000001,16
866,14617.0,0.0,-0.5,1.2000000000000002,1.4000000000000001,1.2000000000000002,10.0,-3.2,15.299999999999999,10.700000000000001,16
867,14633.0,-0.2,-0.2,0.2,1.3,1.3,9.8,-3.8,-10.5,5.1000000000000005,16
868,14650.0,0.2,-0.2,0.1,1.9000000000000001,1.2000000000000002,9.9,-6.600000000000001,-10.600000000000001,5.8,16
869,14667.0,0.2,-0.2,0.1,1.8,1.2000000000000002,10.100000000000001,-6.600000000000001,-10.600000000000001,5.8,16
870,14683.0,0.2,-0.2,0.30000000000000004,1.7000000000000002,1.3,10.0,1.2000000000000002,0.5,3.0,16
871,14700.0,0.2,-0.1,-0.2,1.6,1.4000000000000001,9.200000000000001,7.8,11.2,3.5,16
872,14717.0,0.2,-0.1,-0.2,1.6,1.4000000000000001,9.5,7.8,11.2,3.5,16
873,14733.0,0.2,0.0,-1.2000000000000002,1.7000000000000002,1.5,8.200000000000001,8.700000000000001,14.0,2.7,16
874,14750.0,0.1,0.0,-0.5,1.4000000000000001,1.5,9.600000000000001,2.4000000000000004,19.400000000000002,1.6,16
875,14767.0,0.1,0.0,-0.5,1.2000000000000002,1.5,9.4,2.4000000000000004,19.400000000000002,1.6,16
876,14783.0,-0.2,0.0,0.30000000000000004,1.1,1.5,10.0,-1.0,10.299999999999999,1.9,16
877,14800.0,-0.2,0.0,0.4,1.2000000000000002,1.5,10.100000000000001,2.9,8.700000000000001,3.4,16
878,14817.0,0.2,-0.1,-0.1,1.5,1.4000000000000001,9.3,6.9,9.4,4.2,16
879,14834.0,0.4,-0.2,-0.6000000000000001,1.6,1.4000000000000001,9.1,5.0,11.000000000000002,2.9,16
880,14850.0,0.30000000000000004,-0.2,-0.5,1.5,1.4000000000000001,9.200000000000001,-1.4,6.8,-0.4,16
881,14867.0,0.2,-0.2,-0.30000000000000004,1.4000000000000001,1.4000000000000001,9.5,-6.8,1.1,-2.9,16
882,14883.0,0.2,-0.2,-0.30000000000000004,1.3,1.4000000000000001,10.0,-6.8,1.1,-2.9,16
883,14902.0,0.0,-0.1,0.7000000000000001,1.3,1.4000000000000001,10.4,-9.3,-7.300000000000001,-5.1000000000000005,16
884,14917.0,0.1,0.0,0.7000000000000001,1.4000000000000001,1.4000000000000001,10.3,-4.6,-5.500000000000001,-4.300000000000001,16
885,14934.0,0.1,0.0,0.7000000000000001,1.6,1.4000000000000001,10.100000000000001,-4.6,-5.500000000000001,-4.300000000000001,16
886,14950.0,0.30000000000000004,-0.1,0.0,1.5,1.4000000000000001,9.700000000000001,-0.4,-2.0,-6.1000000000000005,16
887,14967.0,0.30000000000000004,-0.1,0.2,1.6,1.4000000000000001,10.0,-1.5,-4.6,-7.8,16
888,14983.0,0.30000000000000004,-0.1,0.2,1.5,1.5,9.9,-1.5,-4.6,-7.8,16
889,15000.0,0.1,0.2,0.1,1.5,1.7000000000000002,9.700000000000001,-0.7,-10.200000000000001,-8.899999999999999,16
890,15019.0,0.30000000000000004,0.2,-0.1,1.6,1.7000000000000002,9.4,-0.9000000000000001,-8.600000000000001,-7.400000000000001,16
891,15033.0,0.30000000000000004,0.2,-0.1,1.7000000000000002,1.6,9.5,-0.9000000000000001,-8.600000000000001,-7.400000000000001,16
892,15057.0,0.5,0.1,0.30000000000000004,1.9000000000000001,1.5,10.0,-1.5,-2.6,-6.4,16
893,15067.0,0.5,0.0,0.30000000000000004,1.9000000000000001,1.5,10.0,1.8000000000000003,-2.8,-8.100000000000001,16
894,15084.0,0.5,0.0,0.30000000000000004,1.9000000000000001,1.5,9.8,4.0,-5.2,-10.700000000000001,16
895,15100.0,0.4,0.0,-0.2,1.9000000000000001,1.5,9.5,3.7000000000000006,-11.8,-13.000000000000002,16
896,15117.0,0.2,0.1,-0.2,1.7000000000000002,1.7000000000000002,9.5,-0.8,-13.000000000000002,-14.100000000000001,16
897,15136.0,0.1,0.2,0.2,1.6,1.8,9.9,-2.9,-10.4,-13.100000000000001,16
898,15150.0,0.1,0.2,0.2,1.6,1.8,9.9,-2.9,-10.4,-13.100000000000001,16
899,15167.0,0.1,0.0,0.1,1.7000000000000002,1.6,9.700000000000001,1.4,0.8,-11.1,16
900,15183.0,0.1,-0.1,0.1,1.6,1.5,9.8,1.2000000000000002,2.5,-12.4,16
901,15205.0,0.1,-0.1,0.1,1.3,1.6,10.0,0.4,2.8,-13.700000000000001,16
902,15217.0,-0.30000000000000004,0.0,0.30000000000000004,1.2000000000000002,1.5,10.0,1.0,3.9,-12.5,16
903,15233.0,-0.4,0.0,0.2,1.0,1.6,9.9,1.0,1.7,-11.4,16
904,15250.0,-0.4,0.0,0.2,0.9,1.6,9.9,1.0,1.7,-11.4,16
905,15268.0,-0.4,0.0,0.1,1.0,1.5,9.8,2.0,1.0,-6.8,16
906,15289.0,-0.2,-0.2,-0.2,1.2000000000000002,1.4000000000000001,9.5,1.4,0.2,-5.4,16
907,15300.0,-0.2,-0.2,-0.2,1.2000000000000002,1.4000000000000001,9.5,1.4,0.2,-5.4,16
908,15317.0,-0.2,-0.2,-0.1,1.2000000000000002,1.4000000000000001,9.600000000000001,0.1,1.2000000000000002,-5.300000000000001,16
909,15333.0,-0.2,-0.30000000000000004,0.0,1.1,1.4000000000000001,9.600000000000001,0.1,1.2000000000000002,-5.300000000000001,16
910,15350.0,-0.1,-0.4,-0.1,1.4000000000000001,1.2000000000000002,9.5,7.400000000000001,5.1000000000000005,-4.4,16
911,15367.0,0.1,-0.4,-0.4,1.5,1.3,9.3,7.300000000000001,-1.4,-6.0,16
912,15383.0,0.0,-0.2,-0.5,1.3,1.5,9.1,2.7,-4.5,-8.3,16
913,15401.0,-0.1,-0.1,-0.5,1.3,1.6,9.1,-2.7,-8.5,-8.0,16
914,15417.0,-0.1,-0.1,-0.5,1.4000000000000001,1.6,9.0,-2.7,-8.5,-8.0,16
915,15433.0,0.0,0.2,-0.6000000000000001,1.5,1.7000000000000002,9.0,-15.100000000000001,-19.6,-5.500000000000001,16
916,15450.0,0.0,0.2,-0.4,1.6,1.7000000000000002,9.4,-19.9,-18.6,-4.2,16
917,15467.0,0.0,0.2,-0.4,1.4000000000000001,1.7000000000000002,9.8,-19.9,-18.6,-4.2,16
918,15483.0,0.1,0.0,0.6000000000000001,1.7000000000000002,1.4000000000000001,10.3,-18.5,-0.2,0.0,16
919,15500.0,0.30000000000000004,-0.2,0.8,1.9000000000000001,1.1,10.600000000000001,-19.1,2.5,-1.5,16
920,15517.0,0.30000000000000004,-0.2,0.8,1.8,1.0,10.700000000000001,-19.1,2.5,-1.5,16
921,15533.0,-0.30000000000000004,-0.1,1.3,1.3,1.2000000000000002,11.0,-22.4,-14.100000000000001,-11.000000000000002,16
922,15551.0,-0.6000000000000001,0.1,1.1,1.0,1.4000000000000001,10.8,-20.900000000000002,-21.400000000000002,-10.600000000000001,16
923,15570.0,-0.7000000000000001,0.30000000000000004,0.9,1.0,1.5,10.600000000000001,-19.1,-22.8,-7.500000000000001,16
924,15584.0,-0.7000000000000001,0.4,0.9,1.0,1.5,10.600000000000001,-16.8,-20.7,-3.1,16
925,15600.0,-0.7000000000000001,0.4,0.9,1.2000000000000002,1.4000000000000001,10.5,-16.8,-20.7,-3.1,16
926,15617.0,-0.5,0.30000000000000004,0.8,1.7000000000000002,1.1,10.4,-6.8,-20.599999999999998,1.9,16
927,15640.0,-0.2,0.1,0.30000000000000004,1.8,1.2000000000000002,9.600000000000001,-0.8,-27.3,-0.2,16
928,15651.0,-0.30000000000000004,0.2,-0.30000000000000004,1.8,1.3,9.3,5.1000000000000005,-30.4,-1.5,16
929,15667.0,-0.4,0.30000000000000004,-0.8,1.7000000000000002,1.4000000000000001,8.700000000000001,10.200000000000001,-29.500000000000004,-1.1,16
930,15684.0,-0.4,0.30000000000000004,-0.8,1.7000000000000002,1.5,8.4,10.200000000000001,-29.500000000000004,-1.1,16
931,15700.0,-0.5,0.30000000000000004,-1.5,1.8,1.5,8.1,16.200000000000003,-17.300000000000004,3.8,16
932,15717.0,-0.30000000000000004,0.1,-1.7000000000000002,2.0,1.3,7.800000000000001,15.6,-10.5,7.500000000000001,16
933,15734.0,-0.30000000000000004,0.1,-1.7000000000000002,2.2,1.1,7.800000000000001,15.6,-10.5,7.500000000000001,16
934,15750.0,-0.1,-0.4,-1.7000000000000002,2.1,0.8,7.800000000000001,5.8,1.4,9.4,16
935,15767.0,-0.2,-0.6000000000000001,-1.3,2.0,0.6000000000000001,8.5,-1.4,9.2,9.700000000000001,16
936,15783.0,-0.2,-0.6000000000000001,-1.3,2.0,0.4,8.8,-1.4,9.2,9.700000000000001,16
937,15801.0,-0.30000000000000004,-1.0,0.0,1.8,0.2,9.700000000000001,-8.899999999999999,18.8,8.8,16
938,15819.0,-0.2,-1.1,0.4,2.0,0.1,10.100000000000001,-8.600000000000001,17.0,5.9,16
939,15834.0,-0.2,-1.1,0.4,1.9000000000000001,0.2,10.100000000000001,-8.600000000000001,17.0,5.9,16
940,15850.0,-0.30000000000000004,-0.5,0.30000000000000004,1.8,0.6000000000000001,9.9,-7.8,-1.6,-1.6,16
941,15867.0,-0.4,-0.1,0.0,1.7000000000000002,1.0,9.600000000000001,-8.3,-6.4,-1.3,16
942,15886.0,-0.4,-0.1,0.0,1.7000000000000002,1.1,9.5,-8.3,-6.4,-1.3,16
943,15903.0,-0.4,0.30000000000000004,-0.30000000000000004,1.9000000000000001,1.3,9.5,-9.700000000000001,-7.400000000000001,5.0,16
944,15917.0,-0.2,0.2,-0.1,2.1,1.1,9.600000000000001,-11.4,-4.7,9.3,16
945,15933.0,0.1,0.1,-0.1,2.4000000000000004,1.0,9.600000000000001,-13.700000000000001,-7.500000000000001,10.5,16
946,15950.0,0.2,0.1,0.0,2.5,1.0,9.600000000000001,-17.300000000000004,-12.9,9.0,16
947,15967.0,0.2,0.2,0.2,2.4000000000000004,1.0,9.9,-20.1,-14.5,8.0,16
948,15983.0,0.2,0.2,0.2,2.5,1.0,10.0,-20.1,-14.5,8.0,16
949,16000.0,0.2,0.2,0.4,2.6,1.0,10.200000000000001,-20.1,-12.7,7.500000000000001,16
950,16017.0,0.2,0.2,0.8,2.6,0.9,10.5,-13.700000000000001,-5.7,5.1000000000000005,16
951,16033.0,0.2,0.2,0.5,2.6,0.8,10.0,-9.2,-8.2,3.9,16
952,16050.0,0.2,0.2,0.5,2.7,0.7000000000000001,9.600000000000001,-9.2,-8.2,3.9,16
953,16068.0,0.5,0.1,-0.7000000000000001,3.0,0.7000000000000001,8.8,-14.5,-21.8,3.1,16
954,16083.0,0.6000000000000001,0.2,-0.8,3.2,0.7000000000000001,8.8,-22.6,-23.099999999999998,1.7,16
955,16100.0,0.6000000000000001,0.2,-0.8,3.3000000000000003,0.7000000000000001,9.3,-22.6,-23.099999999999998,1.7,16
956,16123.0,0.7000000000000001,0.2,1.1,3.3000000000000003,0.5,11.100000000000001,-23.6,-2.9,-2.6,16
957,16137.0,0.6000000000000001,0.2,1.5,3.1,0.6000000000000001,11.0,-12.200000000000001,4.800000000000001,-7.0,16
958,16153.0,0.4,0.4,1.1,2.9000000000000004,0.8,10.5,-2.5,7.200000000000001,-10.0,16
959,16167.0,0.2,0.6000000000000001,0.7000000000000001,2.7,1.0,10.3,1.5,7.8,-10.600000000000001,16
960,16184.0,0.0,0.7000000000000001,0.7000000000000001,2.5,1.1,10.4,2.1,9.100000000000001,-8.3,16
961,16200.0,-0.30000000000000004,0.6000000000000001,0.8,2.1,1.0,10.5,2.2,6.2,-4.800000000000001,16
962,16217.0,-0.5,0.6000000000000001,0.9,2.1,1.0,10.5,3.7000000000000006,-0.1,-0.8,16
963,16238.0,-0.5,0.4,0.9,2.1,0.8,10.5,7.200000000000001,-5.1000000000000005,4.0,16
964,16251.0,-0.30000000000000004,0.2,0.7000000000000001,2.4000000000000004,0.5,10.200000000000001,10.700000000000001,-9.5,7.8,16
965,16267.0,-0.30000000000000004,0.2,0.7000000000000001,2.4000000000000004,0.4,10.100000000000001,10.700000000000001,-9.5,7.8,16
966,16284.0,-0.2,-0.2,0.4,2.5,0.2,9.9,14.200000000000001,-14.100000000000001,10.299999999999999,16
967,16303.0,-0.2,-0.30000000000000004,0.0,2.6,0.30000000000000004,9.4,15.2,-18.4,10.299999999999999,16
968,16317.0,-0.2,-0.30000000000000004,0.0,2.6,0.2,9.3,15.2,-18.4,10.299999999999999,16
969,16333.0,-0.2,-0.5,-0.2,2.6,0.1,9.4,12.299999999999999,-13.3,9.899999999999999,16
970,16350.0,-0.30000000000000004,-0.6000000000000001,-0.1,2.4000000000000004,-0.1,9.5,13.000000000000002,-7.6,8.5,16
971,16367.0,-0.30000000000000004,-0.6000000000000001,-0.1,2.4000000000000004,-0.1,9.700000000000001,13.000000000000002,-7.6,8.5,16
972,16384.0,-0.30000000000000004,-0.9,0.4,2.4000000000000004,-0.30000000000000004,10.0,21.300000000000004,9.5,6.8,16
973,16401.0,-0.30000000000000004,-1.1,0.4,2.5,-0.30000000000000004,9.9,27.5,14.5,4.300000000000001,16
974,16419.0,-0.30000000000000004,-1.1,0.0,2.3000000000000003,-0.2,9.4,32.6,14.900000000000002,1.1,16
975,16433.0,-0.5,-1.0,-0.2,2.2,-0.1,9.3,35.0,12.200000000000001,-1.1,16
976,16452.0,-0.6000000000000001,-0.8,-0.4,2.0,0.30000000000000004,9.1,35.9,6.2,-0.9000000000000001,16
977,16468.0,-0.6000000000000001,-0.6000000000000001,-0.5,2.1,0.6000000000000001,9.0,37.1,3.2,1.1,16
978,16491.0,-0.30000000000000004,-0.6000000000000001,-0.9,2.6,0.7000000000000001,8.200000000000001,37.7,3.5,4.0,16
979,16501.0,0.1,-0.5,-1.5,2.8000000000000003,0.8,7.9,31.799999999999997,-0.30000000000000004,5.300000000000001,16
980,16517.0,0.1,-0.5,-1.5,2.9000000000000004,1.0,8.0,20.0,-8.0,4.0,16
981,16534.0,0.30000000000000004,-0.4,-1.6,2.9000000000000004,1.1,8.200000000000001,20.0,-8.0,4.0,16
982,16550.0,0.2,-0.1,-0.9,3.0,1.2000000000000002,8.6,-2.4000000000000004,-20.8,2.9,16
983,16567.0,0.2,0.0,-0.5,3.0,1.4000000000000001,9.0,-6.699999999999999,-16.900000000000002,3.4,16
984,16584.0,0.2,0.0,-0.5,3.0,1.4000000000000001,9.1,-6.699999999999999,-16.900000000000002,3.4,16
985,16602.0,0.4,-0.2,-0.30000000000000004,3.2,1.1,9.1,-6.8,-0.8,5.2,16
986,16618.0,0.4,-0.2,-0.2,3.2,1.1,9.3,-8.899999999999999,2.8,2.4000000000000004,16
987,16638.0,0.30000000000000004,-0.2,-0.2,3.0,1.0,9.1,-11.000000000000002,5.6,0.2,16
988,16650.0,0.2,-0.1,-0.5,2.9000000000000004,1.1,8.9,-14.200000000000001,6.500000000000001,-1.2000000000000002,16
989,16667.0,0.1,0.0,-0.5,2.9000000000000004,1.2000000000000002,9.1,-20.0,9.2,-2.3,16
990,16684.0,0.1,0.0,-0.5,3.0,1.1,9.600000000000001,-20.0,9.2,-2.3,16
991,16705.0,-0.1,-0.2,1.2000000000000002,2.3000000000000003,0.8,10.9,-17.9,21.7,-8.100000000000001,16
992,16717.0,-0.30000000000000004,-0.2,1.2000000000000002,2.2,0.9,10.600000000000001,-6.500000000000001,19.5,-9.0,16
993,16748.0,-0.8,0.8,1.1,1.7000000000000002,1.9000000000000001,10.600000000000001,11.700000000000001,6.0,-0.8,16
994,16751.0,-0.8,0.8,1.1,1.7000000000000002,1.9000000000000001,10.600000000000001,11.700000000000001,6.0,-0.8,16
995,16767.0,-0.6000000000000001,0.0,0.5,2.0,0.9,9.9,22.2,9.100000000000001,8.3,16
996,16784.0,-0.30000000000000004,-0.4,0.30000000000000004,2.5,0.9,9.9,26.799999999999997,16.200000000000003,15.6,16
997,16800.0,-0.30000000000000004,-0.4,0.30000000000000004,2.9000000000000004,0.9,9.4,26.799999999999997,16.200000000000003,15.6,16
998,16818.0,0.0,0.1,-1.2000000000000002,2.3000000000000003,1.6,8.1,24.3,17.300000000000004,10.9,16
999,16838.0,0.30000000000000004,0.30000000000000004,-1.4000000000000001,2.9000000000000004,1.5,8.200000000000001,10.700000000000001,17.799999999999997,17.6,16
1000,16854.0,0.30000000000000004,0.30000000000000004,-1.4000000000000001,3.0,1.6,8.6,-1.7,2.9,17.200000000000003,16
1001,16867.0,0.5,0.4,-0.7000000000000001,2.8000000000000003,1.7000000000000002,8.9,-7.0,15.2,11.2,16
1002,16886.0,0.2,0.4,0.0,2.3000000000000003,1.7000000000000002,9.8,-5.4,40.6,8.899999999999999,16
1003,16901.0,0.2,0.4,0.0,2.0,1.6,10.200000000000001,-5.4,40.6,8.899999999999999,16
1004,16917.0,-0.1,0.30000000000000004,0.9,1.7000000000000002,1.6,10.600000000000001,2.5,59.5,10.200000000000001,16
1005,16937.0,-0.1,0.30000000000000004,0.30000000000000004,1.5,1.5,9.700000000000001,2.4000000000000004,47.5,9.700000000000001,16
1006,16951.0,-0.1,0.30000000000000004,0.30000000000000004,0.9,1.6,8.8,1.6,61.50000000000001,7.699999999999999,16
1007,16967.0,-0.5,0.9,0.4,0.9,2.2,10.200000000000001,-0.9000000000000001,91.0,13.900000000000002,16
1008,16984.0,0.0,0.2,1.5,1.5,1.2000000000000002,11.700000000000001,-16.1,36.7,20.7,16
1009,17004.0,0.7000000000000001,0.2,1.6,1.9000000000000001,1.6,11.0,-9.3,0.30000000000000004,14.200000000000001,16
1010,17017.0,0.4,0.30000000000000004,1.0,1.7000000000000002,1.4000000000000001,10.8,-5.8,-17.200000000000003,6.300000000000001,16
1011,17033.0,0.30000000000000004,0.2,0.9,1.6,1.3,10.600000000000001,-0.9000000000000001,-21.6,1.5,16
1012,17050.0,0.30000000000000004,0.2,0.9,1.5,1.4000000000000001,10.600000000000001,-0.9000000000000001,-21.6,1.5,16
1013,17067.0,0.1,0.30000000000000004,0.7000000000000001,1.8,1.5,9.5,8.100000000000001,-18.700000000000003,-0.8,16
1014,17084.0,0.6000000000000001,0.1,-1.3,2.1,1.4000000000000001,8.4,14.800000000000002,-18.1,-4.5,16
1015,17101.0,0.5,0.2,-1.1,2.0,1.6,8.8,7.1000000000000005,-16.4,-8.0,16
1016,17117.0,0.5,0.2,-1.1,1.7000000000000002,1.6,9.0,7.1000000000000005,-16.4,-8.0,16
1017,17133.0,0.4,0.0,-1.0,2.1,1.3,8.6,-2.6,-0.2,-11.6,16
1018,17151.0,0.30000000000000004,0.1,-0.7000000000000001,1.6,1.5,9.3,-13.900000000000002,4.7,-19.6,16
1019,17167.0,0.30000000000000004,0.1,-0.7000000000000001,1.2000000000000002,1.7000000000000002,9.5,-13.900000000000002,4.7,-19.6,16
1020,17184.0,-0.6000000000000001,0.5,0.0,0.9,1.6,9.8,-24.900000000000002,1.0,-15.899999999999999,16
1021,17206.0,-0.8,0.30000000000000004,0.4,0.7000000000000001,1.4000000000000001,10.200000000000001,-23.400000000000002,3.1,-10.700000000000001,16
1022,17217.0,-0.8,0.30000000000000004,0.4,0.7000000000000001,1.3,10.5,-23.400000000000002,3.1,-10.700000000000001,16
1023,17234.0,-0.6000000000000001,0.0,0.8,1.0,1.0,10.600000000000001,-9.600000000000001,-8.899999999999999,-1.2000000000000002,16
1024,17250.0,-0.5,-0.1,0.6000000000000001,1.2000000000000002,0.9,10.200000000000001,-1.3,-16.6,4.800000000000001,16
1025,17268.0,-0.2,-0.2,0.2,1.5,0.9,9.8,4.9,-19.400000000000002,11.8,16
1026,17284.0,-0.1,-0.2,-0.2,1.7000000000000002,0.9,9.5,9.600000000000001,-18.700000000000003,19.1,16
1027,17301.0,0.5,-0.4,-0.7000000000000001,2.4000000000000004,0.7000000000000001,8.9,12.0,-15.6,21.7,16
1028,17317.0,0.5,-0.4,-0.7000000000000001,2.7,0.6000000000000001,8.8,10.8,-16.1,17.799999999999997,16
1029,17337.0,0.4,-0.2,-2.0,2.3000000000000003,0.9,7.7,6.600000000000001,-17.7,12.7,16
1030,17350.0,0.2,-0.2,-1.7000000000000002,2.2,0.9,8.1,0.4,-12.5,12.200000000000001,16
1031,17367.0,0.4,-0.1,-1.4000000000000001,2.2,1.0,8.200000000000001,-2.9,-8.700000000000001,11.2,16
1032,17383.0,0.4,-0.1,-1.4000000000000001,1.9000000000000001,1.0,8.700000000000001,-2.9,-8.700000000000001,11.2,16
1033,17401.0,-0.1,-0.2,0.0,1.8,0.8,9.700000000000001,-0.6000000000000001,11.5,10.600000000000001,16
1034,17418.0,-0.1,-0.4,0.1,1.8,0.6000000000000001,9.8,6.2,22.700000000000003,9.600000000000001,16
1035,17434.0,-0.1,-0.4,0.1,1.9000000000000001,0.7000000000000001,9.9,6.2,22.700000000000003,9.600000000000001,16
1036,17452.0,-0.5,-0.1,0.4,1.1,1.0,10.200000000000001,5.9,32.7,1.0,16
1037,17467.0,-1.1,0.0,0.8,0.4,1.2000000000000002,10.600000000000001,2.2,34.2,3.3000000000000007,16
1038,17484.0,-1.1,0.0,0.8,0.30000000000000004,1.3,10.600000000000001,2.2,34.2,3.3000000000000007,16
1039,17500.0,-1.1,0.30000000000000004,0.8,0.4,1.3,10.600000000000001,-7.699999999999999,30.5,15.8,16
1040,17518.0,-0.7000000000000001,0.2,0.9,0.8,1.2000000000000002,10.8,-15.700000000000001,24.0,19.9,16
1041,17559.0,-0.1,0.2,1.3,1.2000000000000002,1.2000000000000002,11.100000000000001,-24.599999999999998,5.1000000000000005,18.1,16
1042,17567.0,-0.1,0.4,1.3,1.2000000000000002,1.2000000000000002,11.100000000000001,-23.099999999999998,1.2000000000000002,15.8,16
1043,17585.0,0.0,0.4,1.1,1.3,1.2000000000000002,10.8,-19.1,2.3,14.600000000000001,16
1044,17601.0,0.1,0.4,0.8,1.3,1.1,10.700000000000001,-13.5,5.9,14.0,16
1045,17617.0,0.30000000000000004,0.30000000000000004,0.6000000000000001,1.6,1.0,10.4,-7.699999999999999,6.500000000000001,12.100000000000001,16
1046,17636.0,0.30000000000000004,0.30000000000000004,0.30000000000000004,1.5,1.0,10.100000000000001,-2.0,5.6,8.600000000000001,16
1047,17652.0,0.30000000000000004,0.30000000000000004,0.30000000000000004,1.5,0.9,9.8,-2.0,5.6,8.600000000000001,16
1048,17667.0,0.2,0.30000000000000004,-0.4,1.4000000000000001,1.0,9.4,9.0,4.5,3.3000000000000007,16
1049,17686.0,0.1,0.30000000000000004,-0.7000000000000001,1.3,1.1,9.0,12.299999999999999,4.2,1.6,16
1050,17701.0,0.1,0.30000000000000004,-0.7000000000000001,1.3,1.1,8.8,12.299999999999999,4.2,1.6,16
1051,17720.0,0.0,0.2,-0.9,1.2000000000000002,1.0,9.0,9.8,5.2,1.9,16
1052,17733.0,0.1,0.1,-0.6000000000000001,1.2000000000000002,0.9,9.3,9.5,5.8,2.6,16
1053,17757.0,0.0,0.0,-0.4,1.0,0.8,9.5,10.9,9.2,3.0,16
1054,17767.0,-0.1,-0.1,-0.2,1.0,0.8,9.600000000000001,13.6,14.200000000000001,3.8,16
1055,17786.0,-0.2,-0.2,-0.4,0.8,0.8,9.4,14.700000000000001,17.200000000000003,4.6,16
1056,17802.0,-0.30000000000000004,-0.2,-0.5,0.6000000000000001,0.7000000000000001,9.3,12.7,19.799999999999997,6.600000000000001,16
1057,17821.0,-0.2,-0.4,-0.4,0.9,0.6000000000000001,9.600000000000001,7.1000000000000005,18.8,8.5,16
1058,17837.0,-0.1,-0.4,-0.2,0.8,0.6000000000000001,9.600000000000001,-0.5,11.700000000000001,7.0,16
1059,17856.0,-0.30000000000000004,-0.30000000000000004,-0.1,0.6000000000000001,0.7000000000000001,9.700000000000001,-8.0,4.300000000000001,5.9,16
1060,17867.0,-0.30000000000000004,-0.30000000000000004,0.0,0.6000000000000001,0.6000000000000001,9.9,-15.100000000000001,0.2,6.8,16
1061,17884.0,0.1,-0.30000000000000004,0.30000000000000004,1.1,0.5,10.200000000000001,-20.0,-2.1,7.1000000000000005,16
1062,17904.0,0.4,-0.4,0.6000000000000001,1.3,0.4,10.700000000000001,-23.099999999999998,-4.0,3.9,16
1063,17918.0,0.4,-0.4,0.6000000000000001,1.5,0.4,11.0,-23.099999999999998,-4.0,3.9,16
1064,17935.0,0.5,-0.2,1.2000000000000002,1.4000000000000001,0.6000000000000001,11.100000000000001,-14.800000000000002,-3.4,-7.8,16
1065,17951.0,0.5,-0.2,1.2000000000000002,1.4000000000000001,0.7000000000000001,11.0,-14.800000000000002,-3.4,-7.8,16
1066,17967.0,0.4,0.1,1.0,1.4000000000000001,1.0,10.4,-4.9,0.7,-13.000000000000002,16
1067,17984.0,0.30000000000000004,0.5,0.0,1.1,1.3,9.8,10.8,9.700000000000001,-19.5,16
1068,18001.0,0.1,0.7000000000000001,-0.4,0.9,1.5,9.4,14.200000000000001,12.600000000000001,-20.0,16
1069,18017.0,0.1,0.7000000000000001,-0.4,0.7000000000000001,1.6,9.3,14.200000000000001,12.600000000000001,-20.0,16
1070,18036.0,0.0,0.8,-0.8,0.8,1.7000000000000002,9.1,17.0,13.6,-14.300000000000002,16
1071,18051.0,0.1,0.8,-0.9,0.8,1.8,8.9,14.300000000000002,10.9,-10.8,16
1072,18067.0,0.1,0.8,-0.8,0.8,1.8,9.0,9.8,8.2,-7.0,16
1073,18084.0,0.1,0.6000000000000001,-0.6000000000000001,0.8,1.6,9.3,5.9,4.9,-2.9,16
1074,18100.0,0.2,0.5,-0.4,0.9,1.4000000000000001,9.5,2.8,3.1,0.5,16
1075,18118.0,0.2,0.30000000000000004,-0.2,0.9,1.2000000000000002,9.9,0.2,2.7,1.9,16
1076,18136.0,0.1,0.1,0.30000000000000004,0.8,1.1,10.100000000000001,-0.9000000000000001,3.1,2.5,16
1077,18153.0,0.0,-0.1,0.6000000000000001,0.6000000000000001,0.9,10.5,0.6000000000000001,2.3,2.8,16
1078,18167.0,-0.1,-0.2,0.6000000000000001,0.5,0.7000000000000001,10.4,3.4,0.0,2.6,16
1079,18184.0,-0.1,-0.2,0.6000000000000001,0.5,0.7000000000000001,10.3,3.4,0.0,2.6,16
1080,18200.0,-0.2,-0.4,0.4,0.5,0.6000000000000001,10.200000000000001,4.4,-5.7,0.9000000000000001,16
1081,18218.0,-0.30000000000000004,-0.5,0.2,0.4,0.6000000000000001,10.0,4.4,-9.700000000000001,-0.9000000000000001,16
1082,18233.0,-0.30000000000000004,-0.5,0.2,0.30000000000000004,0.6000000000000001,9.9,4.4,-9.700000000000001,-0.9000000000000001,16
1083,18250.0,-0.4,-0.30000000000000004,-0.5,0.4,0.8,9.200000000000001,7.0,-12.7,-2.1,16
1084,18267.0,-0.2,-0.1,-0.9,0.7000000000000001,1.0,8.9,5.500000000000001,-9.3,-1.3,16
1085,18284.0,-0.2,-0.1,-0.9,0.8,1.1,8.9,5.500000000000001,-9.3,-1.3,16
1086,18305.0,0.0,0.1,-0.5,0.9,1.3,9.600000000000001,-1.9,0.0,-1.0,16
1087,18318.0,0.1,0.2,-0.1,0.9,1.3,9.9,-3.4,2.5,-1.0,16
1088,18336.0,0.0,0.2,0.5,0.8,1.3,10.5,-2.1,3.8,-1.6,16
1089,18354.0,0.0,0.30000000000000004,0.6000000000000001,0.8,1.4000000000000001,10.4,2.1,2.7,-1.7,16
1090,18367.0,0.0,0.30000000000000004,0.4,0.8,1.4000000000000001,10.200000000000001,6.1000000000000005,2.0,-1.2000000000000002,16
1091,18384.0,0.0,0.30000000000000004,0.30000000000000004,0.7000000000000001,1.5,10.0,8.600000000000001,0.7,-0.8,16
1092,18400.0,-0.1,0.4,0.1,0.7000000000000001,1.6,10.0,10.200000000000001,0.1,-0.5,16
1093,18420.0,-0.2,0.4,0.0,0.6000000000000001,1.6,9.8,11.000000000000002,0.2,1.5,16
1094,18434.0,-0.2,0.4,0.0,0.6000000000000001,1.6,9.700000000000001,11.1,-1.0,3.8,16
1095,18451.0,-0.2,0.30000000000000004,-0.2,0.7000000000000001,1.5,9.3,11.1,-1.0,3.8,16
1096,18470.0,0.1,0.2,-0.6000000000000001,0.9,1.4000000000000001,9.3,3.8,-3.1,7.9,16
1097,18484.0,0.2,0.0,-0.2,1.0,1.2000000000000002,9.700000000000001,-0.1,-1.8000000000000003,8.100000000000001,16
1098,18500.0,0.2,0.0,-0.2,1.1,1.0,9.9,-0.1,-1.8000000000000003,8.100000000000001,16
1099,18517.0,0.2,-0.4,0.4,1.0,0.8,10.200000000000001,1.6,0.6000000000000001,3.9,16
1100,18539.0,0.0,-0.4,0.2,0.8,0.9,9.9,6.300000000000001,1.0,1.3,16
1101,18550.0,0.0,-0.4,0.2,0.7000000000000001,1.0,9.600000000000001,6.300000000000001,1.0,1.3,16
1102,18567.0,0.0,-0.30000000000000004,-0.7000000000000001,0.9,1.1,9.1,10.8,2.9,1.9,16
1103,18583.0,0.30000000000000004,-0.4,-1.0,1.1,1.0,8.700000000000001,7.8,2.6,1.6,16
1104,18601.0,0.30000000000000004,-0.4,-1.0,1.1,0.9,8.8,7.8,2.6,1.6,16
1105,18619.0,0.5,-0.5,-0.8,1.3,0.9,9.0,-1.7,1.1,-3.1,16
1106,18636.0,0.4,-0.4,-0.30000000000000004,1.1,1.0,9.600000000000001,-3.4,3.7000000000000006,-6.8,16
1107,18650.0,0.4,-0.4,-0.30000000000000004,0.9,1.0,9.8,-3.4,3.7000000000000006,-6.8,16
1108,18667.0,-0.1,-0.2,0.1,0.6000000000000001,1.2000000000000002,9.9,2.2,13.000000000000002,-8.600000000000001,16
1109,18683.0,-0.1,-0.1,-0.2,0.5,1.3,9.5,3.8,12.100000000000001,-6.8,16
1110,18701.0,-0.1,0.0,-0.5,0.5,1.4000000000000001,9.3,0.6000000000000001,8.0,-4.800000000000001,16
1111,18718.0,-0.1,0.0,-0.5,0.8,1.4000000000000001,9.4,0.6000000000000001,8.0,-4.800000000000001,16
1112,18734.0,0.2,0.1,-0.4,0.9,1.5,9.4,-9.8,-4.800000000000001,-4.300000000000001,16
1113,18751.0,0.0,0.1,-0.1,0.7000000000000001,1.4000000000000001,10.0,-12.4,-4.800000000000001,-5.0,16
1114,18767.0,0.0,0.1,-0.1,0.8,1.4000000000000001,10.200000000000001,-12.4,-4.800000000000001,-5.0,16
1115,18784.0,0.1,0.2,0.2,0.8,1.5,10.0,-5.6,-0.1,-5.9,16
1116,18800.0,0.0,0.2,0.1,0.6000000000000001,1.4000000000000001,10.0,-2.3,7.1000000000000005,-6.500000000000001,16
1117,18818.0,0.0,0.2,0.1,0.6000000000000001,1.4000000000000001,10.3,-2.3,7.1000000000000005,-6.500000000000001,16
1118,18835.0,-0.4,0.1,0.5,0.2,1.4000000000000001,10.4,3.1,12.5,-7.6,16
1119,18850.0,-0.6000000000000001,0.2,0.6000000000000001,-0.1,1.5,10.4,5.500000000000001,10.0,-6.1000000000000005,16
1120,18867.0,-0.6000000000000001,0.2,0.6000000000000001,0.0,1.5,10.200000000000001,5.500000000000001,10.0,-6.1000000000000005,16
1121,18885.0,-0.2,0.1,-0.1,0.30000000000000004,1.5,9.8,7.1000000000000005,-1.1,-2.8,16
1122,18901.0,-0.2,0.1,-0.1,0.4,1.5,9.600000000000001,4.800000000000001,-6.500000000000001,-3.1,16
1123,18917.0,-0.2,0.2,-0.4,0.4,1.6,9.200000000000001,4.800000000000001,-6.500000000000001,-3.1,16
1124,18935.0,0.0,0.2,-0.7000000000000001,0.6000000000000001,1.5,9.1,-0.5,-7.500000000000001,-0.5,16
1125,18950.0,0.0,0.2,-0.8,0.5,1.6,9.1,-2.7,-5.2,-0.4,16
1126,18967.0,-0.1,0.2,-0.5,0.5,1.5,9.4,-3.9,-1.2000000000000002,0.9000000000000001,16
1127,18983.0,0.0,0.2,-0.5,0.6000000000000001,1.5,9.4,-3.4,0.9000000000000001,1.8000000000000003,16
1128,19001.0,0.2,0.0,-0.2,0.9,1.2000000000000002,9.700000000000001,-4.5,0.30000000000000004,0.7,16
1129,19017.0,0.2,0.0,0.0,0.6000000000000001,1.5,9.8,-6.699999999999999,-8.100000000000001,-5.4,16
1130,19034.0,0.2,0.0,0.0,0.30000000000000004,1.6,10.0,-6.699999999999999,-8.100000000000001,-5.4,16
1131,19050.0,-0.6000000000000001,0.4,0.5,0.0,1.7000000000000002,10.4,-10.200000000000001,-16.200000000000003,-4.2,16
1132,19067.0,-0.8,0.5,0.6000000000000001,-0.1,1.7000000000000002,10.4,-6.8,-13.900000000000002,0.9000000000000001,16
1133,19089.0,-0.7000000000000001,0.4,0.30000000000000004,0.30000000000000004,1.6,10.0,-3.1,-11.3,7.0,16
1134,19100.0,-0.30000000000000004,0.2,0.1,0.5,1.4000000000000001,9.9,-1.9,-8.600000000000001,10.9,16
1135,19117.0,0.0,0.1,0.1,0.8,1.3,9.9,-2.4000000000000004,-8.2,11.6,16
1136,19136.0,-0.1,0.1,0.0,0.7000000000000001,1.3,9.8,-2.7,-9.4,10.5,16
1137,19151.0,-0.30000000000000004,0.1,0.0,0.5,1.3,9.9,-1.8000000000000003,-6.600000000000001,11.6,16
1138,19167.0,-0.1,0.0,0.0,0.9,1.1,9.8,0.1,-3.9,14.400000000000002,16
1139,19183.0,-0.1,0.0,0.0,1.0,1.1,9.600000000000001,0.1,-3.9,14.400000000000002,16
1140,19202.0,0.1,0.0,-0.4,1.0,1.1,9.4,-1.8000000000000003,-3.0,14.400000000000002,16
1141,19217.0,0.0,-0.1,-0.30000000000000004,0.9,1.1,9.5,-4.5,-1.3,14.600000000000001,16
1142,19234.0,-0.1,-0.1,0.1,0.8,1.1,9.8,-5.1000000000000005,1.6,15.700000000000001,16
1143,19250.0,0.2,-0.30000000000000004,0.30000000000000004,1.1,0.8,10.100000000000001,-1.9,2.2,16.8,16
1144,19267.0,0.4,-0.30000000000000004,-0.1,1.4000000000000001,0.8,9.700000000000001,0.1,-0.1,14.700000000000001,16
1145,19287.0,0.5,-0.30000000000000004,-0.2,1.4000000000000001,0.8,9.5,-0.6000000000000001,0.2,11.700000000000001,16
1146,19300.0,0.5,-0.30000000000000004,-0.2,1.3,0.9,9.5,-0.6000000000000001,0.2,11.700000000000001,16
1147,19318.0,0.30000000000000004,-0.2,-0.30000000000000004,1.2000000000000002,0.9,9.600000000000001,-3.4,6.9,8.3,16
1148,19334.0,0.30000000000000004,-0.30000000000000004,-0.1,1.3,0.8,9.8,-3.9,11.4,7.400000000000001,16
1149,19352.0,0.30000000000000004,-0.30000000000000004,-0.1,1.3,0.7000000000000001,10.0,-3.9,11.4,7.400000000000001,16
1150,19367.0,0.30000000000000004,-0.2,0.6000000000000001,1.2000000000000002,0.8,10.5,-2.7,12.100000000000001,1.1,16
1151,19383.0,0.1,-0.2,0.7000000000000001,0.9,0.9,10.5,0.8,8.899999999999999,-2.5,16
1152,19400.0,0.1,-0.2,0.7000000000000001,0.9,1.0,10.4,0.8,8.899999999999999,-2.5,16
1153,19417.0,0.0,0.1,0.1,0.7000000000000001,1.2000000000000002,9.9,7.0,3.7000000000000006,-5.0,16
1154,19433.0,-0.1,0.2,-0.2,0.6000000000000001,1.3,9.600000000000001,7.0,3.1,-4.5,16
1155,19450.0,-0.1,0.2,-0.2,0.6000000000000001,1.3,9.600000000000001,7.0,3.1,-4.5,16
1156,19467.0,-0.1,0.2,-0.4,0.7000000000000001,1.4000000000000001,9.5,5.6,1.4,-2.1,16
1157,19484.0,-0.1,0.1,-0.30000000000000004,0.7000000000000001,1.3,9.5,4.300000000000001,0.2,-0.8,16
1158,19500.0,0.1,0.1,-0.30000000000000004,0.9,1.2000000000000002,9.5,1.9,-4.4,-0.7,16
1159,19519.0,-0.1,0.30000000000000004,-0.30000000000000004,0.7000000000000001,1.4000000000000001,9.5,-1.6,-9.0,-1.6,16
1160,19535.0,-0.2,0.30000000000000004,0.0,0.6000000000000001,1.5,9.8,-3.9,-10.0,1.4,16
1161,19556.0,-0.1,0.30000000000000004,0.1,0.8,1.4000000000000001,9.9,-4.0,-9.899999999999999,4.9,16
1162,19567.0,-0.1,0.30000000000000004,0.1,0.9,1.3,9.9,-4.0,-9.899999999999999,4.9,16
1163,19585.0,0.1,0.1,0.0,1.0,1.3,9.8,-2.2,-9.600000000000001,7.200000000000001,16
1164,19601.0,0.1,0.1,0.0,1.0,1.1,10.0,-1.3,-7.300000000000001,7.300000000000001,16
1165,19620.0,0.1,0.0,0.1,1.2000000000000002,0.9,10.200000000000001,-1.3,-7.300000000000001,7.300000000000001,16
1166,19633.0,0.2,-0.2,0.4,1.2000000000000002,0.9,10.100000000000001,2.5,-7.200000000000001,3.3000000000000007,16
1167,19650.0,0.0,-0.2,0.2,0.9,1.0,10.0,4.1,-6.9,1.1,16
1168,19669.0,-0.2,-0.2,0.1,0.8,1.0,9.8,5.8,-5.2,1.0,16
1169,19684.0,-0.2,-0.2,-0.1,0.8,1.0,9.700000000000001,7.200000000000001,-2.6,1.8000000000000003,16
1170,19702.0,-0.2,-0.2,-0.2,0.9,1.0,9.600000000000001,7.1000000000000005,-1.3,2.2,16
1171,19717.0,-0.2,-0.2,-0.2,0.9,1.0,9.5,7.1000000000000005,-1.3,2.2,16
1172,19737.0,0.0,-0.2,-0.4,1.0,1.0,9.3,5.300000000000001,-3.3000000000000007,1.1,16
1173,19750.0,0.1,-0.2,-0.7000000000000001,1.2000000000000002,1.1,9.0,3.9,-4.7,-0.4,16
1174,19767.0,0.1,-0.2,-0.7000000000000001,1.1,1.2000000000000002,9.0,3.9,-4.7,-0.4,16
1175,19783.0,0.0,0.1,-0.6000000000000001,1.0,1.3,9.1,0.1,0.5,-1.4,16
1176,19801.0,0.0,0.2,-0.5,1.1,1.4000000000000001,9.200000000000001,-0.8,3.4,0.1,16
1177,19821.0,0.1,0.1,-0.30000000000000004,1.2000000000000002,1.3,9.5,-1.8000000000000003,5.9,0.7,16
1178,19834.0,0.1,0.1,-0.30000000000000004,1.2000000000000002,1.3,9.700000000000001,-1.8000000000000003,5.9,0.7,16
1179,19850.0,0.0,0.1,0.30000000000000004,1.0,1.4000000000000001,10.0,-3.6000000000000005,7.699999999999999,-0.2,16
1180,19869.0,-0.2,0.1,0.6000000000000001,0.7000000000000001,1.3,10.4,-2.8,9.0,0.4,16
1181,19884.0,-0.2,0.1,0.6000000000000001,0.6000000000000001,1.3,10.4,-2.8,9.0,0.4,16
1182,19903.0,-0.4,0.1,0.6000000000000001,0.5,1.3,10.3,-0.1,8.8,3.9,16
1183,19917.0,-0.30000000000000004,0.1,0.5,0.6000000000000001,1.3,10.3,-0.7,8.2,6.2,16
1184,19936.0,-0.2,0.1,0.6000000000000001,0.7000000000000001,1.2000000000000002,10.5,-2.0,5.9,7.699999999999999,16
1185,19951.0,-0.1,0.0,0.7000000000000001,0.8,1.2000000000000002,10.5,-2.3,1.9,7.8,16
1186,19967.0,0.0,-0.1,0.8,0.9,1.1,10.600000000000001,-0.4,-1.5,7.1000000000000005,16
1187,19983.0,0.0,-0.1,0.8,0.9,1.2000000000000002,10.4,-0.4,-1.5,7.1000000000000005,16
1188,20001.0,0.1,0.1,0.1,1.0,1.3,9.9,6.8,-3.8,4.2,16
1189,20024.0,0.1,0.1,-0.30000000000000004,0.9,1.4000000000000001,9.3,8.700000000000001,-1.6,3.5,16
1190,20034.0,0.0,0.2,-0.5,0.9,1.5,9.200000000000001,9.2,1.4,3.0,16
1191,20051.0,0.1,0.2,-0.7000000000000001,0.9,1.5,9.1,8.600000000000001,3.9,3.2,16
1192,20067.0,-0.1,0.2,-0.6000000000000001,0.8,1.5,9.3,6.8,6.2,3.7000000000000006,16
1193,20086.0,0.0,0.1,-0.4,0.9,1.4000000000000001,9.4,5.500000000000001,7.0,5.1000000000000005,16
1194,20100.0,0.0,0.1,-0.4,0.9,1.4000000000000001,9.5,5.500000000000001,7.0,5.1000000000000005,16
1195,20120.0,0.1,0.0,-0.1,0.9,1.3,9.700000000000001,3.1,5.1000000000000005,5.8,16
1196,20136.0,0.1,0.0,0.0,0.8,1.3,9.8,2.7,4.0,5.7,16
1197,20150.0,0.1,0.0,0.0,0.9,1.3,9.8,2.7,4.0,5.7,16
1198,20167.0,0.1,-0.1,0.0,0.9,1.3,9.8,2.8,4.800000000000001,5.6,16
1199,20184.0,0.1,-0.2,0.2,0.9,1.2000000000000002,10.0,2.6,4.800000000000001,4.7,16
1200,20200.0,0.1,-0.2,0.2,0.9,1.2000000000000002,9.9,2.6,4.800000000000001,4.7,16
1201,20217.0,0.1,-0.1,0.1,0.9,1.3,9.9,3.4,1.0,2.1,16
1202,20233.0,0.0,0.0,0.0,0.8,1.4000000000000001,9.8,3.7000000000000006,-0.30000000000000004,0.8,16
1203,20257.0,0.0,0.0,0.0,0.7000000000000001,1.5,9.700000000000001,4.4,-0.5,0.4,16
1204,20267.0,0.0,0.1,-0.1,0.8,1.5,9.600000000000001,5.0,-0.2,0.9000000000000001,16
1205,20284.0,0.0,0.1,-0.30000000000000004,0.8,1.5,9.4,4.300000000000001,0.2,1.3,16
1206,20300.0,0.0,0.1,-0.30000000000000004,0.8,1.5,9.5,4.300000000000001,0.2,1.3,16
1207,20317.0,0.0,0.0,-0.1,0.8,1.5,9.600000000000001,1.2000000000000002,1.4,1.6,16
1208,20334.0,0.0,0.0,0.1,0.7000000000000001,1.4000000000000001,9.9,0.7,0.6000000000000001,1.8000000000000003,16
1209,20350.0,0.0,-0.1,0.1,0.7000000000000001,1.4000000000000001,9.8,1.0,-0.6000000000000001,1.9,16
1210,20366.0,0.0,-0.1,0.1,0.8,1.3,9.700000000000001,1.0,-0.6000000000000001,1.9,16
1211,20385.0,0.0,-0.1,0.0,0.8,1.3,9.700000000000001,1.0,-2.7,1.2000000000000002,16
1212,20400.0,0.0,-0.1,-0.1,0.7000000000000001,1.3,9.600000000000001,0.8,-3.3000000000000007,0.7,16
1213,20417.0,0.0,-0.1,-0.1,0.8,1.3,9.600000000000001,0.8,-3.3000000000000007,0.7,16
1214,20434.0,0.0,-0.1,-0.2,0.8,1.3,9.5,0.8,-2.3,0.4,16
1215,20450.0,0.0,-0.2,-0.1,0.8,1.2000000000000002,9.700000000000001,0.5,-1.1,0.2,16
1216,20467.0,0.0,-0.2,-0.1,0.7000000000000001,1.3,9.700000000000001,0.5,-1.1,0.2,16
1217,20484.0,-0.1,-0.1,-0.30000000000000004,0.7000000000000001,1.3,9.4,1.1,-2.0,-0.5,16
1218,20503.0,-0.2,-0.2,-0.2,0.6000000000000001,1.2000000000000002,9.600000000000001,0.0,-0.9000000000000001,-0.6000000000000001,16
1219,20517.0,-0.2,-0.2,-0.2,0.6000000000000001,1.3,9.600000000000001,0.0,-0.9000000000000001,-0.6000000000000001,16
1220,20534.0,-0.2,-0.1,-0.4,0.6000000000000001,1.3,9.3,-0.1,-5.6,-1.7,16
1221,20550.0,-0.2,0.1,-0.7000000000000001,0.7000000000000001,1.5,9.0,-1.4,-4.5,-1.7,16
1222,20567.0,-0.30000000000000004,0.2,-0.8,0.6000000000000001,1.6,8.9,-4.1,0.0,-0.6000000000000001,16
1223,20584.0,-0.4,0.2,-0.30000000000000004,0.4,1.6,9.3,-6.4,6.1000000000000005,1.7,16
1224,20600.0,-0.30000000000000004,0.30000000000000004,-0.1,0.4,1.7000000000000002,9.5,-6.500000000000001,7.400000000000001,3.6000000000000005,16
1225,20624.0,-0.4,0.30000000000000004,0.0,0.2,1.6,9.8,-7.0,7.8,5.500000000000001,16
1226,20633.0,-0.5,0.2,0.5,0.30000000000000004,1.6,10.200000000000001,-7.500000000000001,7.8,8.3,16
1227,20658.0,-0.4,0.2,0.5,0.30000000000000004,1.5,10.100000000000001,-6.4,4.300000000000001,10.299999999999999,16
1228,20667.0,-0.4,0.1,0.4,0.30000000000000004,1.4000000000000001,10.100000000000001,-6.1000000000000005,3.0,12.600000000000001,16
1229,20689.0,-0.30000000000000004,0.1,0.4,0.4,1.3,10.200000000000001,-6.4,2.1,14.600000000000001,16
1230,20700.0,-0.2,0.0,0.5,0.5,1.3,10.200000000000001,-6.8,0.0,15.700000000000001,16
1231,20716.0,-0.30000000000000004,0.0,0.4,0.4,1.2000000000000002,10.100000000000001,-6.4,-2.3,16.200000000000003,16
1232,20735.0,-0.4,0.0,0.4,0.2,1.2000000000000002,10.200000000000001,-5.1000000000000005,-2.3,17.799999999999997,16
1233,20750.0,-0.4,-0.1,0.30000000000000004,0.30000000000000004,1.1,10.100000000000001,-2.5,-0.7,21.1,16
1234,20767.0,-0.2,-0.30000000000000004,0.0,0.6000000000000001,0.9,9.700000000000001,-0.6000000000000001,-0.6000000000000001,23.3,16
1235,20784.0,-0.1,-0.30000000000000004,-0.2,0.6000000000000001,0.9,9.5,-1.3,-2.3,23.0,16
1236,20800.0,-0.30000000000000004,-0.30000000000000004,-0.2,0.4,0.9,9.5,-2.6,-3.7000000000000006,22.5,16
1237,20816.0,-0.30000000000000004,-0.4,-0.30000000000000004,0.4,0.7000000000000001,9.4,-1.9,-4.5,23.900000000000006,16
1238,20833.0,-0.30000000000000004,-0.4,-0.30000000000000004,0.5,0.7000000000000001,9.3,-0.30000000000000004,-5.500000000000001,25.0,16
1239,20851.0,-0.1,-0.4,-0.9,0.7000000000000001,0.7000000000000001,8.8,-0.2,-5.7,25.1,16
1240,20866.0,0.0,-0.30000000000000004,-0.9,0.8,0.8,8.8,-1.7,-2.8,25.1,16
1241,20883.0,0.1,-0.30000000000000004,-0.9,0.9,0.9,8.700000000000001,-3.0,-0.5,24.7,16
1242,20900.0,0.2,-0.2,-0.8,1.0,0.9,8.8,-5.8,3.5,23.700000000000003,16
1243,20922.0,0.1,-0.1,-0.5,0.8,1.0,9.4,-8.600000000000001,7.8,22.6,16
1244,20933.0,0.0,0.0,-0.1,0.8,1.0,9.600000000000001,-10.9,11.2,22.4,16
1245,20950.0,0.0,0.0,-0.1,0.8,1.1,9.9,-10.9,11.2,22.4,16
1246,20969.0,-0.1,0.1,0.7000000000000001,0.6000000000000001,1.0,10.4,-15.000000000000002,15.899999999999999,22.8,16
1247,20984.0,0.0,0.2,1.2000000000000002,0.7000000000000001,1.1,11.100000000000001,-16.5,14.700000000000001,22.9,16
1248,21005.0,0.1,0.2,1.9000000000000001,0.7000000000000001,1.0,11.9,-16.1,11.000000000000002,22.4,16
1249,21017.0,0.2,0.30000000000000004,2.2,0.8,1.1,12.0,-11.000000000000002,3.4,20.7,16
1250,21034.0,0.2,0.4,2.0,0.8,1.2000000000000002,11.600000000000001,-3.8,-3.6000000000000005,18.900000000000002,16
1251,21051.0,0.1,0.5,1.5,0.8,1.3,11.3,3.2,-8.2,17.5,16
1252,21066.0,0.0,0.7000000000000001,0.8,0.7000000000000001,1.5,10.4,8.8,-9.600000000000001,17.9,16
1253,21084.0,0.0,0.7000000000000001,0.30000000000000004,0.8,1.5,9.9,11.4,-8.700000000000001,19.5,16
1254,21101.0,0.1,0.6000000000000001,-0.1,0.9,1.5,9.5,11.5,-9.3,20.5,16
1255,21117.0,-0.1,0.6000000000000001,-0.2,0.6000000000000001,1.5,9.5,9.700000000000001,-8.0,21.400000000000002,16
1256,21136.0,-0.2,0.5,0.2,0.6000000000000001,1.3,9.9,8.8,-5.8,24.599999999999998,16
1257,21150.0,-0.1,0.30000000000000004,0.0,0.8,1.1,9.600000000000001,9.4,-7.300000000000001,26.200000000000003,16
1258,21167.0,-0.2,0.1,0.0,0.6000000000000001,1.1,9.700000000000001,7.8,-6.500000000000001,26.400000000000006,16
1259,21184.0,-0.30000000000000004,-0.1,0.5,0.7000000000000001,0.8,10.200000000000001,7.300000000000001,-6.500000000000001,27.2,16
1260,21201.0,-0.2,-0.2,0.4,0.7000000000000001,0.8,10.0,8.100000000000001,-8.899999999999999,26.300000000000004,16
1261,21218.0,-0.2,-0.2,0.4,0.6000000000000001,0.8,10.0,8.100000000000001,-8.899999999999999,26.300000000000004,16
1262,21234.0,-0.4,-0.2,0.30000000000000004,0.6000000000000001,0.8,10.0,8.0,-6.300000000000001,25.200000000000003,16
1263,21251.0,-0.5,-0.2,0.4,0.4,0.7000000000000001,10.100000000000001,8.100000000000001,-2.9,25.6,16
1264,21268.0,-0.6000000000000001,-0.4,0.5,0.4,0.6000000000000001,10.200000000000001,8.8,0.0,26.400000000000006,16
1265,21284.0,-0.6000000000000001,-0.5,0.6000000000000001,0.4,0.6000000000000001,10.200000000000001,10.1,-1.4,26.9,16
1266,21300.0,-0.7000000000000001,-0.5,0.30000000000000004,0.2,0.6000000000000001,9.9,9.8,-3.1,27.5,16
1267,21317.0,-0.7000000000000001,-0.5,0.30000000000000004,0.2,0.7000000000000001,9.700000000000001,9.8,-3.1,27.5,16
1268,21335.0,-0.6000000000000001,-0.4,-0.1,0.4,0.7000000000000001,9.600000000000001,4.0,-1.1,33.9,16
1269,21351.0,-0.4,-0.4,0.0,0.6000000000000001,0.6000000000000001,9.600000000000001,-1.4,0.5,37.50000000000001,16
1270,21370.0,-0.30000000000000004,-0.5,0.1,0.8,0.5,9.700000000000001,-6.8,0.0,40.7,16
1271,21384.0,-0.1,-0.6000000000000001,0.0,1.0,0.4,9.700000000000001,-11.4,-3.5,44.2,16
1272,21401.0,0.5,-0.8,0.0,1.8,0.1,9.700000000000001,-15.399999999999999,-6.500000000000001,46.6,16
1273,21417.0,1.2000000000000002,-0.9,0.1,2.5,-0.1,9.8,-17.300000000000004,-7.8,45.0,16
1274,21434.0,1.4000000000000001,-1.0,0.2,2.6,-0.2,9.8,-15.100000000000001,-7.200000000000001,39.599999999999994,16
1275,21451.0,1.3,-0.8,-0.2,2.5,-0.1,9.4,-8.700000000000001,-6.699999999999999,33.400000000000006,16
1276,21467.0,1.1,-0.6000000000000001,-1.0,2.3000000000000003,0.30000000000000004,8.3,-3.2,-6.300000000000001,29.200000000000003,16
1277,21486.0,0.9,-0.2,-1.9000000000000001,2.2,0.7000000000000001,7.6000000000000005,-2.6,-3.9,27.700000000000003,16
1278,21500.0,1.0,0.0,-2.1,2.3000000000000003,0.7000000000000001,7.5,-7.400000000000001,-1.1,27.9,16
1279,21517.0,1.2000000000000002,0.1,-1.9000000000000001,2.5,0.7000000000000001,7.9,-14.0,0.30000000000000004,27.3,16
1280,21534.0,1.2000000000000002,0.1,-1.9000000000000001,2.5,0.7000000000000001,8.3,-14.0,0.30000000000000004,27.3,16
1281,21550.0,1.1,0.30000000000000004,-0.6000000000000001,2.3000000000000003,0.8,9.200000000000001,-23.2,3.5,23.400000000000002,16
1282,21567.0,0.8,0.30000000000000004,0.1,1.9000000000000001,0.7000000000000001,10.0,-22.8,8.600000000000001,23.400000000000002,16
1283,21584.0,0.8,0.30000000000000004,0.1,2.0,0.7000000000000001,10.4,-20.0,15.299999999999999,24.8,16
1284,21600.0,0.6000000000000001,0.30000000000000004,1.4000000000000001,1.8,0.6000000000000001,11.100000000000001,-15.299999999999999,18.900000000000002,25.0,16
1285,21617.0,0.6000000000000001,0.4,1.4000000000000001,1.8,0.6000000000000001,11.100000000000001,-9.8,16.900000000000002,25.4,16
1286,21638.0,0.6000000000000001,0.30000000000000004,1.3,1.7000000000000002,0.6000000000000001,10.9,-6.300000000000001,10.9,24.599999999999998,16
1287,21651.0,0.7000000000000001,0.5,0.9,1.8,0.7000000000000001,10.600000000000001,-4.800000000000001,0.5,23.099999999999998,16
1288,21668.0,0.7000000000000001,0.6000000000000001,0.6000000000000001,1.9000000000000001,0.8,10.200000000000001,-4.5,-8.2,21.1,16
1289,21684.0,0.9,0.6000000000000001,0.2,2.2,0.9,9.700000000000001,-3.7000000000000006,-13.100000000000001,18.900000000000002,16
