,ms,accelX,accelY,accelZ,accelWithGX,accelWithGY,accelWithGZ,rotRateAlpha,rotRateBeta,rotRateGamma,interval
0,139.0,-0.4,-0.2,-1.1,1.1,4.4,7.5,35.1,-34.800000000000004,-6.9,16
1,151.0,-0.2,0.2,-1.5,1.2000000000000002,4.800000000000001,6.9,34.1,-27.099999999999998,-12.200000000000001,16
2,167.0,0.0,0.6000000000000001,-2.0,1.4000000000000001,5.300000000000001,6.0,12.9,-3.1,-18.3,16
3,184.0,-0.30000000000000004,0.8,-1.7000000000000002,1.1,5.6000000000000005,6.1000000000000005,-1.0,10.5,-19.700000000000003,16
4,201.0,-0.5,0.4,-1.1,0.6000000000000001,5.300000000000001,6.6000000000000005,-24.1,36.6,-12.4,16
5,217.0,0.2,0.0,0.4,1.3,4.800000000000001,8.200000000000001,-29.0,45.9,-14.900000000000002,16
6,234.0,0.1,0.30000000000000004,0.4,0.9,5.2,8.8,-24.8,43.300000000000004,-19.1,16
7,251.0,0.1,-0.2,1.4000000000000001,0.9,4.6000000000000005,9.3,-13.8,43.900000000000006,-29.600000000000005,16
8,267.0,0.8,-0.5,1.1,1.5,4.2,9.200000000000001,-8.5,27.2,-45.7,16
9,284.0,0.0,-0.6000000000000001,1.1,0.6000000000000001,4.0,9.3,0.2,-4.5,-54.199999999999996,16
10,301.0,-0.8,-0.9,0.7000000000000001,-0.2,3.7,8.9,2.6,-24.3,-51.9,16
11,317.0,-1.7000000000000002,-1.4000000000000001,1.4000000000000001,-1.1,3.2,9.700000000000001,3.8,-40.0,-43.2,16
12,334.0,-1.6,-0.2,1.7000000000000002,-1.1,4.4,10.100000000000001,11.6,-64.10000000000001,-24.900000000000002,16
13,351.0,-0.6000000000000001,0.6000000000000001,1.2000000000000002,0.0,5.2,9.700000000000001,18.4,-60.00000000000001,-17.799999999999997,16
14,367.0,0.30000000000000004,1.6,-1.0,0.9,6.4,7.4,32.1,-34.400000000000006,-18.0,16
15,384.0,-0.7000000000000001,1.4000000000000001,-2.4000000000000004,-0.1,6.4,5.800000000000001,20.0,10.700000000000001,-19.799999999999997,16
16,401.0,-0.6000000000000001,1.8,-2.1,-0.1,6.800000000000001,6.0,7.8,30.000000000000004,-16.1,16
17,417.0,-1.6,1.8,-1.0,-1.3,6.9,7.0,-16.8,68.60000000000001,-20.2,16
18,435.0,-2.9000000000000004,2.0,1.9000000000000001,-2.9000000000000004,7.1000000000000005,10.100000000000001,-39.8,79.8,-12.200000000000001,16
19,451.0,-1.9000000000000001,1.8,2.9000000000000004,-2.1,6.800000000000001,11.100000000000001,-25.300000000000004,75.1,6.300000000000001,16
20,467.0,-1.0,0.8,1.9000000000000001,-1.4000000000000001,5.9,10.3,-6.1000000000000005,45.2,17.5,16
21,484.0,-1.2000000000000002,1.4000000000000001,1.1,-1.7000000000000002,6.6000000000000005,9.5,1.0,47.900000000000006,34.0,16
22,501.0,-1.7000000000000002,1.9000000000000001,1.1,-2.4000000000000004,7.2,9.600000000000001,2.2,58.3,52.00000000000001,16
23,517.0,-1.7000000000000002,2.1,1.0,-2.4000000000000004,7.5,9.5,0.0,62.900000000000006,62.800000000000004,16
24,535.0,-1.9000000000000001,2.6,0.4,-2.8000000000000003,8.0,8.9,-14.600000000000001,58.5,87.2,16
25,551.0,-1.4000000000000001,3.0,-1.9000000000000001,-2.2,8.5,6.6000000000000005,-29.700000000000006,49.800000000000004,109.00000000000001,16
26,567.0,-0.9,2.5,-2.8000000000000003,-1.8,8.0,5.6000000000000005,-34.300000000000004,70.8,102.2,16
27,584.0,-2.7,2.3000000000000003,-1.1,-3.8000000000000003,7.800000000000001,7.4,-35.1,128.3,98.2,16
28,601.0,-2.8000000000000003,0.30000000000000004,2.5,-4.2,5.9,10.9,-27.5,169.1,148.60000000000002,16
29,617.0,-1.5,-0.7000000000000001,3.5,-3.1,4.9,12.0,-20.400000000000002,169.0,157.20000000000002,16
30,637.0,0.6000000000000001,-0.9,3.9000000000000004,-1.1,4.7,12.5,-0.7,136.3,144.8,16
31,651.0,0.4,0.2,1.8,-1.3,5.800000000000001,10.4,2.3,92.10000000000001,138.6,16
32,667.0,0.7000000000000001,-0.5,0.30000000000000004,-1.0,5.2,8.8,-17.799999999999997,88.7,148.4,16
33,684.0,0.9,-1.9000000000000001,1.2000000000000002,-0.8,3.8000000000000003,9.8,-25.8,92.3,150.00000000000003,16
34,701.0,2.1,-3.8000000000000003,2.5,0.5,1.8,11.200000000000001,-29.900000000000006,99.2,131.7,16
35,717.0,2.6,-3.8000000000000003,2.8000000000000003,1.0,1.6,11.600000000000001,-17.6,91.30000000000001,102.5,16
36,735.0,2.5,-3.3000000000000003,1.9000000000000001,0.9,2.1,10.600000000000001,-11.900000000000002,72.2,89.9,16
37,751.0,1.6,-2.5,0.0,0.0,2.9000000000000004,8.8,-9.0,57.49999999999999,79.6,16
38,767.0,0.7000000000000001,-1.8,-1.8,-0.9,3.5,6.9,-12.100000000000001,56.0,89.5,16
39,784.0,0.0,-1.8,-2.5,-1.6,3.5,6.1000000000000005,-20.1,57.3,97.7,16
40,801.0,-0.5,-3.3000000000000003,-1.3,-2.0,1.8,7.4,-51.6,49.1,112.30000000000001,16
41,817.0,1.3,-5.0,0.30000000000000004,0.0,-0.2,9.200000000000001,-88.7,-7.9,99.10000000000001,16
42,836.0,1.5,-4.1000000000000005,-0.1,0.4,0.30000000000000004,8.9,-104.00000000000001,-34.60000000000001,46.199999999999996,16
43,851.0,0.9,-3.2,-1.1,-0.1,1.0,8.0,-102.0,-36.7,27.9,16
44,867.0,-0.1,-2.0,-1.8,-1.1,1.8,7.4,-99.00000000000001,-10.9,21.200000000000003,16
45,884.0,0.0,-1.0,-2.0,-1.0,2.6,7.2,-92.60000000000001,19.1,23.400000000000002,16
46,901.0,0.0,-0.2,-2.0,-1.0,3.2,7.300000000000001,-86.60000000000001,27.099999999999998,24.900000000000002,16
47,917.0,-0.9,1.1,-1.7000000000000002,-2.0,4.3,7.6000000000000005,-70.5,27.700000000000003,32.0,16
48,934.0,0.0,0.30000000000000004,-0.30000000000000004,-1.1,3.3000000000000003,9.1,-52.7,11.8,38.50000000000001,16
49,951.0,0.6000000000000001,-0.4,-0.1,-0.5,2.6,9.200000000000001,-41.7,-10.0,34.0,16
50,967.0,1.9000000000000001,-0.7000000000000001,-2.2,1.0,2.2,7.1000000000000005,-26.799999999999997,-50.8,9.700000000000001,16
51,984.0,-0.6000000000000001,2.6,-1.5,-1.3,5.4,7.9,-48.70000000000001,-37.400000000000006,8.700000000000001,16
52,1001.0,0.6000000000000001,1.9000000000000001,-1.4000000000000001,-0.1,4.6000000000000005,8.0,-63.500000000000014,-25.6,25.7,16
53,1017.0,-0.1,1.5,1.0,-0.7000000000000001,4.0,10.5,-61.10000000000001,-6.699999999999999,18.700000000000003,16
54,1034.0,0.5,1.6,0.7000000000000001,-0.1,4.0,10.200000000000001,-36.1,-11.1,6.0,16
55,1051.0,0.5,2.5,0.0,0.0,5.0,9.600000000000001,-14.600000000000001,2.7,3.3000000000000007,16
56,1067.0,0.30000000000000004,2.2,-0.9,-0.30000000000000004,4.6000000000000005,8.6,-10.5,10.5,8.4,16
57,1084.0,0.8,1.2000000000000002,-0.1,0.2,3.6,9.4,-14.5,11.000000000000002,0.6000000000000001,16
58,1101.0,0.2,1.7000000000000002,-0.4,-0.4,4.1000000000000005,9.1,-13.8,3.2,-10.5,16
59,1117.0,0.1,1.8,-0.2,-0.5,4.2,9.4,-10.200000000000001,5.7,-13.000000000000002,16
60,1134.0,-0.5,2.4000000000000004,0.4,-1.1,4.800000000000001,10.0,4.2,18.4,-12.8,16
61,1151.0,-0.9,1.3,0.4,-1.7000000000000002,3.8000000000000003,9.9,21.400000000000002,26.300000000000004,-3.8,16
62,1167.0,-0.5,0.9,0.5,-1.3,3.4000000000000004,10.0,25.900000000000002,22.6,0.0,16
63,1184.0,0.0,0.4,0.2,-0.8,3.1,9.700000000000001,24.5,6.9,-0.1,16
64,1201.0,-0.2,0.1,0.2,-1.0,2.8000000000000003,9.700000000000001,16.900000000000002,-4.300000000000001,-4.5,16
65,1217.0,-0.2,0.0,0.1,-0.8,2.9000000000000004,9.3,13.700000000000001,-7.9,-5.0,16
66,1234.0,0.2,0.9,-0.5,-0.6000000000000001,3.7,8.9,6.9,-9.5,-10.5,16
67,1251.0,-0.8,-0.6000000000000001,-0.5,-1.7000000000000002,2.2,9.0,2.6,10.1,-10.700000000000001,16
68,1267.0,0.2,-0.30000000000000004,0.6000000000000001,-0.8,2.5,10.100000000000001,-1.4,32.300000000000004,7.200000000000001,16
69,1284.0,0.6000000000000001,-0.1,1.5,-0.4,2.7,11.0,-0.8,33.6,3.0,16
70,1301.0,-0.1,-2.0,2.4000000000000004,-1.2000000000000002,0.8,11.9,15.8,42.60000000000001,-12.9,16
71,1317.0,0.7000000000000001,-1.2000000000000002,2.2,-0.6000000000000001,1.6,11.700000000000001,26.9,50.1,-12.9,16
72,1334.0,0.8,-0.8,1.9000000000000001,-0.6000000000000001,2.1,11.3,27.700000000000003,40.1,-18.700000000000003,16
73,1351.0,0.0,-1.1,0.5,-1.5,1.8,9.9,22.2,22.5,-30.9,16
74,1367.0,1.0,-0.9,1.0,-0.5,2.0,10.4,0.9000000000000001,19.0,-21.900000000000002,16
75,1384.0,1.0,-1.0,1.4000000000000001,-0.6000000000000001,1.9000000000000001,10.9,-4.6,5.500000000000001,-24.0,16
76,1401.0,0.4,-0.9,1.6,-1.2000000000000002,1.9000000000000001,11.0,-4.7,-18.700000000000003,-36.7,16
77,1417.0,1.1,-1.0,1.7000000000000002,-0.4,1.8,11.200000000000001,-0.6000000000000001,-16.8,-32.400000000000006,16
78,1434.0,0.8,-0.9,1.7000000000000002,-1.0,2.0,11.3,2.2,-20.3,-35.4,16
79,1451.0,0.2,-0.4,1.7000000000000002,-1.3,2.4000000000000004,11.3,9.100000000000001,-28.900000000000002,-42.800000000000004,16
80,1467.0,-0.4,-0.2,0.8,-1.8,2.6,10.3,18.200000000000003,-27.6,-41.1,16
81,1484.0,-0.6000000000000001,-0.2,0.0,-2.0,2.7,9.600000000000001,21.8,-18.1,-36.9,16
82,1501.0,-0.8,-0.2,-0.2,-2.2,2.6,9.3,21.200000000000003,-13.3,-34.50000000000001,16
83,1517.0,-0.9,-0.4,-0.1,-2.3000000000000003,2.5,9.4,19.1,-9.3,-29.800000000000004,16
84,1534.0,-1.0,-0.6000000000000001,-0.6000000000000001,-2.4000000000000004,2.4000000000000004,8.9,16.1,-13.900000000000002,-22.6,16
85,1551.0,-1.0,-0.7000000000000001,-1.0,-2.3000000000000003,2.3000000000000003,8.5,12.7,-18.4,-19.200000000000003,16
86,1567.0,-1.0,-0.8,-1.9000000000000001,-2.3000000000000003,2.1,7.6000000000000005,0.9000000000000001,-26.000000000000004,-11.6,16
87,1584.0,-0.8,-0.9,-2.2,-2.1,2.1,7.300000000000001,-15.700000000000001,-34.0,-2.7,16
88,1601.0,-0.6000000000000001,-0.8,-2.1,-1.7000000000000002,2.1,7.4,-21.200000000000003,-35.0,2.3,16
89,1617.0,0.7000000000000001,0.0,-2.2,-0.30000000000000004,2.8000000000000003,7.300000000000001,-26.000000000000004,-37.0,1.1,16
90,1634.0,0.1,0.30000000000000004,-1.7000000000000002,-0.8,2.9000000000000004,7.800000000000001,-32.0,-31.6,-23.700000000000003,16
91,1651.0,-1.4000000000000001,0.1,-0.6000000000000001,-2.3000000000000003,2.6,8.9,-29.800000000000004,-24.599999999999998,-25.1,16
92,1667.0,-2.2,0.6000000000000001,-0.7000000000000001,-3.1,3.1,8.9,-23.700000000000003,-28.0,-17.400000000000002,16
93,1684.0,-2.0,1.4000000000000001,-0.7000000000000001,-2.8000000000000003,3.9000000000000004,8.9,-10.700000000000001,-20.2,16.0,16
94,1701.0,-0.30000000000000004,1.1,-1.4000000000000001,-1.1,3.6,8.200000000000001,-3.0,9.899999999999999,36.6,16
95,1717.0,0.0,1.0,-1.4000000000000001,-0.9,3.5,8.200000000000001,-6.300000000000001,17.7,40.6,16
96,1734.0,0.8,0.4,-0.9,0.0,2.8000000000000003,8.700000000000001,-21.8,23.800000000000004,39.50000000000001,16
97,1751.0,0.2,0.4,0.1,-0.7000000000000001,2.7,9.600000000000001,-38.800000000000004,21.6,18.3,16
98,1767.0,-0.30000000000000004,0.4,0.4,-1.3,2.7,10.0,-39.8,15.399999999999999,23.0,16
99,1784.0,-0.9,1.0,1.3,-1.8,3.2,11.0,-27.400000000000002,15.2,45.5,16
100,1801.0,-0.4,0.8,1.8,-1.5,3.0,11.5,-5.4,34.400000000000006,51.50000000000001,16
101,1817.0,-0.5,0.5,2.0,-1.6,2.7,11.600000000000001,5.300000000000001,40.300000000000004,56.7,16
102,1834.0,-0.30000000000000004,0.5,1.0,-1.4000000000000001,2.8000000000000003,10.600000000000001,15.899999999999999,35.599999999999994,60.400000000000006,16
103,1851.0,0.0,0.30000000000000004,0.6000000000000001,-1.1,2.7,10.200000000000001,12.8,31.9,61.10000000000001,16
104,1867.0,0.1,0.7000000000000001,0.4,-1.1,3.2,10.0,10.0,28.1,60.1,16
105,1884.0,-0.6000000000000001,0.6000000000000001,0.2,-1.8,3.1,9.8,8.0,28.200000000000003,47.80000000000001,16
106,1901.0,0.1,0.4,0.4,-1.3,3.0,9.9,11.1,41.900000000000006,59.60000000000001,16
107,1917.0,0.4,0.0,0.7000000000000001,-1.0,2.6,10.200000000000001,10.8,43.70000000000001,56.0,16
108,1934.0,0.30000000000000004,-0.1,1.1,-1.2000000000000002,2.6,10.600000000000001,10.700000000000001,44.300000000000004,52.2,16
109,1951.0,0.0,-0.5,1.1,-1.5,2.2,10.600000000000001,11.1,36.5,49.50000000000001,16
110,1968.0,0.0,-0.9,1.2000000000000002,-1.6,1.8,10.700000000000001,9.4,31.2,51.4,16
111,1984.0,0.0,-1.1,1.4000000000000001,-1.7000000000000002,1.7000000000000002,10.9,7.9,27.6,50.3,16
112,2001.0,-0.5,-1.3,1.5,-2.2,1.5,11.0,7.200000000000001,20.900000000000002,47.1,16
113,2017.0,-0.8,-1.1,1.2000000000000002,-2.4000000000000004,1.8,10.700000000000001,10.299999999999999,11.8,47.60000000000001,16
114,2034.0,-0.8,-1.1,0.7000000000000001,-2.5,1.7000000000000002,9.5,12.200000000000001,5.2,47.900000000000006,16
115,2051.0,-0.8,-1.4000000000000001,-0.2,-2.4000000000000004,1.6,9.200000000000001,9.4,3.0,46.7,16
116,2067.0,-0.7000000000000001,-1.2000000000000002,-0.5,-2.3000000000000003,1.8,8.9,2.2,-6.9,40.7,16
117,2084.0,-1.0,-0.5,-0.8,-2.5,2.5,8.700000000000001,-4.800000000000001,-16.4,27.9,16
118,2101.0,-1.1,-0.30000000000000004,-1.0,-2.5,2.7,8.5,-8.3,-18.8,23.5,16
119,2117.0,-1.1,-0.1,-0.8,-2.5,2.9000000000000004,8.6,-13.399999999999999,-16.5,17.0,16
120,2134.0,-1.0,0.1,-0.9,-2.4000000000000004,3.0,8.6,-14.0,-13.200000000000003,9.700000000000001,16
121,2151.0,-0.8,0.0,-1.1,-2.1,2.9000000000000004,8.4,-12.7,-8.0,5.0,16
122,2167.0,-0.6000000000000001,0.0,-0.8,-2.0,2.8000000000000003,8.700000000000001,-10.200000000000001,-1.7,-6.0,16
123,2184.0,-0.4,0.4,-1.1,-1.8,3.2,8.4,-0.7,4.4,-4.1,16
124,2201.0,-0.4,0.4,-1.0,-1.8,3.2,8.5,1.1,11.000000000000002,-7.1000000000000005,16
125,2218.0,-0.5,0.4,-0.9,-2.0,3.3000000000000003,8.5,5.9,20.1,-8.899999999999999,16
126,2234.0,-0.5,0.2,-0.8,-2.0,3.1,8.700000000000001,7.200000000000001,19.200000000000003,-9.899999999999999,16
127,2253.0,-0.5,0.1,-0.8,-2.2,3.0,8.8,7.0,17.0,-10.9,16
128,2267.0,-0.6000000000000001,0.2,-0.5,-2.3000000000000003,3.1,8.9,6.500000000000001,10.200000000000001,-11.1,16
129,2284.0,-0.4,-0.2,-0.30000000000000004,-2.1,2.7,9.1,8.899999999999999,3.3000000000000007,-8.0,16
130,2301.0,-0.1,-0.6000000000000001,0.1,-1.8,2.3000000000000003,9.5,16.6,-7.9,-7.9,16
131,2317.0,0.1,-0.7000000000000001,0.2,-1.6,2.2,9.600000000000001,23.3,-15.299999999999999,-9.700000000000001,16
132,2334.0,0.6000000000000001,-0.9,-0.7000000000000001,-1.0,2.2,8.700000000000001,35.2,-27.400000000000002,-17.1,16
133,2351.0,0.6000000000000001,-0.7000000000000001,-0.8,-0.9,2.5,8.6,35.9,-23.700000000000003,-24.400000000000002,16
134,2367.0,0.6000000000000001,-0.7000000000000001,-0.1,-0.9,2.5,9.200000000000001,34.0,-17.1,-26.799999999999997,16
135,2384.0,0.30000000000000004,-0.5,0.8,-1.2000000000000002,2.8000000000000003,10.100000000000001,29.300000000000004,-6.4,-34.60000000000001,16
136,2401.0,-0.2,-0.2,2.2,-1.8,3.1,11.4,23.800000000000004,14.800000000000002,-36.0,16
137,2417.0,-0.4,-0.30000000000000004,3.2,-2.1,3.1,12.5,24.900000000000002,22.9,-34.300000000000004,16
138,2434.0,-0.8,-0.7000000000000001,4.3,-2.5,2.7,13.600000000000001,37.1,21.900000000000002,-31.7,16
139,2451.0,-0.6000000000000001,-0.6000000000000001,3.4000000000000004,-2.4000000000000004,2.9000000000000004,12.700000000000001,53.300000000000004,3.8,-29.1,16
140,2467.0,-0.5,-0.5,2.3000000000000003,-2.2,3.4000000000000004,10.3,58.0,-4.7,-27.800000000000004,16
141,2484.0,-0.1,-0.2,0.30000000000000004,-2.0,3.7,9.4,53.400000000000006,-13.399999999999999,-21.900000000000002,16
142,2501.0,0.2,-0.1,-0.8,-1.6,3.8000000000000003,8.200000000000001,37.6,-16.900000000000002,-13.700000000000001,16
143,2517.0,0.30000000000000004,-0.2,-1.1,-1.5,3.9000000000000004,8.0,22.4,-14.600000000000001,-8.2,16
144,2534.0,0.30000000000000004,-0.2,-1.2000000000000002,-1.5,3.9000000000000004,7.800000000000001,16.900000000000002,-11.2,-5.9,16
145,2551.0,0.0,-0.2,-1.1,-1.7000000000000002,3.9000000000000004,7.9,8.899999999999999,-1.8000000000000003,-0.30000000000000004,16
146,2567.0,-0.1,-0.2,-1.0,-1.9000000000000001,3.9000000000000004,8.0,4.6,5.500000000000001,7.0,16
147,2584.0,-0.2,-0.2,-1.1,-1.9000000000000001,3.8000000000000003,7.9,2.2,6.600000000000001,11.000000000000002,16
148,2601.0,-0.1,-0.4,-1.5,-1.8,3.7,7.4,-6.9,3.6000000000000005,19.1,16
149,2617.0,0.30000000000000004,-0.5,-1.8,-1.4000000000000001,3.6,7.2,-19.6,-3.0,24.400000000000002,16
150,2634.0,0.4,-0.5,-1.8,-1.3,3.5,7.1000000000000005,-25.6,-6.699999999999999,25.300000000000004,16
151,2653.0,0.5,-0.30000000000000004,-1.9000000000000001,-1.1,3.7,7.1000000000000005,-32.7,-9.700000000000001,24.599999999999998,16
152,2670.0,0.30000000000000004,0.1,-1.7000000000000002,-1.2000000000000002,3.9000000000000004,7.300000000000001,-32.2,-4.800000000000001,24.0,16
153,2684.0,0.2,0.30000000000000004,-1.3,-1.3,4.0,7.800000000000001,-24.5,3.5,23.0,16
154,2701.0,0.2,0.4,-1.1,-1.3,4.1000000000000005,8.0,-18.4,7.699999999999999,22.4,16
155,2717.0,0.30000000000000004,0.6000000000000001,-1.0,-1.2000000000000002,4.4,8.0,-6.1000000000000005,13.200000000000003,21.0,16
156,2734.0,0.2,0.7000000000000001,-1.1,-1.3,4.5,7.9,1.9,14.0,19.700000000000003,16
157,2751.0,0.1,0.8,-1.2000000000000002,-1.4000000000000001,4.5,7.800000000000001,4.2,11.4,19.0,16
158,2767.0,0.1,1.0,-1.2000000000000002,-1.4000000000000001,4.800000000000001,7.9,6.4,2.4000000000000004,20.5,16
159,2784.0,0.30000000000000004,1.1,-1.5,-1.1,5.0,7.5,9.100000000000001,-4.0,24.5,16
160,2802.0,0.6000000000000001,1.1,-1.6,-0.8,5.0,7.4,9.100000000000001,-4.7,27.099999999999998,16
161,2817.0,1.1,0.8,-1.3,-0.30000000000000004,4.7,7.6000000000000005,5.4,-0.5,30.000000000000004,16
162,2834.0,1.3,0.5,-0.5,-0.1,4.5,8.5,3.0,6.500000000000001,28.0,16
163,2851.0,1.3,0.30000000000000004,0.2,-0.1,4.1000000000000005,9.8,3.9,11.3,26.200000000000003,16
164,2867.0,1.1,0.0,1.3,-0.2,4.0,10.200000000000001,12.8,19.1,19.300000000000004,16
165,2885.0,1.0,0.1,1.5,-0.4,4.2,10.5,26.300000000000004,23.0,10.4,16
166,2901.0,0.9,0.5,1.0,-0.6000000000000001,4.7,9.9,33.9,21.500000000000004,5.6,16
167,2917.0,1.0,0.6000000000000001,0.6000000000000001,-0.5,4.9,9.5,32.400000000000006,20.8,4.5,16
168,2934.0,1.1,0.9,0.0,-0.5,5.2,8.8,18.700000000000003,20.900000000000002,2.2,16
169,2953.0,0.6000000000000001,1.0,0.1,-1.0,5.300000000000001,8.9,-9.600000000000001,26.200000000000003,0.5,16
170,2968.0,-0.2,1.1,0.7000000000000001,-1.9000000000000001,5.300000000000001,9.5,-26.6,36.1,0.30000000000000004,16
171,2984.0,-1.6,0.0,3.9000000000000004,-3.4000000000000004,4.1000000000000005,12.700000000000001,-50.3,66.80000000000001,6.4,16
172,3001.0,-1.7000000000000002,-1.8,8.1,-3.8000000000000003,2.2,17.0,-33.1,78.5,9.100000000000001,16
173,3017.0,-1.8,-2.2,8.700000000000001,-4.0,1.8,17.6,-6.500000000000001,67.3,3.5,16
174,3034.0,-1.9000000000000001,-2.3000000000000003,5.7,-4.3,1.8,14.600000000000001,52.400000000000006,30.699999999999996,-8.4,16
175,3051.0,-1.5,-1.5,1.3,-3.9000000000000004,2.8000000000000003,10.100000000000001,75.2,13.200000000000003,-10.8,16
176,3067.0,-1.3,-1.2000000000000002,-0.2,-3.7,3.5,7.4,70.3,7.300000000000001,-9.5,16
177,3084.0,-1.0,-0.9,-2.2,-3.5,3.7,6.4,46.300000000000004,-3.5,-5.2,16
178,3101.0,-0.9,-0.7000000000000001,-3.1,-3.3000000000000003,3.9000000000000004,5.5,14.700000000000001,1.4,0.5,16
179,3117.0,-0.8,-0.8,-2.4000000000000004,-3.3000000000000003,3.7,6.2,-14.0,13.200000000000003,8.100000000000001,16
180,3134.0,-0.7000000000000001,-0.9,-1.7000000000000002,-3.3000000000000003,3.6,6.9,-22.6,15.8,11.2,16
181,3152.0,-0.5,-1.1,-1.0,-3.1,3.4000000000000004,7.6000000000000005,-29.300000000000004,14.800000000000002,15.2,16
182,3167.0,-0.2,-1.0,-1.2000000000000002,-2.7,3.3000000000000003,7.4,-33.6,6.500000000000001,17.5,16
183,3184.0,0.1,-1.0,-1.2000000000000002,-2.5,3.3000000000000003,7.4,-36.5,3.2,18.3,16
184,3201.0,0.5,-1.1,-1.3,-2.0,3.1,7.4,-41.800000000000004,-3.4,16.8,16
185,3217.0,0.7000000000000001,-1.1,-1.2000000000000002,-1.7000000000000002,2.9000000000000004,7.6000000000000005,-43.70000000000001,-8.600000000000001,10.5,16
186,3234.0,0.7000000000000001,-1.1,-1.0,-1.8,3.0,8.0,-41.900000000000006,-9.700000000000001,5.8,16
187,3251.0,0.5,-0.7000000000000001,-0.8,-1.9000000000000001,3.2,8.0,-29.200000000000003,-11.2,-2.4000000000000004,16
188,3267.0,0.30000000000000004,-0.1,-1.3,-2.1,3.7,7.6000000000000005,-10.600000000000001,-12.600000000000001,-7.500000000000001,16
189,3284.0,0.4,0.30000000000000004,-2.1,-1.9000000000000001,4.1000000000000005,6.800000000000001,3.3000000000000007,-10.8,-10.0,16
190,3301.0,0.5,0.4,-2.3000000000000003,-1.8,4.3,6.5,6.699999999999999,-9.8,-10.9,16
191,3317.0,0.5,0.7000000000000001,-2.3000000000000003,-1.8,4.6000000000000005,6.5,8.100000000000001,-6.9,-12.4,16
192,3334.0,0.8,0.8,-1.6,-1.5,4.7,7.2,8.3,-4.9,-13.8,16
193,3351.0,0.9,0.9,-1.3,-1.4000000000000001,4.800000000000001,7.5,9.2,-7.6,-15.399999999999999,16
194,3367.0,1.1,1.2000000000000002,-1.0,-1.2000000000000002,5.1000000000000005,7.800000000000001,10.1,-14.300000000000002,-17.5,16
195,3384.0,1.3,1.3,-0.30000000000000004,-1.0,5.300000000000001,8.5,9.5,-17.200000000000003,-16.5,16
196,3401.0,1.4000000000000001,1.3,0.0,-0.8,5.300000000000001,8.8,9.2,-18.200000000000003,-16.1,16
197,3417.0,1.7000000000000002,1.3,0.6000000000000001,-0.4,5.2,9.4,7.6,-18.200000000000003,-18.0,16
198,3434.0,1.6,0.8,1.6,-0.5,4.800000000000001,10.4,6.4,-14.200000000000001,-22.1,16
199,3451.0,1.6,0.4,2.5,-0.6000000000000001,4.2,12.100000000000001,15.000000000000002,-10.700000000000001,-29.1,16
200,3468.0,1.4000000000000001,0.0,3.9000000000000004,-0.7000000000000001,4.0,12.700000000000001,24.599999999999998,-11.900000000000002,-34.2,16
201,3484.0,1.5,-0.2,3.6,-0.6000000000000001,4.0,12.4,49.6,-22.1,-44.9,16
202,3501.0,1.6,-0.1,2.1,-0.6000000000000001,4.2,10.8,61.199999999999996,-28.900000000000002,-55.0,16
203,3518.0,1.3,0.0,1.4000000000000001,-0.8,4.3,10.100000000000001,59.60000000000001,-27.700000000000003,-58.60000000000001,16
204,3534.0,0.9,0.0,1.7000000000000002,-1.2000000000000002,4.5,10.4,45.9,-23.6,-62.7,16
205,3553.0,0.7000000000000001,0.1,2.3000000000000003,-1.5,4.7,11.0,41.300000000000004,-22.3,-65.0,16
206,3568.0,0.5,0.1,2.1,-1.7000000000000002,4.6000000000000005,10.700000000000001,41.199999999999996,-18.900000000000002,-65.8,16
207,3584.0,0.1,-0.2,2.4000000000000004,-2.2,4.5,11.0,36.8,-6.699999999999999,-66.7,16
208,3601.0,-0.4,-0.1,2.5,-2.8000000000000003,4.6000000000000005,11.0,32.400000000000006,-2.8,-68.9,16
209,3617.0,-0.6000000000000001,-0.1,2.5,-3.0,4.6000000000000005,11.0,30.4,-2.6,-67.60000000000001,16
210,3634.0,-0.6000000000000001,0.0,1.9000000000000001,-3.1,4.7,10.4,27.0,-9.0,-62.300000000000004,16
211,3651.0,-0.5,0.2,0.9,-3.0,4.9,9.4,17.400000000000002,-13.900000000000002,-54.6,16
212,3667.0,-0.4,0.2,0.5,-2.9000000000000004,4.9,8.700000000000001,10.200000000000001,-14.200000000000001,-50.5,16
213,3684.0,-0.4,0.2,0.1,-3.0,4.9,8.6,-7.200000000000001,-14.800000000000002,-43.00000000000001,16
214,3701.0,-0.7000000000000001,0.1,-0.2,-3.3000000000000003,4.7,8.4,-20.0,-14.5,-35.3,16
215,3717.0,-0.7000000000000001,-0.2,-0.6000000000000001,-3.3000000000000003,4.3,8.0,-24.8,-15.6,-24.599999999999998,16
216,3734.0,-0.6000000000000001,-0.4,-1.0,-3.2,4.1000000000000005,7.7,-25.5,-16.700000000000003,-20.1,16
217,3751.0,-0.4,-0.6000000000000001,-1.6,-3.0,3.7,7.1000000000000005,-25.5,-19.0,-13.5,16
218,3767.0,-0.30000000000000004,-0.8,-2.3000000000000003,-2.8000000000000003,3.5,6.4,-21.0,-19.300000000000004,-8.600000000000001,16
219,3784.0,-0.30000000000000004,-0.8,-2.7,-2.8000000000000003,3.4000000000000004,6.0,-18.3,-18.5,-5.6,16
220,3801.0,0.0,-1.2000000000000002,-3.0,-2.5,3.0,5.800000000000001,-12.299999999999999,-17.799999999999997,-0.4,16
221,3817.0,0.30000000000000004,-1.3,-3.3000000000000003,-2.1,2.8000000000000003,5.5,-7.6,-17.5,0.4,16
222,3835.0,0.4,-1.3,-3.3000000000000003,-2.0,2.8000000000000003,5.4,-6.500000000000001,-18.0,-0.4,16
223,3856.0,0.30000000000000004,-1.1,-2.7,-2.0,3.0,6.1000000000000005,-0.8,-13.6,-0.6000000000000001,16
224,3868.0,0.30000000000000004,-1.1,-2.3000000000000003,-2.0,3.0,6.4,6.2,-9.0,0.7,16
225,3884.0,0.30000000000000004,-1.0,-2.1,-1.9000000000000001,3.2,6.6000000000000005,23.3,2.9,3.2,16
226,3901.0,0.5,-0.9,-2.2,-1.8,3.3000000000000003,6.5,29.600000000000005,10.9,4.9,16
227,3917.0,0.6000000000000001,-0.8,-1.7000000000000002,-1.8,3.5,6.800000000000001,32.7,24.599999999999998,8.600000000000001,16
228,3934.0,0.8,-0.8,-0.5,-1.6,3.6,8.0,28.500000000000004,31.5,10.5,16
229,3951.0,0.9,-0.8,0.1,-1.6,3.6,8.6,26.000000000000004,29.400000000000002,9.899999999999999,16
230,3968.0,0.9,-0.5,0.8,-1.6,4.0,9.200000000000001,22.700000000000003,22.3,8.4,16
231,3984.0,0.8,0.0,0.6000000000000001,-1.7000000000000002,4.6000000000000005,9.0,17.300000000000004,17.1,9.899999999999999,16
232,4001.0,0.8,0.2,0.6000000000000001,-1.8,4.800000000000001,9.0,11.1,16.3,11.6,16
233,4017.0,0.7000000000000001,0.5,1.2000000000000002,-1.9000000000000001,5.1000000000000005,9.600000000000001,-3.4,15.2,16.900000000000002,16
234,4034.0,0.8,0.8,2.1,-1.7000000000000002,5.4,10.5,-15.700000000000001,4.2,22.1,16
235,4051.0,1.0,1.0,2.2,-1.1,5.9,10.4,-28.500000000000004,-15.299999999999999,23.700000000000003,16
236,4067.0,1.4000000000000001,1.7000000000000002,1.3,-1.0,6.2,9.8,-39.300000000000004,-22.8,24.400000000000002,16
237,4084.0,0.9,2.2,1.0,-1.4000000000000001,6.6000000000000005,9.600000000000001,-75.7,-24.3,29.0,16
238,4101.0,0.5,2.1,3.6,-1.7000000000000002,6.1000000000000005,12.4,-113.89999999999999,-4.0,38.50000000000001,16
239,4118.0,0.30000000000000004,1.5,5.800000000000001,-1.8,5.4,14.700000000000001,-119.49999999999999,10.8,42.2,16
240,4135.0,-0.1,-0.30000000000000004,10.600000000000001,-2.3000000000000003,3.3000000000000003,19.700000000000003,-90.9,29.900000000000006,38.900000000000006,16
241,4160.0,-0.9,-0.7000000000000001,10.600000000000001,-3.6,3.2,17.6,13.6,0.4,12.200000000000001,16
242,4169.0,-1.4000000000000001,-0.4,8.4,-4.1000000000000005,3.6,15.200000000000001,13.6,0.4,12.200000000000001,16
243,4184.0,-2.1,0.0,3.9000000000000004,-4.3,3.7,13.100000000000001,42.3,-9.2,8.600000000000001,16
244,4201.0,-2.6,-0.30000000000000004,1.1,-4.800000000000001,3.5,10.3,30.000000000000004,-15.700000000000001,9.700000000000001,16
245,4217.0,-2.6,-0.4,0.4,-4.800000000000001,3.4000000000000004,9.600000000000001,17.400000000000002,-17.1,9.5,16
246,4234.0,-3.0,-0.5,0.1,-5.1000000000000005,3.3000000000000003,9.4,-7.400000000000001,-17.300000000000004,7.8,16
247,4251.0,-3.1,-1.1,0.2,-5.1000000000000005,2.7,9.4,-16.0,-26.6,9.899999999999999,16
248,4267.0,-2.5,-1.6,-0.5,-4.5,2.1,8.8,-5.8,-41.6,10.8,16
249,4284.0,-2.2,-1.7000000000000002,-1.2000000000000002,-4.1000000000000005,2.1,8.1,4.4,-47.0,9.700000000000001,16
250,4301.0,-1.7000000000000002,-1.8,-2.9000000000000004,-3.4000000000000004,2.0,6.4,25.7,-50.400000000000006,10.1,16
251,4317.0,-1.0,-1.9000000000000001,-4.6000000000000005,-2.5,2.1,4.6000000000000005,38.300000000000004,-45.8,10.8,16
252,4334.0,-0.6000000000000001,-1.8,-5.1000000000000005,-2.1,2.1,4.1000000000000005,38.800000000000004,-41.6,10.299999999999999,16
253,4351.0,-0.30000000000000004,-1.7000000000000002,-5.800000000000001,-1.7000000000000002,2.3000000000000003,3.4000000000000004,31.799999999999997,-33.50000000000001,8.600000000000001,16
254,4367.0,-0.1,-1.7000000000000002,-5.300000000000001,-1.4000000000000001,2.5,3.8000000000000003,20.3,-26.000000000000004,6.600000000000001,16
255,4384.0,-0.1,-1.6,-4.9,-1.3,2.5,4.1000000000000005,16.3,-25.0,5.0,16
256,4401.0,-0.2,-1.3,-4.3,-1.3,2.9000000000000004,4.7,13.700000000000001,-21.300000000000004,-0.2,16
257,4417.0,-0.4,-0.7000000000000001,-3.5,-1.5,3.5,5.5,17.400000000000002,-13.3,-2.0,16
258,4434.0,-0.4,-0.6000000000000001,-3.1,-1.5,3.7,5.800000000000001,22.1,-9.0,-2.3,16
259,4457.0,-0.8,0.1,-2.5,-1.9000000000000001,4.5,6.300000000000001,31.099999999999998,3.7000000000000006,-0.30000000000000004,16
260,4468.0,-0.7000000000000001,0.30000000000000004,-2.2,-1.8,4.800000000000001,6.6000000000000005,30.3,3.8,3.1,16
261,4484.0,-0.2,0.4,-1.5,-1.4000000000000001,4.9,7.2,25.300000000000004,-0.1,8.100000000000001,16
262,4501.0,0.0,0.30000000000000004,-1.1,-1.1,4.800000000000001,7.6000000000000005,21.200000000000003,-5.300000000000001,8.4,16
263,4517.0,0.4,0.7000000000000001,-0.8,-0.7000000000000001,5.300000000000001,7.9,11.3,-21.400000000000002,5.300000000000001,16
264,4534.0,0.4,1.1,-0.6000000000000001,-0.5,5.7,8.1,-1.4,-25.200000000000003,3.1,16
265,4551.0,0.5,1.0,-0.5,-0.5,5.6000000000000005,8.200000000000001,-8.5,-22.4,3.3000000000000007,16
266,4568.0,0.7000000000000001,0.6000000000000001,1.1,-0.2,5.1000000000000005,9.8,-16.200000000000003,-4.0,4.6,16
267,4584.0,0.9,-0.1,3.2,0.0,4.5,12.0,-3.4,15.399999999999999,-0.8,16
268,4601.0,1.0,-0.2,3.8000000000000003,0.1,4.4,12.5,7.200000000000001,16.700000000000003,-7.500000000000001,16
269,4617.0,1.0,0.1,3.5,0.0,4.7,12.3,24.3,9.0,-23.5,16
270,4634.0,0.30000000000000004,0.6000000000000001,2.5,-0.7000000000000001,5.300000000000001,11.200000000000001,18.1,6.600000000000001,-33.6,16
271,4651.0,-0.30000000000000004,0.7000000000000001,3.7,-1.5,5.4,12.4,4.9,10.1,-34.400000000000006,16
272,4667.0,-0.5,0.4,4.9,-1.7000000000000002,5.0,13.700000000000001,-15.000000000000002,21.1,-31.400000000000002,16
273,4684.0,-0.5,-0.6000000000000001,6.9,-1.8,4.0,15.700000000000001,-3.6000000000000005,21.200000000000003,-30.4,16
274,4701.0,-0.30000000000000004,-0.9,5.5,-1.8,3.8000000000000003,14.4,23.3,4.800000000000001,-33.800000000000004,16
275,4717.0,0.0,-0.7000000000000001,3.8000000000000003,-1.5,4.0,12.600000000000001,31.799999999999997,-0.6000000000000001,-34.800000000000004,16
276,4734.0,0.1,-0.30000000000000004,0.9,-1.4000000000000001,4.4,9.8,21.7,-0.9000000000000001,-33.7,16
277,4753.0,-0.1,-0.30000000000000004,0.4,-1.6,4.4,9.200000000000001,-7.200000000000001,7.9,-28.400000000000002,16
278,4768.0,-0.30000000000000004,-0.4,0.6000000000000001,-1.9000000000000001,4.3,9.5,-19.400000000000002,13.6,-25.200000000000003,16
279,4784.0,-0.5,-0.8,0.8,-2.2,3.7,9.700000000000001,-31.799999999999997,20.2,-19.400000000000002,16
280,4801.0,-0.6000000000000001,-1.2000000000000002,0.9,-2.3000000000000003,3.2,9.9,-32.6,19.1,-14.800000000000002,16
281,4817.0,-0.6000000000000001,-1.3,0.6000000000000001,-2.4000000000000004,3.1,9.600000000000001,-28.700000000000003,16.1,-14.300000000000002,16
282,4834.0,-0.7000000000000001,-1.2000000000000002,-0.4,-2.6,3.1,8.6,-18.8,8.899999999999999,-13.000000000000002,16
283,4851.0,-1.0,-1.1,-1.4000000000000001,-2.9000000000000004,3.1,7.5,-10.5,1.1,-8.899999999999999,16
284,4867.0,-0.9,-1.0,-2.0,-2.8000000000000003,3.1,6.5,-4.0,-2.0,-2.7,16
285,4884.0,-0.8,-1.1,-3.0,-2.7,3.1,6.0,-1.8000000000000003,-2.5,0.30000000000000004,16
286,4901.0,-0.5,-1.3,-3.6,-2.4000000000000004,2.9000000000000004,5.300000000000001,-0.1,-1.4,4.4,16
287,4918.0,-0.5,-1.2000000000000002,-3.6,-2.4000000000000004,3.0,5.300000000000001,2.0,2.7,7.1000000000000005,16
288,4935.0,-0.5,-1.1,-3.6,-2.5,3.1,5.300000000000001,5.1000000000000005,4.1,8.600000000000001,16
289,4951.0,-0.5,-1.1,-3.7,-2.5,3.2,5.1000000000000005,11.700000000000001,8.2,13.8,16
290,4967.0,-0.30000000000000004,-0.9,-3.9000000000000004,-2.2,3.4000000000000004,4.9,15.000000000000002,12.4,18.3,16
291,4984.0,-0.30000000000000004,-0.8,-3.8000000000000003,-2.2,3.5,5.0,14.100000000000001,14.600000000000001,20.2,16
292,5001.0,-0.30000000000000004,-0.6000000000000001,-3.2,-2.2,3.7,5.5,7.400000000000001,17.6,24.8,16
293,5017.0,-0.1,-0.4,-2.3000000000000003,-2.0,3.9000000000000004,6.300000000000001,0.2,17.0,27.800000000000004,16
294,5035.0,-0.1,-0.30000000000000004,-1.8,-2.0,4.0,6.800000000000001,-2.7,17.9,28.3,16
295,5051.0,-0.4,0.0,-0.4,-2.4000000000000004,4.4,8.200000000000001,-5.300000000000001,23.5,29.300000000000004,16
296,5068.0,-0.5,0.5,0.8,-2.6,4.9,9.4,2.2,33.0,32.2,16
297,5084.0,-0.6000000000000001,0.6000000000000001,1.1,-2.7,5.0,9.8,11.6,43.1,38.1,16
298,5102.0,-0.4,0.5,1.3,-2.5,5.0,9.9,12.299999999999999,45.5,40.1,16
299,5127.0,-0.2,0.30000000000000004,2.7,-2.4000000000000004,4.800000000000001,11.200000000000001,6.500000000000001,39.50000000000001,39.0,16
300,5138.0,-0.1,0.2,3.1,-2.4000000000000004,4.800000000000001,11.700000000000001,6.699999999999999,29.600000000000005,36.6,16
301,5151.0,-0.2,0.30000000000000004,3.1,-2.5,4.9,11.600000000000001,8.8,16.5,33.800000000000004,16
302,5167.0,-0.30000000000000004,0.6000000000000001,2.1,-2.5,5.300000000000001,10.700000000000001,9.3,-10.0,30.000000000000004,16
303,5184.0,0.0,1.0,1.1,-2.1,5.7,9.700000000000001,-1.7,-24.900000000000002,32.0,16
304,5201.0,0.2,1.0,0.8,-1.8,5.7,9.4,-10.0,-24.900000000000002,34.400000000000006,16
305,5217.0,0.30000000000000004,0.9,0.7000000000000001,-1.6,5.6000000000000005,9.4,-28.500000000000004,-13.100000000000001,38.800000000000004,16
306,5234.0,-0.2,0.30000000000000004,2.2,-2.1,4.9,10.9,-37.0,25.1,43.4,16
307,5251.0,-0.6000000000000001,-0.2,3.4000000000000004,-2.6,4.4,12.100000000000001,-33.800000000000004,48.400000000000006,44.2,16
308,5267.0,-1.5,-1.3,5.5,-3.6,3.2,14.3,-12.4,80.60000000000001,40.7,16
309,5284.0,-2.4000000000000004,-2.2,6.2,-4.7,2.4000000000000004,14.9,24.900000000000002,85.80000000000001,29.900000000000006,16
310,5301.0,-3.0,-1.9000000000000001,3.7,-5.6000000000000005,2.8000000000000003,12.3,54.4,70.2,16.5,16
311,5317.0,-3.2,-1.2000000000000002,1.9000000000000001,-5.800000000000001,3.6,10.4,55.3,62.1,11.5,16
312,5334.0,-3.6,-0.1,-0.1,-6.4,4.800000000000001,8.3,24.400000000000002,47.7,13.700000000000001,16
313,5351.0,-3.0,-0.30000000000000004,-0.30000000000000004,-5.9,4.6000000000000005,8.1,-21.300000000000004,22.6,25.5,16
314,5367.0,-2.6,-0.5,-0.2,-5.5,4.3,8.200000000000001,-40.300000000000004,8.700000000000001,29.900000000000006,16
315,5384.0,-1.6,-1.2000000000000002,-0.30000000000000004,-4.4,3.6,8.3,-58.800000000000004,-13.900000000000002,36.7,16
316,5401.0,-0.6000000000000001,-1.4000000000000001,-1.2000000000000002,-3.3000000000000003,3.1,7.5,-56.0,-25.8,38.2,16
317,5418.0,-0.2,-1.5,-1.7000000000000002,-2.5,2.9000000000000004,6.4,-51.1,-27.700000000000003,38.2,16
318,5435.0,0.30000000000000004,-1.5,-2.8000000000000003,-2.2,2.9000000000000004,5.9,-40.300000000000004,-22.700000000000003,36.9,16
319,5455.0,0.6000000000000001,-1.4000000000000001,-3.3000000000000003,-1.8,2.9000000000000004,5.5,-34.60000000000001,-10.5,35.1,16
320,5468.0,0.7000000000000001,-1.3,-3.1,-1.6,2.9000000000000004,5.7,-33.400000000000006,-1.9,31.799999999999997,16
321,5484.0,0.8,-1.2000000000000002,-2.9000000000000004,-1.5,3.0,5.9,-33.300000000000004,-0.1,29.800000000000004,16
322,5501.0,0.5,-1.0,-2.5,-1.7000000000000002,3.1,6.4,-33.50000000000001,-0.1,23.700000000000003,16
323,5517.0,0.0,-0.6000000000000001,-1.8,-2.2,3.4000000000000004,7.0,-30.4,0.30000000000000004,18.900000000000002,16
324,5534.0,-0.4,-0.4,-1.4000000000000001,-2.6,3.5,7.5,-26.400000000000006,0.7,17.9,16
325,5553.0,-0.9,-0.1,-0.9,-3.1,3.9000000000000004,8.0,-10.8,-0.6000000000000001,20.5,16
326,5567.0,-1.0,0.0,-0.8,-3.2,4.0,8.1,11.900000000000002,-3.4,26.9,16
327,5584.0,-1.0,0.0,-1.2000000000000002,-3.1,4.0,7.7,22.5,-6.1000000000000005,29.1,16
328,5600.0,-0.7000000000000001,0.2,-1.8,-2.7,4.3,7.1000000000000005,32.5,-10.0,31.3,16
329,5617.0,-0.5,0.5,-1.8,-2.5,4.800000000000001,7.0,31.3,-11.2,31.0,16
330,5634.0,-0.5,0.7000000000000001,-1.5,-2.6,5.2,7.9,26.6,-3.2,32.1,16
331,5651.0,-0.8,0.8,0.0,-2.7,5.2,8.700000000000001,27.0,2.6,34.1,16
332,5668.0,-1.0,0.5,1.3,-2.9000000000000004,5.1000000000000005,10.0,36.1,11.900000000000002,39.400000000000006,16
333,5684.0,-0.9,0.0,1.9000000000000001,-2.8000000000000003,4.9,10.4,42.7,13.200000000000003,41.800000000000004,16
334,5701.0,-0.9,-0.30000000000000004,1.9000000000000001,-2.7,4.5,10.4,53.2,7.9,42.0,16
335,5717.0,-0.7000000000000001,-0.8,1.8,-2.5,4.2,10.3,53.7,-10.8,39.9,16
336,5734.0,-0.1,-0.8,0.9,-1.7000000000000002,4.3,9.3,48.300000000000004,-38.300000000000004,35.3,16
337,5751.0,0.30000000000000004,-0.7000000000000001,0.6000000000000001,-1.2000000000000002,4.5,9.0,40.2,-49.50000000000001,32.300000000000004,16
338,5769.0,0.9,-0.2,0.7000000000000001,-0.4,5.1000000000000005,9.1,21.8,-65.2,25.1,16
339,5784.0,0.8,0.5,0.1,-0.30000000000000004,5.800000000000001,8.5,6.2,-63.10000000000001,20.900000000000002,16
340,5801.0,0.6000000000000001,0.4,-0.30000000000000004,-0.30000000000000004,5.800000000000001,8.1,-5.2,-50.2,22.1,16
341,5817.0,0.1,0.5,0.7000000000000001,-0.8,5.800000000000001,9.1,-40.1,-1.1,23.3,16
342,5834.0,-1.2000000000000002,-0.1,4.4,-2.2,5.0,13.0,-63.900000000000006,51.50000000000001,27.700000000000003,16
343,5852.0,-2.0,-1.2000000000000002,8.0,-3.1,3.7,16.7,-61.8,68.60000000000001,29.900000000000006,16
344,5869.0,-2.6,-1.5,8.200000000000001,-3.8000000000000003,3.3000000000000003,17.0,-35.1,75.1,27.099999999999998,16
345,5885.0,-3.5,-1.5,6.300000000000001,-4.9,3.3000000000000003,15.200000000000001,-6.1000000000000005,62.1,21.200000000000003,16
346,5901.0,-4.4,-1.2000000000000002,3.9000000000000004,-5.9,3.6,12.700000000000001,7.8,45.8,23.2,16
347,5917.0,-4.4,-1.2000000000000002,2.7,-6.1000000000000005,3.7,11.5,11.1,36.5,26.000000000000004,16
348,5934.0,-4.2,-1.2000000000000002,0.30000000000000004,-5.9,3.7,9.1,13.700000000000001,22.9,33.7,16
349,5951.0,-3.6,-1.5,-1.4000000000000001,-5.300000000000001,3.5,7.300000000000001,15.000000000000002,14.100000000000001,45.7,16
350,5969.0,-2.6,-1.8,-3.2,-4.2,3.2,5.5,15.299999999999999,7.6,56.2,16
351,5985.0,-2.1,-1.8,-4.0,-3.8000000000000003,3.2,4.7,12.200000000000001,6.8,59.300000000000004,16
352,6001.0,-1.5,-1.8,-4.9,-3.0,3.3000000000000003,3.7,0.9000000000000001,12.7,66.60000000000001,16
353,6017.0,-1.1,-1.7000000000000002,-4.9,-2.6,3.4000000000000004,3.7,-4.300000000000001,19.6,70.3,16
354,6034.0,-0.4,-1.6,-4.7,-1.9000000000000001,3.5,3.8000000000000003,-13.100000000000001,36.300000000000004,74.60000000000001,16
355,6060.0,0.0,-1.1,-3.8000000000000003,-1.5,4.0,4.7,-28.1,52.400000000000006,78.2,16
356,6070.0,0.0,-1.1,-3.1,-1.5,3.9000000000000004,5.4,-32.9,56.7,79.39999999999999,16
357,6085.0,0.0,-1.1,-2.3000000000000003,-1.5,3.9000000000000004,6.2,-35.699999999999996,60.1,80.7,16
358,6100.0,0.1,-0.9,-0.9,-1.5,3.9000000000000004,7.6000000000000005,-33.800000000000004,64.4,80.9,16
359,6117.0,0.2,-0.4,-0.30000000000000004,-1.4000000000000001,4.5,8.200000000000001,-27.6,59.9,78.60000000000001,16
360,6135.0,0.1,0.0,-0.4,-1.5,4.800000000000001,8.200000000000001,-26.000000000000004,56.10000000000001,78.0,16
361,6151.0,-0.1,0.5,-0.2,-1.8,5.300000000000001,8.4,-28.600000000000005,46.7,78.7,16
362,6167.0,-0.30000000000000004,1.1,0.1,-1.9000000000000001,5.9,8.700000000000001,-27.5,35.0,84.69999999999999,16
363,6184.0,-0.1,1.1,0.0,-1.7000000000000002,5.9,8.6,-25.200000000000003,29.400000000000002,88.4,16
364,6200.0,0.5,0.8,-0.30000000000000004,-1.1,5.5,8.3,-22.6,17.9,92.60000000000001,16
365,6217.0,1.0,0.7000000000000001,-0.5,-0.4,5.5,8.1,-21.400000000000002,4.1,90.1,16
366,6234.0,1.2000000000000002,0.8,-0.6000000000000001,0.2,5.6000000000000005,8.200000000000001,-19.799999999999997,1.2000000000000002,87.3,16
367,6251.0,1.6,0.8,-0.5,0.4,5.6000000000000005,8.200000000000001,-11.6,4.7,81.0,16
368,6267.0,2.0,0.7000000000000001,-0.2,0.9,5.5,8.5,-0.2,16.1,71.6,16
369,6284.0,1.9000000000000001,0.8,0.0,0.8,5.6000000000000005,8.6,8.3,27.6,59.00000000000001,16
370,6301.0,1.7000000000000002,0.8,0.1,0.7000000000000001,5.6000000000000005,8.8,10.200000000000001,33.1,52.900000000000006,16
371,6317.0,1.4000000000000001,0.8,0.30000000000000004,0.30000000000000004,5.7,9.0,8.5,43.00000000000001,41.199999999999996,16
372,6334.0,1.0,0.4,1.5,-0.2,5.300000000000001,10.100000000000001,0.4,50.900000000000006,29.400000000000002,16
373,6352.0,0.8,0.30000000000000004,2.3000000000000003,-0.4,5.2,10.9,-1.7,50.900000000000006,23.0,16
374,6368.0,0.5,0.4,2.8000000000000003,-0.8,5.4,11.4,1.8000000000000003,46.199999999999996,10.600000000000001,16
375,6384.0,0.4,0.30000000000000004,2.1,-1.0,5.2,10.700000000000001,4.0,41.199999999999996,4.4,16
376,6401.0,0.6000000000000001,0.4,1.4000000000000001,-0.9,5.5,9.700000000000001,1.5,43.70000000000001,2.4000000000000004,16
377,6417.0,0.2,0.6000000000000001,1.5,-1.4000000000000001,5.5,10.100000000000001,-10.9,68.4,-4.2,16
378,6435.0,-1.4000000000000001,0.1,3.9000000000000004,-3.3000000000000003,5.0,12.5,-19.300000000000004,96.1,-11.6,16
379,6451.0,-2.0,-0.4,5.4,-4.6000000000000005,3.7,15.100000000000001,-3.9,96.60000000000001,-9.899999999999999,16
380,6467.0,-2.6,-1.6,6.800000000000001,-5.1000000000000005,3.2,15.4,13.399999999999999,82.10000000000001,-9.8,16
381,6484.0,-2.8000000000000003,-1.8,4.0,-5.4,3.1,12.5,50.1,40.300000000000004,-8.600000000000001,16
382,6501.0,-2.2,-1.3,-0.4,-4.9,3.7,8.0,51.300000000000004,15.299999999999999,-5.6,16
383,6518.0,-2.0,-1.0,-1.7000000000000002,-4.800000000000001,4.2,6.6000000000000005,36.5,11.5,-2.7,16
384,6535.0,-1.8,-0.6000000000000001,-2.1,-4.6000000000000005,4.5,6.2,-1.8000000000000003,8.700000000000001,9.100000000000001,16
385,6551.0,-1.3,-1.0,-1.7000000000000002,-4.1000000000000005,4.1000000000000005,6.7,-27.0,5.2,20.8,16
386,6567.0,-1.1,-1.3,-1.6,-3.9000000000000004,3.7,6.800000000000001,-34.0,1.2000000000000002,24.3,16
387,6584.0,-0.8,-1.6,-1.7000000000000002,-3.5,3.3000000000000003,6.7,-37.800000000000004,-7.1000000000000005,27.400000000000002,16
388,6601.0,-0.4,-1.7000000000000002,-2.4000000000000004,-3.0,3.2,6.1000000000000005,-31.3,-10.8,29.900000000000006,16
389,6617.0,-0.2,-1.6,-2.9000000000000004,-2.7,3.2,5.6000000000000005,-27.6,-11.900000000000002,31.3,16
390,6634.0,0.2,-1.5,-3.9000000000000004,-2.3000000000000003,3.3000000000000003,4.6000000000000005,-24.5,-13.399999999999999,33.800000000000004,16
391,6653.0,0.6000000000000001,-1.3,-4.7,-1.7000000000000002,3.4000000000000004,3.8000000000000003,-27.9,-14.400000000000002,37.300000000000004,16
392,6667.0,1.2000000000000002,-1.2000000000000002,-4.9,-1.1,3.4000000000000004,3.6,-39.699999999999996,-12.5,39.300000000000004,16
393,6684.0,1.3,-1.2000000000000002,-4.7,-0.9,3.4000000000000004,3.8000000000000003,-47.1,-9.8,38.1,16
394,6701.0,1.4000000000000001,-1.0,-3.7,-0.7000000000000001,3.4000000000000004,4.9,-60.7,-0.2,32.5,16
395,6717.0,1.1,-0.8,-1.5,-1.0,3.4000000000000004,7.2,-62.7,10.600000000000001,23.3,16
396,6735.0,0.9,-0.5,-0.5,-1.2000000000000002,3.7,8.200000000000001,-55.2,16.6,18.200000000000003,16
397,6751.0,0.7000000000000001,0.1,0.8,-1.5,4.2,9.5,-27.700000000000003,30.599999999999998,9.8,16
398,6767.0,0.6000000000000001,0.5,1.5,-1.6,4.5,10.200000000000001,-1.9,39.400000000000006,1.3,16
399,6784.0,0.5,0.8,1.6,-1.8,4.800000000000001,10.3,7.8,39.8,-3.3000000000000007,16
400,6801.0,0.5,1.2000000000000002,1.8,-2.0,5.300000000000001,10.5,19.5,35.4,-11.000000000000002,16
401,6817.0,0.30000000000000004,1.6,1.9000000000000001,-2.2,5.800000000000001,10.600000000000001,25.6,23.800000000000004,-16.200000000000003,16
402,6835.0,0.1,1.9000000000000001,1.8,-2.5,6.1000000000000005,10.4,29.600000000000005,14.100000000000001,-18.1,16
403,6852.0,0.1,2.0,1.5,-2.6,6.300000000000001,10.100000000000001,29.300000000000004,9.0,-18.5,16
404,6867.0,0.0,2.1,1.3,-2.7,6.5,9.9,20.3,-0.6000000000000001,-16.6,16
405,6884.0,0.0,2.1,1.8,-2.7,6.5,10.3,7.6,-8.5,-13.5,16
406,6900.0,0.0,2.0,2.0,-2.7,6.4,10.600000000000001,2.3,-12.9,-11.8,16
407,6917.0,0.4,1.9000000000000001,2.1,-2.3000000000000003,6.4,10.8,-6.699999999999999,-24.400000000000002,-8.3,16
408,6940.0,0.7000000000000001,1.9000000000000001,1.9000000000000001,-1.9000000000000001,6.300000000000001,10.600000000000001,-20.900000000000002,-32.8,-7.0,16
409,6951.0,0.7000000000000001,2.0,2.0,-1.8,6.300000000000001,10.700000000000001,-30.9,-33.300000000000004,-6.0,16
410,6967.0,0.30000000000000004,1.8,3.5,-2.1,6.0,12.4,-48.400000000000006,-19.400000000000002,-3.0,16
411,6984.0,0.2,0.6000000000000001,6.7,-2.2,4.7,15.700000000000001,-42.60000000000001,8.8,-0.6000000000000001,16
412,7001.0,0.2,-0.2,8.3,-2.3000000000000003,3.8000000000000003,17.3,-25.900000000000002,17.300000000000004,-3.0,16
413,7017.0,-0.4,-1.0,8.3,-2.9000000000000004,3.1,17.400000000000002,23.3,10.8,-17.799999999999997,16
414,7036.0,-0.9,-0.4,4.800000000000001,-3.5,3.8000000000000003,13.8,54.50000000000001,-10.0,-27.2,16
415,7051.0,-1.2000000000000002,0.0,1.8,-3.8000000000000003,4.4,10.8,50.3,-20.2,-22.4,16
416,7067.0,-1.3,0.0,0.9,-3.8000000000000003,4.4,9.9,40.1,-23.900000000000006,-16.8,16
417,7084.0,-0.9,-0.4,0.2,-3.3000000000000003,4.1000000000000005,9.200000000000001,17.7,-28.3,-6.0,16
418,7101.0,-0.7000000000000001,-0.9,-0.2,-3.0,3.5,8.8,3.9,-33.0,0.5,16
419,7117.0,-0.5,-1.2000000000000002,-0.6000000000000001,-2.8000000000000003,3.3000000000000003,8.4,0.5,-36.1,2.7,16
420,7137.0,-0.2,-1.6,-1.6,-2.4000000000000004,2.8000000000000003,7.4,-3.2,-41.4,5.300000000000001,16
421,7151.0,-0.1,-1.9000000000000001,-2.6,-2.2,2.5,6.5,-3.9,-43.00000000000001,5.7,16
422,7167.0,0.0,-2.0,-3.1,-2.0,2.4000000000000004,6.0,-3.2,-41.800000000000004,5.500000000000001,16
423,7184.0,-0.1,-2.2,-3.9000000000000004,-1.9000000000000001,2.2,5.2,-0.2,-34.1,3.6000000000000005,16
424,7201.0,0.0,-2.4000000000000004,-4.1000000000000005,-1.8,1.9000000000000001,4.9,5.9,-22.5,1.1,16
425,7217.0,0.1,-2.5,-4.1000000000000005,-1.7000000000000002,1.9000000000000001,4.9,10.8,-17.6,-1.1,16
426,7239.0,0.4,-2.6,-4.5,-1.3,1.8,4.4,30.699999999999996,-5.9,-12.299999999999999,16
427,7251.0,0.4,-2.6,-4.7,-1.3,1.9000000000000001,4.1000000000000005,36.2,-2.3,-16.6,16
428,7267.0,0.5,-2.5,-4.9,-1.2000000000000002,2.2,3.8000000000000003,40.7,1.1,-20.2,16
429,7284.0,0.6000000000000001,-2.3000000000000003,-4.800000000000001,-1.1,2.3000000000000003,3.9000000000000004,47.3,9.100000000000001,-25.900000000000002,16
430,7300.0,0.9,-2.3000000000000003,-4.2,-1.0,2.4000000000000004,4.3,54.0,14.5,-30.599999999999998,16
431,7317.0,1.1,-1.8,-3.8000000000000003,-0.9,3.1,4.6000000000000005,59.5,18.8,-36.400000000000006,16
432,7336.0,0.9,-1.0,-3.2,-1.2000000000000002,4.1000000000000005,5.0,56.2,25.5,-40.7,16
433,7352.0,0.8,-0.4,-2.7,-1.4000000000000001,4.6000000000000005,5.5,50.60000000000001,30.3,-41.199999999999996,16
434,7367.0,0.4,0.7000000000000001,-1.4000000000000001,-2.0,5.800000000000001,6.7,35.8,39.8,-37.9,16
435,7384.0,0.1,1.2000000000000002,-0.5,-2.3000000000000003,6.300000000000001,7.5,28.200000000000003,44.7,-33.800000000000004,16
436,7401.0,-0.30000000000000004,1.8,1.1,-2.9000000000000004,7.0,9.1,14.600000000000001,47.80000000000001,-22.4,16
437,7417.0,-0.5,1.9000000000000001,2.1,-3.2,7.1000000000000005,10.100000000000001,1.2000000000000002,37.6,-10.8,16
438,7436.0,-0.6000000000000001,2.1,2.1,-3.4000000000000004,7.300000000000001,10.0,-20.400000000000002,17.200000000000003,-0.7,16
439,7450.0,-0.6000000000000001,2.1,2.1,-3.4000000000000004,7.2,10.100000000000001,-35.1,7.6,4.1,16
440,7467.0,-0.4,1.8,2.7,-3.2,6.9,10.8,-64.60000000000001,-4.0,13.100000000000001,16
441,7484.0,-0.1,1.2000000000000002,4.0,-2.9000000000000004,6.1000000000000005,12.3,-79.9,-9.100000000000001,18.3,16
442,7500.0,0.2,1.0,4.5,-2.6,5.7,12.9,-79.00000000000001,-10.5,18.8,16
443,7517.0,0.30000000000000004,0.4,4.6000000000000005,-2.4000000000000004,5.0,13.100000000000001,-64.10000000000001,-7.0,13.100000000000001,16
444,7534.0,-0.1,0.4,4.2,-2.7,4.800000000000001,12.8,-43.00000000000001,9.899999999999999,4.6,16
445,7551.0,-0.30000000000000004,0.4,4.1000000000000005,-3.0,4.800000000000001,12.8,-32.9,19.400000000000002,2.4000000000000004,16
446,7567.0,-0.5,0.4,3.9000000000000004,-3.3000000000000003,4.7,12.600000000000001,-13.5,30.4,3.2,16
447,7584.0,-0.7000000000000001,0.2,3.4000000000000004,-3.6,4.5,12.200000000000001,-0.7,28.0,4.7,16
448,7600.0,-1.0,0.30000000000000004,3.1,-4.0,4.6000000000000005,11.8,3.3000000000000007,22.6,5.9,16
449,7618.0,-1.4000000000000001,0.2,2.3000000000000003,-4.4,4.6000000000000005,11.0,9.2,15.100000000000001,12.5,16
450,7634.0,-1.7000000000000002,-0.1,1.2000000000000002,-4.7,4.3,9.8,12.100000000000001,14.0,20.7,16
451,7651.0,-1.7000000000000002,-0.5,0.4,-4.7,4.0,9.1,6.4,16.6,28.600000000000005,16
452,7667.0,-1.6,-0.6000000000000001,0.0,-4.6000000000000005,3.9000000000000004,8.700000000000001,1.5,17.1,31.400000000000002,16
453,7684.0,-1.7000000000000002,-0.7000000000000001,-0.7000000000000001,-4.7,3.8000000000000003,8.0,-15.399999999999999,17.0,35.0,16
454,7700.0,-1.8,-0.8,-0.5,-4.800000000000001,3.6,8.200000000000001,-35.8,11.8,38.0,16
455,7717.0,-1.6,-0.9,-0.5,-4.7,3.5,8.200000000000001,-41.7,5.9,40.7,16
456,7734.0,-0.8,-1.4000000000000001,-1.1,-3.8000000000000003,2.9000000000000004,7.7,-44.2,-7.699999999999999,45.3,16
457,7750.0,0.1,-2.0,-2.1,-2.7,2.2,6.7,-37.9,-23.099999999999998,44.00000000000001,16
458,7768.0,0.6000000000000001,-2.1,-2.8000000000000003,-2.2,2.1,6.1000000000000005,-32.300000000000004,-28.800000000000004,41.0,16
459,7784.0,1.1,-2.0,-4.0,-1.5,2.1,4.9,-21.0,-30.000000000000004,32.7,16
460,7800.0,1.3,-2.0,-4.9,-1.1,2.1,4.0,-11.1,-23.700000000000003,25.5,16
461,7820.0,1.5,-1.8,-5.2,-0.9,2.3000000000000003,3.7,-4.300000000000001,-10.4,18.3,16
462,7834.0,1.6,-1.7000000000000002,-5.300000000000001,-0.8,2.3000000000000003,3.6,-1.9,-3.3000000000000007,15.000000000000002,16
463,7851.0,1.6,-1.5,-5.1000000000000005,-0.8,2.5,3.7,-1.3,10.299999999999999,7.400000000000001,16
464,7867.0,1.1,-1.1,-3.8000000000000003,-1.3,2.9000000000000004,4.9,-4.800000000000001,19.799999999999997,0.6000000000000001,16
465,7884.0,0.9,-0.9,-3.0,-1.5,3.1,5.7,-4.7,21.400000000000002,-1.3,16
466,7900.0,0.6000000000000001,-0.5,-1.7000000000000002,-1.9000000000000001,3.5,7.0,0.8,22.9,-4.2,16
467,7917.0,0.4,-0.1,-0.6000000000000001,-2.1,3.9000000000000004,8.1,8.100000000000001,24.200000000000003,-6.699999999999999,16
468,7934.0,0.4,0.2,0.0,-2.2,4.2,8.6,12.600000000000001,24.8,-8.3,16
469,7950.0,0.30000000000000004,0.6000000000000001,1.2000000000000002,-2.4000000000000004,4.7,9.8,22.8,24.5,-11.1,16
470,7967.0,0.2,1.1,1.6,-2.6,5.2,10.200000000000001,32.6,20.1,-14.700000000000001,16
471,7984.0,0.0,1.2000000000000002,1.6,-2.8000000000000003,5.5,10.100000000000001,34.300000000000004,17.799999999999997,-16.900000000000002,16
472,8000.0,0.0,1.5,1.9000000000000001,-2.9000000000000004,5.800000000000001,10.4,27.2,9.100000000000001,-19.700000000000003,16
473,8017.0,-0.2,1.9000000000000001,2.3000000000000003,-3.1,6.300000000000001,10.8,13.6,-3.5,-22.9,16
474,8034.0,-0.4,2.0,2.6,-3.5,6.300000000000001,11.4,7.0,-7.200000000000001,-23.0,16
475,8050.0,-0.8,1.9000000000000001,3.1,-3.7,6.2,11.700000000000001,-1.7,-11.2,-20.1,16
476,8067.0,-0.7000000000000001,1.4000000000000001,3.8000000000000003,-3.6,5.800000000000001,12.4,-3.6000000000000005,-16.1,-14.300000000000002,16
477,8084.0,0.0,1.2000000000000002,3.1,-2.8000000000000003,5.5,11.8,-6.0,-31.6,-13.8,16
478,8100.0,0.30000000000000004,1.1,2.8000000000000003,-2.5,5.4,11.5,-12.600000000000001,-37.6,-14.900000000000002,16
479,8117.0,0.30000000000000004,1.0,2.9000000000000004,-2.4000000000000004,5.300000000000001,11.700000000000001,-27.6,-42.3,-18.4,16
480,8134.0,0.1,0.7000000000000001,3.7,-2.5,4.800000000000001,12.600000000000001,-31.6,-29.800000000000004,-19.9,16
481,8151.0,0.0,0.30000000000000004,4.4,-2.6,4.3,13.3,-26.700000000000003,-19.6,-20.5,16
482,8168.0,-0.1,-0.5,5.4,-2.7,3.5,14.3,-0.2,-5.1000000000000005,-24.3,16
483,8184.0,-0.1,-0.9,3.8000000000000003,-2.8000000000000003,3.1,12.700000000000001,32.8,-1.4,-31.9,16
484,8200.0,-0.1,-0.9,2.4000000000000004,-3.1,3.4000000000000004,10.4,40.7,1.5,-35.8,16
485,8217.0,-0.8,-0.6000000000000001,0.8,-3.6,3.6,9.700000000000001,36.2,11.1,-39.2,16
486,8234.0,-1.4000000000000001,-0.30000000000000004,0.7000000000000001,-4.3,3.9000000000000004,9.600000000000001,22.2,22.1,-31.799999999999997,16
487,8250.0,-1.5,-0.4,0.7000000000000001,-4.4,3.8000000000000003,9.5,13.8,26.000000000000004,-19.200000000000003,16
488,8267.0,-1.2000000000000002,-0.7000000000000001,0.4,-4.3,3.6,9.200000000000001,10.5,24.8,-12.5,16
489,8284.0,-0.8,-1.2000000000000002,-0.2,-3.9000000000000004,3.1,8.5,3.4,16.3,-1.7,16
490,8300.0,-0.5,-1.5,-0.9,-3.7,2.8000000000000003,7.9,-3.0,3.5,4.0,16
491,8317.0,-0.4,-1.6,-1.2000000000000002,-3.6,2.7,7.6000000000000005,-4.1,-2.3,5.9,16
492,8334.0,-0.30000000000000004,-1.8,-1.6,-3.4000000000000004,2.4000000000000004,7.2,0.9000000000000001,-10.0,9.5,16
493,8350.0,-0.2,-2.0,-2.3000000000000003,-3.3000000000000003,2.3000000000000003,6.4,16.1,-13.5,10.600000000000001,16
494,8367.0,-0.1,-2.1,-2.8000000000000003,-3.2,2.2,6.0,25.6,-13.200000000000003,10.600000000000001,16
495,8384.0,-0.1,-2.1,-3.8000000000000003,-3.1,2.3000000000000003,4.800000000000001,43.6,-11.1,11.1,16
496,8400.0,-0.1,-2.1,-4.9,-3.0,2.4000000000000004,3.7,53.9,-7.1000000000000005,12.5,16
497,8417.0,0.0,-2.1,-5.300000000000001,-2.9000000000000004,2.5,3.2,54.800000000000004,-4.7,13.700000000000001,16
498,8436.0,0.2,-2.0,-5.7,-2.7,2.8000000000000003,2.7,49.300000000000004,-2.6,17.6,16
499,8451.0,0.4,-1.9000000000000001,-5.800000000000001,-2.4000000000000004,3.0,2.4000000000000004,35.4,-2.5,19.9,16
500,8467.0,0.8,-1.7000000000000002,-5.5,-2.0,3.3000000000000003,2.6,18.8,0.9000000000000001,21.1,16
501,8484.0,0.9,-1.6,-5.2,-1.9000000000000001,3.4000000000000004,2.9000000000000004,10.299999999999999,4.9,20.1,16
502,8501.0,0.8,-1.2000000000000002,-4.0,-2.0,3.8000000000000003,4.1000000000000005,-4.1,14.800000000000002,16.900000000000002,16
503,8517.0,0.6000000000000001,-0.7000000000000001,-2.6,-2.2,4.3,5.4,-9.899999999999999,27.3,14.900000000000002,16
504,8534.0,0.6000000000000001,-0.4,-2.1,-2.3000000000000003,4.6000000000000005,5.9,-10.299999999999999,33.7,14.700000000000001,16
505,8550.0,0.6000000000000001,0.1,-1.4000000000000001,-2.4000000000000004,5.0,6.6000000000000005,-12.7,45.400000000000006,14.600000000000001,16
506,8567.0,0.4,0.4,-0.4,-2.7,5.300000000000001,7.5,-19.5,57.49999999999999,13.900000000000002,16
507,8584.0,0.2,0.6000000000000001,0.2,-2.9000000000000004,5.4,8.1,-24.8,62.199999999999996,13.5,16
508,8600.0,-0.30000000000000004,0.9,1.5,-3.6,5.7,9.4,-39.400000000000006,71.30000000000001,10.8,16
509,8617.0,-1.1,1.1,3.7,-4.6000000000000005,5.7,11.600000000000001,-58.1,79.39999999999999,8.600000000000001,16
510,8634.0,-1.4000000000000001,1.0,5.1000000000000005,-5.300000000000001,5.5,14.5,-64.4,78.2,8.899999999999999,16
511,8650.0,-1.7000000000000002,1.0,7.2,-5.5,5.4,15.3,-59.699999999999996,56.0,10.4,16
512,8667.0,-1.4000000000000001,1.1,5.9,-5.2,5.5,14.100000000000001,-47.5,21.200000000000003,11.4,16
513,8684.0,-0.7000000000000001,1.5,4.4,-4.6000000000000005,5.7,12.700000000000001,-54.9,12.7,14.5,16
514,8701.0,-0.6000000000000001,1.5,4.7,-4.5,5.6000000000000005,13.0,-63.599999999999994,15.100000000000001,16.1,16
515,8717.0,-1.0,1.1,6.6000000000000005,-5.0,5.1000000000000005,15.0,-69.3,20.5,18.5,16
516,8734.0,-1.4000000000000001,0.4,7.800000000000001,-5.300000000000001,4.2,16.3,-48.6,17.200000000000003,19.300000000000004,16
517,8751.0,-1.5,0.1,7.800000000000001,-5.5,3.9000000000000004,16.400000000000002,-30.9,12.200000000000001,18.8,16
518,8767.0,-1.5,-0.30000000000000004,5.9,-5.5,3.6,14.600000000000001,11.5,0.4,17.5,16
519,8784.0,-1.2000000000000002,-0.4,2.9000000000000004,-5.1000000000000005,3.5,11.5,36.5,-1.8000000000000003,16.700000000000003,16
520,8800.0,-1.2000000000000002,-0.6000000000000001,1.8,-5.1000000000000005,3.4000000000000004,10.4,39.8,-0.9000000000000001,16.5,16
521,8817.0,-1.2000000000000002,-0.7000000000000001,0.0,-5.2,3.4000000000000004,8.5,36.8,0.30000000000000004,15.8,16
522,8834.0,-1.2000000000000002,-0.7000000000000001,-1.1,-5.1000000000000005,3.5,7.4,24.599999999999998,2.4000000000000004,18.900000000000002,16
523,8850.0,-0.6000000000000001,-1.1,-1.6,-4.6000000000000005,3.2,6.9,11.4,0.30000000000000004,26.000000000000004,16
524,8867.0,-0.30000000000000004,-1.5,-1.8,-4.1000000000000005,2.9000000000000004,6.6000000000000005,6.9,-4.0,28.3,16
525,8884.0,0.5,-1.9000000000000001,-2.8000000000000003,-3.3000000000000003,2.4000000000000004,5.7,1.4,-17.400000000000002,28.700000000000003,16
526,8901.0,0.9,-2.0,-3.4000000000000004,-2.5,2.2,4.4,-0.7,-23.800000000000004,27.6,16
527,8917.0,1.4000000000000001,-2.2,-4.6000000000000005,-2.2,2.1,3.8000000000000003,-5.0,-31.3,24.900000000000002,16
528,8934.0,1.9000000000000001,-2.3000000000000003,-5.6000000000000005,-1.6,2.0,2.9000000000000004,-9.8,-31.7,21.6,16
529,8950.0,2.3000000000000003,-2.4000000000000004,-6.1000000000000005,-1.1,2.0,2.3000000000000003,-14.400000000000002,-24.1,15.8,16
530,8967.0,2.3000000000000003,-2.3000000000000003,-6.2,-1.0,2.0,2.3000000000000003,-16.3,-18.1,11.700000000000001,16
531,8984.0,2.1,-2.1,-5.7,-1.1,2.2,2.7,-18.5,-2.9,3.6000000000000005,16
532,9000.0,1.6,-1.7000000000000002,-4.7,-1.6,2.5,3.8000000000000003,-16.5,9.4,-3.2,16
533,9017.0,1.4000000000000001,-1.5,-4.1000000000000005,-2.0,2.9000000000000004,4.800000000000001,-13.3,12.9,-5.9,16
534,9034.0,1.1,-1.0,-3.1,-2.3000000000000003,3.1,5.2,-4.4,18.200000000000003,-11.5,16
535,9051.0,0.6000000000000001,-0.4,-2.3000000000000003,-2.8000000000000003,3.6,6.1000000000000005,3.0,21.7,-17.9,16
536,9067.0,0.2,0.0,-1.7000000000000002,-3.7,4.5,7.300000000000001,9.3,27.6,-22.3,16
537,9084.0,-0.4,0.7000000000000001,-0.1,-4.0,4.800000000000001,8.1,13.900000000000002,31.7,-21.8,16
538,9100.0,-0.8,1.3,1.0,-4.5,5.5,9.1,29.800000000000004,34.800000000000004,-20.400000000000002,16
539,9117.0,-0.8,1.8,1.0,-4.7,6.0,9.1,40.0,32.1,-18.0,16
540,9134.0,-0.8,1.9000000000000001,1.0,-4.7,6.2,9.0,38.7,28.900000000000002,-17.6,16
541,9150.0,-1.0,2.2,1.3,-4.9,6.5,9.200000000000001,25.7,20.0,-17.6,16
542,9167.0,-1.1,2.3000000000000003,2.0,-5.1000000000000005,6.7,10.0,9.0,13.000000000000002,-15.399999999999999,16
543,9184.0,-1.1,2.3000000000000003,2.7,-5.2,6.7,10.600000000000001,3.1,12.0,-13.6,16
544,9200.0,-1.0,2.2,4.0,-5.1000000000000005,6.6000000000000005,11.9,1.2000000000000002,9.4,-12.100000000000001,16
545,9217.0,-0.6000000000000001,2.0,4.2,-4.7,6.4,12.200000000000001,5.0,-1.1,-12.5,16
546,9235.0,0.0,1.9000000000000001,3.8000000000000003,-4.2,6.300000000000001,11.8,-0.7,-10.9,-16.200000000000003,16
547,9250.0,0.0,1.7000000000000002,3.9000000000000004,-4.2,6.1000000000000005,11.9,-7.6,-11.1,-20.400000000000002,16
548,9267.0,-0.5,1.7000000000000002,5.800000000000001,-4.7,6.1000000000000005,13.9,-14.300000000000002,1.4,-29.600000000000005,16
549,9284.0,-1.0,1.0,7.7,-5.300000000000001,5.300000000000001,15.8,7.200000000000001,13.700000000000001,-34.0,16
550,9302.0,-0.9,0.6000000000000001,8.0,-5.2,4.9,16.2,27.2,11.900000000000002,-35.599999999999994,16
551,9318.0,-0.30000000000000004,-0.1,5.6000000000000005,-4.800000000000001,4.3,13.700000000000001,67.60000000000001,-4.5,-40.300000000000004,16
552,9334.0,0.4,-0.30000000000000004,2.6,-4.1000000000000005,4.3,10.700000000000001,79.1,-14.400000000000002,-44.10000000000001,16
553,9354.0,0.8,-0.6000000000000001,0.9,-3.7,4.1000000000000005,8.8,68.9,-14.800000000000002,-47.1,16
554,9367.0,0.9,-0.7000000000000001,0.5,-3.6,4.1000000000000005,8.5,60.8,-12.299999999999999,-48.6,16
555,9384.0,0.9,-0.8,0.6000000000000001,-3.6,4.0,8.4,48.9,-3.4,-50.400000000000006,16
556,9400.0,0.9,-0.8,0.6000000000000001,-3.7,4.0,8.4,46.9,1.6,-50.3,16
557,9417.0,0.7000000000000001,-0.9,0.2,-4.0,4.0,8.0,46.0,9.8,-47.0,16
558,9434.0,0.6000000000000001,-1.0,-0.4,-4.2,3.9000000000000004,7.300000000000001,42.0,13.200000000000003,-40.300000000000004,16
559,9450.0,0.6000000000000001,-1.2000000000000002,-0.8,-4.3,3.7,6.7,33.800000000000004,9.0,-31.0,16
560,9467.0,0.6000000000000001,-1.4000000000000001,-1.0,-4.3,3.6,6.6000000000000005,30.5,5.2,-25.6,16
561,9484.0,0.8,-1.8,-1.3,-4.1000000000000005,3.1,6.2,29.1,-4.0,-16.700000000000003,16
562,9500.0,1.1,-2.2,-1.9000000000000001,-3.8000000000000003,2.8000000000000003,5.5,33.2,-14.700000000000001,-11.3,16
563,9517.0,1.2000000000000002,-2.2,-2.3000000000000003,-3.7,2.8000000000000003,5.1000000000000005,36.5,-19.6,-8.8,16
564,9534.0,1.4000000000000001,-2.4000000000000004,-3.3000000000000003,-3.4000000000000004,2.8000000000000003,4.1000000000000005,42.800000000000004,-25.0,-2.1,16
565,9550.0,1.6,-2.6,-3.9000000000000004,-3.1,2.6,3.4000000000000004,45.6,-23.5,4.2,16
566,9567.0,1.8,-2.7,-4.1000000000000005,-2.9000000000000004,2.5,3.1,46.0,-22.5,6.9,16
567,9584.0,2.0,-2.8000000000000003,-4.5,-2.6,2.5,2.7,42.3,-19.5,10.200000000000001,16
568,9600.0,1.9000000000000001,-2.5,-4.5,-2.6,2.9000000000000004,2.6,31.6,-15.700000000000001,12.7,16
569,9618.0,1.9000000000000001,-2.4000000000000004,-4.2,-2.5,3.1,3.2,18.200000000000003,-9.5,17.1,16
570,9634.0,2.0,-2.4000000000000004,-3.2,-2.5,3.1,3.9000000000000004,12.4,-6.500000000000001,18.5,16
571,9654.0,2.0,-2.3000000000000003,-1.8,-2.4000000000000004,3.2,5.2,5.1000000000000005,-3.4,17.1,16
572,9667.0,1.6,-1.6,-0.6000000000000001,-2.7,4.0,6.300000000000001,1.3,3.5,12.5,16
573,9684.0,1.6,-1.2000000000000002,-0.4,-2.7,4.3,6.6000000000000005,0.2,7.8,11.000000000000002,16
574,9700.0,1.2000000000000002,-0.5,0.0,-3.1,5.1000000000000005,6.9,-7.6,17.400000000000002,6.500000000000001,16
575,9717.0,0.4,0.5,0.4,-3.9000000000000004,6.0,7.4,-25.4,23.700000000000003,4.800000000000001,16
576,9734.0,0.1,0.8,0.8,-4.2,6.2,7.7,-37.2,24.5,6.1000000000000005,16
577,9751.0,-0.5,1.2000000000000002,1.8,-4.9,6.5,8.9,-63.500000000000014,22.2,7.699999999999999,16
578,9767.0,-1.0,1.5,3.2,-5.5,6.7,10.4,-84.9,14.5,7.500000000000001,16
579,9784.0,-1.4000000000000001,1.6,3.9000000000000004,-5.9,6.7,11.200000000000001,-89.9,9.600000000000001,6.699999999999999,16
580,9800.0,-2.0,1.9000000000000001,5.1000000000000005,-6.5,6.800000000000001,12.5,-81.0,-6.4,9.2,16
581,9817.0,-1.1,1.9000000000000001,3.0,-5.5,6.6000000000000005,10.600000000000001,-58.60000000000001,-23.3,16.4,16
582,9834.0,-0.5,1.6,1.7000000000000002,-4.3,6.1000000000000005,8.9,-60.8,-19.9,16.8,16
583,9850.0,0.4,1.5,1.2000000000000002,-3.9000000000000004,6.0,9.0,-68.9,-12.4,14.100000000000001,16
584,9867.0,0.2,1.5,2.7,-4.1000000000000005,5.800000000000001,10.700000000000001,-79.6,9.899999999999999,3.6000000000000005,16
585,9884.0,-1.4000000000000001,1.3,5.800000000000001,-5.7,5.5,13.9,-67.7,38.400000000000006,-6.500000000000001,16
586,9900.0,-2.2,1.3,7.1000000000000005,-6.6000000000000005,5.4,15.200000000000001,-50.5,49.4,-9.2,16
587,9917.0,-3.1,0.9,8.700000000000001,-7.800000000000001,5.0,16.8,-1.0,55.0,-7.9,16
588,9934.0,-3.3000000000000003,0.2,6.2,-8.1,4.4,14.200000000000001,45.7,26.400000000000006,-6.4,16
589,9951.0,-3.0,-0.1,4.2,-7.9,4.2,12.3,55.60000000000001,11.1,-5.500000000000001,16
590,9967.0,-2.5,-0.6000000000000001,1.0,-7.300000000000001,3.8000000000000003,9.0,50.8,-14.5,-4.7,16
591,9984.0,-2.1,-0.7000000000000001,-0.9,-6.9,3.7,7.1000000000000005,30.799999999999997,-30.799999999999997,-2.5,16
592,10000.0,-1.8,-0.8,-1.3,-6.5,3.7,6.7,20.5,-34.400000000000006,0.0,16
593,10017.0,-0.8,-1.7000000000000002,-1.7000000000000002,-5.4,2.8000000000000003,6.300000000000001,10.5,-44.6,6.4,16
594,10034.0,0.30000000000000004,-2.4000000000000004,-2.7,-4.2,2.1,5.4,15.000000000000002,-56.50000000000001,7.0,16
595,10050.0,1.0,-2.7,-4.2,-3.3000000000000003,1.9000000000000001,3.8000000000000003,24.5,-63.4,2.6,16
596,10067.0,1.2000000000000002,-2.7,-5.0,-3.0,1.9000000000000001,3.1,27.5,-62.800000000000004,0.30000000000000004,16
597,10084.0,1.4000000000000001,-2.3000000000000003,-6.1000000000000005,-2.6,2.4000000000000004,1.9000000000000001,28.700000000000003,-53.7,-1.6,16
598,10100.0,1.8,-2.0,-6.800000000000001,-2.1,2.7,1.3,19.9,-39.599999999999994,0.30000000000000004,16
599,10117.0,2.0,-1.9000000000000001,-6.7,-1.8,2.8000000000000003,1.4000000000000001,11.6,-33.300000000000004,0.7,16
600,10134.0,2.1,-1.8,-6.2,-1.6,2.9000000000000004,1.8,-9.0,-24.900000000000002,-1.4,16
601,10150.0,1.6,-1.4000000000000001,-4.3,-2.1,3.2,3.8000000000000003,-30.1,-17.200000000000003,-5.9,16
602,10167.0,1.2000000000000002,-1.2000000000000002,-3.0,-2.5,3.4000000000000004,5.0,-32.6,-12.5,-6.300000000000001,16
603,10184.0,0.5,-0.8,-1.3,-3.2,3.7,6.800000000000001,-24.3,-4.6,-6.500000000000001,16
604,10200.0,-0.2,-0.1,0.1,-3.8000000000000003,4.3,8.200000000000001,-13.100000000000001,2.1,-6.1000000000000005,16
605,10217.0,-0.5,0.2,1.0,-4.2,4.6000000000000005,9.200000000000001,-6.9,5.8,-4.7,16
606,10236.0,-0.8,0.6000000000000001,2.4000000000000004,-4.5,5.0,10.5,8.5,3.7000000000000006,-1.6,16
607,10251.0,-1.0,1.0,2.1,-4.7,5.4,10.3,17.400000000000002,-16.4,-3.9,16
608,10267.0,-1.3,1.6,1.4000000000000001,-4.9,6.1000000000000005,9.600000000000001,12.7,-30.000000000000004,-5.8,16
609,10284.0,-1.5,1.7000000000000002,1.5,-5.1000000000000005,6.2,9.700000000000001,8.3,-31.2,-5.7,16
610,10300.0,-2.0,1.9000000000000001,2.3000000000000003,-5.5,6.4,10.600000000000001,5.500000000000001,-26.9,-5.6,16
611,10317.0,-2.3000000000000003,1.8,2.8000000000000003,-5.800000000000001,6.4,11.0,13.200000000000003,-22.3,-4.7,16
612,10334.0,-2.4000000000000004,1.7000000000000002,2.7,-5.9,6.300000000000001,11.0,17.7,-22.3,-4.5,16
613,10350.0,-2.4000000000000004,1.8,1.6,-5.800000000000001,6.5,9.8,20.5,-27.800000000000004,-2.1,16
614,10367.0,-2.0,1.9000000000000001,0.4,-5.300000000000001,6.6000000000000005,8.700000000000001,7.0,-23.5,2.0,16
615,10384.0,-2.0,2.0,0.6000000000000001,-5.4,6.7,8.9,-6.0,-13.700000000000001,3.1,16
616,10400.0,-2.9000000000000004,1.9000000000000001,3.3000000000000003,-6.300000000000001,6.6000000000000005,11.700000000000001,-27.099999999999998,16.6,8.600000000000001,16
617,10417.0,-3.6,0.9,5.800000000000001,-7.1000000000000005,5.5,14.200000000000001,-22.3,37.400000000000006,17.300000000000004,16
618,10434.0,-3.7,0.2,6.7,-7.4,4.2,15.4,-3.2,29.700000000000006,22.8,16
619,10450.0,-3.8000000000000003,-0.9,6.5,-7.4,3.8000000000000003,15.0,8.0,13.900000000000002,23.3,16
620,10467.0,-3.0,-1.6,3.3000000000000003,-6.5,3.1,11.8,25.4,-23.3,27.2,16
621,10484.0,-1.6,-2.1,-0.4,-5.0,2.7,8.0,27.099999999999998,-43.2,33.6,16
622,10500.0,-1.2000000000000002,-2.5,-1.9000000000000001,-4.5,2.4000000000000004,6.6000000000000005,22.000000000000004,-45.8,36.0,16
623,10517.0,-0.30000000000000004,-2.9000000000000004,-3.4000000000000004,-3.4000000000000004,2.1,5.1000000000000005,6.600000000000001,-33.50000000000001,38.2,16
624,10534.0,0.0,-3.0,-3.5,-3.0,2.0,4.9,-3.8,-10.9,37.2,16
625,10551.0,0.1,-3.0,-3.3000000000000003,-2.9000000000000004,2.0,5.1000000000000005,-6.4,1.0,35.9,16
626,10567.0,-0.30000000000000004,-2.7,-2.7,-3.3000000000000003,2.2,5.7,-6.0,21.500000000000004,31.9,16
627,10584.0,-1.0,-2.3000000000000003,-2.3000000000000003,-4.0,2.7,6.1000000000000005,-2.9,36.1,31.2,16
628,10600.0,-1.2000000000000002,-2.1,-2.2,-4.2,2.9000000000000004,6.2,-2.9,38.400000000000006,33.800000000000004,16
629,10617.0,-1.2000000000000002,-1.7000000000000002,-2.4000000000000004,-4.3,3.2,5.9,-9.0,35.4,40.9,16
630,10634.0,-0.9,-1.6,-2.5,-4.1000000000000005,3.4000000000000004,5.800000000000001,-22.5,26.799999999999997,49.199999999999996,16
631,10652.0,-0.7000000000000001,-1.5,-2.7,-3.8000000000000003,3.4000000000000004,5.6000000000000005,-36.6,15.399999999999999,55.400000000000006,16
632,10667.0,-0.5,-1.4000000000000001,-2.7,-3.6,3.5,5.6000000000000005,-42.7,11.2,58.2,16
633,10684.0,-0.2,-1.3,-2.6,-3.2,3.4000000000000004,5.800000000000001,-50.3,8.4,61.8,16
634,10700.0,0.1,-1.3,-2.2,-2.8000000000000003,3.4000000000000004,6.2,-49.9,12.600000000000001,61.300000000000004,16
635,10717.0,0.1,-1.1,-2.1,-2.8000000000000003,3.5,6.300000000000001,-47.1,16.900000000000002,59.80000000000001,16
636,10734.0,-0.1,-0.8,-1.8,-3.0,3.8000000000000003,6.6000000000000005,-42.1,29.800000000000004,57.3,16
637,10750.0,-0.30000000000000004,-0.5,-1.3,-3.2,4.0,7.2,-37.9,41.199999999999996,57.60000000000001,16
638,10767.0,-0.4,-0.4,-1.0,-3.3000000000000003,4.1000000000000005,7.4,-37.6,44.300000000000004,58.1,16
639,10784.0,-0.6000000000000001,-0.30000000000000004,-0.1,-3.6,4.2,8.4,-42.2,41.7,59.20000000000001,16
640,10800.0,-0.9,-0.1,0.6000000000000001,-3.9000000000000004,4.3,9.1,-48.800000000000004,31.400000000000002,60.300000000000004,16
641,10817.0,-0.9,0.1,0.6000000000000001,-3.9000000000000004,4.4,9.200000000000001,-51.1,27.400000000000002,61.50000000000001,16
642,10835.0,-0.9,0.30000000000000004,0.8,-3.9000000000000004,4.5,9.4,-56.300000000000004,25.1,67.10000000000001,16
643,10856.0,-0.7000000000000001,0.0,1.6,-3.7,4.1000000000000005,10.3,-58.3,27.800000000000004,73.0,16
644,10869.0,-0.6000000000000001,-0.30000000000000004,2.3000000000000003,-3.6,3.7,11.0,-53.7,32.6,75.2,16
645,10884.0,-0.6000000000000001,-0.5,2.7,-3.6,3.5,11.4,-49.50000000000001,34.900000000000006,74.7,16
646,10900.0,-0.7000000000000001,-0.5,2.9000000000000004,-3.7,3.4000000000000004,11.700000000000001,-37.6,36.6,72.2,16
647,10917.0,-0.6000000000000001,-0.5,2.2,-3.6,3.4000000000000004,11.0,-25.900000000000002,33.800000000000004,71.5,16
648,10934.0,-0.6000000000000001,-0.4,1.4000000000000001,-3.5,3.5,10.200000000000001,-23.099999999999998,32.300000000000004,71.39999999999999,16
649,10951.0,-0.5,-0.1,0.0,-3.5,3.8000000000000003,8.9,-29.300000000000004,35.9,73.8,16
650,10967.0,-0.5,0.0,0.1,-3.5,3.9000000000000004,8.9,-49.199999999999996,45.3,78.4,16
651,10984.0,-0.7000000000000001,0.0,1.0,-3.8000000000000003,3.8000000000000003,9.8,-60.300000000000004,50.0,80.60000000000001,16
652,11000.0,-1.3,-0.1,3.6,-4.5,3.6,12.5,-69.7,52.5,86.3,16
653,11017.0,-1.6,-0.4,5.0,-4.800000000000001,3.2,14.0,-58.1,38.1,91.2,16
654,11034.0,-1.6,-0.6000000000000001,4.9,-4.7,2.9000000000000004,13.3,-48.400000000000006,26.200000000000003,92.3,16
655,11050.0,-1.4000000000000001,-0.8,3.3000000000000003,-4.5,2.8000000000000003,12.4,-31.400000000000002,5.9,92.50000000000001,16
656,11067.0,-1.3,-1.0,1.3,-4.3,2.6,10.4,-23.400000000000002,-2.9,89.0,16
657,11084.0,-1.3,-0.9,0.1,-4.2,2.6,9.3,-21.500000000000004,0.5,82.2,16
658,11101.0,-1.6,-0.7000000000000001,-0.2,-4.4,2.9000000000000004,9.0,-20.3,5.8,77.60000000000001,16
659,11117.0,-2.1,-0.4,-0.6000000000000001,-4.9,3.1,8.6,-19.6,16.0,71.9,16
660,11134.0,-2.2,-0.30000000000000004,-1.0,-5.0,3.2,8.200000000000001,-20.8,16.6,71.5,16
661,11150.0,-2.1,-0.4,-1.3,-4.9,3.1,7.9,-22.6,12.9,73.30000000000001,16
662,11167.0,-1.4000000000000001,-0.7000000000000001,-2.2,-4.1000000000000005,2.8000000000000003,7.0,-26.799999999999997,1.0,78.10000000000001,16
663,11184.0,-0.6000000000000001,-1.2000000000000002,-3.3000000000000003,-3.2,2.3000000000000003,5.9,-31.5,-10.600000000000001,79.7,16
664,11200.0,-0.30000000000000004,-1.4000000000000001,-3.8000000000000003,-2.8000000000000003,2.1,5.4,-34.300000000000004,-13.8,79.19999999999999,16
665,11217.0,0.2,-1.5,-4.3,-2.2,1.9000000000000001,4.9,-37.9,-14.200000000000001,77.60000000000001,16
666,11234.0,0.5,-1.6,-4.4,-1.8,1.7000000000000002,4.9,-36.5,-9.2,75.60000000000001,16
667,11251.0,0.7000000000000001,-1.6,-4.3,-1.5,1.6,5.0,-31.7,-3.6000000000000005,71.9,16
668,11267.0,0.7000000000000001,-1.6,-4.2,-1.4000000000000001,1.7000000000000002,5.1000000000000005,-29.200000000000003,-1.5,69.60000000000001,16
669,11284.0,0.6000000000000001,-1.4000000000000001,-3.7,-1.5,1.8,5.6000000000000005,-23.800000000000004,1.7,63.0,16
670,11300.0,0.0,-0.8,-3.4000000000000004,-2.0,2.4000000000000004,5.800000000000001,-17.300000000000004,4.7,57.49999999999999,16
671,11317.0,-0.4,-0.6000000000000001,-3.4000000000000004,-2.3000000000000003,2.6,5.9,-15.100000000000001,5.300000000000001,56.7,16
672,11334.0,-0.6000000000000001,0.0,-3.3000000000000003,-2.5,3.1,5.9,-13.200000000000003,5.7,60.5,16
673,11350.0,-0.30000000000000004,0.0,-2.8000000000000003,-2.2,3.2,6.4,-16.3,9.3,63.900000000000006,16
674,11367.0,-0.2,0.0,-2.3000000000000003,-2.0,3.2,6.9,-19.1,8.600000000000001,62.900000000000006,16
675,11384.0,-0.1,0.6000000000000001,-1.6,-1.9000000000000001,3.7,7.7,-27.6,6.9,56.50000000000001,16
676,11401.0,-0.4,1.2000000000000002,-0.1,-2.2,4.3,9.1,-35.699999999999996,9.4,51.70000000000001,16
677,11417.0,-0.6000000000000001,1.4000000000000001,0.7000000000000001,-2.4000000000000004,4.4,10.0,-37.400000000000006,11.900000000000002,50.60000000000001,16
678,11435.0,-0.7000000000000001,1.6,1.8,-2.5,4.5,11.100000000000001,-35.1,13.100000000000001,50.0,16
679,11454.0,-0.5,1.1,1.8,-2.3000000000000003,4.0,11.100000000000001,-38.60000000000001,9.5,48.10000000000001,16
680,11470.0,-0.1,0.6000000000000001,2.6,-1.9000000000000001,3.4000000000000004,12.0,-52.2,4.5,41.4,16
681,11484.0,-0.1,0.6000000000000001,3.1,-1.9000000000000001,3.2,12.600000000000001,-57.800000000000004,2.0,36.400000000000006,16
682,11501.0,-0.30000000000000004,0.6000000000000001,4.2,-2.0,3.1,13.8,-61.39999999999999,1.8000000000000003,27.6,16
683,11517.0,-0.4,1.1,4.6000000000000005,-2.2,3.4000000000000004,14.200000000000001,-61.199999999999996,3.1,21.300000000000004,16
684,11534.0,-0.8,1.2000000000000002,4.7,-2.5,3.4000000000000004,14.4,-64.80000000000001,4.300000000000001,20.2,16
685,11551.0,-1.8,1.4000000000000001,6.6000000000000005,-3.6,3.3000000000000003,16.3,-75.2,17.0,21.900000000000002,16
686,11567.0,-2.2,0.6000000000000001,10.200000000000001,-4.1000000000000005,2.3000000000000003,20.1,-60.5,35.599999999999994,26.799999999999997,16
687,11584.0,-2.2,0.1,11.200000000000001,-4.1000000000000005,1.8,21.1,-38.0,34.900000000000006,26.5,16
688,11600.0,-1.9000000000000001,-0.30000000000000004,9.0,-3.9000000000000004,1.4000000000000001,19.0,15.899999999999999,16.6,18.3,16
689,11617.0,-1.6,0.0,4.800000000000001,-3.7,1.9000000000000001,14.8,46.300000000000004,10.1,13.5,16
690,11634.0,-1.6,0.0,3.1,-3.7,2.1,11.700000000000001,55.0,11.3,15.100000000000001,16
691,11650.0,-1.5,0.0,0.6000000000000001,-3.6,2.2,10.600000000000001,54.300000000000004,10.700000000000001,18.1,16
692,11667.0,-1.0,-0.1,-1.2000000000000002,-3.1,2.3000000000000003,8.700000000000001,47.900000000000006,7.0,25.0,16
693,11684.0,-0.4,-0.30000000000000004,-2.7,-2.5,2.2,7.1000000000000005,39.0,2.9,30.1,16
694,11700.0,-0.1,-0.5,-3.3000000000000003,-2.3000000000000003,2.1,6.5,33.9,1.0,31.400000000000002,16
695,11717.0,0.30000000000000004,-0.9,-4.3,-1.8,1.8,5.5,24.599999999999998,-3.4,32.1,16
696,11735.0,0.5,-1.4000000000000001,-5.1000000000000005,-1.5,1.4000000000000001,4.6000000000000005,18.5,-6.1000000000000005,29.900000000000006,16
697,11756.0,0.6000000000000001,-1.7000000000000002,-5.7,-1.4000000000000001,1.1,4.0,17.0,-6.4,26.200000000000003,16
698,11767.0,0.6000000000000001,-1.9000000000000001,-5.800000000000001,-1.3,1.0,3.8000000000000003,18.0,-6.2,24.5,16
699,11784.0,0.8,-2.2,-6.4,-1.1,0.8,3.2,21.900000000000002,-5.9,20.400000000000002,16
700,11801.0,0.8,-2.2,-6.5,-1.1,0.8,3.0,23.800000000000004,-4.300000000000001,18.200000000000003,16
701,11817.0,1.0,-2.0,-6.4,-0.9,1.1,3.0,26.400000000000006,2.8,14.400000000000002,16
702,11834.0,0.8,-1.6,-5.6000000000000005,-1.1,1.6,3.8000000000000003,29.400000000000002,16.5,11.000000000000002,16
703,11851.0,0.8,-1.6,-3.9000000000000004,-1.1,1.6,5.300000000000001,34.400000000000006,22.3,9.5,16
704,11867.0,0.7000000000000001,-1.5,-3.3000000000000003,-1.2000000000000002,1.8,5.9,37.2,20.1,7.400000000000001,16
705,11884.0,0.4,-0.9,-2.7,-1.6,2.5,6.4,41.0,14.600000000000001,3.4,16
706,11900.0,0.30000000000000004,0.0,-2.1,-1.8,3.5,6.9,40.1,17.400000000000002,4.800000000000001,16
707,11917.0,0.4,0.30000000000000004,-1.8,-1.7000000000000002,3.9000000000000004,7.2,36.6,22.000000000000004,6.4,16
708,11934.0,0.4,0.5,-0.4,-1.8,4.2,8.6,20.900000000000002,27.700000000000003,5.500000000000001,16
709,11950.0,0.30000000000000004,0.8,1.3,-1.9000000000000001,4.6000000000000005,10.200000000000001,6.1000000000000005,23.6,1.2000000000000002,16
710,11967.0,0.1,1.0,2.0,-2.2,4.7,10.9,1.1,21.8,-2.2,16
711,11984.0,-0.5,1.3,2.9000000000000004,-2.9000000000000004,5.1000000000000005,11.9,-6.600000000000001,20.1,-7.500000000000001,16
712,12000.0,-1.1,1.6,3.2,-3.5,5.300000000000001,12.100000000000001,-15.299999999999999,21.6,-10.700000000000001,16
713,12017.0,-1.3,1.8,3.2,-4.0,5.4,12.5,-21.6,23.5,-10.9,16
714,12034.0,-1.7000000000000002,1.7000000000000002,4.0,-4.3,5.300000000000001,13.0,-34.60000000000001,30.599999999999998,-10.299999999999999,16
715,12050.0,-2.2,1.2000000000000002,5.1000000000000005,-4.9,4.7,14.200000000000001,-43.00000000000001,33.300000000000004,-9.0,16
716,12067.0,-2.5,0.9,5.9,-5.300000000000001,4.2,15.100000000000001,-41.900000000000006,30.699999999999996,-8.3,16
717,12084.0,-2.6,0.8,6.0,-5.5,4.1000000000000005,15.100000000000001,-37.300000000000004,30.3,-7.0,16
718,12100.0,-2.9000000000000004,0.7000000000000001,5.2,-5.9,3.9000000000000004,14.4,-23.2,32.8,-3.1,16
719,12117.0,-2.8000000000000003,0.8,3.8000000000000003,-5.9,4.0,13.0,-20.5,28.500000000000004,9.0,16
720,12134.0,-2.7,0.6000000000000001,3.7,-5.800000000000001,3.7,12.9,-22.3,26.200000000000003,17.799999999999997,16
721,12150.0,-2.2,-0.2,3.5,-5.5,2.9000000000000004,12.8,-18.4,19.200000000000003,32.7,16
722,12167.0,-1.9000000000000001,-0.8,2.2,-5.2,2.3000000000000003,11.5,-5.0,13.399999999999999,42.800000000000004,16
723,12184.0,-1.8,-1.0,1.3,-5.1000000000000005,2.1,10.600000000000001,1.2000000000000002,13.8,46.800000000000004,16
724,12200.0,-1.7000000000000002,-1.4000000000000001,-0.6000000000000001,-5.0,1.8,8.700000000000001,6.0,18.5,53.400000000000006,16
725,12217.0,-1.4000000000000001,-1.2000000000000002,-2.3000000000000003,-4.7,2.0,6.9,-1.4,23.400000000000002,60.1,16
726,12234.0,-1.3,-1.1,-3.0,-4.5,2.1,5.7,-9.899999999999999,25.900000000000002,64.80000000000001,16
727,12251.0,-1.1,-1.2000000000000002,-3.5,-4.4,2.0,5.7,-35.1,30.4,75.8,16
728,12267.0,-1.0,-1.4000000000000001,-2.9000000000000004,-4.4,1.7000000000000002,6.300000000000001,-56.7,29.300000000000004,86.8,16
729,12284.0,-0.7000000000000001,-1.7000000000000002,-2.2,-4.0,1.3,7.0,-63.8,25.7,95.1,16
730,12300.0,-0.4,-1.9000000000000001,-1.9000000000000001,-3.8000000000000003,1.0,7.300000000000001,-61.300000000000004,22.8,96.9,16
731,12317.0,0.2,-2.1,-2.0,-3.1,0.8,7.300000000000001,-48.9,12.299999999999999,94.5,16
732,12334.0,0.5,-2.1,-2.6,-2.7,0.8,6.7,-32.300000000000004,0.0,86.3,16
733,12351.0,0.6000000000000001,-2.0,-2.9000000000000004,-2.6,0.8,6.300000000000001,-23.5,-4.800000000000001,81.90000000000002,16
734,12367.0,0.6000000000000001,-1.8,-4.0,-2.4000000000000004,1.1,5.2,-4.2,-8.8,75.7,16
735,12384.0,0.8,-1.8,-4.9,-2.2,1.2000000000000002,4.3,12.0,-5.1000000000000005,72.4,16
736,12401.0,0.8,-1.8,-5.300000000000001,-2.2,1.4000000000000001,3.7,15.899999999999999,-2.5,69.5,16
737,12417.0,0.4,-1.6,-5.2,-2.4000000000000004,1.6,3.9000000000000004,13.900000000000002,3.1,64.2,16
738,12434.0,0.0,-1.2000000000000002,-3.9000000000000004,-2.8000000000000003,2.0,5.2,10.299999999999999,9.700000000000001,61.39999999999999,16
739,12450.0,-0.30000000000000004,-0.8,-2.3000000000000003,-3.1,2.5,6.7,12.7,18.200000000000003,59.1,16
740,12467.0,-0.4,-0.6000000000000001,-1.5,-3.1,2.8000000000000003,7.5,15.8,20.1,58.1,16
741,12484.0,-0.1,0.0,-0.7000000000000001,-2.9000000000000004,3.5,8.200000000000001,20.5,19.400000000000002,52.5,16
742,12500.0,-0.1,0.8,-0.4,-2.9000000000000004,4.4,8.4,15.299999999999999,19.0,44.2,16
743,12517.0,-0.1,1.2000000000000002,-0.2,-2.8000000000000003,4.800000000000001,8.700000000000001,8.3,19.0,40.4,16
744,12534.0,-0.1,1.7000000000000002,0.8,-2.9000000000000004,5.300000000000001,9.700000000000001,-12.299999999999999,14.400000000000002,33.6,16
745,12550.0,-0.1,1.8,2.3000000000000003,-2.9000000000000004,5.4,11.200000000000001,-31.9,6.9,30.000000000000004,16
746,12567.0,0.1,1.7000000000000002,3.0,-2.6,5.300000000000001,11.9,-38.400000000000006,3.6000000000000005,27.800000000000004,16
747,12584.0,0.9,1.3,4.1000000000000005,-1.8,4.7,13.200000000000001,-46.4,-6.0,18.200000000000003,16
748,12600.0,1.4000000000000001,0.9,4.9,-1.3,4.2,14.0,-46.300000000000004,-15.000000000000002,2.5,16
749,12617.0,1.5,0.8,5.0,-1.2000000000000002,4.1000000000000005,14.200000000000001,-43.4,-17.300000000000004,-6.9,16
750,12634.0,1.5,1.0,4.800000000000001,-1.1,4.1000000000000005,14.0,-36.1,-16.200000000000003,-23.700000000000003,16
751,12650.0,1.0,0.9,5.2,-1.6,3.9000000000000004,14.600000000000001,-28.200000000000003,-9.8,-34.900000000000006,16
752,12668.0,0.1,0.5,6.1000000000000005,-2.4000000000000004,3.4000000000000004,15.5,-14.700000000000001,-6.4,-42.1,16
753,12684.0,-0.30000000000000004,0.4,6.2,-2.9000000000000004,3.3000000000000003,15.700000000000001,-4.1,-7.300000000000001,-44.7,16
754,12700.0,-0.7000000000000001,0.1,5.6000000000000005,-3.3000000000000003,3.0,15.100000000000001,21.7,-7.6,-47.5,16
755,12717.0,-0.8,-0.4,3.7,-3.4000000000000004,2.6,13.3,43.2,-5.4,-50.2,16
756,12734.0,-1.0,-0.4,2.7,-3.6,2.6,12.200000000000001,48.2,-3.7000000000000006,-51.4,16
757,12751.0,-1.8,0.1,0.9,-4.5,3.3000000000000003,10.3,49.800000000000004,2.9,-44.9,16
758,12767.0,-2.1,0.30000000000000004,-0.4,-5.0,3.6,9.0,44.8,17.7,-25.7,16
759,12784.0,-2.0,0.30000000000000004,-0.5,-4.9,3.6,8.8,38.900000000000006,24.8,-15.399999999999999,16
760,12800.0,-1.7000000000000002,0.0,-0.8,-4.7,3.4000000000000004,8.5,26.300000000000004,30.699999999999996,1.7,16
761,12817.0,-1.7000000000000002,-0.2,-0.9,-4.800000000000001,3.3000000000000003,8.3,14.200000000000001,27.700000000000003,14.100000000000001,16
762,12834.0,-1.6,-0.30000000000000004,-1.0,-4.7,3.0,8.0,6.4,15.899999999999999,27.2,16
763,12851.0,-1.4000000000000001,-0.7000000000000001,-1.4000000000000001,-4.6000000000000005,2.9000000000000004,7.7,4.6,7.500000000000001,33.800000000000004,16
764,12867.0,-0.7000000000000001,-1.4000000000000001,-2.3000000000000003,-3.8000000000000003,2.2,6.800000000000001,5.0,-11.700000000000001,45.099999999999994,16
765,12884.0,-0.30000000000000004,-1.7000000000000002,-2.8000000000000003,-3.3000000000000003,1.9000000000000001,6.300000000000001,6.500000000000001,-20.2,48.10000000000001,16
766,12900.0,0.30000000000000004,-2.3000000000000003,-3.8000000000000003,-2.6,1.4000000000000001,5.300000000000001,13.000000000000002,-32.400000000000006,49.6,16
767,12917.0,0.8,-2.7,-4.6000000000000005,-1.9000000000000001,1.1,4.5,21.0,-35.2,46.4,16
768,12934.0,1.0,-2.8000000000000003,-5.0,-1.5,1.1,4.1000000000000005,27.700000000000003,-32.9,39.2,16
769,12953.0,1.0,-2.6,-4.9,-1.3,1.4000000000000001,4.1000000000000005,37.1,-24.5,33.0,16
770,12967.0,1.1,-2.5,-5.0,-1.2000000000000002,1.5,3.9000000000000004,42.60000000000001,-18.8,30.1,16
771,12984.0,1.2000000000000002,-2.3000000000000003,-4.7,-1.0,1.9000000000000001,4.1000000000000005,49.199999999999996,-5.6,23.2,16
772,13000.0,1.2000000000000002,-2.1,-4.4,-1.1,2.4000000000000004,5.0,50.2,1.4,19.1,16
773,13017.0,1.1,-1.7000000000000002,-2.8000000000000003,-1.1,2.7,5.9,50.400000000000006,15.2,11.6,16
774,13034.0,1.3,-1.3,-1.4000000000000001,-1.0,3.3000000000000003,7.2,56.6,23.800000000000004,1.0,16
775,13052.0,0.8,-0.5,-0.30000000000000004,-1.5,4.2,8.1,57.60000000000001,27.700000000000003,-11.900000000000002,16
776,13068.0,0.5,0.0,0.0,-1.9000000000000001,4.800000000000001,8.4,55.3,28.400000000000002,-16.4,16
777,13084.0,0.2,1.1,0.30000000000000004,-2.3000000000000003,6.1000000000000005,8.6,43.2,31.6,-19.9,16
778,13100.0,0.2,1.8,1.4000000000000001,-2.5,6.800000000000001,9.600000000000001,20.0,41.7,-16.700000000000003,16
779,13117.0,0.2,1.8,2.3000000000000003,-2.6,6.800000000000001,10.5,8.100000000000001,46.6,-15.000000000000002,16
780,13134.0,0.1,1.4000000000000001,4.2,-2.9000000000000004,6.4,12.4,-9.5,53.400000000000006,-16.3,16
781,13151.0,-0.1,1.2000000000000002,5.5,-3.2,6.1000000000000005,13.700000000000001,-14.400000000000002,52.300000000000004,-22.6,16
782,13167.0,-0.2,1.2000000000000002,5.800000000000001,-3.4000000000000004,6.2,14.0,-13.000000000000002,50.8,-25.8,16
783,13184.0,-0.5,1.5,5.4,-3.9000000000000004,6.4,13.600000000000001,-4.9,47.1,-28.0,16
784,13200.0,-0.8,1.6,4.3,-4.4,6.5,12.5,-4.1,43.900000000000006,-23.700000000000003,16
785,13217.0,-1.0,1.6,4.4,-4.800000000000001,6.300000000000001,12.9,-10.700000000000001,30.9,-7.400000000000001,16
786,13234.0,-0.9,1.3,4.7,-4.6000000000000005,6.1000000000000005,12.9,-10.700000000000001,19.5,2.9,16
787,13258.0,0.30000000000000004,0.2,4.0,-3.3000000000000003,5.1000000000000005,12.3,-4.9,-8.4,20.400000000000002,16
788,13271.0,1.0,-0.7000000000000001,2.5,-2.6,4.1000000000000005,10.8,1.3,-32.300000000000004,25.5,16
789,13284.0,1.1,-1.0,1.6,-2.3000000000000003,3.8000000000000003,9.9,2.6,-37.400000000000006,23.6,16
790,13300.0,1.3,-1.4000000000000001,0.1,-2.0,3.5,8.5,-0.30000000000000004,-36.1,16.900000000000002,16
791,13317.0,1.2000000000000002,-1.6,-0.8,-2.1,3.3000000000000003,7.6000000000000005,-7.8,-23.5,11.000000000000002,16
792,13333.0,1.0,-1.7000000000000002,-0.8,-2.2,3.2,7.6000000000000005,-10.9,-15.2,10.200000000000001,16
793,13351.0,1.1,-2.2,-0.5,-2.0,2.6,7.9,-10.0,-2.6,11.6,16
794,13367.0,1.5,-2.7,-1.1,-1.6,2.1,7.4,-5.0,-3.9,7.8,16
795,13384.0,1.8,-2.9000000000000004,-1.6,-1.3,1.9000000000000001,6.9,-4.5,-8.700000000000001,3.5,16
796,13400.0,1.7000000000000002,-2.7,-2.7,-1.3,2.1,5.800000000000001,-5.9,-17.300000000000004,-6.9,16
797,13417.0,1.5,-2.3000000000000003,-3.3000000000000003,-1.5,2.3000000000000003,5.2,-4.7,-16.5,-12.5,16
798,13436.0,1.2000000000000002,-1.8,-3.3000000000000003,-1.8,2.8000000000000003,5.1000000000000005,5.4,-4.2,-17.1,16
799,13450.0,1.0,-1.7000000000000002,-3.3000000000000003,-2.0,3.0,5.1000000000000005,12.100000000000001,4.300000000000001,-18.5,16
800,13467.0,0.8,-1.4000000000000001,-3.0,-2.3000000000000003,3.2,5.300000000000001,22.700000000000003,16.6,-18.3,16
801,13484.0,0.5,-1.5,-2.4000000000000004,-2.7,3.3000000000000003,5.800000000000001,27.2,15.100000000000001,-17.0,16
802,13500.0,0.30000000000000004,-1.4000000000000001,-2.4000000000000004,-2.8000000000000003,3.4000000000000004,5.9,28.600000000000005,9.4,-16.0,16
803,13517.0,0.30000000000000004,-1.4000000000000001,-2.4000000000000004,-2.9000000000000004,3.4000000000000004,5.800000000000001,29.400000000000002,-4.2,-11.000000000000002,16
804,13537.0,0.5,-1.4000000000000001,-2.7,-2.7,3.4000000000000004,5.4,29.900000000000006,-15.2,-6.300000000000001,16
805,13551.0,0.6000000000000001,-1.4000000000000001,-2.9000000000000004,-2.5,3.5,5.2,29.600000000000005,-17.0,-4.800000000000001,16
806,13567.0,0.7000000000000001,-1.1,-2.6,-2.3000000000000003,3.9000000000000004,5.4,28.3,-12.299999999999999,-1.1,16
807,13584.0,1.0,-0.8,-1.3,-2.1,4.3,6.6000000000000005,27.6,1.8000000000000003,0.5,16
808,13600.0,1.0,-0.6000000000000001,-0.5,-2.1,4.4,7.5,27.800000000000004,7.300000000000001,-1.1,16
809,13617.0,0.8,-0.2,1.2000000000000002,-2.3000000000000003,4.9,9.1,27.800000000000004,11.1,-8.899999999999999,16
810,13634.0,0.4,0.4,2.0,-2.7,5.6000000000000005,9.9,25.200000000000003,-0.30000000000000004,-16.1,16
811,13650.0,0.30000000000000004,1.3,1.9000000000000001,-2.9000000000000004,6.5,9.700000000000001,21.400000000000002,-6.300000000000001,-17.7,16
812,13667.0,0.30000000000000004,1.4000000000000001,1.9000000000000001,-2.9000000000000004,6.7,9.700000000000001,9.2,-12.7,-16.0,16
813,13684.0,0.4,1.4000000000000001,2.5,-2.7,6.6000000000000005,10.4,-9.600000000000001,-15.299999999999999,-12.5,16
814,13700.0,0.7000000000000001,1.0,3.6,-2.4000000000000004,6.2,11.600000000000001,-25.900000000000002,-21.1,-13.200000000000003,16
815,13717.0,0.9,0.8,4.3,-2.2,5.9,12.4,-30.3,-24.7,-15.700000000000001,16
816,13734.0,1.0,0.6000000000000001,5.1000000000000005,-2.0,5.6000000000000005,13.3,-29.600000000000005,-37.300000000000004,-24.900000000000002,16
817,13753.0,1.1,0.5,5.1000000000000005,-1.8,5.4,13.4,-21.200000000000003,-43.2,-34.900000000000006,16
818,13768.0,1.0,0.5,4.9,-2.0,5.5,13.100000000000001,-15.700000000000001,-42.1,-39.2,16
819,13784.0,0.9,0.6000000000000001,4.6000000000000005,-2.0,5.4,13.100000000000001,-4.6,-28.1,-44.10000000000001,16
820,13800.0,0.6000000000000001,0.1,5.1000000000000005,-2.3000000000000003,4.9,13.600000000000001,9.4,-8.600000000000001,-48.50000000000001,16
821,13817.0,0.30000000000000004,0.0,5.0,-2.6,4.800000000000001,13.5,17.0,-5.0,-50.900000000000006,16
822,13836.0,-0.1,-0.4,4.1000000000000005,-3.1,4.4,12.600000000000001,27.800000000000004,-10.600000000000001,-52.300000000000004,16
823,13851.0,-0.1,-0.6000000000000001,2.5,-3.1,4.3,11.0,30.699999999999996,-21.900000000000002,-50.400000000000006,16
824,13868.0,0.1,-0.8,0.7000000000000001,-2.9000000000000004,4.1000000000000005,9.200000000000001,23.900000000000006,-31.0,-45.6,16
825,13884.0,0.2,-0.8,0.0,-2.8000000000000003,4.0,8.5,18.1,-33.6,-42.5,16
826,13900.0,0.4,-1.0,-1.1,-2.6,3.8000000000000003,7.4,6.699999999999999,-33.800000000000004,-35.1,16
827,13917.0,0.6000000000000001,-1.3,-1.7000000000000002,-2.4000000000000004,3.5,6.9,-0.7,-28.600000000000005,-28.700000000000003,16
828,13935.0,0.5,-1.4000000000000001,-1.9000000000000001,-2.3000000000000003,3.3000000000000003,6.300000000000001,-2.3,-25.7,-25.7,16
829,13950.0,0.5,-1.6,-2.5,-2.3000000000000003,3.2,6.0,-4.0,-20.599999999999998,-20.5,16
830,13967.0,0.5,-1.7000000000000002,-2.9000000000000004,-2.4000000000000004,3.0,5.7,-6.699999999999999,-16.200000000000003,-17.200000000000003,16
831,13984.0,0.4,-1.7000000000000002,-3.0,-2.4000000000000004,2.9000000000000004,5.6000000000000005,-7.1000000000000005,-15.2,-16.3,16
832,14000.0,0.30000000000000004,-1.7000000000000002,-3.2,-2.5,2.9000000000000004,5.4,-6.300000000000001,-15.399999999999999,-14.400000000000002,16
833,14017.0,0.2,-1.7000000000000002,-3.2,-2.6,2.9000000000000004,5.300000000000001,-2.5,-18.3,-12.100000000000001,16
834,14035.0,0.6000000000000001,-1.9000000000000001,-3.2,-2.2,2.7,5.300000000000001,7.500000000000001,-20.900000000000002,-9.600000000000001,16
835,14051.0,0.8,-1.9000000000000001,-3.5,-1.9000000000000001,2.6,5.0,13.700000000000001,-22.8,-10.600000000000001,16
836,14067.0,1.1,-1.7000000000000002,-4.1000000000000005,-1.6,2.9000000000000004,4.4,21.8,-23.2,-14.100000000000001,16
837,14083.0,1.3,-1.3,-4.5,-1.3,3.4000000000000004,3.9000000000000004,22.1,-22.000000000000004,-16.0,16
838,14100.0,1.5,-1.0,-4.5,-1.1,3.7,3.9000000000000004,19.300000000000004,-19.200000000000003,-16.700000000000003,16
839,14117.0,1.6,-0.5,-3.8000000000000003,-0.9,4.2,4.6000000000000005,8.700000000000001,-7.699999999999999,-16.700000000000003,16
840,14139.0,1.9000000000000001,-0.2,-1.7000000000000002,-0.7000000000000001,4.5,6.6000000000000005,0.8,3.7000000000000006,-15.2,16
841,14150.0,1.9000000000000001,0.0,-0.8,-0.7000000000000001,4.7,7.5,0.4,8.8,-15.899999999999999,16
842,14167.0,2.0,0.4,0.8,-0.7000000000000001,5.1000000000000005,9.1,2.5,18.200000000000003,-17.9,16
843,14184.0,1.7000000000000002,0.9,2.1,-1.0,5.5,10.4,6.4,26.5,-19.0,16
844,14200.0,1.7000000000000002,1.0,2.5,-1.2000000000000002,5.800000000000001,10.9,9.4,30.3,-19.0,16
845,14217.0,1.7000000000000002,1.2000000000000002,2.7,-1.2000000000000002,5.9,11.0,10.299999999999999,35.2,-19.200000000000003,16
846,14236.0,1.5,1.3,2.8000000000000003,-1.5,6.0,11.0,-1.2000000000000002,35.1,-21.300000000000004,16
847,14250.0,0.8,1.6,3.9000000000000004,-2.3000000000000003,6.2,12.100000000000001,-20.900000000000002,33.1,-24.3,16
848,14268.0,0.5,1.7000000000000002,4.4,-2.7,6.300000000000001,12.600000000000001,-28.500000000000004,30.200000000000003,-24.3,16
849,14284.0,-0.1,1.7000000000000002,5.2,-3.4000000000000004,6.2,13.600000000000001,-38.400000000000006,20.2,-20.3,16
850,14301.0,0.30000000000000004,1.4000000000000001,5.5,-3.1,5.800000000000001,14.0,-37.800000000000004,11.5,-13.700000000000001,16
851,14317.0,0.4,1.3,5.2,-3.0,5.6000000000000005,13.700000000000001,-36.1,9.100000000000001,-13.200000000000003,16
852,14337.0,0.2,0.9,5.4,-3.2,5.1000000000000005,14.0,-36.300000000000004,7.1000000000000005,-11.6,16
853,14355.0,0.1,0.1,6.300000000000001,-3.4000000000000004,4.2,14.9,-24.900000000000002,-4.5,-10.9,16
854,14367.0,0.1,-0.30000000000000004,6.1000000000000005,-3.4000000000000004,3.7,14.8,-11.000000000000002,-16.3,-11.900000000000002,16
855,14384.0,0.30000000000000004,-0.8,4.1000000000000005,-3.1,3.3000000000000003,12.8,22.4,-40.1,-16.3,16
856,14400.0,0.6000000000000001,-1.2000000000000002,1.4000000000000001,-2.6,3.0,10.100000000000001,44.2,-49.0,-21.0,16
857,14418.0,0.9,-1.4000000000000001,-0.8,-2.2,2.9000000000000004,8.0,49.1,-48.400000000000006,-29.500000000000004,16
858,14438.0,0.8,-1.3,-1.9000000000000001,-2.2,3.1,6.800000000000001,42.400000000000006,-33.9,-40.4,16
859,14450.0,0.5,-1.3,-1.7000000000000002,-2.6,3.1,7.0,37.7,-24.200000000000003,-45.5,16
860,14467.0,-0.30000000000000004,-1.1,-0.9,-3.3000000000000003,3.3000000000000003,7.800000000000001,35.1,-13.900000000000002,-50.0,16
861,14484.0,-0.5,-1.1,-0.8,-3.6,3.3000000000000003,7.800000000000001,37.50000000000001,-13.8,-50.3,16
862,14500.0,-0.5,-1.1,-1.5,-3.6,3.4000000000000004,7.1000000000000005,41.900000000000006,-20.900000000000002,-47.5,16
863,14517.0,-0.2,-1.1,-2.6,-3.3000000000000003,3.5,5.9,39.8,-31.099999999999998,-42.2,16
864,14534.0,0.0,-1.0,-3.1,-3.0,3.6,5.4,36.5,-33.7,-38.7,16
865,14552.0,0.5,-1.3,-3.4000000000000004,-2.5,3.4000000000000004,5.1000000000000005,29.400000000000002,-33.2,-33.2,16
866,14567.0,0.9,-1.5,-3.1,-2.0,3.2,5.300000000000001,27.800000000000004,-31.9,-31.400000000000002,16
867,14583.0,1.0,-1.6,-3.2,-1.9000000000000001,3.1,5.2,29.300000000000004,-31.5,-32.300000000000004,16
868,14600.0,0.9,-1.6,-3.3000000000000003,-2.0,3.2,5.1000000000000005,32.2,-28.3,-35.5,16
869,14617.0,0.7000000000000001,-1.3,-2.9000000000000004,-2.2,3.5,5.4,32.9,-23.6,-35.3,16
870,14634.0,0.7000000000000001,-1.2000000000000002,-2.8000000000000003,-2.1,3.8000000000000003,5.5,30.799999999999997,-23.800000000000004,-32.9,16
871,14650.0,0.9,-1.0,-2.5,-2.0,3.9000000000000004,5.7,28.0,-24.3,-31.799999999999997,16
872,14667.0,0.9,-0.8,-1.8,-1.9000000000000001,4.1000000000000005,6.4,21.0,-25.7,-31.0,16
873,14684.0,1.0,-0.5,-0.5,-1.8,4.4,7.6000000000000005,17.400000000000002,-28.600000000000005,-29.800000000000004,16
874,14700.0,1.1,-0.4,0.0,-1.7000000000000002,4.5,8.200000000000001,18.8,-30.9,-29.500000000000004,16
875,14719.0,1.3,-0.1,0.8,-1.4000000000000001,4.800000000000001,9.0,21.6,-35.599999999999994,-32.300000000000004,16
876,14734.0,1.5,0.1,1.3,-1.1,5.1000000000000005,9.5,21.900000000000002,-44.9,-36.0,16
877,14751.0,1.7000000000000002,0.1,1.5,-0.9,5.1000000000000005,9.700000000000001,20.5,-48.6,-37.9,16
878,14767.0,2.0,0.30000000000000004,2.0,-0.5,5.300000000000001,10.3,16.700000000000003,-53.8,-42.7,16
879,14783.0,1.9000000000000001,0.30000000000000004,2.7,-0.5,5.300000000000001,11.0,12.200000000000001,-55.5,-48.300000000000004,16
880,14800.0,1.9000000000000001,0.30000000000000004,3.2,-0.5,5.300000000000001,11.5,10.700000000000001,-57.9,-50.5,16
881,14817.0,2.1,0.4,3.6,-0.2,5.4,11.9,10.5,-65.6,-57.699999999999996,16
882,14834.0,2.2,1.2000000000000002,2.5,0.0,6.2,11.0,3.7000000000000006,-64.2,-66.3,16
883,14850.0,0.8,1.7000000000000002,4.9,-1.4000000000000001,6.6000000000000005,13.4,-18.700000000000003,-24.200000000000003,-71.19999999999999,16
884,14867.0,0.0,1.3,7.0,-2.3000000000000003,6.1000000000000005,15.600000000000001,-19.400000000000002,-4.6,-70.0,16
885,14884.0,-0.8,-0.5,10.100000000000001,-3.1,4.3,18.8,7.500000000000001,6.2,-70.2,16
886,14900.0,-1.1,-1.3,8.700000000000001,-3.6,3.6,17.400000000000002,45.8,-32.1,-81.4,16
887,14917.0,-1.0,-1.2000000000000002,6.2,-3.5,3.7,14.9,57.9,-53.599999999999994,-85.1,16
888,14933.0,-0.6000000000000001,-1.1,2.0,-3.0,3.9000000000000004,10.700000000000001,59.300000000000004,-73.7,-83.2,16
889,14951.0,0.1,-1.5,-0.4,-2.2,3.5,8.200000000000001,44.9,-77.20000000000002,-76.89999999999999,16
890,14967.0,0.5,-1.7000000000000002,-1.2000000000000002,-1.8,3.4000000000000004,7.4,36.8,-73.30000000000001,-74.89999999999999,16
891,14984.0,0.8,-2.2,-1.8,-1.3,2.8000000000000003,6.800000000000001,25.200000000000003,-58.2,-73.10000000000001,16
892,15000.0,1.0,-2.9000000000000004,-2.0,-1.2000000000000002,2.2,6.6000000000000005,24.900000000000002,-45.2,-73.2,16
893,15017.0,1.1,-3.1,-2.3000000000000003,-1.0,1.8,5.800000000000001,27.5,-41.0,-73.8,16
894,15035.0,1.2000000000000002,-3.4000000000000004,-3.2,-0.9,1.7000000000000002,5.300000000000001,31.2,-37.7,-75.60000000000001,16
895,15051.0,1.5,-3.3000000000000003,-4.3,-0.7000000000000001,1.7000000000000002,4.2,26.9,-36.6,-75.5,16
896,15067.0,1.9000000000000001,-3.1,-4.800000000000001,-0.30000000000000004,1.9000000000000001,3.6,14.100000000000001,-31.9,-73.2,16
897,15084.0,2.1,-3.1,-4.7,-0.1,1.9000000000000001,3.7,6.699999999999999,-26.9,-71.9,16
898,15100.0,2.6,-3.0,-3.9000000000000004,0.30000000000000004,1.9000000000000001,4.4,-2.1,-13.100000000000001,-72.2,16
899,15117.0,2.5,-2.7,-2.9000000000000004,0.1,2.1,5.4,-4.800000000000001,-0.6000000000000001,-76.5,16
900,15134.0,2.3000000000000003,-2.3000000000000003,-2.4000000000000004,-0.1,2.4000000000000004,5.9,-5.7,3.0,-78.3,16
901,15150.0,1.8,-1.4000000000000001,-1.4000000000000001,-0.8,3.3000000000000003,6.9,-6.8,7.200000000000001,-78.60000000000001,16
902,15167.0,1.3,-0.4,-0.8,-1.4000000000000001,4.2,7.5,-9.700000000000001,7.1000000000000005,-71.6,16
903,15183.0,1.3,0.0,-0.6000000000000001,-1.4000000000000001,4.6000000000000005,7.800000000000001,-13.100000000000001,6.9,-66.7,16
904,15200.0,1.3,0.7000000000000001,0.4,-1.5,5.1000000000000005,8.8,-21.500000000000004,10.1,-58.900000000000006,16
905,15217.0,1.2000000000000002,1.1,2.1,-1.8,5.4,10.600000000000001,-20.2,12.4,-54.0,16
906,15233.0,0.9,1.6,3.1,-2.1,5.800000000000001,11.5,-3.1,11.1,-52.300000000000004,16
907,15251.0,0.7000000000000001,1.8,3.1,-2.4000000000000004,6.0,11.5,8.0,8.700000000000001,-51.2,16
908,15267.0,0.4,2.0,2.2,-2.7,6.300000000000001,10.600000000000001,25.8,-0.30000000000000004,-45.2,16
909,15284.0,0.8,2.0,0.30000000000000004,-2.4000000000000004,6.300000000000001,8.700000000000001,29.700000000000006,-15.6,-35.4,16
910,15300.0,1.0,1.9000000000000001,-0.5,-2.2,6.2,7.800000000000001,25.7,-21.7,-30.9,16
911,15317.0,1.5,1.6,-1.4000000000000001,-1.6,6.0,7.0,13.900000000000002,-30.4,-24.3,16
912,15334.0,1.7000000000000002,1.6,-1.7000000000000002,-1.3,6.0,6.7,4.1,-29.800000000000004,-23.5,16
913,15350.0,1.6,1.7000000000000002,-1.5,-1.4000000000000001,6.1000000000000005,6.9,0.1,-25.900000000000002,-23.700000000000003,16
914,15367.0,1.5,1.9000000000000001,-0.7000000000000001,-1.5,6.300000000000001,7.7,-2.5,-15.6,-21.900000000000002,16
915,15383.0,1.2000000000000002,2.1,-0.2,-1.8,6.5,8.3,-5.2,-8.8,-20.3,16
916,15400.0,1.1,2.1,0.2,-2.0,6.4,9.0,-8.0,-8.0,-19.300000000000004,16
917,15417.0,0.9,1.8,0.9,-2.1,6.1000000000000005,9.4,-15.2,-13.000000000000002,-18.8,16
918,15433.0,0.7000000000000001,1.3,1.6,-2.2,5.5,10.100000000000001,-20.1,-25.200000000000003,-22.6,16
919,15450.0,0.0,1.4000000000000001,1.7000000000000002,-2.8000000000000003,5.5,10.4,-25.4,-38.60000000000001,-30.699999999999996,16
920,15467.0,-0.6000000000000001,1.7000000000000002,1.7000000000000002,-3.4000000000000004,5.800000000000001,10.4,-30.699999999999996,-43.800000000000004,-31.799999999999997,16
921,15484.0,-1.7000000000000002,2.3000000000000003,2.0,-4.5,6.2,10.8,-45.5,-41.6,-21.200000000000003,16
922,15500.0,-2.4000000000000004,2.0,4.3,-5.1000000000000005,5.800000000000001,13.200000000000001,-52.1,-14.100000000000001,-5.300000000000001,16
923,15517.0,-3.3000000000000003,1.7000000000000002,5.800000000000001,-6.0,5.5,14.8,-47.400000000000006,1.3,1.2000000000000002,16
924,15533.0,-4.7,0.5,7.7,-7.5,4.2,16.7,-24.599999999999998,14.600000000000001,14.200000000000001,16
925,15550.0,-5.7,-0.8,7.4,-8.5,2.8000000000000003,16.5,2.3,-0.2,20.599999999999998,16
926,15567.0,-6.0,-1.2000000000000002,6.6000000000000005,-8.8,2.5,15.700000000000001,12.4,-10.5,21.300000000000004,16
927,15584.0,-6.1000000000000005,-1.5,4.1000000000000005,-8.9,2.3000000000000003,13.3,27.2,-27.400000000000002,25.8,16
928,15600.0,-5.6000000000000005,-1.8,1.5,-8.200000000000001,2.1,10.700000000000001,32.2,-34.60000000000001,35.4,16
929,15617.0,-5.300000000000001,-2.0,0.30000000000000004,-7.4,1.8,8.3,28.200000000000003,-37.50000000000001,44.5,16
930,15635.0,-4.5,-2.3000000000000003,-1.9000000000000001,-6.9,1.7000000000000002,7.2,23.099999999999998,-36.0,47.3,16
931,15651.0,-3.8000000000000003,-2.4000000000000004,-3.2,-6.1000000000000005,1.7000000000000002,5.9,6.4,-31.400000000000002,51.300000000000004,16
932,15667.0,-3.4000000000000004,-2.3000000000000003,-3.5,-5.6000000000000005,1.8,5.6000000000000005,-7.9,-22.4,55.2,16
933,15683.0,-3.2,-2.4000000000000004,-3.4000000000000004,-5.300000000000001,1.7000000000000002,5.7,-11.000000000000002,-16.700000000000003,57.3,16
934,15700.0,-2.7,-2.4000000000000004,-3.6,-4.800000000000001,1.7000000000000002,5.5,-10.600000000000001,-9.8,60.2,16
935,15717.0,-2.3000000000000003,-2.3000000000000003,-4.0,-4.2,1.8,5.1000000000000005,-10.200000000000001,-4.1,60.300000000000004,16
936,15733.0,-2.2,-2.2,-4.1000000000000005,-4.1000000000000005,1.9000000000000001,5.0,-11.2,-2.4000000000000004,59.80000000000001,16
937,15750.0,-1.9000000000000001,-1.9000000000000001,-4.2,-3.7,2.2,4.9,-10.9,0.7,59.00000000000001,16
938,15767.0,-1.6,-1.7000000000000002,-4.1000000000000005,-3.4000000000000004,2.4000000000000004,5.0,-7.699999999999999,6.2,58.7,16
939,15784.0,-1.6,-1.4000000000000001,-4.1000000000000005,-3.3000000000000003,2.8000000000000003,5.0,-5.500000000000001,8.8,58.400000000000006,16
940,15800.0,-1.5,-1.1,-4.1000000000000005,-3.2,3.0,4.9,-3.1,13.5,58.7,16
941,15817.0,-1.5,-0.9,-4.1000000000000005,-3.2,3.2,4.9,-6.9,14.300000000000002,60.8,16
942,15834.0,-1.4000000000000001,-0.7000000000000001,-4.0,-3.1,3.4000000000000004,5.0,-13.399999999999999,14.0,64.7,16
943,15850.0,-1.4000000000000001,-0.6000000000000001,-3.8000000000000003,-3.1,3.5,5.2,-17.200000000000003,13.900000000000002,66.7,16
944,15867.0,-1.3,-0.30000000000000004,-3.2,-2.9000000000000004,3.7,5.800000000000001,-24.5,16.0,71.5,16
945,15883.0,-1.2000000000000002,-0.1,-2.2,-2.8000000000000003,3.9000000000000004,6.800000000000001,-29.300000000000004,18.900000000000002,74.89999999999999,16
946,15900.0,-1.3,0.1,-1.8,-2.9000000000000004,4.1000000000000005,7.2,-30.3,21.200000000000003,75.60000000000001,16
947,15917.0,-1.5,0.4,-0.7000000000000001,-3.1,4.3,8.200000000000001,-32.1,24.8,77.5,16
948,15934.0,-1.5,0.6000000000000001,0.5,-3.0,4.5,9.5,-31.799999999999997,27.0,79.3,16
949,15950.0,-1.5,0.6000000000000001,1.2000000000000002,-3.0,4.4,10.200000000000001,-30.3,24.8,78.5,16
950,15967.0,-1.7000000000000002,0.5,2.5,-3.2,4.4,11.600000000000001,-23.2,14.100000000000001,72.80000000000001,16
951,15983.0,-2.1,0.8,3.0,-3.6,4.6000000000000005,12.100000000000001,-4.9,4.0,66.1,16
952,16000.0,-2.4000000000000004,0.8,2.8000000000000003,-3.8000000000000003,4.6000000000000005,12.0,7.400000000000001,1.9,63.4,16
953,16017.0,-3.2,0.8,2.0,-4.5,4.800000000000001,11.100000000000001,29.300000000000004,5.8,60.5,16
954,16033.0,-3.7,0.5,0.8,-5.1000000000000005,4.6000000000000005,9.9,38.7,16.3,63.4,16
955,16050.0,-4.3,0.30000000000000004,0.2,-5.7,4.5,9.1,29.1,32.9,69.00000000000001,16
956,16067.0,-4.5,0.30000000000000004,0.0,-6.0,4.6000000000000005,8.9,19.799999999999997,44.10000000000001,73.0,16
957,16092.0,-6.6000000000000005,-0.30000000000000004,0.8,-8.200000000000001,4.0,9.700000000000001,-30.000000000000004,98.39999999999999,95.1,16
958,16112.0,-8.4,-2.1,3.9000000000000004,-10.3,2.1,12.9,-59.1,124.60000000000001,107.19999999999999,16
959,16117.0,-8.4,-2.1,3.9000000000000004,-10.3,2.1,12.9,-59.1,124.60000000000001,107.19999999999999,16
960,16134.0,-8.9,-3.0,7.1000000000000005,-11.200000000000001,1.1,16.1,-42.400000000000006,132.2,91.30000000000001,16
961,16150.0,-11.3,-0.1,4.5,-14.0,4.0,13.4,27.9,147.8,85.30000000000001,16
962,16167.0,-11.9,-0.6000000000000001,2.3000000000000003,-14.8,3.8000000000000003,11.100000000000001,72.4,181.1,138.10000000000002,16
963,16183.0,2.7,-5.4,-0.7000000000000001,-0.7000000000000001,-0.4,7.6000000000000005,144.9,312.40000000000003,272.90000000000003,16
964,16200.0,2.0,-6.6000000000000005,-4.5,-1.7000000000000002,-1.3,3.3000000000000003,-9.2,201.50000000000003,154.9,16
965,16217.0,1.6,-4.0,-6.6000000000000005,-2.0,1.1,1.3,-131.9,55.0,110.30000000000001,16
966,16234.0,1.4000000000000001,1.2000000000000002,-3.4000000000000004,-1.9000000000000001,5.7,5.1000000000000005,-328.3,-128.4,67.2,16
967,16253.0,-3.4000000000000004,4.800000000000001,8.1,-6.300000000000001,8.4,17.2,-309.4,-64.9,95.4,16
968,16268.0,-3.6,2.1,12.4,-6.6000000000000005,5.4,21.6,-61.9,122.90000000000002,179.40000000000003,16
969,16283.0,-0.4,-0.8,9.200000000000001,-3.5,2.8000000000000003,18.400000000000002,48.2,165.6,208.00000000000003,16
970,16300.0,4.1000000000000005,-3.9000000000000004,2.7,0.8,0.2,11.600000000000001,121.70000000000002,167.60000000000002,211.4,16
971,16317.0,5.0,-4.6000000000000005,-0.6000000000000001,1.7000000000000002,-0.1,8.0,68.3,73.8,173.20000000000002,16
972,16334.0,4.7,-4.0,-2.0,1.5,0.6000000000000001,6.5,30.4,14.200000000000001,156.4,16
973,16350.0,4.3,-2.5,-3.1,1.5,2.2,5.5,-21.8,-55.5,146.3,16
974,16367.0,4.3,-3.1,-3.1,2.0,1.7000000000000002,5.6000000000000005,-24.0,-67.3,149.9,16
975,16384.0,4.9,-3.2,-3.0,3.6,1.3,5.5,-9.700000000000001,-58.0,148.5,16
976,16400.0,5.800000000000001,-3.7,-3.5,4.1000000000000005,1.2000000000000002,5.2,28.3,-26.6,129.10000000000002,16
977,16417.0,6.0,-3.6,-4.1000000000000005,4.5,1.5,4.5,50.1,-3.7000000000000006,94.80000000000001,16
978,16433.0,5.5,-2.7,-4.4,4.2,2.5,4.0,48.800000000000004,4.800000000000001,55.8,16
979,16450.0,4.800000000000001,-2.0,-4.2,3.5,3.3000000000000003,4.1000000000000005,42.7,6.2,38.900000000000006,16
980,16467.0,3.8000000000000003,-0.6000000000000001,-3.6,2.6,4.7,4.7,28.0,7.6,17.7,16
981,16483.0,3.5,0.2,-2.6,2.3000000000000003,5.6000000000000005,5.6000000000000005,13.399999999999999,11.900000000000002,8.2,16
982,16500.0,3.5,0.4,-2.1,2.3000000000000003,5.9,6.1000000000000005,6.2,13.000000000000002,5.9,16
983,16517.0,3.9000000000000004,0.6000000000000001,-0.9,2.7,6.1000000000000005,7.300000000000001,-9.700000000000001,17.300000000000004,-0.7,16
984,16534.0,3.7,0.8,1.4000000000000001,2.4000000000000004,6.1000000000000005,9.600000000000001,-26.000000000000004,14.800000000000002,-13.700000000000001,16
985,16551.0,3.6,0.8,2.4000000000000004,2.4000000000000004,6.1000000000000005,10.700000000000001,-29.800000000000004,9.600000000000001,-20.8,16
986,16567.0,3.2,1.0,3.8000000000000003,2.0,6.2,12.200000000000001,-28.700000000000003,0.4,-39.2,16
987,16583.0,2.3000000000000003,1.5,4.2,0.9,6.7,12.600000000000001,-25.200000000000003,-1.4,-57.20000000000001,16
988,16600.0,1.5,1.9000000000000001,4.800000000000001,-0.7000000000000001,7.1000000000000005,14.5,-25.7,5.4,-63.2,16
989,16617.0,0.2,1.8,7.5,-1.4000000000000001,6.800000000000001,16.0,-18.4,25.4,-68.3,16
990,16633.0,-0.8,1.0,9.200000000000001,-2.5,6.0,17.8,14.700000000000001,22.000000000000004,-73.8,16
991,16650.0,-0.6000000000000001,1.3,5.1000000000000005,-2.6,6.4,13.700000000000001,50.3,-4.1,-78.7,16
992,16667.0,-0.7000000000000001,1.3,2.9000000000000004,-2.7,6.4,11.5,53.2,-10.299999999999999,-76.3,16
993,16684.0,-1.3,0.8,0.9,-3.4000000000000004,6.1000000000000005,9.4,38.300000000000004,-16.200000000000003,-64.80000000000001,16
994,16700.0,-2.3000000000000003,-0.2,1.3,-4.4,5.0,9.8,16.1,-24.7,-47.400000000000006,16
995,16717.0,-2.6,-0.8,1.9000000000000001,-4.800000000000001,4.4,10.4,7.200000000000001,-33.50000000000001,-39.9,16
996,16734.0,-3.1,-1.9000000000000001,2.8000000000000003,-5.2,3.3000000000000003,11.3,6.8,-52.00000000000001,-33.800000000000004,16
997,16750.0,-3.8000000000000003,-2.5,1.4000000000000001,-5.800000000000001,2.8000000000000003,10.0,27.2,-64.80000000000001,-44.8,16
998,16767.0,-3.9000000000000004,-2.2,-0.1,-5.9,3.0,8.4,37.9,-65.0,-51.300000000000004,16
999,16783.0,-4.0,-1.2000000000000002,-3.1,-6.0,4.2,5.300000000000001,45.9,-42.900000000000006,-55.5,16
1000,16800.0,-3.9000000000000004,-0.5,-4.5,-5.9,4.9,3.9000000000000004,33.50000000000001,-6.699999999999999,-45.2,16
1001,16818.0,-3.7,-0.30000000000000004,-4.4,-5.6000000000000005,5.1000000000000005,4.3,21.7,9.3,-37.2,16
1002,16834.0,-3.3000000000000003,-0.5,-3.4000000000000004,-5.5,5.0,4.9,-5.0,20.400000000000002,-23.099999999999998,16
1003,16850.0,-2.7,-0.9,-2.3000000000000003,-5.0,4.4,6.0,-25.6,5.0,-11.5,16
1004,16867.0,-2.3000000000000003,-1.1,-2.0,-4.6000000000000005,4.2,6.300000000000001,-29.800000000000004,-7.9,-7.400000000000001,16
1005,16883.0,-1.4000000000000001,-1.1,-2.5,-3.6,4.1000000000000005,5.9,-24.900000000000002,-28.0,-3.7000000000000006,16
1006,16900.0,-0.7000000000000001,-0.8,-3.5,-2.9000000000000004,4.3,4.9,-10.4,-22.8,0.1,16
1007,16917.0,0.1,-1.0,-3.9000000000000004,-2.1,4.2,4.5,3.9,-2.8,3.3000000000000007,16
1008,16933.0,0.30000000000000004,-1.1,-4.0,-1.9000000000000001,4.1000000000000005,4.4,9.2,6.0,3.2,16
1009,16950.0,0.5,-1.3,-3.7,-1.7000000000000002,3.8000000000000003,4.5,11.900000000000002,12.9,1.6,16
1010,16967.0,0.5,-1.4000000000000001,-3.2,-1.7000000000000002,3.8000000000000003,5.0,9.100000000000001,5.4,-1.5,16
1011,16985.0,0.4,-1.3,-3.0,-1.8,4.1000000000000005,5.300000000000001,8.3,-3.0,-4.5,16
1012,17001.0,0.4,-0.9,-2.8000000000000003,-1.9000000000000001,4.3,5.300000000000001,9.100000000000001,-4.6,-4.9,16
1013,17017.0,0.4,-0.6000000000000001,-2.6,-1.8,4.6000000000000005,5.5,11.5,-0.5,-3.5,16
1014,17033.0,0.4,-0.5,-2.3000000000000003,-2.0,4.800000000000001,6.1000000000000005,13.5,11.3,-2.3,16
1015,17050.0,0.1,-0.4,-1.4000000000000001,-2.1,4.9,6.7,13.6,16.4,-2.8,16
1016,17067.0,-0.2,-0.4,0.0,-2.5,4.9,8.0,15.299999999999999,17.200000000000003,-5.4,16
1017,17083.0,-0.1,0.0,0.5,-2.5,5.4,8.5,18.5,6.2,-10.1,16
1018,17100.0,-0.2,0.4,0.30000000000000004,-2.5,5.7,8.200000000000001,18.900000000000002,1.6,-13.000000000000002,16
1019,17117.0,-0.1,1.2000000000000002,0.1,-2.5,6.6000000000000005,8.1,13.399999999999999,-0.1,-15.899999999999999,16
1020,17136.0,-0.1,1.8,0.4,-2.5,7.300000000000001,8.4,6.1000000000000005,4.7,-13.3,16
1021,17153.0,0.30000000000000004,2.0,1.2000000000000002,-2.2,7.4,9.1,1.2000000000000002,9.600000000000001,-9.4,16
1022,17168.0,0.4,1.9000000000000001,1.8,-2.1,7.4,9.700000000000001,-1.2000000000000002,7.500000000000001,-9.2,16
1023,17184.0,0.9,2.2,2.3000000000000003,-1.6,7.6000000000000005,10.200000000000001,-7.8,-7.200000000000001,-10.5,16
1024,17200.0,1.1,2.2,2.2,-1.1,7.5,10.100000000000001,-14.0,-17.300000000000004,-11.000000000000002,16
1025,17217.0,1.5,2.3000000000000003,2.2,-0.9,7.6000000000000005,10.3,-33.1,-34.900000000000006,-11.700000000000001,16
1026,17234.0,1.3,2.8000000000000003,3.9000000000000004,-1.1,8.0,12.100000000000001,-50.900000000000006,-27.2,-13.900000000000002,16
1027,17250.0,0.7000000000000001,2.2,7.800000000000001,-1.7000000000000002,7.300000000000001,16.2,-42.0,5.4,-15.700000000000001,16
1028,17267.0,0.5,1.6,9.8,-1.9000000000000001,6.7,18.2,-24.3,14.100000000000001,-18.3,16
1029,17283.0,0.0,0.5,10.600000000000001,-2.4000000000000004,5.6000000000000005,19.1,27.400000000000002,0.2,-33.2,16
1030,17300.0,-0.6000000000000001,0.5,6.4,-3.0,5.800000000000001,14.8,63.10000000000001,-32.8,-48.400000000000006,16
1031,17317.0,-0.5,0.8,4.2,-2.9000000000000004,6.1000000000000005,12.600000000000001,66.0,-42.1,-49.800000000000004,16
1032,17333.0,-0.4,0.5,1.7000000000000002,-2.8000000000000003,5.9,10.100000000000001,52.80000000000001,-46.199999999999996,-44.5,16
1033,17350.0,0.1,-0.30000000000000004,1.0,-2.2,5.2,9.4,36.9,-47.900000000000006,-37.300000000000004,16
1034,17367.0,0.4,-0.8,0.8,-1.9000000000000001,4.800000000000001,9.1,32.8,-49.6,-35.3,16
1035,17383.0,1.0,-1.5,-0.1,-1.3,4.1000000000000005,8.200000000000001,30.699999999999996,-53.8,-35.5,16
1036,17400.0,1.2000000000000002,-2.0,-1.3,-0.9,3.6,7.0,30.5,-56.800000000000004,-40.1,16
1037,17417.0,1.1,-2.2,-1.9000000000000001,-1.1,3.4000000000000004,5.800000000000001,31.3,-57.00000000000001,-43.4,16
1038,17438.0,0.6000000000000001,-2.3000000000000003,-3.1,-1.6,3.4000000000000004,4.5,34.400000000000006,-54.800000000000004,-47.80000000000001,16
1039,17453.0,0.30000000000000004,-2.4000000000000004,-4.1000000000000005,-1.7000000000000002,3.4000000000000004,4.1000000000000005,39.300000000000004,-46.4,-45.9,16
1040,17467.0,0.2,-2.6,-4.800000000000001,-1.7000000000000002,3.2,3.3000000000000003,43.70000000000001,-34.1,-43.1,16
1041,17484.0,0.2,-2.7,-5.0,-1.7000000000000002,3.1,3.0,44.9,-28.900000000000002,-42.60000000000001,16
1042,17501.0,0.2,-2.7,-5.1000000000000005,-1.7000000000000002,3.2,2.8000000000000003,44.4,-21.6,-42.0,16
1043,17517.0,0.1,-2.7,-4.9,-1.9000000000000001,3.3000000000000003,2.9000000000000004,43.4,-16.1,-39.599999999999994,16
1044,17533.0,0.1,-2.7,-4.800000000000001,-1.9000000000000001,3.4000000000000004,3.0,43.1,-15.399999999999999,-37.9,16
1045,17550.0,0.30000000000000004,-2.3000000000000003,-4.5,-1.7000000000000002,3.8000000000000003,3.1,41.199999999999996,-15.8,-33.2,16
1046,17567.0,0.7000000000000001,-2.0,-4.1000000000000005,-1.3,4.2,3.3000000000000003,37.50000000000001,-17.1,-26.200000000000003,16
1047,17583.0,1.1,-1.7000000000000002,-4.0,-1.0,4.5,3.4000000000000004,33.50000000000001,-18.6,-23.099999999999998,16
1048,17600.0,1.6,-1.2000000000000002,-3.4000000000000004,-0.4,5.1000000000000005,4.0,18.8,-16.8,-19.799999999999997,16
1049,17617.0,2.2,-0.8,-1.2000000000000002,0.2,5.5,6.2,4.4,-6.0,-20.0,16
1050,17634.0,2.1,-0.5,1.7000000000000002,0.1,5.800000000000001,9.0,5.8,2.6,-29.500000000000004,16
1051,17650.0,1.8,0.1,2.5,-0.30000000000000004,6.300000000000001,9.9,12.200000000000001,3.6000000000000005,-35.0,16
1052,17667.0,1.0,1.1,2.7,-1.2000000000000002,7.300000000000001,10.0,24.3,5.2,-39.50000000000001,16
1053,17683.0,0.5,1.9000000000000001,1.9000000000000001,-1.8,8.200000000000001,9.200000000000001,20.3,6.8,-34.1,16
1054,17700.0,0.5,2.1,1.7000000000000002,-1.8,8.4,8.9,10.700000000000001,8.3,-29.700000000000006,16
1055,17717.0,0.4,2.1,1.9000000000000001,-2.0,8.4,9.200000000000001,-18.5,10.200000000000001,-22.4,16
1056,17733.0,0.1,2.0,3.2,-2.3000000000000003,8.200000000000001,10.600000000000001,-45.9,9.600000000000001,-19.1,16
1057,17750.0,-0.1,1.9000000000000001,3.7,-2.6,8.0,11.100000000000001,-54.50000000000001,8.0,-18.1,16
1058,17767.0,-0.30000000000000004,1.8,4.0,-2.9000000000000004,7.7,11.600000000000001,-67.00000000000001,1.7,-16.0,16
1059,17783.0,-0.30000000000000004,1.8,3.8000000000000003,-2.8000000000000003,7.5,11.600000000000001,-78.0,-1.4,-13.200000000000003,16
1060,17800.0,-0.4,1.7000000000000002,4.1000000000000005,-3.3000000000000003,7.1000000000000005,12.700000000000001,-84.6,9.3,-10.5,16
1061,17817.0,-1.1,1.3,5.5,-3.7,6.7,13.600000000000001,-81.3,16.3,-8.700000000000001,16
1062,17834.0,-1.9000000000000001,0.7000000000000001,6.800000000000001,-4.6000000000000005,6.0,15.100000000000001,-56.10000000000001,25.5,-5.6,16
1063,17851.0,-2.7,0.0,6.2,-5.5,5.2,14.600000000000001,-19.0,18.700000000000003,-4.1,16
1064,17867.0,-2.8000000000000003,-0.2,5.2,-5.7,5.0,13.5,-3.9,8.700000000000001,-4.2,16
1065,17884.0,-2.8000000000000003,-0.5,2.5,-5.7,4.6000000000000005,10.9,11.6,-14.200000000000001,-5.500000000000001,16
1066,17900.0,-2.8000000000000003,-0.5,-0.2,-5.7,4.6000000000000005,8.200000000000001,10.9,-30.5,-5.6,16
1067,17917.0,-2.8000000000000003,-0.6000000000000001,-1.2000000000000002,-5.6000000000000005,4.6000000000000005,7.2,6.9,-32.7,-2.7,16
1068,17933.0,-2.2,-0.8,-2.4000000000000004,-4.9,4.4,6.0,-3.0,-28.0,6.300000000000001,16
1069,17950.0,-1.5,-1.4000000000000001,-3.0,-4.1000000000000005,3.7,5.4,-11.700000000000001,-20.5,14.400000000000002,16
1070,17967.0,-1.2000000000000002,-1.7000000000000002,-3.1,-3.8000000000000003,3.4000000000000004,5.300000000000001,-14.0,-19.300000000000004,16.6,16
1071,17984.0,-0.6000000000000001,-2.1,-3.6,-3.1,3.0,4.800000000000001,-14.800000000000002,-22.5,17.300000000000004,16
1072,18000.0,-0.1,-2.2,-4.4,-2.5,2.8000000000000003,4.0,-11.5,-27.099999999999998,16.200000000000003,16
1073,18017.0,0.0,-2.2,-4.9,-2.3000000000000003,3.0,3.0,-9.600000000000001,-27.3,15.5,16
1074,18034.0,0.0,-1.8,-5.6000000000000005,-2.3000000000000003,3.2,2.8000000000000003,-8.600000000000001,-17.6,16.4,16
1075,18054.0,0.30000000000000004,-1.7000000000000002,-5.4,-1.9000000000000001,3.2,3.0,-7.8,-1.7,20.8,16
1076,18067.0,0.30000000000000004,-1.8,-4.9,-1.9000000000000001,3.2,3.5,-6.0,10.700000000000001,22.000000000000004,16
1077,18083.0,0.30000000000000004,-1.8,-4.5,-1.9000000000000001,3.2,3.8000000000000003,-5.2,14.200000000000001,22.2,16
1078,18100.0,0.2,-1.6,-4.0,-2.0,3.3000000000000003,4.3,-5.7,16.6,21.6,16
1079,18117.0,0.0,-1.2000000000000002,-3.5,-2.2,3.7,4.800000000000001,-8.5,14.5,21.500000000000004,16
1080,18133.0,-0.1,-1.0,-3.2,-2.3000000000000003,4.0,5.0,-10.5,14.600000000000001,21.500000000000004,16
1081,18150.0,-0.30000000000000004,-0.6000000000000001,-2.1,-2.5,4.3,6.1000000000000005,-13.700000000000001,21.500000000000004,21.8,16
1082,18167.0,-0.4,0.1,-0.7000000000000001,-2.7,4.9,7.6000000000000005,-12.9,28.400000000000002,21.6,16
1083,18183.0,-0.4,0.4,0.2,-2.7,5.2,8.5,-10.9,30.699999999999996,20.8,16
1084,18200.0,-0.30000000000000004,0.7000000000000001,2.2,-2.7,5.5,10.4,-3.4,29.600000000000005,15.8,16
1085,18217.0,-0.30000000000000004,1.2000000000000002,3.4000000000000004,-2.7,6.1000000000000005,11.600000000000001,9.0,18.4,7.500000000000001,16
1086,18233.0,-0.2,2.0,2.8000000000000003,-2.7,7.0,11.0,20.3,11.900000000000002,-0.7,16
1087,18251.0,-0.2,2.4000000000000004,2.5,-2.7,7.4,10.700000000000001,20.5,12.4,-1.9,16
1088,18267.0,-0.1,3.0,2.2,-2.6,8.1,10.5,9.600000000000001,13.8,0.5,16
1089,18283.0,0.30000000000000004,2.9000000000000004,3.1,-2.3000000000000003,7.9,11.3,-8.2,9.899999999999999,4.6,16
1090,18300.0,0.4,2.7,3.7,-2.1,7.800000000000001,12.0,-14.900000000000002,5.500000000000001,4.7,16
1091,18317.0,1.1,2.4000000000000004,4.2,-1.4000000000000001,7.4,12.5,-18.700000000000003,-4.800000000000001,0.30000000000000004,16
1092,18333.0,1.6,2.3000000000000003,3.8000000000000003,-0.9,7.300000000000001,12.200000000000001,-17.0,-4.2,-8.2,16
1093,18350.0,1.2000000000000002,2.4000000000000004,3.9000000000000004,-1.3,7.4,12.3,-15.5,1.7,-11.700000000000001,16
1094,18367.0,0.5,2.3000000000000003,4.800000000000001,-2.0,7.300000000000001,13.3,-10.5,18.1,-12.600000000000001,16
1095,18383.0,0.5,1.4000000000000001,5.800000000000001,-2.2,6.300000000000001,14.3,5.8,20.8,-12.4,16
1096,18400.0,0.7000000000000001,0.9,5.6000000000000005,-1.7000000000000002,5.7,13.200000000000001,16.900000000000002,12.7,-13.8,16
1097,18417.0,1.2000000000000002,0.5,3.6,-1.5,5.6000000000000005,12.100000000000001,31.799999999999997,-10.1,-21.6,16
1098,18433.0,1.3,0.4,1.4000000000000001,-1.4000000000000001,5.5,9.9,32.400000000000006,-21.900000000000002,-27.9,16
1099,18450.0,1.3,0.30000000000000004,0.5,-1.4000000000000001,5.5,8.200000000000001,30.000000000000004,-24.599999999999998,-29.900000000000006,16
1100,18467.0,1.1,0.2,-1.0,-1.5,5.4,7.4,22.9,-24.900000000000002,-32.0,16
1101,18483.0,0.9,0.0,-2.0,-1.7000000000000002,5.2,6.4,13.8,-21.7,-29.400000000000002,16
1102,18500.0,0.6000000000000001,-0.4,-2.7,-1.9000000000000001,4.800000000000001,5.7,3.0,-20.3,-23.400000000000002,16
1103,18517.0,0.6000000000000001,-0.6000000000000001,-3.0,-2.0,4.6000000000000005,5.4,-2.6,-19.9,-21.1,16
1104,18534.0,0.30000000000000004,-1.0,-2.6,-2.3000000000000003,4.2,5.800000000000001,-9.4,-14.0,-20.1,16
1105,18550.0,-0.1,-1.1,-1.7000000000000002,-2.7,4.0,6.7,3.4,-3.2,-21.900000000000002,16
1106,18569.0,-0.5,-1.4000000000000001,-1.7000000000000002,-3.1,3.8000000000000003,6.6000000000000005,28.700000000000003,7.8,-21.200000000000003,16
1107,18583.0,-0.5,-1.6,-1.9000000000000001,-3.2,3.6,6.4,39.400000000000006,7.8,-20.0,16
1108,18600.0,-0.30000000000000004,-2.1,-2.2,-3.0,3.3000000000000003,6.0,55.8,1.9,-19.300000000000004,16
1109,18617.0,-0.5,-2.1,-2.7,-3.2,3.4000000000000004,5.300000000000001,69.9,-5.9,-18.0,16
1110,18633.0,-0.4,-2.1,-3.2,-3.1,3.5,4.7,74.89999999999999,-9.8,-14.800000000000002,16
1111,18652.0,0.1,-2.1,-4.2,-2.6,3.6,3.5,75.3,-13.3,-4.800000000000001,16
1112,18668.0,0.9,-2.4000000000000004,-4.5,-1.8,3.5,3.1,59.80000000000001,-18.1,1.9,16
1113,18683.0,1.2000000000000002,-2.4000000000000004,-4.2,-1.4000000000000001,3.5,3.4000000000000004,48.400000000000006,-20.400000000000002,2.2,16
1114,18700.0,1.6,-2.1,-3.0,-1.0,3.9000000000000004,4.5,30.5,-21.1,-0.9000000000000001,16
1115,18717.0,1.6,-1.6,-1.7000000000000002,-0.9,4.5,5.800000000000001,25.0,-6.2,-4.6,16
1116,18733.0,1.4000000000000001,-1.2000000000000002,-0.8,-1.2000000000000002,4.800000000000001,6.6000000000000005,25.300000000000004,7.1000000000000005,-5.500000000000001,16
1117,18754.0,1.3,-0.9,1.5,-1.4000000000000001,5.300000000000001,9.4,31.3,30.1,-5.1000000000000005,16
1118,18767.0,1.1,-0.9,2.4000000000000004,-1.6,5.300000000000001,9.600000000000001,36.400000000000006,33.9,-11.000000000000002,16
1119,18784.0,1.0,-0.8,2.3000000000000003,-1.8,5.5,9.5,32.6,29.200000000000003,-15.6,16
