,ms,accelX,accelY,accelZ,accelWithGX,accelWithGY,accelWithGZ,rotRateAlpha,rotRateBeta,rotRateGamma,interval
0,126.0,0.0,0.0,0.30000000000000004,0.30000000000000004,5.5,8.4,-6.500000000000001,-3.9,1.0,16
1,140.0,0.0,-0.1,0.30000000000000004,0.30000000000000004,5.4,8.5,-5.7,-1.1,1.6,16
2,151.0,-0.1,-0.1,0.30000000000000004,0.2,5.4,8.6,-2.3,0.4,2.6,16
3,169.0,-0.1,0.0,0.30000000000000004,0.30000000000000004,5.5,8.6,-2.3,0.4,2.6,16
4,184.0,0.0,0.0,0.2,0.30000000000000004,5.4,8.5,8.5,0.8,3.4,16
5,200.0,0.1,-0.1,0.1,0.4,5.5,8.4,12.9,2.5,2.6,16
6,217.0,0.1,0.0,-0.1,0.4,5.6000000000000005,8.0,12.9,2.5,2.6,16
7,233.0,0.0,0.0,-0.4,0.2,5.6000000000000005,7.9,9.2,3.7000000000000006,0.5,16
8,250.0,-0.1,0.1,-0.30000000000000004,0.2,5.7,7.9,2.5,1.2000000000000002,2.0,16
9,267.0,-0.1,0.1,-0.2,0.30000000000000004,5.7,8.0,-3.0,-2.0,2.9,16
10,283.0,0.2,0.1,-0.1,0.5,5.7,8.1,-5.9,-1.4,2.7,16
11,301.0,0.2,0.0,-0.1,0.5,5.5,8.1,-4.7,2.5,2.0,16
12,318.0,0.2,-0.1,0.0,0.5,5.5,8.200000000000001,-0.5,4.2,0.9000000000000001,16
13,333.0,0.1,0.0,-0.2,0.4,5.6000000000000005,7.9,2.5,1.3,-1.0,16
14,350.0,-0.1,0.0,-0.2,0.2,5.6000000000000005,8.0,3.1,-1.4,-2.1,16
15,367.0,-0.1,0.0,0.0,0.2,5.5,8.1,2.2,-4.800000000000001,-1.2000000000000002,16
16,383.0,-0.1,-0.1,0.1,0.30000000000000004,5.4,8.3,3.0,-3.6000000000000005,1.4,16
17,401.0,0.0,-0.1,0.0,0.4,5.5,8.200000000000001,4.800000000000001,0.4,2.3,16
18,417.0,0.1,0.0,0.0,0.4,5.6000000000000005,8.3,5.9,3.6000000000000005,2.0,16
19,434.0,0.0,0.1,0.2,0.4,5.7,8.3,6.4,0.7,1.7,16
20,450.0,0.1,0.0,0.0,0.5,5.6000000000000005,8.1,8.700000000000001,0.4,1.0,16
21,467.0,0.2,-0.1,0.0,0.5,5.7,8.0,11.4,2.8,-2.1,16
22,483.0,0.1,0.1,-0.2,0.4,5.800000000000001,8.0,12.5,3.3000000000000007,-3.9,16
23,500.0,-0.1,0.1,-0.1,0.2,5.9,8.0,11.2,-1.0,-3.8,16
24,517.0,-0.2,0.2,-0.2,0.1,5.9,7.800000000000001,7.0,-5.500000000000001,-1.9,16
25,533.0,-0.1,0.0,-0.2,0.30000000000000004,5.7,7.9,2.0,-5.300000000000001,-0.2,16
26,550.0,0.1,-0.1,-0.2,0.4,5.7,7.9,-2.2,-2.5,0.30000000000000004,16
27,567.0,0.1,0.0,-0.1,0.5,5.7,8.0,-4.7,0.6000000000000001,-0.2,16
28,584.0,0.0,0.1,0.1,0.30000000000000004,5.800000000000001,8.200000000000001,-7.1000000000000005,-3.3000000000000007,-2.7,16
29,603.0,-0.2,0.0,0.1,0.2,5.7,8.200000000000001,-7.400000000000001,-3.0,-3.0,16
30,617.0,-0.1,-0.1,0.1,0.30000000000000004,5.5,8.1,-5.8,0.2,-1.5,16
31,633.0,-0.1,-0.2,0.0,0.2,5.5,8.200000000000001,-3.5,4.1,-1.6,16
32,650.0,0.0,-0.1,0.1,0.30000000000000004,5.5,8.1,-0.8,5.2,-0.8,16
33,667.0,0.0,-0.1,0.0,0.2,5.7,8.0,2.2,7.500000000000001,-0.7,16
34,684.0,-0.1,0.1,-0.2,0.2,5.800000000000001,7.800000000000001,3.1,8.5,-1.3,16
35,707.0,-0.1,0.2,-0.30000000000000004,0.1,5.9,7.800000000000001,1.6,5.0,-2.0,16
36,717.0,-0.1,0.2,-0.30000000000000004,0.1,5.9,7.7,-1.5,-1.3,-2.3,16
37,734.0,-0.1,0.1,-0.4,0.1,5.7,7.7,-4.800000000000001,-4.300000000000001,-1.8000000000000003,16
38,752.0,0.0,0.0,-0.30000000000000004,0.2,5.7,7.7,-7.1000000000000005,-4.1,-1.9,16
39,767.0,0.0,0.0,-0.2,0.30000000000000004,5.7,7.800000000000001,-8.5,-4.300000000000001,-2.9,16
40,784.0,0.1,0.0,-0.2,0.5,5.7,7.800000000000001,-9.100000000000001,-2.6,-4.5,16
41,813.0,0.1,0.2,-0.1,0.1,5.800000000000001,8.3,-16.6,-1.7,-10.5,16
42,817.0,0.1,0.2,-0.1,0.1,5.800000000000001,8.3,-16.6,-1.7,-10.5,16
43,834.0,-0.2,0.1,0.4,0.0,5.6000000000000005,8.6,-16.8,-2.6,-8.5,16
44,851.0,-0.30000000000000004,-0.1,0.6000000000000001,-0.1,5.4,8.700000000000001,-11.6,1.5,-4.9,16
45,868.0,-0.30000000000000004,-0.2,0.6000000000000001,-0.1,5.300000000000001,8.700000000000001,-3.1,5.2,-1.3,16
46,884.0,-0.2,-0.1,0.4,0.0,5.4,8.6,4.300000000000001,6.1000000000000005,0.1,16
47,901.0,0.0,0.1,0.0,0.1,5.6000000000000005,8.1,6.500000000000001,3.8,-1.2000000000000002,16
48,923.0,0.0,0.0,-0.5,0.1,5.5,7.6000000000000005,2.5,6.4,-2.0,16
49,934.0,0.0,0.0,-0.6000000000000001,0.1,5.5,7.7,-4.6,9.0,-2.2,16
50,951.0,0.0,0.0,-0.4,0.0,5.5,7.800000000000001,-10.9,6.500000000000001,-2.2,16
51,968.0,0.0,0.0,-0.4,0.0,5.300000000000001,7.800000000000001,-14.0,8.100000000000001,-2.4000000000000004,16
52,984.0,0.1,-0.30000000000000004,-0.4,0.1,5.1000000000000005,7.800000000000001,-15.000000000000002,12.9,-3.3000000000000007,16
53,1006.0,0.4,-0.30000000000000004,-0.30000000000000004,0.4,5.1000000000000005,7.9,-15.8,17.1,-5.1000000000000005,16
54,1021.0,0.6000000000000001,-0.2,-0.2,0.5,5.2,8.1,-16.200000000000003,16.6,-8.4,16
55,1041.0,0.1,0.0,0.1,0.1,5.300000000000001,8.3,-14.5,10.1,-11.700000000000001,16
56,1052.0,0.0,-0.1,0.2,-0.1,5.1000000000000005,8.4,-10.299999999999999,6.500000000000001,-12.7,16
57,1067.0,0.1,-0.2,0.0,0.0,5.0,8.0,-4.800000000000001,9.700000000000001,-10.700000000000001,16
58,1084.0,0.2,-0.2,-0.30000000000000004,0.1,5.0,7.9,-3.2,12.5,-11.000000000000002,16
59,1100.0,0.30000000000000004,-0.1,-0.4,0.1,5.1000000000000005,7.9,-5.8,13.5,-12.9,16
60,1117.0,0.4,-0.1,-0.30000000000000004,0.2,5.1000000000000005,8.1,-9.4,18.4,-13.900000000000002,16
61,1134.0,0.6000000000000001,-0.2,0.2,0.30000000000000004,4.9,8.5,-10.700000000000001,24.7,-16.700000000000003,16
62,1150.0,0.7000000000000001,-0.30000000000000004,0.4,0.1,5.1000000000000005,8.9,-6.8,32.8,-20.5,16
63,1167.0,0.4,0.1,0.7000000000000001,-0.1,5.300000000000001,8.9,1.7,33.2,-23.0,16
64,1184.0,0.2,0.5,0.8,-0.4,5.7,9.0,10.4,19.5,-25.5,16
65,1200.0,0.2,0.6000000000000001,0.6000000000000001,-0.4,5.7,9.0,10.4,19.5,-25.5,16
66,1217.0,0.2,0.5,0.1,-0.4,5.7,8.3,20.0,-6.4,-25.7,16
67,1234.0,0.2,0.4,-0.1,-0.4,5.7,8.1,17.0,-9.899999999999999,-23.400000000000002,16
68,1250.0,0.2,0.4,-0.1,-0.4,5.7,8.1,9.3,-5.9,-19.5,16
69,1267.0,0.30000000000000004,0.5,0.0,-0.30000000000000004,5.9,8.3,1.6,1.5,-14.800000000000002,16
70,1285.0,0.4,0.5,0.2,-0.2,5.9,8.4,-3.2,-0.9000000000000001,-10.9,16
71,1304.0,0.5,0.5,0.1,0.0,5.9,8.4,-4.1,-8.0,-10.0,16
72,1317.0,0.5,0.4,0.1,-0.1,5.800000000000001,8.3,-2.7,-15.5,-13.200000000000003,16
73,1334.0,0.30000000000000004,0.2,0.0,-0.2,5.6000000000000005,8.200000000000001,-1.8000000000000003,-20.400000000000002,-17.300000000000004,16
74,1351.0,0.2,0.0,-0.2,-0.2,5.6000000000000005,8.200000000000001,-1.8000000000000003,-20.400000000000002,-17.300000000000004,16
75,1368.0,0.2,0.0,-0.30000000000000004,-0.4,5.300000000000001,8.1,-10.600000000000001,-13.399999999999999,-18.700000000000003,16
76,1384.0,-0.1,-0.1,-0.1,-0.7000000000000001,5.2,8.200000000000001,-15.399999999999999,-11.3,-18.6,16
77,1406.0,-0.5,-0.1,0.0,-1.1,5.1000000000000005,8.3,-17.0,-13.200000000000003,-17.7,16
78,1419.0,-0.6000000000000001,-0.2,0.0,-1.2000000000000002,5.0,8.4,-16.0,-17.200000000000003,-14.700000000000001,16
79,1435.0,-0.6000000000000001,-0.30000000000000004,0.1,-1.0,5.0,8.5,-14.0,-20.5,-10.8,16
80,1453.0,-0.30000000000000004,-0.1,0.30000000000000004,-0.7000000000000001,5.1000000000000005,8.8,-11.8,-23.400000000000002,-9.3,16
81,1467.0,-0.30000000000000004,0.0,0.4,-0.7000000000000001,5.1000000000000005,8.9,-9.0,-22.6,-10.1,16
82,1484.0,-0.2,-0.1,0.2,-0.6000000000000001,5.0,8.5,-5.300000000000001,-16.0,-11.2,16
83,1500.0,-0.2,-0.2,-0.1,-0.6000000000000001,5.0,8.5,-5.300000000000001,-16.0,-11.2,16
84,1517.0,-0.5,-0.2,-0.6000000000000001,-1.0,4.9,7.7,-4.7,-10.4,-11.4,16
85,1534.0,-0.6000000000000001,-0.2,-0.8,-1.0,4.800000000000001,7.6000000000000005,-7.8,-13.700000000000001,-10.600000000000001,16
86,1551.0,-0.6000000000000001,-0.2,-0.8,-1.0,4.800000000000001,7.6000000000000005,-7.8,-13.700000000000001,-10.600000000000001,16
87,1567.0,-0.7000000000000001,-0.5,-0.9,-1.2000000000000002,4.4,7.6000000000000005,-14.100000000000001,-19.6,-10.299999999999999,16
88,1584.0,-0.9,-0.6000000000000001,-0.9,-1.2000000000000002,4.3,7.7,-18.700000000000003,-22.2,-8.600000000000001,16
89,1600.0,-0.9,-0.6000000000000001,-0.8,-1.2000000000000002,4.3,7.7,-24.1,-23.5,-5.4,16
90,1622.0,-0.6000000000000001,-0.5,-0.2,-0.9,4.2,8.4,-28.400000000000002,-23.5,-2.3,16
91,1640.0,-0.30000000000000004,-0.5,0.1,-0.5,4.2,8.8,-30.5,-22.4,-1.4,16
92,1651.0,-0.1,-0.5,0.4,-0.5,4.2,8.8,-30.5,-22.4,-1.4,16
93,1668.0,-0.1,-0.4,0.4,-0.5,4.0,9.200000000000001,-31.400000000000002,-11.000000000000002,-3.8,16
94,1684.0,-0.6000000000000001,-0.5,0.5,-0.8,3.9000000000000004,9.200000000000001,-28.800000000000004,-9.3,-5.4,16
95,1701.0,-0.8,-0.6000000000000001,0.4,-0.8,3.9000000000000004,9.200000000000001,-28.800000000000004,-9.3,-5.4,16
96,1721.0,-0.7000000000000001,-0.8,0.2,-0.7000000000000001,3.7,8.8,-21.1,-12.0,1.5,16
97,1739.0,-0.30000000000000004,-0.4,0.0,-0.30000000000000004,4.0,8.9,-20.1,-11.5,6.500000000000001,16
98,1750.0,-0.1,-0.2,0.2,-0.30000000000000004,4.0,8.9,-20.1,-11.5,6.500000000000001,16
99,1767.0,0.4,0.2,0.4,0.6000000000000001,4.4,9.200000000000001,-13.900000000000002,-11.6,5.2,16
100,1783.0,0.6000000000000001,0.30000000000000004,0.30000000000000004,0.6000000000000001,4.4,9.1,-8.4,-10.4,1.1,16
101,1800.0,0.6000000000000001,0.30000000000000004,0.2,0.6000000000000001,4.4,9.1,-8.4,-10.4,1.1,16
102,1817.0,0.4,0.4,-0.1,0.5,4.7,8.8,-3.3000000000000007,-14.5,-3.0,16
103,1834.0,0.6000000000000001,0.7000000000000001,-0.1,0.9,4.9,8.9,-7.9,-21.200000000000003,-3.9,16
104,1850.0,1.1,1.0,0.2,0.9,4.9,8.9,-15.5,-23.900000000000006,-7.1000000000000005,16
105,1867.0,1.3,1.0,0.30000000000000004,1.7000000000000002,5.0,9.3,-22.1,-17.6,-13.6,16
106,1883.0,1.3,0.8,0.4,1.4000000000000001,4.7,9.4,-26.1,-9.8,-22.4,16
107,1900.0,1.0,0.7000000000000001,0.5,1.4000000000000001,4.7,9.4,-26.1,-9.8,-22.4,16
108,1917.0,0.30000000000000004,0.6000000000000001,0.7000000000000001,0.5,4.4,9.700000000000001,-23.3,-6.699999999999999,-26.1,16
109,1934.0,0.30000000000000004,0.5,0.6000000000000001,0.6000000000000001,4.3,9.600000000000001,-17.6,-12.200000000000001,-21.300000000000004,16
110,1950.0,0.4,0.5,0.6000000000000001,0.6000000000000001,4.3,9.600000000000001,-11.5,-20.0,-18.200000000000003,16
111,1967.0,0.6000000000000001,0.6000000000000001,0.5,1.0,4.4,9.5,-6.9,-24.200000000000003,-18.1,16
112,1984.0,0.6000000000000001,0.5,0.2,1.0,4.3,9.3,-3.5,-19.5,-20.2,16
113,2000.0,0.6000000000000001,0.5,0.2,1.0,4.3,9.3,-3.5,-19.5,-20.2,16
114,2018.0,0.7000000000000001,0.6000000000000001,-0.2,1.1,4.4,8.6,2.4000000000000004,-10.0,-21.1,16
115,2034.0,0.5,0.6000000000000001,-0.8,0.8,4.5,8.3,1.4,-12.8,-21.400000000000002,16
116,2051.0,0.2,0.7000000000000001,-0.7000000000000001,0.8,4.5,8.3,1.4,-12.8,-21.400000000000002,16
117,2068.0,-0.1,0.5,-0.4,0.4,4.2,8.700000000000001,5.4,-19.799999999999997,-22.1,16
118,2085.0,-0.1,0.1,-0.5,0.30000000000000004,4.1000000000000005,8.4,9.4,-13.8,-22.2,16
119,2110.0,-0.2,0.30000000000000004,-0.9,0.2,4.2,8.1,7.200000000000001,-7.1000000000000005,-19.200000000000003,16
120,2117.0,-0.30000000000000004,0.4,-1.0,0.2,4.3,7.800000000000001,1.1,-5.2,-14.600000000000001,16
121,2134.0,-0.1,0.1,-1.4000000000000001,0.30000000000000004,4.1000000000000005,7.6000000000000005,-1.2000000000000002,-1.4,-13.000000000000002,16
122,2150.0,-0.2,0.0,-1.4000000000000001,0.30000000000000004,4.1000000000000005,7.6000000000000005,-1.2000000000000002,-1.4,-13.000000000000002,16
123,2167.0,-0.9,0.2,-1.5,-0.8,4.4,7.7,-1.0,-0.8,-13.6,16
124,2184.0,-1.6,0.7000000000000001,-1.0,-1.1,4.7,8.0,-6.4,2.7,0.5,16
125,2201.0,-0.7000000000000001,0.4,-0.9,-1.1,4.7,8.0,-6.9,2.5,11.2,16
126,2217.0,-0.5,-0.4,-0.7000000000000001,0.1,3.0,8.0,-1.9,-5.1000000000000005,7.300000000000001,16
127,2233.0,0.0,-1.2000000000000002,-0.6000000000000001,0.5,3.0,8.700000000000001,1.7,-9.700000000000001,-0.1,16
128,2251.0,0.2,-0.7000000000000001,0.2,0.5,3.0,8.700000000000001,1.7,-9.700000000000001,-0.1,16
129,2267.0,0.0,0.30000000000000004,0.6000000000000001,0.2,4.0,9.4,3.4,-17.400000000000002,-11.2,16
130,2284.0,-0.8,-0.5,0.4,-0.5,3.2,9.3,10.0,-19.5,-16.3,16
131,2303.0,-1.7000000000000002,-2.0,-0.4,-1.1,1.9000000000000001,8.5,15.100000000000001,-18.700000000000003,-19.200000000000003,16
132,2317.0,-1.2000000000000002,-2.8000000000000003,-0.1,-0.6000000000000001,0.7000000000000001,8.700000000000001,5.8,9.2,-8.3,16
133,2334.0,-1.8,-3.1,0.5,-1.7000000000000002,1.6,9.700000000000001,-15.6,19.1,9.4,16
134,2352.0,-2.9000000000000004,0.0,1.6,-2.4000000000000004,3.9000000000000004,10.700000000000001,-36.8,5.2,29.1,16
135,2368.0,-2.8000000000000003,0.6000000000000001,2.2,-1.6,4.0,10.200000000000001,-43.2,-34.2,44.2,16
136,2384.0,-1.5,-0.4,-0.30000000000000004,-0.6000000000000001,2.7,8.9,-59.9,-57.400000000000006,60.5,16
137,2413.0,0.1,-0.5,-1.0,1.9000000000000001,2.1,8.3,-109.8,-40.800000000000004,100.80000000000001,16
138,2417.0,0.1,-0.5,-1.0,1.9000000000000001,2.1,8.3,-109.8,-40.800000000000004,100.80000000000001,16
139,2434.0,0.7000000000000001,-1.3,-0.5,1.8,1.0,9.1,-128.4,-8.100000000000001,81.8,16
140,2451.0,0.2,-1.5,0.0,1.8,1.0,9.1,-128.4,-8.100000000000001,81.8,16
141,2468.0,-0.5,-2.0,0.8,1.6,0.0,10.9,-115.3,-30.699999999999996,26.1,16
142,2484.0,0.8,-1.3,2.4000000000000004,2.5,0.30000000000000004,12.0,-79.7,-15.8,-3.1,16
143,2506.0,0.6000000000000001,-1.4000000000000001,2.8000000000000003,2.0,0.0,12.4,-44.6,8.4,-11.1,16
144,2517.0,0.0,-1.9000000000000001,3.1,1.3,-0.30000000000000004,12.700000000000001,-10.200000000000001,33.2,-2.1,16
145,2534.0,0.30000000000000004,-1.2000000000000002,2.8000000000000003,1.7000000000000002,0.5,12.100000000000001,18.5,48.10000000000001,3.2,16
146,2552.0,0.8,-0.4,0.9,2.0,1.2000000000000002,10.5,33.50000000000001,32.0,-1.4,16
147,2568.0,0.8,-0.30000000000000004,0.1,2.0,1.4000000000000001,9.3,34.2,8.4,-14.300000000000002,16
148,2587.0,0.7000000000000001,-0.30000000000000004,-0.30000000000000004,1.7000000000000002,1.5,9.4,28.500000000000004,-17.200000000000003,-32.9,16
149,2608.0,-0.4,-0.5,0.30000000000000004,1.0,1.4000000000000001,10.0,18.4,-60.7,-54.800000000000004,16
150,2617.0,-0.7000000000000001,-0.6000000000000001,0.9,1.4000000000000001,1.3,11.100000000000001,11.000000000000002,-111.0,-67.4,16
151,2634.0,0.0,-0.30000000000000004,2.0,2.2,1.7000000000000002,11.3,16.5,-132.70000000000002,-59.300000000000004,16
152,2651.0,0.2,-0.2,1.7000000000000002,2.2,1.7000000000000002,11.3,16.5,-132.70000000000002,-59.300000000000004,16
153,2667.0,-0.2,-1.0,0.30000000000000004,1.7000000000000002,1.7000000000000002,9.8,48.400000000000006,-78.7,-11.4,16
154,2684.0,0.0,1.0,1.5,3.3000000000000003,3.2,11.0,57.00000000000001,-86.00000000000001,16.6,16
155,2700.0,1.0,0.5,2.4000000000000004,3.3000000000000003,3.2,11.0,57.00000000000001,-86.00000000000001,16.6,16
156,2717.0,-0.1,-1.2000000000000002,1.4000000000000001,2.9000000000000004,1.7000000000000002,9.4,61.199999999999996,-72.0,-16.0,16
157,2734.0,-0.2,-1.2000000000000002,0.6000000000000001,2.3000000000000003,1.7000000000000002,9.5,45.099999999999994,49.0,10.1,16
158,2750.0,-1.1,-0.9,0.4,2.3000000000000003,1.7000000000000002,9.5,45.099999999999994,49.0,10.1,16
159,2767.0,-1.9000000000000001,-0.9,1.2000000000000002,0.2,1.5,10.600000000000001,19.200000000000003,105.5,72.0,16
160,2783.0,-2.5,-1.7000000000000002,1.9000000000000001,-0.2,1.1,11.200000000000001,24.3,61.50000000000001,71.30000000000001,16
161,2800.0,-2.7,-1.7000000000000002,2.1,-0.2,1.1,11.200000000000001,24.3,61.50000000000001,71.30000000000001,16
162,2817.0,-0.7000000000000001,0.4,0.4,3.1,3.0,8.9,51.50000000000001,22.700000000000003,116.0,16
163,2834.0,2.2,-0.5,-2.3000000000000003,4.1000000000000005,2.8000000000000003,6.0,22.700000000000003,-41.0,53.0,16
164,2850.0,0.6000000000000001,0.5,-4.2,4.1000000000000005,2.8000000000000003,6.0,22.700000000000003,-41.0,53.0,16
165,2867.0,-1.1,0.1,-2.2,1.6,3.1,7.800000000000001,-66.7,30.4,20.1,16
166,2884.0,-0.7000000000000001,1.5,1.1,2.2,3.4000000000000004,10.9,-79.5,56.800000000000004,34.50000000000001,16
167,2900.0,0.5,0.6000000000000001,2.3000000000000003,2.2,3.4000000000000004,10.9,-79.5,56.800000000000004,34.50000000000001,16
168,2917.0,1.6,0.6000000000000001,2.6,4.3,3.0,11.5,-16.8,8.5,10.9,16
169,2941.0,2.8000000000000003,0.9,1.9000000000000001,5.5,3.3000000000000003,11.100000000000001,10.1,-29.600000000000005,-13.000000000000002,16
170,2952.0,3.0,1.4000000000000001,0.5,5.5,3.8000000000000003,9.700000000000001,25.1,-48.70000000000001,-38.300000000000004,16
171,2968.0,2.2,1.4000000000000001,-0.7000000000000001,4.3,3.6,8.200000000000001,16.0,-78.10000000000001,-64.0,16
172,2984.0,0.6000000000000001,0.6000000000000001,-0.7000000000000001,3.5,2.9000000000000004,8.700000000000001,-1.7,-115.20000000000002,-80.50000000000001,16
173,3000.0,0.1,0.0,0.1,3.5,2.9000000000000004,8.700000000000001,-1.7,-115.20000000000002,-80.50000000000001,16
174,3017.0,1.7000000000000002,-0.7000000000000001,-0.5,4.1000000000000005,1.6,9.1,-17.400000000000002,-73.2,-103.10000000000001,16
175,3034.0,-0.30000000000000004,-0.30000000000000004,0.5,3.1,2.4000000000000004,9.3,-11.8,-40.300000000000004,-110.10000000000001,16
176,3050.0,-0.4,-0.30000000000000004,0.2,3.1,2.4000000000000004,9.3,-11.8,-40.300000000000004,-110.10000000000001,16
177,3067.0,-0.9,-0.8,-0.2,2.5,2.4000000000000004,9.1,-3.9,-5.2,-82.0,16
178,3085.0,-1.1,-0.1,0.7000000000000001,2.1,2.6,9.700000000000001,3.0,3.8,-52.00000000000001,16
179,3100.0,-1.3,-0.5,0.9,2.1,2.6,9.700000000000001,3.0,3.8,-52.00000000000001,16
180,3117.0,-0.7000000000000001,0.30000000000000004,0.8,2.5,3.4000000000000004,9.3,9.700000000000001,-10.200000000000001,-25.300000000000004,16
181,3134.0,-0.5,0.1,-0.5,2.9000000000000004,3.1,8.200000000000001,3.7000000000000006,-8.3,-19.6,16
182,3151.0,0.0,0.2,-1.1,2.9000000000000004,3.1,8.200000000000001,3.7000000000000006,-8.3,-19.6,16
183,3168.0,0.4,0.1,-0.8,5.1000000000000005,1.1,9.4,-26.400000000000006,24.5,-15.299999999999999,16
184,3184.0,2.5,-3.0,2.2,4.9,0.9,10.9,-6.2,15.100000000000001,-41.50000000000001,16
185,3221.0,-0.6000000000000001,1.0,1.4000000000000001,1.8,3.7,9.5,40.800000000000004,-82.9,-76.5,16
186,3233.0,-0.6000000000000001,1.0,1.4000000000000001,1.8,3.7,9.5,40.800000000000004,-82.9,-76.5,16
187,3250.0,-4.2,0.0,-2.1,-0.30000000000000004,3.2,7.5,31.2,-92.2,-67.00000000000001,16
188,3267.0,-0.6000000000000001,-1.5,-1.6,3.9000000000000004,1.8,8.0,-19.9,-16.3,-6.500000000000001,16
189,3284.0,0.8,-1.5,-0.30000000000000004,3.9000000000000004,1.8,8.0,-19.9,-16.3,-6.500000000000001,16
190,3300.0,2.1,-1.4000000000000001,-0.1,5.300000000000001,1.8,8.9,-30.200000000000003,19.5,-3.5,16
191,3317.0,2.2,-1.6,-0.7000000000000001,5.300000000000001,1.5,8.1,-37.7,75.60000000000001,-6.1000000000000005,16
192,3333.0,2.2,-1.6,-0.7000000000000001,5.300000000000001,1.5,8.1,-52.7,115.39999999999999,-10.5,16
193,3350.0,-1.8,-1.1,0.4,1.3,0.5,9.9,-52.7,115.39999999999999,-10.5,16
194,3367.0,-2.2,-1.6,0.7000000000000001,1.4000000000000001,0.8,10.0,-69.60000000000001,50.3,61.8,16
195,3385.0,-2.2,-1.6,0.7000000000000001,1.4000000000000001,0.8,10.0,-69.60000000000001,50.3,61.8,16
196,3400.0,-2.2,-1.6,0.7000000000000001,1.4000000000000001,0.8,10.0,-69.60000000000001,50.3,61.8,16
197,3417.0,-1.2000000000000002,-1.5,-0.5,2.1,0.6000000000000001,9.1,-3.5,-65.3,87.60000000000001,16
198,3433.0,0.30000000000000004,-0.8,-0.2,4.0,1.6,8.8,23.400000000000002,-92.8,74.4,16
199,3450.0,0.8,-0.30000000000000004,-0.4,4.7,2.3000000000000003,8.8,23.400000000000002,-92.8,74.4,16
200,3467.0,1.8,0.8,0.1,5.800000000000001,3.5,9.8,66.80000000000001,-80.10000000000001,41.199999999999996,16
201,3483.0,2.9000000000000004,1.6,1.1,6.6000000000000005,4.1000000000000005,8.9,84.80000000000001,-56.0,10.8,16
202,3500.0,2.9000000000000004,1.5,0.1,5.5,4.1000000000000005,7.5,84.80000000000001,-56.0,10.8,16
203,3517.0,1.4000000000000001,1.5,-2.3000000000000003,4.3,4.3,6.0,90.6,69.3,-14.600000000000001,16
204,3534.0,0.8,0.7000000000000001,-2.6,3.7,4.1000000000000005,6.7,76.5,105.0,-3.8,16
205,3550.0,0.6000000000000001,1.0,-2.1,3.0,4.2,5.9,76.5,105.0,-3.8,16
206,3568.0,-1.0,0.7000000000000001,-4.6000000000000005,0.7000000000000001,3.8000000000000003,4.3,25.5,17.9,-27.800000000000004,16
207,3584.0,-2.1,-0.1,-2.4000000000000004,2.3000000000000003,3.6,8.5,-2.1,-25.300000000000004,-18.3,16
208,3600.0,-0.8,0.30000000000000004,-0.30000000000000004,3.6,4.0,9.4,-2.1,-25.300000000000004,-18.3,16
209,3618.0,1.0,0.4,0.7000000000000001,4.6000000000000005,3.1,8.8,-5.2,-23.099999999999998,6.4,16
210,3634.0,1.2000000000000002,0.2,-1.0,4.9,3.2,7.1000000000000005,-2.0,46.4,3.8,16
211,3651.0,1.9000000000000001,0.0,-1.7000000000000002,6.2,2.1,9.0,-2.0,46.4,3.8,16
212,3668.0,0.0,0.6000000000000001,-0.7000000000000001,2.5,3.9000000000000004,7.1000000000000005,-7.500000000000001,38.2,-49.699999999999996,16
213,3684.0,2.0,0.6000000000000001,-6.7,7.800000000000001,1.2000000000000002,7.800000000000001,-37.800000000000004,55.60000000000001,-8.5,16
214,3702.0,5.4,-1.7000000000000002,-1.2000000000000002,7.5,3.9000000000000004,12.5,-37.800000000000004,55.60000000000001,-8.5,16
215,3717.0,4.6000000000000005,1.4000000000000001,2.6,5.1000000000000005,3.3000000000000003,10.200000000000001,-51.70000000000001,133.60000000000002,-7.9,16
216,3737.0,1.6,0.30000000000000004,-0.1,1.8,2.9000000000000004,8.5,-42.5,132.0,-8.3,16
217,3751.0,0.5,0.4,-0.9,1.1,3.2,8.3,-42.5,132.0,-8.3,16
218,3767.0,0.6000000000000001,0.4,0.0,2.0,2.0,11.3,-83.00000000000001,96.4,-7.9,16
219,3786.0,0.9,-0.30000000000000004,2.8000000000000003,1.3,1.3,12.8,-76.5,73.4,-2.2,16
220,3807.0,0.4,-1.0,3.6,1.2000000000000002,0.5,13.4,-49.4,30.699999999999996,6.300000000000001,16
221,3818.0,0.4,-1.4000000000000001,3.7,0.0,0.30000000000000004,12.9,-18.700000000000003,-7.699999999999999,18.4,16
222,3834.0,0.30000000000000004,-1.5,-0.30000000000000004,6.4,2.6,7.4,20.0,-86.1,31.3,16
223,3851.0,5.2,0.6000000000000001,-2.2,7.5,3.3000000000000003,6.4,20.0,-86.1,31.3,16
224,3868.0,4.7,0.2,-3.4000000000000004,4.2,2.0,7.1000000000000005,-34.800000000000004,-20.400000000000002,-19.700000000000003,16
225,3885.0,2.2,-0.2,-1.4000000000000001,2.6,0.8,9.5,-49.300000000000004,-27.0,-37.300000000000004,16
226,3909.0,-0.6000000000000001,-1.3,0.9,-0.5,0.5,11.200000000000001,-49.300000000000004,-24.200000000000003,-41.4,16
227,3919.0,-2.0,-1.0,1.6,-0.9,0.8,11.4,-36.300000000000004,-26.1,-25.900000000000002,16
228,3934.0,-2.4000000000000004,-0.7000000000000001,1.5,-0.5,0.9,10.200000000000001,-17.7,-40.6,-6.2,16
229,3951.0,-2.3000000000000003,-0.6000000000000001,0.6000000000000001,-0.4,0.8,9.4,-17.7,-40.6,-6.2,16
230,3967.0,-1.9000000000000001,-0.8,-0.8,0.4,1.3,8.6,-10.700000000000001,-39.400000000000006,27.400000000000002,16
231,3984.0,-0.7000000000000001,0.6000000000000001,-0.8,2.2,2.3000000000000003,9.1,-16.0,-39.1,36.2,16
232,4008.0,0.4,1.2000000000000002,-0.2,2.4000000000000004,2.1,9.5,-22.2,-48.10000000000001,25.200000000000003,16
233,4017.0,0.2,0.9,0.0,2.8000000000000003,1.9000000000000001,9.600000000000001,-23.0,-50.8,10.5,16
234,4034.0,0.8,1.1,0.0,3.1,2.5,9.3,-22.5,-47.3,-3.1,16
235,4051.0,0.6000000000000001,1.4000000000000001,-0.2,2.1,2.1,9.1,-22.5,-47.3,-3.1,16
236,4068.0,-1.9000000000000001,0.5,-0.2,-0.6000000000000001,0.9,10.0,-37.1,-35.0,-25.300000000000004,16
237,4085.0,-4.1000000000000005,-0.5,1.7000000000000002,-2.0,0.2,12.0,-40.5,-26.700000000000003,-8.5,16
238,4114.0,-3.6,-0.6000000000000001,1.8,0.2,0.7000000000000001,10.3,-9.2,-40.300000000000004,34.50000000000001,16
239,4117.0,-3.6,-0.6000000000000001,1.8,0.2,0.7000000000000001,10.3,-9.2,-40.300000000000004,34.50000000000001,16
240,4134.0,-2.6,0.0,0.9,1.2000000000000002,1.0,9.700000000000001,-9.2,-40.300000000000004,34.50000000000001,16
241,4150.0,-0.8,0.5,0.1,2.6,1.1,9.8,-7.300000000000001,-35.3,40.1,16
242,4167.0,-0.5,0.1,0.8,1.6,0.2,10.100000000000001,-23.800000000000004,-4.9,15.399999999999999,16
243,4184.0,-1.7000000000000002,-0.5,-0.30000000000000004,1.4000000000000001,0.2,8.0,-18.3,9.100000000000001,11.5,16
244,4200.0,-1.5,-0.2,-1.5,2.0,0.4,7.800000000000001,-18.3,9.100000000000001,11.5,16
245,4218.0,-0.30000000000000004,0.4,-0.7000000000000001,3.0,0.8,10.100000000000001,-43.6,17.0,8.600000000000001,16
246,4234.0,0.0,0.30000000000000004,1.9000000000000001,2.1,0.0,12.4,-44.5,16.8,-3.1,16
247,4250.0,-0.6000000000000001,-0.1,2.9000000000000004,1.6,-0.4,12.700000000000001,-29.700000000000006,11.3,-9.8,16
248,4267.0,-1.5,-0.7000000000000001,2.5,0.9,-0.8,11.0,-5.6,2.8,-2.3,16
249,4284.0,-1.8,-1.0,0.6000000000000001,1.3,-1.1,9.1,7.699999999999999,-9.0,13.000000000000002,16
250,4300.0,-1.5,-1.2000000000000002,-0.4,1.7000000000000002,-1.2000000000000002,8.3,8.4,-13.700000000000001,30.200000000000003,16
251,4317.0,-0.4,-0.9,-1.5,4.0,-0.1,8.0,0.2,-21.200000000000003,37.7,16
252,4343.0,3.3000000000000003,0.5,-1.0,5.7,0.2,9.0,-22.8,-1.1,-3.8,16
253,4350.0,3.3000000000000003,0.5,-1.0,5.7,0.2,9.0,-22.8,-1.1,-3.8,16
254,4367.0,1.6,-0.1,0.1,3.1,-0.5,9.9,-29.500000000000004,16.6,-25.300000000000004,16
255,4384.0,0.2,-0.4,0.4,2.2,-0.6000000000000001,9.5,-22.9,12.299999999999999,-28.1,16
256,4400.0,-1.1,-0.5,-0.2,1.9000000000000001,-0.5,9.600000000000001,-21.6,-1.2000000000000002,-20.5,16
257,4417.0,-0.2,0.1,0.30000000000000004,3.5,-0.1,9.8,-16.8,-9.899999999999999,-10.700000000000001,16
258,4434.0,1.2000000000000002,0.2,0.1,4.1000000000000005,-0.1,9.3,-16.8,-8.100000000000001,-16.200000000000003,16
259,4450.0,1.2000000000000002,0.2,-0.1,4.0,0.0,9.5,-19.6,-1.1,-26.799999999999997,16
260,4467.0,1.2000000000000002,0.6000000000000001,0.6000000000000001,4.1000000000000005,0.2,10.0,-18.700000000000003,0.0,-40.4,16
261,4484.0,1.2000000000000002,0.6000000000000001,0.6000000000000001,4.1000000000000005,0.2,10.0,-18.700000000000003,0.0,-40.4,16
262,4500.0,0.2,0.1,-0.1,2.5,-0.30000000000000004,9.200000000000001,-17.300000000000004,21.300000000000004,-55.400000000000006,16
263,4517.0,-0.4,-0.1,-0.30000000000000004,2.3000000000000003,-0.4,9.1,-18.5,23.3,-50.5,16
264,4534.0,-0.30000000000000004,-0.1,-0.6000000000000001,2.9000000000000004,-0.7000000000000001,8.5,-14.400000000000002,15.299999999999999,-44.2,16
265,4551.0,0.1,-0.4,-1.0,2.8000000000000003,-0.6000000000000001,7.9,-12.9,7.0,-39.300000000000004,16
266,4575.0,-0.4,-0.7000000000000001,-1.2000000000000002,2.1,-0.9,9.4,-21.6,3.3000000000000007,-37.0,16
267,4585.0,-0.7000000000000001,-0.5,-0.1,2.0,-1.0,10.600000000000001,-31.099999999999998,-0.9000000000000001,-31.6,16
268,4601.0,-0.8,-0.5,1.1,2.0,-1.0,11.4,-28.500000000000004,-5.1000000000000005,-26.200000000000003,16
269,4617.0,-0.5,0.1,1.8,2.6,0.0,10.9,-16.6,-9.3,-23.099999999999998,16
270,4634.0,-0.2,0.5,1.5,2.3000000000000003,0.1,10.4,-16.6,-9.3,-23.099999999999998,16
271,4651.0,-0.9,0.30000000000000004,0.8,1.9000000000000001,-0.6000000000000001,10.8,-14.200000000000001,-22.1,-26.799999999999997,16
272,4667.0,-1.2000000000000002,-0.30000000000000004,2.0,1.6,-0.9,10.9,-3.3000000000000007,-25.4,-22.000000000000004,16
273,4684.0,-1.3,-0.6000000000000001,0.0,2.4000000000000004,-1.1,8.8,9.4,-23.700000000000003,-17.200000000000003,16
274,4703.0,-0.4,-0.30000000000000004,-0.30000000000000004,3.1,-0.7000000000000001,9.4,0.7,-13.5,-12.8,16
275,4718.0,0.0,-0.30000000000000004,0.0,3.4000000000000004,-0.7000000000000001,9.700000000000001,-0.1,-17.200000000000003,-15.6,16
276,4736.0,0.30000000000000004,-0.1,0.6000000000000001,3.4000000000000004,-0.4,10.200000000000001,3.7000000000000006,-21.7,-17.400000000000002,16
277,4750.0,0.2,0.0,0.8,3.0,-0.4,10.0,8.700000000000001,-26.6,-20.0,16
278,4767.0,-0.6000000000000001,-0.2,0.0,2.5,-0.5,8.700000000000001,11.4,-33.9,-17.0,16
279,4784.0,-1.0,-0.30000000000000004,-1.3,2.6,-0.6000000000000001,7.4,7.6,-32.9,-11.1,16
280,4805.0,-0.4,-0.30000000000000004,-1.6,3.5,-0.4,8.700000000000001,-5.4,-18.700000000000003,-6.4,16
281,4821.0,0.1,0.0,-0.6000000000000001,3.6,-0.1,9.600000000000001,-17.1,0.5,-3.8,16
282,4834.0,0.1,0.2,0.4,3.1,-0.2,9.9,-17.1,0.5,-3.8,16
283,4850.0,-0.4,0.2,0.6000000000000001,2.6,-0.5,9.9,-5.500000000000001,-7.0,-1.4,16
284,4869.0,-0.9,-0.1,0.5,2.9000000000000004,-0.4,9.600000000000001,-0.2,-10.0,5.7,16
285,4884.0,-0.6000000000000001,0.0,0.30000000000000004,3.1,-0.4,9.4,1.6,-8.100000000000001,9.600000000000001,16
286,4901.0,-0.1,0.0,0.30000000000000004,3.9000000000000004,-0.2,10.0,1.9,-9.700000000000001,10.9,16
287,4925.0,0.30000000000000004,0.1,1.1,4.3,-0.4,10.100000000000001,7.200000000000001,-9.899999999999999,9.5,16
288,4934.0,0.7000000000000001,0.0,0.9,5.0,-0.4,9.4,13.700000000000001,-10.600000000000001,8.899999999999999,16
289,4952.0,1.4000000000000001,0.0,0.2,5.4,-0.30000000000000004,8.9,17.300000000000004,-5.9,7.400000000000001,16
290,4967.0,1.7000000000000002,0.2,-0.8,5.1000000000000005,0.1,8.3,15.2,-10.600000000000001,0.8,16
291,4984.0,1.1,0.30000000000000004,-0.8,4.0,-0.4,8.8,9.4,-16.0,-8.5,16
292,5003.0,-1.8,-0.4,-0.1,0.5,-1.0,8.700000000000001,5.6,-19.5,-16.200000000000003,16
293,5019.0,-3.3000000000000003,-0.8,-0.4,0.8,-1.4000000000000001,8.200000000000001,7.200000000000001,-19.799999999999997,-8.8,16
294,5034.0,-2.5,-1.1,0.30000000000000004,0.5,-0.9,11.4,-11.6,32.0,11.5,16
295,5050.0,-3.0,-0.6000000000000001,2.1,0.2,-0.9,11.9,-10.700000000000001,59.5,30.1,16
296,5067.0,-2.9000000000000004,-0.5,1.9000000000000001,1.4000000000000001,-0.7000000000000001,10.0,9.0,45.2,46.1,16
297,5084.0,-0.2,-0.1,-0.30000000000000004,4.2,-0.2,8.700000000000001,17.5,30.9,56.800000000000004,16
298,5108.0,1.9000000000000001,0.0,-0.8,5.6000000000000005,-0.5,8.9,10.9,30.4,50.900000000000006,16
299,5117.0,2.5,-0.1,-0.5,5.7,-0.2,8.9,5.2,31.099999999999998,37.2,16
300,5133.0,2.6,0.2,-0.5,5.300000000000001,-0.1,8.6,5.2,31.099999999999998,37.2,16
301,5150.0,1.5,0.2,-1.1,4.0,-0.2,8.3,-4.1,25.300000000000004,-0.8,16
302,5168.0,0.7000000000000001,0.4,-0.5,3.3000000000000003,-0.1,9.700000000000001,-12.8,32.300000000000004,-9.2,16
303,5184.0,0.1,0.2,0.4,3.0,-0.30000000000000004,9.9,-10.0,27.9,-10.0,16
304,5201.0,0.2,0.2,0.5,3.1,-0.5,10.100000000000001,-5.0,16.700000000000003,-3.4,16
305,5218.0,0.30000000000000004,-0.2,0.6000000000000001,3.4000000000000004,-0.5,10.0,3.1,-0.2,3.0,16
306,5234.0,0.8,-0.2,-0.2,3.2,-0.7000000000000001,8.6,10.299999999999999,-9.5,4.2,16
307,5250.0,0.4,-0.30000000000000004,-0.9,2.6,-0.5,8.4,7.0,-0.4,1.6,16
308,5268.0,-0.6000000000000001,0.0,-1.0,2.3000000000000003,-0.6000000000000001,9.0,-1.1,1.2000000000000002,0.1,16
309,5288.0,-0.30000000000000004,-0.2,0.4,2.6,-0.7000000000000001,10.600000000000001,-7.200000000000001,2.8,2.8,16
310,5309.0,-0.30000000000000004,-0.5,1.4000000000000001,2.3000000000000003,-1.3,10.5,-3.0,-0.7,4.800000000000001,16
311,5317.0,-0.5,-0.9,1.0,2.4000000000000004,-1.5,9.5,8.899999999999999,-14.700000000000001,11.900000000000002,16
312,5333.0,-0.4,-1.0,0.1,3.0,-1.2000000000000002,9.200000000000001,8.899999999999999,-14.700000000000001,11.900000000000002,16
313,5350.0,-0.2,-0.2,-0.2,2.4000000000000004,-0.7000000000000001,9.3,3.7000000000000006,-11.000000000000002,14.300000000000002,16
314,5367.0,-0.4,-0.1,0.1,2.5,-0.6000000000000001,9.8,2.6,-19.300000000000004,14.0,16
315,5384.0,-0.5,-0.2,0.4,2.4000000000000004,-0.7000000000000001,9.8,2.6,-19.300000000000004,14.0,16
316,5400.0,-0.4,-0.30000000000000004,0.1,2.6,-1.0,9.5,4.7,-20.7,9.5,16
317,5417.0,-0.9,-0.6000000000000001,0.30000000000000004,2.2,-1.0,9.600000000000001,3.9,-9.100000000000001,10.8,16
318,5434.0,-0.9,-0.5,0.1,2.7,-0.7000000000000001,9.3,3.9,-9.100000000000001,10.8,16
319,5450.0,0.0,0.1,-0.1,3.7,-0.1,9.600000000000001,4.5,-0.6000000000000001,11.5,16
320,5467.0,0.9,0.2,0.2,4.2,-0.5,9.3,7.6,-4.0,1.2000000000000002,16
321,5484.0,0.8,-0.30000000000000004,-0.1,3.0,-0.8,9.4,8.2,4.6,-7.300000000000001,16
322,5500.0,-0.1,-0.5,0.0,1.9000000000000001,-0.9,8.9,11.4,8.100000000000001,-14.200000000000001,16
323,5517.0,-1.5,-0.9,-1.0,2.5,-0.4,8.700000000000001,8.4,14.400000000000002,-10.5,16
324,5534.0,-0.30000000000000004,0.2,0.1,1.9000000000000001,-0.4,10.0,-4.2,29.500000000000004,-3.5,16
325,5551.0,-1.0,-0.1,0.5,1.7000000000000002,-0.2,10.600000000000001,-4.6,27.0,-6.1000000000000005,16
326,5568.0,-0.9,0.30000000000000004,1.9000000000000001,2.1,-0.1,12.200000000000001,1.7,15.5,1.8000000000000003,16
327,5585.0,-0.8,0.5,2.6,2.1,0.2,11.4,21.1,0.2,4.800000000000001,16
328,5610.0,-0.4,0.4,0.7000000000000001,3.0,0.30000000000000004,9.0,37.9,-18.0,5.9,16
329,5617.0,0.1,0.4,-0.5,3.4000000000000004,0.2,8.5,40.300000000000004,-28.1,3.3000000000000007,16
330,5635.0,0.4,0.2,-1.0,3.4000000000000004,0.1,8.8,40.300000000000004,-28.1,3.3000000000000007,16
331,5650.0,0.4,0.1,-0.1,3.2,0.2,9.8,18.5,-3.6000000000000005,-13.900000000000002,16
332,5669.0,0.0,0.1,0.1,2.8000000000000003,0.4,9.1,21.900000000000002,5.300000000000001,-27.5,16
333,5688.0,-0.5,0.4,-0.2,2.4000000000000004,0.8,9.600000000000001,22.5,-10.0,-40.6,16
334,5710.0,-0.6000000000000001,0.2,0.7000000000000001,2.7,0.4,10.600000000000001,20.7,-28.400000000000002,-45.400000000000006,16
335,5717.0,-0.5,-0.1,1.2000000000000002,2.8000000000000003,-0.1,10.600000000000001,26.5,-29.600000000000005,-40.0,16
336,5734.0,-0.30000000000000004,-1.0,0.6000000000000001,3.1,-0.6000000000000001,9.200000000000001,36.300000000000004,-9.5,-33.9,16
337,5750.0,-0.1,-1.3,-0.2,3.3000000000000003,-0.8,8.6,42.1,7.500000000000001,-33.800000000000004,16
338,5768.0,-0.1,-1.4000000000000001,-1.6,2.8000000000000003,-0.4,6.5,45.7,12.8,-40.6,16
339,5785.0,-0.9,-1.3,-3.8000000000000003,1.3,0.1,6.2,32.8,29.600000000000005,-39.9,16
340,5807.0,-1.2000000000000002,-0.5,-1.8,1.2000000000000002,0.5,9.1,-2.4000000000000004,56.400000000000006,-32.6,16
341,5818.0,-1.4000000000000001,-0.5,-0.30000000000000004,0.2,0.6000000000000001,10.600000000000001,-26.700000000000003,72.4,-30.599999999999998,16
342,5834.0,-2.8000000000000003,0.0,2.9000000000000004,-0.30000000000000004,0.30000000000000004,13.0,-26.200000000000003,74.2,-19.1,16
343,5850.0,-2.5,-0.6000000000000001,3.4000000000000004,-0.30000000000000004,0.1,12.4,0.1,55.0,-4.2,16
344,5867.0,-2.1,-0.2,0.6000000000000001,0.7000000000000001,1.1,9.4,15.100000000000001,40.0,5.4,16
345,5884.0,-1.3,0.2,-0.30000000000000004,0.9,1.7000000000000002,9.1,15.100000000000001,40.0,5.4,16
346,5900.0,-1.1,1.2000000000000002,-0.6000000000000001,1.7000000000000002,1.8,10.100000000000001,0.5,6.9,7.200000000000001,16
347,5918.0,0.0,0.7000000000000001,1.5,1.3,1.6,11.0,0.8,10.0,-2.5,16
348,5934.0,-0.6000000000000001,0.7000000000000001,1.4000000000000001,1.0,1.2000000000000002,9.8,0.8,10.0,-2.5,16
349,5953.0,-0.9,0.2,-1.3,1.8,1.7000000000000002,7.5,7.8,-12.5,3.8,16
350,5968.0,0.30000000000000004,0.8,-1.4000000000000001,2.5,2.2,9.5,-9.600000000000001,-8.700000000000001,6.300000000000001,16
351,5986.0,0.1,1.5,0.0,1.1,2.2,8.8,-15.100000000000001,0.2,5.4,16
352,6008.0,-1.0,0.7000000000000001,-1.8,2.1,1.0,7.7,-19.6,0.30000000000000004,8.0,16
353,6018.0,0.1,0.2,-1.9000000000000001,3.8000000000000003,0.9,9.0,-33.0,1.2000000000000002,20.2,16
354,6036.0,2.9000000000000004,0.30000000000000004,0.6000000000000001,4.800000000000001,1.0,10.4,-36.8,-6.1000000000000005,13.5,16
355,6051.0,2.8000000000000003,0.30000000000000004,0.7000000000000001,4.0,0.8,9.700000000000001,-19.9,12.600000000000001,8.4,16
356,6067.0,1.0,-0.1,-1.4000000000000001,1.8,0.1,7.1000000000000005,-14.400000000000002,31.6,14.600000000000001,16
357,6087.0,-0.30000000000000004,-0.4,-3.0,1.8,-0.1,6.800000000000001,-31.0,44.2,32.2,16
358,6104.0,0.7000000000000001,-0.9,-1.6,3.0,-0.9,10.200000000000001,-57.60000000000001,42.5,46.199999999999996,16
359,6119.0,1.3,-0.9,0.5,4.0,-0.6000000000000001,11.9,-67.4,24.1,50.900000000000006,16
360,6134.0,2.3000000000000003,-0.6000000000000001,2.2,6.800000000000001,0.0,13.4,-67.4,24.1,50.900000000000006,16
361,6150.0,5.800000000000001,1.8,4.4,8.0,1.6,12.8,-11.3,1.8000000000000003,59.20000000000001,16
362,6167.0,6.300000000000001,0.8,0.8,6.2,1.0,9.0,19.200000000000003,-23.099999999999998,23.2,16
363,6184.0,4.3,1.1,-0.8,3.9000000000000004,0.6000000000000001,7.5,16.1,-40.0,5.8,16
364,6200.0,1.8,0.7000000000000001,-2.2,3.4000000000000004,0.0,7.2,-1.5,-49.50000000000001,3.4,16
365,6218.0,1.3,-0.4,-2.7,3.8000000000000003,-1.0,7.1000000000000005,-23.800000000000004,-46.800000000000004,-15.100000000000001,16
366,6235.0,0.9,-0.9,-2.4000000000000004,3.3000000000000003,-1.1,7.2,-43.900000000000006,-48.10000000000001,-28.700000000000003,16
367,6252.0,0.30000000000000004,-1.1,-2.1,3.5,-2.3000000000000003,11.3,-54.6,-35.2,-33.7,16
368,6273.0,2.0,-1.8,5.9,1.9000000000000001,-0.9,14.3,-16.200000000000003,-1.4,-40.1,16
369,6284.0,-0.6000000000000001,-0.6000000000000001,4.7,1.4000000000000001,-0.8,14.700000000000001,-16.200000000000003,-1.4,-40.1,16
370,6300.0,-1.9000000000000001,-1.3,2.8000000000000003,0.4,-1.2000000000000002,10.600000000000001,93.10000000000001,-27.099999999999998,-2.0,16
371,6317.0,-1.6,-1.4000000000000001,0.1,2.0,-1.1,9.0,99.2,-39.9,30.000000000000004,16
372,6333.0,-0.8,-1.6,-0.6000000000000001,2.6,-1.0,8.6,99.2,-39.9,30.000000000000004,16
373,6350.0,0.1,-1.2000000000000002,-0.9,3.9000000000000004,-0.2,8.4,69.4,-61.300000000000004,55.400000000000006,16
374,6367.0,1.9000000000000001,-0.6000000000000001,-1.5,5.4,0.0,7.0,40.2,-78.7,50.0,16
375,6384.0,2.0,-0.7000000000000001,-2.3000000000000003,7.7,0.0,5.6000000000000005,16.5,-77.4,30.000000000000004,16
376,6400.0,5.5,1.0,-5.800000000000001,4.9,1.4000000000000001,4.7,-25.6,-83.30000000000001,-23.0,16
377,6417.0,-0.6000000000000001,-1.0,-1.3,4.2,-0.4,9.200000000000001,-50.1,-52.80000000000001,-14.900000000000002,16
378,6436.0,0.7000000000000001,0.6000000000000001,0.7000000000000001,4.4,0.8,10.100000000000001,-57.699999999999996,-42.900000000000006,18.200000000000003,16
379,6450.0,0.4,0.6000000000000001,1.1,3.3000000000000003,-0.4,11.700000000000001,-58.1,-34.1,34.2,16
380,6467.0,-1.4000000000000001,-1.0,3.8000000000000003,3.8000000000000003,-1.2000000000000002,11.8,-47.3,-77.5,37.7,16
381,6484.0,0.6000000000000001,-1.1,1.5,5.2,-1.3,10.200000000000001,-26.1,-118.80000000000003,31.9,16
382,6501.0,1.0,-1.3,0.5,5.9,-1.6,8.700000000000001,-6.0,-115.50000000000003,10.1,16
383,6519.0,0.5,-1.6,-0.1,5.300000000000001,-1.6,8.200000000000001,14.0,-92.2,-13.6,16
384,6538.0,-0.30000000000000004,-1.2000000000000002,-0.30000000000000004,5.4,-0.6000000000000001,8.0,31.099999999999998,-75.7,-27.0,16
385,6550.0,0.0,-0.7000000000000001,-0.30000000000000004,6.300000000000001,-0.4,8.200000000000001,38.800000000000004,-62.300000000000004,-34.800000000000004,16
386,6571.0,1.4000000000000001,-0.6000000000000001,0.0,7.300000000000001,-0.4,8.0,38.2,-47.1,-52.300000000000004,16
387,6584.0,1.7000000000000002,-0.8,-0.2,7.1000000000000005,-0.4,7.9,38.2,-47.1,-52.300000000000004,16
388,6601.0,0.9,-1.1,-1.0,6.0,-0.5,6.5,35.2,-14.400000000000002,-88.8,16
389,6619.0,0.4,-1.4000000000000001,-1.8,6.2,-0.30000000000000004,6.2,33.400000000000006,0.1,-96.9,16
390,6634.0,0.6000000000000001,-1.4000000000000001,-2.0,5.800000000000001,-0.30000000000000004,6.2,33.400000000000006,0.1,-96.9,16
391,6650.0,-1.4000000000000001,-0.9,0.30000000000000004,2.0,2.5,9.1,46.4,17.300000000000004,-103.89999999999999,16
392,6669.0,-6.2,3.8000000000000003,-1.6,1.0,2.0,9.600000000000001,-3.2,-1.6,-43.4,16
393,6684.0,-4.5,0.5,1.5,3.5,1.2000000000000002,9.9,-23.3,-21.6,7.1000000000000005,16
394,6701.0,-1.6,0.2,0.5,4.5,1.6,8.700000000000001,-13.3,-19.300000000000004,14.700000000000001,16
395,6719.0,0.2,-0.2,1.9000000000000001,5.9,1.7000000000000002,11.0,-8.899999999999999,-11.8,13.6,16
396,6735.0,-1.1,1.2000000000000002,3.1,3.5,2.8000000000000003,10.9,9.100000000000001,-10.4,5.9,16
397,6755.0,-1.7000000000000002,1.8,2.4000000000000004,5.0,3.2,9.5,24.0,-26.300000000000004,8.700000000000001,16
398,6767.0,-0.7000000000000001,1.7000000000000002,1.5,5.5,2.4000000000000004,8.3,30.200000000000003,-46.800000000000004,15.399999999999999,16
399,6784.0,-0.2,0.9,0.30000000000000004,5.6000000000000005,2.2,7.300000000000001,34.900000000000006,-40.5,17.5,16
400,6801.0,-0.4,0.7000000000000001,-1.1,4.9,2.5,6.4,28.800000000000004,-16.3,18.3,16
401,6818.0,-1.5,1.1,-1.3,3.4000000000000004,2.3000000000000003,8.1,18.8,6.500000000000001,21.500000000000004,16
402,6839.0,-3.8000000000000003,0.2,4.2,6.800000000000001,2.6,9.9,8.700000000000001,-39.1,21.400000000000002,16
403,6856.0,-0.4,1.0,1.5,5.1000000000000005,2.9000000000000004,8.0,22.6,-116.6,-0.9000000000000001,16
404,6870.0,-1.4000000000000001,1.2000000000000002,0.7000000000000001,6.800000000000001,2.2,7.1000000000000005,35.1,-128.4,2.2,16
405,6884.0,0.1,0.4,0.0,7.4,2.3000000000000003,6.300000000000001,35.1,-128.4,2.2,16
406,6900.0,0.1,1.1,0.2,6.9,3.3000000000000003,8.8,43.00000000000001,-132.3,22.8,16
407,6917.0,-0.2,0.6000000000000001,3.5,7.7,1.7000000000000002,9.600000000000001,55.8,-173.79999999999998,36.1,16
408,6934.0,-0.4,-1.0,3.3000000000000003,7.5,0.5,8.700000000000001,86.00000000000001,-227.79999999999998,31.3,16
409,6950.0,-0.8,-1.5,3.5,7.6000000000000005,0.7000000000000001,8.200000000000001,108.2,-287.7,16.1,16
410,6967.0,-1.4000000000000001,-1.2000000000000002,2.9000000000000004,6.6000000000000005,1.0,5.0,124.8,-333.8,-4.4,16
411,6990.0,-2.1,-1.6,-4.4,8.200000000000001,3.8000000000000003,-13.600000000000001,132.3,-310.9,-35.4,16
412,7000.0,-0.9,1.3,-16.8,8.3,6.7,-5.2,-18.700000000000003,-55.5,-28.600000000000005,16
413,7035.0,-0.9,3.9000000000000004,-3.9000000000000004,9.5,3.3000000000000003,-1.6,-62.6,104.3,116.5,16
414,7055.0,0.4,-0.6000000000000001,-5.6000000000000005,7.800000000000001,-2.3000000000000003,2.6,-80.60000000000001,219.6,143.9,16
415,7074.0,-0.6000000000000001,-3.3000000000000003,-2.5,7.1000000000000005,-3.3000000000000003,3.2,-112.5,295.8,141.3,16
416,7087.0,-0.8,-4.6000000000000005,-1.6,7.0,-4.2,5.2,-129.70000000000002,330.6,106.30000000000001,16
417,7100.0,-0.4,-4.5,-1.3,7.1000000000000005,-5.2,7.6000000000000005,-125.60000000000001,328.90000000000003,42.5,16
418,7117.0,-0.1,-4.1000000000000005,2.2,6.1000000000000005,-3.3000000000000003,10.4,-108.39999999999999,296.8,-25.5,16
419,7134.0,-0.30000000000000004,-3.3000000000000003,2.9000000000000004,5.4,-1.9000000000000001,11.0,-108.39999999999999,296.8,-25.5,16
420,7150.0,-0.8,-0.5,4.1000000000000005,4.800000000000001,1.0,11.8,-62.300000000000004,166.10000000000002,-63.900000000000006,16
421,7169.0,-0.8,2.2,2.8000000000000003,4.9,2.3000000000000003,10.4,-57.400000000000006,105.20000000000002,-48.800000000000004,16
422,7183.0,-0.6000000000000001,2.4000000000000004,2.2,4.7,2.1,10.4,-57.400000000000006,105.20000000000002,-48.800000000000004,16
423,7206.0,0.5,1.7000000000000002,1.7000000000000002,6.4,1.1,9.200000000000001,-31.799999999999997,21.900000000000002,-32.1,16
424,7218.0,1.0,1.2000000000000002,0.9,6.5,0.8,7.9,-7.200000000000001,13.3,-27.2,16
425,7233.0,1.1,0.9,-0.5,6.5,0.4,7.1000000000000005,-7.200000000000001,13.3,-27.2,16
426,7250.0,1.2000000000000002,0.4,-1.3,6.4,0.1,7.4,-4.2,29.200000000000003,-7.500000000000001,16
427,7273.0,1.0,0.1,-0.2,5.9,0.0,9.200000000000001,-7.699999999999999,39.300000000000004,-8.0,16
428,7284.0,0.8,0.0,0.9,6.4,-0.7000000000000001,8.8,1.0,26.9,-8.8,16
429,7306.0,1.5,-1.2000000000000002,-0.6000000000000001,6.7,-1.6,6.2,14.800000000000002,-1.5,-9.700000000000001,16
430,7317.0,1.5,-1.6,-2.3000000000000003,6.7,-1.5,4.800000000000001,18.4,0.30000000000000004,-9.700000000000001,16
431,7335.0,2.1,-1.2000000000000002,-3.8000000000000003,7.5,-1.0,7.4,1.3,60.00000000000001,-0.2,16
432,7350.0,2.6,-1.0,-1.3,4.800000000000001,0.0,12.3,-3.1,104.00000000000001,-0.6000000000000001,16
433,7368.0,1.2000000000000002,0.4,3.8000000000000003,5.5,0.9,12.9,38.2,82.8,-15.100000000000001,16
434,7383.0,1.1,0.5,3.9000000000000004,4.7,1.1,12.5,38.2,82.8,-15.100000000000001,16
435,7404.0,0.7000000000000001,0.5,-0.7000000000000001,4.5,1.6,6.9,176.20000000000002,113.4,-8.899999999999999,16
436,7417.0,0.9,0.30000000000000004,-2.3000000000000003,2.4000000000000004,1.2000000000000002,7.7,142.0,126.89999999999999,6.0,16
437,7433.0,-1.1,-0.2,-1.5,0.30000000000000004,1.3,9.5,142.0,126.89999999999999,6.0,16
438,7453.0,-5.300000000000001,-0.2,1.7000000000000002,0.5,1.8,10.4,7.9,24.599999999999998,-12.7,16
439,7467.0,0.5,0.4,1.6,4.6000000000000005,1.8,10.600000000000001,21.200000000000003,5.500000000000001,-14.200000000000001,16
440,7486.0,0.30000000000000004,0.30000000000000004,0.7000000000000001,3.3000000000000003,2.0,10.0,33.9,-15.299999999999999,-19.5,16
441,7501.0,-0.1,0.2,0.8,4.2,1.4000000000000001,9.3,41.1,-15.000000000000002,-9.0,16
442,7517.0,-0.1,-1.2000000000000002,-0.30000000000000004,3.6,0.5,8.700000000000001,37.0,-11.700000000000001,-15.000000000000002,16
443,7534.0,0.2,-1.5,-0.5,5.7,0.1,8.9,19.9,3.3000000000000007,-19.1,16
444,7551.0,2.4000000000000004,-1.9000000000000001,-0.30000000000000004,5.1000000000000005,0.5,8.6,4.6,12.600000000000001,-28.3,16
445,7567.0,-1.4000000000000001,0.7000000000000001,-2.0,-0.9,5.800000000000001,4.3,-8.5,24.3,-25.7,16
446,7585.0,-2.3000000000000003,3.8000000000000003,-4.0,3.0,3.8000000000000003,7.9,-37.2,58.60000000000001,14.600000000000001,16
447,7606.0,1.4000000000000001,0.1,1.1,4.2,1.2000000000000002,13.0,-61.599999999999994,69.10000000000001,50.5,16
448,7617.0,1.4000000000000001,-0.4,3.6,3.2,2.1,13.200000000000001,-47.1,76.1,36.0,16
449,7633.0,0.5,0.5,3.8000000000000003,2.9000000000000004,1.9000000000000001,12.3,-47.1,76.1,36.0,16
450,7650.0,-0.1,-0.7000000000000001,1.4000000000000001,1.7000000000000002,0.8,9.9,26.400000000000006,24.0,7.400000000000001,16
451,7667.0,-0.7000000000000001,-0.9,-0.2,2.4000000000000004,0.8,8.4,41.900000000000006,-20.400000000000002,5.300000000000001,16
452,7683.0,-0.30000000000000004,-1.0,-1.1,3.1,0.6000000000000001,8.6,41.900000000000006,-20.400000000000002,5.300000000000001,16
453,7700.0,0.4,-1.0,0.2,2.5,1.1,9.4,15.6,-25.900000000000002,-9.700000000000001,16
454,7717.0,-0.1,-0.7000000000000001,-0.6000000000000001,2.6,1.2000000000000002,8.4,0.9000000000000001,-22.000000000000004,-12.299999999999999,16
455,7734.0,-0.30000000000000004,-0.7000000000000001,-0.9,3.0,0.6000000000000001,7.800000000000001,0.9000000000000001,-22.000000000000004,-12.299999999999999,16
456,7750.0,0.1,-1.1,-1.4000000000000001,3.2,1.2000000000000002,8.8,-23.400000000000002,-13.900000000000002,-2.2,16
457,7767.0,0.2,-0.2,0.4,3.1,1.6,9.700000000000001,-27.2,-13.000000000000002,3.2,16
458,7783.0,0.2,-0.1,0.4,2.6,2.0,9.1,-27.2,-13.000000000000002,3.2,16
459,7800.0,-0.30000000000000004,0.2,0.0,2.9000000000000004,1.4000000000000001,9.8,9.5,5.7,-23.6,16
460,7817.0,0.4,-0.1,0.5,3.4000000000000004,2.3000000000000003,9.3,10.700000000000001,-0.8,-31.6,16
461,7833.0,0.5,0.4,0.0,3.1,2.3000000000000003,8.200000000000001,10.700000000000001,-0.8,-31.6,16
462,7850.0,-0.1,-0.30000000000000004,-2.2,2.8000000000000003,0.8,6.5,-3.9,6.600000000000001,-12.4,16
463,7867.0,0.4,-0.7000000000000001,-2.2,3.6,1.8,9.1,-14.400000000000002,25.4,-10.4,16
464,7883.0,0.8,0.0,-0.2,3.3000000000000003,2.4000000000000004,10.200000000000001,-14.400000000000002,25.4,-10.4,16
465,7900.0,-0.1,1.2000000000000002,0.8,2.2,3.2,9.9,-4.5,37.300000000000004,-0.30000000000000004,16
466,7917.0,-0.1,1.2000000000000002,-0.2,2.4000000000000004,2.5,8.4,-7.200000000000001,34.300000000000004,11.5,16
467,7936.0,0.0,0.8,-1.0,2.8000000000000003,1.6,7.800000000000001,-7.200000000000001,34.300000000000004,11.5,16
468,7951.0,0.8,-0.6000000000000001,-1.3,3.2,0.6000000000000001,9.5,-26.6,52.80000000000001,20.8,16
469,7967.0,0.7000000000000001,-0.8,0.4,3.3000000000000003,-0.4,7.7,-19.9,49.50000000000001,11.1,16
470,7983.0,1.3,-1.9000000000000001,-1.8,2.6,-0.8,6.0,-19.9,49.50000000000001,11.1,16
471,8002.0,0.1,-1.3,-4.0,1.5,1.1,4.5,-28.500000000000004,150.8,-38.1,16
472,8021.0,-1.1,2.4000000000000004,-3.7,-1.1,2.1,5.0,-91.10000000000001,175.60000000000002,-37.2,16
473,8034.0,-1.6,1.3,-4.800000000000001,-1.9000000000000001,1.7000000000000002,10.600000000000001,-91.10000000000001,175.60000000000002,-37.2,16
474,8053.0,-1.0,0.30000000000000004,8.3,0.4,-0.5,18.2,-120.60000000000001,125.4,-7.699999999999999,16
475,8070.0,1.3,-1.4000000000000001,8.5,1.5,-0.8,14.5,-53.2,-60.6,-17.0,16
476,8091.0,1.7000000000000002,-0.9,2.6,2.3000000000000003,-0.5,11.100000000000001,-4.4,-51.9,-29.600000000000005,16
477,8101.0,2.5,-0.8,1.2000000000000002,-0.8,4.0,12.200000000000001,53.0,158.2,-42.2,16
478,8118.0,-0.8,3.4000000000000004,3.1,-0.9,2.2,15.9,27.6,186.4,-39.599999999999994,16
479,8134.0,0.0,1.6,6.0,0.0,2.3000000000000003,12.3,27.6,186.4,-39.599999999999994,16
480,8161.0,3.0,2.1,-2.7,3.1,2.4000000000000004,3.3000000000000003,74.7,131.2,-65.3,16
481,8169.0,3.0,2.1,-2.7,3.1,2.4000000000000004,3.3000000000000003,74.7,131.2,-65.3,16
482,10685.0,0.1,-0.4,0.4,1.5,2.8000000000000003,7.800000000000001,51.9,-4.9,30.599999999999998,16
483,10704.0,0.7000000000000001,0.0,-1.1,1.9000000000000001,3.2,6.800000000000001,52.1,0.5,18.8,16
484,10717.0,0.7000000000000001,0.1,-1.3,1.7000000000000002,3.3000000000000003,6.5,45.8,7.6,7.500000000000001,16
485,10731.0,0.1,0.30000000000000004,-1.3,1.2000000000000002,4.0,6.1000000000000005,45.8,7.6,7.500000000000001,16
486,10762.0,-0.4,1.4000000000000001,-2.2,0.9,4.7,5.5,23.099999999999998,19.300000000000004,21.400000000000002,16
487,10783.0,-0.4,1.4000000000000001,-2.2,0.9,4.7,5.5,23.099999999999998,19.300000000000004,21.400000000000002,16
488,10815.0,0.9,-0.4,-0.2,2.3000000000000003,3.0,8.200000000000001,-41.0,-2.6,21.900000000000002,16
489,10829.0,1.2000000000000002,0.4,3.8000000000000003,2.5,3.7,11.600000000000001,-29.300000000000004,-12.7,2.6,16
490,10846.0,1.2000000000000002,0.4,3.8000000000000003,2.5,3.7,11.600000000000001,-29.300000000000004,-12.7,2.6,16
491,10866.0,1.1,-0.2,4.7,2.9000000000000004,3.2,13.0,21.400000000000002,-24.8,-27.800000000000004,16
492,10879.0,1.1,-0.2,4.7,1.7000000000000002,3.8000000000000003,12.0,36.6,-17.5,-39.300000000000004,16
493,10897.0,-0.7000000000000001,2.1,1.7000000000000002,0.8,5.5,10.100000000000001,38.2,2.0,-35.1,16
494,10915.0,-0.7000000000000001,2.1,1.7000000000000002,0.8,5.5,10.100000000000001,38.2,2.0,-35.1,16
495,10931.0,-1.2000000000000002,2.7,0.9,0.5,6.5,8.5,25.5,28.700000000000003,-23.800000000000004,16
496,10946.0,-1.2000000000000002,2.7,0.9,0.7000000000000001,6.2,8.3,25.5,28.700000000000003,-23.800000000000004,16
497,10963.0,0.2,-0.1,1.3,1.8,2.2,11.0,-61.50000000000001,10.600000000000001,-16.4,16
498,10982.0,0.7000000000000001,-1.2000000000000002,2.5,2.1,1.4000000000000001,12.0,-61.50000000000001,10.600000000000001,-16.4,16
499,10997.0,0.9,-1.9000000000000001,4.1000000000000005,1.5,1.4000000000000001,13.200000000000001,-73.0,12.600000000000001,-13.3,16
500,11013.0,-0.1,-1.2000000000000002,3.9000000000000004,1.5,1.4000000000000001,13.200000000000001,-37.400000000000006,8.4,-13.100000000000001,16
501,11031.0,-1.1,-0.5,1.7000000000000002,-0.7000000000000001,2.4000000000000004,10.0,7.9,-9.899999999999999,-18.6,16
502,11047.0,-2.7,-0.5,-0.1,-1.6,2.6,8.700000000000001,36.9,-32.2,-16.0,16
503,11065.0,-2.7,-0.4,-0.6000000000000001,-1.6,2.6,8.700000000000001,44.00000000000001,-34.900000000000006,13.3,16
504,11084.0,-1.1,0.5,-0.2,0.8,4.3,8.6,44.9,-22.8,44.00000000000001,16
505,11098.0,1.0,1.5,-0.7000000000000001,2.6,4.800000000000001,7.9,39.50000000000001,-22.3,57.60000000000001,16
506,11118.0,1.9000000000000001,1.2000000000000002,-1.4000000000000001,3.3000000000000003,4.7,7.300000000000001,31.5,-13.000000000000002,55.400000000000006,16
507,11130.0,2.0,1.7000000000000002,-1.6,3.5,5.300000000000001,7.1000000000000005,24.900000000000002,20.0,47.60000000000001,16
508,11148.0,2.4000000000000004,1.5,-1.9000000000000001,3.8000000000000003,5.0,6.5,19.300000000000004,36.9,25.8,16
509,11164.0,2.6,1.2000000000000002,-2.5,3.8000000000000003,5.0,6.5,14.100000000000001,36.400000000000006,-4.800000000000001,16
510,11184.0,1.7000000000000002,0.2,-1.9000000000000001,2.3000000000000003,3.8000000000000003,6.9,11.1,31.6,-34.400000000000006,16
511,11197.0,-0.2,-0.4,-1.5,0.6000000000000001,3.4000000000000004,7.0,15.700000000000001,21.300000000000004,-53.0,16
512,11213.0,-1.0,-0.5,-1.5,0.6000000000000001,3.4000000000000004,7.0,22.8,21.1,-51.800000000000004,16
513,11229.0,-1.8,-0.5,-1.5,-0.9,3.5,6.800000000000001,29.900000000000006,23.0,-38.1,16
514,11248.0,-1.5,-0.30000000000000004,-1.6,-0.5,3.9000000000000004,6.7,32.1,14.300000000000002,-23.900000000000006,16
515,11263.0,-1.1,-0.1,-1.7000000000000002,-0.5,3.9000000000000004,6.7,30.5,4.300000000000001,-16.3,16
516,11281.0,-0.30000000000000004,0.2,-1.6,0.4,4.5,6.6000000000000005,27.5,-1.0,-16.1,16
517,11297.0,-0.5,0.5,-1.3,0.1,4.7,6.800000000000001,25.1,-3.4,-21.1,16
518,11313.0,-0.7000000000000001,0.5,-1.1,0.1,4.7,6.800000000000001,20.1,3.0,-22.1,16
519,11329.0,-1.7000000000000002,0.30000000000000004,0.4,-1.7000000000000002,4.7,9.200000000000001,14.600000000000001,10.700000000000001,-18.1,16
520,11347.0,-2.8000000000000003,0.5,2.3000000000000003,-2.3000000000000003,5.0,10.5,23.2,19.9,-1.3,16
521,11363.0,-2.8000000000000003,0.6000000000000001,2.6,-2.3000000000000003,5.0,10.5,43.4,4.4,26.000000000000004,16
522,11381.0,-1.5,-0.4,1.5,-0.30000000000000004,4.0,8.6,65.89999999999999,-29.600000000000005,44.6,16
523,11399.0,-0.1,-0.5,0.1,0.7000000000000001,4.800000000000001,8.1,79.39999999999999,-33.50000000000001,40.4,16
524,11413.0,0.1,0.5,0.6000000000000001,0.7000000000000001,4.800000000000001,8.1,68.80000000000001,-0.4,35.1,16
525,11430.0,0.6000000000000001,2.2,1.7000000000000002,1.8,7.5,9.600000000000001,46.0,47.7,40.4,16
526,11447.0,2.2,2.4000000000000004,1.8,1.8,7.5,9.600000000000001,25.1,97.40000000000002,42.60000000000001,16
527,11463.0,1.7000000000000002,2.6,2.3000000000000003,2.4000000000000004,7.7,9.8,13.200000000000003,129.20000000000002,29.0,16
528,11480.0,-1.1,2.4000000000000004,2.3000000000000003,-1.7000000000000002,7.5,9.700000000000001,12.5,123.1,13.399999999999999,16
529,11498.0,-2.0,1.9000000000000001,1.3,-2.2,7.300000000000001,9.200000000000001,15.8,95.69999999999999,11.2,16
530,11512.0,-1.8,1.9000000000000001,1.4000000000000001,-2.2,7.300000000000001,9.200000000000001,5.300000000000001,52.1,17.799999999999997,16
531,11531.0,-0.7000000000000001,1.8,2.0,-0.5,6.800000000000001,10.0,-19.9,13.700000000000001,22.8,16
532,11546.0,0.0,1.3,2.0,-0.5,6.800000000000001,10.0,-41.199999999999996,24.7,22.3,16
533,11563.0,1.1,0.0,1.5,0.5,5.6000000000000005,9.700000000000001,-51.70000000000001,65.3,15.6,16
534,11581.0,-0.4,0.4,1.3,-2.3000000000000003,5.4,9.5,-56.9,89.5,3.3000000000000007,16
535,11596.0,-2.0,0.4,1.2000000000000002,-2.3000000000000003,5.4,9.5,-45.400000000000006,58.60000000000001,-2.6,16
536,11614.0,-2.9000000000000004,-0.2,1.3,-3.8000000000000003,4.9,9.3,-18.8,-15.399999999999999,-6.2,16
537,11630.0,-1.9000000000000001,0.0,0.5,-1.7000000000000002,4.9,8.700000000000001,-1.0,-61.10000000000001,0.8,16
538,11662.0,0.7000000000000001,-0.7000000000000001,-1.3,0.0,4.5,7.5,1.6,-68.3,16.4,16
539,32846.0,-0.30000000000000004,-0.2,0.4,-0.9,5.9,9.8,-37.1,22.000000000000004,-13.5,16
540,32858.0,-0.4,-0.2,0.6000000000000001,-0.9,5.9,9.8,-37.1,22.000000000000004,-13.5,16
541,32876.0,-0.5,-0.1,0.8,-1.2000000000000002,5.9,10.600000000000001,-27.3,11.000000000000002,-8.4,16
542,32891.0,-0.5,-0.1,0.8,-1.2000000000000002,5.9,10.600000000000001,-27.3,11.000000000000002,-8.4,16
543,32915.0,1.0,-0.5,0.9,0.6000000000000001,5.4,11.4,17.5,-8.5,19.700000000000003,16
544,32925.0,1.3,-0.6000000000000001,0.4,0.8,5.7,10.700000000000001,17.5,-8.5,19.700000000000003,16
545,32941.0,1.1,-0.2,0.0,0.8,5.7,10.700000000000001,24.8,14.0,20.5,16
546,32959.0,0.2,0.8,-0.2,0.1,6.7,10.5,15.299999999999999,20.599999999999998,15.8,16
547,32974.0,0.2,0.8,-0.2,0.1,6.7,10.5,15.299999999999999,20.599999999999998,15.8,16
548,32993.0,-0.1,0.2,-0.30000000000000004,-0.30000000000000004,6.2,10.3,-23.800000000000004,2.4000000000000004,6.8,16
549,33009.0,-0.1,-0.1,-0.1,-0.5,5.5,10.700000000000001,-41.4,-4.2,6.1000000000000005,16
550,33025.0,-0.4,-1.0,0.1,-0.7000000000000001,4.5,10.8,-50.0,7.400000000000001,12.200000000000001,16
551,33041.0,-0.4,-1.0,0.1,-0.7000000000000001,4.5,10.8,-50.0,7.400000000000001,12.200000000000001,16
552,33058.0,-0.4,-1.0,0.1,-0.7000000000000001,4.5,10.8,-50.0,7.400000000000001,12.200000000000001,16
553,33075.0,-0.2,-1.3,-0.7000000000000001,-0.2,4.0,9.5,-46.50000000000001,25.7,36.9,16
554,33092.0,0.4,-0.8,-1.8,0.5,4.2,8.4,-29.200000000000003,4.7,43.4,16
555,33108.0,1.4000000000000001,-1.0,-2.7,1.7000000000000002,3.7,7.0,10.299999999999999,-10.200000000000001,36.5,16
556,33126.0,1.6,-1.2000000000000002,-3.3000000000000003,1.7000000000000002,3.7,7.0,21.7,-10.700000000000001,23.900000000000006,16
557,33141.0,0.8,-0.9,-4.2,1.0,4.1000000000000005,5.9,20.0,-14.200000000000001,10.299999999999999,16
558,33159.0,-0.30000000000000004,-0.7000000000000001,-3.1,0.1,4.2,6.5,-0.7,-18.3,1.9,16
559,33175.0,0.8,-0.6000000000000001,-3.2,-0.2,3.7,6.9,-25.1,-6.0,-6.1000000000000005,16
560,33192.0,-0.5,-1.0,-2.7,-0.2,3.7,6.9,-25.1,-6.0,-6.1000000000000005,16
561,33208.0,0.6000000000000001,0.7000000000000001,-3.3000000000000003,0.7000000000000001,5.0,6.300000000000001,-18.3,-40.6,17.200000000000003,16
562,33226.0,0.8,-0.6000000000000001,-3.2,1.4000000000000001,3.7,6.1000000000000005,13.5,-42.1,36.5,16
563,33242.0,0.5,-1.0,-3.1,1.4000000000000001,3.7,6.1000000000000005,13.5,-42.1,36.5,16
564,33259.0,2.2,-0.6000000000000001,-0.7000000000000001,2.8000000000000003,4.0,7.800000000000001,52.900000000000006,-0.8,44.7,16
565,33276.0,2.8000000000000003,-0.4,2.9000000000000004,3.3000000000000003,4.0,10.9,150.70000000000002,27.400000000000002,24.1,16
566,33292.0,2.1,-1.5,2.1,3.3000000000000003,4.0,10.9,150.70000000000002,27.400000000000002,24.1,16
567,33309.0,1.3,-4.0,-0.8,2.4000000000000004,2.2,8.1,168.0,3.6000000000000005,1.5,16
568,33325.0,2.3000000000000003,-3.3000000000000003,-2.7,3.6,2.9000000000000004,5.2,124.7,-96.9,-31.2,16
569,33342.0,-5.300000000000001,-0.1,-5.2,-3.2,5.9,2.6,83.30000000000001,-188.10000000000002,-43.1,16
570,33359.0,0.1,-5.2,-5.1000000000000005,-0.9,3.6,2.1,62.1,-151.4,15.6,16
571,33375.0,0.0,-4.0,-0.8,3.0,0.6000000000000001,6.6000000000000005,10.299999999999999,-173.4,82.39999999999999,16
572,33393.0,0.0,-5.300000000000001,-0.4,3.0,0.6000000000000001,6.6000000000000005,10.299999999999999,-173.4,82.39999999999999,16
573,33408.0,0.1,-7.7,-0.1,3.8000000000000003,-1.8,6.5,39.1,-212.8,133.60000000000002,16
574,33425.0,-0.2,-7.800000000000001,0.2,2.5,-2.2,4.4,107.30000000000001,-373.6,122.20000000000002,16
575,33443.0,-2.9000000000000004,-7.300000000000001,-1.0,2.5,-2.2,4.4,107.30000000000001,-373.6,122.20000000000002,16
576,33458.0,-2.6,-9.5,-3.5,3.0,-4.2,1.6,128.20000000000002,-372.40000000000003,148.5,16
577,33475.0,-2.0,-9.600000000000001,-5.1000000000000005,5.300000000000001,-5.7,-2.3000000000000003,68.1,-279.9,217.80000000000004,16
578,33493.0,-1.8,-9.4,-5.300000000000001,5.300000000000001,-5.7,-2.3000000000000003,68.1,-279.9,217.80000000000004,16
579,33513.0,0.4,-8.1,-1.9000000000000001,7.4,-5.5,-0.4,10.700000000000001,-249.00000000000003,252.20000000000002,16
580,33527.0,4.4,-6.9,3.8000000000000003,14.600000000000001,-5.4,6.0,-27.099999999999998,-260.8,278.40000000000003,16
581,33543.0,6.300000000000001,-6.6000000000000005,4.6000000000000005,14.600000000000001,-5.4,6.0,-27.099999999999998,-260.8,278.40000000000003,16
582,33561.0,7.7,-4.800000000000001,5.4,16.400000000000002,-4.800000000000001,6.5,-14.100000000000001,-219.20000000000002,266.20000000000005,16
583,33576.0,5.5,-3.8000000000000003,5.1000000000000005,14.700000000000001,-4.2,6.5,-7.6,-73.30000000000001,260.29999999999995,16
584,33592.0,5.800000000000001,-3.1,5.6000000000000005,14.700000000000001,-4.2,6.5,-7.6,-73.30000000000001,260.29999999999995,16
585,33618.0,8.8,0.2,4.0,18.0,-2.0,4.3,22.4,-85.9,263.1,16
586,33626.0,9.3,1.1,2.9000000000000004,19.5,-1.1,3.0,23.3,-92.90000000000002,254.2,16
587,33642.0,10.4,2.0,2.5,19.5,-1.1,3.0,23.3,-92.90000000000002,254.2,16
588,33659.0,14.9,4.5,2.1,23.3,0.4,2.7,20.3,-89.6,224.8,16
589,33676.0,11.3,6.4,0.0,18.0,2.8000000000000003,0.6000000000000001,-16.1,51.70000000000001,123.00000000000001,16
590,33696.0,6.4,7.1000000000000005,0.5,15.200000000000001,3.1,1.6,-30.200000000000003,76.60000000000001,106.4,16
591,33716.0,5.6000000000000005,7.5,0.30000000000000004,15.200000000000001,3.4000000000000004,0.6000000000000001,-25.8,54.4,89.10000000000001,16
592,33726.0,6.7,7.800000000000001,-1.6,17.8,4.6000000000000005,-3.2,-25.900000000000002,36.1,58.7,16
593,33742.0,8.5,8.9,-4.2,17.8,4.6000000000000005,-3.2,-25.900000000000002,36.1,58.7,16
594,33759.0,4.7,8.1,1.0,14.0,3.8000000000000003,2.7,-6.4,56.800000000000004,34.7,16
595,33778.0,5.6000000000000005,10.4,-10.9,16.5,6.800000000000001,-10.8,-39.2,45.2,-26.1,16
596,33793.0,7.0,10.5,-11.8,16.5,6.800000000000001,-10.8,-39.2,45.2,-26.1,16
597,33818.0,1.9000000000000001,9.600000000000001,-3.1,11.4,6.300000000000001,-2.5,-37.6,52.7,-95.0,16
598,33825.0,1.9000000000000001,9.600000000000001,-3.1,11.4,6.300000000000001,-2.5,-37.6,52.7,-95.0,16
599,33842.0,-3.7,7.800000000000001,-4.3,6.5,5.4,-3.3000000000000003,-29.800000000000004,23.6,-99.10000000000001,16
600,33859.0,-6.6000000000000005,5.6000000000000005,-3.1,2.9000000000000004,3.9000000000000004,-2.8000000000000003,-30.5,-17.1,-70.6,16
601,33878.0,-3.7,3.4000000000000004,-2.4000000000000004,7.7,0.8,-3.4000000000000004,-8.700000000000001,-7.200000000000001,-24.0,16
602,33893.0,-2.0,2.7,-4.2,7.7,0.8,-3.4000000000000004,-8.700000000000001,-7.200000000000001,-24.0,16
603,33916.0,2.4000000000000004,1.3,-3.0,12.100000000000001,0.1,-2.9000000000000004,16.4,-51.0,-94.4,16
604,33927.0,1.4000000000000001,1.9000000000000001,-4.0,11.4,1.1,-2.3000000000000003,9.700000000000001,-51.4,-102.3,16
605,33942.0,1.4000000000000001,2.2,-2.4000000000000004,11.4,1.1,-2.3000000000000003,9.700000000000001,-51.4,-102.3,16
606,33959.0,6.800000000000001,2.7,0.1,15.8,1.7000000000000002,-0.30000000000000004,3.4,-24.599999999999998,-85.5,16
607,33976.0,7.2,1.9000000000000001,0.7000000000000001,17.400000000000002,0.7000000000000001,0.1,2.1,19.300000000000004,-80.0,16
608,33992.0,5.9,-2.0,-4.1000000000000005,16.3,-2.2,-3.8000000000000003,-39.50000000000001,19.700000000000003,-80.50000000000001,16
609,34014.0,0.8,2.1,4.2,11.9,0.9,3.0,-88.20000000000002,-33.0,-58.1,16
610,34025.0,1.2000000000000002,3.0,2.3000000000000003,11.600000000000001,-0.9,2.9000000000000004,-36.400000000000006,-61.8,-30.699999999999996,16
611,34041.0,1.2000000000000002,-1.4000000000000001,2.8000000000000003,11.600000000000001,-0.9,2.9000000000000004,57.1,1.8000000000000003,-46.7,16
612,34059.0,-1.4000000000000001,-8.5,-1.3,9.700000000000001,-8.4,0.8,114.2,19.0,-72.9,16
613,34076.0,0.9,-6.0,4.0,9.0,-5.0,3.7,124.8,-18.4,-58.7,16
614,34091.0,-1.6,-5.300000000000001,3.7,9.0,-5.0,3.7,124.8,-18.4,-58.7,16
615,34110.0,-4.6000000000000005,-5.5,2.3000000000000003,6.300000000000001,-4.6000000000000005,2.5,137.20000000000002,-22.1,-41.199999999999996,16
616,34125.0,-5.1000000000000005,-6.300000000000001,2.3000000000000003,5.4,-5.800000000000001,2.4000000000000004,113.1,-3.5,-2.6,16
617,34142.0,-2.3000000000000003,-3.7,2.2,7.7,-3.8000000000000003,2.4000000000000004,76.4,32.1,35.9,16
618,34158.0,-0.5,-5.1000000000000005,2.0,9.5,-4.6000000000000005,2.6,38.50000000000001,54.699999999999996,35.8,16
619,34175.0,-1.0,-5.5,1.4000000000000001,8.6,-5.0,2.3000000000000003,3.6000000000000005,58.3,27.0,16
620,34194.0,-6.7,2.6,4.5,3.7,1.6,5.2,-27.6,83.5,51.300000000000004,16
621,34210.0,3.8000000000000003,2.3000000000000003,0.4,11.3,2.6,2.7,-32.8,102.60000000000001,108.0,16
622,34225.0,2.8000000000000003,1.2000000000000002,-0.6000000000000001,12.5,0.0,0.7000000000000001,-42.400000000000006,72.80000000000001,106.60000000000001,16
623,34242.0,0.5,-0.4,-0.7000000000000001,10.600000000000001,-1.6,0.8,-30.599999999999998,48.400000000000006,104.7,16
624,34259.0,5.1000000000000005,-7.7,-4.0,13.0,-6.7,-1.1,6.2,46.7,84.69999999999999,16
625,34277.0,-6.300000000000001,10.700000000000001,2.3000000000000003,5.800000000000001,8.8,9.700000000000001,31.6,197.9,63.70000000000001,16
626,34292.0,-3.6,10.5,7.6000000000000005,5.800000000000001,8.8,9.700000000000001,31.6,197.9,63.70000000000001,16
627,34308.0,1.2000000000000002,0.0,-2.2,11.0,-1.4000000000000001,3.3000000000000003,31.9,16.700000000000003,102.8,16
628,34327.0,0.0,-0.1,-8.3,9.600000000000001,-2.6,-3.6,50.8,29.0,55.8,16
629,34342.0,0.0,-0.5,-5.9,9.600000000000001,-2.6,-3.6,50.8,29.0,55.8,16
630,34358.0,0.0,2.3000000000000003,2.2,9.600000000000001,-0.9,3.2,64.80000000000001,113.7,59.40000000000001,16
631,34376.0,-1.2000000000000002,3.9000000000000004,-1.5,6.6000000000000005,0.1,1.1,-26.200000000000003,20.0,65.8,16
632,34391.0,-2.9000000000000004,2.5,-1.9000000000000001,6.6000000000000005,0.1,1.1,-26.200000000000003,20.0,65.8,16
633,34410.0,-3.5,3.8000000000000003,1.0,5.800000000000001,0.5,3.6,-49.1,35.3,65.4,16
634,34425.0,-2.4000000000000004,4.5,0.0,6.9,1.7000000000000002,2.7,-37.50000000000001,13.000000000000002,46.300000000000004,16
635,34441.0,-2.6,5.1000000000000005,-1.6,6.6000000000000005,2.3000000000000003,1.3,-27.6,-4.800000000000001,6.4,16
636,34459.0,-4.2,2.4000000000000004,0.1,5.2,0.2,2.5,-37.800000000000004,-38.1,-14.700000000000001,16
637,34475.0,-4.6000000000000005,1.6,0.0,4.7,-1.3,2.3000000000000003,-50.7,-76.3,4.300000000000001,16
638,34492.0,-2.4000000000000004,2.1,-2.0,6.5,-1.1,0.30000000000000004,-62.6,-83.30000000000001,73.10000000000001,16
639,34509.0,-1.1,0.7000000000000001,-4.5,7.7,-2.4000000000000004,-2.4000000000000004,-70.2,-69.00000000000001,156.0,16
640,34528.0,7.7,-0.30000000000000004,-0.6000000000000001,18.400000000000002,-2.8000000000000003,0.6000000000000001,-91.8,-62.199999999999996,178.70000000000002,16
641,34542.0,10.0,2.2,-0.8,18.400000000000002,-2.8000000000000003,0.6000000000000001,-91.8,-62.199999999999996,178.70000000000002,16
642,34559.0,16.0,2.6,-1.9000000000000001,23.5,-2.5,-0.9,-70.6,-102.10000000000001,132.5,16
643,34577.0,12.700000000000001,2.4000000000000004,-1.6,20.700000000000003,-3.6,-0.5,-37.50000000000001,-77.1,92.60000000000001,16
644,34593.0,11.8,1.5,-0.7000000000000001,20.700000000000003,-3.6,-0.5,-65.6,-94.7,49.9,16
645,34612.0,9.3,-3.1,1.4000000000000001,18.8,-7.0,1.1,-77.00000000000001,-100.80000000000001,11.2,16
646,34629.0,6.300000000000001,-5.4,2.2,14.4,-10.3,1.7000000000000002,36.0,-118.80000000000003,-18.1,16
647,34642.0,5.2,-5.0,2.2,14.4,-10.3,1.7000000000000002,36.0,-118.80000000000003,-18.1,16
648,34661.0,10.8,-4.800000000000001,1.6,17.7,-9.700000000000001,1.3,55.1,-108.50000000000001,-45.8,16
649,34676.0,2.9000000000000004,-0.5,3.0,15.8,-6.9,4.6000000000000005,-47.2,-7.400000000000001,-178.60000000000002,16
650,34692.0,6.5,-3.1,5.9,15.8,-6.9,4.6000000000000005,-47.2,-7.400000000000001,-178.60000000000002,16
651,34713.0,2.9000000000000004,-5.1000000000000005,-0.30000000000000004,16.0,-8.0,0.2,-39.300000000000004,23.099999999999998,-275.20000000000005,16
652,34728.0,-7.300000000000001,-8.200000000000001,-1.1,5.1000000000000005,-9.8,-2.7,-57.60000000000001,13.5,-263.4,16
653,34742.0,-5.1000000000000005,-8.0,-2.2,5.1000000000000005,-9.8,-2.7,-57.60000000000001,13.5,-263.4,16
654,34759.0,-16.0,-7.5,5.1000000000000005,-2.3000000000000003,-9.3,3.2,-41.900000000000006,77.4,-268.20000000000005,16
655,34777.0,-12.700000000000001,-4.7,2.8000000000000003,-1.1,-3.6,3.6,-26.300000000000004,29.300000000000004,-142.0,16
656,34793.0,-11.3,-3.1,4.0,-1.1,-3.6,3.6,-26.300000000000004,29.300000000000004,-142.0,16
657,34820.0,-7.300000000000001,0.7000000000000001,-0.1,3.1,1.0,-0.1,-10.700000000000001,41.7,-87.7,16
658,34825.0,-7.300000000000001,0.7000000000000001,-0.1,3.1,1.0,-0.1,-10.700000000000001,41.7,-87.7,16
659,34843.0,-8.3,-1.1,0.7000000000000001,2.1,-0.4,0.8,-30.5,54.50000000000001,-56.800000000000004,16
660,34859.0,-11.200000000000001,-3.3000000000000003,2.6,-0.6000000000000001,-2.4000000000000004,3.1,-36.400000000000006,49.0,-19.1,16
661,34876.0,-11.3,-4.1000000000000005,0.30000000000000004,-1.2000000000000002,-3.7,0.2,-26.400000000000006,14.200000000000001,13.6,16
662,34892.0,-10.5,-3.7,-3.2,-0.6000000000000001,-3.6,-2.7,-19.6,26.1,42.2,16
663,34922.0,-2.1,-0.1,1.6,7.0,-0.8,2.1,3.2,-0.5,131.4,16
664,34928.0,-5.7,-0.2,1.9000000000000001,0.7000000000000001,-2.1,-6.800000000000001,54.0,-57.1,131.10000000000002,16
665,34942.0,-9.600000000000001,-1.2000000000000002,-8.700000000000001,0.7000000000000001,-2.1,-6.800000000000001,54.0,-57.1,131.10000000000002,16
666,34961.0,0.2,1.3,-2.3000000000000003,8.8,-1.6,-5.9,28.800000000000004,-114.00000000000001,157.9,16
667,34976.0,-0.2,-0.4,-4.7,9.200000000000001,-2.4000000000000004,-5.9,35.0,-173.0,161.00000000000003,16
668,34997.0,-0.7000000000000001,0.6000000000000001,-5.300000000000001,8.6,-2.2,-6.800000000000001,4.5,-160.8,186.90000000000003,16
669,35019.0,9.8,-8.200000000000001,11.600000000000001,19.3,-11.5,8.3,16.3,-176.8,215.9,16
670,35030.0,14.100000000000001,-5.1000000000000005,3.8000000000000003,28.8,-3.4000000000000004,-14.0,102.0,-217.20000000000002,174.00000000000003,16
671,35041.0,21.400000000000002,2.0,-14.8,28.8,-3.4000000000000004,-14.0,102.0,-217.20000000000002,174.00000000000003,16
672,35058.0,6.0,3.9000000000000004,0.30000000000000004,21.3,2.4000000000000004,-10.3,11.2,-120.00000000000001,120.50000000000001,16
673,35077.0,6.5,-5.9,2.7,17.400000000000002,-9.4,-6.9,89.30000000000001,-220.9,138.50000000000003,16
674,35091.0,9.700000000000001,-3.6,-4.1000000000000005,17.400000000000002,-9.4,-6.9,89.30000000000001,-220.9,138.50000000000003,16
675,35108.0,7.5,-2.1,-2.0,14.8,-7.5,-6.800000000000001,71.19999999999999,-156.3,132.4,16
676,35125.0,7.5,0.1,-0.7000000000000001,13.9,-5.800000000000001,-4.7,43.1,-119.30000000000003,84.1,16
677,35142.0,-2.6,-3.2,0.2,5.300000000000001,-8.6,-4.1000000000000005,60.2,-103.40000000000002,30.9,16
678,35158.0,2.3000000000000003,-2.2,1.4000000000000001,8.200000000000001,-8.9,-2.6,86.60000000000001,-97.2,8.2,16
679,35177.0,6.7,-3.0,1.2000000000000002,16.5,-9.700000000000001,-4.1000000000000005,133.50000000000003,74.7,-128.1,16
680,35192.0,9.200000000000001,-4.0,-1.1,16.5,-9.700000000000001,-4.1000000000000005,133.50000000000003,74.7,-128.1,16
681,35210.0,10.5,0.9,-4.0,19.3,-7.5,-7.4,113.89999999999999,212.70000000000002,-220.9,16
682,35225.0,11.100000000000001,4.7,8.0,19.700000000000003,-0.1,7.1000000000000005,67.60000000000001,335.1000000000001,-297.0,16
683,35242.0,-3.7,3.1,2.5,8.0,-0.6000000000000001,3.4000000000000004,18.200000000000003,199.1,-337.0,16
684,35259.0,-9.0,-0.6000000000000001,-3.7,2.4000000000000004,-2.7,-5.9,-66.1,183.5,-253.20000000000005,16
685,35279.0,-20.3,-6.2,3.7,-6.6000000000000005,-8.4,-0.8,-57.400000000000006,106.80000000000001,6.1000000000000005,16
686,35295.0,-15.4,-5.300000000000001,-2.0,-6.6000000000000005,-8.4,-0.8,-57.400000000000006,106.80000000000001,6.1000000000000005,16
687,35318.0,-10.200000000000001,2.3000000000000003,-2.3000000000000003,-0.7000000000000001,-0.30000000000000004,-1.6,15.100000000000001,62.50000000000001,-44.8,16
688,35326.0,-10.200000000000001,2.3000000000000003,-2.3000000000000003,-0.7000000000000001,-0.30000000000000004,-1.6,15.100000000000001,62.50000000000001,-44.8,16
689,35341.0,-11.700000000000001,2.1,-1.4000000000000001,-2.1,-0.5,-0.6000000000000001,-18.0,75.1,2.9,16
690,35359.0,-12.8,0.1,-2.6,-3.3000000000000003,-2.1,-1.2000000000000002,-44.6,39.300000000000004,30.200000000000003,16
691,35375.0,-11.9,-0.5,-0.2,-2.3000000000000003,-3.7,0.9,-74.5,-13.5,80.8,16
692,35391.0,-9.200000000000001,-3.1,3.6,-0.2,-6.4,4.1000000000000005,-26.1,-43.50000000000001,145.4,16
693,35410.0,-12.100000000000001,0.4,0.7000000000000001,-2.6,-5.1000000000000005,1.5,31.3,-79.6,217.90000000000003,16
694,35429.0,-9.700000000000001,-5.2,-7.7,0.6000000000000001,-13.600000000000001,-8.3,48.6,-166.10000000000002,407.7,16
695,35441.0,-6.1000000000000005,-8.0,-7.800000000000001,0.6000000000000001,-13.600000000000001,-8.3,48.6,-166.10000000000002,407.7,16
696,35459.0,-2.2,-7.2,-3.9000000000000004,3.9000000000000004,-13.9,-4.800000000000001,-22.9,-191.60000000000002,422.2,16
697,35474.0,-1.8,-10.8,-3.0,4.5,-19.400000000000002,-3.9000000000000004,-27.3,-226.00000000000003,470.30000000000007,16
698,35493.0,19.200000000000003,-12.700000000000001,6.300000000000001,20.700000000000003,-22.0,3.9000000000000004,60.1,-244.79999999999998,500.8,16
699,35508.0,23.200000000000003,-5.2,-7.6000000000000005,27.200000000000003,-15.3,-4.3,193.1,-218.3,297.20000000000005,16
700,35524.0,20.3,-4.0,-11.4,23.8,-13.100000000000001,-12.5,220.9,-117.1,125.4,16
701,35545.0,17.7,-2.2,-15.200000000000001,21.6,-11.600000000000001,-15.700000000000001,101.50000000000001,-41.6,48.50000000000001,16
702,35558.0,13.700000000000001,-0.2,-8.700000000000001,18.6,-10.3,-11.9,-5.0,35.4,1.4,16
703,35586.0,8.3,0.30000000000000004,-3.0,10.5,-9.600000000000001,-4.6000000000000005,-56.2,14.700000000000001,-6.0,16
704,35591.0,6.0,-0.5,-3.5,10.5,-9.600000000000001,-4.6000000000000005,-56.2,14.700000000000001,-6.0,16
705,35610.0,5.9,-1.9000000000000001,-2.9000000000000004,10.100000000000001,-11.8,-4.0,-54.9,35.5,6.699999999999999,16
706,35627.0,6.0,-4.9,-1.9000000000000001,9.3,-14.3,-3.2,-64.0,15.6,-119.0,16
707,35641.0,4.2,-5.4,-1.5,9.3,-14.3,-3.2,-64.0,15.6,-119.0,16
708,35659.0,-2.2,-4.4,-0.9,4.800000000000001,-13.5,-2.9000000000000004,-66.1,-4.4,-176.10000000000002,16
709,35674.0,-5.9,-3.4000000000000004,-1.2000000000000002,-0.6000000000000001,-11.9,-3.5,-80.8,-53.8,-173.3,16
710,35692.0,-9.1,-5.9,-1.7000000000000002,-3.2,-13.700000000000001,-4.4,-110.70000000000002,-102.10000000000001,-141.4,16
711,35709.0,-15.5,-5.4,-0.6000000000000001,-7.9,-13.9,-4.2,-138.7,-107.10000000000001,-99.2,16
712,35725.0,-13.9,-4.7,0.9,-8.200000000000001,-12.5,-2.6,-157.1,-98.9,-13.200000000000003,16
713,35742.0,-10.700000000000001,-3.9000000000000004,4.6000000000000005,-5.800000000000001,-11.9,0.0,-147.29999999999998,-103.8,47.400000000000006,16
714,35759.0,-11.0,-4.0,8.8,-6.300000000000001,-11.9,3.2,-106.0,-127.9,80.9,16
715,35775.0,-7.6000000000000005,-3.7,9.3,-2.6,-11.8,4.9,-23.5,-82.39999999999999,110.4,16
716,35791.0,3.7,-3.2,10.100000000000001,6.800000000000001,-11.700000000000001,5.9,63.10000000000001,-17.200000000000003,72.50000000000001,16
717,35808.0,8.1,0.6000000000000001,4.9,10.4,-6.300000000000001,3.4000000000000004,51.300000000000004,-74.4,72.10000000000001,16
718,35824.0,11.4,-3.7,-4.0,15.200000000000001,-11.9,-8.3,25.200000000000003,-11.6,69.7,16
719,35841.0,8.5,1.8,-4.5,13.3,-7.300000000000001,-8.700000000000001,25.8,194.7,-2.8,16
720,35858.0,4.0,2.6,-2.0,10.3,-6.1000000000000005,-6.4,-40.9,207.90000000000003,-72.10000000000001,16
721,35874.0,0.8,3.5,0.5,5.9,-4.5,-3.0,-68.0,158.2,-129.60000000000002,16
722,35891.0,-2.5,2.9000000000000004,5.4,3.5,-4.7,1.1,-51.1,69.10000000000001,-153.3,16
723,35909.0,-6.300000000000001,1.8,6.5,0.8,-5.300000000000001,2.8000000000000003,-10.200000000000001,-38.300000000000004,-155.1,16
724,35924.0,-7.9,1.2000000000000002,4.800000000000001,-2.1,-6.1000000000000005,1.0,16.8,-113.2,-112.9,16
725,35941.0,-7.9,3.1,7.7,-2.2,-4.5,3.2,11.700000000000001,-100.4,-42.5,16
726,35958.0,-6.9,6.800000000000001,8.0,-1.9000000000000001,-1.5,4.1000000000000005,42.7,-124.10000000000001,1.3,16
727,35975.0,-6.2,8.0,7.6000000000000005,-0.9,0.5,3.7,97.50000000000001,-101.6,25.7,16
728,35991.0,-6.4,5.300000000000001,5.0,-1.3,-1.9000000000000001,1.9000000000000001,147.0,-33.2,46.7,16
729,36008.0,-2.8000000000000003,7.1000000000000005,2.3000000000000003,1.5,-1.7000000000000002,0.8,167.9,21.200000000000003,63.900000000000006,16
730,36024.0,-1.2000000000000002,7.300000000000001,-2.5,4.0,-0.9,-5.4,186.70000000000002,98.0,52.2,16
731,36043.0,1.0,-1.2000000000000002,-31.900000000000002,6.2,-7.7,-28.0,173.4,280.8,3.9,16
732,36059.0,17.2,-12.200000000000001,-10.8,18.400000000000002,-19.6,-27.6,-84.0,314.50000000000006,-3.0,16
733,36075.0,15.9,-14.600000000000001,-4.0,21.700000000000003,-22.400000000000002,-5.6000000000000005,-182.0,260.8,-130.3,16
734,36092.0,8.9,-10.600000000000001,6.4,16.1,-19.6,2.9000000000000004,-152.9,409.40000000000003,-167.50000000000003,16
735,36109.0,0.0,9.4,5.1000000000000005,11.100000000000001,-2.7,5.800000000000001,-105.60000000000002,350.7,-94.5,16
736,36125.0,-6.2,9.1,5.300000000000001,0.7000000000000001,1.7000000000000002,4.9,-24.200000000000003,214.70000000000002,-61.0,16
737,36142.0,-7.2,5.5,8.4,-0.6000000000000001,-1.5,7.800000000000001,35.699999999999996,99.10000000000001,13.399999999999999,16
738,36159.0,-3.1,0.4,2.8000000000000003,2.7,-4.7,5.1000000000000005,78.2,-34.60000000000001,86.8,16
739,36175.0,-0.30000000000000004,-2.1,-1.3,6.5,-9.8,-1.7000000000000002,89.5,-141.4,129.3,16
740,36192.0,12.0,-7.300000000000001,-0.1,16.5,-14.100000000000001,-1.4000000000000001,36.300000000000004,-256.2,129.8,16
741,36208.0,10.5,-13.4,-3.2,18.1,-21.1,-3.6,12.299999999999999,-366.4,16.700000000000003,16
742,36226.0,3.4000000000000004,-10.200000000000001,-1.3,9.4,-17.7,-2.7,32.0,-243.9,-105.80000000000001,16
743,36241.0,-8.200000000000001,-3.2,4.9,0.0,-11.5,2.8000000000000003,51.1,-46.1,-115.50000000000003,16
744,36259.0,-22.1,-4.0,4.5,-11.3,-11.100000000000001,4.0,110.0,146.0,-36.6,16
745,36274.0,-19.3,-3.5,3.7,-12.9,-11.5,3.7,157.1,245.70000000000005,153.3,16
746,36291.0,-13.4,5.300000000000001,-0.4,-7.800000000000001,-4.7,0.6000000000000001,87.10000000000001,195.5,152.4,16
747,36309.0,-16.5,12.8,0.30000000000000004,-10.9,7.1000000000000005,0.2,-31.5,180.10000000000002,95.80000000000001,16
748,36324.0,-14.700000000000001,-4.4,3.9000000000000004,-9.600000000000001,-12.700000000000001,4.2,-135.7,82.9,131.2,16
749,36342.0,-5.5,0.4,4.1000000000000005,-2.5,-8.5,4.2,-92.60000000000001,-160.9,149.60000000000002,16
750,36358.0,3.9000000000000004,-3.3000000000000003,-0.7000000000000001,5.0,-12.600000000000001,0.6000000000000001,-5.7,-178.50000000000003,164.3,16
751,36376.0,7.0,-5.7,-1.4000000000000001,10.5,-15.0,-1.5,60.00000000000001,-69.00000000000001,161.20000000000002,16
752,36392.0,8.5,-9.4,-1.0,11.600000000000001,-18.400000000000002,-1.1,72.7,23.0,140.20000000000002,16
753,36408.0,6.4,-7.7,1.6,10.4,-18.3,1.4000000000000001,84.1,78.80000000000001,89.30000000000001,16
754,36427.0,11.4,4.9,-0.4,11.100000000000001,-5.6000000000000005,1.5,113.1,237.70000000000005,25.900000000000002,16
755,36441.0,7.0,3.6,0.2,11.100000000000001,-5.6000000000000005,1.5,113.1,237.70000000000005,25.900000000000002,16
756,36460.0,5.5,5.4,-7.0,7.9,-5.2,-3.4000000000000004,91.4,307.79999999999995,157.9,16
757,36475.0,3.4000000000000004,3.7,-6.0,4.7,-6.2,-3.9000000000000004,49.1,229.29999999999998,234.1,16
758,36493.0,-2.7,0.30000000000000004,-3.5,-1.2000000000000002,-9.5,-1.7000000000000002,6.1000000000000005,76.5,194.20000000000002,16
759,36511.0,-2.3000000000000003,7.5,-1.2000000000000002,-2.3000000000000003,-4.800000000000001,0.0,5.1000000000000005,41.300000000000004,144.60000000000002,16
760,36526.0,-0.5,10.4,-0.30000000000000004,-0.1,0.7000000000000001,1.8,31.099999999999998,42.3,84.5,16
761,36544.0,1.7000000000000002,7.9,0.5,1.8,-1.0,2.6,50.3,-22.9,31.9,16
762,36559.0,2.7,3.3000000000000003,0.9,3.0,-4.7,3.3000000000000003,54.4,-126.4,-20.1,16
763,36576.0,2.9000000000000004,0.30000000000000004,0.2,4.0,-9.3,2.6,45.7,-239.5,-87.80000000000001,16
764,36593.0,6.2,-8.4,-6.9,7.300000000000001,-16.400000000000002,-3.0,23.099999999999998,-301.0,-154.00000000000003,16
765,36609.0,7.7,-10.700000000000001,-9.9,9.8,-19.6,-6.4,4.6,-151.3,-189.2,16
766,36625.0,5.9,-8.200000000000001,-2.6,8.6,-17.400000000000002,-0.1,8.8,64.10000000000001,-149.4,16
767,36641.0,6.2,-3.9000000000000004,-1.0,8.8,-14.0,1.6,17.200000000000003,90.30000000000001,-74.10000000000001,16
768,36659.0,9.0,-0.8,-5.800000000000001,11.100000000000001,-10.700000000000001,-1.8,-5.8,45.7,-17.400000000000002,16
769,36675.0,10.100000000000001,-0.30000000000000004,-6.6000000000000005,13.100000000000001,-9.700000000000001,-4.4,-57.20000000000001,26.400000000000006,-14.0,16
770,36692.0,9.8,-1.0,-6.300000000000001,13.4,-10.200000000000001,-4.7,-124.3,-3.0,-61.300000000000004,16
771,36709.0,5.5,-2.2,-4.1000000000000005,10.9,-11.100000000000001,-4.2,-185.10000000000002,-55.60000000000001,-115.39999999999999,16
772,36725.0,2.9000000000000004,-2.8000000000000003,-0.8,7.1000000000000005,-12.0,-0.4,-209.8,-106.4,-142.10000000000002,16
773,36742.0,-1.0,-4.5,6.5,4.2,-13.3,5.2,-168.2,-172.1,-138.9,16
774,36759.0,-3.2,-6.5,7.6000000000000005,2.1,-14.8,7.0,-96.60000000000001,-253.90000000000003,-115.8,16
775,36775.0,-3.9000000000000004,-6.9,7.2,0.9,-15.8,6.0,-33.400000000000006,-289.3,-75.7,16
776,36792.0,-3.8000000000000003,-6.4,5.9,0.8,-15.5,4.800000000000001,12.8,-242.0,-26.6,16
777,36809.0,-3.1,-3.7,2.2,1.1,-13.700000000000001,2.4000000000000004,31.6,-125.00000000000001,18.900000000000002,16
778,36824.0,-0.1,-2.6,-4.1000000000000005,4.5,-11.700000000000001,-5.6000000000000005,-2.5,7.8,35.1,16
779,36842.0,-1.2000000000000002,-1.6,-0.9,4.2,-10.700000000000001,-3.6,-115.7,92.2,-22.9,16
780,36859.0,-3.0,-0.5,2.8000000000000003,1.7000000000000002,-8.700000000000001,1.8,-173.3,135.20000000000002,-78.4,16
781,36875.0,-4.2,2.4000000000000004,6.7,1.1,-6.1000000000000005,4.800000000000001,-147.9,147.2,-99.5,16
782,36891.0,-2.8000000000000003,4.0,6.9,2.5,-4.5,5.0,-90.4,82.3,-99.7,16
783,36909.0,-2.0,4.6000000000000005,4.1000000000000005,3.6,-3.6,2.9000000000000004,-42.60000000000001,-22.4,-96.7,16
784,36925.0,-2.0,4.800000000000001,2.9000000000000004,3.9000000000000004,-3.1,0.7000000000000001,-8.8,-87.00000000000001,-90.30000000000001,16
785,36942.0,-3.2,5.9,2.6,2.9000000000000004,-2.0,0.2,13.200000000000003,-90.80000000000001,-76.3,16
786,36959.0,-4.2,5.9,3.9000000000000004,2.1,-1.5,0.9,27.6,-76.4,-54.300000000000004,16
787,36976.0,-5.0,5.1000000000000005,4.5,1.0,-2.4000000000000004,2.1,35.8,-73.6,-36.300000000000004,16
788,36995.0,-6.6000000000000005,3.7,5.5,-0.4,-3.7,3.0,42.900000000000006,-76.3,-23.099999999999998,16
789,37008.0,-8.3,3.2,5.2,-2.0,-4.3,3.1,49.300000000000004,-65.4,-8.3,16
790,37025.0,-8.9,3.6,4.800000000000001,-3.2,-4.0,2.6,56.10000000000001,-32.2,12.299999999999999,16
791,37041.0,-8.0,5.1000000000000005,4.0,-2.7,-2.9000000000000004,2.2,70.4,8.899999999999999,38.50000000000001,16
792,37060.0,-5.2,4.3,2.7,1.9000000000000001,-5.5,-1.5,91.50000000000001,19.9,62.300000000000004,16
793,37076.0,-3.2,2.5,-0.1,1.9000000000000001,-5.5,-1.5,106.60000000000001,-1.4,80.30000000000001,16
794,37092.0,5.6000000000000005,-5.1000000000000005,-24.200000000000003,8.5,-11.600000000000001,-20.1,54.6,-38.1,79.6,16
795,37109.0,30.400000000000002,-19.200000000000003,-15.5,28.400000000000002,-25.1,-4.4,-137.1,31.099999999999998,-1.3,16
796,37125.0,22.1,-17.5,-2.4000000000000004,28.400000000000002,-25.1,-4.4,-157.60000000000002,289.5,-215.0,16
797,37142.0,6.0,-2.8000000000000003,-1.3,14.600000000000001,-12.8,-3.5,-49.4,222.1,-240.5,16
798,37158.0,0.1,4.4,2.3000000000000003,4.5,-5.300000000000001,3.4000000000000004,22.3,81.0,-128.9,16
799,37175.0,-2.5,1.8,4.9,4.5,-5.300000000000001,3.4000000000000004,57.60000000000001,-32.9,-23.800000000000004,16
800,37194.0,-5.800000000000001,-2.8000000000000003,10.9,1.6,-9.5,8.6,86.5,-107.19999999999999,36.5,16
801,37208.0,-6.0,-4.7,9.0,1.1,-13.100000000000001,6.0,116.80000000000001,-115.39999999999999,78.80000000000001,16
802,37225.0,-2.4000000000000004,-7.2,-2.0,3.9000000000000004,-15.0,-3.2,91.90000000000002,-44.2,100.9,16
803,37242.0,-4.0,0.7000000000000001,0.9,3.1,-8.700000000000001,-1.9000000000000001,-1.7,19.400000000000002,59.1,16
804,37259.0,-7.7,5.1000000000000005,1.6,-2.5,-2.5,2.3000000000000003,-13.8,82.0,31.400000000000002,16
805,37277.0,-8.5,5.4,3.1,-2.5,-2.5,2.3000000000000003,10.200000000000001,98.50000000000001,43.1,16
806,37292.0,-6.300000000000001,3.5,4.9,-1.0,-4.1000000000000005,4.2,34.60000000000001,62.900000000000006,68.5,16
807,37309.0,-4.9,2.0,4.800000000000001,1.1,-6.6000000000000005,4.2,38.2,-0.1,82.3,16
808,37324.0,-1.8,-1.3,5.300000000000001,3.4000000000000004,-9.600000000000001,4.6000000000000005,27.3,-69.20000000000002,82.3,16
809,37342.0,1.3,-5.1000000000000005,6.0,5.800000000000001,-12.9,5.2,27.099999999999998,-119.30000000000003,70.2,16
810,37358.0,3.9000000000000004,-6.2,0.7000000000000001,9.700000000000001,-12.5,-5.300000000000001,46.9,-131.7,44.7,16
811,37375.0,4.6000000000000005,-3.8000000000000003,-5.0,9.700000000000001,-12.5,-5.300000000000001,71.10000000000001,-32.0,12.7,16
812,37393.0,2.2,1.9000000000000001,-2.2,7.7,-7.6000000000000005,-3.0,68.5,178.50000000000003,14.0,16
813,37408.0,0.0,5.2,0.9,5.7,-4.5,0.6000000000000001,26.1,125.50000000000001,50.3,16
814,37425.0,-1.1,5.800000000000001,0.7000000000000001,3.7,-2.9000000000000004,1.3,26.1,125.50000000000001,50.3,16
815,37442.0,-1.5,4.1000000000000005,0.8,3.1,-4.2,1.3,32.6,38.7,58.900000000000006,16
816,37459.0,-1.6,2.3000000000000003,0.30000000000000004,2.3000000000000003,-6.800000000000001,0.8,82.3,-40.0,22.9,16
817,37475.0,-2.2,1.9000000000000001,-0.30000000000000004,2.3000000000000003,-6.800000000000001,0.8,82.3,-40.0,22.9,16
818,37491.0,-2.0,0.7000000000000001,-1.5,2.3000000000000003,-7.800000000000001,-0.1,93.00000000000001,-41.900000000000006,22.1,16
819,37509.0,-0.6000000000000001,-0.30000000000000004,-2.5,4.0,-9.0,-0.7000000000000001,73.0,31.6,30.9,16
820,37524.0,-0.2,-0.2,-2.3000000000000003,4.0,-9.0,-0.7000000000000001,73.0,31.6,30.9,16
821,37542.0,-0.2,0.5,-0.2,3.9000000000000004,-8.4,1.2000000000000002,48.6,53.300000000000004,34.400000000000006,16
822,37558.0,0.4,1.0,0.2,4.7,-8.0,1.6,26.6,36.2,52.60000000000001,16
823,37575.0,0.9,0.8,-0.4,4.7,-8.0,1.6,26.6,36.2,52.60000000000001,16
824,37591.0,2.3000000000000003,0.6000000000000001,-2.8000000000000003,5.6000000000000005,-8.200000000000001,-0.2,22.5,53.400000000000006,54.9,16
825,37610.0,5.0,0.2,-3.7,9.600000000000001,-9.200000000000001,-1.0,-11.5,128.70000000000002,36.1,16
826,37624.0,6.300000000000001,-0.2,-3.3000000000000003,9.600000000000001,-9.200000000000001,-1.0,-11.5,128.70000000000002,36.1,16
827,37642.0,7.800000000000001,-0.4,-2.0,10.9,-9.5,0.1,-30.1,125.4,5.4,16
828,37658.0,7.9,-0.1,-1.9000000000000001,11.4,-9.0,0.1,-39.400000000000006,90.4,-26.1,16
829,37676.0,7.9,0.7000000000000001,-3.4000000000000004,11.5,-8.3,-1.3,-42.7,48.6,-42.7,16
830,37693.0,9.1,0.7000000000000001,-3.2,12.5,-8.200000000000001,-1.4000000000000001,-48.800000000000004,19.300000000000004,-40.5,16
831,37709.0,10.700000000000001,-0.6000000000000001,-3.5,14.100000000000001,-9.600000000000001,-3.2,-55.8,-53.9,-72.50000000000001,16
832,37725.0,9.700000000000001,-0.7000000000000001,-4.7,14.100000000000001,-9.600000000000001,-3.2,-55.8,-53.9,-72.50000000000001,16
833,37742.0,7.300000000000001,-1.4000000000000001,-3.4000000000000004,12.3,-10.0,-2.9000000000000004,-77.80000000000001,-77.1,-99.39999999999999,16
834,37758.0,5.300000000000001,-3.0,-0.1,9.3,-12.4,2.0,-93.3,-152.70000000000002,-163.7,16
835,37775.0,3.6,-4.1000000000000005,1.9000000000000001,9.3,-12.4,2.0,-93.3,-152.70000000000002,-163.7,16
836,37792.0,0.5,-6.2,5.6000000000000005,6.9,-13.9,4.7,-66.80000000000001,-173.0,-166.4,16
837,37809.0,-1.3,-8.9,5.800000000000001,4.1000000000000005,-17.900000000000002,4.3,-9.4,-168.6,-83.2,16
838,37825.0,-2.3000000000000003,-10.0,5.0,4.1000000000000005,-17.900000000000002,4.3,-9.4,-168.6,-83.2,16
839,37842.0,-3.7,-9.600000000000001,0.9,2.8000000000000003,-18.0,1.4000000000000001,9.600000000000001,-64.7,-23.3,16
840,37859.0,-3.6,-7.5,-3.1,2.7,-15.0,-4.0,-24.0,6.600000000000001,5.500000000000001,16
841,37874.0,-3.6,-7.5,-3.1,2.7,-15.0,-4.0,-24.0,6.600000000000001,5.500000000000001,16
842,37893.0,-6.1000000000000005,-0.4,2.5,0.9,-8.700000000000001,0.8,-132.8,24.900000000000002,-66.5,16
843,37908.0,-7.6000000000000005,1.6,6.9,-0.7000000000000001,-6.7,3.5,-115.8,56.50000000000001,-87.2,16
844,37925.0,-6.800000000000001,2.4000000000000004,7.800000000000001,0.0,-5.0,6.300000000000001,-62.800000000000004,45.9,-85.30000000000001,16
845,37942.0,-4.7,3.5,3.5,2.0,-3.9000000000000004,3.1,-14.600000000000001,-20.8,-86.1,16
846,37959.0,-2.5,4.1000000000000005,2.0,5.4,-2.3000000000000003,0.30000000000000004,-5.7,-54.4,-98.7,16
847,37975.0,-1.8,4.5,2.0,5.4,-2.3000000000000003,0.30000000000000004,-5.7,-54.4,-98.7,16
848,37991.0,-2.4000000000000004,5.0,2.5,5.300000000000001,-1.6,0.6000000000000001,1.1,-39.9,-103.10000000000001,16
849,38010.0,-5.7,4.2,3.6,0.9,-3.1,2.3000000000000003,37.6,-27.400000000000002,-49.6,16
850,38025.0,-6.7,3.0,4.0,0.9,-3.1,2.3000000000000003,37.6,-27.400000000000002,-49.6,16
851,38045.0,-8.200000000000001,1.5,3.5,-0.4,-4.4,2.0,59.40000000000001,-41.50000000000001,-21.200000000000003,16
852,38059.0,-9.9,1.2000000000000002,3.0,-3.1,-4.9,1.3,59.9,-21.8,16.4,16
853,38075.0,-10.4,1.4000000000000001,2.8000000000000003,-3.1,-4.9,1.3,59.9,-21.8,16.4,16
854,38092.0,-9.3,1.7000000000000002,2.8000000000000003,-2.6,-4.7,1.4000000000000001,58.7,-7.1000000000000005,40.0,16
855,38109.0,-5.0,-0.4,-0.8,5.0,-8.9,-6.9,63.70000000000001,-22.700000000000003,69.5,16
856,38126.0,-1.3,-2.3000000000000003,-5.9,5.0,-8.9,-6.9,49.199999999999996,-62.0,93.2,16
857,38142.0,15.600000000000001,-7.300000000000001,-20.900000000000002,17.900000000000002,-13.0,-20.1,-23.6,-72.9,77.4,16
858,38158.0,26.3,-10.0,-15.100000000000001,33.2,-16.5,-15.0,-99.10000000000001,48.70000000000001,-33.7,16
859,38178.0,15.200000000000001,-3.9000000000000004,-5.0,23.8,-10.700000000000001,-6.9,-77.5,161.10000000000002,-190.50000000000003,16
860,38191.0,3.0,5.800000000000001,-1.7000000000000002,12.5,-1.8,-4.2,-44.300000000000004,116.30000000000001,-134.6,16
861,38210.0,-4.5,1.9000000000000001,1.9000000000000001,1.5,-6.4,0.6000000000000001,62.0,32.1,48.10000000000001,16
862,38226.0,-6.300000000000001,-0.4,1.8,1.5,-6.4,0.6000000000000001,62.0,32.1,48.10000000000001,16
863,38243.0,-8.3,-2.7,4.7,-0.4,-8.700000000000001,2.9000000000000004,85.4,26.1,82.39999999999999,16
864,38258.0,-8.3,-4.800000000000001,6.7,-0.8,-12.600000000000001,5.9,98.60000000000001,36.300000000000004,119.7,16
865,38276.0,-6.2,-12.3,-0.30000000000000004,0.6000000000000001,-19.200000000000003,-0.2,79.7,10.1,146.0,16
866,38293.0,6.1000000000000005,-10.4,-0.9,10.200000000000001,-19.3,-3.9000000000000004,-34.400000000000006,-50.60000000000001,109.10000000000001,16
867,38310.0,-1.8,0.30000000000000004,7.2,3.1,-4.4,4.7,28.900000000000002,89.10000000000001,-52.60000000000001,16
868,38324.0,-4.0,3.2,4.7,3.1,-4.4,4.7,28.900000000000002,89.10000000000001,-52.60000000000001,16
869,38343.0,-4.6000000000000005,5.2,0.9,2.2,-2.3000000000000003,1.2000000000000002,32.300000000000004,37.6,-18.5,16
870,38358.0,-4.2,4.7,1.8,2.8000000000000003,-2.8000000000000003,2.0,10.600000000000001,12.0,29.600000000000005,16
871,38376.0,-2.0,2.4000000000000004,3.8000000000000003,4.5,-4.9,3.6,7.500000000000001,2.3,61.7,16
872,38391.0,-0.1,0.2,4.2,6.0,-6.9,4.1000000000000005,15.399999999999999,-30.699999999999996,61.300000000000004,16
873,38410.0,0.8,-1.8,3.1,7.4,-10.3,1.8,52.00000000000001,-58.0,33.0,16
874,38424.0,1.1,-2.7,1.7000000000000002,7.4,-10.3,1.8,52.00000000000001,-58.0,33.0,16
875,38443.0,1.8,-2.9000000000000004,-0.2,8.0,-11.0,0.1,71.5,12.5,22.3,16
876,38464.0,0.1,1.7000000000000002,0.6000000000000001,5.6000000000000005,-4.9,1.5,79.00000000000001,120.10000000000001,35.0,16
877,38474.0,-0.5,3.1,0.5,5.6000000000000005,-4.9,1.5,79.00000000000001,120.10000000000001,35.0,16
878,38493.0,-1.4000000000000001,4.1000000000000005,0.2,4.7,-3.9000000000000004,1.6,68.5,117.7,43.6,16
879,38509.0,-1.6,3.9000000000000004,0.2,4.1000000000000005,-4.0,1.8,60.00000000000001,105.7,39.699999999999996,16
880,38526.0,-2.0,3.1,-0.6000000000000001,3.7,-4.7,1.4000000000000001,54.6,83.4,25.6,16
881,38542.0,-2.1,1.5,-2.1,3.5,-5.9,0.4,46.9,62.7,13.100000000000001,16
882,38559.0,-1.8,0.30000000000000004,-3.2,3.9000000000000004,-7.7,-1.1,32.5,63.2,9.700000000000001,16
883,38574.0,-0.5,-1.5,-3.3000000000000003,4.800000000000001,-9.200000000000001,-1.0,7.400000000000001,88.50000000000001,14.200000000000001,16
884,38592.0,0.0,-0.4,-0.7000000000000001,5.300000000000001,-8.8,1.1,-15.000000000000002,96.30000000000001,23.2,16
885,38608.0,0.0,0.5,0.0,5.2,-7.300000000000001,2.5,-21.6,71.7,38.1,16
886,38625.0,0.8,1.5,-0.2,5.7,-6.6000000000000005,2.4000000000000004,-13.5,42.0,51.300000000000004,16
887,38642.0,2.7,1.1,-1.3,7.1000000000000005,-6.9,1.5,-2.2,35.699999999999996,53.0,16
888,38659.0,4.3,0.6000000000000001,-2.4000000000000004,9.4,-7.7,-0.1,-2.4000000000000004,59.1,32.7,16
889,38675.0,4.7,0.5,-2.9000000000000004,9.4,-7.7,-0.1,-2.4000000000000004,59.1,32.7,16
890,38692.0,5.5,0.5,-3.0,10.0,-7.800000000000001,-0.4,-14.400000000000002,73.5,23.3,16
891,38708.0,5.9,0.6000000000000001,-2.4000000000000004,10.600000000000001,-7.7,0.5,-28.0,73.8,16.1,16
892,38725.0,6.6000000000000005,0.8,-1.5,11.100000000000001,-7.5,1.1,-33.9,46.0,8.8,16
893,38742.0,6.9,0.6000000000000001,-2.9000000000000004,11.4,-7.6000000000000005,0.0,-34.2,19.200000000000003,4.1,16
894,38759.0,7.300000000000001,0.0,-3.4000000000000004,12.200000000000001,-8.6,-1.0,-44.2,21.900000000000002,-13.900000000000002,16
895,38775.0,9.200000000000001,-2.4000000000000004,-4.4,13.8,-10.600000000000001,-1.9000000000000001,-44.2,21.900000000000002,-13.900000000000002,16
896,38793.0,7.2,-1.7000000000000002,-6.2,12.8,-10.5,-3.7,-64.9,29.0,-48.0,16
897,38808.0,6.2,-0.8,-6.1000000000000005,11.200000000000001,-9.1,-4.1000000000000005,-104.4,19.6,-73.5,16
898,38827.0,4.7,-0.30000000000000004,-4.1000000000000005,10.3,-8.6,-2.9000000000000004,-149.79999999999998,-29.0,-98.10000000000001,16
899,38841.0,3.2,-2.0,1.0,9.4,-9.600000000000001,0.4,-169.2,-94.6,-126.30000000000001,16
900,38858.0,2.3000000000000003,-3.2,3.3000000000000003,8.4,-11.200000000000001,3.8000000000000003,-139.9,-145.5,-149.60000000000002,16
901,38876.0,0.7000000000000001,-5.800000000000001,5.1000000000000005,7.4,-13.200000000000001,4.9,-75.7,-165.10000000000002,-146.8,16
902,38892.0,-0.7000000000000001,-7.2,3.9000000000000004,6.5,-14.4,4.0,-20.1,-139.3,-111.10000000000002,16
903,38910.0,-1.6,-7.800000000000001,3.2,5.5,-14.5,-1.0,12.299999999999999,-42.1,-49.199999999999996,16
904,38924.0,-1.2000000000000002,-6.800000000000001,-1.4000000000000001,5.5,-14.5,-1.0,9.0,77.80000000000001,4.7,16
905,38945.0,-1.5,-3.7,-0.7000000000000001,5.800000000000001,-12.0,-1.6,-77.5,58.400000000000006,-10.299999999999999,16
906,38961.0,-5.9,-1.0,4.2,0.2,-7.0,5.4,-159.9,12.0,-83.5,16
907,38975.0,-7.1000000000000005,0.30000000000000004,6.7,0.2,-7.0,5.4,-159.9,12.0,-83.5,16
908,38992.0,-5.7,2.6,6.300000000000001,1.1,-5.0,5.7,-97.2,1.0,-80.60000000000001,16
909,39008.0,-5.0,3.3000000000000003,4.1000000000000005,2.5,-3.4000000000000004,2.6,-37.7,-36.1,-81.2,16
910,39025.0,-3.3000000000000003,4.0,1.6,4.0,-2.6,0.4,-11.5,-42.400000000000006,-83.4,16
911,39042.0,-2.6,4.4,2.2,4.800000000000001,-2.0,0.6000000000000001,-2.0,-28.3,-86.60000000000001,16
912,39058.0,-2.8000000000000003,4.5,2.8000000000000003,4.9,-1.6,1.4000000000000001,5.8,-27.2,-86.5,16
913,39075.0,-4.3,4.2,2.7,3.7,-1.7000000000000002,1.3,18.1,-34.900000000000006,-76.4,16
914,39091.0,-6.0,1.8,3.6,2.3000000000000003,-3.4000000000000004,2.0,36.0,-25.7,-55.8,16
915,39109.0,-7.2,1.1,3.9000000000000004,0.5,-4.800000000000001,2.7,55.900000000000006,-16.1,-35.699999999999996,16
916,39124.0,-9.4,0.30000000000000004,3.6,-1.5,-5.5,2.6,64.4,-7.1000000000000005,-8.100000000000001,16
917,39142.0,-10.600000000000001,0.9,3.4000000000000004,-2.8000000000000003,-5.300000000000001,2.6,60.5,6.8,24.900000000000002,16
918,39158.0,-10.3,1.6,3.1,-2.6,-4.4,2.2,60.6,5.0,52.60000000000001,16
919,39175.0,-7.4,1.3,1.5,-0.4,-4.800000000000001,1.0,68.4,-22.2,71.5,16
920,39191.0,-1.1,-1.2000000000000002,-5.5,4.0,-6.800000000000001,-3.9000000000000004,58.400000000000006,-66.0,85.5,16
921,39210.0,18.3,-6.1000000000000005,-21.1,34.0,-14.9,-16.1,-99.8,19.400000000000002,-36.5,16
922,39224.0,28.400000000000002,-9.200000000000001,-13.4,34.0,-14.9,-16.1,-99.8,19.400000000000002,-36.5,16
923,39243.0,15.700000000000001,-2.2,-5.0,29.1,-11.4,-7.0,-92.60000000000001,172.2,-200.60000000000002,16
924,39259.0,8.9,6.4,-3.8000000000000003,16.6,1.3,-4.6000000000000005,-13.700000000000001,78.0,-12.8,16
925,39276.0,1.0,5.7,0.7000000000000001,10.0,0.8,-0.7000000000000001,-13.700000000000001,78.0,-12.8,16
926,39292.0,-3.1,1.7000000000000002,3.0,3.9000000000000004,-4.9,3.2,70.2,25.0,40.5,16
927,39310.0,-7.1000000000000005,-3.3000000000000003,8.700000000000001,1.6,-11.3,9.1,184.20000000000002,-38.7,111.80000000000001,16
928,39325.0,-5.800000000000001,-5.4,9.200000000000001,1.6,-11.3,9.1,184.20000000000002,-38.7,111.80000000000001,16
929,39342.0,-1.2000000000000002,-13.5,0.0,5.300000000000001,-18.0,3.7,185.10000000000002,-52.2,141.6,16
930,39358.0,5.5,-14.700000000000001,-9.3,13.0,-20.700000000000003,-9.0,57.9,-98.10000000000001,121.9,16
931,39375.0,-1.0,-1.9000000000000001,1.6,7.9,-10.100000000000001,-0.1,-79.7,-5.2,-0.6000000000000001,16
932,39392.0,-7.1000000000000005,2.5,-0.8,1.1,-4.9,0.4,-61.599999999999994,87.7,-30.3,16
933,39409.0,-8.6,2.9000000000000004,-0.8,-1.4000000000000001,-4.0,-0.4,-45.099999999999994,129.8,2.6,16
934,39425.0,-7.1000000000000005,2.3000000000000003,3.4000000000000004,-0.4,-4.6000000000000005,3.4000000000000004,-26.1,126.8,54.9,16
935,39442.0,-4.2,1.1,4.2,2.1,-5.7,4.7,5.9,81.50000000000001,75.1,16
936,39458.0,-3.4000000000000004,0.6000000000000001,4.4,3.5,-6.800000000000001,5.0,27.0,6.1000000000000005,67.9,16
937,39475.0,-1.7000000000000002,-1.1,5.1000000000000005,4.800000000000001,-8.200000000000001,5.5,37.800000000000004,-90.70000000000002,58.2,16
938,39492.0,0.6000000000000001,-3.1,4.3,6.5,-10.0,5.0,54.1,-160.0,53.8,16
939,39508.0,1.7000000000000002,-3.6,3.1,8.3,-11.0,3.1,74.30000000000001,-161.10000000000002,47.3,16
940,39525.0,3.0,-1.0,-1.3,9.4,-9.0,-0.4,87.2,-87.89999999999999,35.9,16
941,39541.0,0.7000000000000001,3.6,-1.9000000000000001,7.800000000000001,-5.1000000000000005,-1.8,82.60000000000001,44.5,32.6,16
942,39560.0,-0.6000000000000001,4.4,-0.2,5.6000000000000005,-3.2,1.0,72.0,135.4,43.2,16
943,39575.0,-0.8,4.6000000000000005,1.0,5.2,-3.1,2.4000000000000004,65.10000000000001,127.00000000000003,50.5,16
944,39592.0,-1.1,3.9000000000000004,-0.6000000000000001,5.0,-3.6,1.6,56.6,81.2,38.7,16
945,39608.0,-1.2000000000000002,3.1,-1.8,4.7,-4.800000000000001,-0.2,46.300000000000004,50.900000000000006,22.1,16
946,39625.0,-0.5,0.6000000000000001,-3.6,5.2,-6.9,-1.6,30.699999999999996,60.5,13.3,16
947,39641.0,0.4,-0.6000000000000001,-1.9000000000000001,5.9,-8.200000000000001,-0.30000000000000004,12.9,84.6,14.700000000000001,16
948,39658.0,0.5,-0.30000000000000004,-1.1,6.1000000000000005,-8.0,1.2000000000000002,1.9,79.19999999999999,23.099999999999998,16
949,39674.0,0.1,1.0,-1.1,5.6000000000000005,-7.0,1.3,-0.7,55.0,35.4,16
950,39692.0,0.4,1.6,-1.6,5.6000000000000005,-6.300000000000001,0.9,0.4,44.4,47.0,16
951,39709.0,1.0,1.2000000000000002,-1.9000000000000001,6.300000000000001,-6.9,0.5,4.6,49.9,53.9,16
952,39725.0,3.4000000000000004,-0.4,-3.1,8.200000000000001,-8.3,-0.4,7.200000000000001,62.6,49.4,16
953,39741.0,4.800000000000001,0.0,-3.5,9.4,-8.3,-0.9,-1.8000000000000003,72.50000000000001,34.800000000000004,16
954,39758.0,5.300000000000001,0.5,-3.1,10.200000000000001,-7.6000000000000005,-0.5,-17.5,66.1,26.1,16
955,39775.0,6.1000000000000005,1.1,-2.2,10.8,-7.2,0.2,-30.1,38.2,22.700000000000003,16
956,39791.0,6.800000000000001,1.4000000000000001,-2.8000000000000003,11.5,-6.9,-0.1,-33.400000000000006,10.0,16.4,16
957,39808.0,7.0,1.1,-3.1,12.0,-7.2,-0.8,-34.2,-0.9000000000000001,4.9,16
958,39826.0,8.1,-0.30000000000000004,-3.3000000000000003,12.9,-8.3,-1.1,-39.599999999999994,-5.7,-11.2,16
959,39842.0,9.3,-1.4000000000000001,-4.5,14.3,-9.4,-2.0,-54.300000000000004,-16.5,-36.400000000000006,16
960,39859.0,8.700000000000001,-1.4000000000000001,-5.7,14.100000000000001,-9.5,-4.1000000000000005,-81.2,-20.7,-68.7,16
961,39877.0,6.9,-1.7000000000000002,-6.7,12.9,-9.700000000000001,-5.5,-125.00000000000001,-21.300000000000004,-102.4,16
962,39891.0,3.2,-3.3000000000000003,-0.2,10.600000000000001,-10.600000000000001,-1.9000000000000001,-168.9,-62.1,-137.70000000000002,16
963,39910.0,1.0,-4.2,3.9000000000000004,7.5,-11.9,4.2,-160.8,-125.10000000000001,-154.8,16
964,39924.0,-0.9,-6.2,6.1000000000000005,6.0,-13.4,5.800000000000001,-94.3,-173.3,-132.2,16
965,39942.0,-1.6,-7.800000000000001,4.6000000000000005,5.5,-14.8,4.5,-29.300000000000004,-159.2,-83.89999999999999,16
966,39958.0,-1.8,-8.200000000000001,3.7,5.1000000000000005,-15.5,3.1,13.000000000000002,-59.5,-29.400000000000002,16
967,39975.0,-1.6,-6.7,1.4000000000000001,5.2,-14.4,1.5,21.8,75.4,3.4,16
968,39993.0,-1.1,-3.8000000000000003,-0.4,6.0,-12.0,-1.0,-48.800000000000004,62.800000000000004,-17.0,16
969,40011.0,-2.5,-2.3000000000000003,0.2,4.5,-9.4,-0.4,-144.9,-1.3,-70.4,16
970,40024.0,-5.2,-0.8,5.0,2.4000000000000004,-7.9,3.1,-179.9,20.2,-97.89999999999999,16
971,40041.0,-4.5,1.5,7.0,2.6,-6.0,6.1000000000000005,-141.2,14.800000000000002,-91.90000000000002,16
972,40058.0,-3.8000000000000003,2.6,4.800000000000001,3.9000000000000004,-3.9000000000000004,3.2,-74.7,-23.700000000000003,-79.3,16
973,40075.0,-1.9000000000000001,3.8000000000000003,1.4000000000000001,5.6000000000000005,-2.6,0.2,-29.200000000000003,-29.0,-75.8,16
974,40092.0,-2.3000000000000003,4.6000000000000005,1.8,5.9,-1.8,0.1,2.7,-22.2,-80.7,16
975,40108.0,-3.6,5.0,2.2,4.2,-0.9,0.7000000000000001,30.799999999999997,-32.0,-76.89999999999999,16
976,40125.0,-5.300000000000001,4.9,2.4000000000000004,2.7,-0.9,0.9,53.8,-49.6,-50.60000000000001,16
977,40141.0,-6.6000000000000005,3.3000000000000003,3.4000000000000004,1.7000000000000002,-2.0,1.6,72.30000000000001,-46.300000000000004,-25.6,16
978,40159.0,-7.5,2.6,3.9000000000000004,0.2,-3.2,2.6,82.2,-39.9,-10.5,16
979,40174.0,-9.700000000000001,1.7000000000000002,4.2,-1.7000000000000002,-4.0,3.0,75.4,-39.400000000000006,2.1,16
980,40192.0,-11.100000000000001,1.6,4.0,-3.2,-4.3,2.9000000000000004,59.80000000000001,-24.3,19.0,16
981,40209.0,-10.9,1.6,3.7,-3.4000000000000004,-4.4,2.6,52.1,-2.8,38.400000000000006,16
982,40225.0,-8.3,1.0,2.8000000000000003,-1.5,-5.0,1.9000000000000001,56.6,-13.6,56.10000000000001,16
983,40242.0,-3.1,-1.2000000000000002,-4.0,2.0,-6.6000000000000005,-2.1,55.5,-58.3,74.5,16
984,40258.0,3.3000000000000003,-3.6,-15.200000000000001,11.200000000000001,-10.3,-17.5,14.200000000000001,-118.00000000000001,82.0,16
985,40275.0,31.3,-8.8,-18.5,34.800000000000004,-14.5,-22.200000000000003,-97.10000000000001,-53.300000000000004,0.1,16
986,40292.0,18.2,-4.0,-2.9000000000000004,34.0,-12.8,-6.300000000000001,-90.9,146.3,-205.3,16
987,40308.0,8.5,4.6000000000000005,-2.4000000000000004,16.5,-0.5,-3.9000000000000004,-38.0,108.60000000000001,-207.4,16
988,40325.0,1.4000000000000001,5.9,-0.6000000000000001,10.600000000000001,1.2000000000000002,-2.3000000000000003,3.8,43.6,-28.0,16
989,40342.0,-5.800000000000001,0.4,2.1,4.4,-4.1000000000000005,0.4,66.3,32.7,38.300000000000004,16
990,40358.0,-7.2,-1.8,3.5,0.8,-7.800000000000001,2.8000000000000003,115.7,23.6,55.1,16
991,40377.0,-7.9,-6.0,8.0,-0.1,-11.700000000000001,6.9,137.0,-12.7,90.0,16
992,40391.0,-4.4,-12.0,0.2,2.2,-16.2,3.8000000000000003,137.8,-50.1,126.4,16
993,40410.0,7.6000000000000005,-14.0,-2.8000000000000003,12.3,-15.0,3.0,-77.80000000000001,-27.099999999999998,36.7,16
994,40424.0,3.9000000000000004,-6.0,6.4,12.3,-15.0,3.0,-77.80000000000001,-27.099999999999998,36.7,16
995,40442.0,-5.7,2.9000000000000004,1.5,3.5,-5.6000000000000005,3.5,-13.200000000000003,89.6,-38.50000000000001,16
996,40458.0,-7.1000000000000005,4.3,-0.2,0.30000000000000004,-2.4000000000000004,-0.4,21.1,122.10000000000002,-16.900000000000002,16
997,40476.0,-6.7,3.7,3.9000000000000004,0.30000000000000004,-2.9000000000000004,3.1,16.4,93.4,42.2,16
998,40491.0,-3.7,1.5,4.1000000000000005,2.5,-4.9,4.2,25.5,33.6,83.30000000000001,16
999,40511.0,-1.8,-0.30000000000000004,3.9000000000000004,5.300000000000001,-8.1,3.9000000000000004,40.2,-65.5,70.0,16
1000,40524.0,-1.2000000000000002,-1.0,4.0,5.300000000000001,-8.1,3.9000000000000004,40.2,-65.5,70.0,16
1001,40543.0,0.1,-2.2,4.1000000000000005,6.2,-9.3,4.1000000000000005,50.7,-85.0,62.800000000000004,16
1002,40558.0,1.0,-2.6,3.4000000000000004,7.4,-10.200000000000001,3.3000000000000003,67.9,-84.2,61.0,16
1003,40574.0,1.9000000000000001,-1.5,0.0,8.200000000000001,-9.4,0.9,82.39999999999999,-46.199999999999996,52.00000000000001,16
1004,40592.0,0.9,2.7,-2.1,7.5,-6.2,-1.9000000000000001,83.10000000000001,58.2,45.8,16
1005,40608.0,0.0,3.7,-0.5,6.0,-4.0,0.5,70.8,157.8,50.0,16
1006,40626.0,-1.1,4.3,0.9,4.9,-3.6,2.1,59.9,156.8,55.3,16
1007,40643.0,-1.4000000000000001,4.2,-0.2,4.5,-3.6,1.9000000000000001,50.2,110.2,48.800000000000004,16
1008,40658.0,-1.5,3.8000000000000003,-1.2000000000000002,4.1000000000000005,-4.1000000000000005,0.6000000000000001,42.900000000000006,61.9,31.9,16
1009,40675.0,-0.2,1.6,-3.7,5.1000000000000005,-5.9,-1.4000000000000001,34.800000000000004,50.2,18.700000000000003,16
1010,40691.0,1.6,0.30000000000000004,-4.6000000000000005,6.7,-7.4,-2.6,17.5,84.3,8.2,16
1011,40709.0,1.7000000000000002,0.5,-3.1,7.1000000000000005,-7.4,-0.8,-7.300000000000001,117.5,4.4,16
1012,40725.0,1.3,1.4000000000000001,-0.7000000000000001,6.7,-6.7,1.2000000000000002,-21.900000000000002,87.00000000000001,19.0,16
1013,40741.0,1.2000000000000002,2.2,-0.5,6.4,-6.0,1.8,-20.0,37.2,36.6,16
1014,40759.0,1.7000000000000002,1.9000000000000001,-0.8,6.800000000000001,-6.2,1.4000000000000001,-4.4,11.900000000000002,48.70000000000001,16
1015,40776.0,3.6,0.1,-2.1,8.3,-7.7,0.5,16.6,19.400000000000002,50.0,16
1016,40791.0,4.3,-0.9,-3.0,9.4,-9.3,-0.8,27.0,40.0,39.400000000000006,16
1017,40808.0,4.7,-1.7000000000000002,-3.8000000000000003,9.600000000000001,-9.9,-1.2000000000000002,19.0,58.0,25.300000000000004,16
1018,40825.0,4.6000000000000005,-0.5,-2.8000000000000003,9.4,-8.9,-0.4,-1.1,44.00000000000001,21.300000000000004,16
1019,40841.0,6.0,0.6000000000000001,-1.8,10.200000000000001,-7.9,0.4,-20.400000000000002,10.0,24.7,16
1020,40858.0,6.800000000000001,0.9,-2.2,11.600000000000001,-7.4,0.1,-31.3,-16.8,22.3,16
1021,40875.0,7.7,1.3,-3.9000000000000004,12.5,-7.1000000000000005,-1.5,-40.7,-11.3,10.8,16
1022,40891.0,9.3,0.30000000000000004,-4.1000000000000005,13.600000000000001,-7.6000000000000005,-2.2,-59.20000000000001,7.1000000000000005,-4.9,16
1023,40909.0,10.0,-0.6000000000000001,-4.2,15.100000000000001,-8.9,-2.5,-83.5,4.7,-31.099999999999998,16
1024,40926.0,7.4,-0.30000000000000004,-5.1000000000000005,13.3,-8.6,-3.6,-107.9,-16.1,-68.2,16
1025,40942.0,5.2,-1.0,-3.0,11.600000000000001,-8.700000000000001,-3.3000000000000003,-134.9,-52.400000000000006,-102.89999999999999,16
1026,40958.0,3.9000000000000004,-2.0,0.1,10.0,-9.9,0.5,-147.4,-108.50000000000001,-137.0,16
1027,40975.0,1.0,-4.800000000000001,5.6000000000000005,8.0,-12.0,4.7,-112.20000000000002,-163.5,-153.79999999999998,16
1028,40991.0,0.4,-6.4,6.1000000000000005,7.1000000000000005,-14.4,5.300000000000001,-51.800000000000004,-188.3,-133.4,16
1029,41010.0,0.2,-9.4,4.5,7.0,-16.900000000000002,3.8000000000000003,-3.3000000000000007,-134.3,-82.50000000000001,16
1030,41024.0,-1.4000000000000001,-10.0,3.2,5.7,-17.7,2.9000000000000004,15.899999999999999,17.5,-18.900000000000002,16
1031,41042.0,-1.7000000000000002,-6.2,-1.1,5.1000000000000005,-15.200000000000001,-0.7000000000000001,-16.8,95.20000000000002,11.4,16
1032,41059.0,-2.5,-4.0,-0.8,4.4,-11.5,-1.5,-116.4,9.100000000000001,-16.3,16
1033,41074.0,-4.5,-0.7000000000000001,2.4000000000000004,2.8000000000000003,-8.5,0.7000000000000001,-179.30000000000004,-34.1,-59.60000000000001,16
1034,41092.0,-6.300000000000001,1.0,5.7,1.3,-6.7,2.6,-177.8,-6.8,-78.10000000000001,16
1035,41108.0,-5.300000000000001,1.7000000000000002,7.2,2.0,-5.2,5.5,-127.3,14.900000000000002,-70.0,16
1036,41125.0,-3.7,3.4000000000000004,4.3,3.5,-3.6,3.3000000000000003,-50.2,-4.5,-69.10000000000001,16
1037,41141.0,-2.5,4.4,2.5,4.7,-2.4000000000000004,1.1,3.3000000000000007,-15.299999999999999,-74.60000000000001,16
1038,41158.0,-2.6,5.1000000000000005,2.6,5.0,-1.3,0.9,31.7,-25.4,-82.2,16
1039,41175.0,-3.7,6.2,2.7,4.2,-0.1,1.0,45.0,-44.4,-83.10000000000001,16
1040,41192.0,-4.6000000000000005,6.4,2.8000000000000003,1.5,-1.1,2.3000000000000003,52.300000000000004,-56.7,-70.3,16
1041,41208.0,-6.2,4.800000000000001,3.9000000000000004,1.5,-1.1,2.3000000000000003,60.900000000000006,-52.80000000000001,-47.0,16
1042,41228.0,-8.1,3.0,5.0,-0.1,-2.6,3.2,73.2,-48.9,-28.500000000000004,16
1043,41242.0,-9.9,2.1,4.800000000000001,-2.9000000000000004,-4.1000000000000005,3.1,79.5,-48.70000000000001,-9.700000000000001,16
1044,41258.0,-10.4,1.8,4.6000000000000005,-2.9000000000000004,-4.1000000000000005,3.1,77.00000000000001,-37.6,11.2,16
1045,41278.0,-9.600000000000001,1.1,3.9000000000000004,-2.5,-4.7,2.7,76.7,-24.599999999999998,31.3,16
1046,41291.0,-6.0,-0.6000000000000001,1.3,3.8000000000000003,-8.5,-3.8000000000000003,77.3,-33.800000000000004,50.60000000000001,16
1047,41308.0,-3.1,-2.1,-2.5,3.8000000000000003,-8.5,-3.8000000000000003,66.60000000000001,-58.60000000000001,67.5,16
1048,41325.0,15.5,-8.5,-31.200000000000003,17.7,-13.600000000000001,-27.1,-13.399999999999999,-117.4,62.1,16
1049,41342.0,32.5,-10.3,-6.1000000000000005,25.8,-10.600000000000001,-2.9000000000000004,-139.60000000000002,-1.8000000000000003,-68.0,16
1050,41359.0,17.400000000000002,-4.9,-0.9,25.8,-10.600000000000001,-2.9000000000000004,-77.60000000000001,167.79999999999998,-264.5,16
1051,41375.0,4.0,8.3,-1.9000000000000001,13.4,1.3,-3.5,-2.7,57.400000000000006,-142.90000000000003,16
1052,41393.0,1.4000000000000001,5.7,-0.30000000000000004,8.5,-0.9,-1.3,53.0,31.3,6.300000000000001,16
1053,41410.0,-5.5,0.4,2.1,2.7,-5.1000000000000005,0.8,105.7,23.3,45.5,16
1054,41425.0,-7.4,-4.4,6.5,0.8,-9.200000000000001,4.3,119.8,18.900000000000002,60.00000000000001,16
1055,41443.0,-5.6000000000000005,-7.7,7.2,3.2,-16.6,0.6000000000000001,123.7,14.100000000000001,88.8,16
1056,41458.0,-4.3,-10.200000000000001,1.1,3.2,-16.6,0.6000000000000001,92.10000000000001,1.7,107.5,16
1057,41475.0,3.5,-11.0,-0.30000000000000004,9.3,-18.2,-2.7,-42.3,-58.900000000000006,83.00000000000001,16
1058,41491.0,-3.2,-1.0,2.8000000000000003,3.1,-5.9,-1.5,-72.60000000000001,-2.8,10.600000000000001,16
1059,41509.0,-4.4,0.8,-0.8,3.1,-5.9,-1.5,-12.299999999999999,96.5,-5.9,16
1060,41525.0,-6.2,2.6,3.0,1.4000000000000001,-4.4,1.6,1.9,119.49999999999999,19.9,16
1061,41542.0,-5.1000000000000005,2.3000000000000003,4.7,2.9000000000000004,-5.1000000000000005,4.4,50.400000000000006,33.300000000000004,86.1,16
1062,41559.0,-4.1000000000000005,1.9000000000000001,4.4,2.9000000000000004,-5.1000000000000005,4.4,50.400000000000006,33.300000000000004,86.1,16
1063,41575.0,-2.6,0.7000000000000001,3.6,3.9000000000000004,-6.2,3.8000000000000003,56.800000000000004,-20.0,86.1,16
1064,41592.0,-1.4000000000000001,-0.2,3.7,5.5,-7.800000000000001,3.7,53.400000000000006,-63.900000000000006,77.7,16
1065,41610.0,0.4,-1.9000000000000001,3.4000000000000004,6.9,-9.4,3.4000000000000004,52.5,-95.80000000000001,63.30000000000001,16
1066,41626.0,2.3000000000000003,-2.8000000000000003,-1.1,8.3,-10.3,0.30000000000000004,60.5,-87.10000000000001,53.0,16
1067,41642.0,2.2,1.2000000000000002,-2.3000000000000003,7.4,-4.7,0.6000000000000001,48.300000000000004,147.29999999999998,50.2,16
1068,41658.0,1.2000000000000002,3.1,0.1,7.4,-4.7,0.6000000000000001,48.300000000000004,147.29999999999998,50.2,16
1069,41676.0,-0.8,5.0,2.3000000000000003,5.6000000000000005,-3.0,3.0,45.5,133.10000000000002,57.699999999999996,16
1070,41691.0,-1.4000000000000001,5.1000000000000005,2.2,4.4,-2.8000000000000003,3.3000000000000003,52.400000000000006,72.7,63.10000000000001,16
1071,41709.0,-1.2000000000000002,4.3,1.1,4.5,-3.5,2.5,68.0,27.800000000000004,57.1,16
1072,41726.0,-0.9,2.9000000000000004,-0.5,4.7,-4.7,1.4000000000000001,83.10000000000001,-5.4,35.4,16
1073,41741.0,0.0,0.6000000000000001,-3.0,6.1000000000000005,-8.1,-2.3000000000000003,73.8,24.8,11.6,16
1074,41759.0,0.6000000000000001,-0.4,-4.3,6.1000000000000005,-8.1,-2.3000000000000003,73.8,24.8,11.6,16
1075,41776.0,1.1,-0.8,-3.3000000000000003,6.5,-8.700000000000001,-1.6,37.1,108.2,16.3,16
1076,41792.0,1.1,-0.30000000000000004,-2.0,6.300000000000001,-8.0,0.5,0.1,137.9,27.3,16
1077,41811.0,0.5,1.0,-1.5,5.7,-7.0,0.9,-24.400000000000002,100.6,38.50000000000001,16
1078,41824.0,1.3,0.6000000000000001,-2.2,6.0,-7.300000000000001,0.30000000000000004,-35.2,76.1,48.800000000000004,16
1079,41843.0,2.5,-0.2,-2.6,10.0,-9.1,-1.1,-36.300000000000004,76.0,48.800000000000004,16
1080,41857.0,5.300000000000001,-0.8,-3.5,10.0,-9.1,-1.1,-37.6,82.0,35.599999999999994,16
1081,41878.0,7.2,0.6000000000000001,-2.8000000000000003,11.600000000000001,-8.1,-0.8,-47.900000000000006,76.1,24.3,16
1082,41893.0,8.5,2.2,-1.7000000000000002,13.9,-5.6000000000000005,0.30000000000000004,-55.5,2.7,21.200000000000003,16
1083,41908.0,9.200000000000001,2.8000000000000003,-1.8,13.9,-5.6000000000000005,0.30000000000000004,-55.5,2.7,21.200000000000003,16
1084,41926.0,10.4,3.0,-2.1,14.9,-5.300000000000001,-0.2,-42.900000000000006,-19.799999999999997,4.6,16
1085,41945.0,11.600000000000001,0.5,-3.2,15.9,-9.0,-2.7,-30.5,-39.1,-66.60000000000001,16
1086,41959.0,10.5,-0.8,-4.4,15.9,-9.0,-2.7,-30.5,-39.1,-66.60000000000001,16
1087,41974.0,7.2,-2.1,-5.6000000000000005,13.4,-10.0,-4.2,-53.300000000000004,-50.1,-100.9,16
1088,41994.0,4.4,-3.3000000000000003,-1.1,9.3,-11.700000000000001,2.2,-111.70000000000002,-155.70000000000002,-142.60000000000002,16
1089,42010.0,2.8000000000000003,-4.1000000000000005,2.2,9.3,-11.700000000000001,2.2,-111.70000000000002,-155.70000000000002,-142.60000000000002,16
1090,42024.0,0.8,-6.0,5.9,7.800000000000001,-13.100000000000001,5.2,-75.00000000000001,-168.0,-136.1,16
1091,42042.0,-0.1,-8.5,5.0,6.300000000000001,-16.6,3.7,12.4,-65.2,-49.199999999999996,16
1092,42058.0,-0.7000000000000001,-9.3,3.9000000000000004,6.300000000000001,-16.6,3.7,12.4,-65.2,-49.199999999999996,16
1093,42076.0,-2.1,-8.6,0.4,5.0,-16.3,1.3,14.700000000000001,47.1,-7.300000000000001,16
1094,42091.0,-2.2,-7.5,-1.3,4.5,-14.5,-1.7000000000000002,-50.1,28.500000000000004,-5.1000000000000005,16
1095,42109.0,-4.1000000000000005,-4.0,0.2,3.0,-11.600000000000001,-0.7000000000000001,-138.6,-46.800000000000004,-37.50000000000001,16
1096,42124.0,-5.4,-0.8,3.3000000000000003,2.0,-8.700000000000001,1.7000000000000002,-166.9,-42.5,-62.900000000000006,16
1097,42142.0,-6.4,1.3,6.5,1.7000000000000002,-4.7,5.300000000000001,-88.20000000000002,-0.2,-54.9,16
1098,42158.0,-5.4,2.2,6.800000000000001,1.7000000000000002,-4.7,5.300000000000001,-88.20000000000002,-0.2,-54.9,16
1099,42174.0,-3.3000000000000003,3.7,3.9000000000000004,3.7,-3.3000000000000003,2.9000000000000004,-23.800000000000004,-24.599999999999998,-56.400000000000006,16
1100,42194.0,-2.7,5.2,2.1,5.0,-0.5,0.8,26.6,-48.800000000000004,-83.00000000000001,16
1101,42207.0,-2.6,5.9,2.5,5.0,-0.5,0.8,26.6,-48.800000000000004,-83.00000000000001,16
1102,42226.0,-3.9000000000000004,6.9,3.2,4.1000000000000005,0.6000000000000001,1.4000000000000001,36.400000000000006,-56.2,-87.89999999999999,16
1103,42241.0,-5.0,6.9,3.2,2.5,0.7000000000000001,1.6,58.5,-49.9,-44.10000000000001,16
1104,42259.0,-6.5,4.4,4.0,1.2000000000000002,-1.3,2.2,58.5,-49.9,-44.10000000000001,16
1105,42276.0,-8.0,2.0,4.5,0.0,-3.4000000000000004,2.8000000000000003,70.7,-50.1,-24.1,16
1106,42295.0,-9.700000000000001,0.7000000000000001,4.7,-2.7,-5.5,3.0,80.4,-40.4,4.0,16
1107,42308.0,-10.200000000000001,0.4,4.5,-2.7,-5.5,3.0,80.4,-40.4,4.0,16
1108,42325.0,-9.200000000000001,-0.4,3.9000000000000004,-2.3000000000000003,-6.2,2.6,81.3,-27.400000000000002,25.6,16
1109,42342.0,-4.6000000000000005,-2.3000000000000003,-1.5,6.800000000000001,-10.3,-12.4,58.800000000000004,-90.4,72.30000000000001,16
1110,42357.0,0.30000000000000004,-4.1000000000000005,-11.8,6.800000000000001,-10.3,-12.4,58.800000000000004,-90.4,72.30000000000001,16
1111,42376.0,27.3,-8.1,-28.900000000000002,27.6,-13.9,-31.0,-65.6,-103.60000000000001,32.300000000000004,16
1112,42394.0,17.5,-4.2,-0.8,16.900000000000002,-4.4,-2.9000000000000004,-33.300000000000004,126.70000000000002,-216.4,16
1113,42408.0,7.800000000000001,1.7000000000000002,-1.2000000000000002,16.900000000000002,-4.4,-2.9000000000000004,-33.300000000000004,126.70000000000002,-216.4,16
1114,42426.0,3.0,5.6000000000000005,-1.2000000000000002,12.100000000000001,0.5,-3.3000000000000003,17.799999999999997,46.6,-61.39999999999999,16
1115,42441.0,-0.7000000000000001,2.5,1.2000000000000002,6.6000000000000005,-3.3000000000000003,0.1,64.4,30.5,18.900000000000002,16
1116,42460.0,-6.4,0.0,4.4,1.9000000000000001,-5.5,3.1,109.8,25.4,29.200000000000003,16
1117,42474.0,-6.2,-4.9,8.8,1.5,-9.600000000000001,7.2,133.0,28.3,46.7,16
1118,42491.0,-4.6000000000000005,-8.200000000000001,5.6000000000000005,3.6,-15.4,3.0,120.50000000000001,15.8,71.5,16
1119,42510.0,3.2,-16.8,-4.2,10.200000000000001,-22.700000000000003,-5.0,-15.2,-42.900000000000006,79.19999999999999,16
1120,42524.0,-1.2000000000000002,-4.6000000000000005,7.1000000000000005,9.200000000000001,-14.200000000000001,6.4,-75.60000000000001,-34.800000000000004,10.200000000000001,16
1121,42543.0,-6.0,0.5,-3.0,0.2,-4.7,1.5,-5.500000000000001,111.20000000000002,8.8,16
1122,42558.0,-7.7,1.8,2.7,0.2,-4.7,1.5,-5.500000000000001,111.20000000000002,8.8,16
1123,42577.0,-7.7,2.1,5.800000000000001,-0.5,-4.3,5.300000000000001,32.6,70.0,62.0,16
1124,42591.0,-6.300000000000001,1.3,4.9,1.2000000000000002,-5.6000000000000005,4.7,69.5,28.500000000000004,103.00000000000001,16
1125,42610.0,-3.5,-0.2,3.9000000000000004,3.3000000000000003,-7.0,4.0,80.4,-0.1,106.80000000000001,16
1126,42626.0,-1.5,-2.3000000000000003,4.5,4.9,-9.0,4.5,69.80000000000001,-38.1,89.6,16
1127,42643.0,0.5,-3.6,4.5,7.7,-11.3,3.7,56.9,-107.7,62.1,16
1128,42657.0,1.2000000000000002,-3.9000000000000004,3.6,7.7,-11.3,3.7,56.9,-107.7,62.1,16
1129,42676.0,2.4000000000000004,-2.0,-0.9,8.700000000000001,-10.200000000000001,0.7000000000000001,60.6,-57.49999999999999,51.4,16
1130,42692.0,2.1,0.8,-2.9000000000000004,8.200000000000001,-6.4,-2.2,54.800000000000004,70.0,42.800000000000004,16
1131,42709.0,-0.1,4.1000000000000005,-0.1,6.300000000000001,-3.8000000000000003,0.6000000000000001,38.300000000000004,180.8,45.400000000000006,16
1132,42724.0,-1.1,5.0,1.7000000000000002,5.0,-2.9000000000000004,2.6,27.6,178.70000000000002,52.80000000000001,16
1133,42743.0,-1.1,4.9,0.7000000000000001,4.5,-3.1,1.5,29.700000000000006,65.5,31.099999999999998,16
1134,42758.0,-1.4000000000000001,4.6000000000000005,-0.2,4.5,-3.1,1.5,29.700000000000006,65.5,31.099999999999998,16
1135,42776.0,-0.8,2.7,-2.1,4.7,-4.4,0.2,32.6,45.9,16.200000000000003,16
1136,42792.0,-0.1,1.2000000000000002,-3.4000000000000004,5.800000000000001,-6.800000000000001,-1.6,30.9,62.7,8.100000000000001,16
1137,42810.0,1.3,-0.7000000000000001,-4.5,6.800000000000001,-8.4,-2.3000000000000003,16.8,111.6,4.0,16
1138,42824.0,0.7000000000000001,0.0,-2.3000000000000003,6.300000000000001,-8.0,-0.5,-4.5,133.3,14.600000000000001,16
1139,42843.0,0.7000000000000001,1.2000000000000002,-2.0,6.300000000000001,-6.6000000000000005,0.4,-22.700000000000003,65.2,53.599999999999994,16
1140,42861.0,1.2000000000000002,1.3,-2.1,6.300000000000001,-6.6000000000000005,0.4,-22.700000000000003,65.2,53.599999999999994,16
1141,42875.0,2.9000000000000004,0.4,-2.1,7.5,-7.300000000000001,0.30000000000000004,-19.1,52.60000000000001,53.9,16
1142,42892.0,3.7,0.0,-2.4000000000000004,8.8,-8.200000000000001,0.0,-16.4,44.7,44.2,16
1143,42911.0,4.9,-0.2,-3.3000000000000003,9.700000000000001,-8.4,-0.8,-20.599999999999998,39.2,33.800000000000004,16
1144,42926.0,4.9,-0.2,-3.3000000000000003,9.700000000000001,-8.4,-0.8,-20.599999999999998,39.2,33.800000000000004,16
1145,42943.0,7.6000000000000005,2.3000000000000003,-1.5,13.100000000000001,-5.7,0.5,-39.9,-2.6,16.900000000000002,16
1146,42957.0,8.4,2.7,-1.6,13.100000000000001,-5.7,0.5,-39.9,-2.6,16.900000000000002,16
