,ms,accelX,accelY,accelZ,accelWithGX,accelWithGY,accelWithGZ,rotRateAlpha,rotRateBeta,rotRateGamma,interval
0,299.0,-0.04407671093940735,-0.1433711051940918,-0.197021484375,-0.3537139892578125,1.445831298828125,9.198867797851562,1.5832924911223158,-0.2989983611064782,-0.6172305349157123,16
1,318.0,-0.0830504298210144,-0.0895165205001831,-0.26943206787109375,-0.3656768798828125,1.487701416015625,9.245529174804688,0.743998845911149,-0.6539496318937008,-0.42664093631567646,16
2,335.0,-0.09109655022621155,-0.045361876487731934,-0.2103748321533203,-0.39080810546875,1.51043701171875,9.393890380859375,-0.446749013232194,-0.5018276586991769,-0.28938145475510024,16
3,352.0,-0.11086282134056091,-0.01957881450653076,-0.05907249450683594,-0.39080810546875,1.51043701171875,9.393890380859375,-0.9415825582212778,-0.2203145818679313,-0.6285959696946135,16
4,370.0,-0.10573536157608032,-0.015662074089050293,-0.05660724639892578,-0.374053955078125,1.48651123046875,9.477630615234375,-0.7055312205056371,-0.9136061033809055,-0.3680652339936471,16
5,387.0,-0.08613064885139465,-0.035079121589660645,0.0253753662109375,-0.3668670654296875,1.5307769775390625,9.342437744140625,-0.7055312205056371,-0.9136061033809055,-0.3680652339936471,16
6,403.0,-0.07874029874801636,0.01087641716003418,-0.10526847839355469,-0.3549041748046875,1.5726470947265625,9.291000366210938,-0.8821325916854869,-1.684707139918665,0.13725948156057624,16
7,420.0,-0.06812971830368042,0.05383169651031494,-0.15056610107421875,-0.3238067626953125,1.547515869140625,9.439346313476562,-2.1209649825857197,-0.5437923409597352,0.06294702339083752,16
8,438.0,-0.03822237253189087,0.032532691955566406,-0.003017425537109375,-0.3022613525390625,1.5259857177734375,9.606842041015625,-2.1209649825857197,-0.5437923409597352,0.06294702339083752,16
9,455.0,-0.01695910096168518,0.016527533531188965,0.15691566467285156,-0.3022613525390625,1.5259857177734375,9.606842041015625,-1.489746220249821,0.048084531756889766,-0.2474167724945419,16
10,474.0,-0.01640436053276062,0.02104365825653076,0.1500568389892578,-0.2974853515625,1.53436279296875,9.610427856445312,-0.479971053355136,-0.18709254174498927,-0.5193129429744094,16
11,493.0,-0.011220335960388184,0.03098928928375244,0.14752864837646484,-0.3190155029296875,1.54632568359375,9.602066040039062,-0.479971053355136,-0.18709254174498927,-0.5193129429744094,16
12,510.0,-0.03127056360244751,0.04141068458557129,0.13420677185058594,-0.2891082763671875,1.5140228271484375,9.45849609375,0.986170033123121,0.21157193973031496,-1.0928302672020402,16
13,526.0,-0.04174390435218811,0.03798186779022217,-0.15378952026367188,-0.332183837890625,1.5487213134765625,9.3077392578125,0.7090282773606836,-0.4030358025441124,-1.204736086563529,16
14,544.0,-0.04174390435218811,0.03798186779022217,-0.15378952026367188,-0.332183837890625,1.5487213134765625,9.3077392578125,-0.12152272571286686,-1.1225552504699357,-1.174136839081872,16
15,560.0,-0.041933923959732056,0.036066651344299316,-0.14876651763916016,-0.346527099609375,1.5319671630859375,9.276641845703125,-0.5271813208982642,-1.0561111702240515,-0.793831906095562,16
16,578.0,-0.057019591331481934,0.019660472869873047,-0.17447280883789062,-0.391998291015625,1.51641845703125,9.439346313476562,-0.5271813208982642,-1.0561111702240515,-0.793831906095562,16
17,595.0,0.04118052124977112,-0.04398500919342041,-0.05138874053955078,-0.2735595703125,1.4410400390625,9.441741943359375,-1.1767596317231568,-0.4983306018441303,0.2937527758239084,16
18,613.0,0.011726796627044678,-0.06064009666442871,-0.008601188659667969,-0.2735595703125,1.4613800048828125,9.45489501953125,-1.0700993976442377,-0.5743915884413923,0.14600212369819257,16
19,630.0,0.009565770626068115,-0.03666341304779053,0.003970146179199219,-0.352508544921875,1.5140228271484375,9.35321044921875,-0.8078201335157481,-0.7501186954074803,0.1005403845825877,16
20,647.0,-0.06925588846206665,0.01772332191467285,-0.09540081024169922,-0.352508544921875,1.5140228271484375,9.35321044921875,-0.8288024746460273,-0.5289298493257875,0.2675248494110594,16
21,668.0,-0.06803393363952637,0.019899487495422363,-0.09319496154785156,-0.3453369140625,1.52838134765625,9.348419189453125,-1.1820052170057267,0.15299623740828563,0.6522011034661775,16
22,685.0,-0.05950981378555298,0.036846041679382324,-0.09583473205566406,-0.3238067626953125,1.48291015625,9.417816162109375,-1.4801293138984433,-0.2421711872119721,0.3733108192762169,16
23,702.0,-0.039494842290878296,-0.003949999809265137,-0.02648162841796875,-0.3764495849609375,1.57623291015625,9.495574951171875,-1.813223979341625,-1.6934497820562815,-0.529804113539549,16
24,719.0,-0.09582003951072693,0.0913764238357544,0.04896068572998047,-0.267578125,1.5427398681640625,9.541046142578125,-1.4740094644021118,-3.2006812865813354,-1.0805905682093773,16
25,736.0,0.005403041839599609,0.0596998929977417,0.09105587005615234,-0.267578125,1.5427398681640625,9.541046142578125,-1.0342545648800108,-2.412969229982105,-0.1792241638211346,16
26,753.0,0.0006493330001831055,0.060250282287597656,0.08804893493652344,-0.262786865234375,1.494873046875,9.474044799804688,-0.605865100136811,-1.0132722237497316,0.1442535952706693,16
27,772.0,0.003609269857406616,0.013732075691223145,0.020150184631347656,-0.2855224609375,1.5152130126953125,9.426193237304688,-0.6591952171762706,-0.19233812702755906,0.12676831099543664,16
28,791.0,-0.019007325172424316,0.03585410118103027,-0.02737140655517578,-0.3704681396484375,1.54632568359375,9.410629272460938,-1.6882041967737116,-0.0515815886119363,0.5647746820900144,16
29,808.0,-0.1013803482055664,0.06920361518859863,-0.042392730712890625,-0.3776397705078125,1.533172607421875,9.422592163085938,-1.6882041967737116,-0.0515815886119363,0.5647746820900144,16
30,825.0,-0.10671061277389526,0.05970406532287598,-0.030429840087890625,-0.328582763671875,1.517608642578125,9.421401977539062,-2.229373745092162,-0.5612776252349678,1.0937045314158018,16
31,842.0,-0.05914810299873352,0.0491032600402832,-0.03179359436035156,-0.328582763671875,1.517608642578125,9.421401977539062,-2.1253363036545276,-1.77300782550859,0.727387825849678,16
32,859.0,-0.06215447187423706,0.0538029670715332,-0.031982421875,-0.3477325439453125,1.5128326416015625,9.475234985351562,-2.1253363036545276,-1.77300782550859,0.727387825849678,16
33,877.0,-0.08529478311538696,0.05277276039123535,0.020280838012695312,-0.2902984619140625,1.46856689453125,9.367568969726562,-1.7572710696608806,-2.189157591259127,0.912731839167144,16
34,894.0,-0.033934980630874634,0.012877345085144043,-0.08585453033447266,-0.3943939208984375,1.505645751953125,9.2598876953125,-1.4845006349672514,-1.977585651528812,1.3787146651020938,16
35,911.0,-0.1402810513973236,0.05284905433654785,-0.1889820098876953,-0.3202056884765625,1.523590087890625,8.940444946289062,-1.4845006349672514,-1.977585651528812,1.3787146651020938,16
36,928.0,-0.07148224115371704,0.07422184944152832,-0.49532222747802734,-0.328582763671875,1.5259857177734375,9.098373413085938,-5.469396921292771,-3.3353179755006264,1.7485284275232642,16
37,945.0,-0.09460349380970001,0.10094249248504639,-0.32675838470458984,-0.328582763671875,1.5259857177734375,9.098373413085938,-5.469396921292771,-3.3353179755006264,1.7485284275232642,16
38,962.0,-0.09460349380970001,0.10094249248504639,-0.32675838470458984,-0.208953857421875,1.424285888671875,9.614028930664062,-6.077010549857105,-2.5030184439995526,0.9206002170909986,16
39,978.0,0.016461387276649475,0.017381906509399414,0.1826019287109375,-0.163482666015625,1.4147186279296875,9.774337768554688,-2.4444427416775234,-2.5231265209160703,-0.13201389627800644,16
40,996.0,0.05386349558830261,0.01921844482421875,0.33501529693603516,-0.19219970703125,1.427886962890625,9.367568969726562,-2.4444427416775234,-2.5231265209160703,-0.13201389627800644,16
41,1013.0,0.018212422728538513,0.03583860397338867,-0.07125663757324219,-0.25201416015625,1.4482269287109375,9.021804809570312,-1.8289607351893344,-1.1234295146836972,-0.5193129429744094,16
42,1029.0,-0.045419007539749146,0.05841267108917236,-0.4105215072631836,-0.3190155029296875,1.4601898193359375,9.0433349609375,-1.8289607351893344,-1.1234295146836972,-0.5193129429744094,16
43,1054.0,-0.11082373559474945,0.0934072732925415,-0.37998485565185547,-0.2484283447265625,1.3572998046875,9.367568969726562,-7.625332472428956,0.12414551835415176,0.9083605180983357,16
44,1071.0,-0.040032610297203064,0.011804342269897461,-0.05790233612060547,-0.3824310302734375,1.37164306640625,9.306549072265625,-7.973289629506085,-0.1984579765238905,0.8384193809974052,16
45,1089.0,-0.17343974113464355,0.04718279838562012,-0.12012004852294922,-0.340545654296875,1.421905517578125,9.14263916015625,-7.855263960648265,-1.1155611367598426,1.1260523073249822,16
46,1106.0,-0.13511352241039276,0.11870408058166504,-0.2828865051269531,-0.3549041748046875,1.475738525390625,9.346023559570312,-8.969076568980585,-2.5939419222307625,1.8639313037397998,16
47,1123.0,-0.15668797492980957,0.19654691219329834,-0.08212947845458984,-0.1192169189453125,1.4027557373046875,9.771957397460938,-10.735090280779081,-3.814414764642001,2.3963582099206335,16
48,1140.0,0.06447160243988037,0.15169715881347656,0.3343029022216797,-0.1192169189453125,1.4027557373046875,9.771957397460938,-11.426633273864532,-5.305035249105583,2.6009360359408555,16
49,1157.0,0.04677964746952057,0.17827510833740234,0.3252239227294922,-0.0594024658203125,1.4326629638671875,10.1739501953125,-9.831101083749553,-6.417973593224142,1.6051490964663566,16
50,1174.0,0.08820866048336029,0.2267988920211792,0.7134571075439453,-0.0594024658203125,1.5008697509765625,10.294784545898438,-6.0988671552011455,-5.679220332595563,0.20545209023398356,16
51,1191.0,0.07644675672054291,0.3007206916809082,0.8207740783691406,-0.1323699951171875,1.517608642578125,10.08660888671875,-1.2056103507772906,-2.0833716213939693,-0.8882524411818182,16
52,1208.0,0.0011481493711471558,0.3121453523635864,0.603912353515625,-0.2783355712890625,1.54632568359375,9.795883178710938,2.829993259946403,1.5588130931369901,-1.0499913207277203,16
53,1225.0,-0.14004476368427277,0.32975780963897705,0.3096170425415039,-0.2663726806640625,1.409942626953125,9.855697631835938,2.829993259946403,1.5588130931369901,-1.0499913207277203,16
54,1242.0,-0.12265926599502563,0.18473482131958008,0.36511898040771484,-0.2663726806640625,1.409942626953125,9.855697631835938,1.5526932436406586,0.774598093392806,-1.492369012891106,16
55,1258.0,-0.12131412327289581,0.17878377437591553,0.36055469512939453,-0.19219970703125,1.3034515380859375,9.965774536132812,0.9984097321157839,-1.4984888623874375,-2.2215053671683074,16
56,1279.0,-0.05272050201892853,0.06650674343109131,0.46480369567871094,-0.267578125,1.3142242431640625,9.7408447265625,2.580827959024338,-3.6587957345924305,-2.607055885437187,16
57,1296.0,-0.13603228330612183,0.06734788417816162,0.2377033233642578,-0.1299896240234375,1.2280731201171875,9.637954711914062,3.9612911525539554,-3.0739129755858987,-1.7249232937517003,16
58,1314.0,-0.007458806037902832,-0.029378533363342285,0.13434696197509766,-0.1180267333984375,1.1503143310546875,9.660690307617188,4.286517440073283,-2.7600521228454724,-2.5843250158793847,16
59,1330.0,-0.00278540700674057,-0.11700034141540527,0.1564493179321289,-0.0570068359375,1.1024627685546875,9.596084594726562,4.286517440073283,-2.7600521228454724,-2.5843250158793847,16
60,1347.0,0.05161679536104202,-0.1753847599029541,0.09229087829589844,-0.0570068359375,1.1024627685546875,9.596084594726562,5.878552573333215,-1.200364765494721,-2.5685882600316754,16
61,1365.0,0.04724027216434479,-0.1880054473876953,0.09308815002441406,-0.034271240234375,1.078521728515625,9.471649169921875,5.878552573333215,-1.200364765494721,-2.5685882600316754,16
62,1382.0,0.06716787815093994,-0.2254025936126709,-0.028777122497558594,-0.0605926513671875,1.070159912109375,9.362777709960938,5.221105884584467,-1.019392073246063,-3.023205651187724,16
63,1398.0,0.03875403851270676,-0.24607384204864502,-0.13386821746826172,-0.082122802734375,1.0378570556640625,9.285003662109375,4.46749013232194,-0.8139399830120795,-2.530994898839925,16
64,1415.0,0.015552990138530731,-0.2882131338119507,-0.20723438262939453,-0.1168212890625,1.070159912109375,9.238357543945312,4.46749013232194,-0.8139399830120795,-2.530994898839925,16
65,1435.0,-0.028148069977760315,-0.28460896015167236,-0.4613151550292969,-0.122802734375,1.0558013916015625,9.0194091796875,2.558971353680297,-0.9590678424965104,-1.6680961198571942,16
66,1456.0,-0.029767490923404694,-0.2847999334335327,-0.45540809631347656,-0.04144287109375,1.0569915771484375,9.066070556640625,0.0489587959706514,-0.8716414211203473,-1.2265926919075698,16
67,1474.0,0.048723749816417694,-0.2772482633590698,-0.4044504165649414,-0.1240081787109375,1.0450286865234375,9.375930786132812,-2.261721521001342,-1.0823390966369006,-0.8943722906781497,16
68,1490.0,-0.03619259595870972,-0.279507040977478,-0.09442615509033203,-0.06298828125,1.05340576171875,9.40704345703125,-2.373627340362831,-1.1688912537993021,-0.9031149328157659,16
69,1507.0,0.02167419344186783,-0.26386260986328125,-0.06320667266845703,-0.1443328857421875,1.1790313720703125,9.018203735351562,-0.6609437456037939,-1.1968677086396744,-1.0447457354451504,16
70,1527.0,-0.06149023026227951,-0.13464772701263428,-0.44727325439453125,-0.2029571533203125,1.247222900390625,8.930877685546875,-0.8051973408744632,-0.9048634612432892,-1.01239795953597,16
71,1543.0,-0.1199643462896347,-0.06034350395202637,-0.529414176940918,-0.2029571533203125,1.247222900390625,8.930877685546875,-3.096643845143701,-0.24129692299821046,-1.022014865887348,16
72,1560.0,-0.11663167178630829,-0.0495527982711792,-0.5249738693237305,-0.2962799072265625,1.253204345703125,9.35919189453125,-4.276900533721904,1.459146972768164,-0.7999517555918934,16
73,1580.0,-0.2016933709383011,-0.029798269271850586,-0.0973672866821289,-0.2532196044921875,1.23406982421875,9.621200561523438,-5.413444011612026,2.6560146814078385,-1.0106494311084468,16
74,1598.0,-0.15042802691459656,-0.03395199775695801,0.16098785400390625,-0.226898193359375,1.2484130859375,9.518310546875,-4.182479998635648,-0.08480362873487832,-2.5921933938032393,16
75,1615.0,-0.11975771188735962,-0.006599068641662598,0.05580615997314453,-0.3333740234375,1.34771728515625,9.541046142578125,-4.182479998635648,-0.08480362873487832,-2.5921933938032393,16
76,1632.0,-0.22338445484638214,0.1029883623123169,0.07623291015625,-0.3333740234375,1.34771728515625,9.541046142578125,-3.5416443299483715,1.0779677755680923,-1.746779899095741,16
77,1649.0,-0.21915513277053833,0.11228823661804199,0.07410430908203125,-0.368072509765625,1.3213958740234375,9.561386108398438,-3.36941427983733,1.9889510863077131,0.01923381270275591,16
78,1666.0,-0.2467176914215088,0.09459412097930908,0.09228801727294922,-0.3417510986328125,1.3142242431640625,9.41900634765625,-3.36941427983733,1.9889510863077131,0.01923381270275591,16
79,1683.0,-0.21266785264015198,0.0972442626953125,-0.05088996887207031,-0.3716583251953125,1.34173583984375,9.415420532226562,-6.516765449379206,0.9581935782827488,1.4617697654094488,16
80,1701.0,-0.2363123893737793,0.138505220413208,-0.05579185485839844,-0.3070526123046875,1.295074462890625,9.490798950195312,-6.516765449379206,0.9581935782827488,1.4617697654094488,16
81,1720.0,-0.15080289542675018,0.08734452724456787,0.3145561218261719,-0.2831268310546875,1.2484130859375,9.794677734375,-8.677072321584198,-2.2232538955958305,1.7668879760122584,16
82,1737.0,-0.15768766403198242,0.10702705383300781,0.3088665008544922,-0.100067138671875,1.2244873046875,9.748016357421875,-6.305193509648891,-3.4472237948621154,1.5841667553360774,16
83,1757.0,0.014111652970314026,0.09723162651062012,0.2577342987060547,-0.0737457275390625,1.2448272705078125,9.645126342773438,-4.583767272752238,-4.247175550454009,0.9826729762680745,16
84,1774.0,0.028893403708934784,0.12828147411346436,0.15182876586914062,-0.010345458984375,1.241241455078125,9.628387451171875,-4.03910066757874,-3.623825166041965,0.9319656518698999,16
85,1791.0,0.08243786543607712,0.13441145420074463,0.13243484497070312,-0.0031585693359375,1.217315673828125,9.551803588867188,-3.897469864949356,-2.669128644614263,0.9721818057029349,16
86,1811.0,0.0824173167347908,0.11945366859436035,0.05410194396972656,0.025543212890625,1.2244873046875,9.545822143554688,-3.384276771471278,-1.7494026917370258,0.7300106184909628,16
87,1828.0,0.1061265766620636,0.13503944873809814,0.04652976989746094,0.025543212890625,1.2244873046875,9.545822143554688,-3.591477390132785,-0.9643134277790802,0.6111106854193809,16
88,1846.0,0.10398142784833908,0.14423739910125732,0.04489707946777344,-0.06298828125,1.1730499267578125,9.669052124023438,-3.9971359853181823,0.2526623577771117,0.5359239630358805,16
89,1862.0,0.016146861016750336,0.10185885429382324,0.16546916961669922,-0.0833282470703125,1.171844482421875,9.732467651367188,-3.1954357012987655,0.43450931423953115,0.15911608690461704,16
90,1880.0,-0.002472706139087677,0.10670733451843262,0.22603511810302734,-0.1048583984375,1.1551055908203125,9.64752197265625,-1.8551886616021833,0.7649811870414281,-0.33659172229822837,16
91,1896.0,-0.020637042820453644,0.09267663955688477,0.1394510269165039,-0.211334228515625,1.171844482421875,9.465667724609375,-0.6828003509478346,1.3586065881855762,-1.0805905682093773,16
92,1913.0,-0.12258988618850708,0.11051177978515625,-0.04222679138183594,-0.28790283203125,1.1407470703125,9.44891357421875,-0.7964546987368468,0.8078201335157481,-1.4984888623874375,16
93,1930.0,-0.19506117701530457,0.08151388168334961,-0.058750152587890625,-0.28790283203125,1.1407470703125,9.44891357421875,-1.209981671846099,0.5997452506404797,-1.0447457354451504,16
94,1947.0,-0.18841208517551422,0.08292150497436523,-0.05751514434814453,-0.2592010498046875,1.1168212890625,9.490798950195312,-1.485374899181013,0.11889993307158198,-0.6635665382450788,16
95,1966.0,-0.15523761510849,0.061478614807128906,-0.015653610229492188,-0.2532196044921875,1.0868988037109375,9.487197875976562,-1.9732143304600036,-1.1680169895855406,-0.04983306018441303,16
96,1982.0,-0.14690881967544556,0.0354534387588501,-0.01926708221435547,-0.21612548828125,1.0629730224609375,9.496780395507812,-1.9732143304600036,-1.1680169895855406,-0.04983306018441303,16
97,1999.0,-0.10961932688951492,0.016830921173095703,-0.010066986083984375,-0.1957855224609375,1.0797271728515625,9.486007690429688,-2.176917892266464,-0.9774273909855047,-0.28151307683124555,16
98,2016.0,-0.08834181725978851,0.03910505771636963,-0.02098560333251953,-0.2484283447265625,1.0498199462890625,9.606842041015625,-2.8361131094427345,0.08655215716240158,-0.9057377254570509,16
99,2034.0,-0.13707825541496277,0.016297459602355957,0.09627246856689453,-0.2484283447265625,1.0498199462890625,9.606842041015625,-2.8361131094427345,0.08655215716240158,-0.9057377254570509,16
100,2051.0,-0.1324450522661209,0.022871017456054688,0.09284591674804688,-0.19818115234375,1.0043487548828125,9.663070678710938,-1.8857879090838405,-0.03409630433670365,-0.9931641468332141,16
101,2068.0,-0.07924105226993561,-0.016228675842285156,0.14432334899902344,-0.1766510009765625,1.0211029052734375,9.558990478515625,-1.5684299994883681,-0.4432519563771475,-1.8018585445627238,16
102,2085.0,-0.05634870380163193,0.005240678787231445,0.038616180419921875,-0.2017669677734375,1.03546142578125,9.416610717773438,-1.5684299994883681,-0.4432519563771475,-1.8018585445627238,16
103,2102.0,-0.07914029806852341,0.024032235145568848,-0.1014089584350586,-0.1551055908203125,1.054595947265625,9.475234985351562,-2.7670462365555655,0.5971224579991947,-1.7651394475847353,16
104,2118.0,-0.030112668871879578,0.0485692024230957,-0.042275428771972656,-0.15869140625,1.10723876953125,9.367568969726562,-2.7670462365555655,0.5971224579991947,-1.7651394475847353,16
105,2136.0,-0.030016198754310608,0.10651767253875732,-0.1465930938720703,-0.15869140625,1.10723876953125,9.367568969726562,-3.8677448816814604,2.5222522567023087,-1.8210923572654798,16
106,2159.0,-0.131535142660141,0.12340819835662842,0.11668109893798828,-0.23406982421875,1.0749359130859375,9.749221801757812,-3.37990545040247,2.984738025782212,-1.6235086449553509,16
107,2176.0,-0.07697434723377228,0.09194320440292358,0.22684383392333984,-0.2651824951171875,1.0916900634765625,9.631973266601562,-1.647113778726915,2.5371147483362564,-1.1365434778901218,16
108,2192.0,-0.09879229962825775,0.10950398445129395,0.10626220703125,-0.267578125,1.1084442138671875,9.562576293945312,-1.1400405347451683,1.8884107017251255,-0.9415825582212778,16
109,2209.0,-0.09477826952934265,0.12587207555770874,0.03558158874511719,-0.3022613525390625,1.09527587890625,9.64154052734375,-1.1304236283937903,0.5848827590065319,-0.800826019805655,16
110,2227.0,-0.12401002645492554,0.11366486549377441,0.11097526550292969,-0.3022613525390625,1.09527587890625,9.64154052734375,-1.8621827753122764,0.6495783108248927,-0.48871369549275234,16
111,2246.0,-0.11867636442184448,0.11559391021728516,0.1074066162109375,-0.3058624267578125,1.0916900634765625,9.722900390625,-1.8761710027324625,0.691542993085451,-0.0026227926412848964,16
112,2264.0,-0.11747382581233978,0.113040030002594,0.18312454223632812,-0.286712646484375,1.070159912109375,9.694183349609375,-1.1767596317231568,0.35145421393217613,0.0681926086734073,16
113,2281.0,-0.09658236801624298,0.09209173917770386,0.1497783660888672,-0.256805419921875,1.054595947265625,9.648727416992188,-1.1356692136763602,-1.01239795953597,0.5892540800753401,16
114,2298.0,-0.06765350699424744,0.07775008678436279,0.10102462768554688,-0.229278564453125,1.0617828369140625,9.631973266601562,-1.3516124744754832,-0.9468281435038476,0.6128592138469041,16
115,2315.0,-0.04121112823486328,0.08531922101974487,0.08160591125488281,-0.2592010498046875,1.0270843505859375,9.549423217773438,-0.6871716720166429,-0.5551577757386364,0.5149416219056013,16
116,2332.0,-0.07034485042095184,0.04997587203979492,-0.0010194778442382812,-0.2592010498046875,1.0270843505859375,9.549423217773438,0.06994113710093057,-0.33134613701565857,0.33396892965694347,16
117,2349.0,-0.0692484974861145,0.048323988914489746,-0.0009813308715820312,-0.21612548828125,1.0163116455078125,9.5362548828125,0.06994113710093057,-0.33134613701565857,0.33396892965694347,16
118,2367.0,-0.02574886381626129,0.035987019538879395,-0.013709068298339844,-0.22210693359375,1.0091400146484375,9.592483520507812,0.30074688953400147,0.17310431432480317,0.2955013042514317,16
119,2383.0,-0.029572412371635437,0.027736544609069824,0.04139232635498047,-0.2185211181640625,1.00555419921875,9.652313232421875,-0.10578596986515748,0.8156885114396027,0.1932123912413207,16
120,2400.0,-0.023058265447616577,0.02344667911529541,0.09845829010009766,-0.211334228515625,0.9804229736328125,9.597274780273438,0.1223969899266285,0.8462877589212598,0.1932123912413207,16
121,2420.0,-0.013811662793159485,-0.0029941201210021973,0.04238605499267578,-0.238861083984375,1.0462188720703125,9.399871826171875,1.3542352671167681,-0.1311396320642448,-0.152121973194524,16
122,2437.0,-0.039852872490882874,0.05803418159484863,-0.1503925323486328,-0.238861083984375,1.0462188720703125,9.399871826171875,0.9485766719313709,-1.0867104177057088,-0.037593361191750184,16
123,2453.0,-0.04037536680698395,0.053295671939849854,-0.14592552185058594,-0.229278564453125,1.064178466796875,9.2838134765625,0.9485766719313709,-1.0867104177057088,-0.037593361191750184,16
124,2470.0,-0.033597469329833984,0.06919896602630615,-0.2547750473022461,-0.1850128173828125,1.05938720703125,9.456100463867188,-1.8184695646241948,-1.121680986256174,-0.1932123912413207,16
125,2487.0,0.006689086556434631,0.06630462408065796,-0.0806570053100586,-0.1323699951171875,0.9911956787109375,9.733657836914062,-1.8184695646241948,-1.121680986256174,-0.1932123912413207,16
126,2504.0,0.0556701123714447,0.002482295036315918,0.19094085693359375,-0.175445556640625,0.9864044189453125,9.664276123046875,-0.09354627087249463,-1.0840876250644238,-1.1863765380745348,16
127,2522.0,0.010419994592666626,-0.00024336576461791992,0.11793899536132812,-0.223297119140625,1.018707275390625,9.415420532226562,0.8550304010588762,-0.7833407355304224,-1.2230956350525233,16
128,2539.0,-0.0385919064283371,0.030197501182556152,-0.12722301483154297,-0.223297119140625,1.018707275390625,9.415420532226562,0.8550304010588762,-0.7833407355304224,-1.2230956350525233,16
129,2556.0,-0.03904758393764496,0.028579652309417725,-0.12363815307617188,-0.23406982421875,1.0318756103515625,9.40704345703125,-1.3892058356672334,-0.5831342305790086,-0.6784290298790265,16
130,2572.0,-0.04976773262023926,0.042843759059906006,-0.12860870361328125,-0.223297119140625,0.9923858642578125,9.62359619140625,-1.8359548488994275,-0.7903348492405154,-0.9914156184056908,16
131,2590.0,-0.039541780948638916,0.007684171199798584,0.08501052856445312,-0.2711639404296875,0.97802734375,9.661880493164062,-1.3979484778048499,-1.2860426584433609,-1.597280718542502,16
132,2609.0,-0.09192942082881927,0.04760730266571045,0.0063152313232421875,-0.2735595703125,1.0258941650390625,9.549423217773438,-0.7719753007515212,-2.4584309690977095,-1.967968745177434,16
133,2626.0,-0.09555187821388245,0.048539698123931885,0.005793571472167969,-0.2651824951171875,1.0318756103515625,9.615219116210938,-0.8148142472258412,-2.4750419891591804,-1.827212206761811,16
134,2643.0,-0.09034773707389832,0.05485016107559204,0.06930923461914062,-0.1826324462890625,1.0103302001953125,9.649917602539062,-0.48609090285146744,-1.9461121398333932,-1.1496574410965463,16
135,2663.0,-0.012462303042411804,0.0330008864402771,0.1009674072265625,-0.2711639404296875,1.01751708984375,9.521896362304688,0.06994113710093057,-1.872673945877416,-1.0788420397818541,16
136,2680.0,-0.10307826101779938,0.03935962915420532,-0.026416778564453125,-0.25201416015625,1.054595947265625,9.532669067382812,-0.2544108862046349,-1.8805423238012706,-0.45811444801109524,16
137,2697.0,-0.0863153338432312,0.07575476169586182,-0.015438079833984375,-0.292694091796875,1.064178466796875,9.642730712890625,-0.7929576418818003,-1.6549821566507696,-0.1827212206761811,16
138,2713.0,-0.12726359069347382,0.08550530672073364,0.09166908264160156,-0.292694091796875,1.064178466796875,9.642730712890625,-1.069225133430476,-1.1653941969442556,-0.09704332772754116,16
139,2730.0,-0.12817244231700897,0.08589118719100952,0.08876323699951172,-0.223297119140625,0.9720458984375,9.707351684570312,-0.9590678424965104,-2.112222340448103,-0.004371321068808161,16
140,2748.0,-0.06371615827083588,-0.0046651363372802734,0.14886856079101562,-0.235260009765625,1.001953125,9.582916259765625,-0.06119849496331425,-2.783657256617037,-0.6259731770533286,16
141,2765.0,-0.07985854148864746,0.02384096384048462,0.02372264862060547,-0.28790283203125,1.01153564453125,9.426193237304688,0.6067393643505727,-2.023047390644417,-1.2510720898928955,16
142,2782.0,-0.13057759404182434,0.030680060386657715,-0.1291494369506836,-0.3249969482421875,0.9804229736328125,9.352005004882812,0.7588613375450967,0.5289298493257875,-0.7378789964148175,16
143,2799.0,-0.15931838750839233,-0.00028073787689208984,-0.19764328002929688,-0.33935546875,0.9600830078125,9.369949340820312,-0.8620245147689692,2.189157591259127,0.7579870733313351,16
144,2815.0,-0.16518399119377136,-0.015076994895935059,-0.17515182495117188,-0.33935546875,0.9600830078125,9.369949340820312,-2.8177535609537405,0.6539496318937008,0.6600694813900323,16
145,2832.0,-0.16192467510700226,-0.005420684814453125,-0.1712503433227539,-0.3238067626953125,0.943328857421875,9.649917602539062,-4.004130099028275,-1.4845006349672514,0.7807179428891375,16
146,2849.0,-0.14777450263500214,-0.012006223201751709,0.10463619232177734,-0.2544097900390625,0.9576873779296875,9.787506103515625,-3.0529306344556195,-2.391112624638064,0.6600694813900323,16
147,2869.0,-0.08148467540740967,0.008155465126037598,0.2348155975341797,-0.211334228515625,0.9792327880859375,9.7587890625,-1.2851683942295993,-1.3822117219571404,0.47822252492761275,16
148,2888.0,-0.04041162133216858,0.029590368270874023,0.20024681091308594,-0.2962799072265625,1.0402374267578125,9.553009033203125,0.7527414880487653,-0.8349223241423587,-0.08392936452111668,16
149,2905.0,-0.12354809045791626,0.08575159311294556,-0.0051784515380859375,-0.223297119140625,1.0211029052734375,9.529083251953125,0.9669362204203651,-0.4511203343010022,-0.489587959706514,16
150,2922.0,-0.050226375460624695,0.06284767389297485,-0.028123855590820312,-0.223297119140625,1.0211029052734375,9.529083251953125,0.20545209023398356,-0.3068667390303329,-0.33396892965694347,16
151,2939.0,-0.049721166491508484,0.060215771198272705,-0.02727031707763672,-0.334564208984375,1.030670166015625,9.544631958007812,0.20545209023398356,-0.3068667390303329,-0.33396892965694347,16
152,2956.0,-0.15717114508152008,0.06812745332717896,-0.01143646240234375,-0.27593994140625,1.02349853515625,9.517120361328125,-0.41177844468172875,-0.1827212206761811,0.2500395651358268,16
153,2973.0,-0.09666459262371063,0.06094115972518921,-0.038051605224609375,-0.2496185302734375,1.03546142578125,9.59368896484375,-1.504608711883769,-0.8095686619432714,0.8086943977295097,16
154,2989.0,-0.07017382979393005,0.07402986288070679,0.03709602355957031,-0.22210693359375,1.02349853515625,9.667861938476562,-1.504608711883769,-0.8095686619432714,0.8086943977295097,16
155,3007.0,-0.04461674392223358,0.06454050540924072,0.107696533203125,-0.22210693359375,1.02349853515625,9.696578979492188,-1.2178500497699536,-1.257191939389227,1.3227617554213493,16
156,3023.0,-0.04719701409339905,0.06654399633407593,0.1321725845336914,-0.1479339599609375,0.9624786376953125,9.696578979492188,-0.33834025072575163,-1.6680961198571942,0.6268474412670902,16
157,3040.0,0.021976560354232788,0.007441580295562744,0.12821578979492188,-0.1790313720703125,1.0342559814453125,9.533859252929688,-0.33834025072575163,-1.6680961198571942,0.6268474412670902,16
158,3057.0,-0.013255685567855835,0.07772457599639893,-0.03369426727294922,-0.18621826171875,1.0091400146484375,9.547027587890625,-0.8707671569065856,-0.46947988278999647,0.2640277925560129,16
159,3075.0,-0.02258022129535675,0.05258786678314209,-0.02014636993408203,-0.16827392578125,1.00555419921875,9.652313232421875,-0.8707671569065856,-0.46947988278999647,0.2640277925560129,16
160,3091.0,-0.004074126482009888,0.04941248893737793,0.08260440826416016,-0.211334228515625,0.9875946044921875,9.58172607421875,0.3322204012294202,1.0814648324231388,-0.037593361191750184,16
161,3109.0,-0.043237388134002686,0.03071892261505127,0.011713981628417969,-0.1945953369140625,0.976837158203125,9.579330444335938,0.2858843979000537,0.42664093631567646,-0.2570336788459198,16
162,3125.0,-0.023667022585868835,0.018571674823760986,0.009180068969726562,-0.1945953369140625,0.976837158203125,9.579330444335938,0.2858843979000537,0.42664093631567646,-0.2570336788459198,16
163,3142.0,-0.02214886248111725,0.017532527446746826,0.008993148803710938,-0.2555999755859375,0.9875946044921875,9.631973266601562,0.3558255350009843,-0.1634874079734252,-0.4074071236129206,16
164,3165.0,-0.019043222069740295,-0.0045244693756103516,0.0503387451171875,-0.2029571533203125,0.9864044189453125,9.5242919921875,0.8244311535772191,0.21419473237159986,-0.32784908016061204,16
165,3183.0,-0.026025399565696716,0.02139115333557129,-0.047379493713378906,-0.292694091796875,1.0450286865234375,9.416610717773438,0.7483701669799571,0.18009842803489623,-0.2622792641284896,16
166,3199.0,-0.11204192042350769,0.07718348503112793,-0.1506824493408203,-0.15032958984375,1.0031585693359375,9.561386108398438,-0.29724983267895494,0.16785872904223337,0.040216153833035076,16
167,3216.0,0.02939087152481079,0.035614728927612305,-0.0058746337890625,-0.15032958984375,1.0031585693359375,9.561386108398438,-0.6434584613285612,-0.23605133771564069,-0.0655698160321224,16
168,3234.0,0.027220264077186584,0.03583806753158569,-0.005859375,-0.244842529296875,0.9756317138671875,9.586502075195312,-0.2334285450743558,-0.8288024746460273,-0.6355900834047066,16
169,3251.0,-0.06656676530838013,0.008514463901519775,0.01865673065185547,-0.1778411865234375,0.9720458984375,9.596084594726562,-0.058575702322029355,-0.1556190300495705,-0.800826019805655,16
170,3267.0,0.0005344301462173462,0.004401504993438721,0.027496337890625,-0.21014404296875,0.99957275390625,9.567367553710938,0.38205346141383323,0.03671909697798855,-1.188125066502058,16
171,3285.0,-0.030153200030326843,0.03013777732849121,-0.0010824203491210938,-0.2615814208984375,0.9971771240234375,9.513519287109375,0.33047187280189694,0.2334285450743558,-1.4582727085544025,16
172,3301.0,-0.07805190980434418,0.026258528232574463,-0.05330944061279297,-0.1826324462890625,0.966064453125,9.566162109375,0.24654250828078025,0.4109041804679671,-1.3979484778048499,16
173,3318.0,0.0026695430278778076,-0.004911303520202637,-0.0005950927734375,-0.1826324462890625,0.966064453125,9.566162109375,-0.05420438125322119,0.6364643476184682,-1.2816713373745527,16
174,3335.0,0.003977224230766296,-0.003999471664428711,-0.0006313323974609375,-0.274749755859375,0.976837158203125,9.585311889648438,-0.4598629764386185,0.08917494980368648,-1.5623101499920367,16
175,3351.0,-0.08546116948127747,0.00767594575881958,0.017896652221679688,-0.2125396728515625,0.982818603515625,9.568557739257812,-0.2823873410450072,-0.22381163872297782,-1.4346675747828384,16
176,3372.0,-0.022574245929718018,0.014048993587493896,0.0010318756103515625,-0.267578125,0.988800048828125,9.531463623046875,-0.21944031765416966,-0.08130657187983178,-1.8018585445627238,16
177,3389.0,-0.07503318786621094,0.019786834716796875,-0.03508281707763672,-0.3070526123046875,1.02349853515625,9.378326416015625,0.0655698160321224,0.006994113710093057,-2.0029393137278992,16
178,3406.0,-0.11181329190731049,0.05265486240386963,-0.1829690933227539,-0.2843170166015625,1.0091400146484375,9.276641845703125,0.25528515041839656,-0.8069458693019864,-2.370130283507785,16
179,3425.0,-0.08940683305263519,0.03834027051925659,-0.27691650390625,-0.2843170166015625,1.0091400146484375,9.276641845703125,-2.2250024240233537,-2.1148451330893883,-2.155061286922423,16
180,3442.0,-0.09153337776660919,0.04175049066543579,-0.2697715759277344,-0.23406982421875,0.9804229736328125,9.471649169921875,-2.2250024240233537,-2.1148451330893883,-2.155061286922423,16
181,3458.0,-0.04487088322639465,0.0187833309173584,-0.07339668273925781,-0.19818115234375,0.9541015625,9.545822143554688,-2.2022715544655513,-1.7074380094764676,-1.2213471066250001,16
182,3475.0,-0.012388557195663452,-0.0012671947479248047,7.343292236328125e-05,-0.25799560546875,0.97802734375,9.65350341796875,-2.783657256617037,-0.44762327744595565,-0.1031631772238726,16
183,3492.0,-0.07229478657245636,0.028850913047790527,0.10404014587402344,-0.2029571533203125,0.9756317138671875,9.8006591796875,-2.783657256617037,-0.44762327744595565,-0.1031631772238726,16
184,3509.0,-0.017510131001472473,0.032066285610198975,0.2435750961303711,-0.2029571533203125,0.9756317138671875,9.8006591796875,-0.7370047322010559,-0.9704332772754116,-0.7361304679872942,16
185,3526.0,-0.018384069204330444,0.03475755453109741,0.23642921447753906,-0.1886138916015625,1.0031585693359375,9.797073364257812,-0.7370047322010559,-0.9704332772754116,-0.7361304679872942,16
186,3543.0,-0.0075199902057647705,0.061861395835876465,0.22617721557617188,-0.2496185302734375,1.078521728515625,9.757598876953125,-0.17834989960737296,-1.8927820227939336,-1.5649329426333216,16
187,3560.0,-0.07129833102226257,0.13321101665496826,0.18145084381103516,-0.21014404296875,1.05938720703125,9.794677734375,1.0447457354451504,-1.5150998824489086,-2.0859944140352544,16
188,3577.0,-0.03586265444755554,0.11163383722305298,0.2176065444946289,-0.21014404296875,1.0318756103515625,9.646331787109375,1.0447457354451504,-1.5150998824489086,-2.0859944140352544,16
189,3594.0,-0.03756904602050781,0.0786028504371643,0.06940937042236328,-0.2376556396484375,1.064178466796875,9.415420532226562,3.2478915541244633,0.19758371231012886,-1.5701785279158913,16
190,3611.0,-0.0643281638622284,0.10217249393463135,-0.15991497039794922,-0.2376556396484375,1.064178466796875,9.415420532226562,3.2478915541244633,0.19758371231012886,-1.5701785279158913,16
191,3628.0,-0.06256303191184998,0.09346413612365723,-0.1583108901977539,-0.3130340576171875,1.0558013916015625,9.32568359375,2.6988536278821584,0.572643060013869,-1.2064846149910524,16
192,3647.0,-0.1360596865415573,0.07921355962753296,-0.24631404876708984,-0.399169921875,1.0510101318359375,9.35321044921875,-0.6452069897560845,-0.1337624247055297,0.28675866211381534,16
193,3670.0,-0.1263177990913391,-0.0038980841636657715,0.030692100524902344,-0.2412567138671875,0.9026641845703125,9.78271484375,-1.5229682603727632,-0.8034488124469399,0.886503912754295,16
194,3689.0,-0.06772035360336304,-0.06854647397994995,0.20997142791748047,-0.2891082763671875,0.9385528564453125,9.65350341796875,-0.8078201335157481,-1.8377033773269507,0.6670635951001254,16
195,3705.0,-0.12054973840713501,-0.03248196840286255,0.0802907943725586,-0.2891082763671875,0.9385528564453125,9.65350341796875,0.7815922071028991,-2.0667606013324984,-0.2727704346936292,16
196,3723.0,-0.12409359216690063,-0.036032140254974365,0.08022880554199219,-0.292694091796875,0.9361572265625,9.433364868164062,1.8735482100911776,-0.8996178759607194,-0.0708154013146922,16
197,3740.0,-0.12901341915130615,-0.042227089405059814,-0.13890552520751953,-0.2711639404296875,0.9337615966796875,9.398666381835938,0.9678104846341268,-0.4406291637358626,0.3593225918560308,16
198,3757.0,-0.11019912362098694,-0.045976340770721436,-0.17271804809570312,-0.26397705078125,0.9541015625,9.475234985351562,0.1390080099880995,-1.8106011867003402,0.0463360033293665,16
199,3775.0,-0.10948404669761658,-0.02541649341583252,-0.09584331512451172,-0.23406982421875,0.97802734375,9.518310546875,-0.21856605344040803,-3.130740149480405,0.21419473237159986,16
200,3795.0,-0.08521689474582672,-0.0010933876037597656,-0.05146312713623047,-0.2185211181640625,0.9864044189453125,9.450119018554688,-0.04983306018441303,-2.583450751665623,0.23168001664683252,16
201,3818.0,-0.0731988400220871,0.005509436130523682,-0.11307048797607422,-0.226898193359375,0.9959716796875,9.416610717773438,0.10141464879634933,-0.5464151336010201,0.4677313543624732,16
202,3835.0,-0.08138594031333923,0.015400707721710205,-0.14261531829833984,-0.267578125,1.0151214599609375,9.465667724609375,-0.6574466887487473,-0.9066119896708125,0.228182959791786,16
203,3852.0,-0.12163488566875458,0.036757469177246094,-0.09132957458496094,-0.280731201171875,1.02947998046875,9.545822143554688,-1.682958611491142,-1.1723883106543487,0.6994113710093057,16
204,3869.0,-0.13423897325992584,0.05484277009963989,-0.011438369750976562,-0.2077484130859375,1.0151214599609375,9.590103149414062,-2.1288333605095744,-0.9721818057029349,1.283419865802076,16
205,3886.0,-0.06285640597343445,0.04490870237350464,0.03131580352783203,-0.24005126953125,1.0342559814453125,9.567367553710938,-1.9924481431627596,-1.1592743474479241,1.6034005680388332,16
206,3902.0,-0.09691546857357025,0.06736356019973755,0.00775909423828125,-0.24005126953125,1.0342559814453125,9.567367553710938,-1.796612959280154,-1.784373260287491,1.2362095982589478,16
207,3919.0,-0.10009615123271942,0.07060712575912476,0.0069427490234375,-0.1730499267578125,1.013916015625,9.609237670898438,-1.9994422568728527,-2.265218577856389,1.3752176082470473,16
208,3937.0,-0.03889201581478119,0.0547410249710083,0.04677104949951172,-0.15869140625,1.02947998046875,9.627182006835938,-2.3517707350187904,-2.3946096814931104,1.3350014544140123,16
209,3953.0,-0.030491173267364502,0.07405388355255127,0.062256813049316406,-0.175445556640625,1.0558013916015625,9.568557739257812,-1.8717996816636544,-2.218882574527022,1.273802959450698,16
210,3978.0,-0.0515921488404274,0.10220932960510254,0.00299835205078125,-0.1180267333984375,1.02947998046875,9.502761840820312,-1.5579388289232285,-1.6637247987883859,1.4486558022030245,16
211,3998.0,0.0011489912867546082,0.07867974042892456,-0.061598777770996094,-0.1850128173828125,1.0510101318359375,9.497970581054688,-2.074628979256353,-1.3769661366745707,1.302653678504832,16
212,4014.0,-0.06847375631332397,0.10289579629898071,-0.06514358520507812,-0.1850128173828125,1.0510101318359375,9.497970581054688,-2.0702576581875447,-1.1374177421038834,0.7702267723239979,16
213,4031.0,-0.07063770294189453,0.10551005601882935,-0.06392383575439453,-0.21014404296875,1.0378570556640625,9.533859252929688,-2.0702576581875447,-1.1374177421038834,0.7702267723239979,16
214,4048.0,-0.09588686376810074,0.09613937139511108,-0.027915000915527344,-0.134765625,0.9840087890625,9.544631958007812,-2.6131757349335185,-0.7230165047808698,1.0473685280864353,16
215,4068.0,-0.022366583347320557,0.048788607120513916,-0.017449378967285156,-0.15631103515625,0.9744415283203125,9.64752197265625,-2.86583809271063,-1.2213471066250001,0.919725952877237,16
216,4087.0,-0.03127703815698624,0.043358683586120605,0.10486602783203125,-0.1240081787109375,0.9852142333984375,9.57574462890625,-2.0169275411480854,-1.7765048823636365,0.18359548488994273,16
217,4103.0,-0.021691270172595978,0.06463789939880371,0.006150245666503906,-0.1240081787109375,0.9852142333984375,9.57574462890625,-0.820059832508411,-2.0588922234086438,-0.1739785785385648,16
218,4120.0,-0.025874927639961243,0.06498199701309204,0.005724906921386719,-0.170654296875,0.9875946044921875,9.499160766601562,-0.7466216385524338,-1.482752106539728,-0.1337624247055297,16
219,4137.0,-0.07414135336875916,0.0689995288848877,-0.06926536560058594,-0.109649658203125,0.9457244873046875,9.547027587890625,-1.825463678334288,-1.2056103507772906,-0.08830068558992485,16
220,4154.0,-0.015776678919792175,0.03187042474746704,-0.02135944366455078,-0.1419525146484375,0.9517059326171875,9.725296020507812,-2.197900233396743,-1.0849618892781854,-0.8017002840194166,16
221,4171.0,-0.0500786229968071,0.0422402024269104,0.15199947357177734,-0.1443328857421875,0.9517059326171875,9.68939208984375,-1.7721335612948284,-1.5771726416259844,-1.449530066416786,16
222,4188.0,-0.05493786931037903,0.044421613216400146,0.11251354217529297,-0.0964813232421875,0.93017578125,9.55419921875,-0.6626922740313171,-1.5675557352746063,-1.2624375246717967,16
223,4206.0,-0.009767487645149231,0.023297369480133057,-0.02217578887939453,-0.0964813232421875,0.93017578125,9.55419921875,-0.07693525081102363,-0.7894605850267538,-1.3419955681241054,16
224,4223.0,-0.010895274579524994,0.023212432861328125,-0.02162647247314453,-0.170654296875,0.9864044189453125,9.538650512695312,-0.30861526745785617,-0.5158158861193629,-1.6077718891076416,16
225,4239.0,-0.08408096432685852,0.07872617244720459,-0.03629493713378906,-0.1957855224609375,0.9983673095703125,9.487197875976562,-0.7553642806900501,-0.8095686619432714,-1.734540200103078,16
226,4257.0,-0.1088605597615242,0.09162431955337524,-0.08566093444824219,-0.094085693359375,0.952911376953125,9.62957763671875,-1.7459056348819793,-1.4932432771048676,-1.8088526582728168,16
227,4278.0,-0.01001596450805664,0.049402832984924316,0.054688453674316406,-0.1730499267578125,0.964874267578125,9.636749267578125,-1.5334594309379028,-1.1006986451258949,-1.925129798703114,16
228,4295.0,-0.08879923820495605,0.06332242488861084,0.059777259826660156,-0.1969757080078125,1.006744384765625,9.557785034179688,-1.1190581936148891,-0.9293428592286149,-1.785247524501253,16
229,4313.0,-0.11045730859041214,0.10466456413269043,-0.018888473510742188,-0.1969757080078125,1.006744384765625,9.557785034179688,-0.608487892778096,-0.0017485284275232642,-1.3795889293158554,16
230,4330.0,-0.10632135719060898,0.10331320762634277,-0.01850128173828125,-0.1850128173828125,0.9923858642578125,9.529083251953125,-0.5123188292643164,0.5743915884413923,-0.8524076084175913,16
231,4346.0,-0.09069091826677322,0.08884793519973755,-0.046105384826660156,-0.16827392578125,0.9624786376953125,9.652313232421875,-1.594657925901217,-0.8733899495478705,-0.5927511369303866,16
232,4366.0,-0.07285900413990021,0.06114041805267334,0.07461071014404297,-0.1766510009765625,0.9600830078125,9.761184692382812,-1.594657925901217,-0.8733899495478705,-0.5927511369303866,16
233,4386.0,-0.08177907019853592,0.0602266788482666,0.17806434631347656,-0.1610870361328125,0.994781494140625,9.643936157226562,-0.6714349161689335,-1.3384985112690588,-1.1006986451258949,16
234,4403.0,-0.0684293881058693,0.09238553047180176,0.05907630920410156,-0.15032958984375,0.9911956787109375,9.563766479492188,0.912731839167144,-2.0379098822783646,-1.7677622402260202,16
235,4420.0,-0.06420572847127914,0.07979488372802734,-0.019637107849121094,-0.15032958984375,0.9911956787109375,9.563766479492188,0.912731839167144,-2.0379098822783646,-1.7677622402260202,16
236,4437.0,-0.06420572847127914,0.07979488372802734,-0.019637107849121094,-0.1431427001953125,0.976837158203125,9.520706176757812,-0.1556190300495705,-1.5771726416259844,-1.5640586784195598,16
237,4457.0,-0.10236671566963196,0.09131389856338501,-0.0779867172241211,-0.127593994140625,0.9875946044921875,9.526687622070312,-0.5892540800753401,-1.3419955681241054,-1.5247167888002864,16
238,4477.0,-0.04697442054748535,0.07183367013931274,-0.05157661437988281,-0.076141357421875,0.9277801513671875,9.459686279296875,-0.6181047991294739,-1.2790485447332678,-0.7807179428891375,16
239,4493.0,0.0004514530301094055,0.01522064208984375,-0.11565589904785156,-0.076141357421875,0.9277801513671875,9.459686279296875,-1.9548547819710094,-1.7974872234939157,-1.4748837286158734,16
240,4511.0,-0.004370495676994324,0.02225649356842041,-0.11318778991699219,-0.115631103515625,0.9636688232421875,9.614028930664062,-3.4830686276263423,-2.1061024909517716,-2.4794133102279887,16
241,4528.0,-0.04616307467222214,0.06626814603805542,0.03906822204589844,-0.04144287109375,0.8799285888671875,10.067459106445312,-3.620328109186919,-0.9765531267717431,-2.806388126174839,16
242,4547.0,0.027963057160377502,-0.010847032070159912,0.47824954986572266,-0.109649658203125,0.8930816650390625,9.830581665039062,-0.8419164378524517,0.9817987120543129,-2.7434411027840016,16
243,4565.0,-0.03457999974489212,-0.0006055235862731934,0.23496437072753906,-0.1718597412109375,0.9337615966796875,9.390289306640625,2.9646299488656944,1.8674283605948463,-2.421711872119721,16
244,4582.0,-0.08824099600315094,0.030689239501953125,-0.19880104064941406,-0.1838226318359375,0.919403076171875,9.367568969726562,3.1246202999840733,2.0029393137278992,-2.074628979256353,16
245,4599.0,-0.09489079564809799,0.010184168815612793,-0.21997928619384766,-0.1838226318359375,0.919403076171875,9.367568969726562,1.2519463541066571,1.1680169895855406,-1.4224278757901754,16
246,4616.0,-0.09208067506551743,0.00857621431350708,-0.21889305114746094,-0.211334228515625,0.9265899658203125,9.545822143554688,-0.10403744143763423,0.2675248494110594,-1.6479880429406766,16
247,4632.0,-0.11851151287555695,0.015586614608764648,-0.040454864501953125,-0.1957855224609375,0.9098358154296875,9.507537841796875,0.21069767551655336,-0.12327125414039013,-1.2178500497699536,16
248,4649.0,-0.10303988307714462,-0.0019102096557617188,-0.07834529876708984,-0.146728515625,0.9325714111328125,9.45849609375,0.33921451493951327,-0.3890475751239263,-0.3645681771386006,16
249,4668.0,-0.0551033616065979,0.020528316497802734,-0.12684917449951172,-0.094085693359375,0.8930816650390625,9.539840698242188,-0.1827212206761811,-0.6329672907634216,-0.2640277925560129,16
250,4688.0,-0.004186384379863739,-0.017469167709350586,-0.04546642303466797,-0.18023681640625,0.9792327880859375,9.597274780273438,-0.4598629764386185,-0.3610711202835541,-0.9581935782827488,16
251,4705.0,-0.09122500568628311,0.0702054500579834,0.0117340087890625,-0.18023681640625,0.9792327880859375,9.597274780273438,-0.1442535952706693,-0.34708289286336796,-0.7160223910707767,16
252,4722.0,-0.0916130468249321,0.07077932357788086,0.011595726013183594,-0.16827392578125,0.955291748046875,9.4764404296875,-0.1442535952706693,-0.34708289286336796,-0.7160223910707767,16
253,4739.0,-0.08018262684345245,0.048076629638671875,-0.10892772674560547,-0.1132354736328125,0.9325714111328125,9.493179321289062,-1.2335868056176629,-0.33134613701565857,-1.3734690798195242,16
254,4756.0,-0.025794997811317444,0.028215467929840088,-0.09209251403808594,-0.1431427001953125,0.9289703369140625,9.636749267578125,-1.2335868056176629,-0.33134613701565857,-1.3734690798195242,16
255,4773.0,-0.05590308457612991,0.02812337875366211,0.050917625427246094,-0.146728515625,0.919403076171875,9.649917602539062,-1.152280233737831,-0.18097269224865786,-1.8001100161352006,16
256,4790.0,-0.03448297828435898,-0.009541213512420654,0.023069381713867188,-0.122802734375,0.88470458984375,9.610427856445312,-0.8838811201130101,-0.1223969899266285,-1.5570645647094667,16
257,4807.0,-0.03448297828435898,-0.009541213512420654,0.023069381713867188,-0.122802734375,0.88470458984375,9.610427856445312,-0.8838811201130101,-0.1223969899266285,-1.5570645647094667,16
258,4824.0,-0.09087689965963364,0.04558783769607544,-0.05550956726074219,-0.2077484130859375,0.949310302734375,9.520706176757812,-1.095453059843325,-0.4519945985147638,-1.7406600495994096,16
259,4842.0,-0.11484847217798233,0.06142646074295044,-0.0647287368774414,-0.2436370849609375,0.952911376953125,9.509933471679688,-1.190747859143343,-0.49133648813403724,-1.2773000163057446,16
260,4859.0,-0.14769262075424194,0.06635278463363647,-0.07370567321777344,-0.170654296875,0.9672698974609375,9.490798950195312,-1.0840876250644238,-0.5306783777533107,-0.7195194479258232,16
261,4876.0,-0.07351011782884598,0.08176469802856445,-0.0905752182006836,-0.214935302734375,0.940948486328125,9.63555908203125,-1.3148933774974947,-0.25528515041839656,-0.8419164378524517,16
262,4893.0,-0.11447552591562271,0.058065176010131836,0.052295684814453125,-0.214935302734375,0.940948486328125,9.63555908203125,-1.7188034442553688,0.13551095313305297,-0.7999517555918934,16
263,4910.0,-0.11055425554513931,0.060850322246551514,0.050445556640625,-0.211334228515625,0.9517059326171875,9.588897705078125,-1.4888719560360595,0.2753932273349141,-0.6364643476184682,16
264,4928.0,-0.10378526151180267,0.07363039255142212,0.0033130645751953125,-0.280731201171875,0.9624786376953125,9.435760498046875,-1.439913160065408,-0.2176917892266464,-0.3068667390303329,16
265,4945.0,-0.16915130615234375,0.08796435594558716,-0.146209716796875,-0.2532196044921875,0.9624786376953125,9.515914916992188,-2.8841976411996244,-0.37156229084869363,0.10928302672020401,16
266,4962.0,-0.13867515325546265,0.09437817335128784,-0.06503582000732422,-0.1898040771484375,0.934967041015625,9.753997802734375,-3.615082523904349,-0.2727704346936292,0.6181047991294739,16
267,4984.0,-0.07378318160772324,0.07499521970748901,0.16733264923095703,-0.18023681640625,0.918212890625,9.673843383789062,-3.719994229555745,-0.05420438125322119,0.7405017890561024,16
268,5001.0,-0.063233882188797,0.06560450792312622,0.08394527435302734,-0.18023681640625,0.918212890625,9.673843383789062,-2.8772035274895313,-0.3942931604064961,0.8060716050882248,16
269,5018.0,-0.0632929876446724,0.06987559795379639,0.08105182647705078,-0.2304840087890625,0.8990631103515625,9.612823486328125,-1.5964064543287402,-0.8489105515625448,0.1634874079734252,16
270,5035.0,-0.1136595755815506,0.053629159927368164,0.019054412841796875,-0.193389892578125,0.89068603515625,9.65948486328125,-1.5658072068470832,-1.5081057687388155,0.278016019976199,16
271,5051.0,-0.07818632572889328,0.04911261796951294,0.06339550018310547,-0.1957855224609375,0.8883056640625,9.738449096679688,-2.1856605344040805,-1.1933706517846279,0.1932123912413207,16
272,5071.0,-0.08074915409088135,0.05087071657180786,0.13790225982666016,-0.163482666015625,0.8871002197265625,9.678634643554688,-1.7992357519214388,-0.5184386787606479,0.3593225918560308,16
273,5090.0,-0.05014215409755707,0.05148810148239136,0.07560253143310547,-0.1790313720703125,0.894287109375,9.561386108398438,-0.5455408693872584,-1.6890784609874732,-0.16261314375966357,16
274,5106.0,-0.06851384788751602,0.05771136283874512,-0.040599822998046875,-0.1790313720703125,0.894287109375,9.561386108398438,0.2640277925560129,-1.1400405347451683,-0.1713557858972799,16
275,5124.0,-0.07050599157810211,0.05566728115081787,-0.039478302001953125,-0.205352783203125,0.9098358154296875,9.470458984375,-0.33834025072575163,-0.370688026634932,0.27889028418996065,16
276,5141.0,-0.09621608257293701,0.06933766603469849,-0.1268148422241211,-0.1551055908203125,0.919403076171875,9.610427856445312,-0.33834025072575163,-0.370688026634932,0.27889028418996065,16
277,5159.0,-0.045351795852184296,0.07816362380981445,0.012654304504394531,-0.2484283447265625,0.93017578125,9.664276123046875,-0.5140673576918396,-0.09879185615506443,0.01661102006147101,16
278,5176.0,-0.13507933914661407,0.0881606936454773,0.06450366973876953,-0.208953857421875,0.925384521484375,9.602066040039062,-0.5140673576918396,-0.09879185615506443,0.01661102006147101,16
279,5193.0,-0.09390155225992203,0.08110564947128296,0.0022144317626953125,-0.2316741943359375,0.955291748046875,9.490798950195312,0.44762327744595565,-1.240580919327756,-0.22730869557802436,16
280,5210.0,-0.11586615443229675,0.10667061805725098,-0.1059427261352539,-0.2316741943359375,0.955291748046875,9.490798950195312,-0.26577632098353615,-1.9137643639242128,-0.0026227926412848964,16
281,5226.0,-0.11693066358566284,0.10346275568008423,-0.10303020477294922,-0.15869140625,0.9170074462890625,9.580520629882812,-0.9380855013662313,-1.5360822235791876,0.4310122573844846,16
282,5244.0,-0.047492384910583496,0.06500577926635742,-0.013138771057128906,-0.169464111328125,0.907440185546875,9.606842041015625,-1.1828794812194883,-0.9223487455185219,1.3533610029030065,16
283,5260.0,-0.060221873223781586,0.05676788091659546,0.01251983642578125,-0.1658782958984375,0.901458740234375,9.459686279296875,-1.1828794812194883,-0.9223487455185219,1.3533610029030065,16
284,5278.0,0.03700973093509674,0.11782592535018921,-0.041961669921875,-0.25799560546875,0.89666748046875,9.602066040039062,-2.3071832601169473,-0.22381163872297782,1.9163871565654975,16
285,5295.0,-0.14996469020843506,0.05484288930892944,0.01096343994140625,-0.25799560546875,0.89666748046875,9.602066040039062,-2.5615941463215823,-0.22730869557802436,1.259814732030512,16
286,5311.0,-0.14742815494537354,0.06034213304519653,0.010025978088378906,-0.25799560546875,0.89666748046875,9.602066040039062,-2.607055885437187,-0.7544900164762885,1.1435375916002148,16
287,5328.0,-0.07960742712020874,0.06437456607818604,0.2325735092163086,-0.0199127197265625,0.8165130615234375,9.896377563476562,-1.5999035111837867,0.7877120565992305,1.2755514878782213,16
288,5347.0,0.09023433923721313,-0.01349550485610962,0.28876590728759766,-0.1371612548828125,0.8464202880859375,9.636749267578125,0.2308057524330709,-0.5551577757386364,0.3164836453817108,16
289,5366.0,-0.029465854167938232,0.013624608516693115,0.02849292755126953,-0.19818115234375,0.9337615966796875,9.544631958007812,1.47838078547092,-1.825463678334288,-0.7815922071028991,16
290,5385.0,-0.09043128788471222,0.0945093035697937,-0.061568260192871094,-0.19818115234375,0.9337615966796875,9.544631958007812,1.2012390297084825,-0.05333011703945956,-0.15911608690461704,16
291,5402.0,-0.08675599843263626,0.08839786052703857,-0.059540748596191406,-0.2185211181640625,0.9397430419921875,9.423797607421875,1.3507382102617216,0.8760127421891554,-0.1582418226908554,16
292,5419.0,-0.10225796699523926,0.08909302949905396,-0.1751089096069336,-0.2651824951171875,0.9505157470703125,9.368759155273438,0.5997452506404797,0.46947988278999647,-0.032347775909180386,16
293,5436.0,-0.1440809667110443,0.09699732065200806,-0.2237377166748047,-0.1730499267578125,0.9564971923828125,9.57574462890625,-0.5341754346083573,0.06906687288716894,0.3164836453817108,16
294,5453.0,-0.05091051012277603,0.10288727283477783,-0.016538619995117188,-0.1431427001953125,0.9098358154296875,9.709732055664062,-1.504608711883769,-0.2832616052587688,0.6093621569918576,16
295,5469.0,-0.021888241171836853,0.05819135904312134,0.11385345458984375,-0.106048583984375,0.9050445556640625,9.762374877929688,-1.0893332103469937,-0.7099025415744453,0.30948953167161775,16
296,5486.0,0.013302907347679138,0.0533255934715271,0.1617279052734375,-0.106048583984375,0.9050445556640625,9.762374877929688,0.05333011703945956,-0.33834025072575163,0.08742642137616322,16
297,5504.0,0.013086862862110138,0.049825966358184814,0.15741634368896484,-0.1431427001953125,0.942138671875,9.649917602539062,1.4267991968589837,0.4231438794606299,-0.396915953047781,16
298,5520.0,-0.021414972841739655,0.08010345697402954,0.04412555694580078,-0.208953857421875,0.9445343017578125,9.459686279296875,1.8027328087764853,0.9048634612432892,-0.4983306018441303,16
299,5537.0,-0.08310452103614807,0.07660555839538574,-0.14170265197753906,-0.163482666015625,0.907440185546875,9.558990478515625,0.8419164378524517,0.25528515041839656,-0.41177844468172875,16
300,5563.0,-0.036281317472457886,0.036895692348480225,-0.04107952117919922,-0.0617828369140625,0.8930816650390625,9.410629272460938,-0.10666023407891911,0.5027019229129385,-0.5997452506404797,16
301,5580.0,-0.09592358767986298,0.06775897741317749,0.08959484100341797,-0.22808837890625,0.9397430419921875,9.68701171875,-0.827053946218504,1.7590195980884038,-0.9118575749533823,16
302,5600.0,-0.08988189697265625,0.0663711428642273,0.08710765838623047,-0.1299896240234375,0.8978729248046875,9.664276123046875,0.489587959706514,0.5516607188835899,-0.8524076084175913,16
303,5617.0,0.008845388889312744,0.022280573844909668,0.06273651123046875,-0.1969757080078125,0.8763427734375,9.499160766601562,0.6618180098175556,-0.08305510030735505,-0.8856296485405334,16
304,5634.0,-0.0572328120470047,-0.0004938244819641113,-0.09943389892578125,-0.1766510009765625,0.894287109375,9.503952026367188,0.2561594146321582,-0.5805114379377238,-0.7195194479258232,16
305,5651.0,-0.03751176595687866,0.016507863998413086,-0.0919961929321289,-0.1838226318359375,0.9050445556640625,9.551803588867188,0.0979175919413028,-0.7308848827047244,-0.5910026085028633,16
306,5668.0,-0.045037224888801575,0.02670121192932129,-0.04295921325683594,-0.223297119140625,0.9241943359375,9.573348999023438,-0.22730869557802436,-0.5123188292643164,-0.2395483945706872,16
307,5686.0,-0.08333238959312439,0.04578065872192383,-0.020946502685546875,-0.223297119140625,0.9241943359375,9.573348999023438,-0.6452069897560845,-0.3942931604064961,-0.3243520233055655,16
308,5703.0,-0.08154280483722687,0.04659003019332886,-0.020563125610351562,-0.223297119140625,0.9206085205078125,9.627182006835938,-0.8716414211203473,-0.029724983267895494,-0.10840876250644238,16
309,5720.0,-0.07991695404052734,0.04472553730010986,0.03206920623779297,-0.2424468994140625,0.895477294921875,9.6929931640625,-1.26418605309932,-0.4283894647431997,0.2150689965853615,16
310,5737.0,-0.09814521670341492,0.022205471992492676,0.09484577178955078,-0.2603912353515625,0.9361572265625,9.679824829101562,-1.0534883775827668,-0.860275986341446,0.34183730758079817,16
311,5756.0,-0.11451028287410736,0.06282079219818115,0.07923126220703125,-0.244842529296875,0.934967041015625,9.669052124023438,-0.18446974910370437,-0.29987262532023984,0.13813374577433787,16
312,5776.0,-0.09605351090431213,0.05964893102645874,0.06658363342285156,-0.42669677734375,0.9923858642578125,9.360382080078125,0.37243655506245527,0.47210267543128137,0.4755997322863279,16
313,5792.0,-0.26899343729019165,0.1118156909942627,-0.23516082763671875,-0.42669677734375,0.9923858642578125,9.360382080078125,1.0832133608506622,0.4432519563771475,-0.018359548488994275,16
314,5809.0,-0.259731262922287,0.10823333263397217,-0.22855567932128906,-0.3309783935546875,0.9277801513671875,9.453704833984375,-2.8125079756711706,1.4110624410112742,1.439913160065408,16
315,5828.0,-0.1565302014350891,0.04722440242767334,-0.1318674087524414,-0.4171295166015625,0.937347412109375,9.700164794921875,-2.433951571112384,1.912890099710451,1.9356209692682536,16
316,5845.0,-0.23182585835456848,0.06229215860366821,0.11083698272705078,-0.3656768798828125,0.9229888916015625,9.724090576171875,-2.433951571112384,1.912890099710451,1.9356209692682536,16
317,5866.0,0.012774437665939331,0.024639785289764404,-0.0081787109375,-0.24603271484375,0.970855712890625,9.499160766601562,-0.7492444311937188,0.261404999914728,2.0003165210866145,16
318,5890.0,-0.04823683202266693,0.10102486610412598,-0.09184646606445312,-0.24603271484375,0.970855712890625,9.499160766601562,-0.9669362204203651,0.18709254174498927,1.0972015882708483,16
319,5907.0,-0.047061651945114136,0.09999632835388184,-0.08946037292480469,-0.0928955078125,0.9325714111328125,9.562576293945312,-0.9669362204203651,0.18709254174498927,1.0972015882708483,16
320,5924.0,0.10510037839412689,0.06280827522277832,-0.025536537170410156,-0.094085693359375,0.9170074462890625,9.713333129882812,-1.1347949494625984,1.446907273775501,0.9984097321157839,16
321,5941.0,0.10729119181632996,0.04829317331314087,0.1216592788696289,-0.0785369873046875,0.9289703369140625,9.731277465820312,-0.63209302654966,3.308215784874016,0.8209340967221725,16
322,5967.0,0.23020663857460022,0.031489551067352295,0.0061779022216796875,0.0099945068359375,0.90625,9.600860595703125,1.763390919157212,3.970908058905333,-1.9260040629168755,16
323,5984.0,0.23872672021389008,0.026869893074035645,0.006783485412597656,-0.1479339599609375,0.958892822265625,9.562576293945312,1.561435885778275,2.336033979171081,-3.1928129086574804,16
324,6001.0,0.08751136064529419,0.07483702898025513,-0.03079986572265625,-0.16229248046875,0.9816131591796875,9.5003662109375,1.68732993255995,2.14806717321233,-2.849227072649159,16
325,6018.0,0.07997873425483704,0.09188193082809448,-0.09195709228515625,-0.1371612548828125,0.913421630859375,9.416610717773438,2.1926546481141735,2.5187551998472624,-1.8097269224865784,16
326,6036.0,0.11281193792819977,0.018502414226531982,-0.1742992401123047,-0.2125396728515625,0.9325714111328125,9.374740600585938,1.5247167888002864,3.0057203669124912,-1.3551095313305297,16
327,6053.0,0.044403284788131714,0.033863186836242676,-0.20969772338867188,-0.274749755859375,0.937347412109375,9.4764404296875,0.5420438125322119,2.649894831911507,-0.8847553843267717,16
328,6070.0,-0.01100054383277893,0.03817528486251831,-0.10488414764404297,-0.26397705078125,0.952911376953125,9.525482177734375,-0.9634391635653186,1.886662173297602,-0.0515815886119363,16
329,6089.0,0.0032754838466644287,0.05601465702056885,-0.05454826354980469,-0.26397705078125,0.952911376953125,9.525482177734375,-1.8140982435553867,0.7300106184909628,0.625098912839567,16
330,6108.0,0.0034861862659454346,0.060007572174072266,-0.053542137145996094,-0.2902984619140625,0.9206085205078125,9.6929931640625,-2.301063410620616,-0.3479571570771296,1.0937045314158018,16
331,6124.0,-0.02469751238822937,0.03282064199447632,0.11018657684326172,-0.1945953369140625,0.9158172607421875,9.779129028320312,-2.0755032434701146,-1.2746772236644597,1.1321721568213137,16
332,6142.0,0.06393358111381531,0.0305672287940979,0.19042205810546875,-0.24603271484375,0.9158172607421875,9.594879150390625,-0.41177844468172875,-2.2713384273527204,0.9275943308010917,16
333,6159.0,0.0049266815185546875,0.029214203357696533,0.005854606628417969,-0.28192138671875,0.9505157470703125,9.354400634765625,0.7361304679872942,-2.8649638284968684,0.7291363542772012,16
334,6176.0,-0.03747081756591797,0.06058913469314575,-0.22815418243408203,-0.22210693359375,0.964874267578125,9.35321044921875,0.3645681771386006,-2.414717758409628,0.5333011703945956,16
335,6194.0,0.01596522331237793,0.07401168346405029,-0.22322463989257812,-0.22210693359375,0.964874267578125,9.35321044921875,-1.2362095982589478,-1.6882041967737116,0.7195194479258232,16
336,6210.0,0.011891067028045654,0.07606977224349976,-0.2174968719482422,-0.2735595703125,0.970855712890625,9.469253540039062,-1.7992357519214388,-0.9039891970295276,0.03322204012294202,16
337,6226.0,-0.039967507123947144,0.08444392681121826,-0.09910392761230469,-0.28192138671875,0.9277801513671875,9.649917602539062,-1.2178500497699536,-0.08392936452111668,-1.2318382771901397,16
338,6244.0,-0.047214359045028687,0.04413968324661255,0.07892513275146484,-0.3178253173828125,0.918212890625,9.697769165039062,-1.2178500497699536,-0.08392936452111668,-1.2318382771901397,16
339,6265.0,-0.0806407779455185,0.036034464836120605,0.12303447723388672,-0.3082427978515625,0.9325714111328125,9.578125,-0.48084531756889765,-0.08830068558992485,-1.9740885946737654,16
340,6283.0,-0.06861443817615509,0.04952043294906616,0.0032596588134765625,-0.380035400390625,0.9564971923828125,9.482421875,0.8401679094249285,0.27102190626610595,-2.6411521897738908,16
341,6299.0,-0.13546253740787506,0.0701562762260437,-0.08973407745361328,-0.380035400390625,0.9564971923828125,9.482421875,0.8401679094249285,0.27102190626610595,-2.6411521897738908,16
342,6319.0,-0.15830835700035095,0.07670509815216064,-0.10910701751708984,-0.3453369140625,0.955291748046875,9.549423217773438,-0.6268474412670902,-0.12064846149910523,-2.0571436949811206,16
343,6336.0,-0.08865100145339966,0.06433212757110596,-0.016737937927246094,-0.310638427734375,0.931365966796875,9.62957763671875,-1.1444118558139764,-0.17048152168351827,-2.0090591632242307,16
344,6353.0,-0.05321413278579712,0.04225945472717285,0.06135845184326172,-0.356109619140625,0.9457244873046875,9.557785034179688,-0.9319656518698999,-0.7614841301863816,-2.005562106369184,16
345,6371.0,-0.0981537401676178,0.0570182204246521,-0.010386466979980469,-0.356109619140625,0.9457244873046875,9.557785034179688,-0.4100299162542055,-1.2257184276938082,-1.9286268555581605,16
346,6392.0,-0.09891197085380554,0.05622076988220215,-0.010264396667480469,-0.267578125,0.9361572265625,9.5302734375,-0.0655698160321224,-1.6812100830636185,-1.8342063204719041,16
347,6409.0,-0.01338815689086914,0.04561924934387207,-0.03684043884277344,-0.298675537109375,0.9277801513671875,9.5841064453125,-0.04458747490184324,-1.0211406016735862,-1.2134787287011455,16
348,6427.0,-0.04516598582267761,0.03683096170425415,0.01641082763671875,-0.256805419921875,0.9206085205078125,9.5362548828125,-0.3532027423596994,-0.5944996653579099,-1.0342545648800108,16
349,6443.0,-0.005286812782287598,0.02993297576904297,-0.030725479125976562,-0.298675537109375,0.942138671875,9.402252197265625,-0.396915953047781,-1.1286750999662671,-1.0569854344378133,16
350,6460.0,-0.048422545194625854,0.05151468515396118,-0.16035842895507812,-0.3238067626953125,0.9337615966796875,9.481216430664062,-0.6399614044735147,-0.9398340297937545,-0.8559046652726379,16
351,6478.0,-0.07271486520767212,0.04487079381942749,-0.0794382095336914,-0.3238067626953125,0.9337615966796875,9.481216430664062,-1.475757992829635,-0.076060986597262,-0.5569063041661597,16
352,6494.0,-0.07052618265151978,0.04899805784225464,-0.07772445678710938,-0.327392578125,0.9038543701171875,9.618804931640625,-2.4584309690977095,0.1556190300495705,0.07868377923854689,16
353,6511.0,-0.07251113653182983,0.02468007802963257,0.05762481689453125,-0.3214111328125,0.8930816650390625,9.610427856445312,-2.0449039959884576,-0.4642342975074267,0.2203145818679313,16
354,6528.0,-0.06674852967262268,0.018112659454345703,0.04740428924560547,-0.350128173828125,0.9397430419921875,9.556594848632812,-1.3227617554213493,-1.069225133430476,-0.3890475751239263,16
355,6546.0,-0.09603354334831238,0.06678664684295654,-0.006684303283691406,-0.3429412841796875,0.918212890625,9.5721435546875,-1.4512785948443094,-1.3813374577433788,-0.5542835115248748,16
356,6569.0,-0.09079790115356445,0.04860490560531616,0.008084297180175781,-0.332183837890625,0.942138671875,9.568557739257812,-1.5832924911223158,-1.0998243809121333,-0.38030493298630996,16
357,6587.0,-0.08189517259597778,0.07712942361831665,0.0033111572265625,-0.3058624267578125,0.9038543701171875,9.5601806640625,-1.2773000163057446,-0.6600694813900323,-0.4537431269422871,16
358,6606.0,-0.05598749220371246,0.04108065366744995,-0.005276679992675781,-0.33935546875,0.907440185546875,9.556594848632812,-1.1286750999662671,-0.8716414211203473,-0.5936254011441482,16
359,6626.0,-0.08934438228607178,0.04666775465011597,-0.008970260620117188,-0.3728485107421875,0.9146270751953125,9.435760498046875,-1.223969899266285,-0.9477024077176093,-0.45549165536981034,16
360,6643.0,-0.1209036111831665,0.05600613355636597,-0.12656593322753906,-0.36328125,0.89666748046875,9.474044799804688,-1.4390388958516465,-0.1879668059587509,-0.10491170565139586,16
361,6660.0,-0.10836225748062134,0.042619168758392334,-0.08633613586425781,-0.350128173828125,0.901458740234375,9.6929931640625,-2.701476420523443,0.12327125414039013,0.35407700657346103,16
362,6678.0,-0.09208923578262329,0.0546722412109375,0.12817955017089844,-0.350128173828125,0.901458740234375,9.6929931640625,-3.622076637614442,0.3016211537477631,0.4948335449890838,16
363,6695.0,-0.08923196792602539,0.0620119571685791,0.12384700775146484,-0.33935546875,0.8763427734375,9.842544555664062,-2.8981858686198105,-0.026227926412848965,0.13463668891929134,16
364,6712.0,-0.07757765054702759,0.0407598614692688,0.26534175872802734,-0.33935546875,0.89068603515625,9.660690307617188,-0.67493197302398,-0.9721818057029349,-0.6600694813900323,16
365,6729.0,-0.0789283812046051,0.05459529161453247,0.08098316192626953,-0.310638427734375,0.9517059326171875,9.596084594726562,-0.023605133771564066,-1.7625166549434503,-1.2230956350525233,16
366,6746.0,-0.05288130044937134,0.11290216445922852,0.015768051147460938,-0.2615814208984375,0.937347412109375,9.60565185546875,-0.2885071905413386,-1.3883315714534719,-0.7396275248423407,16
367,6762.0,-0.006917059421539307,0.09633558988571167,0.024498939514160156,-0.268768310546875,0.9361572265625,9.539840698242188,-0.07693525081102363,-1.0298832438112027,-0.09879185615506443,16
368,6780.0,-0.016232728958129883,0.09352093935012817,-0.04032135009765625,-0.268768310546875,0.9361572265625,9.539840698242188,-0.6740577088102184,-0.8025745482331783,0.26839911362482105,16
369,6797.0,-0.017482846975326538,0.09340411424636841,-0.03946399688720703,-0.28790283203125,0.93017578125,9.471649169921875,-1.1688912537993021,-0.36281964871107736,0.6574466887487473,16
370,6814.0,-0.035828620195388794,0.08936971426010132,-0.1050567626953125,-0.2843170166015625,0.907440185546875,9.562576293945312,-2.6271639623537046,0.09179774244497137,1.3393727754828204,16
371,6831.0,-0.031036704778671265,0.0711216926574707,-0.014284133911132812,-0.3309783935546875,0.90625,9.685806274414062,-2.6271639623537046,0.09179774244497137,1.3393727754828204,16
372,6852.0,-0.07634559273719788,0.07479965686798096,0.10530471801757812,-0.279541015625,0.8583831787109375,9.770751953125,-2.4295802500435757,-0.47472546807256627,1.0412486785901038,16
373,6870.0,-0.027050137519836426,0.031987547874450684,0.1843891143798828,-0.2436370849609375,0.83685302734375,9.66546630859375,-0.7903348492405154,-2.181289213335272,0.4668570901487116,16
374,6886.0,0.0035115480422973633,0.013756632804870605,0.07646465301513672,-0.2436370849609375,0.83685302734375,9.66546630859375,-0.7903348492405154,-2.181289213335272,0.4668570901487116,16
375,6903.0,-0.0015673190355300903,0.015256226062774658,0.07405281066894531,-0.2962799072265625,0.8751373291015625,9.462081909179688,-1.2563176751754654,-0.8183113040808877,0.7474959027661955,16
376,6921.0,-0.055857717990875244,0.05456298589706421,-0.12603378295898438,-0.310638427734375,0.8751373291015625,9.408233642578125,-1.9609746314673409,-0.7990774913781318,0.5630261536624911,16
377,6939.0,-0.070627361536026,0.057395339012145996,-0.17531681060791016,-0.2783355712890625,0.8691558837890625,9.496780395507812,-1.9609746314673409,-0.7990774913781318,0.5630261536624911,16
378,6955.0,-0.04020625352859497,0.055979907512664795,-0.08494281768798828,-0.274749755859375,0.8990631103515625,9.544631958007812,-2.3657589624389765,-0.9372112371524697,0.446749013232194,16
379,6986.0,-0.021175473928451538,0.07855236530303955,0.1847991943359375,-0.256805419921875,0.883514404296875,9.771957397460938,-0.49395928077532214,0.4415034279496242,-0.6460812539698462,16
380,7002.0,-0.019553691148757935,0.07997465133666992,0.17938899993896484,-0.2496185302734375,0.8213043212890625,9.725296020507812,-0.49395928077532214,0.4415034279496242,-0.6460812539698462,16
381,7020.0,-0.010840088129043579,0.017047226428985596,0.1290884017944336,-0.280731201171875,0.9038543701171875,9.574539184570312,0.6941657857267359,0.3016211537477631,-0.8226826251496958,16
382,7037.0,-0.040058284997940063,0.09530937671661377,-0.020920753479003906,-0.3429412841796875,0.9241943359375,9.499160766601562,-0.3182321738092341,-0.1031631772238726,-0.5630261536624911,16
383,7055.0,-0.099280446767807,0.11229068040847778,-0.09360885620117188,-0.3214111328125,0.883514404296875,9.542236328125,-0.3182321738092341,-0.1031631772238726,-0.5630261536624911,16
384,7072.0,-0.07630717754364014,0.0717705488204956,-0.04932975769042969,-0.3214111328125,0.883514404296875,9.61163330078125,-2.0597664876224053,-0.8497848157763064,-0.05944996653579099,16
385,7089.0,-0.07598210871219635,0.07428693771362305,0.019082069396972656,-0.2771453857421875,0.871551513671875,9.61163330078125,-2.2818295979178598,-0.9774273909855047,0.13551095313305297,16
386,7106.0,-0.03334029018878937,0.0665210485458374,0.0179901123046875,-0.250823974609375,0.8571929931640625,9.646331787109375,-2.2818295979178598,-0.9774273909855047,0.13551095313305297,16
387,7123.0,-0.01013803482055664,0.056654512882232666,0.050644874572753906,-0.25201416015625,0.8452301025390625,9.57574462890625,-1.4810035781122048,-1.8621827753122764,0.2649020567697745,16
388,7140.0,0.022959023714065552,0.055165648460388184,-0.040808677673339844,-0.1909942626953125,0.808135986328125,9.615219116210938,-2.0020650495141377,-1.684707139918665,0.7072797489331604,16
389,7157.0,0.03319622576236725,0.01944512128829956,0.019080162048339844,-0.199371337890625,0.835662841796875,9.591293334960938,-1.9426150829783466,-2.2057686113205976,0.15649329426333214,16
390,7174.0,0.018258467316627502,0.05055290460586548,-0.005245208740234375,-0.199371337890625,0.835662841796875,9.591293334960938,-1.6339998155204905,-2.0851201498214924,-0.09179774244497137,16
391,7191.0,0.01291462779045105,0.05333942174911499,-0.005549430847167969,-0.2065582275390625,0.8093414306640625,9.61163330078125,-1.4320447821415534,-1.4556499159131175,0.0708154013146922,16
392,7210.0,0.0027929991483688354,0.029972970485687256,0.014016151428222656,-0.205352783203125,0.7997589111328125,9.678634643554688,-1.2781742805195062,-0.5796371737239621,-0.12414551835415176,16
393,7226.0,0.002087429165840149,0.022938311100006104,0.0784749984741211,-0.25799560546875,0.808135986328125,9.603256225585938,-0.9922898826194525,-0.767603979682713,-0.24916530092206515,16
394,7243.0,-0.052144408226013184,0.03270357847213745,0.0027627944946289062,-0.29150390625,0.8464202880859375,9.520706176757812,-0.6408356686872764,-1.4914947486773444,-0.6111106854193809,16
395,7260.0,-0.0874076783657074,0.07049506902694702,-0.07777881622314453,-0.274749755859375,0.8464202880859375,9.493179321289062,-0.4187725583918218,-1.6165145312452578,-0.430137993170723,16
396,7277.0,-0.07268626987934113,0.0698888897895813,-0.10257530212402344,-0.274749755859375,0.8512115478515625,9.493179321289062,-0.5525349830973515,-1.3743433440332857,-0.4100299162542055,16
397,7294.0,-0.07489645481109619,0.07486683130264282,-0.09999847412109375,-0.280731201171875,0.8404388427734375,9.514724731445312,-1.0797163039956157,-1.8071041298452937,-0.6591952171762706,16
398,7311.0,-0.08330054581165314,0.06603062152862549,-0.07666969299316406,-0.3070526123046875,0.817718505859375,9.58172607421875,-1.6077718891076416,-1.739785785385648,-0.936336972938708,16
399,7327.0,-0.1114652156829834,0.047443509101867676,-0.009926795959472656,-0.1945953369140625,0.802154541015625,9.746826171875,-2.269589898925197,-1.9539805177572478,-0.48871369549275234,16
400,7345.0,-0.003933832049369812,0.03666496276855469,0.1503124237060547,-0.2245025634765625,0.8057403564453125,9.73486328125,-1.8604342468847532,-1.7170549158278454,-0.5708945315863457,16
401,7363.0,-0.036833375692367554,0.04249000549316406,0.13416004180908203,-0.2245025634765625,0.8057403564453125,9.551803588867188,-0.5700202673725842,-1.2659345815268432,-0.7527414880487653,16
402,7381.0,-0.03818069398403168,0.04212307929992676,-0.047652244567871094,-0.268768310546875,0.8284759521484375,9.551803588867188,0.0,-0.5691460031588225,-0.5210614714019327,16
403,7398.0,-0.08141347765922546,0.06327790021896362,-0.046370506286621094,-0.2651824951171875,0.823699951171875,9.531463623046875,-0.1363852173468146,-0.4537431269422871,-0.7763466218203293,16
404,7415.0,-0.0765593945980072,0.0581241250038147,-0.06497478485107422,-0.36328125,0.814117431640625,9.598464965820312,-0.743998845911149,-0.33134613701565857,-0.8707671569065856,16
405,7432.0,-0.17173567414283752,0.0500410795211792,0.001705169677734375,-0.2472381591796875,0.7913970947265625,9.603256225585938,-1.3122705848562097,-1.1924963875708663,-0.5359239630358805,16
406,7449.0,-0.05883215367794037,0.029881656169891357,0.0059604644775390625,-0.229278564453125,0.78302001953125,9.608047485351562,-1.0893332103469937,-2.3465251497362205,-0.843664966279975,16
407,7466.0,-0.046901583671569824,0.024094223976135254,0.010061264038085938,-0.229278564453125,0.78302001953125,9.608047485351562,-1.1986162370671976,-3.073038711372137,-1.395325685163565,16
408,7483.0,-0.052424922585487366,0.0259132981300354,0.009456634521484375,-0.262786865234375,0.8117218017578125,9.517120361328125,-0.5796371737239621,-2.0973598488141554,-0.8340480599285971,16
409,7501.0,-0.08687101304531097,0.05488044023513794,-0.07940959930419922,-0.1838226318359375,0.7866058349609375,9.463272094726562,-0.7107768057882069,-0.39341889619273446,0.09354627087249463,16
410,7518.0,-0.0096312016248703,0.032446086406707764,-0.1298685073852539,-0.211334228515625,0.75909423828125,9.547027587890625,-1.865679832167323,-0.9896670899781675,0.40653285939915895,16
411,7535.0,-0.03993426263332367,0.010877728462219238,-0.04537773132324219,-0.279541015625,0.80096435546875,9.669052124023438,-2.601810300154617,-1.7362887285306015,0.5158158861193629,16
412,7557.0,-0.1093629002571106,0.058057308197021484,0.07391548156738281,-0.304656982421875,0.7937774658203125,9.663070678710938,-2.378872925645401,-1.26418605309932,0.67493197302398,16
413,7575.0,-0.13369762897491455,0.05554842948913574,0.06552505493164062,-0.304656982421875,0.7937774658203125,9.663070678710938,-2.3124288453995168,-1.107692758835988,1.366474966109431,16
414,7592.0,-0.13279622793197632,0.05999016761779785,0.06319618225097656,-0.2412567138671875,0.7698516845703125,9.720504760742188,-2.0790003003251614,-2.6079301496509486,0.6976628425817825,16
415,7609.0,-0.07276380062103271,0.041015684604644775,0.11673355102539062,-0.2735595703125,0.77703857421875,9.708541870117188,-2.0790003003251614,-2.6079301496509486,0.6976628425817825,16
416,7626.0,-0.10993613302707672,0.051637470722198486,0.10136604309082031,-0.22210693359375,0.7734375,9.67742919921875,-0.9494509361451325,-2.471544932304134,0.6714349161689335,16
417,7644.0,-0.016240596771240234,0.05229860544204712,0.05074310302734375,-0.22210693359375,0.80096435546875,9.606842041015625,-0.11627714043029708,-0.8821325916854869,0.9066119896708125,16
418,7661.0,-0.06923241913318634,0.07516789436340332,-0.00420379638671875,-0.22210693359375,0.80096435546875,9.606842041015625,0.16785872904223337,-0.6312187623358984,0.9485766719313709,16
419,7681.0,-0.06968870759010315,0.07296556234359741,-0.004117012023925781,-0.2603912353515625,0.8284759521484375,9.521896362304688,-0.12327125414039013,-0.9223487455185219,1.5002373908149607,16
420,7698.0,-0.10819390416145325,0.09860408306121826,-0.08670806884765625,-0.193389892578125,0.8524017333984375,9.679824829101562,-0.608487892778096,-1.138292006317645,2.3561420560875987,16
421,7715.0,-0.044034406542778015,0.12107545137405396,0.06903076171875,-0.0713653564453125,0.7913970947265625,9.781524658203125,-0.8996178759607194,-1.3734690798195242,2.9270365876739444,16
422,7734.0,0.07249397039413452,0.06052297353744507,0.16577625274658203,-0.0665740966796875,0.8871002197265625,9.914321899414062,-0.7448731101249105,-0.5936254011441482,3.1936871728712424,16
423,7750.0,0.07302381098270416,0.15384018421173096,0.29010009765625,-0.004364013671875,0.87274169921875,10.097381591796875,-0.7754723576065677,-0.47385120385880464,3.0782842966547066,16
424,7768.0,0.13079215586185455,0.1361839771270752,0.4599637985229492,-0.004364013671875,0.87274169921875,10.097381591796875,0.27102190626610595,0.41440123732301365,2.7032249489509663,16
425,7785.0,0.13381725549697876,0.13082635402679443,0.458465576171875,-0.103668212890625,0.93017578125,10.2158203125,3.0712901829446135,2.4820361028692735,1.9635974241086258,16
426,7802.0,0.04365141689777374,0.17258119583129883,0.5757970809936523,-0.1969757080078125,0.8859100341796875,9.902359008789062,7.4732104992344315,4.3905548815109166,1.5404535446479959,16
427,7821.0,-0.036608561873435974,0.10357880592346191,0.2633790969848633,-0.2615814208984375,0.9110260009765625,9.722900390625,9.691218809547692,4.995545717433966,1.6689703840709558,16
428,7838.0,-0.0880507081747055,0.10004866123199463,0.08611583709716797,-0.28192138671875,1.05938720703125,9.896377563476562,10.24637658528633,4.352961520319166,1.8237151499067645,16
429,7857.0,-0.10105158388614655,0.2176639437675476,0.2611837387084961,-0.3070526123046875,0.9170074462890625,9.806640625,10.80415715366625,0.9643134277790802,3.1193747147015034,16
430,7875.0,-0.1290990263223648,0.04282253980636597,0.17352962493896484,-0.3070526123046875,0.9170074462890625,9.806640625,13.009925764986848,-5.58130274065426,5.133679463208304,16
431,7892.0,-0.14148840308189392,0.007356166839599609,0.1758441925048828,0.0147857666015625,0.64422607421875,9.880828857421875,13.009925764986848,-5.58130274065426,5.133679463208304,16
432,7910.0,0.15809200704097748,-0.30325400829315186,0.25240135192871094,0.1918487548828125,1.0928802490234375,10.022003173828125,18.838645278135647,-7.68653096739227,-0.9817987120543129,16
433,7927.0,0.31010809540748596,0.0978386402130127,0.3963499069213867,-0.097686767578125,1.0450286865234375,9.591293334960938,22.87862020992815,-0.3864247824826414,0.31473511695418754,16
434,7944.0,0.009256288409233093,-0.008763313293457031,-0.028116226196289062,-0.5140380859375,1.3369598388671875,8.95599365234375,22.87862020992815,-0.3864247824826414,0.31473511695418754,16
435,7967.0,-0.5920960903167725,0.3412346839904785,-0.7115411758422852,-0.725799560546875,1.52838134765625,8.886611938476562,22.01047584566285,7.27999810799311,2.922665266605136,16
436,7983.0,-0.5700699090957642,0.28186774253845215,-0.7009391784667969,-0.6707611083984375,1.517608642578125,8.899765014648438,19.25654357231371,7.929576418818003,6.997610766948103,16
437,8001.0,-0.4938732385635376,0.2194126844406128,-0.677882194519043,-0.2017669677734375,1.3333587646484375,9.14263916015625,16.593534777195778,8.195352739801539,12.369090096299571,16
438,8017.0,-0.007468029856681824,-0.00955355167388916,-0.4267110824584961,-0.040252685546875,1.4314727783203125,9.432174682617188,14.860743105520223,7.620086887146385,12.828953072738189,16
439,8036.0,0.171386256814003,0.04756796360015869,-0.13043212890625,-0.3022613525390625,1.569061279296875,9.7049560546875,13.805506199509933,8.391187923684145,9.388723391586167,16
440,8057.0,-0.06959083676338196,0.14382469654083252,0.1481943130493164,-0.3022613525390625,1.7126312255859375,9.877227783203125,14.94467247004134,8.65171865938511,5.979092957915802,16
441,8076.0,-0.04555162787437439,0.24054324626922607,0.32666015625,-0.3022613525390625,1.7126312255859375,9.877227783203125,20.915897050033287,10.657280765754296,3.0494335776005728,16
442,8095.0,-0.01828157901763916,0.18567907810211182,0.33452510833740234,-0.473358154296875,1.581024169921875,9.688201904296875,24.38847450709449,10.798037304169918,2.9926064037060667,16
443,8112.0,-0.16010460257530212,-0.009429574012756348,0.1561260223388672,-0.4195098876953125,1.7126312255859375,9.499160766601562,27.30851698105834,13.159424945540087,2.222379631382069,16
444,8129.0,-0.07375848293304443,0.049597978591918945,-0.0193634033203125,-0.5523223876953125,1.740142822265625,9.015823364257812,25.408740844554316,13.142813925478615,3.54077006573461,16
445,8148.0,-0.05825674533843994,-0.03510439395904541,-0.5076770782470703,-0.2855224609375,1.7138214111328125,8.965576171875,20.930759541667236,11.415267839085631,4.952706770959646,16
446,8166.0,0.1484953761100769,-0.13893556594848633,-0.5078010559082031,-0.2855224609375,1.7138214111328125,8.965576171875,15.976304242280065,5.143296369559682,3.534650216238279,16
447,8184.0,0.15358000993728638,-0.17918777465820312,-0.497344970703125,-0.1299896240234375,1.8765411376953125,9.140243530273438,13.457549042432804,-0.4677313543624732,-0.7527414880487653,16
448,8201.0,0.3034887909889221,-0.05254256725311279,-0.31423091888427734,-0.2974853515625,1.6898956298828125,9.234756469726562,12.922499343610685,-3.4717031928474413,-3.221663627711614,16
449,8218.0,0.12392368912696838,-0.2738879919052124,-0.21196842193603516,-0.890899658203125,1.1826171875,9.73486328125,13.201389627800646,-5.893415064967162,-1.763390919157212,16
450,8236.0,-0.4901539087295532,-0.8192296028137207,0.29463958740234375,-1.0631866455078125,1.235260009765625,10.623794555664062,16.645990630021476,-9.826729762680745,5.173895617041339,16
451,8253.0,-0.7067162990570068,-0.8236076831817627,1.1897296905517578,-1.0631866455078125,1.235260009765625,10.317520141601562,26.175470560023268,-19.64821394007892,17.080499944261007,16
452,8271.0,-0.7824161052703857,-0.9118545055389404,0.8976030349731445,-0.9232025146484375,1.3082427978515625,10.311538696289062,38.80334286359628,-27.504352164940947,29.14010050888896,16
453,8287.0,-0.728596031665802,-0.9543955326080322,0.9135980606079102,0.0973358154296875,2.3048553466796875,9.3316650390625,46.10956889800224,-22.768462918994185,34.553544520500985,16
454,8304.0,0.20241591334342957,-0.08552718162536621,-0.035778045654296875,1.524658203125,3.516815185546875,8.2740478515625,45.74762351350493,-25.057286630622137,34.99854500530566,16
455,8321.0,1.5142267942428589,1.0063502788543701,-1.059218406677246,1.9039154052734375,3.62689208984375,7.535858154296875,38.171249837046624,-37.70701553953919,31.627382197040802,16
456,8340.0,1.7540533542633057,1.025291919708252,-1.7651424407958984,2.0498809814453125,3.3899993896484375,7.2630767822265625,25.563485610390124,-43.82686503587062,25.260115928214837,16
457,8361.0,1.7641608715057373,0.7376360893249512,-2.013071060180664,2.0498809814453125,3.3899993896484375,7.2630767822265625,0.8681443642653007,-32.10997604303722,-0.5254327924707409,16
458,8378.0,1.654578447341919,0.7202842235565186,-1.996872901916504,2.652862548828125,3.7142181396484375,7.85888671875,0.8681443642653007,-32.10997604303722,-0.5254327924707409,16
459,8394.0,2.1729860305786133,1.048722267150879,-1.3941774368286133,1.4995269775390625,3.129180908203125,9.182113647460938,-7.662925833620705,-26.58987179734628,-10.066278157251432,16
460,8413.0,0.9575092792510986,0.4818603992462158,-0.07324028015136719,1.103515625,3.275146484375,9.725296020507812,-2.1830377417627953,-25.398249673989174,-28.13906798413189,16
461,8430.0,0.5097718238830566,0.6362226009368896,0.4678659439086914,0.73382568359375,2.44842529296875,8.753799438476562,-2.1830377417627953,-25.398249673989174,-28.13906798413189,16
462,8449.0,0.09831464290618896,-0.20006442070007324,-0.49583911895751953,0.967132568359375,2.4938812255859375,7.8385467529296875,3.3772826577611847,1.352486738689245,-27.993940124647462,16
463,8467.0,0.38530826568603516,-0.16959142684936523,-1.3984041213989258,1.70172119140625,3.462982177734375,9.592483520507812,-8.654341452026397,27.70018734882355,-29.25637764931926,16
464,8484.0,1.2449378967285156,0.8166439533233643,0.3409271240234375,0.9252471923828125,3.6950836181640625,10.352203369140625,-10.818145381086437,48.34768528523202,-40.49679264565256,16
465,8500.0,0.6633345484733582,1.0566234588623047,1.0849580764770508,-0.1479339599609375,2.8743438720703125,9.38311767578125,-2.6297867549949894,70.9815115153069,-51.7433274914822,16
466,8517.0,-0.17040704190731049,0.22591042518615723,0.11429882049560547,-0.686309814453125,2.661376953125,8.519302368164062,6.509771335669113,74.55987494223328,-54.69309494871394,16
467,8534.0,-0.48144465684890747,-0.008854866027832031,-0.7379674911499023,-0.6360626220703125,3.1782379150390625,8.780120849609375,9.557456384842162,61.191500849604154,-51.41372988289406,16
468,8552.0,-0.24888268113136292,0.48601603507995605,-0.4636383056640625,-0.6360626220703125,3.1782379150390625,8.780120849609375,7.445234044394059,45.367318580518614,-43.04702135719524,16
469,8569.0,-0.11773139238357544,0.47032618522644043,-0.4513416290283203,-0.244842529296875,2.8863067626953125,9.714523315429688,6.102364212056192,28.41708400410809,-35.228476493524965,16
470,8586.0,0.3606916666030884,0.16179871559143066,0.4911031723022461,-0.2137298583984375,2.5919952392578125,10.1739501953125,9.581061518613726,17.3655100779473,-32.55847358469694,16
471,8603.0,0.44453901052474976,-0.16033554077148438,0.9587345123291016,0.035125732421875,2.5537109375,8.837554931640625,15.969310128569973,3.5197877246043308,-33.70113691208339,16
472,8622.0,0.6838604211807251,-0.23777222633361816,-0.36452770233154297,-0.4063568115234375,3.4378509521484375,8.824386596679688,18.800177652730138,-28.95125943871645,-34.859536995317555,16
473,8639.0,0.16733533143997192,0.6015026569366455,-0.3681497573852539,-1.050018310546875,3.58740234375,7.9916839599609375,17.584950395601467,-47.068636740498754,-33.6897714773045,16
474,8656.0,-0.5572370886802673,0.7037785053253174,-1.1869173049926758,-1.050018310546875,3.58740234375,7.9916839599609375,19.293262669291696,-33.82091110936874,-27.81646448925385,16
475,8673.0,-0.6006205081939697,0.653003454208374,-1.1691474914550781,-1.48431396484375,3.2201080322265625,7.2881927490234375,18.781818104241143,-13.644641584177792,-14.38776616587518,16
476,8690.0,-1.0475184917449951,0.24282336235046387,-1.8521928787231445,-1.4340667724609375,3.059783935546875,7.5813140869140625,12.93648757103087,-2.2302480093059236,4.416782807923766,16
477,8713.0,-0.9994090795516968,0.05610013008117676,-1.5443449020385742,-1.0942840576171875,3.1734466552734375,7.992889404296875,5.419563861108357,5.7648982255442025,20.908902936323194,16
478,8723.0,-0.6559502482414246,0.15828633308410645,-1.124455451965332,-0.5941925048828125,3.4187164306640625,8.281219482421875,0.2753932273349141,11.948569009480225,30.744375341141556,16
479,8741.0,-0.1622062623500824,0.3994572162628174,-0.8321762084960938,-0.244842529296875,3.3660736083984375,8.70355224609375,-1.6147660028177346,5.291921285899159,37.24977535574186,16
480,8763.0,0.1517651379108429,0.3415043354034424,-0.4084281921386719,-0.244842529296875,3.3660736083984375,8.70355224609375,1.009775166894685,-5.739544563345115,39.90054445186713,16
481,8781.0,0.09918341040611267,0.3267652988433838,-0.40441131591796875,-0.292694091796875,3.1854095458984375,8.759780883789062,9.404460147433877,-4.211330717689782,37.043449001294114,16
482,8797.0,0.002313971519470215,0.12177014350891113,-0.34049415588378906,-0.6707611083984375,3.1327667236328125,8.446319580078125,9.404460147433877,-4.211330717689782,37.043449001294114,16
483,8816.0,-0.41462576389312744,0.037097930908203125,-0.6417055130004883,-0.638458251953125,3.230865478515625,8.64971923828125,12.290406317061024,-1.7406600495994096,35.75128649335442,16
484,8833.0,-0.412844717502594,0.09517431259155273,-0.42379188537597656,-0.350128173828125,3.48211669921875,8.845932006835938,20.18938348839737,1.5334594309379028,33.98527278155593,16
485,8849.0,-0.1513940691947937,0.2955167293548584,-0.2100229263305664,-0.208953857421875,4.2167205810546875,8.38531494140625,20.18938348839737,1.5334594309379028,33.98527278155593,16
486,8867.0,-0.04235193133354187,0.9665231704711914,-0.6474075317382812,-0.208953857421875,4.2167205810546875,8.38531494140625,23.094563470727273,-4.93871854353946,29.20392179649356,16
487,8885.0,-0.08117751777172089,0.8999204635620117,-0.6225852966308594,0.1786956787109375,4.62469482421875,8.233367919921875,16.25781731911131,-0.4572401837973336,25.37814159707266,16
488,8901.0,0.27170971035957336,1.249882459640503,-0.7521886825561523,0.5615386962890625,4.3806304931640625,8.0634765625,16.25781731911131,-0.4572401837973336,25.37814159707266,16
489,8920.0,0.9108790159225464,0.6210536956787109,-0.6546154022216797,1.2303314208984375,3.9068450927734375,8.881820678710938,-9.912407655629385,-1.5500704509993737,1.0360030933075342,16
490,8937.0,1.2766950130462646,0.5374457836151123,-0.10246086120605469,1.2303314208984375,3.9068450927734375,8.881820678710938,-13.651635697887885,-10.684382956380906,-12.29827469498488,16
491,8955.0,1.2539020776748657,0.5688865184783936,-0.11466503143310547,-0.0498199462890625,3.5479278564453125,8.635360717773438,-11.814806584774697,-15.84429034600206,-22.98615470822083,16
492,8971.0,-0.03288893401622772,0.23668432235717773,-0.3698234558105469,-0.42071533203125,3.9606781005859375,8.152008056640625,-9.001424344889765,-7.67079421154456,-26.603860024766465,16
493,8988.0,-0.3844054937362671,0.6681404113769531,-0.8574161529541016,-0.88970947265625,4.057586669921875,7.77752685546875,-7.123504813729778,2.129707624723336,-25.119359389799214,16
494,9007.0,-0.8072295784950256,0.7824783325195312,-1.2340011596679688,-1.2175140380859375,4.33636474609375,7.4927825927734375,-8.321246786583215,13.717205513920009,-20.216485679023982,16
495,9025.0,-1.0633230209350586,1.086500644683838,-1.522282600402832,-1.558502197265625,4.3770294189453125,7.857696533203125,-13.879818657679671,24.395468620804582,-15.010242286073462,16
496,9042.0,-1.3172919750213623,1.1700396537780762,-1.1678028106689453,-1.4209136962890625,4.4356536865234375,8.569549560546875,-21.808520812283913,28.014048201563977,-10.575974193874464,16
497,9062.0,-1.089902400970459,1.2862811088562012,-0.4734334945678711,-1.4209136962890625,4.4356536865234375,8.569549560546875,-25.253121814504745,29.344678334909183,-9.093222087334736,16
498,9080.0,-1.0031490325927734,1.3555233478546143,-0.49372291564941406,-1.407745361328125,4.3112335205078125,9.293380737304688,-30.572145291030512,26.689537917715107,-8.552052539016286,16
499,9097.0,-0.9166747331619263,1.312380075454712,0.2036876678466797,-1.3287811279296875,4.2238922119140625,9.836563110351562,-33.904840473889855,19.795964592204637,-8.239940214703383,16
500,9114.0,-0.7818318605422974,1.3098490238189697,0.7175617218017578,-1.13018798828125,4.16168212890625,9.937057495117188,-28.65313534182373,9.908036334560578,-11.277134093311293,16
501,9132.0,-0.5404033064842224,1.326017141342163,0.790867805480957,-1.34912109375,4.109039306640625,10.01123046875,-28.65313534182373,9.908036334560578,-11.277134093311293,16
502,9149.0,-0.7215652465820312,1.3389666080474854,0.8420495986938477,-1.5333709716796875,4.109039306640625,9.892791748046875,-22.774582768490518,8.105303525784091,-14.172697169289819,16
503,9166.0,-0.8694775700569153,1.3865926265716553,0.7069740295410156,-1.5333709716796875,4.0946807861328125,9.892791748046875,-5.391587406267985,4.989425867937634,-14.25924932645222,16
504,9184.0,-0.8376191854476929,1.3966567516326904,0.6972322463989258,-1.16009521484375,4.0779266357421875,8.808837890625,-5.391587406267985,4.989425867937634,-14.25924932645222,16
505,9201.0,-0.4412927031517029,1.3839123249053955,-0.3863487243652344,-0.9531097412109375,4.063568115234375,7.71771240234375,0.529804113539549,0.5333011703945956,-16.2945364160893,16
506,9218.0,-0.21741241216659546,1.3659780025482178,-1.4706850051879883,-0.90167236328125,4.0623779296875,7.330078125,-1.8359548488994275,0.5175644145468862,-16.93274929213529,16
507,9234.0,-0.15080946683883667,1.3644495010375977,-1.8509740829467773,-0.8980865478515625,3.997772216796875,7.18890380859375,-1.8359548488994275,0.5175644145468862,-16.93274929213529,16
508,9251.0,-0.1313270926475525,1.3045485019683838,-1.9855546951293945,-0.8980865478515625,3.997772216796875,6.9998626708984375,-3.8939728080943095,0.582259966365247,-15.1370105970689,16
509,9268.0,-0.1161389946937561,1.3118565082550049,-2.168032646179199,-0.6456298828125,3.9116363525390625,6.9998626708984375,-3.8939728080943095,0.582259966365247,-15.1370105970689,16
510,9286.0,0.14481651782989502,1.2367615699768066,-2.1629371643066406,-0.4243011474609375,3.8350677490234375,6.9113311767578125,-7.513426653067467,-7.854389696434503,-18.21879195057865,16
511,9302.0,0.3635551333427429,1.1767394542694092,-2.2483930587768555,-0.4960784912109375,3.8841094970703125,7.1876983642578125,-7.627081000856479,-11.145120197033286,-18.846513656059503,16
512,9319.0,0.27951866388320923,1.2452073097229004,-1.971837043762207,-0.2364654541015625,3.9714508056640625,7.019012451171875,-7.627081000856479,-11.145120197033286,-18.846513656059503,16
513,9336.0,0.5169887542724609,1.3507609367370605,-2.140080451965332,-0.04144287109375,4.04443359375,6.79766845703125,-8.578280465429135,-18.056178806818988,-20.575808270880014,16
514,9353.0,0.6804655194282532,1.4429175853729248,-2.3610363006591797,-0.04144287109375,4.04443359375,6.79766845703125,-8.578280465429135,-18.056178806818988,-20.575808270880014,16
515,9370.0,0.6422982811927795,1.4679183959960938,-2.362661361694336,-0.0139312744140625,4.156890869140625,7.065673828125,-13.00118312284923,-21.012940377760827,-22.858512133011633,16
516,9395.0,0.7322831153869629,1.7693824768066406,-1.7560434341430664,0.06622314453125,4.337554931640625,7.95819091796875,-13.7880209152347,-20.099334274379924,-23.92161741694578,16
517,9412.0,0.6293366551399231,1.8587605953216553,-1.2214689254760742,0.11767578125,4.3866119384765625,8.446319580078125,-14.301214008712778,-19.78722195006702,-24.86494850359458,16
518,9429.0,0.6404736638069153,1.9424262046813965,-0.7438879013061523,0.0518646240234375,4.4918975830078125,8.792083740234375,-14.277608874941214,-21.94578029384449,-26.272513887750808,16
519,9445.0,0.5307025909423828,2.0819013118743896,-0.4099855422973633,0.0518646240234375,4.4918975830078125,8.792083740234375,-14.427982319708216,-23.437275042521833,-28.049893034328207,16
520,9470.0,0.4864937365055084,2.1155173778533936,-0.42133617401123047,-0.151519775390625,4.526580810546875,9.472854614257812,-11.322595832426897,-21.75169363838941,-30.737381227431463,16
521,9490.0,0.24278181791305542,2.1792078018188477,0.2468852996826172,-0.698272705078125,4.6569976806640625,10.341445922851562,-11.322595832426897,-21.75169363838941,-30.737381227431463,16
522,9507.0,-0.8311581611633301,2.6271779537200928,1.270035743713379,-1.2163238525390625,5.4717559814453125,10.075836181640625,-3.864247824826414,-29.49854883653123,-26.920343670148178,16
523,9524.0,-0.9756669402122498,3.1541807651519775,0.8149547576904297,-1.7451324462890625,5.7433319091796875,11.174148559570312,-8.174370398671261,-32.4159685178538,-22.222047785393165,16
524,9544.0,-1.563748836517334,3.4489681720733643,1.8945283889770508,-1.7451324462890625,5.7433319091796875,11.174148559570312,-18.583360127717253,-25.227768152305657,-14.494426399954099,16
525,9567.0,-1.6035999059677124,3.493666410446167,1.8714408874511719,-2.351715087890625,5.2384490966796875,13.65191650390625,-24.679604490277114,-13.238108724778634,-2.78540578504456,16
526,9583.0,-2.2320313453674316,3.0382986068725586,4.315899848937988,-1.8839263916015625,4.1880035400390625,15.123504638671875,-21.030425662036063,-8.36146294041625,7.9706668368648,16
527,9600.0,-1.7987926006317139,2.019742488861084,5.753558158874512,-0.7174224853515625,3.1255950927734375,15.030181884765625,-8.679695114225483,-18.12262288706487,10.094254612091804,16
528,9617.0,-0.7100530862808228,0.9522387981414795,5.636523246765137,-0.145538330078125,2.501068115234375,12.764175415039062,27.639863118074,-53.017130450932896,-11.910101384074714,16
529,9637.0,-0.2588701844215393,0.27565836906433105,3.369037628173828,-0.193389892578125,2.2928924560546875,10.366561889648438,27.639863118074,-53.017130450932896,-11.910101384074714,16
530,9654.0,-0.43445080518722534,-0.02697896957397461,0.9926395416259766,-0.193389892578125,2.2928924560546875,10.366561889648438,40.79141968569023,-49.1205348501973,-20.762900812625002,16
531,9671.0,-0.533122718334198,-0.15068602561950684,1.0231561660766602,-0.0904998779296875,2.1182098388671875,8.370956420898438,49.414287626021206,-22.23603601281335,-27.783242449130906,16
532,9688.0,-0.48866668343544006,-0.4601116180419922,-0.9293403625488281,0.3043212890625,2.0787353515625,6.9687652587890625,49.414287626021206,-22.23603601281335,-27.783242449130906,16
533,9705.0,-0.11424869298934937,-0.6271214485168457,-2.2839841842651367,-0.328582763671875,2.1696624755859375,6.780914306640625,36.142956861119636,2.65164336033903,-31.733168166905962,16
534,9722.0,-0.7284795045852661,-0.6454765796661377,-2.428882598876953,-0.7186126708984375,2.4125213623046875,6.83953857421875,22.951184139670367,11.946820481052702,-27.047111981143612,16
535,9739.0,-1.0701384544372559,-0.48354411125183105,-2.3365230560302734,-1.1696624755859375,2.4986724853515625,8.376937866210938,22.951184139670367,11.946820481052702,-27.047111981143612,16
536,9759.0,-1.374753713607788,-0.48963403701782227,-0.7658786773681641,-1.260589599609375,2.385009765625,9.801864624023438,14.802167403198194,25.2496247576497,-17.188034442553686,16
537,9778.0,-1.3741512298583984,-0.6377689838409424,0.6669588088989258,-1.44244384765625,2.389801025390625,11.158584594726562,12.338490848817914,29.688264170917503,-10.906446066676361,16
538,9795.0,-1.4679865837097168,-0.6681122779846191,2.0271835327148438,-0.9866180419921875,2.0248870849609375,11.431365966796875,15.837296232291965,26.325844004790266,-4.967569262593594,16
539,9813.0,-0.9509618282318115,-1.081083059310913,2.3081045150756836,-0.1658782958984375,1.8502197265625,9.883209228515625,23.501096330126433,15.027727570348695,0.4651085617211883,16
540,9829.0,-0.10782212764024734,-1.326589822769165,0.7831478118896484,0.2444915771484375,1.9710540771484375,8.1531982421875,33.74222733013019,1.7424085780269327,0.40653285939915895,16
541,9849.0,0.29830092191696167,-1.2989614009857178,-0.9080438613891602,0.2444915771484375,1.9710540771484375,8.1531982421875,40.43734267911677,-5.811234228873569,-5.572560098516643,16
542,9871.0,0.2981413006782532,-1.4036271572113037,-0.8637666702270508,0.112884521484375,2.1469268798828125,7.265472412109375,46.12530565384995,12.928619193107016,-11.772841902514138,16
543,9892.0,0.194768488407135,-1.3395576477050781,-1.6993446350097656,0.0375213623046875,2.3347625732421875,6.404052734375,46.12530565384995,12.928619193107016,-11.772841902514138,16
544,9910.0,0.17994366586208344,-1.2657501697540283,-2.502194404602051,-0.4889068603515625,2.44482421875,6.4483184814453125,41.54590970216652,30.960318601940678,-14.402628657509128,16
545,9927.0,-0.8899195790290833,-0.7738430500030518,-1.546682357788086,-1.2211151123046875,3.03466796875,7.247528076171875,39.786015839864355,33.63818988869256,-12.297400430771118,16
546,9944.0,-0.5366023778915405,-1.720249891281128,-2.9306459426879883,-0.9710540771484375,2.185211181640625,5.801055908203125,42.06434838092717,36.30032441959673,-8.168250549174928,16
547,9961.0,-0.4322690963745117,-1.8146297931671143,-2.8665904998779297,-0.39080810546875,2.50225830078125,5.824981689453125,38.68619145895222,37.11339013839505,-7.849144111151933,16
548,9978.0,0.2617104649543762,-1.5844807624816895,-2.77932071685791,-0.7066497802734375,2.6075439453125,6.3011627197265625,36.444578014867396,44.45283821292395,-12.376084210009664,16
549,9996.0,0.08788818120956421,-1.5661053657531738,-2.236715316772461,-1.1265869140625,2.7582855224609375,5.7914886474609375,39.807872445208396,57.436536051497946,-12.260681333793128,16
550,10014.0,-0.1649572253227234,-1.5121593475341797,-2.6668176651000977,-1.6147308349609375,3.2380523681640625,5.77593994140625,44.975648212753406,65.7429203464472,-9.734932020235775,16
551,10031.0,-0.4826340675354004,-1.1356005668640137,-2.595139503479004,-1.6147308349609375,3.2380523681640625,5.77593994140625,43.89680617297155,64.88089583167825,-2.864089564283107,16
552,10054.0,-0.3339262008666992,-1.2287449836730957,-2.5111637115478516,-1.43048095703125,3.3313751220703125,4.258880615234375,36.23213181092332,57.24070086761534,4.909867824485326,16
553,10071.0,-0.03554558753967285,-1.1966328620910645,-3.9571313858032227,-1.2797393798828125,4.0252838134765625,4.504150390625,16.676589877503133,43.33815134037786,6.472177974477362,16
554,10088.0,0.19898223876953125,-0.5164146423339844,-3.6729049682617188,-2.138763427734375,4.2705535888671875,5.3691558837890625,-5.395958727336794,33.295478316898,4.728895132236668,16
555,10106.0,-0.5956493616104126,-0.23410987854003906,-2.804680824279785,-2.7022705078125,4.82330322265625,6.2592926025390625,-26.634459272248122,24.34126423955136,6.180173727080978,16
556,10123.0,-1.1136999130249023,0.40084171295166016,-1.9443140029907227,-3.49310302734375,5.218109130859375,8.137649536132812,-64.1028006814304,13.27395355754286,13.955879644276934,16
557,10139.0,-1.8738291263580322,0.9194397926330566,-0.12853336334228516,-3.49310302734375,5.218109130859375,9.801864624023438,-64.1028006814304,13.27395355754286,13.955879644276934,16
558,10157.0,-1.8638770580291748,1.0744729042053223,1.4490137100219727,-3.52301025390625,5.645233154296875,9.801864624023438,-73.65151442413493,6.264103091602094,20.539089173902024,16
559,10176.0,-1.899832844734192,1.6695442199707031,1.3561296463012695,-2.7381591796875,6.01611328125,10.581924438476562,-80.13680636181873,18.728487987201685,20.28030696662858,16
560,10193.0,-1.107376217842102,2.216297149658203,2.0435056686401367,-3.9525146484375,6.1776275634765625,12.582321166992188,-80.13680636181873,18.728487987201685,20.28030696662858,16
561,10209.0,-2.2589259147644043,2.5571258068084717,3.9555625915527344,-6.2233123779296875,6.2230987548828125,14.738250732421875,-68.68394516154135,50.617275184157215,24.72594049360648,16
562,10226.0,-4.418019771575928,2.7669897079467773,6.033156394958496,-6.098876953125,5.5291748046875,15.844940185546875,-50.53072302699481,30.70415918730852,40.00021057223596,16
563,10244.0,-4.2045698165893555,2.1994316577911377,7.072669982910156,-6.098876953125,5.5291748046875,15.844940185546875,-50.53072302699481,30.70415918730852,40.00021057223596,16
564,10261.0,-4.190171241760254,2.2576346397399902,7.017256736755371,-5.64544677734375,5.0123291015625,15.820999145507812,9.837220933245884,-4.3826865035870615,41.821302929501435,16
565,10278.0,-3.7694411277770996,1.7228779792785645,6.957829475402832,-1.5549163818359375,4.4942779541015625,12.544036865234375,27.81209316818504,7.3613046798729425,12.591153206595026,16
566,10297.0,-2.92893648147583,0.8655006885528564,3.4407148361206055,-5.8835296630859375,3.8314666748046875,9.817413330078125,55.111867507105764,38.402055589479694,12.484492972516106,16
567,10313.0,-3.8471646308898926,0.17824077606201172,1.0893583297729492,-6.4757537841796875,4.027679443359375,7.0824127197265625,74.7574586545434,60.59962397688753,22.35231315324365,16
568,10332.0,-4.290777206420898,0.16048908233642578,-1.5150747299194336,-6.4757537841796875,4.027679443359375,7.0824127197265625,78.80879902111481,68.54755994419453,38.188735121321855,16
569,10358.0,-4.1545209884643555,-0.056382179260253906,-1.3768644332885742,-5.523406982421875,3.8936920166015625,4.6764373779296875,71.90211173239791,67.9556830714779,51.21439764215641,16
570,10375.0,-3.1074702739715576,-0.37651777267456055,-3.6512327194213867,-4.0434417724609375,3.51800537109375,3.4812164306640625,20.86344119720759,43.76916359776235,81.02243601035926,16
571,10392.0,-1.5925180912017822,-0.8839631080627441,-4.747386932373047,-3.019317626953125,2.9102325439453125,3.811431884765625,20.86344119720759,43.76916359776235,81.02243601035926,16
572,10408.0,-0.5897872447967529,-1.5673613548278809,-4.361533164978027,-2.1016693115234375,2.620697021484375,4.39886474609375,-1.069225133430476,26.13612867040399,85.14983736352792,16
573,10425.0,0.26524972915649414,-1.8936357498168945,-3.7518606185913086,-1.25341796875,2.6912841796875,4.7254791259765625,-19.976937284453292,14.904456316208304,87.1580222625384,16
574,10443.0,1.0319459438323975,-1.8365230560302734,-3.4212427139282227,-1.25341796875,2.6912841796875,4.7254791259765625,-19.976937284453292,14.904456316208304,87.1580222625384,16
575,10460.0,0.958611249923706,-1.8318533897399902,-3.424384117126465,-0.327392578125,1.6934814453125,5.383514404296875,-24.36661790175045,35.07897731297173,84.2003864273828,16
576,10483.0,1.9491398334503174,-2.8454246520996094,-2.453068733215332,-0.103668212890625,1.699462890625,5.870452880859375,-22.827038621316216,34.1636226811633,80.13593209760496,16
577,10500.0,1.982254981994629,-2.77236270904541,-2.2837867736816406,0.200225830078125,2.0236968994140625,5.7723541259765625,-20.559197250818542,23.181989892103438,73.30268300284405,16
578,10516.0,2.2251222133636475,-2.433377742767334,-2.3874502182006836,0.504119873046875,2.2474212646484375,5.82379150390625,-18.56674910765578,11.336584059847084,68.0833256466871,16
579,10534.0,2.450976610183716,-2.1937479972839355,-2.3463821411132812,0.504119873046875,2.2474212646484375,5.82379150390625,-18.68914609758241,3.4559664369997316,62.34378108334199,16
580,10555.0,2.367248058319092,-2.173083782196045,-2.360013961791992,0.7015228271484375,2.4352569580078125,5.846527099609375,-18.513418990616323,-0.7081540131469221,55.76931419585451,16
581,10572.0,2.4817333221435547,-1.9594964981079102,-2.3530473709106445,0.915679931640625,2.6015625,5.912322998046875,-19.281897234512797,-3.531153159383232,48.05305824519435,16
582,10589.0,2.616273880004883,-1.758946418762207,-2.3065366744995117,-0.1909942626953125,2.7176055908203125,6.222198486328125,-21.478048939482015,-7.246776067870169,38.22895127515489,16
583,10606.0,1.4393651485443115,-1.598759651184082,-2.020962715148926,-0.326202392578125,3.5072479248046875,6.7246856689453125,-23.47749119635487,-9.798753307840373,29.92693830127443,16
584,10625.0,1.2441552877426147,-0.7625741958618164,-1.5451879501342773,1.043701171875,4.3925933837890625,6.9149169921875,-23.898012283174214,1.8193438288379564,29.31145629478624,16
585,10643.0,2.5634140968322754,0.1667933464050293,-1.3795804977416992,1.043701171875,4.3925933837890625,6.9149169921875,-23.898012283174214,1.8193438288379564,29.31145629478624,16
586,10660.0,2.526561737060547,0.2188868522644043,-1.4052515029907227,1.0544586181640625,5.0314788818359375,6.97833251953125,-27.85318358623184,-0.3610711202835541,15.96756160014245,16
587,10680.0,2.5146427154541016,0.9306201934814453,-1.3762807846069336,-0.7652740478515625,5.6440277099609375,8.239349365234375,-52.107021404407035,2.3447766213086974,-13.405967453820868,16
588,10696.0,0.7009345293045044,1.649510383605957,-0.16764068603515625,-2.5886077880859375,6.29608154296875,11.214828491210938,-52.107021404407035,2.3447766213086974,-13.405967453820868,16
589,10712.0,-1.1002498865127563,2.4351913928985596,2.7326231002807617,-3.0695648193359375,6.59637451171875,12.693588256835938,-59.2742394288249,-20.581053856162583,-13.05451323988869,16
590,10729.0,-1.5865142345428467,2.8774561882019043,4.123628616333008,-4.3293914794921875,6.162078857421875,12.498565673828125,-59.18506447902121,-42.145654952807,-9.779519495137617,16
591,10746.0,-2.901153564453125,2.58656907081604,3.836030960083008,-4.3293914794921875,6.162078857421875,12.498565673828125,-59.18506447902121,-42.145654952807,-9.779519495137617,16
592,10764.0,-2.9815196990966797,2.7241978645324707,3.74564266204834,0.6165771484375,8.173248291015625,15.038558959960938,-30.92447376917645,-23.70305136350537,-19.758371231012887,16
593,10781.0,1.89146888256073,4.8311076164245605,6.205288887023926,-1.777435302734375,7.3333740234375,16.228988647460938,-30.92447376917645,-23.70305136350537,-19.758371231012887,16
594,10798.0,-0.5163376331329346,4.024767875671387,7.34381103515625,-3.4261016845703125,6.9241943359375,15.451309204101562,37.789196375632784,-7.0395754492086615,-47.003941188680386,16
595,10815.0,-2.137615442276001,3.5669121742248535,6.553989410400391,-3.2502288818359375,6.1776275634765625,11.250717163085938,58.542480281906414,-2.502144179785791,-42.631745855658465,16
596,10831.0,-1.9221035242080688,2.7010457515716553,2.389561653137207,-4.4466400146484375,5.3975677490234375,9.742034912109375,58.542480281906414,-2.502144179785791,-42.631745855658465,16
597,10849.0,-3.060246229171753,1.7736375331878662,0.9401073455810547,-4.4466400146484375,5.3975677490234375,9.742034912109375,55.511406252794835,15.064446667326683,-20.908902936323194,16
598,10866.0,-2.989743232727051,1.6279594898223877,1.003763198852539,-2.8183135986328125,6.3343658447265625,7.3360595703125,55.511406252794835,15.064446667326683,-20.908902936323194,16
599,10883.0,-1.2990670204162598,2.4437668323516846,-1.338261604309082,-3.57684326171875,5.2205047607421875,8.9835205078125,21.1047381202058,12.801850882111578,6.056028208726826,16
600,10900.0,-2.01009202003479,1.2525362968444824,0.34742164611816406,-4.0769500732421875,4.331573486328125,8.789703369140625,11.550778792218683,7.072797489331604,18.984647401833843,16
601,10916.0,-2.489269256591797,0.31530332565307617,0.17652606964111328,-2.3493194580078125,3.787200927734375,9.009841918945312,11.550778792218683,7.072797489331604,18.984647401833843,16
602,10933.0,0.4100608825683594,-1.4177656173706055,-0.104522705078125,-1.15411376953125,2.6625823974609375,8.48101806640625,8.424409963807086,9.814490063688082,30.428765959973607,16
603,10950.0,0.4100608825683594,-1.4177656173706055,-0.104522705078125,-0.8394622802734375,2.1122283935546875,8.623397827148438,9.289931535431103,7.463593592883053,24.63414275116151,16
604,10966.0,0.3971363306045532,-1.446460247039795,-0.0895986557006836,-0.8394622802734375,2.1122283935546875,8.623397827148438,17.062140395772012,3.351054731348336,17.820127469103348,16
605,10988.0,0.670748233795166,-2.5447068214416504,0.05551433563232422,-0.7891998291015625,1.3896026611328125,7.3396453857421875,32.58819856796484,1.7266718221792234,11.257900280608537,16
606,11004.0,0.7256413698196411,-2.905139446258545,-1.124664306640625,-1.02490234375,1.175445556640625,5.5318756103515625,49.29713622137715,3.49793111926029,6.248366335754385,16
607,11022.0,0.4953339099884033,-3.23587703704834,-2.851861000061035,-1.4029693603515625,1.412322998046875,4.3115234375,54.2314834438478,7.805430900463851,3.9779021726154262,16
608,11041.0,0.1443694829940796,-3.119394302368164,-3.9788665771484375,-1.4029693603515625,1.412322998046875,4.3115234375,53.838064547655065,18.05005895732266,1.8473202836783287,16
609,11059.0,0.19026970863342285,-3.226428985595703,-3.886646270751953,-1.8492279052734375,1.6312713623046875,3.9609832763671875,44.58572637341572,24.370114958605495,4.741134831229331,16
610,11076.0,-0.20258557796478271,-3.092081069946289,-4.153387069702148,-2.0717620849609375,1.6551971435546875,4.258880615234375,23.535192634463137,29.26861734831192,17.787779693194167,16
611,11093.0,-0.3749876022338867,-3.129995346069336,-3.785503387451172,-2.357696533203125,1.5499114990234375,4.7410430908203125,23.535192634463137,29.26861734831192,17.787779693194167,16
612,11111.0,-0.6189758777618408,-3.281297206878662,-3.2454800605773926,-2.0430450439453125,1.52239990234375,5.16815185546875,19.152506130876073,27.437908084695064,20.911525728964477,16
613,11127.0,-0.2801002264022827,-3.3448543548583984,-2.7712182998657227,-2.0430450439453125,1.52239990234375,4.7649688720703125,13.200515363586884,21.868845043033467,27.66171972341804,16
614,11148.0,-0.27831876277923584,-3.3729934692382812,-3.1350903511047363,-1.3850250244140625,1.5894012451171875,4.7649688720703125,9.964863508455084,15.688671315952488,32.47629274860335,16
615,11167.0,0.36562180519104004,-3.3260598182678223,-3.103743553161621,-1.3156280517578125,1.8250885009765625,4.5543975830078125,-2.2180083103132606,17.72483266980333,32.07500547448676,16
616,11185.0,0.423042893409729,-3.0970640182495117,-3.290505886077881,-1.5034637451171875,2.2809295654296875,4.39886474609375,-12.949601534237296,26.671178369226112,31.91501512336838,16
617,11202.0,-0.17710506916046143,-2.2418956756591797,-2.8775572776794434,-2.844635009765625,3.029876708984375,6.299957275390625,-26.480588770626074,37.27950033900976,31.05823619388198,16
618,11219.0,-0.17710506916046143,-2.2418956756591797,-2.8775572776794434,-2.844635009765625,3.029876708984375,6.299957275390625,-42.89664791242824,46.76963837939227,30.31336308375707,16
619,11235.0,-1.0159425735473633,-1.7695927619934082,-1.5513014793395996,-2.844635009765625,3.029876708984375,6.299957275390625,-57.843943175110866,52.49781750795849,31.01976856847647,16
620,11255.0,-1.8843659162521362,-0.7942137718200684,0.019924163818359375,-3.9955902099609375,4.406951904296875,9.931076049804688,-69.97261061262599,52.264388962884134,34.72052898532946,16
621,11273.0,-1.9312937259674072,0.0033621788024902344,1.9075546264648438,-4.8342742919921875,5.1630706787109375,12.341842651367188,-80.20499897049213,45.78084555362786,37.43162231220428,16
622,11292.0,-2.7006335258483887,0.9262809753417969,4.224296569824219,-5.6370697021484375,5.985015869140625,14.558792114257812,-83.6259948389414,45.17935177455986,39.97135985318182,16
623,11308.0,-3.421933889389038,1.9115204811096191,6.345333099365234,-6.4649810791015625,6.126190185546875,15.883224487304688,-81.41235784969695,54.65462732330843,44.80166963421484,16
624,11326.0,-4.147921562194824,2.2021334171295166,7.584298133850098,-6.4649810791015625,6.126190185546875,15.883224487304688,-75.42364798542977,62.94090354134118,52.311599230427255,16
625,11345.0,-4.061794281005859,2.3267292976379395,7.51014518737793,-5.8153228759765625,5.5543060302734375,16.264877319335938,-66.22114287137482,48.06529794418701,63.350059193381625,16
626,11364.0,-3.3976850509643555,1.8415453433990479,7.816958427429199,-3.37823486328125,5.023101806640625,14.294387817382812,-48.32145735881917,13.155053624471279,71.16335847176933,16
627,11382.0,-1.0222346782684326,1.3482661247253418,5.784706115722656,-2.6292877197265625,5.64044189453125,13.05010986328125,2.224128159809592,9.086227973624643,61.12680529778579,16
628,11402.0,-0.3365743160247803,1.9431211948394775,4.5101118087768555,-1.5836181640625,4.88909912109375,10.461090087890625,23.802717483874197,35.3438793697415,44.20891849728445,16
629,11420.0,0.7042686939239502,1.1196315288543701,1.9419841766357422,-2.661590576171875,4.6462249755859375,8.563568115234375,37.637074402438266,56.020228025204105,32.313679604843685,16
630,11437.0,-0.3014950752258301,0.7716109752655029,0.10931015014648438,-2.661590576171875,4.6462249755859375,8.563568115234375,40.90245124083796,68.21883659982015,29.324570257992665,16
631,11454.0,-0.18317651748657227,0.6507408618927002,0.19755935668945312,-3.557708740234375,4.836456298828125,7.07403564453125,35.088594219323106,67.42500469372459,33.79118612610085,16
632,11471.0,-0.9475462436676025,0.7223396301269531,-1.1915998458862305,-4.3138275146484375,4.8400421142578125,5.6885986328125,21.735082618327937,57.64198814173193,45.395295035358984,16
633,11488.0,-1.5452396869659424,0.290804386138916,-3.110872268676758,-3.87115478515625,3.9487152099609375,5.12628173828125,3.0922725240748927,44.112749433770674,61.694202772517095,16
634,11504.0,-1.084533929824829,-0.38124752044677734,-2.94106388092041,-2.8745574951171875,3.4091339111328125,6.11572265625,-14.204170680985237,32.119592949388604,78.86212913815426,16
635,11522.0,-0.12496376037597656,-0.9431214332580566,-1.9422531127929688,-2.8745574951171875,3.4091339111328125,6.11572265625,-21.89332444101879,29.25812617774678,93.47370694275243,16
