,ms,accelX,accelY,accelZ,accelWithGX,accelWithGY,accelWithGZ,rotRateAlpha,rotRateBeta,rotRateGamma,interval
0,154.0,-0.5,-0.5,0.2,0.7000000000000001,2.0,8.700000000000001,-30.3,-4.1,0.7,16
1,171.0,-0.9,-0.6000000000000001,0.1,0.2,1.7000000000000002,8.6,-34.0,3.9,5.2,16
2,188.0,-1.1,-0.7000000000000001,-0.1,-0.1,1.6,8.4,-36.1,7.8,7.300000000000001,16
3,204.0,-1.7000000000000002,-0.8,-0.4,-0.9,1.2000000000000002,8.200000000000001,-44.5,18.1,14.900000000000002,16
4,221.0,-1.8,-0.8,-0.2,-1.3,1.0,8.4,-51.70000000000001,20.2,26.000000000000004,16
5,238.0,-1.8,-0.8,-0.30000000000000004,-1.5,0.8,8.200000000000001,-53.599999999999994,19.0,31.2,16
6,254.0,-2.1,-0.9,-0.9,-1.9000000000000001,0.5,7.6000000000000005,-58.3,21.200000000000003,43.4,16
7,271.0,-1.7000000000000002,-0.8,-0.7000000000000001,-1.8,0.30000000000000004,7.7,-67.8,24.1,60.300000000000004,16
8,288.0,-1.3,-0.8,-0.4,-1.5,0.2,8.0,-72.60000000000001,23.2,68.7,16
9,304.0,-0.2,-0.7000000000000001,0.30000000000000004,-0.5,0.0,8.700000000000001,-78.9,33.1,80.30000000000001,16
10,321.0,0.1,-0.30000000000000004,1.0,-0.30000000000000004,0.1,9.600000000000001,-78.10000000000001,35.4,86.2,16
11,338.0,0.30000000000000004,-0.2,1.3,-0.2,0.0,9.9,-76.0,48.2,93.4,16
12,354.0,0.4,0.2,1.3,-0.2,0.30000000000000004,10.0,-75.8,55.5,99.9,16
13,371.0,1.3,-0.30000000000000004,1.9000000000000001,0.6000000000000001,-0.4,10.700000000000001,-78.5,56.2,107.9,16
14,388.0,1.5,0.1,2.7,0.8,-0.2,11.5,-80.2,54.800000000000004,108.90000000000002,16
15,404.0,1.6,0.4,3.1,0.9,0.0,12.100000000000001,-78.7,52.7,109.30000000000001,16
16,421.0,2.2,0.4,3.0,1.4000000000000001,-0.2,12.100000000000001,-68.3,46.9,107.9,16
17,438.0,2.7,0.1,3.1,1.8,-0.6000000000000001,12.4,-60.300000000000004,45.8,97.50000000000001,16
18,454.0,2.7,0.2,3.3000000000000003,1.8,-0.6000000000000001,12.700000000000001,-55.60000000000001,42.1,89.30000000000001,16
19,471.0,2.3000000000000003,0.5,3.3000000000000003,1.4000000000000001,-0.4,12.700000000000001,-41.199999999999996,27.3,73.2,16
20,488.0,2.6,0.5,2.7,1.7000000000000002,-0.5,12.3,-26.000000000000004,19.700000000000003,63.900000000000006,16
21,504.0,3.6,0.30000000000000004,2.8000000000000003,2.1,-1.0,12.4,-23.6,32.400000000000006,61.599999999999994,16
22,521.0,2.1,0.9,2.7,1.2000000000000002,-0.1,12.5,-18.900000000000002,45.9,39.300000000000004,16
23,538.0,1.9000000000000001,0.30000000000000004,2.3000000000000003,1.0,-0.7000000000000001,12.200000000000001,-0.9000000000000001,28.400000000000002,38.1,16
24,554.0,2.1,0.2,1.5,1.2000000000000002,-0.8,11.4,5.2,7.699999999999999,30.4,16
25,571.0,2.2,0.2,1.5,1.3,-0.8,11.4,4.2,-3.1,26.000000000000004,16
26,588.0,1.7000000000000002,0.5,1.9000000000000001,0.9,-0.4,11.9,8.600000000000001,-14.600000000000001,17.300000000000004,16
27,604.0,1.5,0.2,1.6,0.8,-0.7000000000000001,11.700000000000001,20.1,-24.3,12.0,16
28,621.0,1.2000000000000002,0.1,1.3,0.7000000000000001,-0.7000000000000001,11.4,25.7,-26.1,10.0,16
29,639.0,1.1,0.0,0.7000000000000001,0.6000000000000001,-0.7000000000000001,10.8,33.800000000000004,-24.8,7.8,16
30,654.0,1.2000000000000002,-0.1,0.1,0.8,-0.6000000000000001,10.3,37.6,-22.2,4.0,16
31,671.0,1.1,0.0,-0.2,0.8,-0.5,10.0,37.50000000000001,-22.4,0.6000000000000001,16
32,688.0,0.9,-0.2,-0.8,0.7000000000000001,-0.5,9.4,33.800000000000004,-18.8,-6.600000000000001,16
33,704.0,0.4,-0.30000000000000004,-1.3,0.2,-0.5,8.8,27.400000000000002,-7.500000000000001,-9.899999999999999,16
34,721.0,0.0,-0.30000000000000004,-1.5,-0.1,-0.5,8.6,18.200000000000003,4.1,-8.3,16
35,738.0,-0.2,-0.30000000000000004,-1.3,-0.30000000000000004,-0.5,8.700000000000001,14.100000000000001,7.200000000000001,-7.400000000000001,16
36,754.0,-0.5,-0.4,-1.1,-0.7000000000000001,-0.5,8.9,8.8,6.8,-2.9,16
37,771.0,-0.6000000000000001,-0.4,-1.2000000000000002,-0.9,-0.6000000000000001,8.700000000000001,4.4,4.1,4.1,16
38,788.0,-0.6000000000000001,-0.4,-1.5,-0.8,-0.6000000000000001,8.5,-0.1,4.0,8.0,16
39,804.0,-0.5,-0.4,-1.3,-0.8,-0.6000000000000001,8.6,-11.3,5.9,14.300000000000002,16
40,821.0,-0.4,-0.4,-0.8,-0.7000000000000001,-0.7000000000000001,9.1,-22.3,3.3000000000000007,16.5,16
41,838.0,-0.5,-0.5,-0.2,-0.9,-0.8,9.700000000000001,-27.0,2.2,16.0,16
42,854.0,-0.7000000000000001,-0.30000000000000004,0.1,-1.0,-0.8,10.0,-30.9,16.1,20.3,16
43,871.0,0.2,0.2,1.6,-0.30000000000000004,-0.30000000000000004,11.600000000000001,-38.50000000000001,38.7,26.799999999999997,16
44,888.0,0.2,0.30000000000000004,2.3000000000000003,-0.30000000000000004,-0.2,12.700000000000001,-35.4,39.50000000000001,26.300000000000004,16
45,904.0,0.5,0.5,2.5,-0.1,-0.2,12.5,-13.399999999999999,25.8,20.7,16
46,922.0,0.9,0.6000000000000001,1.7000000000000002,0.2,-0.1,11.700000000000001,9.2,16.6,17.300000000000004,16
47,938.0,0.8,0.8,0.5,0.1,0.2,10.5,22.9,7.8,13.200000000000003,16
48,954.0,0.8,0.7000000000000001,-0.1,0.1,0.2,10.0,25.1,3.1,11.4,16
49,971.0,0.8,0.7000000000000001,-0.6000000000000001,0.1,0.30000000000000004,9.4,23.700000000000003,-7.8,7.699999999999999,16
50,988.0,1.2000000000000002,0.5,-1.0,0.6000000000000001,0.1,9.1,18.5,-21.500000000000004,4.7,16
51,1004.0,1.2000000000000002,0.5,-1.2000000000000002,0.7000000000000001,0.2,8.8,8.600000000000001,-19.400000000000002,-0.1,16
52,1022.0,1.1,0.30000000000000004,0.1,0.6000000000000001,0.0,10.100000000000001,-8.899999999999999,-14.0,-5.6,16
53,1038.0,1.1,0.30000000000000004,1.1,0.7000000000000001,0.0,11.100000000000001,1.3,-19.1,-16.6,16
54,1054.0,0.9,0.2,1.0,0.5,-0.1,11.0,9.3,-24.0,-22.5,16
55,1071.0,0.9,0.0,1.1,0.7000000000000001,-0.30000000000000004,11.100000000000001,20.400000000000002,-33.2,-25.7,16
56,1088.0,0.8,0.1,1.6,0.8,0.0,11.700000000000001,32.0,-44.8,-30.9,16
57,1104.0,0.9,0.30000000000000004,2.2,1.5,0.4,12.5,58.0,-86.8,-34.1,16
58,1123.0,1.6,0.2,1.7000000000000002,2.0,0.4,11.8,73.10000000000001,-112.1,-40.9,16
59,1138.0,1.2000000000000002,-0.1,0.2,2.1,0.4,10.3,83.70000000000002,-128.70000000000002,-57.60000000000001,16
60,1154.0,0.7000000000000001,-0.30000000000000004,-1.1,2.0,0.5,8.9,77.60000000000001,-105.7,-63.4,16
61,1171.0,0.5,-0.4,-1.8,1.9000000000000001,0.5,8.200000000000001,68.1,-83.4,-62.199999999999996,16
62,1188.0,0.0,0.4,-2.3000000000000003,1.6,1.4000000000000001,7.6000000000000005,29.300000000000004,-50.1,-56.400000000000006,16
63,1204.0,0.2,-0.1,-1.2000000000000002,1.8,1.1,8.700000000000001,2.6,-5.9,-49.199999999999996,16
64,1223.0,0.5,-0.1,-0.1,2.1,1.0,9.8,-7.1000000000000005,12.0,-45.099999999999994,16
65,1238.0,0.6000000000000001,0.0,0.30000000000000004,2.2,1.2000000000000002,10.200000000000001,-6.500000000000001,14.0,-45.9,16
66,1254.0,0.6000000000000001,0.0,0.5,2.1,1.2000000000000002,10.5,1.6,11.6,-48.6,16
67,1271.0,0.4,0.1,0.4,1.9000000000000001,1.3,10.4,6.9,8.5,-49.50000000000001,16
68,1288.0,0.4,0.1,-0.1,1.9000000000000001,1.3,9.8,13.900000000000002,-0.30000000000000004,-49.800000000000004,16
69,1304.0,0.6000000000000001,0.1,-0.6000000000000001,2.1,1.5,9.3,13.5,-4.6,-50.400000000000006,16
70,1322.0,0.8,0.0,-0.5,2.3000000000000003,1.4000000000000001,9.4,7.8,-7.6,-52.2,16
71,1338.0,0.9,0.0,-0.4,2.4000000000000004,1.4000000000000001,9.5,5.8,-8.0,-53.8,16
72,1354.0,1.0,-0.1,-0.1,2.5,1.4000000000000001,9.8,4.6,-8.4,-59.20000000000001,16
73,1371.0,0.8,-0.1,-0.2,2.3000000000000003,1.4000000000000001,9.600000000000001,5.6,-7.500000000000001,-64.4,16
74,1388.0,0.6000000000000001,-0.2,-0.30000000000000004,2.1,1.4000000000000001,9.600000000000001,5.2,-7.1000000000000005,-66.1,16
75,1404.0,0.1,-0.2,-0.30000000000000004,1.6,1.4000000000000001,9.5,3.6000000000000005,-7.200000000000001,-67.9,16
76,1423.0,-0.2,-0.2,-0.30000000000000004,1.3,1.4000000000000001,9.5,2.8,-9.5,-67.00000000000001,16
77,1438.0,-0.30000000000000004,-0.2,-0.2,1.2000000000000002,1.4000000000000001,9.600000000000001,3.1,-11.5,-66.3,16
78,1454.0,-0.4,-0.2,-0.1,1.1,1.5,9.700000000000001,7.0,-15.899999999999999,-64.9,16
79,1471.0,-0.6000000000000001,-0.2,-0.30000000000000004,0.9,1.5,9.5,13.200000000000003,-20.0,-62.199999999999996,16
80,1488.0,-0.6000000000000001,-0.2,-0.4,0.9,1.7000000000000002,9.3,15.2,-21.400000000000002,-60.300000000000004,16
81,1504.0,-0.5,-0.1,-0.5,1.0,1.8,9.3,14.700000000000001,-24.599999999999998,-56.6,16
82,1523.0,-0.5,-0.1,-0.2,1.1,1.9000000000000001,9.5,12.0,-26.200000000000003,-55.900000000000006,16
83,1538.0,-0.6000000000000001,-0.1,0.1,1.0,1.9000000000000001,9.8,11.700000000000001,-27.099999999999998,-54.699999999999996,16
84,1554.0,-0.7000000000000001,-0.2,0.1,1.0,1.9000000000000001,9.8,12.7,-26.300000000000004,-53.2,16
85,1571.0,-0.8,-0.1,-0.2,0.9,2.0,9.4,15.100000000000001,-20.7,-49.1,16
86,1588.0,-1.0,0.0,-0.8,0.7000000000000001,2.2,8.9,14.300000000000002,-14.100000000000001,-43.70000000000001,16
87,1604.0,-1.0,0.0,-1.1,0.7000000000000001,2.3000000000000003,8.6,12.7,-11.4,-41.0,16
88,1621.0,-1.4000000000000001,0.2,-1.4000000000000001,0.30000000000000004,2.5,8.200000000000001,8.899999999999999,-7.300000000000001,-35.4,16
89,1638.0,-1.8,0.4,-1.3,-0.1,2.7,8.200000000000001,1.3,-10.0,-28.200000000000003,16
90,1654.0,-1.8,0.4,-1.1,-0.1,2.8000000000000003,8.5,-1.7,-10.299999999999999,-23.3,16
91,1671.0,-1.6,0.6000000000000001,-0.8,0.1,2.9000000000000004,8.8,-4.1,-6.1000000000000005,-13.399999999999999,16
92,1688.0,-1.4000000000000001,0.6000000000000001,-0.6000000000000001,0.2,3.0,8.9,-3.4,4.4,-7.200000000000001,16
93,1704.0,-1.5,0.7000000000000001,-0.5,0.0,3.0,9.1,-4.7,15.2,-1.1,16
94,1721.0,-1.5,0.6000000000000001,-0.2,0.0,3.0,9.3,-5.6,19.200000000000003,2.8,16
95,1738.0,-1.4000000000000001,0.6000000000000001,0.2,0.1,2.9000000000000004,9.8,-3.4,21.500000000000004,10.9,16
96,1754.0,-1.2000000000000002,0.4,0.4,0.2,2.7,10.0,3.0,18.6,19.1,16
97,1771.0,-1.1,0.30000000000000004,0.5,0.30000000000000004,2.6,10.100000000000001,6.1000000000000005,16.700000000000003,23.2,16
98,1788.0,-0.4,0.1,0.6000000000000001,0.9,2.5,10.200000000000001,12.4,13.100000000000001,29.1,16
99,1804.0,0.0,0.0,0.6000000000000001,1.3,2.4000000000000004,10.100000000000001,16.8,14.800000000000002,29.500000000000004,16
100,1821.0,0.0,-0.1,0.5,1.3,2.4000000000000004,10.100000000000001,18.5,17.0,29.300000000000004,16
101,1838.0,0.0,-0.2,0.1,1.3,2.2,9.700000000000001,17.6,20.900000000000002,31.6,16
102,1854.0,0.2,-0.30000000000000004,0.0,1.5,2.2,9.5,11.1,21.7,32.9,16
103,1871.0,0.2,-0.30000000000000004,0.1,1.4000000000000001,2.1,9.9,6.4,20.5,32.6,16
104,1888.0,0.2,-0.4,0.7000000000000001,1.4000000000000001,2.1,10.3,-1.6,17.5,31.2,16
105,1904.0,0.2,-0.4,1.2000000000000002,1.4000000000000001,2.0,10.8,-3.3000000000000007,19.200000000000003,29.900000000000006,16
106,1921.0,-0.2,-0.5,1.3,0.9,1.9000000000000001,11.0,1.3,25.5,28.200000000000003,16
107,1938.0,-0.5,-0.6000000000000001,1.2000000000000002,0.6000000000000001,1.9000000000000001,10.8,4.800000000000001,28.500000000000004,28.400000000000002,16
108,1954.0,-0.7000000000000001,-0.6000000000000001,0.6000000000000001,0.30000000000000004,1.9000000000000001,10.3,11.700000000000001,31.7,32.0,16
109,1971.0,-2.6,-1.2000000000000002,-6.300000000000001,-1.8,1.2000000000000002,3.3000000000000003,-2.9,42.0,41.50000000000001,16
110,1988.0,0.1,-0.7000000000000001,-0.5,0.9,1.6,9.200000000000001,-36.5,50.900000000000006,49.4,16
111,2004.0,1.0,-0.7000000000000001,1.5,1.7000000000000002,1.5,11.200000000000001,-10.299999999999999,24.599999999999998,26.1,16
112,2021.0,0.30000000000000004,-0.8,0.1,0.9,1.5,9.8,10.700000000000001,20.599999999999998,13.399999999999999,16
113,2038.0,0.6000000000000001,-0.8,-1.0,1.2000000000000002,1.5,8.700000000000001,12.200000000000001,22.1,11.6,16
114,2054.0,0.30000000000000004,-0.6000000000000001,-2.8000000000000003,0.9,1.7000000000000002,6.9,-1.9,40.300000000000004,8.100000000000001,16
115,2071.0,0.1,-0.7000000000000001,0.2,0.5,1.5,9.8,-14.900000000000002,52.5,9.100000000000001,16
116,2088.0,-0.4,-0.9,1.0,-0.1,1.3,10.700000000000001,-6.699999999999999,51.2,8.8,16
117,2104.0,-1.0,-0.9,1.1,-0.8,1.4000000000000001,10.9,13.8,32.2,12.100000000000001,16
118,2121.0,-0.9,-0.5,1.2000000000000002,-0.8,1.8,10.9,29.0,7.500000000000001,17.300000000000004,16
119,2138.0,-0.8,-0.6000000000000001,-0.5,-0.6000000000000001,1.9000000000000001,9.1,31.099999999999998,-23.3,17.799999999999997,16
120,2154.0,-0.7000000000000001,-0.5,-0.8,-0.4,2.0,8.8,26.000000000000004,-30.1,19.300000000000004,16
121,2171.0,-0.1,-0.5,0.0,0.2,2.0,9.600000000000001,17.7,-27.0,21.6,16
122,2188.0,0.8,-0.30000000000000004,0.30000000000000004,1.2000000000000002,2.2,9.9,19.300000000000004,-7.699999999999999,15.2,16
123,2204.0,1.1,-0.2,-0.30000000000000004,1.5,2.5,9.3,18.200000000000003,-3.0,9.4,16
124,2221.0,-1.1,-0.4,-1.7000000000000002,-0.7000000000000001,2.2,7.9,8.8,-10.8,-1.3,16
125,2242.0,-1.1,-1.1,-0.9,-0.6000000000000001,1.5,8.6,-6.8,-16.8,14.100000000000001,16
126,2254.0,-0.5,-0.7000000000000001,-0.30000000000000004,0.1,1.9000000000000001,9.200000000000001,-8.100000000000001,-16.900000000000002,12.5,16
127,2271.0,0.4,-0.9,0.4,1.0,1.7000000000000002,9.9,-0.9000000000000001,-10.5,10.8,16
128,2288.0,1.2000000000000002,-0.1,0.5,1.8,2.5,10.0,1.7,1.8000000000000003,-1.7,16
129,2305.0,0.8,-0.1,0.5,0.9,2.3000000000000003,10.100000000000001,-0.30000000000000004,3.3000000000000007,-7.400000000000001,16
130,2321.0,-0.1,-0.30000000000000004,0.4,0.4,2.3000000000000003,10.0,-6.300000000000001,1.0,-9.4,16
131,2338.0,-0.2,-0.30000000000000004,0.2,0.4,2.2,9.8,-12.5,-8.8,-3.9,16
132,2354.0,1.0,-0.5,0.5,1.6,2.0,10.100000000000001,-12.4,-8.899999999999999,-2.6,16
133,2371.0,0.9,-0.30000000000000004,0.9,1.5,2.1,10.5,-9.8,-9.2,-5.0,16
134,2388.0,0.1,0.0,0.6000000000000001,0.8,2.4000000000000004,10.200000000000001,-2.6,-13.200000000000003,-9.2,16
135,2404.0,-0.2,-0.30000000000000004,1.0,0.5,2.2,10.600000000000001,8.899999999999999,7.500000000000001,-1.9,16
136,2421.0,-1.4000000000000001,0.1,-0.2,-0.7000000000000001,2.6,9.4,4.7,11.4,3.5,16
137,2438.0,-0.5,-0.30000000000000004,-0.1,0.1,2.2,9.5,-10.299999999999999,14.900000000000002,9.2,16
138,2454.0,0.0,-0.30000000000000004,0.2,0.6000000000000001,2.1,9.9,-12.200000000000001,11.900000000000002,4.5,16
139,2471.0,0.1,-0.4,0.30000000000000004,0.7000000000000001,2.0,9.9,-7.400000000000001,15.100000000000001,2.7,16
140,2488.0,0.0,-0.2,-0.2,0.5,2.2,9.5,-3.0,16.0,-0.8,16
141,2504.0,0.0,-0.30000000000000004,-0.2,0.5,2.1,9.4,-3.7000000000000006,8.2,-5.6,16
142,2521.0,-0.1,-0.30000000000000004,-0.2,0.0,2.0,9.600000000000001,-4.2,4.5,-7.500000000000001,16
143,2538.0,-0.30000000000000004,-0.30000000000000004,-0.1,0.1,2.0,9.600000000000001,-2.6,3.3000000000000007,-5.6,16
144,2555.0,-0.30000000000000004,-0.1,0.0,0.1,2.3000000000000003,9.600000000000001,-2.7,10.9,0.9000000000000001,16
145,2571.0,0.1,0.1,0.4,0.9,2.8000000000000003,9.8,-2.3,10.299999999999999,5.1000000000000005,16
146,2588.0,0.5,0.7000000000000001,-0.6000000000000001,0.8,3.0,9.0,-2.9,12.4,3.0,16
147,2604.0,0.0,0.5,-0.9,0.4,2.8000000000000003,8.8,-15.8,9.700000000000001,2.0,16
148,2621.0,-0.4,1.0,-0.30000000000000004,-0.1,3.3000000000000003,9.4,-20.5,-10.1,-4.0,16
149,2638.0,-0.6000000000000001,0.8,0.1,-0.2,3.1,9.700000000000001,-18.700000000000003,-21.500000000000004,-3.7000000000000006,16
150,2654.0,0.7000000000000001,-0.6000000000000001,2.2,1.2000000000000002,1.6,11.9,-2.8,-33.50000000000001,-8.100000000000001,16
151,2672.0,0.30000000000000004,-0.5,0.8,0.8,1.8,10.5,25.5,-22.3,-11.1,16
152,2688.0,0.5,-0.30000000000000004,0.1,0.9,2.0,9.600000000000001,26.5,-15.000000000000002,-10.299999999999999,16
153,2705.0,0.0,-0.4,-0.5,0.6000000000000001,1.9000000000000001,9.200000000000001,20.3,-1.6,-7.8,16
154,2722.0,0.2,-0.8,-0.2,0.7000000000000001,1.6,9.4,12.100000000000001,4.1,-2.5,16
155,2738.0,-0.7000000000000001,0.30000000000000004,-0.8,-0.1,2.7,8.8,10.1,-3.9,1.4,16
156,2754.0,-0.9,0.30000000000000004,-1.4000000000000001,-0.30000000000000004,2.8000000000000003,8.200000000000001,6.4,-12.0,3.6000000000000005,16
157,2771.0,-0.8,-0.30000000000000004,-0.8,-0.2,2.1,8.8,-1.2000000000000002,-25.300000000000004,5.300000000000001,16
158,2788.0,0.2,-0.30000000000000004,-0.1,0.9,2.1,9.5,0.0,-17.7,5.1000000000000005,16
159,2804.0,0.2,-0.4,0.1,1.0,2.1,9.700000000000001,-0.8,-14.100000000000001,3.5,16
160,2821.0,-0.1,0.1,0.1,0.7000000000000001,2.5,9.8,1.2000000000000002,-10.600000000000001,1.7,16
161,2838.0,0.2,-0.1,0.2,1.0,2.3000000000000003,9.8,2.2,-8.4,0.6000000000000001,16
162,2854.0,0.2,-0.2,0.1,1.1,2.3000000000000003,9.700000000000001,2.2,-6.699999999999999,-1.1,16
163,2871.0,0.0,-0.1,-0.1,0.8,2.3000000000000003,9.5,0.2,-2.0,-3.1,16
164,2888.0,0.1,-0.1,0.1,0.9,2.3000000000000003,9.700000000000001,-1.1,1.0,-3.7000000000000006,16
165,2904.0,0.0,-0.2,-0.30000000000000004,0.8,2.2,9.3,-2.1,2.7,0.4,16
166,2921.0,0.0,-0.30000000000000004,-0.1,0.8,2.1,9.5,-2.6,5.500000000000001,2.4000000000000004,16
167,2938.0,0.1,-0.4,0.2,0.9,2.0,9.8,-1.4,7.1000000000000005,4.4,16
168,2954.0,0.0,-0.30000000000000004,-0.1,0.8,2.1,9.5,0.8,5.6,4.9,16
169,2971.0,0.0,-0.2,-0.1,0.8,2.2,9.5,-0.30000000000000004,4.7,5.2,16
170,2988.0,0.0,-0.2,0.2,0.8,2.2,9.8,-1.8000000000000003,4.2,3.8,16
171,3004.0,-0.1,-0.1,-0.1,0.7000000000000001,2.3000000000000003,9.600000000000001,-0.6000000000000001,6.500000000000001,4.1,16
172,3021.0,0.0,0.0,-0.1,0.8,2.4000000000000004,9.5,-1.3,7.500000000000001,4.9,16
173,3038.0,0.2,0.1,0.1,1.0,2.5,9.700000000000001,-2.4000000000000004,7.1000000000000005,4.2,16
174,3054.0,0.4,0.1,0.4,1.1,2.5,10.0,-2.2,4.7,2.3,16
175,3072.0,0.4,0.2,0.5,1.1,2.6,10.100000000000001,0.8,2.8,0.6000000000000001,16
176,3089.0,0.4,0.30000000000000004,0.2,1.1,2.7,9.9,2.5,2.1,-0.1,16
177,3104.0,0.30000000000000004,0.30000000000000004,-0.1,1.0,2.7,9.5,1.4,1.7,0.0,16
178,3121.0,0.4,0.2,0.2,1.1,2.6,9.9,0.1,0.2,-0.9000000000000001,16
179,3138.0,0.30000000000000004,0.4,0.1,1.0,2.8000000000000003,9.700000000000001,0.5,0.0,-1.1,16
180,3154.0,0.30000000000000004,0.2,0.2,1.0,2.6,9.9,0.5,-0.1,-0.5,16
181,3171.0,0.30000000000000004,0.2,0.1,1.0,2.6,9.8,1.4,-0.6000000000000001,-0.6000000000000001,16
182,3188.0,0.1,0.2,-0.2,0.8,2.6,9.5,1.5,-1.7,-0.1,16
183,3204.0,0.0,0.1,-0.2,0.7000000000000001,2.5,9.5,0.8,-0.9000000000000001,2.4000000000000004,16
184,3221.0,0.1,0.0,-0.2,0.8,2.4000000000000004,9.4,0.8,-2.2,2.8,16
185,3238.0,0.1,-0.1,-0.1,0.9,2.3000000000000003,9.5,0.8,-3.5,2.4000000000000004,16
186,3254.0,0.0,-0.1,-0.2,0.8,2.3000000000000003,9.5,1.3,-7.8,0.30000000000000004,16
187,3271.0,0.0,-0.1,-0.30000000000000004,0.7000000000000001,2.4000000000000004,9.3,1.2000000000000002,-6.2,0.2,16
188,3288.0,-0.1,-0.1,-0.30000000000000004,0.7000000000000001,2.3000000000000003,9.3,0.6000000000000001,-5.4,0.0,16
189,3304.0,0.1,-0.1,-0.1,0.9,2.3000000000000003,9.5,0.8,-5.8,-1.0,16
190,3321.0,0.0,-0.1,0.0,0.9,2.3000000000000003,9.600000000000001,1.8000000000000003,-8.100000000000001,-1.2000000000000002,16
191,3338.0,0.0,-0.1,-0.1,0.8,2.4000000000000004,9.4,3.0,-8.600000000000001,-1.4,16
192,3354.0,0.0,-0.1,-0.2,0.8,2.3000000000000003,9.4,3.5,-9.4,-0.5,16
193,3372.0,-0.1,-0.1,-0.2,0.8,2.3000000000000003,9.4,3.3000000000000007,-9.100000000000001,-0.30000000000000004,16
194,3388.0,0.0,-0.1,-0.1,1.0,2.4000000000000004,9.5,3.0,-7.8,-0.5,16
195,3405.0,0.1,-0.1,0.0,1.1,2.3000000000000003,9.600000000000001,1.0,-6.600000000000001,-1.6,16
196,3421.0,0.1,0.0,0.0,1.0,2.4000000000000004,9.5,0.30000000000000004,-6.9,-2.5,16
197,3438.0,0.0,0.0,-0.2,1.0,2.5,9.3,-0.2,-10.600000000000001,-4.4,16
198,3455.0,-0.1,-0.1,-0.1,0.9,2.4000000000000004,9.4,-1.1,-10.600000000000001,-4.0,16
199,3471.0,0.0,0.0,0.0,1.0,2.4000000000000004,9.600000000000001,-1.8000000000000003,-7.8,-4.0,16
200,3488.0,-0.1,0.1,-0.30000000000000004,1.0,2.5,9.200000000000001,-4.2,-5.300000000000001,-4.300000000000001,16
201,3504.0,0.1,0.0,0.0,1.2000000000000002,2.4000000000000004,9.5,-5.9,-1.5,-6.699999999999999,16
202,3521.0,0.1,0.0,0.30000000000000004,1.2000000000000002,2.4000000000000004,9.8,-6.0,1.6,-6.699999999999999,16
203,3538.0,-0.1,-0.4,1.0,1.0,2.0,10.5,-3.0,4.4,-4.4,16
204,3554.0,-1.0,0.2,0.4,0.0,2.6,9.9,3.5,2.7,-1.2000000000000002,16
205,3571.0,-0.8,0.30000000000000004,0.6000000000000001,0.2,2.7,10.200000000000001,4.6,-0.8,4.300000000000001,16
206,3588.0,-0.2,-0.30000000000000004,0.5,0.8,2.1,10.100000000000001,12.8,-10.1,8.8,16
207,3604.0,0.4,0.1,-0.9,1.5,2.6,8.700000000000001,13.8,-12.4,9.700000000000001,16
208,3621.0,0.5,0.1,-0.9,1.6,2.6,8.6,9.5,-12.8,7.8,16
209,3638.0,0.6000000000000001,0.2,-0.2,1.8,2.7,9.3,4.4,-15.000000000000002,2.6,16
210,3654.0,0.6000000000000001,0.1,0.7000000000000001,1.8,2.6,10.200000000000001,8.2,-23.400000000000002,-3.2,16
211,3671.0,0.30000000000000004,0.2,0.7000000000000001,1.6,2.7,10.100000000000001,13.6,-29.1,-6.1000000000000005,16
212,3688.0,-0.2,0.1,-1.0,1.2000000000000002,2.7,8.4,17.200000000000003,-34.0,-7.699999999999999,16
213,3705.0,0.2,0.0,-0.6000000000000001,1.7000000000000002,2.7,8.8,6.300000000000001,-24.900000000000002,-5.1000000000000005,16
214,3721.0,0.0,0.0,-0.30000000000000004,1.6,2.6,9.1,2.9,-20.7,-5.6,16
215,3738.0,-0.1,-0.30000000000000004,-0.2,1.5,2.4000000000000004,9.200000000000001,2.2,-20.400000000000002,-5.2,16
216,3754.0,-0.5,-0.2,-0.4,1.1,2.5,9.0,0.30000000000000004,-17.799999999999997,-8.4,16
217,3771.0,-0.7000000000000001,0.0,-1.0,1.0,2.6,8.4,-5.300000000000001,-12.8,-2.7,16
218,3788.0,0.1,0.0,-1.0,1.8,2.6,8.3,-9.899999999999999,-10.299999999999999,2.8,16
219,3804.0,0.4,0.0,0.1,2.1,2.6,9.5,-15.399999999999999,-16.200000000000003,2.4000000000000004,16
220,3821.0,0.4,0.30000000000000004,0.30000000000000004,2.3000000000000003,2.8000000000000003,9.700000000000001,0.2,-40.6,-4.2,16
221,3838.0,0.4,0.30000000000000004,-0.9,2.3000000000000003,2.9000000000000004,8.5,9.5,-42.60000000000001,-6.300000000000001,16
222,3854.0,-0.8,-0.30000000000000004,-1.8,1.2000000000000002,2.4000000000000004,7.5,2.0,-21.200000000000003,-6.500000000000001,16
223,3872.0,-0.2,-0.4,0.2,1.8,2.1,9.5,-16.0,-8.600000000000001,-0.1,16
224,3888.0,-0.30000000000000004,-0.2,0.30000000000000004,2.0,2.5,9.4,-17.300000000000004,-5.9,1.2000000000000002,16
225,3904.0,0.1,0.2,-0.1,2.1,2.7,9.200000000000001,-20.8,-4.5,3.3000000000000007,16
226,3921.0,0.30000000000000004,0.5,0.5,2.4000000000000004,2.9000000000000004,9.8,-28.600000000000005,-0.4,6.4,16
227,3938.0,0.1,0.4,0.6000000000000001,2.1,2.7,10.0,-28.700000000000003,-9.3,5.4,16
228,3954.0,-0.1,0.2,0.6000000000000001,2.0,2.4000000000000004,10.0,-24.400000000000002,-15.399999999999999,7.699999999999999,16
229,3971.0,-0.2,-0.1,-0.30000000000000004,2.0,2.1,9.1,-16.4,-20.1,15.8,16
230,3988.0,1.1,1.3,-1.8,3.3000000000000003,3.5,7.6000000000000005,-25.200000000000003,3.6000000000000005,13.000000000000002,16
231,4005.0,-0.1,0.4,-0.2,2.1,2.5,9.200000000000001,-31.9,13.6,10.5,16
232,4021.0,-0.6000000000000001,0.2,-0.4,1.6,2.2,9.0,-25.5,9.3,19.700000000000003,16
233,4038.0,0.8,0.2,1.2000000000000002,3.0,2.1,10.700000000000001,-22.6,-15.2,15.299999999999999,16
234,4055.0,0.4,0.4,1.3,2.7,2.2,10.700000000000001,-16.1,-24.200000000000003,9.899999999999999,16
235,4071.0,0.2,0.1,1.8,2.6,1.9000000000000001,11.200000000000001,-2.5,-31.2,4.9,16
236,4087.0,0.0,-0.5,0.9,2.4000000000000004,1.3,10.3,12.5,-24.1,2.5,16
237,4104.0,-0.30000000000000004,-0.4,-0.9,2.2,1.5,8.5,8.600000000000001,-5.500000000000001,5.8,16
238,4121.0,-0.4,-0.4,-0.7000000000000001,2.1,1.5,8.6,2.8,4.1,9.899999999999999,16
239,4138.0,0.1,0.0,-1.2000000000000002,2.5,1.9000000000000001,8.1,-7.0,13.3,14.600000000000001,16
240,4154.0,0.0,0.30000000000000004,-0.9,2.4000000000000004,2.1,8.5,-16.4,12.200000000000001,13.8,16
241,4171.0,0.2,0.0,0.1,2.6,1.8,9.5,-18.3,9.2,13.3,16
242,4188.0,0.0,0.4,0.8,2.4000000000000004,2.1,10.200000000000001,-13.200000000000003,1.9,15.399999999999999,16
243,4204.0,-0.7000000000000001,0.1,1.0,1.7000000000000002,1.7000000000000002,10.4,-11.3,2.7,27.3,16
244,4221.0,0.9,-0.6000000000000001,1.3,3.3000000000000003,1.0,10.700000000000001,-9.4,-7.200000000000001,30.200000000000003,16
245,4238.0,2.1,0.6000000000000001,0.9,4.7,2.2,10.3,0.30000000000000004,-32.7,7.0,16
246,4254.0,-0.4,-0.6000000000000001,0.0,2.2,1.1,9.4,15.2,-33.2,-13.399999999999999,16
247,4273.0,-2.2,-0.9,-1.4000000000000001,0.5,0.8,8.0,7.400000000000001,-12.8,-2.0,16
248,4287.0,-1.8,-1.1,-1.4000000000000001,0.8,0.6000000000000001,7.9,-2.0,-0.6000000000000001,9.899999999999999,16
249,4304.0,-0.5,0.30000000000000004,-1.3,2.1,1.9000000000000001,8.1,-16.0,25.1,24.3,16
250,4321.0,1.8,-0.30000000000000004,-0.7000000000000001,4.3,1.2000000000000002,8.700000000000001,-27.2,29.900000000000006,13.700000000000001,16
251,4338.0,1.8,0.1,-1.7000000000000002,4.3,1.6,7.7,-30.3,50.0,4.5,16
252,4354.0,0.9,0.30000000000000004,-0.7000000000000001,3.2,1.6,8.8,-56.10000000000001,87.50000000000001,-1.7,16
253,4371.0,1.1,0.9,1.5,3.1,2.1,11.100000000000001,-52.80000000000001,73.0,-1.1,16
254,4387.0,1.9000000000000001,1.0,1.4000000000000001,3.8000000000000003,2.1,11.0,-41.800000000000004,61.0,-3.7000000000000006,16
255,4404.0,1.4000000000000001,0.5,0.9,3.1,1.5,10.5,-25.7,62.50000000000001,-22.1,16
256,4421.0,-1.0,-0.2,-0.1,0.5,0.7000000000000001,9.600000000000001,-19.1,65.4,-29.400000000000002,16
257,4438.0,-1.5,-0.4,-0.1,-0.2,0.5,9.600000000000001,-21.400000000000002,57.1,-24.1,16
258,4454.0,-0.9,-0.6000000000000001,1.8,0.30000000000000004,0.2,11.5,-27.0,36.7,-13.8,16
259,4471.0,-0.30000000000000004,-0.5,4.1000000000000005,0.8,0.30000000000000004,14.0,-2.3,21.7,-8.600000000000001,16
260,4488.0,-0.2,-0.30000000000000004,4.3,1.0,0.7000000000000001,13.200000000000001,23.3,8.3,-7.699999999999999,16
261,4504.0,-0.7000000000000001,-0.5,1.4000000000000001,0.4,0.6000000000000001,11.200000000000001,72.60000000000001,-13.200000000000003,-10.5,16
262,4521.0,-1.9000000000000001,-0.7000000000000001,-1.7000000000000002,-0.7000000000000001,0.6000000000000001,8.0,76.89999999999999,-21.8,-3.8,16
263,4543.0,-0.8,-0.30000000000000004,-1.7000000000000002,0.4,1.2000000000000002,8.0,52.5,-21.200000000000003,10.8,16
264,4554.0,-0.5,0.0,-0.8,0.8,1.5,8.9,40.4,-21.6,14.200000000000001,16
265,4571.0,-1.8,-0.9,0.2,-0.5,0.8,9.9,35.699999999999996,-7.300000000000001,16.5,16
266,4588.0,-1.8,-0.9,0.0,-0.5,0.9,9.600000000000001,34.900000000000006,-1.1,34.7,16
267,4605.0,-0.4,-0.4,0.5,0.9,1.4000000000000001,10.200000000000001,28.800000000000004,8.5,42.800000000000004,16
268,4621.0,1.3,0.8,2.9000000000000004,2.6,2.7,12.5,30.9,8.8,42.400000000000006,16
269,4638.0,1.3,1.1,2.3000000000000003,2.7,3.1,11.9,57.20000000000001,-21.1,29.500000000000004,16
270,4654.0,0.8,0.9,1.1,2.3000000000000003,3.1,10.8,67.4,-30.200000000000003,24.7,16
271,4671.0,-0.2,0.4,-1.0,1.3,2.8000000000000003,8.5,69.7,-28.500000000000004,23.099999999999998,16
272,4688.0,0.2,0.2,-1.5,1.9000000000000001,2.7,8.0,55.8,-13.900000000000002,26.6,16
273,4704.0,0.2,-0.1,-1.2000000000000002,1.9000000000000001,2.6,8.200000000000001,41.199999999999996,9.0,26.200000000000003,16
274,4721.0,0.1,0.0,-0.8,1.8,2.7,8.6,36.400000000000006,14.700000000000001,26.5,16
275,4738.0,0.2,0.2,-0.1,1.8,3.0,9.3,35.0,15.5,26.400000000000006,16
276,4754.0,0.9,0.4,-0.5,2.5,3.3000000000000003,8.8,38.7,10.8,22.8,16
277,4771.0,1.1,0.5,-1.0,2.7,3.5,8.3,38.50000000000001,6.1000000000000005,19.1,16
278,4788.0,0.5,0.2,-1.6,2.2,3.3000000000000003,7.7,32.300000000000004,4.4,14.0,16
279,4804.0,0.7000000000000001,-0.1,-1.2000000000000002,2.4000000000000004,3.1,8.0,20.1,9.899999999999999,13.100000000000001,16
280,4821.0,0.6000000000000001,-0.4,-0.8,2.2,2.8000000000000003,8.4,14.0,21.0,11.000000000000002,16
281,4838.0,0.0,-0.6000000000000001,-0.5,1.5,2.6,8.8,8.100000000000001,47.80000000000001,7.400000000000001,16
282,4854.0,-0.2,-0.1,1.2000000000000002,1.1,3.1,10.5,0.8,47.5,3.9,16
283,4871.0,-0.4,-0.2,1.6,0.8,3.1,10.9,6.4,34.900000000000006,1.7,16
284,4888.0,-1.5,-0.5,1.8,-0.30000000000000004,2.8000000000000003,11.100000000000001,22.4,6.699999999999999,5.8,16
285,4904.0,-1.0,-0.9,0.6000000000000001,0.2,2.5,9.9,37.300000000000004,-3.9,15.8,16
286,4924.0,-0.7000000000000001,-0.6000000000000001,-1.1,0.6000000000000001,2.9000000000000004,8.1,42.1,-6.699999999999999,19.0,16
287,4939.0,-0.7000000000000001,-1.2000000000000002,-2.1,0.6000000000000001,2.3000000000000003,7.1000000000000005,35.9,-2.3,20.8,16
288,4954.0,-0.4,-0.5,-1.1,0.9,3.1,8.0,19.9,12.299999999999999,28.500000000000004,16
289,4971.0,-0.30000000000000004,-0.4,-0.8,0.9,3.2,8.4,11.900000000000002,18.5,28.900000000000002,16
290,4988.0,-0.4,-0.2,-0.9,0.8,3.4000000000000004,8.3,10.600000000000001,17.0,30.1,16
291,5004.0,-0.7000000000000001,-0.1,0.0,0.6000000000000001,3.5,9.1,8.3,11.2,33.1,16
292,5021.0,0.2,0.0,0.4,1.5,3.7,9.5,15.100000000000001,5.500000000000001,40.7,16
293,5037.0,1.8,0.6000000000000001,0.2,3.1,4.2,9.3,19.400000000000002,-2.1,43.1,16
294,5054.0,2.4000000000000004,0.5,-0.9,3.8000000000000003,4.3,8.200000000000001,28.1,-18.8,24.3,16
295,5071.0,1.3,0.9,-2.4000000000000004,2.8000000000000003,4.7,6.6000000000000005,20.2,-14.100000000000001,16.1,16
296,5088.0,3.8000000000000003,1.2000000000000002,-0.5,5.4,5.0,8.5,7.0,-29.800000000000004,13.8,16
297,5104.0,3.9000000000000004,0.9,-0.6000000000000001,5.6000000000000005,4.7,8.3,11.5,-39.50000000000001,7.6,16
298,5121.0,1.0,0.0,-2.6,2.9000000000000004,3.9000000000000004,6.300000000000001,12.7,-34.900000000000006,-8.5,16
299,5138.0,0.0,-0.8,-2.3000000000000003,1.9000000000000001,3.1,6.6000000000000005,-14.5,-17.0,-6.699999999999999,16
300,5154.0,-0.5,-1.0,-1.4000000000000001,1.4000000000000001,2.9000000000000004,7.4,-25.5,-10.600000000000001,-5.0,16
301,5172.0,-1.6,-1.4000000000000001,0.6000000000000001,0.2,2.3000000000000003,9.5,-32.0,7.200000000000001,2.7,16
302,5188.0,-1.9000000000000001,-1.2000000000000002,1.8,-0.1,2.4000000000000004,10.8,-26.5,37.1,10.700000000000001,16
303,5207.0,-2.1,-0.8,0.8,-0.4,2.8000000000000003,9.9,-9.700000000000001,31.6,13.900000000000002,16
304,5221.0,-2.0,-0.4,0.8,-0.4,3.1,9.9,-10.600000000000001,30.699999999999996,15.8,16
305,5242.0,-2.6,-0.1,1.2000000000000002,-1.0,3.4000000000000004,10.3,-3.8,21.8,18.5,16
306,5256.0,-1.6,0.0,1.0,-0.1,3.5,10.100000000000001,1.8000000000000003,12.600000000000001,27.6,16
307,5271.0,-1.2000000000000002,0.2,1.1,0.30000000000000004,3.7,10.200000000000001,5.8,10.0,27.9,16
308,5288.0,-1.4000000000000001,0.1,0.6000000000000001,0.1,3.6,9.700000000000001,11.5,5.6,27.099999999999998,16
309,5304.0,-1.3,0.0,0.2,0.30000000000000004,3.6,9.3,13.3,2.1,33.800000000000004,16
310,5321.0,-1.0,0.0,0.30000000000000004,0.6000000000000001,3.5,9.4,12.100000000000001,2.3,37.0,16
311,5338.0,2.0,-0.4,1.8,3.6,3.1,10.9,14.100000000000001,2.4000000000000004,39.300000000000004,16
312,5354.0,2.1,1.4000000000000001,0.4,3.7,5.1000000000000005,9.4,50.8,21.7,7.1000000000000005,16
313,5371.0,1.8,0.5,-5.0,3.4000000000000004,4.3,4.0,43.1,-4.1,4.4,16
314,5387.0,3.1,1.1,-2.7,4.800000000000001,4.9,6.300000000000001,-8.3,-1.8000000000000003,1.6,16
315,5406.0,0.9,0.1,0.1,2.5,3.8000000000000003,9.0,-19.799999999999997,7.200000000000001,-1.3,16
316,5421.0,-1.0,-0.5,1.4000000000000001,0.6000000000000001,3.2,10.4,-14.700000000000001,1.0,4.9,16
317,5438.0,-1.3,-0.4,5.5,0.4,3.3000000000000003,14.5,16.200000000000003,-34.1,34.2,16
318,5454.0,-0.7000000000000001,0.30000000000000004,1.6,1.2000000000000002,4.2,10.5,54.800000000000004,-53.599999999999994,26.799999999999997,16
319,5471.0,-1.4000000000000001,0.0,2.2,0.7000000000000001,3.9000000000000004,11.100000000000001,61.9,-65.8,28.1,16
320,5488.0,1.7000000000000002,-0.5,2.3000000000000003,4.0,3.7,11.0,84.2,-80.0,20.0,16
321,5504.0,-0.2,0.0,-1.8,2.4000000000000004,4.4,6.7,93.4,-82.60000000000001,3.5,16
322,5522.0,0.6000000000000001,0.30000000000000004,-3.6,3.4000000000000004,4.9,4.7,67.10000000000001,-46.7,14.400000000000002,16
323,5540.0,0.9,0.1,-3.2,3.6,5.0,6.0,47.80000000000001,-31.6,14.0,16
324,5554.0,0.0,0.5,-1.4000000000000001,2.9000000000000004,5.2,6.800000000000001,17.1,-4.6,15.8,16
325,5571.0,-0.6000000000000001,1.0,-0.7000000000000001,2.4000000000000004,5.800000000000001,7.5,1.7,-12.0,17.9,16
326,5588.0,-0.1,0.6000000000000001,-1.0,2.9000000000000004,5.300000000000001,7.2,-3.6000000000000005,-21.900000000000002,17.7,16
327,5604.0,0.2,0.30000000000000004,-1.6,3.3000000000000003,5.0,6.6000000000000005,-24.900000000000002,-33.0,13.3,16
328,5621.0,0.4,-0.7000000000000001,-1.3,3.6,3.8000000000000003,6.800000000000001,-52.900000000000006,-18.8,10.600000000000001,16
329,5638.0,-0.5,0.5,-0.5,2.7,4.9,7.7,-64.4,-16.1,9.700000000000001,16
330,5654.0,-0.7000000000000001,0.6000000000000001,-0.8,2.6,4.800000000000001,7.5,-66.2,-18.5,33.400000000000006,16
331,5671.0,0.7000000000000001,0.0,-1.0,4.1000000000000005,4.0,7.4,-64.50000000000001,-6.9,34.300000000000004,16
332,5688.0,0.2,-0.2,-3.7,3.6,3.6,4.7,-88.50000000000001,36.400000000000006,24.3,16
333,5704.0,-1.3,0.9,-2.1,2.0,4.4,6.4,-122.10000000000002,63.0,19.400000000000002,16
334,5721.0,-1.5,2.6,1.7000000000000002,1.6,5.7,10.5,-115.7,76.60000000000001,23.700000000000003,16
335,5738.0,-1.0,1.4000000000000001,1.6,1.9000000000000001,4.3,10.600000000000001,-58.3,61.39999999999999,47.900000000000006,16
336,5754.0,-1.1,0.7000000000000001,1.5,1.7000000000000002,3.5,10.5,-37.400000000000006,53.0,52.00000000000001,16
337,5771.0,-1.8,1.0,1.5,1.0,3.8000000000000003,10.600000000000001,-0.5,35.1,39.0,16
338,5787.0,-0.6000000000000001,1.6,0.7000000000000001,2.1,4.5,9.8,37.400000000000006,27.0,29.600000000000005,16
339,5804.0,0.4,1.8,0.2,3.1,4.7,9.3,43.4,23.2,28.3,16
340,5821.0,0.7000000000000001,1.0,-0.6000000000000001,3.4000000000000004,4.0,8.4,37.400000000000006,16.3,25.200000000000003,16
341,5838.0,0.5,0.6000000000000001,-0.6000000000000001,3.1,3.6,8.4,32.2,16.0,22.5,16
342,5854.0,-0.2,0.2,-0.7000000000000001,2.3000000000000003,3.4000000000000004,8.1,31.0,29.200000000000003,14.700000000000001,16
343,5871.0,-0.2,0.1,-1.0,2.2,3.3000000000000003,8.0,24.5,53.7,15.5,16
344,5888.0,0.0,-1.1,-1.0,2.2,2.2,8.0,14.100000000000001,75.1,8.0,16
345,5904.0,0.30000000000000004,-1.7000000000000002,-1.6,2.2,1.5,7.5,7.500000000000001,96.1,-14.800000000000002,16
346,5921.0,0.0,-2.0,-1.6,1.8,1.3,7.5,5.300000000000001,106.20000000000002,-25.900000000000002,16
347,5938.0,-0.2,-3.5,-1.6,1.1,-0.30000000000000004,7.6000000000000005,5.1000000000000005,128.8,-50.3,16
348,5954.0,-0.9,-2.6,-1.0,-0.1,0.7000000000000001,8.200000000000001,6.500000000000001,152.70000000000002,-75.9,16
349,5971.0,-0.8,-2.7,-1.2000000000000002,-0.4,0.6000000000000001,8.0,6.600000000000001,160.3,-78.5,16
350,5987.0,-1.0,-2.4000000000000004,-0.5,-1.2000000000000002,0.9,8.6,2.8,167.79999999999998,-71.10000000000001,16
351,6004.0,-2.1,-2.2,-1.5,-2.7,1.0,7.7,-37.7,93.4,-70.10000000000001,16
352,6021.0,-2.0,-2.5,-2.8000000000000003,-2.8000000000000003,0.6000000000000001,6.4,-58.900000000000006,104.9,-72.4,16
353,6040.0,-0.6000000000000001,-0.4,-2.6,-1.8,2.5,6.6000000000000005,-80.7,104.3,-66.4,16
354,6054.0,0.6000000000000001,0.1,-3.1,-1.0,2.6,6.1000000000000005,-106.30000000000001,128.3,-63.0,16
355,6071.0,-0.5,0.5,-3.6,-2.7,2.6,5.6000000000000005,-141.1,130.3,-70.2,16
356,6088.0,-1.0,0.8,-3.3000000000000003,-3.4000000000000004,2.6,5.9,-159.4,131.5,-66.60000000000001,16
357,6104.0,-0.8,1.1,-2.3000000000000003,-3.6,2.3000000000000003,6.800000000000001,-192.50000000000003,128.8,-44.9,16
358,6121.0,0.2,0.9,-1.2000000000000002,-3.0,1.3,7.800000000000001,-215.9,119.8,-26.799999999999997,16
359,6138.0,0.7000000000000001,0.7000000000000001,-0.9,-2.7,0.8,8.1,-223.2,116.80000000000001,-25.4,16
360,6154.0,1.5,0.30000000000000004,-1.2000000000000002,-2.2,-0.30000000000000004,7.6000000000000005,-229.60000000000002,119.7,-34.50000000000001,16
361,6171.0,0.4,0.5,3.9000000000000004,-3.7,-0.9,12.5,-232.8,144.9,-42.1,16
362,6188.0,-0.30000000000000004,1.0,6.5,-4.6000000000000005,-0.8,15.0,-219.10000000000002,119.49999999999999,-35.1,16
363,6204.0,-0.1,1.8,6.800000000000001,-4.6000000000000005,-0.4,15.0,-153.79999999999998,54.9,-24.3,16
364,6221.0,-0.6000000000000001,1.6,6.1000000000000005,-5.1000000000000005,-0.9,14.3,-71.8,-13.8,-14.400000000000002,16
365,6239.0,-0.30000000000000004,2.6,5.5,-4.7,0.0,13.9,-10.5,-51.2,5.8,16
366,6254.0,0.1,2.8000000000000003,5.300000000000001,-4.2,0.2,13.700000000000001,11.8,-53.50000000000001,10.299999999999999,16
367,6271.0,-0.2,2.5,4.6000000000000005,-4.3,0.1,13.200000000000001,39.8,-52.5,11.1,16
368,6288.0,0.30000000000000004,2.5,4.2,-3.7,0.30000000000000004,12.9,55.7,-36.1,11.1,16
369,6304.0,0.30000000000000004,2.7,4.0,-3.7,0.6000000000000001,12.700000000000001,60.300000000000004,-30.1,10.9,16
370,6321.0,0.1,3.1,3.3000000000000003,-3.8000000000000003,1.2000000000000002,12.100000000000001,63.900000000000006,-26.9,8.5,16
371,6338.0,-0.4,3.4000000000000004,2.6,-4.3,1.8,11.600000000000001,60.300000000000004,-24.1,4.9,16
372,6354.0,-0.6000000000000001,3.3000000000000003,2.2,-4.4,1.7000000000000002,11.200000000000001,54.6,-25.4,4.6,16
373,6371.0,-0.5,2.8000000000000003,1.7000000000000002,-4.2,1.5,10.8,40.800000000000004,-25.7,3.1,16
374,6388.0,-0.4,2.7,1.5,-4.1000000000000005,1.4000000000000001,10.600000000000001,33.9,-26.5,0.6000000000000001,16
375,6404.0,-0.4,2.5,1.2000000000000002,-4.0,1.3,10.4,34.400000000000006,-28.3,1.1,16
376,6421.0,-0.30000000000000004,1.8,0.5,-3.8000000000000003,0.8,9.700000000000001,38.50000000000001,-26.200000000000003,5.8,16
377,6438.0,-0.30000000000000004,1.1,0.0,-3.8000000000000003,0.2,9.3,38.800000000000004,-10.5,11.1,16
378,6455.0,-0.4,0.8,0.1,-3.9000000000000004,-0.1,9.4,36.6,-0.30000000000000004,14.300000000000002,16
379,6471.0,-0.4,-0.2,0.7000000000000001,-3.9000000000000004,-0.9,10.0,27.3,16.8,21.500000000000004,16
380,6488.0,-0.7000000000000001,-0.6000000000000001,1.5,-4.3,-1.2000000000000002,10.8,12.200000000000001,28.200000000000003,21.6,16
381,6504.0,-1.0,-0.7000000000000001,2.1,-5.0,-1.4000000000000001,11.700000000000001,-4.300000000000001,34.60000000000001,22.4,16
382,6521.0,-1.4000000000000001,-1.1,2.6,-5.2,-1.8,11.9,-11.700000000000001,33.400000000000006,25.4,16
383,6538.0,-1.4000000000000001,-1.7000000000000002,3.2,-5.300000000000001,-2.4000000000000004,12.4,-18.3,38.1,31.5,16
384,6554.0,-1.2000000000000002,-1.7000000000000002,3.4000000000000004,-5.300000000000001,-2.4000000000000004,12.600000000000001,-7.400000000000001,37.6,32.6,16
385,6571.0,-1.1,-1.5,3.2,-5.2,-2.2,12.4,3.2,30.699999999999996,32.9,16
386,6588.0,-0.7000000000000001,-1.4000000000000001,2.5,-4.9,-1.9000000000000001,11.600000000000001,24.3,10.299999999999999,37.0,16
387,6604.0,0.2,-1.4000000000000001,1.2000000000000002,-4.0,-1.8,10.4,36.2,-13.5,38.400000000000006,16
388,6621.0,0.5,-1.2000000000000002,0.6000000000000001,-3.7,-1.5,9.8,38.300000000000004,-19.1,37.800000000000004,16
389,6638.0,0.7000000000000001,-0.9,-0.1,-3.4000000000000004,-1.0,9.1,39.50000000000001,-20.400000000000002,39.599999999999994,16
390,6654.0,0.5,-0.30000000000000004,-0.2,-3.5,-0.30000000000000004,9.0,40.800000000000004,-16.6,43.4,16
391,6671.0,0.4,-0.4,0.1,-3.5,-0.30000000000000004,9.600000000000001,41.50000000000001,-12.4,45.9,16
392,6687.0,0.30000000000000004,-0.7000000000000001,0.4,-3.6,-0.30000000000000004,9.700000000000001,43.70000000000001,-18.700000000000003,40.300000000000004,16
393,6704.0,-0.5,-0.9,0.1,-4.3,-0.4,9.4,40.9,-31.0,23.3,16
394,6724.0,-1.0,-0.8,0.0,-4.7,-0.2,9.3,32.6,-34.50000000000001,16.4,16
395,6740.0,-0.8,-1.0,-0.30000000000000004,-4.4,-0.2,9.1,24.0,-45.2,20.0,16
396,6754.0,-0.5,-1.3,-0.4,-4.0,-0.5,9.0,21.6,-51.50000000000001,19.0,16
397,6771.0,0.0,-2.0,-1.0,-3.3000000000000003,-1.1,8.5,23.0,-62.50000000000001,6.300000000000001,16
398,6788.0,0.2,-2.2,-1.5,-3.0,-1.3,8.0,24.1,-64.7,-2.5,16
399,6804.0,0.30000000000000004,-2.4000000000000004,-2.2,-2.7,-1.5,7.4,24.0,-60.00000000000001,-17.0,16
400,6821.0,0.2,-2.2,-2.1,-2.6,-1.3,7.5,22.700000000000003,-51.800000000000004,-25.200000000000003,16
401,6839.0,0.0,-2.0,-1.9000000000000001,-2.8000000000000003,-1.0,7.7,24.599999999999998,-49.50000000000001,-25.4,16
402,6854.0,-0.7000000000000001,-1.3,-1.6,-3.4000000000000004,-0.30000000000000004,8.0,31.9,-63.10000000000001,-13.000000000000002,16
403,6871.0,0.30000000000000004,-2.7,-3.1,-2.1,-1.6,6.5,42.0,-53.2,-6.1000000000000005,16
404,6888.0,-0.30000000000000004,-2.5,-2.9000000000000004,-2.5,-1.2000000000000002,6.7,51.70000000000001,-38.2,-6.9,16
405,6904.0,0.1,-1.6,-3.0,-2.1,-0.2,6.6000000000000005,52.5,-33.0,0.5,16
406,6921.0,1.1,-1.0,-3.1,-1.0,0.5,6.5,43.70000000000001,-16.0,-1.6,16
407,6938.0,0.9,-1.5,-2.9000000000000004,-1.3,0.1,6.7,31.7,1.0,-9.899999999999999,16
408,6954.0,0.8,-1.3,-2.4000000000000004,-1.4000000000000001,0.30000000000000004,7.1000000000000005,26.6,8.2,-13.399999999999999,16
409,6971.0,0.5,-0.9,-1.4000000000000001,-1.7000000000000002,0.8,8.0,19.400000000000002,16.0,-22.9,16
410,6987.0,0.1,-0.4,-0.5,-2.2,1.4000000000000001,8.9,20.8,24.1,-28.900000000000002,16
411,7004.0,0.0,-0.2,-0.30000000000000004,-2.4000000000000004,1.5,9.1,23.0,25.200000000000003,-29.0,16
412,7022.0,0.1,-0.2,0.1,-2.4000000000000004,1.6,9.5,27.2,25.300000000000004,-30.3,16
413,7038.0,0.5,-0.30000000000000004,-0.2,-2.0,1.6,9.200000000000001,29.900000000000006,22.5,-37.2,16
414,7054.0,0.7000000000000001,-0.2,-0.30000000000000004,-1.9000000000000001,1.7000000000000002,9.0,29.500000000000004,22.1,-42.7,16
415,7071.0,0.5,0.2,-0.1,-2.2,2.1,9.1,26.799999999999997,22.8,-53.300000000000004,16
416,7087.0,0.30000000000000004,0.5,-0.1,-2.5,2.5,9.1,25.5,23.800000000000004,-59.9,16
417,7104.0,0.2,0.7000000000000001,0.1,-2.8000000000000003,2.7,9.3,25.6,27.400000000000002,-64.0,16
418,7122.0,0.0,0.7000000000000001,0.2,-3.0,2.7,9.4,25.5,29.900000000000006,-66.1,16
419,7138.0,-0.30000000000000004,0.6000000000000001,0.7000000000000001,-3.4000000000000004,2.6,9.8,23.099999999999998,30.5,-72.10000000000001,16
420,7154.0,-0.7000000000000001,0.4,0.9,-3.9000000000000004,2.3000000000000003,10.0,17.0,26.5,-80.60000000000001,16
421,7171.0,-0.8,0.4,1.1,-4.2,2.3000000000000003,10.100000000000001,12.200000000000001,24.400000000000002,-81.8,16
422,7188.0,-0.8,0.6000000000000001,1.2000000000000002,-4.3,2.5,10.3,-1.4,19.799999999999997,-80.8,16
423,7204.0,-1.4000000000000001,1.1,2.1,-5.0,2.8000000000000003,11.200000000000001,-10.9,17.799999999999997,-78.60000000000001,16
424,7221.0,-1.8,0.6000000000000001,2.7,-5.4,2.3000000000000003,11.700000000000001,-10.5,10.9,-71.30000000000001,16
425,7238.0,-1.7000000000000002,0.2,2.8000000000000003,-5.4,1.8,11.9,0.30000000000000004,6.9,-54.0,16
426,7254.0,-1.4000000000000001,0.8,2.3000000000000003,-5.2,2.3000000000000003,11.4,1.0,-4.4,-42.60000000000001,16
427,7271.0,-0.8,0.9,1.7000000000000002,-4.5,2.5,10.8,-3.1,-2.3,-28.3,16
428,7288.0,-0.9,0.9,1.3,-4.6000000000000005,2.4000000000000004,10.4,-6.9,0.7,-23.0,16
429,7305.0,-1.1,0.7000000000000001,0.9,-4.9,2.2,10.100000000000001,-23.2,9.899999999999999,-9.8,16
430,7321.0,-1.5,0.6000000000000001,1.9000000000000001,-5.4,1.9000000000000001,11.0,-44.4,14.0,7.8,16
431,7338.0,-1.5,0.30000000000000004,2.6,-5.300000000000001,1.6,11.8,-50.7,14.0,17.5,16
432,7354.0,-0.7000000000000001,-0.2,3.9000000000000004,-4.6000000000000005,0.9,13.100000000000001,-48.10000000000001,6.699999999999999,32.6,16
433,7371.0,-0.2,-0.7000000000000001,3.9000000000000004,-4.1000000000000005,0.4,13.100000000000001,-24.7,-7.0,34.50000000000001,16
434,7388.0,-0.1,-0.8,3.2,-3.9000000000000004,0.30000000000000004,12.5,-9.899999999999999,-14.800000000000002,32.8,16
435,7404.0,0.2,-0.9,0.7000000000000001,-3.6,0.30000000000000004,10.0,15.5,-22.1,27.2,16
436,7421.0,0.1,-0.8,-1.5,-3.6,0.4,7.9,28.200000000000003,-12.0,20.400000000000002,16
437,7438.0,0.0,-0.7000000000000001,-2.1,-3.7,0.6000000000000001,7.2,29.500000000000004,-1.1,18.4,16
438,7454.0,-0.2,-0.5,-2.3000000000000003,-3.9000000000000004,1.0,7.0,24.599999999999998,13.900000000000002,19.799999999999997,16
439,7471.0,-0.1,-0.4,-2.0,-3.9000000000000004,1.1,7.2,17.9,19.700000000000003,21.0,16
440,7488.0,0.1,-0.30000000000000004,-1.5,-3.8000000000000003,1.3,7.7,11.900000000000002,14.400000000000002,21.200000000000003,16
441,7504.0,0.1,-0.30000000000000004,-1.4000000000000001,-3.8000000000000003,1.3,7.800000000000001,10.299999999999999,8.3,20.599999999999998,16
442,7522.0,0.2,-0.2,-1.4000000000000001,-3.6,1.4000000000000001,7.800000000000001,12.4,-4.6,19.9,16
443,7538.0,0.5,-0.2,-2.0,-3.3000000000000003,1.5,7.2,19.6,-11.4,19.1,16
444,7554.0,0.7000000000000001,-0.2,-2.4000000000000004,-3.0,1.6,6.7,25.5,-10.299999999999999,18.700000000000003,16
445,7571.0,1.3,0.0,-3.8000000000000003,-2.4000000000000004,1.9000000000000001,5.300000000000001,32.300000000000004,-0.30000000000000004,15.8,16
446,7588.0,1.3,0.6000000000000001,-4.4,-2.4000000000000004,2.6,4.6000000000000005,23.800000000000004,11.000000000000002,14.5,16
447,7604.0,1.1,0.8,-4.5,-2.7,2.8000000000000003,4.5,14.400000000000002,14.600000000000001,14.700000000000001,16
448,7621.0,0.30000000000000004,1.0,-4.0,-3.5,3.1,5.0,-12.5,14.0,19.700000000000003,16
449,7638.0,0.2,1.0,-3.6,-3.5,3.0,5.4,-45.8,-6.9,27.6,16
450,7654.0,0.1,1.3,-2.9000000000000004,-3.6,3.1,6.1000000000000005,-72.50000000000001,-23.2,34.1,16
451,7671.0,0.5,1.1,-2.1,-3.1,2.9000000000000004,6.9,-79.6,-24.1,38.900000000000006,16
452,7687.0,1.3,0.7000000000000001,-0.7000000000000001,-2.2,2.2,8.4,-75.3,-23.6,40.5,16
453,7704.0,1.3,1.1,0.5,-2.1,2.5,9.600000000000001,-60.00000000000001,-20.400000000000002,29.0,16
454,7721.0,1.2000000000000002,1.4000000000000001,0.9,-2.2,2.7,10.0,-49.800000000000004,-20.900000000000002,25.900000000000002,16
455,7738.0,1.3,1.2000000000000002,0.9,-1.9000000000000001,2.4000000000000004,10.100000000000001,-33.800000000000004,-24.400000000000002,16.3,16
456,7755.0,0.2,1.5,1.9000000000000001,-3.0,2.7,11.200000000000001,-24.7,-25.1,5.9,16
457,7771.0,-0.9,1.9000000000000001,1.4000000000000001,-4.0,3.1,10.700000000000001,-12.600000000000001,-20.900000000000002,6.4,16
458,7787.0,0.1,1.2000000000000002,0.6000000000000001,-3.0,2.4000000000000004,9.9,-17.5,-17.1,15.399999999999999,16
459,7804.0,0.30000000000000004,1.5,1.7000000000000002,-2.8000000000000003,2.6,11.0,-22.2,6.600000000000001,10.8,16
460,7821.0,-0.2,1.3,2.3000000000000003,-3.3000000000000003,2.4000000000000004,11.700000000000001,-21.500000000000004,18.3,6.0,16
461,7838.0,-1.1,1.2000000000000002,3.9000000000000004,-4.3,2.2,13.3,-16.5,31.2,7.500000000000001,16
462,7854.0,-1.5,1.1,4.800000000000001,-4.800000000000001,2.2,14.100000000000001,3.9,16.3,25.1,16
463,7871.0,0.0,1.0,3.9000000000000004,-3.3000000000000003,2.2,13.200000000000001,23.5,10.5,17.200000000000003,16
464,7887.0,-0.4,0.5,3.5,-3.7,1.7000000000000002,12.9,26.200000000000003,6.300000000000001,1.0,16
465,7904.0,-1.6,0.2,3.2,-4.9,1.5,12.600000000000001,22.6,1.6,-17.0,16
466,7921.0,-2.1,-0.4,3.0,-5.300000000000001,1.2000000000000002,12.4,18.200000000000003,-5.9,-18.8,16
467,7938.0,-2.0,-0.4,3.3000000000000003,-5.4,1.0,12.700000000000001,3.6000000000000005,-13.100000000000001,-8.600000000000001,16
468,7954.0,-1.1,-0.2,3.8000000000000003,-4.4,1.1,13.3,-1.0,-15.700000000000001,6.2,16
469,7971.0,-0.4,-0.30000000000000004,3.7,-3.6,1.0,13.200000000000001,13.900000000000002,-15.299999999999999,3.6000000000000005,16
470,7987.0,-0.5,-0.5,3.3000000000000003,-3.8000000000000003,0.9,12.8,24.0,-13.5,-1.5,16
471,8004.0,-0.7000000000000001,-1.6,2.2,-3.9000000000000004,-0.1,11.8,39.300000000000004,-17.7,-9.700000000000001,16
472,8021.0,-0.5,-2.0,0.5,-3.7,-0.4,10.100000000000001,50.5,-29.300000000000004,-12.600000000000001,16
473,8038.0,-0.4,-2.0,-0.4,-3.2,-0.2,8.6,51.9,-28.0,-9.100000000000001,16
474,8054.0,0.4,-1.4000000000000001,-1.1,-2.6,0.4,8.5,42.5,-20.400000000000002,0.7,16
475,8071.0,0.4,-0.9,-0.4,-2.6,1.0,9.1,29.800000000000004,-13.000000000000002,-0.30000000000000004,16
476,8087.0,0.4,-0.9,-0.7000000000000001,-2.5,1.1,8.8,25.200000000000003,-15.000000000000002,0.4,16
477,8104.0,0.30000000000000004,-0.9,-0.9,-2.6,1.2000000000000002,8.6,20.599999999999998,-16.4,-2.0,16
478,8121.0,0.30000000000000004,-0.8,-0.8,-2.5,1.2000000000000002,8.700000000000001,9.600000000000001,-18.8,-5.8,16
479,8138.0,0.5,-0.7000000000000001,-0.7000000000000001,-2.2,1.3,8.9,4.5,-17.7,-7.8,16
480,8154.0,0.7000000000000001,-0.6000000000000001,-0.6000000000000001,-2.0,1.4000000000000001,8.9,6.0,-15.899999999999999,-11.3,16
481,8171.0,0.6000000000000001,-1.0,-0.2,-2.1,1.1,9.4,17.9,-3.5,-16.1,16
482,8187.0,0.7000000000000001,-1.3,-0.4,-2.1,0.9,9.200000000000001,41.50000000000001,-0.8,-23.3,16
483,8204.0,0.7000000000000001,-1.4000000000000001,-1.0,-2.0,0.8,8.5,54.300000000000004,-1.2000000000000002,-29.1,16
484,8221.0,1.1,-1.5,-2.5,-1.6,0.9,7.0,72.60000000000001,6.600000000000001,-41.6,16
485,8238.0,0.9,-1.1,-3.1,-2.0,1.5,6.2,82.0,19.1,-55.1,16
486,8254.0,1.0,-0.9,-3.1,-1.8,2.1,5.9,86.3,25.0,-60.5,16
487,8271.0,1.4000000000000001,-0.30000000000000004,-3.0,-1.7000000000000002,2.6,6.1000000000000005,95.30000000000001,34.0,-69.10000000000001,16
488,8288.0,1.3,-0.1,-3.5,-2.0,3.1,5.4,104.9,29.500000000000004,-72.80000000000001,16
489,8306.0,1.1,-0.7000000000000001,-4.1000000000000005,-2.3000000000000003,2.7,4.6000000000000005,103.2,35.2,-76.3,16
490,8324.0,0.9,-1.1,-4.2,-2.6,2.3000000000000003,4.4,95.60000000000002,36.8,-76.1,16
491,8339.0,0.2,-1.4000000000000001,-4.0,-3.5,2.2,4.4,70.6,29.700000000000006,-67.4,16
492,8356.0,-0.8,-0.6000000000000001,-2.9000000000000004,-4.6000000000000005,3.1,5.5,33.800000000000004,11.5,-42.800000000000004,16
493,8371.0,-0.8,0.2,-1.8,-4.7,3.9000000000000004,6.5,14.800000000000002,6.300000000000001,-27.3,16
494,8387.0,-0.7000000000000001,1.4000000000000001,1.5,-4.6000000000000005,5.0,9.8,-4.7,-1.1,-15.700000000000001,16
495,8404.0,-1.2000000000000002,0.9,3.0,-5.1000000000000005,4.6000000000000005,11.3,5.1000000000000005,-6.2,-10.1,16
496,8421.0,-0.9,1.0,3.1,-4.800000000000001,4.6000000000000005,11.5,12.600000000000001,-7.500000000000001,-5.9,16
497,8438.0,-0.4,1.2000000000000002,2.2,-4.3,4.9,10.600000000000001,23.099999999999998,-12.200000000000001,-0.8,16
498,8454.0,-0.1,1.1,1.5,-3.9000000000000004,4.9,9.8,18.700000000000003,-11.3,2.3,16
499,8471.0,0.1,1.1,1.1,-3.7,5.0,9.5,9.100000000000001,-7.699999999999999,4.7,16
500,8487.0,-0.1,1.1,1.4000000000000001,-3.9000000000000004,5.0,9.8,3.5,-3.0,5.9,16
501,8507.0,-0.30000000000000004,0.7000000000000001,2.0,-4.1000000000000005,4.5,10.4,-1.8000000000000003,0.0,7.9,16
502,8526.0,-0.30000000000000004,0.5,1.6,-4.1000000000000005,4.4,10.0,-7.0,-4.300000000000001,9.4,16
503,8537.0,-0.30000000000000004,0.6000000000000001,1.2000000000000002,-4.1000000000000005,4.4,9.700000000000001,-13.3,-8.0,9.899999999999999,16
504,8554.0,-0.1,0.6000000000000001,0.7000000000000001,-3.8000000000000003,4.4,9.3,-34.2,-16.0,13.399999999999999,16
505,8571.0,0.1,0.4,0.8,-3.5,4.1000000000000005,9.5,-54.699999999999996,-11.1,19.0,16
506,8587.0,0.0,0.1,1.5,-3.6,3.7,10.200000000000001,-61.300000000000004,-2.2,21.0,16
507,8604.0,-0.1,-0.6000000000000001,3.1,-3.7,2.9000000000000004,11.8,-60.2,14.0,23.800000000000004,16
508,8623.0,-0.4,-0.9,3.9000000000000004,-4.1000000000000005,2.4000000000000004,12.700000000000001,-37.400000000000006,28.800000000000004,19.1,16
509,8638.0,-0.9,-1.1,3.7,-4.6000000000000005,2.2,12.5,-7.200000000000001,43.800000000000004,13.8,16
510,8655.0,-1.0,-1.2000000000000002,3.2,-4.800000000000001,2.1,12.0,6.300000000000001,47.5,11.1,16
511,8671.0,-1.2000000000000002,-1.0,1.8,-5.2,2.4000000000000004,10.5,24.200000000000003,53.9,6.1000000000000005,16
512,8688.0,-1.6,-0.6000000000000001,0.2,-5.800000000000001,2.9000000000000004,8.8,30.200000000000003,56.9,6.500000000000001,16
513,8704.0,-1.6,-0.5,-0.30000000000000004,-5.9,3.0,8.3,27.400000000000002,55.3,9.899999999999999,16
514,8721.0,-1.8,-0.5,-0.8,-6.2,3.1,7.6000000000000005,17.400000000000002,44.5,17.799999999999997,16
515,8737.0,-1.5,-0.6000000000000001,-1.5,-5.9,3.0,6.9,6.600000000000001,21.0,27.6,16
516,8754.0,-1.1,-0.7000000000000001,-2.0,-5.5,3.0,6.4,2.1,7.0,31.9,16
517,8771.0,-0.2,-0.9,-3.2,-4.5,2.8000000000000003,5.1000000000000005,-4.800000000000001,-14.100000000000001,36.7,16
518,8788.0,0.5,-1.0,-4.2,-3.7,2.8000000000000003,4.1000000000000005,-8.8,-22.5,38.400000000000006,16
519,8805.0,0.8,-1.0,-4.6000000000000005,-3.1,2.7,3.5,-9.899999999999999,-22.6,39.1,16
520,8826.0,1.4000000000000001,-1.0,-5.1000000000000005,-2.7,2.7,3.2,-9.899999999999999,-8.600000000000001,38.50000000000001,16
521,8838.0,1.4000000000000001,-1.0,-5.2,-2.6,2.8000000000000003,3.2,-9.4,-0.9000000000000001,38.7,16
522,8854.0,1.5,-0.9,-4.800000000000001,-2.5,2.9000000000000004,3.5,-10.5,15.399999999999999,39.2,16
523,8871.0,1.6,-0.9,-4.5,-2.4000000000000004,3.0,3.8000000000000003,-12.0,21.500000000000004,38.900000000000006,16
524,8887.0,1.5,-0.7000000000000001,-3.4000000000000004,-2.5,3.1,4.800000000000001,-17.9,26.5,36.300000000000004,16
525,8904.0,1.1,-0.5,-1.7000000000000002,-2.9000000000000004,3.3000000000000003,6.4,-23.3,24.7,32.9,16
526,8921.0,0.9,-0.30000000000000004,-0.6000000000000001,-3.1,3.4000000000000004,7.6000000000000005,-23.3,21.500000000000004,31.3,16
527,8938.0,0.6000000000000001,0.2,0.7000000000000001,-3.5,4.0,8.9,-13.900000000000002,17.200000000000003,27.0,16
528,8954.0,0.5,0.6000000000000001,1.1,-3.5,4.4,9.3,-0.9000000000000001,23.099999999999998,23.5,16
529,8971.0,0.6000000000000001,0.7000000000000001,1.5,-3.5,4.5,9.700000000000001,3.4,25.7,21.6,16
530,8988.0,0.6000000000000001,0.9,1.8,-3.5,4.800000000000001,9.9,8.5,21.8,16.5,16
531,9004.0,0.5,1.2000000000000002,1.8,-3.6,5.1000000000000005,9.9,8.5,19.6,10.1,16
532,9021.0,0.4,1.2000000000000002,2.0,-3.9000000000000004,5.1000000000000005,10.5,7.200000000000001,19.300000000000004,7.200000000000001,16
533,9037.0,0.2,1.1,2.8000000000000003,-4.0,5.1000000000000005,10.9,6.4,18.8,2.5,16
534,9054.0,0.0,1.1,3.1,-4.3,5.1000000000000005,11.200000000000001,8.899999999999999,12.200000000000001,-2.2,16
535,9071.0,-0.1,1.2000000000000002,3.1,-4.4,5.300000000000001,11.200000000000001,9.700000000000001,4.0,-6.1000000000000005,16
536,9087.0,-0.1,1.3,3.1,-4.4,5.4,11.200000000000001,10.200000000000001,0.30000000000000004,-7.9,16
537,9106.0,0.0,1.5,2.6,-4.2,5.6000000000000005,10.700000000000001,9.3,-10.299999999999999,-10.5,16
538,9126.0,0.1,1.5,1.8,-4.1000000000000005,5.6000000000000005,9.9,-3.4,-23.6,-12.8,16
539,9137.0,-0.1,1.6,1.6,-4.3,5.6000000000000005,9.8,-14.0,-28.3,-13.8,16
540,9154.0,-0.5,1.4000000000000001,2.5,-4.6000000000000005,5.4,10.8,-35.3,-28.900000000000002,-13.3,16
541,9171.0,-0.5,0.6000000000000001,4.7,-4.6000000000000005,4.4,13.100000000000001,-38.7,-27.099999999999998,-11.3,16
542,9188.0,-0.4,0.2,5.2,-4.4,4.0,13.600000000000001,-30.5,-29.400000000000002,-11.900000000000002,16
543,9204.0,-0.30000000000000004,0.0,4.3,-4.2,3.7,12.9,-7.200000000000001,-29.600000000000005,-16.8,16
544,9221.0,-0.30000000000000004,0.1,2.5,-4.2,3.8000000000000003,11.100000000000001,7.6,-27.2,-17.5,16
545,9237.0,-0.1,-0.1,0.6000000000000001,-3.9000000000000004,3.6,9.3,2.7,-29.300000000000004,-14.100000000000001,16
546,9254.0,0.1,-0.30000000000000004,0.0,-3.7,3.4000000000000004,8.700000000000001,-5.9,-32.2,-12.5,16
547,9271.0,0.30000000000000004,-0.6000000000000001,-0.4,-3.4000000000000004,3.0,8.3,-26.1,-35.699999999999996,-11.4,16
548,9287.0,0.30000000000000004,-1.0,-0.1,-3.3000000000000003,2.4000000000000004,8.700000000000001,-38.2,-38.7,-8.5,16
549,9304.0,0.5,-1.3,0.1,-3.1,2.1,9.0,-38.50000000000001,-40.6,-7.200000000000001,16
550,9321.0,0.8,-1.6,0.0,-2.6,1.6,8.9,-28.800000000000004,-42.7,-8.5,16
551,9337.0,1.2000000000000002,-1.8,-0.7000000000000001,-2.1,1.4000000000000001,8.4,-11.6,-41.6,-13.8,16
552,9354.0,1.3,-1.8,-1.0,-2.0,1.4000000000000001,8.1,-1.9,-39.0,-17.7,16
553,9371.0,1.3,-1.8,-1.8,-1.9000000000000001,1.4000000000000001,7.300000000000001,17.7,-28.800000000000004,-25.300000000000004,16
554,9387.0,1.2000000000000002,-1.7000000000000002,-2.3000000000000003,-1.9000000000000001,1.5,6.7,34.900000000000006,-14.100000000000001,-31.400000000000002,16
555,9404.0,1.2000000000000002,-1.7000000000000002,-2.5,-1.9000000000000001,1.6,6.5,43.1,-6.600000000000001,-33.7,16
556,9424.0,0.7000000000000001,-1.4000000000000001,-2.7,-2.5,2.0,6.300000000000001,56.0,6.699999999999999,-36.300000000000004,16
557,9440.0,0.5,-1.4000000000000001,-2.9000000000000004,-2.7,2.2,6.0,61.0,7.500000000000001,-31.9,16
558,9454.0,0.6000000000000001,-1.3,-3.0,-2.7,2.3000000000000003,5.7,59.9,4.9,-29.1,16
559,9471.0,0.6000000000000001,-1.3,-3.0,-2.6,2.4000000000000004,5.7,52.00000000000001,-3.7000000000000006,-23.5,16
560,9487.0,0.9,-1.2000000000000002,-3.0,-2.4000000000000004,2.6,5.7,38.900000000000006,-12.200000000000001,-18.3,16
561,9504.0,0.9,-1.1,-2.8000000000000003,-2.3000000000000003,2.7,5.800000000000001,30.1,-16.0,-15.8,16
562,9524.0,1.3,-1.2000000000000002,-1.9000000000000001,-1.9000000000000001,2.7,6.7,9.8,-22.4,-12.299999999999999,16
563,9539.0,1.2000000000000002,-1.0,-0.1,-1.9000000000000001,2.8000000000000003,8.5,-3.8,-27.800000000000004,-16.200000000000003,16
564,9554.0,0.4,-0.6000000000000001,1.2000000000000002,-2.7,3.2,9.9,-4.300000000000001,-32.400000000000006,-21.8,16
565,9571.0,0.0,-0.1,1.5,-3.1,3.6,10.100000000000001,-2.0,-32.6,-22.5,16
566,9588.0,-0.6000000000000001,0.30000000000000004,1.3,-3.6,4.1000000000000005,10.0,2.4000000000000004,-27.400000000000002,-17.799999999999997,16
567,9604.0,-0.7000000000000001,0.4,1.0,-3.6,4.2,9.8,-2.0,-20.0,-9.4,16
568,9622.0,-0.6000000000000001,0.1,1.2000000000000002,-3.5,3.8000000000000003,9.9,-16.5,-18.5,-3.6000000000000005,16
569,9637.0,-0.6000000000000001,0.1,1.4000000000000001,-3.4000000000000004,3.7,10.3,-24.400000000000002,-19.700000000000003,-2.6,16
570,9654.0,-0.6000000000000001,0.0,2.1,-3.4000000000000004,3.5,11.0,-34.2,-24.599999999999998,-0.9000000000000001,16
571,9671.0,-0.7000000000000001,0.2,1.8,-3.4000000000000004,3.6,10.8,-35.9,-28.700000000000003,0.6000000000000001,16
572,9688.0,-0.6000000000000001,0.2,1.5,-3.3000000000000003,3.6,10.5,-37.7,-26.400000000000006,2.0,16
573,9704.0,-0.9,0.30000000000000004,0.7000000000000001,-3.5,3.6,9.8,-47.60000000000001,-12.5,6.600000000000001,16
574,9731.0,-1.6,-0.30000000000000004,2.9000000000000004,-4.2,2.6,12.200000000000001,-78.80000000000001,5.500000000000001,21.300000000000004,16
575,9738.0,-1.6,-0.30000000000000004,2.9000000000000004,-4.2,2.6,12.200000000000001,-78.80000000000001,5.500000000000001,21.300000000000004,16
576,9754.0,-1.4000000000000001,-1.1,5.5,-4.0,1.7000000000000002,14.8,-73.4,-0.30000000000000004,25.200000000000003,16
577,9771.0,-1.2000000000000002,-1.5,5.6000000000000005,-3.8000000000000003,1.1,15.100000000000001,-40.5,-8.2,20.900000000000002,16
578,9788.0,-1.2000000000000002,-1.5,4.7,-3.8000000000000003,1.0,14.200000000000001,-20.5,-8.8,17.200000000000003,16
579,9804.0,-1.4000000000000001,-1.2000000000000002,2.4000000000000004,-4.0,1.4000000000000001,11.9,12.4,6.600000000000001,11.1,16
580,9823.0,-1.6,-0.8,0.9,-4.3,1.9000000000000001,10.3,32.0,31.2,9.600000000000001,16
581,9839.0,-2.0,-0.5,0.1,-4.800000000000001,2.3000000000000003,9.5,41.199999999999996,49.0,9.8,16
582,9854.0,-2.2,-0.2,-0.1,-5.1000000000000005,2.7,9.200000000000001,43.1,52.900000000000006,10.700000000000001,16
583,9871.0,-2.2,0.1,-0.8,-5.2,3.1,8.4,42.5,45.6,18.4,16
584,9887.0,-1.5,0.1,-2.1,-4.7,3.2,7.1000000000000005,35.9,28.200000000000003,27.700000000000003,16
585,9904.0,-1.1,-0.1,-2.5,-4.2,3.1,6.6000000000000005,31.0,20.2,31.0,16
586,9923.0,-0.4,-0.4,-3.6,-3.5,3.0,5.5,20.7,7.300000000000001,35.3,16
587,9938.0,0.30000000000000004,-0.5,-4.3,-2.8000000000000003,2.9000000000000004,4.7,10.1,-0.1,38.800000000000004,16
588,9954.0,0.5,-0.5,-4.5,-2.6,2.9000000000000004,4.5,5.9,0.0,39.50000000000001,16
589,9971.0,0.8,-0.7000000000000001,-4.800000000000001,-2.3000000000000003,2.8000000000000003,4.2,-1.2000000000000002,3.1,40.7,16
590,9987.0,1.1,-0.8,-4.9,-1.9000000000000001,2.7,4.0,-9.899999999999999,6.4,41.199999999999996,16
591,10004.0,1.3,-0.8,-4.7,-1.7000000000000002,2.7,4.1000000000000005,-14.800000000000002,8.600000000000001,40.4,16
592,10024.0,1.3,-0.9,-4.0,-1.6,2.6,4.800000000000001,-22.2,9.5,38.2,16
593,10037.0,1.6,-0.8,-3.6,-1.3,2.6,5.300000000000001,-25.4,6.1000000000000005,35.8,16
594,10054.0,1.8,-0.7000000000000001,-3.4000000000000004,-0.8,2.7,5.4,-27.099999999999998,2.1,32.300000000000004,16
595,10071.0,2.4000000000000004,-0.5,-3.5,-0.5,2.8000000000000003,5.4,-29.300000000000004,-0.30000000000000004,29.300000000000004,16
596,10087.0,2.7,-0.4,-3.4000000000000004,-0.1,2.9000000000000004,5.5,-39.599999999999994,-6.699999999999999,20.5,16
597,10104.0,2.6,-0.1,-2.5,-0.1,3.0,6.4,-55.3,-16.900000000000002,10.9,16
598,10125.0,2.5,0.2,-0.9,-0.1,3.1,8.0,-66.9,-24.900000000000002,3.5,16
599,10138.0,2.3000000000000003,0.4,0.1,-0.30000000000000004,3.2,9.1,-67.7,-24.8,0.0,16
600,10154.0,1.9000000000000001,0.7000000000000001,1.9000000000000001,-0.6000000000000001,3.3000000000000003,11.0,-58.5,-12.8,-5.6,16
601,10171.0,1.7000000000000002,1.0,2.6,-0.8,3.5,11.8,-51.300000000000004,-1.1,-9.100000000000001,16
602,10188.0,1.0,1.2000000000000002,4.7,-1.5,3.6,13.9,-40.0,24.3,-15.899999999999999,16
603,10204.0,0.5,1.3,7.1000000000000005,-2.1,3.6,16.400000000000002,-30.200000000000003,27.9,-23.5,16
604,10224.0,-0.30000000000000004,1.5,8.700000000000001,-3.0,3.7,18.1,-18.1,7.699999999999999,-33.6,16
605,10238.0,-0.7000000000000001,1.8,8.6,-3.4000000000000004,4.0,18.0,-10.9,-7.9,-37.400000000000006,16
606,10254.0,-1.1,2.1,7.300000000000001,-3.7,4.2,16.7,-3.6000000000000005,-33.300000000000004,-39.50000000000001,16
607,10271.0,-1.0,1.7000000000000002,6.9,-3.6,3.8000000000000003,16.5,-1.1,-36.0,-36.300000000000004,16
608,10287.0,-0.8,1.2000000000000002,7.1000000000000005,-3.3000000000000003,3.3000000000000003,16.7,3.3000000000000007,-32.6,-35.3,16
609,10304.0,-0.6000000000000001,0.1,7.1000000000000005,-3.1,2.2,16.8,21.300000000000004,-25.7,-37.7,16
610,10326.0,-0.5,-0.9,5.9,-2.9000000000000004,1.3,15.600000000000001,50.60000000000001,-25.200000000000003,-41.0,16
611,10338.0,-0.2,-1.2000000000000002,4.5,-2.7,1.1,14.200000000000001,66.5,-23.2,-42.3,16
612,10354.0,0.30000000000000004,-1.7000000000000002,1.9000000000000001,-2.2,0.8,11.600000000000001,88.20000000000002,-10.4,-44.7,16
613,10371.0,0.4,-2.0,0.1,-2.1,0.8,9.700000000000001,93.8,3.2,-46.7,16
614,10388.0,0.30000000000000004,-2.0,-0.9,-2.2,1.0,8.6,88.00000000000001,11.1,-47.0,16
615,10404.0,0.30000000000000004,-2.1,-1.3,-2.3000000000000003,1.1,8.200000000000001,82.7,12.9,-46.199999999999996,16
616,10425.0,0.30000000000000004,-2.1,-1.7000000000000002,-2.3000000000000003,1.3,7.7,69.9,13.700000000000001,-44.6,16
617,10440.0,0.1,-2.1,-1.7000000000000002,-2.6,1.4000000000000001,7.5,55.5,8.2,-42.60000000000001,16
618,10454.0,0.1,-2.2,-1.7000000000000002,-2.6,1.3,7.5,49.300000000000004,2.7,-41.0,16
619,10471.0,0.30000000000000004,-2.3000000000000003,-1.9000000000000001,-2.5,1.3,7.2,43.00000000000001,-7.699999999999999,-38.60000000000001,16
620,10487.0,0.6000000000000001,-2.4000000000000004,-2.6,-2.2,1.3,6.5,42.2,-16.1,-37.400000000000006,16
621,10504.0,0.7000000000000001,-2.4000000000000004,-3.0,-2.1,1.3,6.1000000000000005,42.2,-19.6,-37.1,16
622,10523.0,0.9,-2.3000000000000003,-3.9000000000000004,-1.9000000000000001,1.4000000000000001,5.1000000000000005,40.4,-25.200000000000003,-37.6,16
623,10537.0,1.0,-2.2,-4.6000000000000005,-1.7000000000000002,1.7000000000000002,4.3,35.4,-27.2,-38.800000000000004,16
624,10554.0,1.0,-2.0,-4.9,-1.7000000000000002,1.8,4.0,32.400000000000006,-25.8,-39.2,16
625,10571.0,0.9,-1.6,-5.2,-1.8,2.3000000000000003,3.6,25.900000000000002,-18.900000000000002,-37.7,16
626,10587.0,0.5,-1.1,-4.9,-2.1,2.8000000000000003,3.9000000000000004,19.1,-9.899999999999999,-33.1,16
627,10604.0,0.30000000000000004,-0.8,-4.5,-2.3000000000000003,3.1,4.2,16.3,-6.9,-29.0,16
628,10621.0,0.2,-0.4,-3.8000000000000003,-2.5,3.6,4.9,11.000000000000002,-3.9,-18.6,16
629,10638.0,0.6000000000000001,-0.1,-2.9000000000000004,-2.1,3.9000000000000004,5.800000000000001,6.8,-4.5,-10.4,16
630,10654.0,0.8,0.30000000000000004,-2.1,-1.9000000000000001,4.2,6.5,1.4,-9.4,-8.4,16
631,10671.0,0.8,0.6000000000000001,-1.8,-1.8,4.5,6.800000000000001,-1.7,-12.4,-8.3,16
632,10688.0,0.9,1.1,-1.4000000000000001,-1.8,5.0,7.300000000000001,-12.0,-17.200000000000003,-7.9,16
633,10704.0,0.8,1.5,-0.30000000000000004,-1.7000000000000002,5.4,8.4,-21.400000000000002,-14.300000000000002,-5.6,16
634,10726.0,0.9,1.6,0.8,-1.6,5.4,9.600000000000001,-23.0,-2.5,-3.8,16
635,10738.0,1.0,1.6,1.3,-1.6,5.4,10.100000000000001,-22.000000000000004,4.2,-3.7000000000000006,16
636,10754.0,0.9,1.4000000000000001,2.2,-1.7000000000000002,5.2,11.0,-21.300000000000004,15.399999999999999,-6.1000000000000005,16
637,10771.0,0.6000000000000001,1.4000000000000001,2.6,-2.0,5.1000000000000005,11.4,-21.300000000000004,19.5,-8.0,16
638,10787.0,-0.2,1.3,3.6,-2.9000000000000004,5.0,12.4,-23.0,22.4,-10.8,16
639,10804.0,-0.9,1.5,3.9000000000000004,-3.7,5.0,12.8,-29.300000000000004,15.899999999999999,-9.5,16
640,10821.0,-1.1,1.5,3.9000000000000004,-4.1000000000000005,4.800000000000001,12.9,-34.0,13.100000000000001,-6.699999999999999,16
641,10837.0,-1.5,1.1,4.2,-4.3,4.5,13.200000000000001,-42.5,13.200000000000003,1.2000000000000002,16
642,10854.0,-1.4000000000000001,0.5,4.800000000000001,-4.3,3.8000000000000003,13.9,-45.0,19.9,9.4,16
643,10871.0,-1.3,-0.1,5.5,-4.3,3.0,14.700000000000001,-36.5,29.900000000000006,13.3,16
644,10887.0,-1.3,-0.4,5.800000000000001,-4.3,2.7,14.9,-30.200000000000003,32.6,13.399999999999999,16
645,10905.0,-1.5,-1.1,6.4,-4.7,1.9000000000000001,15.600000000000001,-14.400000000000002,22.8,11.3,16
646,10921.0,-1.7000000000000002,-1.5,5.300000000000001,-4.9,1.5,14.600000000000001,10.299999999999999,-1.0,9.2,16
647,10938.0,-1.6,-1.6,4.0,-4.7,1.5,13.3,25.1,-8.8,8.600000000000001,16
648,10954.0,-1.2000000000000002,-1.9000000000000001,1.2000000000000002,-4.3,1.3,10.4,50.7,-7.699999999999999,8.5,16
649,10971.0,-0.8,-2.2,-1.2000000000000002,-3.9000000000000004,1.2000000000000002,8.0,65.8,4.6,5.500000000000001,16
650,10988.0,-0.9,-1.9000000000000001,-2.8000000000000003,-4.1000000000000005,1.7000000000000002,6.300000000000001,69.60000000000001,25.1,0.2,16
651,11004.0,-1.1,-1.8,-3.2,-4.3,1.9000000000000001,5.7,67.60000000000001,35.1,-0.8,16
652,11021.0,-1.5,-1.3,-3.6,-4.9,2.6,5.2,55.8,49.199999999999996,1.0,16
653,11038.0,-1.7000000000000002,-0.8,-3.5,-5.300000000000001,3.2,5.1000000000000005,38.50000000000001,50.0,8.5,16
654,11054.0,-1.6,-0.7000000000000001,-3.5,-5.2,3.4000000000000004,5.1000000000000005,28.800000000000004,45.099999999999994,13.700000000000001,16
655,11071.0,-1.2000000000000002,-0.6000000000000001,-3.7,-4.9,3.5,4.800000000000001,8.8,28.3,23.900000000000006,16
656,11087.0,-0.5,-0.7000000000000001,-3.9000000000000004,-4.2,3.5,4.5,-11.900000000000002,8.5,31.799999999999997,16
657,11104.0,-0.2,-0.8,-4.1000000000000005,-3.9000000000000004,3.4000000000000004,4.4,-21.8,-0.9000000000000001,34.50000000000001,16
658,11121.0,0.5,-0.8,-4.1000000000000005,-3.1,3.2,4.4,-35.699999999999996,-13.8,38.50000000000001,16
659,11138.0,0.9,-0.8,-4.1000000000000005,-2.6,3.2,4.4,-40.1,-15.5,39.400000000000006,16
660,11154.0,1.0,-0.8,-4.0,-2.4000000000000004,3.1,4.5,-40.1,-13.5,38.900000000000006,16
661,11171.0,1.0,-0.7000000000000001,-3.9000000000000004,-2.4000000000000004,3.2,4.7,-38.400000000000006,-8.3,37.300000000000004,16
662,11187.0,0.9,-0.4,-3.4000000000000004,-2.4000000000000004,3.4000000000000004,5.1000000000000005,-36.6,-2.9,37.400000000000006,16
663,11204.0,0.8,-0.4,-3.1,-2.4000000000000004,3.4000000000000004,5.5,-36.400000000000006,-2.0,37.6,16
664,11221.0,0.7000000000000001,-0.1,-2.3000000000000003,-2.5,3.6,6.300000000000001,-35.5,-3.1,37.0,16
665,11237.0,0.7000000000000001,0.1,-1.6,-2.4000000000000004,3.8000000000000003,7.1000000000000005,-35.5,-8.600000000000001,35.3,16
666,11254.0,0.6000000000000001,0.4,-0.6000000000000001,-2.4000000000000004,4.0,8.1,-33.300000000000004,-10.8,33.0,16
667,11271.0,0.6000000000000001,0.6000000000000001,-0.2,-2.4000000000000004,4.2,8.6,-30.4,-10.200000000000001,31.799999999999997,16
668,11287.0,0.6000000000000001,1.0,0.5,-2.3000000000000003,4.5,9.200000000000001,-22.4,-9.700000000000001,31.7,16
669,11304.0,1.0,1.2000000000000002,0.5,-1.8,4.7,9.3,-19.400000000000002,-12.4,30.200000000000003,16
670,11321.0,1.2000000000000002,1.3,0.5,-1.6,4.800000000000001,9.4,-23.2,-14.700000000000001,28.600000000000005,16
671,11337.0,1.3,1.4000000000000001,1.2000000000000002,-1.4000000000000001,4.800000000000001,10.100000000000001,-37.0,-20.5,22.6,16
672,11354.0,1.1,1.4000000000000001,2.4000000000000004,-1.5,4.7,11.3,-48.800000000000004,-21.8,14.700000000000001,16
673,11371.0,0.9,1.3,3.1,-1.7000000000000002,4.6000000000000005,12.100000000000001,-51.300000000000004,-21.1,11.3,16
674,11387.0,0.6000000000000001,1.2000000000000002,4.7,-1.9000000000000001,4.3,13.8,-46.0,-17.400000000000002,4.5,16
675,11404.0,0.4,1.2000000000000002,5.300000000000001,-2.0,4.2,14.600000000000001,-27.6,-13.6,-3.3000000000000007,16
676,11423.0,0.6000000000000001,1.4000000000000001,4.800000000000001,-1.8,4.3,14.100000000000001,-14.600000000000001,-13.5,-13.6,16
677,11437.0,0.4,1.5,4.7,-2.0,4.4,14.100000000000001,-13.5,-12.0,-19.300000000000004,16
678,11454.0,-0.4,1.4000000000000001,5.6000000000000005,-2.8000000000000003,4.3,15.0,-12.5,-7.1000000000000005,-26.1,16
679,11471.0,-0.8,0.8,6.7,-3.2,3.6,16.1,0.7,-5.9,-29.1,16
680,11489.0,-0.8,0.4,6.7,-3.2,3.2,16.1,13.100000000000001,-9.100000000000001,-30.699999999999996,16
681,11506.0,-0.5,-0.2,4.9,-2.9000000000000004,2.7,14.4,41.4,-19.700000000000003,-34.1,16
682,11521.0,0.1,-0.7000000000000001,1.8,-2.3000000000000003,2.4000000000000004,11.3,60.900000000000006,-25.7,-36.300000000000004,16
683,11538.0,0.30000000000000004,-0.9,0.5,-2.0,2.3000000000000003,9.9,64.50000000000001,-24.599999999999998,-37.0,16
684,11554.0,0.6000000000000001,-1.0,-1.4000000000000001,-1.7000000000000002,2.4000000000000004,8.0,61.300000000000004,-14.600000000000001,-38.7,16
685,11571.0,0.6000000000000001,-1.3,-1.9000000000000001,-1.8,2.2,7.4,49.1,-1.7,-40.1,16
686,11587.0,0.5,-1.4000000000000001,-1.8,-1.9000000000000001,2.1,7.5,42.900000000000006,1.9,-40.2,16
687,11604.0,0.5,-1.4000000000000001,-1.6,-2.0,2.2,7.6000000000000005,34.800000000000004,4.2,-39.0,16
688,11621.0,0.7000000000000001,-1.4000000000000001,-2.0,-1.8,2.3000000000000003,7.2,29.500000000000004,2.8,-38.900000000000006,16
689,11637.0,0.7000000000000001,-1.3,-2.2,-1.9000000000000001,2.3000000000000003,6.7,22.8,0.9000000000000001,-39.1,16
690,11654.0,0.6000000000000001,-1.4000000000000001,-2.5,-1.9000000000000001,2.3000000000000003,6.6000000000000005,20.1,0.30000000000000004,-38.60000000000001,16
691,11671.0,0.6000000000000001,-1.4000000000000001,-2.9000000000000004,-2.0,2.3000000000000003,6.1000000000000005,16.5,3.3000000000000007,-37.9,16
692,11687.0,0.5,-1.5,-2.8000000000000003,-2.2,2.2,6.2,12.9,9.600000000000001,-37.7,16
693,11704.0,0.30000000000000004,-1.5,-2.6,-2.4000000000000004,2.2,6.300000000000001,11.8,11.8,-38.1,16
694,11721.0,0.1,-1.4000000000000001,-2.2,-2.7,2.3000000000000003,6.7,13.000000000000002,12.0,-37.7,16
695,11737.0,0.1,-1.4000000000000001,-2.3000000000000003,-2.8000000000000003,2.3000000000000003,6.6000000000000005,17.7,7.699999999999999,-36.6,16
696,11754.0,0.1,-1.3,-2.2,-2.8000000000000003,2.3000000000000003,6.7,21.200000000000003,6.300000000000001,-36.0,16
697,11771.0,0.1,-1.3,-2.5,-2.8000000000000003,2.4000000000000004,6.4,31.799999999999997,3.0,-33.9,16
698,11787.0,0.4,-1.1,-3.3000000000000003,-2.6,2.7,5.4,41.1,4.9,-31.2,16
699,11804.0,0.5,-1.0,-3.7,-2.6,3.0,4.800000000000001,42.5,7.400000000000001,-29.700000000000006,16
700,11821.0,0.6000000000000001,-0.7000000000000001,-3.8000000000000003,-2.5,3.2,4.800000000000001,39.8,13.200000000000003,-26.1,16
701,11840.0,0.6000000000000001,-0.4,-3.5,-2.6,3.6,5.0,30.200000000000003,19.200000000000003,-23.3,16
702,11855.0,0.4,-0.2,-2.2,-2.8000000000000003,3.8000000000000003,6.2,18.1,23.2,-21.8,16
703,11871.0,0.30000000000000004,0.0,-1.3,-3.0,4.0,7.0,13.8,22.8,-21.6,16
704,11888.0,-0.1,0.4,-0.2,-3.5,4.4,8.1,12.7,22.3,-20.1,16
705,11904.0,-0.30000000000000004,0.8,0.2,-3.8000000000000003,4.9,8.5,15.899999999999999,30.599999999999998,-17.6,16
706,11921.0,-0.5,0.9,0.30000000000000004,-4.0,5.1000000000000005,8.6,16.200000000000003,36.8,-15.2,16
707,11937.0,-0.7000000000000001,1.4000000000000001,0.9,-4.4,5.5,9.0,10.0,51.300000000000004,-9.700000000000001,16
708,11954.0,-1.0,1.6,1.6,-4.9,5.7,9.700000000000001,-5.9,58.60000000000001,-4.800000000000001,16
709,11971.0,-1.3,1.6,2.0,-5.2,5.7,10.100000000000001,-18.5,55.8,-2.7,16
710,11995.0,-1.8,1.3,3.8000000000000003,-5.9,5.300000000000001,12.0,-64.10000000000001,19.9,3.6000000000000005,16
711,12004.0,-1.7000000000000002,1.2000000000000002,4.4,-5.9,5.1000000000000005,12.600000000000001,-74.80000000000001,4.6,6.0,16
712,12021.0,-1.5,1.0,4.800000000000001,-5.7,4.6000000000000005,13.200000000000001,-78.3,-13.900000000000002,11.2,16
713,12038.0,-1.2000000000000002,0.8,4.6000000000000005,-5.4,4.3,13.100000000000001,-72.0,-12.5,13.3,16
714,12054.0,-1.0,0.6000000000000001,4.2,-5.1000000000000005,4.1000000000000005,12.8,-52.7,5.300000000000001,15.5,16
715,12071.0,-0.9,0.7000000000000001,3.8000000000000003,-5.0,4.0,12.4,-33.2,23.6,17.6,16
716,12087.0,-1.0,0.7000000000000001,3.6,-5.1000000000000005,4.0,12.3,-26.9,29.200000000000003,18.3,16
717,12104.0,-1.4000000000000001,0.4,3.6,-5.7,3.7,12.3,-23.3,26.5,20.599999999999998,16
718,12121.0,-1.7000000000000002,0.1,3.7,-6.0,3.4000000000000004,12.3,-22.700000000000003,8.700000000000001,24.400000000000002,16
719,12137.0,-1.8,-0.1,3.5,-6.1000000000000005,3.1,12.200000000000001,-19.9,-1.2000000000000002,26.799999999999997,16
720,12154.0,-1.6,-0.6000000000000001,2.5,-5.800000000000001,2.6,11.200000000000001,-8.5,-14.200000000000001,30.799999999999997,16
721,12171.0,-1.0,-1.1,0.9,-5.2,2.1,9.700000000000001,6.8,-15.2,33.1,16
722,12187.0,-0.8,-1.4000000000000001,0.1,-4.7,1.8,8.1,14.900000000000002,-10.299999999999999,31.7,16
723,12204.0,-0.7000000000000001,-1.4000000000000001,-1.3,-4.800000000000001,2.0,7.4,29.600000000000005,9.700000000000001,22.9,16
724,12221.0,-1.2000000000000002,-0.6000000000000001,-2.1,-5.4,2.9000000000000004,6.6000000000000005,39.0,34.900000000000006,18.0,16
725,12237.0,-1.1,-0.6000000000000001,-2.5,-5.4,3.1,6.0,40.6,42.1,25.7,16
726,12254.0,-0.6000000000000001,-0.8,-2.9000000000000004,-4.9,3.0,5.6000000000000005,38.2,36.7,29.700000000000006,16
727,12271.0,0.4,-1.1,-3.9000000000000004,-4.0,2.8000000000000003,4.4,27.099999999999998,18.900000000000002,34.0,16
728,12287.0,1.2000000000000002,-1.3,-4.800000000000001,-3.1,2.7,3.5,11.3,0.7,34.800000000000004,16
729,12304.0,1.5,-1.3,-4.9,-2.8000000000000003,2.7,3.3000000000000003,3.0,-6.1000000000000005,34.60000000000001,16
730,12321.0,1.9000000000000001,-1.3,-5.2,-2.3000000000000003,2.8000000000000003,3.1,-10.299999999999999,-12.9,34.2,16
731,12337.0,2.2,-1.1,-5.0,-1.9000000000000001,2.9000000000000004,3.2,-18.1,-7.699999999999999,33.800000000000004,16
732,12356.0,2.2,-1.0,-4.7,-1.9000000000000001,3.0,3.5,-21.200000000000003,-3.1,32.5,16
733,12371.0,2.0,-0.7000000000000001,-3.7,-1.9000000000000001,3.2,4.5,-27.9,0.7,30.599999999999998,16
734,12388.0,1.9000000000000001,-0.6000000000000001,-2.6,-2.0,3.3000000000000003,5.7,-34.1,-4.4,27.400000000000002,16
735,12405.0,1.7000000000000002,-0.30000000000000004,-1.3,-2.1,3.6,7.0,-37.0,-11.000000000000002,21.500000000000004,16
736,12424.0,1.5,0.0,-0.7000000000000001,-2.4000000000000004,3.9000000000000004,8.1,-34.800000000000004,-16.6,15.899999999999999,16
737,12439.0,1.1,0.30000000000000004,0.1,-2.6,4.1000000000000005,8.5,-33.0,-18.700000000000003,13.399999999999999,16
738,12454.0,0.8,0.7000000000000001,0.9,-2.9000000000000004,4.3,9.4,-27.400000000000002,-21.7,10.8,16
739,12471.0,0.7000000000000001,0.8,1.3,-2.9000000000000004,4.4,9.8,-23.2,-23.3,10.299999999999999,16
740,12487.0,0.7000000000000001,1.0,1.5,-2.8000000000000003,4.6000000000000005,10.100000000000001,-13.900000000000002,-24.7,8.2,16
741,12504.0,0.7000000000000001,1.2000000000000002,1.7000000000000002,-2.7,4.7,10.3,-9.2,-22.5,3.8,16
742,12521.0,0.7000000000000001,1.2000000000000002,1.9000000000000001,-2.7,4.800000000000001,10.5,-8.899999999999999,-21.400000000000002,1.4,16
743,12537.0,0.4,1.2000000000000002,2.2,-2.9000000000000004,4.7,10.9,-11.000000000000002,-19.200000000000003,-2.8,16
744,12554.0,0.2,1.0,2.8000000000000003,-3.1,4.5,11.5,-14.400000000000002,-15.5,-5.2,16
745,12571.0,0.0,0.9,3.1,-3.2,4.4,11.9,-15.8,-13.8,-6.4,16
746,12587.0,-0.1,0.8,3.8000000000000003,-3.4000000000000004,4.2,12.600000000000001,-17.5,-15.6,-9.4,16
747,12604.0,-0.1,0.9,3.9000000000000004,-3.3000000000000003,4.3,12.8,-20.2,-25.7,-12.7,16
748,12621.0,-0.30000000000000004,1.0,4.0,-3.4000000000000004,4.3,13.0,-27.9,-38.300000000000004,-15.899999999999999,16
749,12637.0,-0.4,1.0,4.4,-3.5,4.2,13.4,-32.1,-44.6,-16.8,16
750,12654.0,-0.5,0.6000000000000001,5.1000000000000005,-3.4000000000000004,3.7,14.4,-31.3,-54.50000000000001,-18.3,16
751,12671.0,-0.2,0.0,4.9,-2.9000000000000004,3.0,14.3,-12.100000000000001,-59.699999999999996,-22.5,16
752,12687.0,0.0,-0.2,4.2,-2.7,2.9000000000000004,13.600000000000001,2.5,-58.3,-26.1,16
753,12704.0,0.2,-0.4,2.2,-2.3000000000000003,2.7,11.600000000000001,30.4,-44.2,-32.7,16
754,12721.0,0.30000000000000004,-0.4,0.2,-2.2,2.7,9.600000000000001,47.5,-21.200000000000003,-38.50000000000001,16
755,12737.0,0.30000000000000004,-0.4,-0.4,-2.2,2.9000000000000004,9.0,48.70000000000001,-9.2,-41.1,16
756,12754.0,-0.30000000000000004,-0.30000000000000004,-0.6000000000000001,-2.9000000000000004,3.1,8.700000000000001,38.900000000000006,5.500000000000001,-43.70000000000001,16
757,12771.0,-0.9,-0.1,-0.4,-3.5,3.3000000000000003,8.8,26.799999999999997,6.300000000000001,-41.199999999999996,16
758,12787.0,-1.0,0.0,-0.6000000000000001,-3.7,3.4000000000000004,8.6,15.700000000000001,3.7000000000000006,-32.9,16
759,12804.0,-0.9,-0.2,-1.1,-3.7,3.2,8.200000000000001,9.4,-0.8,-27.5,16
760,12821.0,-0.5,-0.5,-1.6,-3.2,2.9000000000000004,7.7,-3.2,-13.000000000000002,-19.300000000000004,16
761,12837.0,-0.1,-0.6000000000000001,-2.1,-2.8000000000000003,2.7,7.2,-11.5,-21.900000000000002,-14.300000000000002,16
762,12854.0,0.0,-0.7000000000000001,-2.3000000000000003,-2.7,2.6,6.9,-13.8,-23.5,-12.4,16
763,12871.0,0.30000000000000004,-0.8,-2.5,-2.3000000000000003,2.4000000000000004,6.7,-13.5,-22.4,-8.899999999999999,16
764,12887.0,0.4,-0.9,-2.7,-2.1,2.3000000000000003,6.6000000000000005,-8.0,-16.6,-8.100000000000001,16
765,12904.0,0.30000000000000004,-0.9,-2.8000000000000003,-2.2,2.3000000000000003,6.4,-4.300000000000001,-12.0,-7.8,16
766,12921.0,0.30000000000000004,-1.0,-2.4000000000000004,-2.2,2.1,6.9,5.300000000000001,-2.6,-7.300000000000001,16
767,12937.0,0.4,-1.1,-2.0,-2.1,2.2,7.2,22.4,3.4,-7.6,16
768,12954.0,0.4,-0.9,-2.1,-2.2,2.3000000000000003,7.1000000000000005,32.8,5.500000000000001,-7.699999999999999,16
769,12971.0,0.30000000000000004,-0.8,-2.5,-2.3000000000000003,2.6,6.6000000000000005,50.5,9.3,-5.500000000000001,16
770,12987.0,0.5,-0.5,-3.2,-2.1,3.0,5.800000000000001,56.50000000000001,13.3,-0.5,16
771,13004.0,0.7000000000000001,-0.30000000000000004,-3.5,-1.9000000000000001,3.4000000000000004,5.4,48.300000000000004,18.900000000000002,3.9,16
772,13021.0,0.7000000000000001,-0.30000000000000004,-3.1,-1.9000000000000001,3.5,5.800000000000001,40.1,20.1,5.6,16
773,13037.0,0.7000000000000001,-0.1,-1.8,-2.0,3.8000000000000003,6.9,24.599999999999998,18.5,7.8,16
774,13054.0,0.5,-0.1,-0.1,-2.2,3.8000000000000003,8.6,17.1,11.4,9.600000000000001,16
775,13070.0,0.4,0.0,0.4,-2.3000000000000003,4.0,9.1,17.200000000000003,5.8,10.5,16
776,13088.0,0.30000000000000004,0.30000000000000004,0.30000000000000004,-2.4000000000000004,4.4,9.0,18.0,-2.3,12.100000000000001,16
777,13104.0,0.5,0.5,-0.2,-2.2,4.6000000000000005,8.4,10.4,-0.8,14.600000000000001,16
778,13121.0,0.6000000000000001,0.5,-0.2,-2.1,4.6000000000000005,8.5,3.7000000000000006,3.0,15.000000000000002,16
779,13137.0,0.5,0.4,0.8,-2.1,4.5,9.5,-9.100000000000001,13.200000000000003,14.400000000000002,16
780,13154.0,0.30000000000000004,0.4,1.8,-2.4000000000000004,4.4,10.5,-15.700000000000001,20.1,10.8,16
781,13171.0,0.1,0.30000000000000004,2.1,-2.6,4.4,10.8,-18.5,21.500000000000004,8.600000000000001,16
782,13187.0,-0.2,0.1,2.6,-2.9000000000000004,4.1000000000000005,11.4,-26.000000000000004,18.5,5.0,16
783,13204.0,-0.7000000000000001,0.1,3.1,-3.5,4.0,11.9,-30.5,9.899999999999999,1.6,16
784,13221.0,-1.0,-0.1,2.8000000000000003,-3.8000000000000003,3.7,11.600000000000001,-30.5,5.7,1.3,16
785,13237.0,-1.1,-0.1,2.7,-4.0,3.6,11.600000000000001,-29.900000000000006,6.300000000000001,1.3,16
786,13254.0,-1.2000000000000002,-0.1,2.3000000000000003,-4.1000000000000005,3.6,11.3,-27.400000000000002,4.1,6.0,16
787,13271.0,-0.9,-0.6000000000000001,1.8,-3.8000000000000003,3.0,10.8,-27.9,2.5,11.8,16
788,13287.0,-0.7000000000000001,-0.9,1.9000000000000001,-3.6,2.6,10.9,-29.600000000000005,-0.4,13.6,16
789,13305.0,-0.5,-1.2000000000000002,1.7000000000000002,-3.4000000000000004,2.3000000000000003,10.700000000000001,-30.5,-10.8,15.000000000000002,16
790,13321.0,-0.4,-1.5,1.5,-3.2,1.9000000000000001,10.600000000000001,-27.2,-15.899999999999999,15.000000000000002,16
791,13338.0,-0.4,-1.5,1.2000000000000002,-3.1,1.9000000000000001,10.4,-23.2,-16.8,14.200000000000001,16
792,13354.0,-0.8,-1.3,0.30000000000000004,-3.5,2.1,9.5,-14.900000000000002,-10.8,11.8,16
793,13372.0,-1.2000000000000002,-0.9,-0.30000000000000004,-3.9000000000000004,2.4000000000000004,8.9,-13.8,-0.1,13.900000000000002,16
794,13388.0,-1.2000000000000002,-0.7000000000000001,-0.5,-3.8000000000000003,2.5,8.700000000000001,-20.5,5.7,19.1,16
795,13404.0,-1.1,-0.7000000000000001,-0.5,-3.8000000000000003,2.5,8.700000000000001,-26.000000000000004,5.2,20.5,16
796,13421.0,-1.0,-0.6000000000000001,-0.5,-3.7,2.5,8.8,-37.6,-2.9,21.300000000000004,16
797,13437.0,-0.9,-0.5,-0.30000000000000004,-3.5,2.5,9.0,-44.00000000000001,-15.700000000000001,20.7,16
798,13454.0,-0.8,-0.4,-0.4,-3.4000000000000004,2.5,9.0,-43.6,-23.3,20.7,16
799,13471.0,-0.30000000000000004,-0.2,-1.1,-2.8000000000000003,2.6,8.3,-35.599999999999994,-35.699999999999996,20.5,16
800,13487.0,0.2,0.0,-2.5,-2.1,2.8000000000000003,7.0,-24.3,-36.8,18.8,16
801,13504.0,0.4,0.1,-2.9000000000000004,-1.9000000000000001,2.8000000000000003,6.5,-19.1,-33.800000000000004,17.7,16
802,13521.0,0.6000000000000001,0.2,-3.5,-1.6,2.9000000000000004,5.9,-10.200000000000001,-26.6,15.2,16
803,13537.0,0.7000000000000001,0.4,-3.8000000000000003,-1.4000000000000001,3.1,5.7,-3.1,-17.9,12.200000000000001,16
804,13554.0,0.6000000000000001,0.4,-3.8000000000000003,-1.4000000000000001,3.1,5.6000000000000005,-0.30000000000000004,-14.100000000000001,10.8,16
805,13571.0,0.6000000000000001,0.6000000000000001,-4.0,-1.4000000000000001,3.3000000000000003,5.4,1.3,-11.700000000000001,9.700000000000001,16
806,13587.0,0.6000000000000001,0.7000000000000001,-3.7,-1.3,3.4000000000000004,5.7,-3.4,-12.7,8.700000000000001,16
807,13605.0,0.6000000000000001,0.7000000000000001,-3.2,-1.3,3.4000000000000004,6.2,-8.8,-17.200000000000003,5.500000000000001,16
808,13621.0,0.30000000000000004,0.6000000000000001,-1.6,-1.5,3.3000000000000003,7.800000000000001,-9.100000000000001,-20.8,3.0,16
809,13637.0,0.1,0.8,-0.5,-1.7000000000000002,3.5,8.9,-1.2000000000000002,-25.1,-1.7,16
810,13654.0,0.0,1.1,0.0,-1.7000000000000002,3.8000000000000003,9.4,11.2,-23.0,-5.300000000000001,16
811,13671.0,0.0,1.3,0.1,-1.6,4.0,9.5,15.5,-20.2,-6.699999999999999,16
812,13687.0,-0.1,1.5,0.6000000000000001,-1.6,4.3,10.0,18.8,-14.600000000000001,-9.4,16
813,13704.0,-0.2,1.7000000000000002,1.3,-1.8,4.5,10.700000000000001,15.299999999999999,-12.200000000000001,-10.0,16
814,13721.0,-0.30000000000000004,1.6,1.7000000000000002,-1.9000000000000001,4.5,11.100000000000001,11.8,-12.4,-9.899999999999999,16
815,13737.0,-0.6000000000000001,1.5,2.6,-2.1,4.4,12.0,4.9,-13.8,-9.4,16
816,13754.0,-1.0,1.3,3.5,-2.4000000000000004,4.2,12.9,-0.6000000000000001,-18.3,-8.0,16
817,13771.0,-1.0,1.2000000000000002,3.7,-2.5,4.1000000000000005,13.200000000000001,-2.0,-26.9,-5.0,16
818,13787.0,-0.9,1.0,3.2,-2.3000000000000003,4.0,12.700000000000001,-2.5,-29.200000000000003,-3.8,16
819,13804.0,-1.1,1.0,2.3000000000000003,-2.4000000000000004,3.9000000000000004,11.8,-10.0,-24.200000000000003,0.1,16
820,13821.0,-1.2000000000000002,0.6000000000000001,2.6,-2.4000000000000004,3.5,12.3,-26.6,-9.100000000000001,8.100000000000001,16
821,13837.0,-1.1,0.2,3.3000000000000003,-2.4000000000000004,3.0,13.0,-35.1,-3.6000000000000005,12.100000000000001,16
822,13855.0,-0.9,-1.1,5.1000000000000005,-2.1,1.5,14.8,-41.300000000000004,-6.300000000000001,16.0,16
823,13871.0,-0.30000000000000004,-1.9000000000000001,5.2,-1.5,0.6000000000000001,15.0,-23.700000000000003,-24.900000000000002,11.4,16
824,13887.0,-0.1,-1.8,3.9000000000000004,-1.2000000000000002,0.7000000000000001,13.700000000000001,-9.2,-32.6,7.1000000000000005,16
825,13904.0,0.30000000000000004,-1.6,0.8,-0.7000000000000001,1.0,10.700000000000001,11.4,-30.3,1.4,16
826,13921.0,0.4,-1.0,-1.3,-0.5,1.6,8.6,15.100000000000001,-16.4,-2.2,16
827,13938.0,0.30000000000000004,-0.8,-1.9000000000000001,-0.6000000000000001,1.8,8.0,11.5,-7.0,-3.4,16
828,13954.0,-0.1,-0.7000000000000001,-1.8,-1.0,1.9000000000000001,8.0,-0.30000000000000004,8.4,-3.4,16
829,13970.0,-0.4,-0.5,-1.3,-1.3,2.1,8.5,-7.699999999999999,14.0,-2.5,16
830,13987.0,-0.5,-0.30000000000000004,-1.2000000000000002,-1.5,2.2,8.6,-8.3,16.3,-1.2000000000000002,16
831,14004.0,-0.5,-0.2,-1.3,-1.5,2.4000000000000004,8.5,-6.500000000000001,17.200000000000003,-0.2,16
832,14021.0,-0.30000000000000004,-0.1,-1.5,-1.5,2.4000000000000004,8.3,-0.1,19.400000000000002,2.8,16
833,14037.0,0.0,-0.2,-1.9000000000000001,-1.2000000000000002,2.3000000000000003,7.800000000000001,7.9,17.400000000000002,4.300000000000001,16
834,14054.0,0.1,-0.2,-2.2,-1.1,2.3000000000000003,7.5,12.0,15.000000000000002,4.0,16
835,14071.0,0.2,-0.1,-3.0,-1.0,2.5,6.7,19.0,11.1,3.5,16
836,14088.0,0.5,-0.1,-3.8000000000000003,-0.8,2.6,5.9,23.6,10.200000000000001,4.1,16
837,14104.0,0.5,-0.1,-4.0,-0.7000000000000001,2.6,5.6000000000000005,24.900000000000002,11.4,4.0,16
838,14121.0,0.7000000000000001,-0.1,-4.2,-0.6000000000000001,2.7,5.300000000000001,27.0,16.0,4.1,16
839,14138.0,0.5,0.0,-4.3,-0.8,2.9000000000000004,5.2,27.700000000000003,21.0,5.1000000000000005,16
840,14154.0,0.6000000000000001,0.0,-4.3,-0.6000000000000001,3.0,5.1000000000000005,24.400000000000002,21.300000000000004,8.600000000000001,16
841,14170.0,1.0,0.0,-4.1000000000000005,-0.4,3.0,5.300000000000001,20.0,20.400000000000002,9.8,16
842,14187.0,1.2000000000000002,0.0,-3.3000000000000003,-0.30000000000000004,3.1,6.0,9.3,15.899999999999999,9.2,16
843,14205.0,1.3,0.2,-2.6,-0.2,3.3000000000000003,6.6000000000000005,-4.300000000000001,12.8,6.699999999999999,16
844,14221.0,1.1,0.4,-2.0,-0.4,3.4000000000000004,7.300000000000001,-11.900000000000002,11.8,4.7,16
845,14237.0,0.8,0.7000000000000001,-0.1,-0.8,3.7,9.200000000000001,-23.6,8.5,2.8,16
846,14254.0,1.0,0.7000000000000001,1.8,-0.6000000000000001,3.6,11.100000000000001,-22.1,1.9,0.5,16
847,14271.0,1.0,0.8,2.2,-0.5,3.7,11.600000000000001,-16.700000000000003,-1.6,-2.2,16
848,14287.0,0.8,1.1,2.0,-0.7000000000000001,4.0,11.4,-5.8,-1.6,-8.2,16
849,14304.0,0.4,1.1,2.0,-1.1,4.0,11.4,-5.1000000000000005,2.5,-10.1,16
850,14320.0,0.30000000000000004,1.1,2.1,-1.2000000000000002,3.9000000000000004,11.5,-7.699999999999999,3.6000000000000005,-10.9,16
851,14337.0,0.1,0.7000000000000001,2.5,-1.5,3.6,12.0,-16.0,2.9,-13.5,16
852,14354.0,-0.30000000000000004,0.5,3.3000000000000003,-1.8,3.2,12.8,-23.900000000000006,-2.6,-15.700000000000001,16
853,14371.0,-0.5,0.5,3.4000000000000004,-2.3000000000000003,3.1,12.700000000000001,-26.000000000000004,-5.7,-16.700000000000003,16
854,14387.0,-1.0,0.5,2.7,-2.6,3.0,12.200000000000001,-32.300000000000004,-5.7,-14.700000000000001,16
855,14404.0,-1.6,0.30000000000000004,2.9000000000000004,-3.2,2.7,12.5,-52.300000000000004,5.300000000000001,-5.8,16
856,14420.0,-1.8,-0.7000000000000001,5.1000000000000005,-3.4000000000000004,1.5,14.8,-72.60000000000001,5.300000000000001,4.9,16
857,14437.0,-1.6,-1.4000000000000001,6.5,-3.2,0.7000000000000001,16.3,-74.2,-3.4,7.8,16
858,14454.0,-1.6,-2.1,7.6000000000000005,-3.2,-0.30000000000000004,17.400000000000002,-47.1,-30.4,5.500000000000001,16
859,14470.0,-1.3,-1.9000000000000001,4.3,-2.7,0.0,14.200000000000001,2.9,-43.6,1.0,16
860,14487.0,-1.2000000000000002,-1.6,2.1,-2.6,0.2,12.100000000000001,22.6,-41.7,0.2,16
861,14504.0,-1.3,-1.1,-1.4000000000000001,-2.6,0.9,8.5,42.7,-25.200000000000003,2.2,16
862,14521.0,-1.3,-0.5,-3.6,-2.5,1.6,6.300000000000001,38.400000000000006,-0.8,6.699999999999999,16
863,14537.0,-1.4000000000000001,-0.4,-4.0,-2.7,1.8,5.800000000000001,27.5,9.0,9.700000000000001,16
864,14554.0,-1.8,-0.2,-3.4000000000000004,-3.1,1.9000000000000001,6.4,-3.9,15.5,18.1,16
865,14570.0,-1.8,-0.5,-2.0,-3.1,1.7000000000000002,7.800000000000001,-28.400000000000002,6.4,27.400000000000002,16
866,14587.0,-1.2000000000000002,-0.7000000000000001,-1.3,-2.5,1.4000000000000001,8.6,-34.400000000000006,-3.9,33.2,16
867,14604.0,-0.9,-0.7000000000000001,-1.2000000000000002,-2.2,1.3,8.6,-32.2,-8.3,33.9,16
868,14620.0,-0.4,-0.6000000000000001,-1.8,-1.6,1.3,8.0,-22.4,-11.4,32.2,16
869,14637.0,0.1,-0.5,-2.9000000000000004,-1.2000000000000002,1.4000000000000001,6.9,-13.6,-8.4,28.400000000000002,16
870,14654.0,0.2,-0.4,-3.3000000000000003,-1.0,1.4000000000000001,6.6000000000000005,-11.5,-5.6,26.400000000000006,16
871,14671.0,0.4,-0.2,-3.7,-0.8,1.6,6.1000000000000005,-8.0,1.1,22.5,16
872,14687.0,0.5,-0.2,-3.8000000000000003,-0.7000000000000001,1.6,6.0,-6.0,6.4,18.4,16
873,14704.0,0.5,-0.1,-3.8000000000000003,-0.7000000000000001,1.7000000000000002,6.0,-5.7,7.8,16.1,16
874,14721.0,0.5,0.1,-3.7,-0.8,1.8,6.0,-5.8,7.300000000000001,11.8,16
875,14737.0,0.5,0.30000000000000004,-3.7,-0.7000000000000001,2.0,6.0,-8.0,4.7,9.2,16
876,14754.0,0.4,0.4,-3.5,-0.9,2.3000000000000003,6.4,-11.5,4.4,7.500000000000001,16
877,14770.0,0.30000000000000004,0.6000000000000001,-2.8000000000000003,-0.9,2.3000000000000003,6.9,-13.6,4.7,7.300000000000001,16
878,14787.0,0.30000000000000004,0.8,-1.0,-0.9,2.5,8.6,-13.3,2.5,5.300000000000001,16
879,14804.0,0.4,1.0,-0.5,-0.8,2.9000000000000004,9.5,-10.0,0.5,3.9,16
880,14821.0,0.5,1.5,0.0,-0.7000000000000001,3.1,9.600000000000001,-3.0,0.4,1.1,16
881,14838.0,0.4,1.7000000000000002,0.6000000000000001,-0.8,3.4000000000000004,10.3,-3.0,6.300000000000001,-0.30000000000000004,16
882,14854.0,0.30000000000000004,1.9000000000000001,1.9000000000000001,-1.0,3.5,11.600000000000001,-10.5,11.000000000000002,-2.4000000000000004,16
883,14870.0,0.1,1.8,2.9000000000000004,-1.2000000000000002,3.5,12.600000000000001,-14.200000000000001,10.4,-3.3000000000000007,16
884,14888.0,-0.2,1.4000000000000001,4.6000000000000005,-1.5,3.0,14.3,-15.000000000000002,3.9,-6.300000000000001,16
885,14904.0,-0.30000000000000004,1.0,5.4,-1.6,2.6,15.200000000000001,-6.9,-7.500000000000001,-10.0,16
886,14921.0,-0.30000000000000004,1.0,5.2,-1.6,2.6,15.0,-1.5,-13.6,-12.100000000000001,16
887,14937.0,-0.1,1.2000000000000002,3.7,-1.4000000000000001,2.8000000000000003,13.5,3.0,-18.8,-14.700000000000001,16
888,14954.0,-0.1,1.1,3.2,-1.3,2.7,13.0,-6.699999999999999,-9.899999999999999,-13.000000000000002,16
889,14971.0,0.0,1.0,3.4000000000000004,-1.1,2.1,13.8,-13.6,-3.9,-12.100000000000001,16
890,14987.0,0.2,0.0,4.5,-1.0,1.5,14.4,-25.1,6.699999999999999,-12.8,16
891,15004.0,0.4,-1.0,5.800000000000001,-0.8,0.4,15.8,-21.0,11.000000000000002,-22.000000000000004,16
892,15021.0,-0.30000000000000004,-1.1,5.7,-1.6,0.30000000000000004,15.8,6.0,8.2,-31.400000000000002,16
893,15037.0,-0.4,-1.0,4.4,-1.7000000000000002,0.4,14.5,21.6,6.4,-32.300000000000004,16
894,15054.0,-0.1,-0.9,1.8,-1.4000000000000001,0.6000000000000001,11.9,35.8,7.6,-31.0,16
895,15070.0,0.2,-1.0,0.5,-1.2000000000000002,0.5,10.5,33.50000000000001,10.1,-31.400000000000002,16
896,15088.0,0.2,-1.1,0.1,-1.3,0.6000000000000001,9.9,30.699999999999996,10.5,-32.6,16
897,15104.0,0.1,-1.0,-0.4,-1.4000000000000001,0.6000000000000001,9.600000000000001,27.2,8.0,-34.900000000000006,16
898,15121.0,0.1,-0.8,-1.3,-1.5,0.9,8.700000000000001,29.300000000000004,8.4,-35.4,16
899,15139.0,0.1,-0.8,-1.7000000000000002,-1.5,1.1,7.800000000000001,31.2,11.1,-34.60000000000001,16
900,15154.0,0.1,-0.6000000000000001,-2.5,-1.6,1.3,7.4,33.9,17.9,-32.300000000000004,16
901,15171.0,0.1,-0.5,-3.0,-1.6,1.4000000000000001,6.9,33.50000000000001,22.2,-29.200000000000003,16
902,15188.0,0.1,-0.6000000000000001,-3.1,-1.6,1.5,6.6000000000000005,32.300000000000004,22.700000000000003,-28.0,16
903,15204.0,0.2,-0.6000000000000001,-3.3000000000000003,-1.7000000000000002,1.5,6.5,30.200000000000003,20.2,-26.000000000000004,16
904,15220.0,0.2,-0.5,-3.5,-1.8,1.7000000000000002,6.2,31.9,17.7,-24.3,16
905,15237.0,0.0,-0.4,-3.8000000000000003,-2.0,1.9000000000000001,5.800000000000001,36.0,17.300000000000004,-21.300000000000004,16
906,15254.0,0.0,-0.30000000000000004,-4.0,-2.0,2.0,5.6000000000000005,37.300000000000004,17.300000000000004,-18.900000000000002,16
907,15270.0,0.2,-0.2,-4.4,-1.9000000000000001,2.2,5.1000000000000005,36.5,17.1,-13.5,16
908,15287.0,0.4,-0.1,-4.5,-1.8,2.4000000000000004,4.9,31.799999999999997,17.0,-7.9,16
909,15304.0,0.5,0.0,-4.6000000000000005,-1.8,2.6,4.800000000000001,28.800000000000004,18.3,-5.500000000000001,16
910,15320.0,0.4,0.4,-4.4,-1.9000000000000001,3.0,4.9,19.799999999999997,25.0,-0.8,16
911,15337.0,0.2,0.7000000000000001,-3.6,-2.2,3.4000000000000004,5.7,8.600000000000001,34.2,5.300000000000001,16
912,15354.0,0.2,0.9,-3.0,-2.3000000000000003,3.6,6.2,4.1,38.50000000000001,8.700000000000001,16
913,15371.0,0.30000000000000004,0.7000000000000001,-1.4000000000000001,-2.3000000000000003,3.4000000000000004,7.800000000000001,-0.8,42.900000000000006,15.6,16
914,15387.0,0.4,0.7000000000000001,0.2,-2.3000000000000003,3.5,9.4,3.9,46.0,20.2,16
915,15404.0,0.4,0.8,1.1,-2.4000000000000004,3.6,10.100000000000001,12.5,45.7,23.5,16
916,15421.0,0.4,0.7000000000000001,1.0,-2.5,3.6,10.0,12.8,43.00000000000001,25.200000000000003,16
917,15443.0,0.4,0.6000000000000001,1.2000000000000002,-2.6,3.5,10.200000000000001,-10.9,27.800000000000004,27.400000000000002,16
918,15454.0,0.30000000000000004,0.4,1.5,-2.6,3.3000000000000003,10.5,-23.2,20.7,27.0,16
919,15470.0,0.30000000000000004,0.2,2.0,-2.7,3.0,11.0,-35.699999999999996,13.399999999999999,25.900000000000002,16
920,15487.0,0.0,-0.2,3.2,-3.0,2.5,12.3,-54.9,-1.8000000000000003,23.099999999999998,16
921,15504.0,-0.4,-0.1,3.9000000000000004,-3.3000000000000003,2.4000000000000004,13.100000000000001,-61.50000000000001,-17.799999999999997,20.400000000000002,16
922,15521.0,-0.7000000000000001,-0.1,3.7,-3.6,2.3000000000000003,12.9,-61.10000000000001,-22.2,20.8,16
923,15537.0,-1.0,-0.30000000000000004,2.9000000000000004,-3.8000000000000003,2.0,12.3,-61.50000000000001,-17.5,25.5,16
924,15554.0,-0.9,-0.5,3.5,-3.6,1.6,12.9,-65.0,0.8,32.0,16
925,15570.0,-1.0,-0.8,4.2,-3.8000000000000003,0.8,14.3,-61.10000000000001,15.000000000000002,34.50000000000001,16
926,15588.0,-1.1,-1.4000000000000001,5.4,-3.9000000000000004,0.4,15.0,-56.2,13.200000000000003,34.300000000000004,16
927,15605.0,-1.3,-1.5,5.4,-4.1000000000000005,0.2,15.0,-37.800000000000004,-10.0,30.9,16
928,15623.0,-1.0,-1.3,3.0,-3.7,0.30000000000000004,12.600000000000001,-16.1,-30.1,29.900000000000006,16
929,15637.0,-0.9,-1.4000000000000001,1.7000000000000002,-3.6,0.30000000000000004,11.4,-9.100000000000001,-33.50000000000001,29.200000000000003,16
930,15654.0,-0.8,-1.2000000000000002,-0.30000000000000004,-3.3000000000000003,0.5,9.4,-1.2000000000000002,-28.200000000000003,28.1,16
931,15671.0,-0.8,-1.0,-1.5,-3.3000000000000003,0.7000000000000001,8.200000000000001,0.8,-7.8,25.1,16
932,15687.0,-1.0,-0.9,-1.6,-3.5,0.8,8.1,-0.6000000000000001,2.3,23.700000000000003,16
933,15704.0,-1.4000000000000001,-0.7000000000000001,-1.4000000000000001,-3.8000000000000003,1.0,8.3,-3.7000000000000006,12.7,24.7,16
934,15724.0,-1.1,-0.6000000000000001,-1.7000000000000002,-3.7,1.1,8.0,-4.6,11.4,27.9,16
935,15738.0,-1.0,-0.6000000000000001,-1.9000000000000001,-3.2,1.1,7.4,-4.800000000000001,3.0,31.799999999999997,16
936,15754.0,-0.30000000000000004,-0.5,-2.7,-2.9000000000000004,1.2000000000000002,7.0,-4.4,-0.9000000000000001,33.1,16
937,15771.0,0.30000000000000004,-0.4,-3.6,-2.1,1.3,6.1000000000000005,-3.1,-4.5,33.2,16
938,15787.0,0.6000000000000001,-0.4,-4.0,-1.9000000000000001,1.3,5.6000000000000005,-2.8,-0.9000000000000001,32.300000000000004,16
939,15804.0,0.9,-0.2,-4.7,-1.6,1.6,4.9,-4.5,2.5,31.6,16
940,15824.0,1.0,0.0,-4.9,-1.4000000000000001,1.7000000000000002,4.7,-11.900000000000002,9.0,30.599999999999998,16
941,15838.0,1.0,0.0,-4.0,-1.5,1.7000000000000002,5.5,-21.400000000000002,13.200000000000003,30.000000000000004,16
942,15854.0,0.9,0.0,-3.5,-1.6,1.7000000000000002,6.0,-24.3,12.299999999999999,29.300000000000004,16
943,15871.0,0.9,0.2,-2.6,-1.6,1.8,6.9,-25.300000000000004,10.4,27.6,16
944,15887.0,0.8,0.2,-1.7000000000000002,-1.7000000000000002,1.7000000000000002,7.800000000000001,-22.1,9.3,25.1,16
945,15904.0,0.7000000000000001,0.30000000000000004,-1.4000000000000001,-1.8,1.9000000000000001,8.1,-19.400000000000002,9.3,23.5,16
946,15920.0,0.7000000000000001,0.5,-1.1,-1.8,2.0,8.3,-15.000000000000002,12.600000000000001,21.300000000000004,16
947,15937.0,0.8,0.7000000000000001,-0.30000000000000004,-1.8,2.1,9.200000000000001,-15.000000000000002,16.900000000000002,19.0,16
948,15954.0,0.8,0.7000000000000001,0.4,-1.7000000000000002,2.1,10.600000000000001,-13.000000000000002,17.5,15.299999999999999,16
949,15970.0,0.8,0.8,1.8,-1.9000000000000001,2.3000000000000003,11.200000000000001,-9.4,16.5,12.4,16
950,15988.0,0.6000000000000001,1.0,2.2,-2.1,2.5,11.600000000000001,-2.7,11.4,7.200000000000001,16
951,16004.0,0.4,1.3,2.2,-2.2,2.7,11.700000000000001,-5.0,5.300000000000001,3.1,16
952,16021.0,0.30000000000000004,1.4000000000000001,2.3000000000000003,-2.4000000000000004,2.9000000000000004,11.8,-8.8,1.9,1.2000000000000002,16
953,16038.0,0.1,1.4000000000000001,2.7,-2.6,2.8000000000000003,12.200000000000001,-18.4,-5.0,-0.2,16
954,16054.0,0.2,1.2000000000000002,3.2,-2.4000000000000004,2.6,12.8,-24.7,-12.200000000000001,-2.3,16
955,16070.0,0.30000000000000004,1.2000000000000002,3.4000000000000004,-2.3000000000000003,2.4000000000000004,13.0,-26.000000000000004,-15.399999999999999,-4.300000000000001,16
956,16087.0,0.4,1.2000000000000002,3.3000000000000003,-2.2,2.4000000000000004,13.0,-26.9,-16.700000000000003,-10.299999999999999,16
957,16104.0,0.1,1.1,3.6,-2.4000000000000004,2.2,13.200000000000001,-32.8,-12.8,-14.300000000000002,16
958,16121.0,0.0,1.0,3.9000000000000004,-2.5,2.0,13.600000000000001,-36.6,-10.600000000000001,-14.600000000000001,16
959,16137.0,-0.2,0.2,5.300000000000001,-2.7,1.1,15.0,-41.0,-4.5,-14.800000000000002,16
960,16157.0,0.0,-0.6000000000000001,7.2,-2.5,0.2,17.1,-29.800000000000004,-2.4000000000000004,-18.8,16
961,16170.0,0.0,-1.0,7.5,-2.4000000000000004,-0.2,17.400000000000002,8.8,-4.7,-27.6,16
962,16187.0,0.1,-1.0,6.4,-2.4000000000000004,-0.2,16.3,32.9,-2.8,-32.1,16
963,16204.0,0.1,-0.8,3.3000000000000003,-2.4000000000000004,0.1,13.3,68.5,7.200000000000001,-37.400000000000006,16
964,16221.0,0.2,-0.7000000000000001,1.2000000000000002,-2.4000000000000004,0.4,11.100000000000001,82.3,14.300000000000002,-37.9,16
965,16237.0,0.30000000000000004,-0.7000000000000001,0.4,-2.3000000000000003,0.5,10.200000000000001,85.4,17.400000000000002,-37.400000000000006,16
966,16254.0,0.6000000000000001,-0.9,-0.8,-2.1,0.7000000000000001,9.0,84.6,20.1,-38.60000000000001,16
967,16270.0,0.6000000000000001,-0.8,-1.7000000000000002,-2.2,1.0,8.1,78.3,16.0,-40.1,16
968,16287.0,0.5,-0.8,-2.0,-2.2,1.1,7.800000000000001,74.4,12.5,-39.8,16
969,16304.0,0.8,-0.9,-2.5,-2.0,1.2000000000000002,7.2,69.10000000000001,4.6,-38.1,16
970,16322.0,1.1,-1.0,-3.1,-1.8,1.2000000000000002,6.4,67.4,-0.9000000000000001,-37.50000000000001,16
971,16337.0,1.1,-1.1,-3.5,-1.7000000000000002,1.2000000000000002,6.1000000000000005,66.60000000000001,-2.2,-37.400000000000006,16
972,16354.0,1.3,-1.2000000000000002,-4.1000000000000005,-1.6,1.3,5.4,64.50000000000001,-0.2,-37.7,16
973,16370.0,1.4000000000000001,-1.3,-4.3,-1.5,1.3,5.0,61.599999999999994,3.8,-38.2,16
974,16387.0,1.5,-1.4000000000000001,-4.4,-1.5,1.4000000000000001,4.800000000000001,59.60000000000001,5.0,-39.400000000000006,16
975,16404.0,1.5,-1.4000000000000001,-4.5,-1.5,1.5,4.7,58.800000000000004,5.2,-39.8,16
976,16423.0,1.5,-1.4000000000000001,-4.800000000000001,-1.4000000000000001,1.6,4.3,56.6,5.500000000000001,-40.1,16
977,16437.0,1.7000000000000002,-1.4000000000000001,-5.0,-1.3,1.7000000000000002,4.0,51.4,7.500000000000001,-39.699999999999996,16
978,16454.0,1.8,-1.3,-5.0,-1.2000000000000002,1.8,4.0,48.10000000000001,9.4,-39.50000000000001,16
979,16470.0,1.9000000000000001,-1.3,-4.6000000000000005,-1.3,1.9000000000000001,4.3,40.800000000000004,15.000000000000002,-39.300000000000004,16
980,16487.0,2.1,-1.1,-3.6,-1.2000000000000002,2.2,5.2,35.9,23.099999999999998,-37.9,16
981,16504.0,2.1,-1.0,-2.9000000000000004,-1.1,2.3000000000000003,5.800000000000001,35.2,28.0,-37.1,16
982,16522.0,2.2,-0.8,-1.6,-1.2000000000000002,2.5,7.0,37.6,36.9,-38.1,16
983,16537.0,1.9000000000000001,-0.2,-1.1,-1.6,3.2,7.4,35.8,43.2,-42.400000000000006,16
984,16554.0,1.6,0.30000000000000004,-0.9,-2.0,3.7,7.5,28.600000000000005,44.8,-44.7,16
985,16570.0,0.4,1.2000000000000002,0.2,-3.4000000000000004,4.6000000000000005,8.5,1.4,41.7,-45.7,16
986,16587.0,-0.7000000000000001,1.6,2.0,-4.7,4.9,10.4,-29.900000000000006,28.600000000000005,-39.8,16
987,16604.0,-1.7000000000000002,1.5,3.6,-5.7,4.6000000000000005,12.0,-54.800000000000004,10.200000000000001,-29.600000000000005,16
988,16626.0,-2.0,1.1,5.2,-6.0,4.0,13.700000000000001,-69.4,-10.299999999999999,-19.200000000000003,16
989,16639.0,-1.9000000000000001,0.9,5.6000000000000005,-5.9,3.7,14.3,-71.5,-22.1,-15.8,16
990,16654.0,-1.8,0.8,5.6000000000000005,-5.800000000000001,3.4000000000000004,14.4,-66.60000000000001,-42.800000000000004,-13.100000000000001,16
991,16670.0,-1.8,0.7000000000000001,5.1000000000000005,-5.7,3.2,14.0,-61.599999999999994,-46.1,-12.0,16
992,16687.0,-2.0,0.8,4.4,-5.800000000000001,3.1,13.4,-50.900000000000006,-37.6,-9.3,16
993,16704.0,-2.3000000000000003,0.8,3.9000000000000004,-6.1000000000000005,2.9000000000000004,13.0,-43.1,-26.9,-3.7000000000000006,16
994,16720.0,-2.4000000000000004,0.5,3.9000000000000004,-6.2,2.6,13.0,-42.2,-23.700000000000003,0.2,16
995,16737.0,-2.8000000000000003,-0.1,4.6000000000000005,-6.5,1.9000000000000001,13.8,-43.6,-28.0,7.500000000000001,16
996,16754.0,-2.5,-0.8,5.0,-6.0,1.1,14.4,-36.400000000000006,-53.300000000000004,12.100000000000001,16
997,16770.0,-2.4000000000000004,-1.1,3.5,-5.7,0.7000000000000001,13.0,-15.000000000000002,-80.30000000000001,8.0,16
998,16787.0,-2.5,-1.0,2.4000000000000004,-5.6000000000000005,0.8,12.0,-2.0,-84.80000000000001,7.500000000000001,16
999,16804.0,-2.4000000000000004,-1.2000000000000002,-0.1,-5.300000000000001,0.6000000000000001,9.600000000000001,23.700000000000003,-80.2,9.600000000000001,16
1000,16821.0,-2.5,-0.9,-2.2,-5.2,1.1,7.4,41.7,-52.300000000000004,10.700000000000001,16
1001,16837.0,-2.5,-0.7000000000000001,-3.2,-5.1000000000000005,1.3,6.5,45.5,-33.6,12.8,16
1002,16854.0,-2.1,-0.5,-4.0,-4.800000000000001,1.7000000000000002,5.6000000000000005,37.1,-0.30000000000000004,19.6,16
1003,16871.0,-1.9000000000000001,-0.6000000000000001,-3.7,-4.6000000000000005,1.7000000000000002,5.9,14.900000000000002,11.8,24.599999999999998,16
1004,16887.0,-1.9000000000000001,-0.6000000000000001,-3.3000000000000003,-4.5,1.7000000000000002,6.2,3.2,9.2,26.5,16
1005,16904.0,-1.6,-0.6000000000000001,-2.8000000000000003,-4.3,1.7000000000000002,6.7,-12.9,-5.500000000000001,30.9,16
1006,16921.0,-1.2000000000000002,-0.6000000000000001,-3.0,-3.8000000000000003,1.7000000000000002,6.5,-16.900000000000002,-17.400000000000002,34.50000000000001,16
1007,16937.0,-1.0,-0.5,-3.2,-3.2,1.7000000000000002,5.9,-13.900000000000002,-20.7,39.1,16
1008,16954.0,-0.5,-0.5,-4.0,-2.9000000000000004,1.7000000000000002,5.5,-12.7,-20.400000000000002,41.7,16
1009,16970.0,0.2,-0.6000000000000001,-4.6000000000000005,-2.1,1.7000000000000002,4.9,-12.5,-16.8,45.099999999999994,16
1010,16987.0,0.7000000000000001,-0.6000000000000001,-4.800000000000001,-1.6,1.7000000000000002,4.7,-17.200000000000003,-11.6,43.70000000000001,16
1011,17005.0,0.8,-0.5,-4.7,-1.5,1.7000000000000002,4.7,-20.599999999999998,-10.299999999999999,41.7,16
1012,17021.0,0.6000000000000001,0.1,-4.3,-1.6,2.3000000000000003,5.1000000000000005,-26.9,-12.8,39.8,16
1013,17041.0,0.4,0.8,-3.7,-1.7000000000000002,2.9000000000000004,5.7,-31.5,-18.6,44.300000000000004,16
1014,17054.0,0.5,1.0,-3.3000000000000003,-1.5,3.1,6.1000000000000005,-33.400000000000006,-21.900000000000002,48.300000000000004,16
1015,17070.0,0.8,1.3,-2.7,-1.2000000000000002,3.3000000000000003,6.800000000000001,-37.7,-28.0,55.0,16
1016,17087.0,1.1,1.4000000000000001,-1.7000000000000002,-0.6000000000000001,3.3000000000000003,7.800000000000001,-43.4,-32.2,58.400000000000006,16
1017,17104.0,1.3,1.4000000000000001,-1.1,-0.4,3.2,8.5,-46.0,-33.400000000000006,57.49999999999999,16
1018,17126.0,1.6,1.2000000000000002,0.9,0.1,2.9000000000000004,10.600000000000001,-47.80000000000001,-30.1,46.4,16
1019,17138.0,1.6,1.1,1.7000000000000002,0.2,2.7,11.3,-45.6,-24.1,39.599999999999994,16
1020,17154.0,1.1,0.8,3.1,-0.30000000000000004,2.3000000000000003,12.8,-42.0,-16.700000000000003,32.300000000000004,16
1021,17170.0,0.6000000000000001,0.7000000000000001,3.7,-0.7000000000000001,2.1,13.4,-32.300000000000004,-1.7,19.6,16
1022,17187.0,-0.1,0.4,4.800000000000001,-1.5,1.7000000000000002,14.600000000000001,-24.3,7.500000000000001,12.0,16
1023,17204.0,-0.30000000000000004,0.1,5.5,-1.6,1.4000000000000001,15.3,-18.0,3.6000000000000005,7.1000000000000005,16
1024,17221.0,-0.2,0.0,5.6000000000000005,-1.6,1.3,15.4,-15.5,-3.5,4.2,16
1025,17237.0,-0.1,0.0,4.7,-1.4000000000000001,1.2000000000000002,14.600000000000001,-15.2,-19.400000000000002,-2.2,16
1026,17254.0,0.0,0.1,4.1000000000000005,-1.2000000000000002,1.2000000000000002,14.100000000000001,-22.9,-23.2,-8.5,16
1027,17270.0,-0.2,0.1,4.1000000000000005,-1.3,1.2000000000000002,14.100000000000001,-26.9,-21.6,-11.000000000000002,16
1028,17287.0,-0.5,-0.30000000000000004,4.7,-1.6,0.7000000000000001,14.700000000000001,-28.500000000000004,-11.3,-14.600000000000001,16
1029,17304.0,-0.5,-1.1,5.5,-1.6,-0.2,15.600000000000001,-16.3,2.6,-18.900000000000002,16
1030,17321.0,-0.5,-1.4000000000000001,5.7,-1.7000000000000002,-0.5,15.8,-3.9,5.1000000000000005,-23.0,16
1031,17338.0,-0.4,-1.5,4.0,-1.6,-0.6000000000000001,14.100000000000001,30.5,2.9,-31.6,16
1032,17354.0,-0.1,-1.5,1.0,-1.3,-0.4,11.200000000000001,55.2,10.8,-37.0,16
1033,17370.0,0.0,-1.3,-0.8,-1.3,0.0,9.3,59.699999999999996,21.500000000000004,-40.4,16
1034,17387.0,-0.1,-1.1,-1.4000000000000001,-1.5,0.2,8.700000000000001,57.3,26.000000000000004,-41.300000000000004,16
1035,17404.0,-0.1,-0.9,-1.9000000000000001,-1.7000000000000002,0.6000000000000001,8.1,47.5,33.50000000000001,-40.2,16
1036,17420.0,-0.1,-1.0,-1.9000000000000001,-1.8,0.6000000000000001,8.0,37.50000000000001,34.0,-37.9,16
1037,17439.0,0.1,-1.0,-2.1,-1.7000000000000002,0.7000000000000001,7.800000000000001,30.9,28.700000000000003,-36.0,16
1038,17454.0,0.2,-1.0,-2.2,-1.6,0.7000000000000001,7.7,28.800000000000004,25.6,-35.699999999999996,16
1039,17470.0,0.5,-1.1,-2.6,-1.4000000000000001,0.7000000000000001,7.2,26.1,22.000000000000004,-35.599999999999994,16
1040,17487.0,0.6000000000000001,-1.1,-2.7,-1.4000000000000001,0.7000000000000001,7.1000000000000005,25.7,21.6,-35.8,16
1041,17504.0,0.8,-1.1,-2.9000000000000004,-1.3,0.8,6.800000000000001,27.800000000000004,23.2,-36.6,16
1042,17520.0,0.9,-1.0,-3.3000000000000003,-1.2000000000000002,0.9,6.4,32.300000000000004,23.800000000000004,-38.800000000000004,16
1043,17539.0,0.9,-0.8,-3.8000000000000003,-1.3,1.2000000000000002,5.800000000000001,37.50000000000001,23.3,-42.60000000000001,16
1044,17554.0,0.8,-0.7000000000000001,-4.0,-1.5,1.3,5.6000000000000005,39.50000000000001,23.400000000000002,-44.2,16
1045,17570.0,0.7000000000000001,-0.4,-4.4,-1.7000000000000002,1.8,5.1000000000000005,43.4,23.800000000000004,-45.7,16
1046,17587.0,0.4,0.2,-4.7,-2.1,2.4000000000000004,4.6000000000000005,43.2,22.4,-44.6,16
1047,17604.0,0.30000000000000004,0.4,-4.9,-2.2,2.7,4.4,40.9,20.5,-42.400000000000006,16
1048,17623.0,0.30000000000000004,0.7000000000000001,-4.9,-2.3000000000000003,3.1,4.4,32.0,16.1,-36.8,16
1049,17638.0,0.4,1.0,-4.6000000000000005,-2.3000000000000003,3.4000000000000004,4.5,21.300000000000004,13.8,-30.1,16
1050,17654.0,0.6000000000000001,1.1,-4.4,-2.2,3.6,4.7,15.2,15.299999999999999,-26.5,16
1051,17670.0,0.8,1.1,-3.4000000000000004,-2.0,3.5,5.7,1.4,21.500000000000004,-20.5,16
1052,17687.0,0.7000000000000001,1.2000000000000002,-2.1,-2.2,3.7,7.0,-10.5,30.799999999999997,-15.2,16
1053,17704.0,0.6000000000000001,1.3,-1.3,-2.4000000000000004,3.7,7.7,-15.299999999999999,36.8,-11.700000000000001,16
1054,17721.0,0.30000000000000004,1.3,0.2,-2.8000000000000003,3.7,9.200000000000001,-24.200000000000003,47.400000000000006,-3.0,16
1055,17740.0,0.0,1.1,1.6,-3.2,3.3000000000000003,10.600000000000001,-36.300000000000004,50.60000000000001,4.4,16
1056,17754.0,-0.30000000000000004,0.9,3.0,-3.7,3.0,12.0,-52.1,43.300000000000004,10.5,16
1057,17770.0,-0.5,0.7000000000000001,3.7,-3.9000000000000004,2.8000000000000003,12.700000000000001,-60.400000000000006,36.2,13.5,16
1058,17787.0,-0.8,0.2,5.1000000000000005,-4.3,2.1,14.200000000000001,-74.4,14.800000000000002,18.6,16
1059,17804.0,-0.7000000000000001,-0.1,5.7,-4.2,1.6,14.9,-78.2,-7.9,22.1,16
1060,17832.0,-0.8,-0.2,5.300000000000001,-4.3,1.2000000000000002,14.600000000000001,-68.7,-17.200000000000003,23.800000000000004,16
1061,17837.0,-1.0,-0.1,4.800000000000001,-4.4,1.2000000000000002,14.100000000000001,-62.0,-11.6,25.4,16
1062,17854.0,-1.2000000000000002,-0.2,4.5,-4.6000000000000005,1.0,13.8,-55.0,5.300000000000001,31.3,16
1063,17871.0,-1.2000000000000002,-0.30000000000000004,4.6000000000000005,-4.7,0.9,14.0,-55.3,9.600000000000001,34.50000000000001,16
1064,17887.0,-1.2000000000000002,-0.7000000000000001,5.0,-4.7,0.30000000000000004,14.5,-61.10000000000001,8.100000000000001,38.7,16
1065,17904.0,-1.3,-1.0,6.0,-4.7,-0.2,15.5,-63.70000000000001,-9.700000000000001,38.2,16
1066,17921.0,-1.5,-1.2000000000000002,5.6000000000000005,-4.9,-0.5,15.200000000000001,-47.80000000000001,-36.9,35.3,16
1067,17937.0,-1.5,-1.2000000000000002,4.800000000000001,-4.800000000000001,-0.5,14.5,-34.2,-44.9,34.60000000000001,16
1068,17954.0,-1.3,-1.2000000000000002,2.5,-4.4,-0.6000000000000001,12.3,-3.7000000000000006,-43.1,34.300000000000004,16
1069,17970.0,-1.0,-1.3,0.5,-4.0,-0.6000000000000001,10.3,19.300000000000004,-28.1,32.0,16
1070,17987.0,-1.0,-1.2000000000000002,-0.30000000000000004,-4.0,-0.5,9.5,27.6,-18.6,29.600000000000005,16
1071,18004.0,-1.0,-1.1,-1.5,-4.0,-0.2,8.3,36.8,-2.0,25.1,16
1072,18021.0,-1.0,-0.9,-2.5,-4.0,0.2,7.300000000000001,38.60000000000001,3.5,23.099999999999998,16
1073,18037.0,-0.9,-0.8,-2.9000000000000004,-3.9000000000000004,0.30000000000000004,6.800000000000001,37.1,2.1,23.2,16
1074,18054.0,-0.5,-0.6000000000000001,-3.6,-3.5,0.6000000000000001,6.0,33.400000000000006,-4.300000000000001,23.400000000000002,16
1075,18071.0,-0.2,-0.30000000000000004,-4.5,-3.1,1.1,5.2,30.599999999999998,-11.4,23.5,16
1076,18087.0,0.0,-0.2,-5.0,-2.9000000000000004,1.2000000000000002,4.6000000000000005,28.900000000000002,-14.800000000000002,24.400000000000002,16
1077,18104.0,0.4,-0.1,-5.800000000000001,-2.4000000000000004,1.4000000000000001,3.8000000000000003,21.500000000000004,-20.5,27.400000000000002,16
1078,18135.0,1.0,0.1,-6.5,-1.7000000000000002,1.7000000000000002,3.0,1.8000000000000003,-20.400000000000002,31.099999999999998,16
1079,18137.0,1.0,0.1,-6.5,-1.7000000000000002,1.7000000000000002,3.0,1.8000000000000003,-20.400000000000002,31.099999999999998,16
1080,18154.0,1.1,0.2,-5.9,-1.5,1.8,3.6,-12.8,-10.8,32.6,16
1081,18170.0,1.1,0.1,-4.7,-1.5,1.7000000000000002,4.800000000000001,-24.900000000000002,-4.2,32.400000000000006,16
1082,18187.0,0.8,0.2,-3.3000000000000003,-1.8,1.7000000000000002,6.2,-32.7,-2.5,32.300000000000004,16
1083,18204.0,0.7000000000000001,0.2,-2.7,-1.8,1.7000000000000002,6.800000000000001,-35.3,-3.7000000000000006,32.8,16
1084,18221.0,0.8,0.30000000000000004,-1.4000000000000001,-1.7000000000000002,1.6,8.0,-40.6,-9.100000000000001,33.800000000000004,16
1085,18237.0,0.8,0.1,0.0,-1.6,1.4000000000000001,9.5,-41.300000000000004,-18.1,31.799999999999997,16
1086,18254.0,0.9,0.1,0.5,-1.4000000000000001,1.3,10.100000000000001,-38.800000000000004,-22.5,29.700000000000006,16
1087,18270.0,1.0,0.2,1.1,-1.3,1.3,10.600000000000001,-30.200000000000003,-30.200000000000003,23.800000000000004,16
1088,18287.0,1.1,0.30000000000000004,1.2000000000000002,-1.0,1.4000000000000001,10.8,-22.1,-31.3,17.6,16
1089,18304.0,1.0,0.4,1.3,-1.0,1.4000000000000001,10.9,-19.1,-27.9,13.900000000000002,16
1090,18322.0,0.9,0.5,1.6,-1.2000000000000002,1.5,11.3,-16.8,-13.8,6.9,16
1091,18337.0,0.4,0.9,2.4000000000000004,-1.6,1.8,12.100000000000001,-17.7,4.5,-0.5,16
1092,18354.0,-0.30000000000000004,1.2000000000000002,3.9000000000000004,-2.4000000000000004,2.1,13.600000000000001,-18.8,17.300000000000004,-7.0,16
1093,18370.0,-0.6000000000000001,1.3,4.5,-2.7,2.2,14.200000000000001,-17.5,16.4,-9.899999999999999,16
1094,18387.0,-1.0,1.8,5.300000000000001,-3.1,2.6,15.100000000000001,-13.399999999999999,3.9,-19.300000000000004,16
1095,18404.0,-1.8,2.9000000000000004,5.0,-3.9000000000000004,3.7,14.8,-7.699999999999999,-12.100000000000001,-26.5,16
1096,18424.0,-1.8,3.4000000000000004,4.800000000000001,-3.9000000000000004,4.2,14.600000000000001,-5.0,-12.5,-21.400000000000002,16
1097,18437.0,-1.6,3.4000000000000004,4.7,-3.7,4.2,14.600000000000001,-4.1,-9.5,-18.200000000000003,16
1098,18454.0,-1.5,2.7,5.0,-3.6,3.5,14.9,-2.8,-0.6000000000000001,-10.5,16
1099,18470.0,-1.2000000000000002,1.6,5.300000000000001,-3.3000000000000003,2.4000000000000004,15.3,0.5,2.9,-4.800000000000001,16
1100,18487.0,0.4,-0.5,5.6000000000000005,-1.7000000000000002,0.4,15.600000000000001,19.6,0.4,-4.2,16
1101,18504.0,1.2000000000000002,-1.0,3.5,-0.9,0.0,13.5,51.70000000000001,-15.700000000000001,-18.3,16
1102,18522.0,1.1,-1.1,2.1,-0.9,-0.1,12.100000000000001,62.50000000000001,-14.400000000000002,-24.400000000000002,16
1103,18538.0,0.9,-1.3,0.6000000000000001,-1.1,-0.1,10.600000000000001,72.60000000000001,0.0,-31.5,16
1104,18554.0,0.9,-1.5,-0.7000000000000001,-1.2000000000000002,-0.1,9.3,74.30000000000001,17.6,-34.400000000000006,16
1105,18570.0,0.6000000000000001,-1.6,-0.6000000000000001,-1.6,0.1,9.3,65.89999999999999,36.9,-37.800000000000004,16
1106,18587.0,0.30000000000000004,-1.6,-0.2,-2.0,0.2,9.600000000000001,61.9,40.0,-38.7,16
1107,18604.0,0.1,-1.7000000000000002,-0.1,-2.3000000000000003,0.2,9.700000000000001,56.6,33.300000000000004,-34.800000000000004,16
1108,18623.0,0.4,-1.9000000000000001,-0.8,-2.1,0.1,8.9,52.7,15.8,-32.9,16
1109,18637.0,0.5,-1.8,-1.3,-2.0,0.30000000000000004,8.4,50.60000000000001,7.8,-32.300000000000004,16
1110,18654.0,0.9,-1.9000000000000001,-2.2,-1.7000000000000002,0.30000000000000004,7.4,47.5,-4.2,-29.400000000000002,16
1111,18670.0,1.2000000000000002,-1.8,-3.1,-1.4000000000000001,0.6000000000000001,6.5,49.9,-7.1000000000000005,-29.500000000000004,16
1112,18687.0,1.2000000000000002,-1.7000000000000002,-3.5,-1.3,0.7000000000000001,6.1000000000000005,52.400000000000006,-4.7,-29.800000000000004,16
1113,18705.0,1.3,-1.7000000000000002,-4.2,-1.3,0.8,5.300000000000001,57.800000000000004,3.1,-30.799999999999997,16
1114,18730.0,1.2000000000000002,-1.5,-5.0,-1.5,1.3,4.3,59.9,18.200000000000003,-32.300000000000004,16
1115,18737.0,1.2000000000000002,-1.5,-5.0,-1.5,1.3,4.3,59.9,18.200000000000003,-32.300000000000004,16
1116,18754.0,0.7000000000000001,-1.2000000000000002,-5.1000000000000005,-2.0,1.7000000000000002,4.1000000000000005,57.3,26.5,-31.9,16
1117,18771.0,0.5,-0.9,-4.9,-2.4000000000000004,2.1,4.1000000000000005,49.4,31.3,-26.400000000000006,16
1118,18787.0,0.4,-0.7000000000000001,-4.6000000000000005,-2.6,2.4000000000000004,4.3,36.7,29.900000000000006,-20.2,16
1119,18804.0,0.4,-0.7000000000000001,-4.2,-2.6,2.5,4.7,29.200000000000003,27.700000000000003,-17.5,16
1120,18823.0,0.5,-0.6000000000000001,-3.3000000000000003,-2.6,2.6,5.6000000000000005,17.1,21.6,-15.5,16
1121,18839.0,0.5,-0.5,-2.1,-2.7,2.7,6.7,10.8,19.300000000000004,-14.900000000000002,16
1122,18854.0,0.5,-0.4,-1.5,-2.7,2.8000000000000003,7.2,9.3,19.0,-14.900000000000002,16
1123,18870.0,0.7000000000000001,-0.30000000000000004,-0.1,-2.6,2.9000000000000004,8.6,8.8,20.400000000000002,-13.900000000000002,16
1124,18887.0,1.0,-0.4,1.4000000000000001,-2.4000000000000004,2.9000000000000004,10.100000000000001,14.100000000000001,21.300000000000004,-16.6,16
1125,18904.0,0.9,-0.30000000000000004,2.0,-2.5,3.0,10.700000000000001,19.799999999999997,21.400000000000002,-20.7,16
1126,18923.0,0.4,0.2,1.9000000000000001,-3.1,3.6,10.5,30.699999999999996,17.0,-29.400000000000002,16
1127,18937.0,-0.30000000000000004,0.9,0.8,-3.9000000000000004,4.3,9.4,26.200000000000003,7.400000000000001,-31.799999999999997,16
1128,18954.0,-0.6000000000000001,1.2000000000000002,0.4,-4.3,4.800000000000001,8.9,1.8000000000000003,3.4,-24.599999999999998,16
1129,18970.0,-0.9,1.3,0.6000000000000001,-4.5,4.7,9.200000000000001,-14.300000000000002,1.5,-19.5,16
1130,18987.0,-1.0,1.1,2.0,-4.7,4.3,10.700000000000001,-42.900000000000006,-9.0,-11.900000000000002,16
1131,19004.0,-1.5,1.0,2.7,-5.1000000000000005,4.1000000000000005,11.5,-55.0,-24.0,-8.600000000000001,16
1132,19023.0,-1.9000000000000001,1.0,2.3000000000000003,-5.4,3.9000000000000004,11.200000000000001,-59.20000000000001,-26.9,-0.4,16
1133,19037.0,-1.8,1.0,2.1,-5.300000000000001,3.8000000000000003,11.0,-62.50000000000001,-21.500000000000004,6.4,16
1134,19054.0,-1.8,0.5,3.0,-5.2,3.1,12.100000000000001,-70.4,1.1,21.300000000000004,16
1135,19070.0,-1.7000000000000002,0.0,4.0,-5.2,2.5,13.0,-71.19999999999999,10.0,27.099999999999998,16
1136,19087.0,-1.7000000000000002,-0.9,5.5,-5.2,1.5,14.700000000000001,-61.39999999999999,12.4,31.7,16
1137,19104.0,-1.8,-0.9,5.5,-5.300000000000001,1.4000000000000001,14.700000000000001,-34.900000000000006,-1.5,29.800000000000004,16
1138,19125.0,-2.1,-0.6000000000000001,3.3000000000000003,-5.6000000000000005,1.7000000000000002,12.600000000000001,-2.0,-11.000000000000002,26.799999999999997,16
1139,19137.0,-2.1,-0.4,2.1,-5.6000000000000005,1.9000000000000001,11.4,7.8,-7.9,29.900000000000006,16
1140,19154.0,-2.0,-0.4,0.30000000000000004,-5.5,2.0,9.600000000000001,14.100000000000001,2.7,36.7,16
1141,19170.0,-2.0,-0.4,-0.6000000000000001,-5.5,2.0,8.700000000000001,10.200000000000001,13.3,43.900000000000006,16
1142,19187.0,-1.9000000000000001,-0.5,-0.9,-5.4,2.0,8.4,5.6,15.000000000000002,47.3,16
1143,19204.0,-1.5,-0.7000000000000001,-1.4000000000000001,-5.0,1.8,7.800000000000001,-6.0,8.8,53.300000000000004,16
1144,19223.0,-0.8,-0.9,-2.1,-4.3,1.6,7.1000000000000005,-15.2,-5.8,57.00000000000001,16
1145,19237.0,-0.5,-0.9,-2.6,-3.9000000000000004,1.6,6.6000000000000005,-18.6,-13.700000000000001,57.49999999999999,16
1146,19254.0,0.2,-0.8,-3.6,-3.1,1.7000000000000002,5.7,-22.5,-25.8,57.1,16
1147,19271.0,0.5,-0.6000000000000001,-4.6000000000000005,-2.6,1.9000000000000001,4.7,-23.700000000000003,-27.099999999999998,55.60000000000001,16
