,ms,accelX,accelY,accelZ,accelWithGX,accelWithGY,accelWithGZ,rotRateAlpha,rotRateBeta,rotRateGamma,interval
0,154.0,0.0,0.0,0.1,6.0,-1.2000000000000002,7.7,-2.0,1.1,0.7,16
1,167.0,0.0,0.1,0.1,6.0,-1.2000000000000002,7.7,-1.8000000000000003,1.6,0.7,16
2,183.0,0.0,0.0,0.0,5.9,-1.2000000000000002,7.7,-0.6000000000000001,2.1,1.1,16
3,200.0,0.0,0.0,0.0,6.0,-1.2000000000000002,7.7,-0.4,2.0,1.5,16
4,241.0,0.0,0.0,0.0,6.0,-1.2000000000000002,7.7,-1.8000000000000003,1.1,2.4000000000000004,16
5,255.0,0.0,0.0,0.0,6.0,-1.2000000000000002,7.7,-1.9,0.9000000000000001,2.4000000000000004,16
6,267.0,0.1,0.0,0.1,6.0,-1.2000000000000002,7.800000000000001,-1.9,1.0,2.5,16
7,284.0,0.1,0.0,0.1,6.1000000000000005,-1.3,7.7,-1.5,1.0,2.1,16
8,300.0,0.1,-0.1,0.1,6.0,-1.3,7.7,-1.2000000000000002,1.3,1.4,16
9,318.0,0.0,0.0,0.0,6.0,-1.3,7.7,-0.9000000000000001,1.9,1.3,16
10,339.0,0.1,-0.1,0.1,6.0,-1.3,7.800000000000001,-0.8,2.2,1.4,16
11,351.0,0.1,-0.1,0.1,6.1000000000000005,-1.4000000000000001,7.800000000000001,-1.1,2.0,1.1,16
12,366.0,0.1,-0.1,0.1,6.1000000000000005,-1.4000000000000001,7.800000000000001,-1.3,1.4,-0.2,16
13,383.0,0.0,0.0,0.1,6.0,-1.4000000000000001,7.800000000000001,-1.5,0.9000000000000001,-0.9000000000000001,16
14,400.0,0.0,0.0,0.1,5.9,-1.3,7.7,-1.4,0.9000000000000001,-1.0,16
15,416.0,0.0,0.0,0.0,5.9,-1.3,7.7,-1.3,0.8,-0.4,16
16,433.0,0.0,0.0,0.0,5.9,-1.3,7.7,-1.6,0.5,0.1,16
17,450.0,0.0,0.0,0.0,5.9,-1.4000000000000001,7.7,-2.8,0.30000000000000004,-0.2,16
18,467.0,0.0,0.0,0.1,5.9,-1.3,7.800000000000001,-2.9,0.9000000000000001,-1.3,16
19,484.0,0.0,0.0,0.1,5.9,-1.3,7.800000000000001,-2.1,2.0,-1.9,16
20,500.0,-0.1,0.0,0.2,5.9,-1.3,7.9,-1.5,2.6,-2.2,16
21,516.0,-0.1,0.0,0.1,5.800000000000001,-1.3,7.800000000000001,-1.0,2.1,-2.1,16
22,535.0,-0.2,0.0,0.0,5.7,-1.3,7.7,-1.5,1.4,-1.4,16
23,549.0,-0.2,0.0,0.0,5.7,-1.3,7.7,-2.2,0.7,0.30000000000000004,16
24,566.0,-0.2,0.1,0.0,5.7,-1.3,7.7,-2.2,0.8,1.5,16
25,586.0,0.0,-0.1,0.1,5.9,-1.4000000000000001,7.800000000000001,-1.0,1.5,2.2,16
26,600.0,0.0,-0.1,0.1,5.9,-1.5,7.800000000000001,-0.30000000000000004,1.6,2.1,16
27,628.0,0.0,-0.1,0.0,5.9,-1.5,7.7,-1.5,1.9,1.0,16
28,637.0,0.1,-0.1,0.0,6.0,-1.5,7.7,-2.0,1.8000000000000003,0.6000000000000001,16
29,650.0,0.1,-0.1,0.0,6.0,-1.5,7.7,-2.4000000000000004,1.9,0.30000000000000004,16
30,673.0,-0.1,0.0,0.0,5.800000000000001,-1.4000000000000001,7.7,-2.1,2.5,-0.4,16
31,683.0,-0.1,0.0,-0.1,5.800000000000001,-1.4000000000000001,7.6000000000000005,-2.3,3.3000000000000007,-0.2,16
32,700.0,-0.1,-0.1,-0.1,5.800000000000001,-1.4000000000000001,7.6000000000000005,-2.6,4.800000000000001,-0.30000000000000004,16
33,716.0,-0.1,0.0,-0.1,5.7,-1.4000000000000001,7.7,-2.4000000000000004,5.8,-1.2000000000000002,16
34,750.0,-0.1,0.1,0.1,5.7,-1.3,7.9,-1.2000000000000002,6.9,-2.1,16
35,767.0,0.0,0.1,0.2,5.800000000000001,-1.3,7.9,0.4,4.6,-0.8,16
36,783.0,0.0,0.0,0.0,5.800000000000001,-1.4000000000000001,7.800000000000001,-0.1,2.4000000000000004,0.2,16
37,801.0,0.0,0.0,0.1,5.800000000000001,-1.4000000000000001,7.9,-1.4,-1.0,1.6,16
38,816.0,0.1,0.0,0.0,5.9,-1.4000000000000001,7.800000000000001,-2.6,-2.8,2.1,16
39,833.0,0.1,0.0,0.1,5.9,-1.4000000000000001,7.800000000000001,-2.8,-2.5,2.1,16
40,851.0,0.1,0.1,0.0,5.9,-1.4000000000000001,7.7,-2.4000000000000004,-0.30000000000000004,1.7,16
41,866.0,0.1,0.1,0.0,5.9,-1.3,7.800000000000001,-2.1,3.5,0.4,16
42,883.0,0.1,0.0,0.30000000000000004,5.9,-1.4000000000000001,8.0,-0.8,5.8,-1.1,16
43,899.0,0.0,0.1,0.2,5.800000000000001,-1.4000000000000001,8.0,0.2,5.4,-1.6,16
44,917.0,-0.2,0.1,0.0,5.6000000000000005,-1.3,7.800000000000001,-1.4,1.6,0.2,16
45,935.0,-0.2,0.1,-0.1,5.6000000000000005,-1.3,7.7,-3.9,-1.0,2.3,16
46,949.0,-0.2,0.1,-0.2,5.6000000000000005,-1.3,7.6000000000000005,-5.2,-1.7,3.7000000000000006,16
47,966.0,0.0,0.0,-0.2,5.7,-1.4000000000000001,7.6000000000000005,-6.0,0.5,4.1,16
48,983.0,0.1,0.0,-0.1,5.9,-1.5,7.7,-5.6,3.2,2.6,16
49,1000.0,0.2,0.0,0.0,5.9,-1.5,7.800000000000001,-4.6,5.8,0.1,16
50,1016.0,0.1,0.0,0.1,5.9,-1.4000000000000001,7.9,-4.1,7.6,-1.7,16
51,1033.0,0.1,0.1,0.2,5.800000000000001,-1.4000000000000001,8.0,-3.5,7.699999999999999,-2.8,16
52,1051.0,0.1,0.1,0.30000000000000004,5.800000000000001,-1.3,8.1,-4.0,6.9,-2.8,16
53,1066.0,0.0,0.1,0.30000000000000004,5.7,-1.4000000000000001,8.200000000000001,-4.4,5.2,-2.4000000000000004,16
54,1084.0,0.0,0.1,0.2,5.7,-1.4000000000000001,8.0,-4.1,2.8,-1.3,16
55,1099.0,-0.1,0.1,0.1,5.6000000000000005,-1.4000000000000001,8.0,-3.8,2.4000000000000004,-0.7,16
56,1117.0,-0.1,0.1,0.1,5.6000000000000005,-1.4000000000000001,7.9,-4.0,3.3000000000000007,-0.30000000000000004,16
57,1133.0,0.0,0.0,0.2,5.6000000000000005,-1.5,8.0,-3.7000000000000006,4.7,-0.4,16
58,1150.0,0.0,0.0,0.30000000000000004,5.7,-1.5,8.200000000000001,-2.1,6.4,-1.2000000000000002,16
59,1166.0,0.0,0.0,0.4,5.7,-1.5,8.3,-0.4,7.8,-2.0,16
60,1183.0,0.0,0.0,0.4,5.6000000000000005,-1.5,8.3,1.0,8.4,-1.8000000000000003,16
61,1199.0,-0.1,0.0,0.4,5.5,-1.5,8.3,1.0,6.0,-1.1,16
62,1216.0,-0.2,0.0,0.30000000000000004,5.4,-1.5,8.200000000000001,0.5,2.6,-0.2,16
63,1233.0,-0.30000000000000004,0.0,0.2,5.300000000000001,-1.5,8.1,-0.5,-1.2000000000000002,1.2000000000000002,16
64,1250.0,-0.4,0.0,-0.1,5.2,-1.5,7.9,-1.4,-2.4000000000000004,4.2,16
65,1266.0,-0.4,-0.1,-0.1,5.2,-1.6,7.800000000000001,-0.8,-0.8,4.5,16
66,1283.0,-0.4,-0.1,-0.2,5.2,-1.6,7.7,-0.1,2.6,4.300000000000001,16
67,1299.0,-0.30000000000000004,-0.1,-0.2,5.2,-1.6,7.7,0.1,6.1000000000000005,3.7000000000000006,16
68,1317.0,-0.30000000000000004,-0.1,-0.1,5.2,-1.6,7.9,0.4,8.600000000000001,3.0,16
69,1333.0,-0.2,0.0,0.0,5.2,-1.6,8.0,0.4,9.0,3.1,16
70,1349.0,-0.2,0.0,0.0,5.2,-1.5,8.0,0.2,7.9,4.0,16
71,1366.0,-0.2,0.1,0.2,5.300000000000001,-1.5,8.200000000000001,0.1,7.1000000000000005,5.4,16
72,1385.0,0.1,0.1,0.4,5.5,-1.5,8.5,1.5,7.1000000000000005,6.0,16
73,1399.0,0.2,0.1,0.5,5.6000000000000005,-1.5,8.6,4.7,9.100000000000001,5.300000000000001,16
74,1416.0,0.2,0.1,0.4,5.6000000000000005,-1.4000000000000001,8.5,7.400000000000001,11.4,5.4,16
75,1433.0,0.30000000000000004,0.1,0.4,5.6000000000000005,-1.4000000000000001,8.5,9.2,14.100000000000001,6.2,16
76,1449.0,0.5,0.1,0.5,5.800000000000001,-1.5,8.6,9.100000000000001,13.8,5.4,16
77,1466.0,0.6000000000000001,0.0,0.5,5.800000000000001,-1.5,8.700000000000001,9.2,9.3,2.7,16
78,1483.0,0.4,0.1,0.4,5.7,-1.4000000000000001,8.5,7.300000000000001,4.2,0.6000000000000001,16
79,1499.0,0.2,0.30000000000000004,0.2,5.4,-1.2000000000000002,8.4,5.6,0.0,0.5,16
80,1516.0,0.0,0.4,0.2,5.300000000000001,-1.0,8.4,4.7,-2.1,1.8000000000000003,16
81,1533.0,0.0,0.4,0.30000000000000004,5.300000000000001,-1.0,8.4,5.2,-2.3,3.2,16
82,1549.0,0.1,0.30000000000000004,0.30000000000000004,5.4,-1.1,8.5,6.600000000000001,-2.4000000000000004,3.0,16
83,1566.0,0.1,0.1,0.0,5.300000000000001,-1.2000000000000002,8.200000000000001,6.0,-2.9,0.8,16
84,1583.0,-0.30000000000000004,0.2,-0.30000000000000004,4.9,-1.0,7.9,2.3,-2.1,-0.9000000000000001,16
85,1599.0,-0.4,0.30000000000000004,-0.30000000000000004,4.9,-1.0,7.800000000000001,1.2000000000000002,1.4,0.2,16
86,1617.0,-0.4,0.1,-0.5,4.9,-1.1,7.7,-0.1,6.1000000000000005,1.4,16
87,1633.0,-0.1,0.1,0.1,5.2,-1.1,8.3,-1.8000000000000003,9.8,1.4,16
88,1649.0,0.0,0.30000000000000004,0.8,5.2,-0.9,9.0,1.7,8.100000000000001,-1.6,16
89,1666.0,0.1,0.2,0.6000000000000001,5.300000000000001,-0.9,8.8,8.5,2.6,-5.0,16
90,1683.0,0.1,-0.1,0.1,5.2,-1.2000000000000002,8.4,9.8,1.0,-6.699999999999999,16
91,1699.0,-0.30000000000000004,-0.1,-0.2,4.800000000000001,-1.2000000000000002,8.0,7.1000000000000005,-0.9000000000000001,-7.6,16
92,1716.0,-0.5,0.0,-0.4,4.7,-1.0,7.800000000000001,2.8,0.9000000000000001,-6.1000000000000005,16
93,1733.0,-0.4,-0.1,-0.30000000000000004,4.800000000000001,-1.2000000000000002,8.0,-0.2,4.5,-2.8,16
94,1750.0,0.1,-0.4,-0.30000000000000004,5.300000000000001,-1.5,8.0,-7.400000000000001,4.7,-2.8,16
95,1766.0,0.30000000000000004,-0.2,-0.1,5.4,-1.3,8.200000000000001,-10.0,2.8,-5.4,16
96,1783.0,0.2,-0.1,-0.5,5.300000000000001,-1.2000000000000002,7.800000000000001,-11.4,3.0,-4.6,16
97,1799.0,0.2,-0.1,-0.7000000000000001,5.4,-1.2000000000000002,7.5,-15.899999999999999,4.0,-1.1,16
98,1816.0,0.30000000000000004,-0.2,-0.6000000000000001,5.4,-1.4000000000000001,7.7,-20.3,4.300000000000001,2.7,16
99,1833.0,0.4,-0.30000000000000004,-0.6000000000000001,5.5,-1.5,7.7,-23.2,3.9,4.0,16
100,1849.0,0.30000000000000004,-0.1,-0.30000000000000004,5.5,-1.5,7.9,-23.6,6.2,2.9,16
101,1866.0,0.0,0.2,0.0,5.4,-1.2000000000000002,8.1,-19.1,12.8,2.0,16
102,1883.0,0.1,0.4,0.4,5.5,-1.0,8.5,-11.3,19.300000000000004,2.6,16
103,1899.0,0.1,0.5,0.30000000000000004,5.4,-0.9,8.4,-2.5,22.1,4.4,16
104,1916.0,0.5,0.2,0.0,5.7,-1.2000000000000002,8.200000000000001,-2.0,12.7,9.4,16
105,1933.0,0.7000000000000001,0.0,0.0,5.9,-1.4000000000000001,8.200000000000001,-6.699999999999999,2.9,9.3,16
106,1949.0,1.0,0.30000000000000004,-0.1,6.2,-1.2000000000000002,8.0,-20.1,-23.900000000000006,7.400000000000001,16
107,1966.0,0.9,0.5,-0.1,6.2,-1.0,8.0,-23.800000000000004,-33.300000000000004,6.9,16
108,1983.0,0.7000000000000001,0.7000000000000001,-0.5,6.1000000000000005,-0.9,7.6000000000000005,-23.2,-36.1,7.0,16
109,1999.0,0.4,0.6000000000000001,-0.8,5.9,-1.0,7.2,-21.6,-31.7,8.600000000000001,16
110,2016.0,0.6000000000000001,0.5,-1.2000000000000002,6.1000000000000005,-1.1,6.7,-21.8,-19.9,9.3,16
111,2033.0,0.8,0.4,-0.5,6.4,-1.3,7.4,-19.5,-7.500000000000001,5.2,16
112,2049.0,0.9,0.4,-0.5,6.5,-1.3,7.300000000000001,-12.9,4.0,-3.0,16
113,2066.0,0.7000000000000001,0.30000000000000004,-0.1,6.300000000000001,-1.4000000000000001,7.800000000000001,-5.2,17.9,-9.8,16
114,2083.0,0.5,0.30000000000000004,-0.1,6.1000000000000005,-1.4000000000000001,7.800000000000001,-2.8,18.0,-10.700000000000001,16
115,2099.0,0.4,0.4,-0.1,6.0,-1.4000000000000001,7.800000000000001,-5.2,13.399999999999999,-8.600000000000001,16
116,2116.0,0.5,0.5,0.2,6.0,-1.3,8.1,-8.2,7.300000000000001,-3.6000000000000005,16
117,2133.0,0.4,0.6000000000000001,0.4,6.0,-1.2000000000000002,8.4,-7.6,-0.6000000000000001,3.0,16
118,2150.0,0.5,0.6000000000000001,0.5,6.0,-1.2000000000000002,8.4,-4.5,-4.800000000000001,8.700000000000001,16
119,2166.0,0.6000000000000001,0.4,0.30000000000000004,6.1000000000000005,-1.4000000000000001,8.200000000000001,-0.30000000000000004,-6.300000000000001,13.3,16
120,2183.0,0.6000000000000001,0.2,0.2,6.2,-1.6,8.1,1.6,-3.8,14.600000000000001,16
121,2200.0,0.4,0.2,0.5,6.0,-1.6,8.4,4.300000000000001,2.3,13.100000000000001,16
122,2237.0,-0.6000000000000001,0.1,0.6000000000000001,4.9,-1.6,8.6,11.1,9.4,21.0,16
123,2250.0,-0.6000000000000001,0.1,0.7000000000000001,4.9,-1.6,8.6,9.4,7.8,27.099999999999998,16
124,2266.0,0.30000000000000004,-0.1,1.1,5.7,-1.8,9.1,8.2,-1.0,40.1,16
125,2283.0,1.3,-0.4,1.0,6.7,-2.2,9.0,9.2,-6.600000000000001,40.7,16
126,2300.0,1.9000000000000001,-0.7000000000000001,0.9,7.300000000000001,-2.5,8.9,10.600000000000001,-8.3,29.700000000000006,16
127,2323.0,1.5,-0.8,0.7000000000000001,7.0,-2.6,8.6,12.600000000000001,-7.0,5.4,16
128,2333.0,1.0,-0.7000000000000001,0.5,6.5,-2.5,8.5,13.6,-4.7,-5.500000000000001,16
129,2354.0,-0.6000000000000001,0.0,0.2,4.800000000000001,-1.7000000000000002,8.200000000000001,16.900000000000002,3.2,-21.300000000000004,16
130,2367.0,-1.1,0.30000000000000004,0.1,4.3,-1.4000000000000001,8.1,19.5,7.9,-23.2,16
131,2383.0,-1.8,0.5,0.1,3.7,-1.1,8.1,23.800000000000004,15.700000000000001,-20.8,16
132,2400.0,-2.0,0.4,0.2,3.5,-1.2000000000000002,8.200000000000001,28.400000000000002,19.0,-13.100000000000001,16
133,2422.0,-1.7000000000000002,0.1,0.4,3.7,-1.3,8.5,25.200000000000003,9.899999999999999,-1.5,16
134,2446.0,-1.5,-0.2,0.6000000000000001,3.8000000000000003,-1.5,8.8,20.8,-5.0,7.300000000000001,16
135,2450.0,-1.4000000000000001,-0.30000000000000004,0.6000000000000001,3.8000000000000003,-1.5,8.8,19.0,-11.2,10.600000000000001,16
136,2466.0,-1.4000000000000001,-0.4,0.5,4.0,-1.7000000000000002,8.700000000000001,17.7,-15.100000000000001,12.8,16
137,2485.0,-1.3,-0.5,0.4,4.0,-1.8,8.5,14.200000000000001,-18.900000000000002,18.5,16
138,2500.0,-1.3,-0.4,0.4,4.0,-1.7000000000000002,8.5,14.800000000000002,-14.700000000000001,18.8,16
139,2527.0,-1.3,-0.4,0.2,4.1000000000000005,-1.7000000000000002,8.3,16.6,-6.8,18.5,16
140,2533.0,-1.3,-0.4,0.2,4.1000000000000005,-1.7000000000000002,8.3,16.5,-3.9,18.700000000000003,16
141,2551.0,-0.7000000000000001,-0.1,0.0,4.2,-1.5,8.4,16.1,-1.3,18.8,16
142,2567.0,-0.6000000000000001,0.2,0.2,4.2,-1.3,8.6,16.5,-0.2,17.7,16
143,2584.0,-0.7000000000000001,0.4,0.1,4.1000000000000005,-1.0,8.6,20.900000000000002,-1.0,18.3,16
144,2600.0,-0.5,0.5,-0.4,4.0,-0.9,8.1,22.4,-2.7,18.8,16
145,2622.0,-0.5,0.6000000000000001,-0.9,4.0,-0.7000000000000001,7.800000000000001,22.1,-3.7000000000000006,20.0,16
146,2634.0,-0.4,0.5,-1.0,4.0,-0.7000000000000001,7.6000000000000005,21.300000000000004,-3.5,20.7,16
147,2651.0,-0.1,0.5,-1.2000000000000002,4.4,-0.7000000000000001,7.5,17.0,-1.7,21.0,16
148,2667.0,0.1,0.7000000000000001,-0.9,4.5,-0.5,7.7,15.899999999999999,-1.0,19.6,16
149,2683.0,0.1,0.9,-0.9,4.6000000000000005,-0.30000000000000004,7.800000000000001,15.899999999999999,-1.3,19.300000000000004,16
150,2701.0,0.2,0.8,-0.9,4.7,-0.30000000000000004,7.800000000000001,15.8,-3.1,19.799999999999997,16
151,2723.0,0.5,0.9,-0.8,5.0,-0.2,7.800000000000001,13.399999999999999,-6.699999999999999,20.900000000000002,16
152,2733.0,0.6000000000000001,0.9,-0.7000000000000001,5.1000000000000005,-0.2,7.9,12.600000000000001,-7.8,20.599999999999998,16
153,2750.0,0.8,0.8,-0.4,5.300000000000001,-0.30000000000000004,8.200000000000001,12.299999999999999,-9.700000000000001,19.200000000000003,16
154,2767.0,1.1,0.7000000000000001,-0.30000000000000004,5.7,-0.30000000000000004,8.3,12.100000000000001,-14.600000000000001,14.700000000000001,16
155,2783.0,1.2000000000000002,0.6000000000000001,-0.30000000000000004,5.9,-0.4,8.3,11.2,-18.3,9.600000000000001,16
156,2800.0,1.0,0.6000000000000001,-0.2,5.800000000000001,-0.2,8.3,10.200000000000001,-22.5,2.6,16
157,2825.0,0.30000000000000004,1.0,-0.2,5.2,0.2,8.3,11.6,-26.400000000000006,-4.0,16
158,2835.0,0.1,1.0,-0.30000000000000004,5.1000000000000005,0.2,8.1,12.100000000000001,-27.0,-4.9,16
159,2850.0,-0.1,0.7000000000000001,-0.5,4.9,0.0,7.9,10.5,-28.700000000000003,-6.9,16
160,2867.0,-0.1,0.1,-1.1,4.9,-0.6000000000000001,7.2,1.5,-30.200000000000003,-8.3,16
161,2883.0,0.1,-0.6000000000000001,-0.6000000000000001,5.300000000000001,-1.3,7.7,-15.299999999999999,-31.7,-8.700000000000001,16
162,2900.0,0.4,-1.5,0.7000000000000001,5.7,-2.2,8.9,-24.5,-26.6,-7.400000000000001,16
163,2923.0,2.3000000000000003,-2.3000000000000003,2.2,7.6000000000000005,-3.1,10.4,-21.6,1.5,-7.1000000000000005,16
164,2934.0,3.4000000000000004,-2.8000000000000003,2.9000000000000004,8.700000000000001,-3.6,11.100000000000001,-9.700000000000001,21.6,-15.399999999999999,16
165,2961.0,3.5,-3.0,2.2,8.8,-3.7,10.5,8.3,26.6,-33.800000000000004,16
166,2966.0,2.8000000000000003,-2.8000000000000003,1.5,8.0,-3.5,9.700000000000001,11.700000000000001,23.0,-41.7,16
167,2988.0,0.8,-2.1,-1.2000000000000002,6.0,-2.6,7.1000000000000005,5.8,19.6,-47.1,16
168,3000.0,0.5,-1.9000000000000001,-1.6,5.6000000000000005,-2.4000000000000004,6.800000000000001,1.3,20.599999999999998,-44.9,16
169,3018.0,0.1,-1.6,-1.9000000000000001,5.2,-2.1,6.5,-8.4,24.3,-37.800000000000004,16
170,3033.0,0.5,-1.5,-1.3,5.6000000000000005,-2.0,7.1000000000000005,-15.899999999999999,32.2,-28.500000000000004,16
171,3058.0,1.7000000000000002,-1.6,-0.5,6.6000000000000005,-2.1,8.0,-13.6,35.3,-25.1,16
172,3067.0,1.9000000000000001,-1.5,-0.4,6.800000000000001,-2.0,8.0,-12.4,33.300000000000004,-26.000000000000004,16
173,3084.0,2.0,-1.3,-0.7000000000000001,6.800000000000001,-1.7000000000000002,7.800000000000001,-12.4,20.2,-29.400000000000002,16
174,3100.0,1.6,-0.9,-1.2000000000000002,6.4,-1.4000000000000001,7.300000000000001,-13.6,11.700000000000001,-30.3,16
175,3128.0,0.9,-0.6000000000000001,-2.0,5.7,-1.1,6.6000000000000005,-15.399999999999999,0.8,-29.400000000000002,16
176,3135.0,0.8,-0.5,-2.1,5.6000000000000005,-1.0,6.4,-16.3,-1.2000000000000002,-28.900000000000002,16
177,3150.0,0.5,-0.4,-2.3000000000000003,5.4,-1.0,6.2,-16.0,-1.0,-28.600000000000005,16
178,3173.0,0.4,-0.4,-2.3000000000000003,5.300000000000001,-0.9,6.2,-13.399999999999999,3.0,-28.400000000000002,16
179,3183.0,0.30000000000000004,-0.30000000000000004,-2.2,5.1000000000000005,-0.8,6.300000000000001,-9.899999999999999,8.100000000000001,-28.700000000000003,16
180,3200.0,0.1,-0.2,-2.2,4.9,-0.7000000000000001,6.300000000000001,-7.6,12.600000000000001,-27.5,16
181,3222.0,0.1,0.0,-1.9000000000000001,4.9,-0.5,6.7,-6.600000000000001,12.200000000000001,-21.200000000000003,16
182,3234.0,0.1,0.0,-1.8,4.9,-0.5,6.800000000000001,-7.0,10.4,-18.8,16
183,3250.0,0.2,-0.1,-1.6,4.9,-0.6000000000000001,7.0,-8.700000000000001,3.9,-10.600000000000001,16
184,3267.0,0.2,-0.4,-1.3,5.0,-0.8,7.2,-10.0,1.4,-5.6,16
185,3283.0,0.6000000000000001,-0.4,-1.0,5.300000000000001,-0.9,7.6000000000000005,-12.200000000000001,-0.6000000000000001,-1.7,16
186,3300.0,0.8,-0.4,-0.6000000000000001,5.5,-0.9,8.0,-13.100000000000001,-1.4,0.6000000000000001,16
187,3336.0,1.2000000000000002,-0.1,0.2,5.9,-0.7000000000000001,8.700000000000001,-9.5,-2.9,5.1000000000000005,16
188,3351.0,0.9,-0.1,0.5,6.0,-0.7000000000000001,8.9,-6.8,-6.1000000000000005,6.300000000000001,16
189,3366.0,0.4,0.1,0.8,5.7,-0.6000000000000001,8.9,-5.1000000000000005,-8.5,7.500000000000001,16
190,3383.0,0.1,0.4,0.9,5.4,-0.4,9.0,-1.2000000000000002,-8.700000000000001,10.200000000000001,16
191,3401.0,-0.4,0.6000000000000001,0.8,4.9,0.0,9.0,9.0,-3.6000000000000005,13.8,16
192,3425.0,-0.7000000000000001,0.5,1.0,4.6000000000000005,-0.2,9.200000000000001,17.5,4.5,15.299999999999999,16
193,3434.0,-0.9,0.30000000000000004,1.1,4.4,-0.30000000000000004,9.3,19.300000000000004,6.8,15.5,16
194,3450.0,-1.2000000000000002,-0.2,1.6,4.1000000000000005,-0.8,9.9,21.900000000000002,10.0,18.200000000000003,16
195,3466.0,-1.1,-0.9,2.2,4.2,-1.5,10.5,24.5,10.0,25.300000000000004,16
196,3485.0,-0.8,-1.4000000000000001,2.3000000000000003,4.5,-2.0,10.600000000000001,30.3,10.0,33.7,16
197,3500.0,-0.4,-1.9000000000000001,2.0,4.800000000000001,-2.5,10.3,36.0,11.2,41.7,16
198,3530.0,1.5,-2.4000000000000004,0.8,6.7,-2.9000000000000004,9.1,39.2,5.7,52.2,16
199,3536.0,1.5,-2.4000000000000004,0.8,6.7,-2.9000000000000004,9.1,38.0,0.9000000000000001,48.10000000000001,16
200,3550.0,2.3000000000000003,-2.7,0.0,7.4,-3.1,8.3,36.5,-2.2,42.1,16
201,3566.0,2.0,-2.8000000000000003,-0.7000000000000001,7.2,-3.2,7.7,32.9,-7.300000000000001,24.7,16
202,3583.0,-0.2,-1.9000000000000001,-1.6,5.0,-2.3000000000000003,6.7,25.7,-5.7,-1.8000000000000003,16
203,3600.0,-1.8,-1.2000000000000002,-1.8,3.4000000000000004,-1.5,6.5,16.4,2.6,-3.5,16
204,3623.0,-2.5,-0.8,-1.3,2.7,-1.0,7.0,-1.3,12.299999999999999,16.0,16
205,3633.0,-1.8,-0.6000000000000001,-0.30000000000000004,3.3000000000000003,-0.9,8.1,-4.9,13.8,22.000000000000004,16
206,3650.0,-0.9,-0.5,0.9,4.2,-0.9,9.3,-6.300000000000001,14.200000000000001,29.1,16
207,3666.0,-0.1,-0.4,1.6,4.9,-0.8,10.0,-1.3,7.699999999999999,32.2,16
208,3685.0,0.2,-0.30000000000000004,1.7000000000000002,5.300000000000001,-0.8,10.100000000000001,3.4,-2.0,33.1,16
209,3700.0,0.2,-0.2,1.4000000000000001,5.300000000000001,-0.7000000000000001,9.700000000000001,7.300000000000001,-15.5,33.9,16
210,3726.0,0.2,-0.30000000000000004,0.4,5.300000000000001,-0.9,8.8,12.200000000000001,-23.0,28.600000000000005,16
211,3734.0,0.1,-0.30000000000000004,0.1,5.2,-0.8,8.4,13.6,-21.500000000000004,25.900000000000002,16
212,3751.0,-0.4,0.0,-0.30000000000000004,4.800000000000001,-0.5,8.0,18.0,-12.8,17.9,16
213,3766.0,-0.6000000000000001,0.2,-0.5,4.6000000000000005,-0.4,7.800000000000001,19.1,-10.9,16.1,16
214,3784.0,-1.0,0.30000000000000004,-0.9,4.2,-0.30000000000000004,7.4,21.0,-6.300000000000001,11.3,16
215,3800.0,-1.4000000000000001,0.2,-1.2000000000000002,3.9000000000000004,-0.30000000000000004,7.1000000000000005,20.8,-3.9,8.4,16
216,3823.0,-1.7000000000000002,0.1,-1.4000000000000001,3.5,-0.30000000000000004,6.9,17.5,0.2,7.300000000000001,16
217,3833.0,-1.7000000000000002,0.1,-1.4000000000000001,3.6,-0.30000000000000004,6.9,15.5,2.2,7.8,16
218,3863.0,-1.3,0.1,-0.6000000000000001,3.9000000000000004,-0.30000000000000004,7.7,11.900000000000002,5.300000000000001,11.900000000000002,16
219,3866.0,-1.3,0.1,-0.6000000000000001,3.9000000000000004,-0.30000000000000004,7.7,11.900000000000002,5.300000000000001,11.900000000000002,16
220,3883.0,-1.2000000000000002,0.2,-0.4,4.0,-0.1,7.9,11.2,2.8,14.900000000000002,16
221,3900.0,-1.0,0.4,-0.30000000000000004,4.2,0.0,8.0,11.000000000000002,-1.0,18.900000000000002,16
222,3916.0,-0.9,0.5,-0.5,4.3,0.1,7.800000000000001,9.700000000000001,-7.200000000000001,23.6,16
223,3933.0,-0.9,0.5,-0.6000000000000001,4.3,0.1,7.7,8.3,-8.700000000000001,24.5,16
224,3950.0,-0.6000000000000001,0.4,-0.6000000000000001,4.6000000000000005,0.0,7.6000000000000005,1.4,-11.700000000000001,26.000000000000004,16
225,3968.0,0.0,0.2,-0.4,5.2,-0.30000000000000004,7.800000000000001,-3.9,-11.3,22.000000000000004,16
226,3983.0,0.1,0.4,0.1,5.4,-0.1,8.4,-8.100000000000001,-10.9,13.399999999999999,16
227,4004.0,-0.2,0.8,0.9,5.1000000000000005,0.30000000000000004,9.200000000000001,-5.500000000000001,-9.0,8.2,16
228,4025.0,-0.7000000000000001,1.6,1.6,4.6000000000000005,1.1,9.9,0.1,-7.0,11.000000000000002,16
229,4033.0,-0.9,1.9000000000000001,1.8,4.3,1.4000000000000001,10.100000000000001,5.2,-6.4,14.700000000000001,16
230,4049.0,-1.3,2.4000000000000004,2.0,4.0,1.9000000000000001,10.3,15.399999999999999,-6.9,23.900000000000006,16
231,4067.0,-0.8,1.3,1.0,4.0,1.7000000000000002,10.0,37.7,-9.899999999999999,40.5,16
232,4085.0,0.9,-0.7000000000000001,-1.0,6.2,-1.1,7.2,31.5,-15.299999999999999,34.800000000000004,16
233,4100.0,2.0,-1.7000000000000002,-1.9000000000000001,7.4,-2.1,6.300000000000001,5.8,-20.5,14.5,16
234,4136.0,1.8,-2.0,-0.6000000000000001,7.300000000000001,-2.5,7.5,-35.2,-6.4,-23.400000000000002,16
235,4150.0,2.2,-2.2,0.7000000000000001,7.7,-2.8000000000000003,8.8,-38.400000000000006,18.900000000000002,-29.900000000000006,16
236,4168.0,3.2,-2.5,1.8,8.6,-3.1,10.0,-32.300000000000004,38.2,-39.1,16
237,4183.0,3.4000000000000004,-2.5,2.3000000000000003,8.8,-3.1,10.5,-15.000000000000002,51.300000000000004,-54.699999999999996,16
238,4200.0,2.5,-2.3000000000000003,1.6,7.7,-2.8000000000000003,9.9,-0.8,52.5,-68.5,16
239,4216.0,1.2000000000000002,-2.1,0.7000000000000001,6.300000000000001,-2.5,9.0,-1.6,49.800000000000004,-70.9,16
240,4233.0,0.5,-1.9000000000000001,0.30000000000000004,5.5,-2.3000000000000003,8.700000000000001,-12.4,43.300000000000004,-63.10000000000001,16
241,4252.0,0.5,-1.8,0.8,5.4,-2.1,9.3,-28.0,30.799999999999997,-49.9,16
242,4266.0,0.5,-1.5,0.9,5.300000000000001,-1.8,9.5,-28.500000000000004,22.5,-40.7,16
243,4284.0,0.4,-1.2000000000000002,0.6000000000000001,5.1000000000000005,-1.5,9.200000000000001,-23.099999999999998,16.4,-34.1,16
244,4300.0,0.4,-1.2000000000000002,0.30000000000000004,5.1000000000000005,-1.5,8.9,-20.7,13.200000000000003,-32.9,16
245,4339.0,-0.30000000000000004,-1.0,-1.3,4.5,-1.4000000000000001,7.4,-13.900000000000002,5.500000000000001,-28.600000000000005,16
246,4350.0,-0.30000000000000004,-0.9,-1.4000000000000001,4.4,-1.2000000000000002,7.2,-13.8,5.0,-28.900000000000002,16
247,4368.0,-0.5,-0.7000000000000001,-1.5,4.2,-1.0,7.1000000000000005,-12.4,6.300000000000001,-29.400000000000002,16
248,4383.0,-0.6000000000000001,-0.2,-1.3,4.2,-0.8,7.2,-8.3,10.4,-28.1,16
249,4402.0,-0.4,0.0,-1.1,4.4,-0.8,7.5,-0.8,13.100000000000001,-26.700000000000003,16
250,4417.0,-0.4,0.0,-1.0,4.3,-0.8,7.5,3.3000000000000007,11.3,-25.200000000000003,16
251,4434.0,-0.30000000000000004,0.1,-0.8,4.5,-0.6000000000000001,7.7,6.699999999999999,6.2,-21.400000000000002,16
252,4450.0,-0.2,0.0,-0.9,4.5,-0.6000000000000001,7.7,7.300000000000001,-0.2,-18.1,16
253,4466.0,-0.30000000000000004,0.0,-1.0,4.4,-0.6000000000000001,7.5,5.6,-9.3,-14.600000000000001,16
254,4485.0,-0.30000000000000004,0.0,-1.2000000000000002,4.5,-0.6000000000000001,7.4,2.9,-16.3,-11.000000000000002,16
255,4500.0,-0.4,0.0,-1.3,4.4,-0.6000000000000001,7.2,1.1,-17.400000000000002,-8.100000000000001,16
256,4516.0,-0.4,0.1,-1.3,4.5,-0.5,7.2,0.30000000000000004,-13.200000000000003,-4.2,16
257,4533.0,-0.1,0.1,-1.1,4.800000000000001,-0.5,7.4,0.6000000000000001,-6.500000000000001,-1.9,16
258,4550.0,0.1,0.1,-0.8,5.0,-0.5,7.7,0.5,2.2,-1.2000000000000002,16
259,4568.0,0.2,0.2,-0.30000000000000004,5.1000000000000005,-0.30000000000000004,8.200000000000001,-0.7,6.4,0.5,16
260,4583.0,0.4,0.4,0.5,5.2,-0.2,8.9,-1.1,5.7,4.7,16
261,4601.0,0.5,0.6000000000000001,1.0,5.4,0.0,9.5,1.6,-4.2,9.600000000000001,16
262,4616.0,0.1,0.6000000000000001,1.1,5.0,0.1,9.600000000000001,3.7000000000000006,-9.100000000000001,13.000000000000002,16
263,4633.0,-0.2,0.5,1.0,4.7,0.2,9.5,6.300000000000001,-12.0,16.700000000000003,16
264,4650.0,-0.9,0.5,1.1,4.1000000000000005,0.1,9.600000000000001,6.9,-11.2,19.799999999999997,16
265,4667.0,-1.6,0.4,1.4000000000000001,3.4000000000000004,0.0,9.9,5.0,-10.5,28.200000000000003,16
266,4683.0,-1.6,0.0,1.9000000000000001,3.4000000000000004,-0.4,10.3,1.8000000000000003,-12.100000000000001,40.2,16
267,4700.0,-0.7000000000000001,-0.5,2.3000000000000003,4.3,-1.0,10.700000000000001,2.4000000000000004,-13.6,52.1,16
268,4716.0,0.2,-1.1,2.4000000000000004,5.2,-1.6,10.8,13.100000000000001,-7.300000000000001,57.00000000000001,16
269,4733.0,0.9,-1.5,1.8,5.9,-2.1,10.200000000000001,24.1,-0.1,56.50000000000001,16
270,4761.0,1.8,-2.1,0.5,6.800000000000001,-2.7,8.9,30.799999999999997,7.300000000000001,34.60000000000001,16
271,4767.0,1.6,-2.2,0.2,6.6000000000000005,-2.8000000000000003,8.700000000000001,30.5,7.1000000000000005,24.5,16
272,4783.0,0.9,-1.9000000000000001,-0.30000000000000004,5.800000000000001,-2.4000000000000004,8.1,29.1,5.4,9.600000000000001,16
273,4801.0,0.30000000000000004,-1.7000000000000002,-0.6000000000000001,5.300000000000001,-2.2,7.9,27.5,4.6,4.5,16
274,4816.0,-1.0,-1.2000000000000002,-1.0,4.0,-1.7000000000000002,7.5,19.300000000000004,2.1,2.1,16
275,4844.0,-1.5,-1.2000000000000002,-0.8,3.4000000000000004,-1.6,7.7,-2.8,-1.2000000000000002,21.8,16
276,4851.0,-1.1,-1.2000000000000002,-0.6000000000000001,3.8000000000000003,-1.7000000000000002,7.800000000000001,-6.8,-0.1,26.1,16
277,4868.0,-0.4,-1.2000000000000002,0.2,4.5,-1.8,8.6,-10.8,4.9,29.400000000000002,16
278,4883.0,-0.1,-1.2000000000000002,0.6000000000000001,4.800000000000001,-1.8,9.1,-9.4,7.200000000000001,27.400000000000002,16
279,4908.0,0.2,-1.0,0.6000000000000001,5.1000000000000005,-1.7000000000000002,9.1,-7.6,5.6,22.700000000000003,16
280,4917.0,0.30000000000000004,-0.8,0.5,5.1000000000000005,-1.6,9.0,-7.8,3.5,21.200000000000003,16
281,4933.0,0.2,0.1,0.30000000000000004,4.9,-1.1,8.8,-7.300000000000001,-3.3000000000000007,17.7,16
282,4954.0,0.0,0.5,0.1,4.7,-0.8,8.6,-4.1,-5.300000000000001,15.5,16
283,4975.0,-0.30000000000000004,0.6000000000000001,-0.5,4.5,-0.6000000000000001,8.0,0.9000000000000001,-4.4,6.600000000000001,16
284,4984.0,-0.5,0.6000000000000001,-0.7000000000000001,4.2,-0.6000000000000001,7.800000000000001,2.4000000000000004,-3.5,3.8,16
285,5000.0,-0.9,0.9,-1.2000000000000002,3.8000000000000003,-0.30000000000000004,7.300000000000001,3.5,0.30000000000000004,-0.5,16
286,5025.0,-1.4000000000000001,0.9,-1.3,3.4000000000000004,-0.30000000000000004,7.2,2.9,3.7000000000000006,-2.7,16
287,5033.0,-1.5,0.9,-1.2000000000000002,3.2,-0.30000000000000004,7.300000000000001,2.4000000000000004,5.0,-2.4000000000000004,16
288,5050.0,-1.6,0.9,-1.1,3.1,-0.30000000000000004,7.4,1.2000000000000002,7.0,-0.7,16
289,5068.0,-1.6,0.9,-0.7000000000000001,3.1,-0.30000000000000004,7.800000000000001,-1.1,7.400000000000001,5.9,16
290,5083.0,-1.5,0.9,-0.5,3.1,-0.30000000000000004,8.0,-2.0,5.1000000000000005,11.900000000000002,16
291,5103.0,-1.1,0.8,-0.30000000000000004,3.6,-0.4,8.3,-2.6,0.9000000000000001,17.200000000000003,16
292,5117.0,-0.7000000000000001,0.8,-0.30000000000000004,3.9000000000000004,-0.5,8.3,-4.1,-3.4,20.400000000000002,16
293,5133.0,-0.4,0.8,0.0,4.2,-0.5,8.5,-4.6,-6.1000000000000005,21.6,16
294,5150.0,-0.2,1.0,0.2,4.5,-0.30000000000000004,8.700000000000001,-1.3,-10.1,20.0,16
295,5166.0,-0.1,1.2000000000000002,0.1,4.5,-0.2,8.6,1.5,-12.4,17.7,16
296,5183.0,-0.2,1.3,-0.1,4.5,-0.1,8.4,2.3,-13.100000000000001,15.6,16
297,5200.0,0.1,0.9,-0.4,4.7,-0.1,8.200000000000001,0.9000000000000001,-13.100000000000001,13.200000000000003,16
298,5216.0,0.30000000000000004,0.8,-0.30000000000000004,4.9,0.1,8.3,-2.2,-11.6,8.899999999999999,16
299,5234.0,0.1,0.9,0.2,4.800000000000001,0.5,8.9,-2.3,-11.1,6.2,16
300,5252.0,-0.1,0.9,0.9,4.5,0.9,9.600000000000001,1.4,-12.0,9.5,16
301,5266.0,-0.1,0.9,1.3,4.4,1.1,9.9,7.500000000000001,-15.6,15.100000000000001,16
302,5283.0,0.1,0.5,1.3,4.6000000000000005,0.8,10.0,14.100000000000001,-22.3,20.400000000000002,16
303,5300.0,1.1,-1.0,0.30000000000000004,5.7,-0.7000000000000001,9.0,16.0,-29.400000000000002,20.8,16
304,5316.0,1.9000000000000001,-2.1,-0.6000000000000001,6.5,-1.8,8.0,1.7,-32.2,7.8,16
305,5334.0,1.7000000000000002,-2.6,-0.2,6.4,-2.3000000000000003,8.4,-13.700000000000001,-27.400000000000002,-3.9,16
306,5353.0,1.7000000000000002,-3.0,1.0,6.5,-2.8000000000000003,9.5,-21.500000000000004,-9.4,-8.600000000000001,16
307,5366.0,2.6,-3.5,1.8,7.4,-3.3000000000000003,10.3,-19.6,13.700000000000001,-12.100000000000001,16
308,5383.0,3.7,-3.8000000000000003,2.5,8.4,-3.6,11.100000000000001,-6.8,35.0,-25.300000000000004,16
309,5401.0,3.5,-3.9000000000000004,2.1,8.200000000000001,-3.7,10.700000000000001,4.5,37.50000000000001,-44.9,16
310,5418.0,1.2000000000000002,-3.5,0.2,5.7,-3.1,8.9,6.8,27.3,-63.8,16
311,5459.0,-0.7000000000000001,-2.4000000000000004,-1.3,3.7,-1.9000000000000001,7.4,-6.600000000000001,24.1,-46.800000000000004,16
312,5466.0,-0.4,-2.4000000000000004,-1.3,3.9000000000000004,-1.8,7.5,-16.900000000000002,28.600000000000005,-28.700000000000003,16
313,5487.0,0.7000000000000001,-2.7,-0.7000000000000001,4.9,-2.2,8.1,-23.0,32.400000000000006,-19.400000000000002,16
314,5502.0,1.5,-3.0,-0.4,5.7,-2.5,8.5,-25.8,33.6,-19.5,16
315,5516.0,2.1,-2.9000000000000004,-0.30000000000000004,6.2,-2.5,8.6,-27.700000000000003,30.1,-26.1,16
316,5545.0,1.3,-2.0,-0.6000000000000001,5.300000000000001,-1.7000000000000002,8.4,-26.9,8.2,-47.7,16
317,5550.0,1.3,-2.0,-0.6000000000000001,5.300000000000001,-1.7000000000000002,8.4,-26.9,8.2,-47.7,16
318,5567.0,0.30000000000000004,-1.3,-1.3,4.3,-1.0,7.6000000000000005,-21.500000000000004,0.2,-51.300000000000004,16
319,5587.0,-0.9,-0.7000000000000001,-2.2,3.1,-0.5,6.7,-16.200000000000003,-2.0,-46.1,16
320,5600.0,-1.3,-0.4,-2.6,2.7,-0.2,6.4,-14.800000000000002,3.7000000000000006,-38.60000000000001,16
321,5619.0,-1.1,-0.30000000000000004,-2.5,2.9000000000000004,-0.1,6.4,-14.5,13.399999999999999,-28.600000000000005,16
322,5633.0,-0.8,-0.30000000000000004,-1.9000000000000001,3.2,-0.1,7.1000000000000005,-12.8,19.9,-21.300000000000004,16
323,5650.0,-0.1,-0.4,-1.3,3.8000000000000003,-0.2,7.7,-9.700000000000001,19.9,-15.299999999999999,16
324,5668.0,0.2,-0.5,-1.0,4.0,-0.30000000000000004,8.0,-7.6,13.700000000000001,-10.9,16
325,5683.0,0.4,-0.7000000000000001,-0.9,4.3,-0.4,8.1,-6.500000000000001,7.400000000000001,-7.6,16
326,5702.0,0.6000000000000001,-0.8,-0.9,4.4,-0.6000000000000001,8.1,-5.500000000000001,-0.2,-5.300000000000001,16
327,5716.0,0.7000000000000001,-0.8,-0.8,4.5,-0.6000000000000001,8.3,-4.800000000000001,-1.8000000000000003,-5.0,16
328,5738.0,0.7000000000000001,-0.7000000000000001,-0.8,4.5,-0.5,8.200000000000001,-1.6,-2.2,-2.8,16
329,5751.0,0.6000000000000001,-0.9,-0.7000000000000001,4.4,-0.7000000000000001,8.3,-0.9000000000000001,0.6000000000000001,1.2000000000000002,16
330,5767.0,0.5,-0.8,-0.5,4.5,-0.8,8.4,-1.7,2.6,4.7,16
331,5784.0,0.4,-0.5,0.0,4.6000000000000005,-0.8,8.8,-3.6000000000000005,3.4,8.100000000000001,16
332,5800.0,0.30000000000000004,-0.2,0.5,4.7,-0.7000000000000001,9.200000000000001,-2.9,4.2,11.4,16
333,5817.0,0.4,0.0,0.9,4.800000000000001,-0.6000000000000001,9.600000000000001,0.8,3.9,16.4,16
334,5839.0,0.5,0.1,0.8,4.9,-0.5,9.600000000000001,4.7,0.2,19.300000000000004,16
335,5850.0,0.1,0.2,0.7000000000000001,4.5,-0.4,9.4,7.400000000000001,-4.9,21.7,16
336,5868.0,-0.5,0.5,0.5,4.0,-0.1,9.200000000000001,7.6,-7.8,26.300000000000004,16
337,5883.0,-0.9,0.4,0.8,3.5,-0.2,9.5,5.4,-8.2,35.5,16
338,5900.0,-1.0,-0.2,1.5,3.5,-0.8,10.200000000000001,2.6,-11.5,45.099999999999994,16
339,5917.0,-0.4,-0.8,2.1,4.1000000000000005,-1.6,10.700000000000001,-3.7000000000000006,-18.6,61.50000000000001,16
340,5944.0,0.9,-1.3,2.3000000000000003,5.5,-2.1,10.9,8.100000000000001,-9.600000000000001,73.2,16
341,5956.0,1.5,-1.5,2.1,6.0,-2.4000000000000004,10.700000000000001,19.5,-0.9000000000000001,67.2,16
342,5967.0,2.6,-2.1,1.4000000000000001,7.1000000000000005,-3.1,10.0,22.4,1.4,59.9,16
343,5983.0,3.0,-2.4000000000000004,0.7000000000000001,7.5,-3.4000000000000004,9.3,24.200000000000003,1.8000000000000003,32.400000000000006,16
344,6000.0,2.3000000000000003,-2.3000000000000003,0.1,6.800000000000001,-3.3000000000000003,8.700000000000001,21.900000000000002,1.1,7.9,16
345,6016.0,1.0,-1.8,-0.2,5.4,-2.7,8.5,19.1,-0.1,-9.8,16
346,6033.0,-0.2,-1.6,-0.5,4.2,-2.4000000000000004,8.200000000000001,17.9,-1.4,-14.900000000000002,16
347,6052.0,-1.1,-1.4000000000000001,-0.9,3.4000000000000004,-2.2,7.800000000000001,13.700000000000001,-1.2000000000000002,-11.4,16
348,6066.0,-1.5,-1.5,-0.9,3.0,-2.2,7.800000000000001,6.9,1.0,-2.6,16
349,6087.0,-0.6000000000000001,-1.7000000000000002,-0.4,3.9000000000000004,-2.5,8.3,-3.6000000000000005,6.9,8.700000000000001,16
350,6100.0,0.0,-1.7000000000000002,0.30000000000000004,4.4,-2.6,9.0,-4.7,10.0,7.8,16
351,6116.0,0.1,-1.6,0.5,4.5,-2.5,9.200000000000001,-2.6,9.899999999999999,5.4,16
352,6142.0,-0.1,-1.1,0.4,4.3,-2.0,9.1,-1.7,5.1000000000000005,3.3000000000000007,16
353,6150.0,-0.1,-0.5,0.30000000000000004,4.3,-1.8,9.0,-1.6,2.3,3.1,16
354,6166.0,-0.2,0.2,0.0,4.0,-1.5,8.700000000000001,0.6000000000000001,-4.6,2.6,16
355,6183.0,-0.6000000000000001,0.6000000000000001,-0.6000000000000001,3.7,-1.1,8.1,3.1,-8.899999999999999,2.8,16
356,6200.0,-1.0,0.8,-1.2000000000000002,3.2,-0.9,7.4,4.4,-10.4,3.5,16
357,6216.0,-1.3,1.0,-1.5,3.0,-0.8,7.1000000000000005,4.0,-9.100000000000001,5.0,16
358,6233.0,-1.4000000000000001,1.2000000000000002,-1.6,2.9000000000000004,-0.6000000000000001,7.0,3.2,-7.300000000000001,6.1000000000000005,16
359,6250.0,-1.5,1.2000000000000002,-1.6,2.8000000000000003,-0.5,7.1000000000000005,1.8000000000000003,-4.7,8.3,16
360,6266.0,-1.4000000000000001,1.3,-1.3,2.9000000000000004,-0.4,7.300000000000001,-2.1,-4.9,12.200000000000001,16
361,6283.0,-1.3,1.3,-0.9,3.1,-0.5,7.7,-4.300000000000001,-7.400000000000001,15.899999999999999,16
362,6300.0,-1.1,1.3,-0.5,3.3000000000000003,-0.5,8.1,-4.6,-8.899999999999999,18.700000000000003,16
363,6317.0,-0.8,1.3,-0.30000000000000004,3.5,-0.6000000000000001,8.3,-4.2,-10.5,21.0,16
364,6340.0,-0.7000000000000001,1.3,-0.1,3.6,-0.7000000000000001,8.4,-4.6,-11.900000000000002,23.900000000000006,16
365,6350.0,-0.6000000000000001,1.3,0.0,3.8000000000000003,-0.6000000000000001,8.6,-4.6,-12.100000000000001,25.300000000000004,16
366,6368.0,-0.30000000000000004,1.4000000000000001,0.30000000000000004,4.1000000000000005,-0.6000000000000001,8.9,-4.5,-12.7,27.700000000000003,16
367,6383.0,0.1,1.6,0.6000000000000001,4.5,-0.4,9.200000000000001,-2.6,-13.3,27.3,16
368,6403.0,0.30000000000000004,1.5,0.8,4.800000000000001,-0.4,9.3,1.2000000000000002,-13.399999999999999,25.200000000000003,16
369,6418.0,0.7000000000000001,1.4000000000000001,0.8,5.2,-0.4,9.3,5.500000000000001,-12.9,19.0,16
370,6433.0,0.9,1.4000000000000001,0.8,5.300000000000001,-0.30000000000000004,9.4,7.699999999999999,-12.0,12.0,16
371,6450.0,0.7000000000000001,1.7000000000000002,1.0,5.2,0.0,9.600000000000001,11.2,-9.8,1.8000000000000003,16
372,6468.0,0.0,2.2,1.2000000000000002,4.5,0.6000000000000001,9.8,17.200000000000003,-8.8,-3.2,16
373,6483.0,-0.7000000000000001,2.8000000000000003,1.1,3.8000000000000003,1.2000000000000002,9.700000000000001,26.200000000000003,-9.700000000000001,1.3,16
374,6500.0,-0.5,2.4000000000000004,0.9,4.0,0.9,9.5,34.0,-10.5,9.100000000000001,16
375,6516.0,0.8,0.6000000000000001,-0.2,5.4,-0.8,8.3,33.800000000000004,-16.900000000000002,8.2,16
376,6535.0,2.0,-1.1,-1.5,6.7,-2.4000000000000004,7.1000000000000005,-5.6,-32.0,-22.4,16
377,6549.0,1.8,-1.2000000000000002,-1.1,6.4,-2.6,7.4,-16.8,-29.500000000000004,-29.700000000000006,16
378,6567.0,1.7000000000000002,-1.3,1.3,6.5,-2.7,9.8,-26.5,3.0,-29.400000000000002,16
379,6583.0,3.2,-1.9000000000000001,2.7,7.9,-3.2,11.200000000000001,-18.0,28.0,-31.099999999999998,16
380,6600.0,4.4,-2.2,3.6,9.1,-3.6,12.100000000000001,0.8,45.0,-46.1,16
381,6616.0,3.9000000000000004,-2.3000000000000003,2.9000000000000004,8.5,-3.6,11.4,17.5,44.4,-64.4,16
382,6633.0,1.8,-2.2,0.8,6.4,-3.3000000000000003,9.4,22.2,33.300000000000004,-75.3,16
383,6649.0,0.4,-1.8,-0.4,4.9,-2.8000000000000003,8.3,11.1,24.7,-70.3,16
384,6668.0,-0.30000000000000004,-1.4000000000000001,-0.8,4.1000000000000005,-2.3000000000000003,7.9,-0.8,19.799999999999997,-57.49999999999999,16
385,6683.0,-0.2,-1.1,-0.7000000000000001,4.2,-2.0,8.0,-12.100000000000001,18.3,-38.7,16
386,6699.0,0.7000000000000001,-1.1,-0.2,5.1000000000000005,-1.9000000000000001,8.6,-16.1,17.9,-25.900000000000002,16
387,6716.0,1.5,-1.2000000000000002,0.1,5.800000000000001,-2.1,8.8,-14.400000000000002,15.6,-20.1,16
388,6738.0,1.9000000000000001,-1.4000000000000001,-0.5,6.2,-2.2,8.3,-14.700000000000001,6.8,-28.400000000000002,16
389,6750.0,1.5,-1.1,-0.9,5.800000000000001,-2.0,7.9,-17.200000000000003,1.4,-36.6,16
390,6766.0,0.7000000000000001,-0.6000000000000001,-1.3,5.0,-1.5,7.5,-19.200000000000003,-2.8,-42.2,16
391,6783.0,0.2,-0.2,-1.6,4.5,-1.1,7.1000000000000005,-18.4,-2.8,-43.1,16
392,6800.0,-0.2,-0.1,-1.8,4.3,-1.0,7.0,-15.100000000000001,0.0,-43.1,16
393,6818.0,-0.4,0.0,-1.9000000000000001,3.9000000000000004,-0.9,6.800000000000001,-11.6,3.5,-44.2,16
394,6848.0,-0.8,0.0,-2.0,3.6,-0.8,6.7,-4.0,9.8,-45.0,16
395,6850.0,-0.9,0.1,-2.0,3.5,-0.7000000000000001,6.7,-4.0,9.8,-45.0,16
396,6866.0,-1.1,0.1,-2.0,3.3000000000000003,-0.6000000000000001,6.7,-1.7,12.8,-41.800000000000004,16
397,6886.0,-1.0,0.0,-1.7000000000000002,3.2,-0.7000000000000001,6.9,-3.5,14.700000000000001,-33.1,16
398,6900.0,-0.9,0.0,-1.5,3.4000000000000004,-0.7000000000000001,7.2,-4.800000000000001,14.700000000000001,-30.5,16
399,6920.0,-0.7000000000000001,0.0,-0.9,3.6,-0.6000000000000001,7.9,-7.500000000000001,15.5,-24.200000000000003,16
400,6939.0,-0.5,0.0,-0.6000000000000001,3.7,-0.6000000000000001,8.200000000000001,-6.1000000000000005,17.799999999999997,-19.1,16
401,6950.0,-0.5,0.1,-0.5,3.7,-0.6000000000000001,8.4,-6.1000000000000005,17.799999999999997,-19.1,16
402,6967.0,-0.7000000000000001,0.30000000000000004,-0.2,3.4000000000000004,-0.30000000000000004,8.700000000000001,-4.4,18.8,-6.699999999999999,16
403,6984.0,-0.6000000000000001,0.6000000000000001,0.30000000000000004,3.5,-0.1,9.200000000000001,-4.7,16.1,3.8,16
404,7002.0,-0.30000000000000004,0.8,0.8,3.8000000000000003,0.2,9.700000000000001,-2.7,10.0,17.400000000000002,16
405,7016.0,0.1,0.9,1.1,4.1000000000000005,0.2,10.0,0.6000000000000001,4.2,26.9,16
406,7033.0,0.30000000000000004,0.9,1.0,4.3,0.2,9.9,4.9,-1.4,34.7,16
407,7049.0,0.4,0.9,0.8,4.4,0.2,9.700000000000001,8.5,-4.0,38.60000000000001,16
408,7067.0,0.30000000000000004,1.1,0.6000000000000001,4.3,0.4,9.5,10.600000000000001,-5.2,42.7,16
409,7083.0,-0.30000000000000004,1.3,1.0,3.8000000000000003,0.6000000000000001,9.9,9.3,-7.200000000000001,45.9,16
410,7100.0,-0.7000000000000001,1.1,1.5,3.4000000000000004,0.30000000000000004,10.4,6.0,-12.9,52.80000000000001,16
411,7128.0,-0.2,0.1,2.3000000000000003,3.9000000000000004,-0.8,11.200000000000001,4.800000000000001,-24.1,71.10000000000001,16
412,7138.0,0.4,-0.4,2.2,4.5,-1.2000000000000002,11.100000000000001,10.0,-22.9,76.2,16
413,7149.0,1.6,-1.0,1.7000000000000002,5.7,-2.0,10.5,17.200000000000003,-16.3,75.3,16
414,7167.0,2.2,-1.5,1.0,6.300000000000001,-2.5,9.9,18.8,-7.699999999999999,68.1,16
415,7185.0,3.2,-1.8,0.6000000000000001,7.300000000000001,-2.9000000000000004,9.5,16.700000000000003,-3.9,58.60000000000001,16
416,7200.0,4.0,-2.2,0.2,8.1,-3.2,9.1,14.300000000000002,-8.5,35.8,16
417,7218.0,3.5,-2.2,-0.5,7.7,-3.3000000000000003,8.3,9.8,-18.5,7.200000000000001,16
418,7246.0,-0.4,-1.1,-1.6,3.9000000000000004,-2.1,7.2,11.700000000000001,-17.9,-29.300000000000004,16
419,7250.0,-0.4,-1.1,-1.6,3.9000000000000004,-2.1,7.2,11.700000000000001,-17.9,-29.300000000000004,16
420,7267.0,-2.0,-0.6000000000000001,-2.2,2.3000000000000003,-1.5,6.6000000000000005,11.900000000000002,-5.300000000000001,-27.2,16
421,7286.0,-2.5,-0.6000000000000001,-1.8,1.8,-1.5,6.9,-4.1,11.3,-6.8,16
422,7300.0,-1.4000000000000001,-0.7000000000000001,-0.8,2.9000000000000004,-1.6,7.9,-13.8,17.0,4.7,16
423,7317.0,-0.6000000000000001,-0.8,0.4,3.7,-1.7000000000000002,9.200000000000001,-13.700000000000001,21.500000000000004,10.700000000000001,16
424,7335.0,-0.1,-0.7000000000000001,0.9,4.0,-1.6,9.700000000000001,-8.4,20.5,13.8,16
425,7351.0,0.1,-0.6000000000000001,1.0,4.2,-1.6,9.8,-5.0,12.8,16.0,16
426,7366.0,0.1,-0.4,0.9,4.2,-1.4000000000000001,9.700000000000001,-5.1000000000000005,-1.3,18.200000000000003,16
427,7383.0,0.1,-0.2,0.6000000000000001,4.3,-1.2000000000000002,9.4,-5.9,-14.600000000000001,21.0,16
428,7402.0,0.1,0.0,-0.2,4.3,-1.2000000000000002,8.6,-2.6,-24.400000000000002,17.799999999999997,16
429,7417.0,-0.4,0.2,-0.9,3.8000000000000003,-0.9,7.9,0.0,-19.0,12.0,16
430,7435.0,-0.9,0.5,-1.2000000000000002,3.4000000000000004,-0.6000000000000001,7.6000000000000005,0.0,-11.900000000000002,9.2,16
431,7450.0,-1.0,0.7000000000000001,-1.2000000000000002,3.3000000000000003,-0.5,7.6000000000000005,-0.7,-8.4,8.5,16
432,7467.0,-1.2000000000000002,0.9,-0.7000000000000001,3.1,-0.30000000000000004,8.0,-0.5,-3.1,7.300000000000001,16
433,7483.0,-1.3,1.0,-0.6000000000000001,3.0,-0.2,8.1,0.30000000000000004,-2.7,7.500000000000001,16
434,7502.0,-1.4000000000000001,1.1,-0.6000000000000001,2.9000000000000004,-0.1,8.1,2.8,-3.7000000000000006,9.600000000000001,16
435,7516.0,-1.5,1.2000000000000002,-0.6000000000000001,2.8000000000000003,-0.1,8.1,2.9,-5.2,13.399999999999999,16
436,7541.0,-1.1,1.1,-0.6000000000000001,3.2,-0.1,8.1,0.9000000000000001,-6.300000000000001,19.6,16
437,7550.0,-1.0,1.1,-0.6000000000000001,3.3000000000000003,-0.1,8.1,0.30000000000000004,-6.2,21.300000000000004,16
438,7566.0,-0.6000000000000001,1.2000000000000002,-0.4,3.7,-0.1,8.3,-1.2000000000000002,-5.6,24.3,16
439,7583.0,-0.30000000000000004,1.2000000000000002,-0.30000000000000004,4.0,-0.1,8.4,-2.8,-6.1000000000000005,26.1,16
440,7601.0,0.30000000000000004,1.0,-0.2,4.5,-0.1,8.6,-3.5,-7.9,26.6,16
441,7616.0,0.8,0.7000000000000001,-0.1,5.1000000000000005,-0.2,8.6,-2.8,-8.899999999999999,24.400000000000002,16
442,7642.0,1.2000000000000002,0.2,-0.1,5.6000000000000005,-0.30000000000000004,8.6,-3.2,-8.0,14.0,16
443,7650.0,1.0,0.2,0.0,5.6000000000000005,-0.2,8.700000000000001,-3.8,-7.400000000000001,8.100000000000001,16
444,7666.0,0.6000000000000001,0.4,0.5,5.300000000000001,0.1,9.1,-4.1,-6.9,1.2000000000000002,16
445,7683.0,0.30000000000000004,0.7000000000000001,1.1,5.0,0.30000000000000004,9.700000000000001,-1.1,-7.6,-2.0,16
446,7700.0,0.1,1.0,1.6,4.800000000000001,0.6000000000000001,10.200000000000001,3.2,-12.4,-2.2,16
447,7716.0,-0.30000000000000004,1.2000000000000002,1.8,4.4,0.9,10.4,10.4,-20.5,2.2,16
448,7733.0,-0.2,0.30000000000000004,1.2000000000000002,4.6000000000000005,0.0,9.700000000000001,14.600000000000001,-28.3,7.200000000000001,16
449,7755.0,0.7000000000000001,-1.2000000000000002,-0.1,5.5,-1.5,8.4,-1.9,-34.900000000000006,0.6000000000000001,16
450,7766.0,1.3,-2.1,-0.4,6.2,-2.4000000000000004,8.1,-9.3,-32.6,-4.2,16
451,7783.0,1.7000000000000002,-2.7,0.7000000000000001,6.7,-3.0,9.200000000000001,-23.0,-9.700000000000001,-17.9,16
452,7800.0,2.4000000000000004,-3.0,1.5,7.5,-3.4000000000000004,9.9,-20.900000000000002,18.4,-27.0,16
453,7816.0,3.2,-3.4000000000000004,2.4000000000000004,8.200000000000001,-3.7,10.9,-13.5,35.5,-38.50000000000001,16
454,7839.0,3.1,-3.3000000000000003,2.6,8.0,-3.6,11.100000000000001,-0.4,39.2,-56.6,16
455,7850.0,1.8,-3.0,1.4000000000000001,6.6000000000000005,-3.2,9.9,9.899999999999999,33.1,-69.00000000000001,16
456,7867.0,0.4,-2.7,0.2,5.1000000000000005,-2.8000000000000003,8.8,8.5,28.700000000000003,-70.4,16
457,7886.0,-0.9,-2.2,-0.8,3.7,-2.2,7.800000000000001,-5.8,28.3,-55.0,16
458,7900.0,-0.9,-2.1,-0.9,3.7,-2.1,7.800000000000001,-11.4,30.000000000000004,-47.7,16
459,7917.0,-0.4,-2.1,-0.30000000000000004,4.1000000000000005,-2.0,8.4,-20.5,35.3,-33.1,16
460,7936.0,0.8,-2.0,0.4,5.2,-2.0,9.1,-16.8,32.5,-28.0,16
461,7950.0,0.9,-1.9000000000000001,0.1,5.300000000000001,-1.9000000000000001,8.9,-14.800000000000002,28.200000000000003,-29.600000000000005,16
462,7977.0,-0.1,-1.4000000000000001,-1.5,4.2,-1.3,7.4,-15.100000000000001,7.6,-32.2,16
463,7983.0,-0.30000000000000004,-1.2000000000000002,-1.7000000000000002,4.0,-1.2000000000000002,7.1000000000000005,-16.1,4.6,-30.9,16
464,8000.0,-0.7000000000000001,-0.9,-2.0,3.6,-0.9,6.800000000000001,-16.8,1.8000000000000003,-26.400000000000006,16
465,8016.0,-0.8,-0.7000000000000001,-2.3000000000000003,3.5,-0.7000000000000001,6.6000000000000005,-16.5,4.2,-21.400000000000002,16
466,8044.0,-0.6000000000000001,-0.6000000000000001,-2.0,3.7,-0.7000000000000001,6.9,-13.6,14.300000000000002,-14.800000000000002,16
467,8049.0,-0.6000000000000001,-0.6000000000000001,-2.0,3.7,-0.7000000000000001,6.9,-11.3,17.7,-13.3,16
468,8066.0,-0.1,-0.8,-1.4000000000000001,4.1000000000000005,-0.8,7.5,-7.500000000000001,20.900000000000002,-13.3,16
469,8083.0,0.1,-0.7000000000000001,-1.2000000000000002,4.2,-0.8,7.7,-3.1,20.400000000000002,-13.8,16
470,8100.0,0.0,-0.7000000000000001,-1.1,4.1000000000000005,-0.7000000000000001,7.800000000000001,0.7,16.900000000000002,-11.1,16
471,8129.0,0.0,-0.6000000000000001,-1.1,4.0,-0.6000000000000001,7.800000000000001,1.9,9.8,-5.0,16
472,8134.0,0.0,-0.6000000000000001,-1.2000000000000002,4.0,-0.6000000000000001,7.800000000000001,1.9,9.8,-5.0,16
473,8150.0,-0.1,-0.6000000000000001,-1.3,3.8000000000000003,-0.6000000000000001,7.7,0.9000000000000001,6.0,2.6,16
474,8167.0,-0.1,-0.5,-1.1,3.9000000000000004,-0.6000000000000001,7.9,-0.8,6.300000000000001,8.700000000000001,16
475,8183.0,0.1,-0.5,-0.8,4.0,-0.6000000000000001,8.200000000000001,-2.9,6.0,14.100000000000001,16
476,8229.0,1.3,-0.5,0.4,5.2,-0.6000000000000001,9.4,-3.2,-1.2000000000000002,25.900000000000002,16
477,8233.0,1.3,-0.5,0.4,5.2,-0.6000000000000001,9.4,-3.2,-1.2000000000000002,25.900000000000002,16
478,8249.0,1.2000000000000002,-0.4,0.5,5.1000000000000005,-0.6000000000000001,9.5,-1.0,-4.9,25.1,16
479,8266.0,0.9,-0.2,0.4,4.800000000000001,-0.4,9.3,2.3,-10.0,25.7,16
480,8283.0,-0.30000000000000004,0.2,0.6000000000000001,4.0,-0.2,9.4,3.5,-11.4,30.4,16
481,8303.0,-0.8,0.1,0.8,3.5,-0.4,9.700000000000001,2.3,-14.200000000000001,39.8,16
482,8318.0,-0.8,-0.4,1.2000000000000002,3.5,-0.9,10.0,-5.0,-23.5,54.699999999999996,16
483,8333.0,-0.30000000000000004,-1.0,1.7000000000000002,4.0,-1.5,10.4,-11.2,-30.4,67.8,16
484,8351.0,0.9,-1.7000000000000002,1.9000000000000001,5.300000000000001,-2.3000000000000003,10.700000000000001,-8.700000000000001,-26.799999999999997,77.80000000000001,16
485,8366.0,2.7,-2.3000000000000003,1.6,7.1000000000000005,-3.1,10.3,-2.3,-16.4,71.8,16
486,8383.0,4.1000000000000005,-2.7,1.1,8.5,-3.6,9.8,1.5,-6.699999999999999,48.50000000000001,16
487,8401.0,4.2,-2.8000000000000003,1.1,8.6,-3.7,9.8,7.9,3.0,8.600000000000001,16
488,8420.0,1.5,-2.0,0.0,5.9,-2.9000000000000004,8.700000000000001,17.200000000000003,4.0,-33.800000000000004,16
489,8434.0,-0.6000000000000001,-1.2000000000000002,-0.6000000000000001,3.8000000000000003,-1.9000000000000001,8.1,17.200000000000003,3.8,-44.300000000000004,16
490,8451.0,-2.1,-0.7000000000000001,-1.1,2.3000000000000003,-1.4000000000000001,7.6000000000000005,13.900000000000002,4.2,-35.8,16
491,8466.0,-2.6,-0.6000000000000001,-1.5,1.8,-1.2000000000000002,7.2,6.1000000000000005,4.6,-20.1,16
492,8483.0,-1.8,-0.9,-1.3,2.6,-1.5,7.5,-7.0,5.6,-3.3000000000000007,16
493,8500.0,-0.6000000000000001,-1.2000000000000002,-0.4,3.8000000000000003,-1.8,8.4,-13.100000000000001,5.9,2.1,16
494,8522.0,0.2,-1.3,0.4,4.6000000000000005,-2.0,9.1,-10.0,8.899999999999999,0.5,16
495,8535.0,0.2,-1.3,0.4,4.6000000000000005,-2.0,9.1,-10.0,8.899999999999999,0.5,16
496,8553.0,0.4,-1.0,0.5,4.7,-1.7000000000000002,9.200000000000001,-4.300000000000001,6.1000000000000005,-3.4,16
497,8566.0,0.30000000000000004,-0.9,0.4,4.6000000000000005,-1.6,9.200000000000001,-3.9,4.300000000000001,-3.7000000000000006,16
498,8583.0,0.4,-0.2,0.2,4.7,-1.4000000000000001,8.9,-2.1,0.0,-4.7,16
499,8600.0,0.0,0.4,-0.5,4.3,-1.0,8.200000000000001,1.9,-5.300000000000001,-8.4,16
500,8623.0,-0.5,0.6000000000000001,-1.1,3.8000000000000003,-0.8,7.6000000000000005,3.6000000000000005,-5.500000000000001,-10.8,16
501,8633.0,-0.9,0.6000000000000001,-1.6,3.4000000000000004,-0.8,7.1000000000000005,2.9,-1.5,-12.600000000000001,16
502,8650.0,-1.2000000000000002,0.7000000000000001,-1.6,3.3000000000000003,-0.7000000000000001,7.0,2.4000000000000004,1.0,-13.200000000000003,16
503,8666.0,-1.3,0.7000000000000001,-1.5,3.0,-0.6000000000000001,7.1000000000000005,-0.6000000000000001,8.100000000000001,-12.200000000000001,16
504,8685.0,-1.4000000000000001,0.7000000000000001,-1.1,3.0,-0.7000000000000001,7.5,-4.0,9.700000000000001,-9.3,16
505,8700.0,-1.1,0.7000000000000001,-0.7000000000000001,3.2,-0.6000000000000001,8.0,-6.2,7.699999999999999,-5.4,16
506,8722.0,-0.6000000000000001,0.6000000000000001,-0.2,3.7,-0.7000000000000001,8.5,-6.500000000000001,0.0,-1.7,16
507,8734.0,-0.6000000000000001,0.7000000000000001,-0.2,3.8000000000000003,-0.7000000000000001,8.5,-6.1000000000000005,-2.4000000000000004,-1.3,16
508,8750.0,-0.6000000000000001,0.9,-0.2,3.7,-0.5,8.5,-5.0,-7.300000000000001,0.7,16
509,8767.0,-0.4,1.1,-0.1,3.9000000000000004,-0.30000000000000004,8.6,-4.300000000000001,-11.6,5.300000000000001,16
510,8786.0,-0.1,1.0,-0.1,4.3,-0.30000000000000004,8.6,-4.4,-14.200000000000001,5.8,16
511,8800.0,0.30000000000000004,0.9,0.0,4.7,-0.4,8.700000000000001,-5.1000000000000005,-15.700000000000001,1.5,16
512,8823.0,0.4,0.8,0.30000000000000004,4.800000000000001,-0.30000000000000004,9.0,-3.4,-11.700000000000001,-8.100000000000001,16
513,8834.0,0.1,0.8,0.7000000000000001,4.5,0.1,9.5,-0.8,-9.4,-11.2,16
514,8850.0,-0.4,1.2000000000000002,1.2000000000000002,3.9000000000000004,0.6000000000000001,10.0,5.4,-7.699999999999999,-10.9,16
515,8868.0,-1.0,1.8,1.7000000000000002,3.4000000000000004,1.3,10.4,14.800000000000002,-11.000000000000002,-1.1,16
516,8883.0,-1.1,2.0,1.7000000000000002,3.3000000000000003,1.5,10.5,23.400000000000002,-18.200000000000003,13.100000000000001,16
517,8900.0,0.30000000000000004,0.30000000000000004,0.6000000000000001,4.7,-0.1,9.3,29.1,-30.200000000000003,24.400000000000002,16
518,8925.0,2.8000000000000003,-2.3000000000000003,-1.5,7.300000000000001,-2.6,7.2,3.7000000000000006,-40.0,-7.9,16
519,8933.0,2.6,-2.6,-1.7000000000000002,7.2,-2.9000000000000004,7.0,-7.500000000000001,-38.0,-21.300000000000004,16
520,8950.0,1.6,-2.5,-1.1,6.300000000000001,-2.8000000000000003,7.5,-26.200000000000003,-14.700000000000001,-37.800000000000004,16
521,8968.0,2.5,-2.5,1.3,7.2,-2.9000000000000004,9.9,-30.699999999999996,38.400000000000006,-34.0,16
522,8984.0,4.2,-3.1,3.2,8.8,-3.5,11.8,-16.0,65.7,-43.2,16
523,9000.0,4.4,-3.4000000000000004,3.2,8.8,-3.8000000000000003,12.0,1.4,64.50000000000001,-67.00000000000001,16
524,9039.0,0.5,-2.1,-0.1,4.6000000000000005,-2.3000000000000003,8.700000000000001,-8.600000000000001,18.8,-72.50000000000001,16
525,9049.0,0.2,-1.9000000000000001,-0.5,4.3,-2.0,8.4,-15.100000000000001,11.900000000000002,-64.60000000000001,16
526,9066.0,0.1,-1.7000000000000002,-0.8,4.2,-1.8,8.1,-27.6,2.0,-46.7,16
527,9083.0,0.4,-1.8,-0.7000000000000001,4.5,-1.9000000000000001,8.200000000000001,-32.2,0.5,-34.400000000000006,16
528,9101.0,1.4000000000000001,-2.0,-0.9,5.5,-2.1,8.0,-33.400000000000006,2.1,-31.7,16
529,9130.0,1.2000000000000002,-1.8,-1.3,5.300000000000001,-2.0,7.6000000000000005,-32.1,2.3,-45.9,16
530,9142.0,0.5,-1.4000000000000001,-1.9000000000000001,4.7,-1.7000000000000002,7.0,-31.0,4.2,-52.5,16
531,9150.0,0.30000000000000004,-1.2000000000000002,-2.0,4.4,-1.6,6.9,-30.799999999999997,5.9,-53.400000000000006,16
532,9167.0,0.1,-1.0,-2.0,4.2,-1.4000000000000001,6.9,-30.1,10.0,-53.2,16
533,9183.0,0.0,-0.9,-1.8,4.1000000000000005,-1.3,7.1000000000000005,-27.9,14.600000000000001,-53.7,16
534,9202.0,0.0,-0.8,-1.7000000000000002,4.0,-1.2000000000000002,7.2,-26.200000000000003,16.5,-53.599999999999994,16
535,9216.0,-0.2,-0.9,-1.4000000000000001,3.8000000000000003,-1.3,7.5,-19.200000000000003,19.1,-52.80000000000001,16
536,9240.0,-0.5,-1.0,-1.4000000000000001,3.5,-1.3,7.5,-15.700000000000001,16.5,-48.9,16
537,9252.0,-0.6000000000000001,-0.9,-1.4000000000000001,3.4000000000000004,-1.2000000000000002,7.6000000000000005,-15.700000000000001,14.600000000000001,-43.800000000000004,16
538,9267.0,-0.5,-0.8,-1.1,3.4000000000000004,-1.2000000000000002,7.9,-14.800000000000002,12.7,-38.0,16
539,9283.0,-0.5,-0.8,-1.1,3.4000000000000004,-1.1,7.9,-12.299999999999999,10.700000000000001,-32.7,16
540,9300.0,-0.5,-0.8,-1.0,3.3000000000000003,-1.1,8.0,-11.3,10.9,-28.500000000000004,16
541,9323.0,-0.4,-0.7000000000000001,-1.0,3.4000000000000004,-1.0,8.0,-11.8,10.600000000000001,-23.800000000000004,16
542,9333.0,-0.5,-0.6000000000000001,-1.0,3.3000000000000003,-0.9,8.1,-12.5,10.5,-21.300000000000004,16
543,9350.0,-0.6000000000000001,-0.30000000000000004,-0.7000000000000001,3.2,-0.6000000000000001,8.3,-14.800000000000002,10.200000000000001,-13.399999999999999,16
544,9366.0,-0.1,-0.1,0.30000000000000004,3.7,-0.5,9.3,-14.900000000000002,9.700000000000001,2.9,16
545,9383.0,0.30000000000000004,-0.1,0.7000000000000001,4.0,-0.5,9.700000000000001,-11.700000000000001,6.600000000000001,11.000000000000002,16
546,9400.0,0.4,0.0,0.9,4.1000000000000005,-0.5,10.0,-10.0,3.3000000000000007,16.6,16
547,9422.0,0.5,0.30000000000000004,1.3,4.2,-0.2,10.4,-4.300000000000001,1.3,26.1,16
548,9434.0,0.6000000000000001,0.5,1.6,4.3,-0.1,10.600000000000001,3.5,2.7,29.900000000000006,16
549,9450.0,0.5,0.4,1.6,4.2,-0.2,10.700000000000001,7.8,3.2,30.799999999999997,16
550,9468.0,0.2,-0.6000000000000001,1.4000000000000001,3.9000000000000004,-1.2000000000000002,10.5,14.700000000000001,-0.30000000000000004,37.400000000000006,16
551,9483.0,0.4,-1.1,1.1,4.1000000000000005,-1.7000000000000002,10.200000000000001,8.2,-6.2,41.7,16
552,9503.0,0.8,-1.5,1.2000000000000002,4.5,-2.1,10.3,3.9,-6.4,48.6,16
553,9516.0,1.8,-1.9000000000000001,1.1,5.4,-2.6,10.200000000000001,4.800000000000001,0.9000000000000001,52.80000000000001,16
554,9539.0,3.7,-2.5,0.7000000000000001,7.300000000000001,-3.2,9.8,6.9,6.0,39.400000000000006,16
555,9550.0,4.1000000000000005,-2.7,0.6000000000000001,7.800000000000001,-3.4000000000000004,9.700000000000001,7.699999999999999,3.5,24.400000000000002,16
556,9571.0,2.9000000000000004,-2.4000000000000004,-0.30000000000000004,6.5,-3.1,8.8,7.699999999999999,-13.200000000000003,-14.200000000000001,16
557,9584.0,1.7000000000000002,-2.0,-0.7000000000000001,5.4,-2.7,8.3,5.9,-19.0,-25.6,16
558,9600.0,0.0,-1.5,-1.3,3.7,-2.1,7.800000000000001,4.0,-20.400000000000002,-32.9,16
559,9630.0,-1.9000000000000001,-1.2000000000000002,-1.5,1.9000000000000001,-1.8,7.5,-11.2,-4.1,-19.400000000000002,16
560,9641.0,-1.6,-1.2000000000000002,-1.0,2.2,-1.9000000000000001,8.0,-19.6,1.0,-11.700000000000001,16
561,9650.0,-0.6000000000000001,-1.2000000000000002,0.4,3.2,-1.9000000000000001,9.4,-25.7,5.500000000000001,-4.6,16
562,9667.0,0.0,-1.1,1.4000000000000001,3.8000000000000003,-1.8,10.4,-21.300000000000004,7.8,-3.4,16
563,9684.0,0.2,-1.0,1.7000000000000002,4.0,-1.8,10.700000000000001,-13.700000000000001,5.4,-4.5,16
564,9700.0,0.2,-0.9,1.7000000000000002,4.0,-1.7000000000000002,10.700000000000001,-6.4,-1.9,-6.300000000000001,16
565,9726.0,-0.5,-0.7000000000000001,0.7000000000000001,3.3000000000000003,-1.5,9.700000000000001,6.2,-12.8,-9.100000000000001,16
566,9737.0,-1.0,-0.5,-0.5,2.8000000000000003,-1.3,8.5,9.899999999999999,-14.400000000000002,-8.5,16
567,9751.0,-1.2000000000000002,-0.4,-0.8,2.6,-1.2000000000000002,8.1,10.299999999999999,-13.6,-7.9,16
568,9767.0,-1.6,-0.2,-1.4000000000000001,2.3000000000000003,-0.9,7.6000000000000005,9.2,-9.700000000000001,-5.7,16
569,9789.0,-1.7000000000000002,-0.1,-1.6,2.2,-0.8,7.4,6.8,-0.1,-2.1,16
570,9800.0,-1.6,0.0,-1.6,2.3000000000000003,-0.7000000000000001,7.4,6.4,4.4,-1.6,16
571,9824.0,-1.6,0.0,-1.6,2.3000000000000003,-0.6000000000000001,7.4,6.2,8.600000000000001,0.0,16
572,9835.0,-1.6,0.1,-1.3,2.3000000000000003,-0.5,7.7,6.1000000000000005,7.8,3.2,16
573,9851.0,-1.4000000000000001,0.2,-1.3,2.4000000000000004,-0.5,7.800000000000001,4.800000000000001,4.300000000000001,8.4,16
574,9866.0,-1.2000000000000002,0.2,-1.2000000000000002,2.5,-0.5,7.800000000000001,2.8,-0.5,13.8,16
575,9885.0,-1.0,0.2,-1.1,2.9000000000000004,-0.4,7.9,0.8,-4.300000000000001,18.0,16
576,9900.0,-0.8,0.30000000000000004,-1.0,3.1,-0.4,8.0,-2.3,-7.500000000000001,22.5,16
577,9919.0,-0.5,0.5,-0.7000000000000001,3.4000000000000004,-0.2,8.3,-5.300000000000001,-12.0,28.600000000000005,16
578,9933.0,-0.30000000000000004,0.6000000000000001,-0.6000000000000001,3.5,-0.2,8.4,-5.4,-13.100000000000001,30.5,16
579,9949.0,0.1,0.6000000000000001,-0.4,4.0,-0.2,8.6,-6.1000000000000005,-15.399999999999999,33.300000000000004,16
580,9966.0,1.1,0.5,0.0,5.1000000000000005,-0.4,8.9,-6.500000000000001,-18.0,28.200000000000003,16
581,9991.0,1.2000000000000002,0.30000000000000004,0.5,5.4,-0.30000000000000004,9.4,-5.6,-19.6,12.0,16
582,10000.0,1.2000000000000002,0.30000000000000004,0.5,5.4,-0.30000000000000004,9.4,-5.6,-19.6,12.0,16
583,10027.0,0.1,1.3,1.5,4.4,0.7000000000000001,10.3,2.3,-21.7,1.6,16
584,10038.0,-0.2,1.6,1.7000000000000002,4.1000000000000005,1.0,10.4,5.9,-23.400000000000002,3.6000000000000005,16
585,10054.0,-0.1,0.8,1.3,4.3,0.2,10.0,17.1,-32.2,14.100000000000001,16
586,10068.0,0.6000000000000001,-0.2,0.6000000000000001,5.0,-0.8,9.4,16.1,-35.8,14.5,16
587,10083.0,1.7000000000000002,-1.5,-0.4,6.300000000000001,-2.1,8.3,0.30000000000000004,-42.3,4.800000000000001,16
588,10100.0,2.3000000000000003,-2.4000000000000004,-0.1,7.0,-3.0,8.5,-15.8,-35.599999999999994,-12.200000000000001,16
589,10129.0,2.5,-3.0,1.4000000000000001,7.2,-3.6,9.9,-21.300000000000004,13.5,-39.599999999999994,16
590,10133.0,2.7,-3.1,1.8,7.5,-3.7,10.4,-19.1,29.0,-43.00000000000001,16
591,10150.0,3.3000000000000003,-3.4000000000000004,3.0,8.0,-4.0,11.600000000000001,-6.1000000000000005,55.1,-53.10000000000001,16
592,10166.0,3.4000000000000004,-3.4000000000000004,2.8000000000000003,7.9,-3.9000000000000004,11.5,8.2,60.5,-63.900000000000006,16
593,10186.0,2.5,-3.2,1.8,6.9,-3.6,10.600000000000001,13.399999999999999,51.50000000000001,-74.80000000000001,16
594,10200.0,1.5,-2.9000000000000004,0.7000000000000001,5.800000000000001,-3.2,9.5,7.8,40.6,-74.80000000000001,16
595,10228.0,0.9,-2.2,0.0,5.0,-2.3000000000000003,8.9,-12.4,20.400000000000002,-59.9,16
596,10234.0,0.9,-2.2,0.0,5.0,-2.3000000000000003,8.9,-12.4,20.400000000000002,-59.9,16
597,10249.0,0.8,-2.2,0.0,4.800000000000001,-2.3000000000000003,8.9,-14.0,13.399999999999999,-52.400000000000006,16
598,10267.0,0.6000000000000001,-1.9000000000000001,-1.0,4.6000000000000005,-2.0,7.9,-12.600000000000001,5.300000000000001,-49.699999999999996,16
599,10283.0,0.2,-1.7000000000000002,-1.7000000000000002,4.3,-1.7000000000000002,7.300000000000001,-12.9,4.1,-50.8,16
600,10300.0,-0.1,-1.4000000000000001,-2.1,3.9000000000000004,-1.4000000000000001,6.800000000000001,-11.900000000000002,7.8,-51.70000000000001,16
601,10334.0,-0.8,-0.6000000000000001,-2.4000000000000004,3.2,-0.8,6.5,-8.3,16.0,-48.50000000000001,16
602,10350.0,-1.0,-0.5,-2.4000000000000004,3.0,-0.7000000000000001,6.5,-5.9,17.400000000000002,-44.4,16
603,10370.0,-1.1,-0.5,-2.4000000000000004,2.9000000000000004,-0.6000000000000001,6.6000000000000005,-5.300000000000001,17.1,-35.9,16
604,10383.0,-0.9,-0.5,-2.2,3.1,-0.5,6.7,-5.300000000000001,16.3,-33.400000000000006,16
605,10400.0,-0.6000000000000001,-0.6000000000000001,-2.0,3.3000000000000003,-0.6000000000000001,7.0,-5.300000000000001,14.200000000000001,-28.800000000000004,16
606,10421.0,-0.6000000000000001,-0.5,-1.7000000000000002,3.3000000000000003,-0.5,7.300000000000001,-4.800000000000001,9.3,-23.700000000000003,16
607,10433.0,-0.6000000000000001,-0.4,-1.7000000000000002,3.3000000000000003,-0.4,7.300000000000001,-5.1000000000000005,8.100000000000001,-21.300000000000004,16
608,10451.0,-0.6000000000000001,-0.2,-1.4000000000000001,3.2,-0.2,7.6000000000000005,-6.2,6.8,-11.6,16
609,10467.0,-0.5,-0.2,-1.2000000000000002,3.3000000000000003,-0.2,7.9,-7.200000000000001,6.600000000000001,-5.1000000000000005,16
610,10484.0,-0.30000000000000004,-0.2,-0.7000000000000001,3.5,-0.2,8.3,-8.600000000000001,6.699999999999999,1.9,16
611,10503.0,-0.1,-0.1,-0.30000000000000004,3.7,-0.1,8.700000000000001,-9.4,5.2,8.600000000000001,16
612,10527.0,0.30000000000000004,0.1,0.2,4.0,0.0,9.200000000000001,-9.600000000000001,2.2,16.8,16
613,10539.0,0.5,0.2,0.5,4.3,0.1,9.5,-8.3,-0.30000000000000004,22.5,16
614,10551.0,0.7000000000000001,0.2,0.7000000000000001,4.4,0.0,9.700000000000001,-7.400000000000001,-1.2000000000000002,24.7,16
615,10569.0,0.9,0.30000000000000004,1.0,4.7,0.1,10.0,-4.300000000000001,-3.7000000000000006,28.800000000000004,16
616,10590.0,1.1,0.6000000000000001,1.3,4.9,0.30000000000000004,10.3,5.0,-4.0,32.2,16
617,10601.0,1.1,0.6000000000000001,1.3,4.9,0.30000000000000004,10.3,8.100000000000001,-3.9,32.1,16
618,10637.0,0.30000000000000004,0.0,1.8,4.1000000000000005,-0.30000000000000004,10.8,15.5,-2.2,31.799999999999997,16
619,10649.0,0.4,-0.8,2.0,4.2,-1.1,11.0,13.3,-4.2,32.5,16
620,10669.0,0.5,-0.9,1.9000000000000001,4.3,-1.2000000000000002,10.9,13.200000000000003,-2.1,35.5,16
621,10693.0,1.1,-1.5,1.5,4.9,-1.7000000000000002,10.5,16.700000000000003,8.3,47.400000000000006,16
622,10701.0,1.7000000000000002,-1.7000000000000002,1.4000000000000001,5.5,-2.0,10.4,16.6,10.5,49.4,16
623,10725.0,3.8000000000000003,-2.5,1.2000000000000002,7.6000000000000005,-2.8000000000000003,10.200000000000001,18.0,6.500000000000001,36.2,16
624,10735.0,4.2,-2.7,1.0,7.9,-3.0,10.0,19.6,0.0,21.0,16
625,10755.0,2.6,-2.7,-0.30000000000000004,6.4,-2.9000000000000004,8.8,21.7,-15.399999999999999,-19.799999999999997,16
626,10769.0,1.7000000000000002,-2.5,-0.7000000000000001,5.5,-2.7,8.3,22.4,-19.400000000000002,-33.7,16
627,10785.0,-1.2000000000000002,-1.9000000000000001,-1.7000000000000002,2.6,-1.9000000000000001,7.300000000000001,24.5,-12.5,-46.50000000000001,16
628,10805.0,-2.6,-1.3,-2.3000000000000003,1.3,-1.3,6.7,18.700000000000003,0.4,-35.699999999999996,16
629,10825.0,-2.4000000000000004,-1.3,-1.6,1.5,-1.1,7.4,-5.4,12.8,-5.7,16
630,10833.0,-1.8,-1.4000000000000001,-0.9,2.0,-1.2000000000000002,8.1,-10.600000000000001,15.000000000000002,2.3,16
631,10849.0,-0.6000000000000001,-1.4000000000000001,0.30000000000000004,3.2,-1.3,9.4,-14.0,14.5,12.100000000000001,16
632,10872.0,0.1,-1.4000000000000001,1.1,3.8000000000000003,-1.4000000000000001,10.200000000000001,-9.4,4.0,13.900000000000002,16
633,10884.0,0.2,-1.4000000000000001,1.2000000000000002,4.0,-1.4000000000000001,10.200000000000001,-7.699999999999999,-0.7,13.5,16
634,10900.0,0.2,-1.1,1.1,3.9000000000000004,-1.2000000000000002,10.100000000000001,-4.4,-11.000000000000002,11.3,16
635,10917.0,-0.30000000000000004,-0.9,0.4,3.5,-0.9,9.5,0.4,-19.9,10.0,16
636,10932.0,-0.7000000000000001,-0.5,-0.5,3.1,-0.6000000000000001,8.6,4.1,-20.0,10.200000000000001,16
637,10950.0,-1.2000000000000002,-0.1,-1.3,2.6,-0.2,7.7,6.8,-11.4,8.4,16
638,10966.0,-1.7000000000000002,0.2,-1.5,2.2,0.1,7.5,7.1000000000000005,-5.4,8.2,16
639,10983.0,-1.9000000000000001,0.4,-1.5,2.0,0.30000000000000004,7.5,6.2,-1.8000000000000003,9.899999999999999,16
640,10999.0,-2.0,0.5,-1.5,1.9000000000000001,0.4,7.5,3.6000000000000005,-1.0,14.100000000000001,16
641,11022.0,-1.8,0.6000000000000001,-1.2000000000000002,2.1,0.5,7.800000000000001,-1.8000000000000003,-3.0,22.4,16
642,11033.0,-1.7000000000000002,0.6000000000000001,-1.1,2.2,0.4,7.9,-3.1,-3.5,24.900000000000002,16
643,11049.0,-1.3,0.5,-0.9,2.6,0.4,8.1,-5.300000000000001,-4.1,29.500000000000004,16
644,11066.0,-1.0,0.5,-0.6000000000000001,2.9000000000000004,0.30000000000000004,8.4,-5.500000000000001,-4.9,32.1,16
645,11083.0,-0.7000000000000001,0.5,-0.4,3.3000000000000003,0.2,8.5,-5.1000000000000005,-5.6,34.0,16
646,11104.0,-0.1,0.6000000000000001,-0.1,3.8000000000000003,0.2,8.8,-4.800000000000001,-6.699999999999999,34.7,16
647,11129.0,0.30000000000000004,0.6000000000000001,-0.1,4.2,0.4,8.9,-0.6000000000000001,-7.6,34.400000000000006,16
648,11140.0,0.6000000000000001,0.5,-0.1,4.4,0.4,8.9,1.0,-7.9,33.7,16
649,11149.0,1.1,0.0,-0.30000000000000004,5.0,0.0,8.700000000000001,1.5,-8.8,30.200000000000003,16
650,11166.0,1.4000000000000001,-0.30000000000000004,-0.1,5.5,-0.30000000000000004,8.8,0.0,-8.3,19.799999999999997,16
651,11183.0,1.2000000000000002,-0.2,0.4,5.4,-0.1,9.200000000000001,-0.7,-7.300000000000001,7.699999999999999,16
652,11200.0,0.6000000000000001,0.30000000000000004,1.0,4.800000000000001,0.30000000000000004,9.8,1.4,-6.1000000000000005,-2.0,16
653,11229.0,-0.8,1.0,1.7000000000000002,3.8000000000000003,1.0,10.5,13.700000000000001,-12.200000000000001,-0.6000000000000001,16
654,11233.0,-0.8,1.0,1.7000000000000002,3.5,1.1,10.5,13.700000000000001,-12.200000000000001,-0.6000000000000001,16
655,11250.0,-1.0,0.7000000000000001,1.2000000000000002,3.3000000000000003,0.8,10.0,18.200000000000003,-19.799999999999997,9.3,16
656,11267.0,0.30000000000000004,-1.0,0.0,4.7,-0.8,8.8,7.200000000000001,-29.600000000000005,13.700000000000001,16
657,11284.0,1.0,-1.9000000000000001,0.4,5.5,-1.7000000000000002,9.1,-7.0,-27.5,7.500000000000001,16
658,11299.0,1.4000000000000001,-2.6,1.5,6.0,-2.5,10.200000000000001,-13.100000000000001,-13.3,0.7,16
659,11322.0,2.2,-3.1,2.1,6.7,-3.0,10.8,-14.900000000000002,9.3,-4.5,16
660,11333.0,3.3000000000000003,-3.6,3.0,7.800000000000001,-3.5,11.700000000000001,-12.4,31.0,-15.899999999999999,16
661,11349.0,4.0,-3.6,3.3000000000000003,8.4,-3.5,12.100000000000001,-2.4000000000000004,36.9,-32.300000000000004,16
662,11376.0,2.1,-2.8000000000000003,1.6,6.4,-2.6,10.4,19.799999999999997,26.000000000000004,-60.6,16
663,11383.0,1.3,-2.6,0.6000000000000001,5.6000000000000005,-2.3000000000000003,9.5,22.000000000000004,21.200000000000003,-63.500000000000014,16
664,11399.0,-0.2,-2.3000000000000003,-0.9,4.0,-1.9000000000000001,8.0,15.700000000000001,11.5,-58.800000000000004,16
665,11424.0,-1.0,-2.1,-2.2,3.1,-1.6,6.7,-11.3,6.4,-33.800000000000004,16
666,11435.0,-0.30000000000000004,-1.9000000000000001,-1.7000000000000002,3.8000000000000003,-1.5,7.2,-27.700000000000003,12.299999999999999,-19.400000000000002,16
667,11450.0,0.30000000000000004,-1.9000000000000001,-0.9,4.5,-1.5,7.9,-32.5,17.6,-13.6,16
668,11466.0,1.8,-2.0,0.0,5.9,-1.7000000000000002,8.9,-28.900000000000002,24.7,-12.5,16
669,11486.0,2.4000000000000004,-2.0,0.2,6.5,-1.8,9.200000000000001,-25.7,24.0,-17.6,16
670,11504.0,2.3000000000000003,-1.8,0.1,6.300000000000001,-1.6,9.1,-17.400000000000002,13.8,-36.6,16
671,11523.0,0.9,-1.3,-1.1,4.800000000000001,-1.1,7.9,-9.899999999999999,4.2,-48.800000000000004,16
672,11540.0,0.2,-1.1,-1.5,4.1000000000000005,-0.9,7.4,-7.699999999999999,2.9,-48.50000000000001,16
673,11549.0,-0.1,-1.0,-1.7000000000000002,3.9000000000000004,-0.8,7.300000000000001,-7.200000000000001,2.8,-47.7,16
674,11566.0,-0.4,-0.9,-2.0,3.6,-0.7000000000000001,7.0,-6.2,4.0,-45.0,16
675,11583.0,-0.5,-0.9,-2.0,3.5,-0.7000000000000001,6.9,-4.300000000000001,6.300000000000001,-42.0,16
676,11600.0,-0.6000000000000001,-1.0,-2.1,3.3000000000000003,-0.7000000000000001,6.9,-2.6,8.3,-39.0,16
677,11617.0,-0.7000000000000001,-1.0,-2.0,3.2,-0.7000000000000001,7.0,-3.3000000000000007,9.4,-33.50000000000001,16
678,11646.0,-0.7000000000000001,-0.7000000000000001,-1.5,3.1,-0.4,7.5,-3.3000000000000007,10.9,-25.7,16
679,11649.0,-0.6000000000000001,-0.7000000000000001,-1.3,3.2,-0.4,7.7,-2.3,11.900000000000002,-22.2,16
680,11673.0,-0.5,-0.9,-1.0,3.3000000000000003,-0.5,8.0,-0.8,12.600000000000001,-18.1,16
681,11683.0,-0.4,-1.0,-0.8,3.3000000000000003,-0.5,8.200000000000001,-1.3,11.8,-14.300000000000002,16
682,11703.0,-0.6000000000000001,-0.7000000000000001,-0.6000000000000001,3.1,-0.30000000000000004,8.5,-3.1,8.8,-9.100000000000001,16
683,11728.0,-0.4,-0.2,0.0,3.3000000000000003,0.2,9.0,-3.9,-0.4,12.9,16
684,11735.0,-0.4,-0.2,0.0,3.3000000000000003,0.2,9.0,-3.9,-0.4,12.9,16
685,11754.0,-0.1,-0.30000000000000004,0.2,3.6,0.1,9.3,-2.9,-2.6,23.5,16
686,11766.0,0.1,-0.4,0.5,3.8000000000000003,0.0,9.600000000000001,-1.8000000000000003,-2.8,26.6,16
687,11785.0,0.4,-0.2,0.8,4.1000000000000005,0.0,9.9,4.7,0.30000000000000004,33.1,16
688,11800.0,0.4,-0.2,1.1,4.1000000000000005,0.0,10.100000000000001,7.8,3.4,34.7,16
689,11827.0,0.1,-0.6000000000000001,1.8,3.8000000000000003,-0.4,10.9,11.000000000000002,3.3000000000000007,39.400000000000006,16
690,11833.0,0.1,-0.6000000000000001,1.8,3.8000000000000003,-0.4,10.9,11.000000000000002,3.3000000000000007,39.400000000000006,16
691,11855.0,0.1,-1.0,1.9000000000000001,3.8000000000000003,-0.8,11.0,7.300000000000001,-4.1,53.10000000000001,16
692,11866.0,0.4,-1.5,2.0,4.2,-1.4000000000000001,11.100000000000001,8.700000000000001,-5.8,60.900000000000006,16
693,11883.0,1.0,-2.0,1.3,4.800000000000001,-1.9000000000000001,10.4,13.8,-4.9,64.80000000000001,16
694,11903.0,2.5,-2.3000000000000003,0.4,6.2,-2.2,9.4,7.200000000000001,-6.0,57.60000000000001,16
695,11927.0,3.6,-2.8000000000000003,0.5,7.4,-2.8000000000000003,9.5,4.6,-11.6,29.300000000000004,16
696,11933.0,3.6,-2.8000000000000003,0.5,7.4,-2.8000000000000003,9.5,4.6,-11.6,29.300000000000004,16
697,11957.0,1.7000000000000002,-2.9000000000000004,-0.2,5.5,-2.8000000000000003,8.8,9.0,-13.700000000000001,-17.1,16
698,11967.0,-0.30000000000000004,-2.4000000000000004,-0.8,3.5,-2.3000000000000003,8.3,9.700000000000001,-7.300000000000001,-34.0,16
699,11983.0,-2.1,-1.8,-0.9,1.8,-1.7000000000000002,8.1,3.3000000000000007,1.7,-31.9,16
700,12000.0,-2.5,-1.5,-0.4,1.4000000000000001,-1.3,8.6,-6.9,8.8,-15.6,16
701,12025.0,-1.4000000000000001,-1.4000000000000001,1.1,2.5,-1.4000000000000001,10.100000000000001,-11.1,11.900000000000002,6.300000000000001,16
702,12033.0,-0.9,-1.5,1.4000000000000001,2.9000000000000004,-1.5,10.5,-9.0,10.700000000000001,9.4,16
703,12057.0,-0.4,-1.5,1.5,3.4000000000000004,-1.5,10.600000000000001,-0.7,0.6000000000000001,14.0,16
704,12066.0,-0.30000000000000004,-1.4000000000000001,1.4000000000000001,3.5,-1.4000000000000001,10.4,0.7,-3.7000000000000006,15.000000000000002,16
705,12084.0,-0.4,-1.2000000000000002,1.0,3.4000000000000004,-1.2000000000000002,10.0,3.9,-14.600000000000001,16.900000000000002,16
706,12100.0,-0.6000000000000001,-1.0,0.1,3.2,-1.1,9.200000000000001,6.600000000000001,-20.400000000000002,17.6,16
707,12131.0,-1.0,-0.6000000000000001,-1.1,2.9000000000000004,-0.7000000000000001,7.9,7.9,-14.400000000000002,13.200000000000003,16
708,12133.0,-1.0,-0.6000000000000001,-1.1,2.9000000000000004,-0.7000000000000001,7.9,8.3,-10.700000000000001,11.6,16
709,12149.0,-1.4000000000000001,-0.2,-1.2000000000000002,2.5,-0.30000000000000004,7.7,8.3,-5.9,10.600000000000001,16
710,12166.0,-1.4000000000000001,0.0,-1.1,2.4000000000000004,-0.1,7.9,8.700000000000001,-1.7,10.8,16
711,12183.0,-1.5,0.1,-0.9,2.3000000000000003,0.0,8.1,10.4,0.4,11.8,16
712,12204.0,-1.4000000000000001,0.0,-0.9,2.4000000000000004,-0.1,8.200000000000001,12.100000000000001,1.6,13.5,16
713,12216.0,-1.2000000000000002,-0.1,-0.9,2.6,-0.2,8.1,12.5,1.9,15.000000000000002,16
714,12234.0,-1.2000000000000002,-0.2,-0.9,2.6,-0.30000000000000004,8.1,12.200000000000001,0.5,16.5,16
715,12257.0,-1.1,-0.2,-1.0,2.7,-0.30000000000000004,8.0,8.700000000000001,-2.0,20.3,16
716,12266.0,-1.1,-0.1,-1.0,2.8000000000000003,-0.2,8.1,7.500000000000001,-2.7,21.6,16
717,12283.0,-0.9,0.0,-0.8,3.0,-0.1,8.3,4.800000000000001,-4.4,25.6,16
718,12309.0,-0.4,0.4,-0.4,3.5,0.2,8.700000000000001,3.2,-12.0,32.6,16
719,12317.0,-0.30000000000000004,0.4,-0.4,3.6,0.2,8.700000000000001,3.2,-12.0,32.6,16
720,12337.0,0.1,0.4,-0.30000000000000004,4.0,0.2,8.700000000000001,1.4,-18.1,34.400000000000006,16
721,12350.0,0.30000000000000004,0.30000000000000004,-0.30000000000000004,4.2,0.1,8.700000000000001,0.4,-19.6,31.400000000000002,16
722,12366.0,0.6000000000000001,0.4,0.2,4.6000000000000005,0.2,9.200000000000001,-0.6000000000000001,-18.5,24.200000000000003,16
723,12382.0,0.5,0.5,0.9,4.5,0.4,9.8,1.2000000000000002,-15.899999999999999,17.9,16
724,12400.0,0.2,0.8,1.5,4.2,0.8,10.4,7.9,-12.7,14.600000000000001,16
725,12416.0,-0.2,1.2000000000000002,2.0,3.9000000000000004,1.2000000000000002,10.9,16.3,-12.600000000000001,15.5,16
726,12433.0,-0.4,1.2000000000000002,2.0,3.7,1.2000000000000002,10.9,26.400000000000006,-19.300000000000004,19.5,16
727,12450.0,-0.4,0.4,1.3,3.8000000000000003,0.5,10.200000000000001,29.800000000000004,-30.599999999999998,25.0,16
728,12466.0,0.4,-1.0,0.0,4.6000000000000005,-0.9,8.9,16.700000000000003,-38.800000000000004,25.5,16
729,12485.0,0.9,-1.9000000000000001,0.30000000000000004,5.300000000000001,-1.8,9.1,6.4,-32.7,19.5,16
730,12499.0,1.6,-2.4000000000000004,0.8,6.0,-2.3000000000000003,9.600000000000001,1.7,-15.399999999999999,10.5,16
731,12523.0,2.4000000000000004,-3.0,2.0,6.800000000000001,-2.9000000000000004,10.8,6.300000000000001,17.0,-2.9,16
732,12533.0,2.6,-3.1,2.4000000000000004,7.0,-3.0,11.100000000000001,11.700000000000001,26.1,-9.700000000000001,16
733,12557.0,2.1,-3.1,1.9000000000000001,6.5,-2.9000000000000004,10.700000000000001,23.3,27.5,-28.3,16
734,12566.0,1.5,-3.1,1.2000000000000002,5.800000000000001,-2.8000000000000003,10.0,23.0,22.5,-33.300000000000004,16
735,12585.0,0.0,-2.7,0.0,4.2,-2.3000000000000003,8.8,11.3,15.700000000000001,-28.3,16
736,12599.0,-0.2,-2.5,-0.2,4.0,-2.1,8.700000000000001,7.300000000000001,15.399999999999999,-23.400000000000002,16
737,12616.0,-0.2,-2.2,-0.5,4.0,-1.8,8.4,-2.2,14.700000000000001,-13.5,16
738,12634.0,0.8,-2.3000000000000003,0.0,4.9,-1.8,8.8,-13.5,13.100000000000001,-3.9,16
739,12650.0,1.3,-2.1,-0.1,5.300000000000001,-1.7000000000000002,8.8,-14.900000000000002,8.2,-6.300000000000001,16
740,12668.0,1.2000000000000002,-1.7000000000000002,-0.5,5.300000000000001,-1.3,8.4,-14.800000000000002,4.4,-11.1,16
741,12683.0,0.9,-1.3,-1.0,5.0,-1.0,7.9,-14.300000000000002,1.9,-16.6,16
742,12700.0,0.2,-0.5,-1.3,4.6000000000000005,-0.8,7.5,-14.100000000000001,0.0,-19.5,16
743,12717.0,-0.4,0.2,-1.4000000000000001,4.2,-0.5,7.300000000000001,-13.8,0.0,-21.6,16
744,12738.0,-0.9,0.6000000000000001,-1.3,3.7,-0.1,7.300000000000001,-10.9,5.7,-19.6,16
745,12750.0,-0.9,0.7000000000000001,-1.1,3.7,0.0,7.5,-9.3,8.2,-18.200000000000003,16
746,12769.0,-0.6000000000000001,0.5,-0.7000000000000001,4.0,-0.2,8.0,-1.3,12.7,-15.8,16
747,12784.0,-0.5,0.5,-0.7000000000000001,4.0,-0.2,8.0,1.1,12.4,-15.8,16
748,12802.0,-0.6000000000000001,0.4,-0.8,3.9000000000000004,-0.30000000000000004,7.9,5.8,7.9,-15.399999999999999,16
749,12816.0,-0.7000000000000001,0.30000000000000004,-0.8,3.8000000000000003,-0.30000000000000004,7.9,6.600000000000001,6.1000000000000005,-14.5,16
750,12833.0,-1.1,0.30000000000000004,-1.1,3.4000000000000004,-0.30000000000000004,7.6000000000000005,7.699999999999999,0.9000000000000001,-7.300000000000001,16
751,12849.0,-1.2000000000000002,0.30000000000000004,-1.1,3.3000000000000003,-0.30000000000000004,7.6000000000000005,7.1000000000000005,0.8,0.1,16
752,12866.0,-1.1,0.2,-1.0,3.4000000000000004,-0.30000000000000004,7.7,6.1000000000000005,2.6,6.9,16
753,12883.0,-1.0,0.2,-0.9,3.5,-0.30000000000000004,7.800000000000001,4.2,5.1000000000000005,14.5,16
754,12899.0,-0.30000000000000004,0.0,-0.2,4.2,-0.6000000000000001,8.5,2.5,5.4,18.3,16
755,12916.0,0.0,0.0,0.2,4.4,-0.5,8.9,1.1,2.6,19.6,16
756,12969.0,0.2,0.4,1.0,4.5,0.0,9.8,7.0,-5.0,27.5,16
757,12986.0,-0.1,0.6000000000000001,0.9,4.1000000000000005,0.30000000000000004,9.8,12.100000000000001,-4.2,27.6,16
758,13000.0,-0.5,0.8,0.9,3.7,0.6000000000000001,9.8,17.9,-0.8,29.300000000000004,16
759,13024.0,-1.4000000000000001,0.8,1.4000000000000001,2.7,0.6000000000000001,10.3,25.6,1.8000000000000003,35.699999999999996,16
760,13032.0,-1.6,0.5,1.5,2.5,0.4,10.4,26.300000000000004,0.0,39.2,16
761,13049.0,-1.5,-0.30000000000000004,1.5,2.6,-0.5,10.4,22.8,-6.0,50.1,16
762,13066.0,-0.9,-1.1,1.4000000000000001,3.3000000000000003,-1.2000000000000002,10.3,19.0,-8.899999999999999,57.20000000000001,16
763,13085.0,-0.2,-1.7000000000000002,1.1,3.9000000000000004,-1.9000000000000001,10.0,15.399999999999999,4.5,68.7,16
764,13109.0,2.0,-2.5,1.0,6.1000000000000005,-2.7,9.9,10.9,14.5,70.3,16
765,13119.0,3.7,-2.9000000000000004,1.3,7.800000000000001,-3.2,10.200000000000001,9.4,15.899999999999999,58.2,16
766,13139.0,4.5,-2.9000000000000004,1.3,8.5,-3.2,10.3,13.3,6.500000000000001,24.3,16
767,13149.0,2.6,-2.5,0.6000000000000001,6.6000000000000005,-2.8000000000000003,9.5,20.400000000000002,-3.3000000000000007,-9.4,16
768,13178.0,0.0,-1.8,-0.5,4.1000000000000005,-2.0,8.5,31.7,-5.8,-33.9,16
769,13183.0,-2.6,-1.1,-1.4000000000000001,1.5,-1.2000000000000002,7.5,31.6,-3.7000000000000006,-30.599999999999998,16
770,13199.0,-3.8000000000000003,-0.7000000000000001,-2.0,0.2,-0.7000000000000001,7.0,20.0,2.2,-10.4,16
771,13216.0,-3.6,-0.6000000000000001,-1.7000000000000002,0.4,-0.6000000000000001,7.300000000000001,2.9,10.1,14.300000000000002,16
772,13235.0,-2.0,-0.8,0.1,2.1,-0.8,9.1,-9.0,16.200000000000003,38.0,16
773,13250.0,-0.6000000000000001,-1.0,1.2000000000000002,3.4000000000000004,-1.0,10.100000000000001,-9.0,13.100000000000001,47.3,16
774,13266.0,0.30000000000000004,-1.1,1.6,4.2,-1.2000000000000002,10.600000000000001,-6.2,4.4,46.9,16
775,13287.0,0.7000000000000001,-1.0,1.6,4.6000000000000005,-1.3,10.5,0.5,-16.700000000000003,38.800000000000004,16
776,13299.0,0.5,-1.0,1.2000000000000002,4.5,-1.2000000000000002,10.200000000000001,2.9,-21.0,35.699999999999996,16
777,13319.0,-0.30000000000000004,-0.6000000000000001,-0.30000000000000004,3.7,-0.9,8.700000000000001,8.899999999999999,-24.1,28.3,16
778,13333.0,-0.6000000000000001,-0.30000000000000004,-0.9,3.5,-0.6000000000000001,8.0,8.600000000000001,-18.700000000000003,24.900000000000002,16
779,13350.0,-0.9,0.0,-1.1,3.2,-0.4,7.800000000000001,9.3,-12.8,21.400000000000002,16
780,13366.0,-1.3,0.2,-1.3,2.9000000000000004,-0.1,7.6000000000000005,9.2,-6.500000000000001,18.6,16
781,13383.0,-1.4000000000000001,0.4,-1.2000000000000002,2.7,0.0,7.6000000000000005,7.699999999999999,-1.7,16.8,16
782,13400.0,-1.7000000000000002,0.5,-1.0,2.5,0.1,7.9,7.1000000000000005,0.6000000000000001,15.000000000000002,16
783,13416.0,-1.9000000000000001,0.7000000000000001,-0.9,2.3000000000000003,0.30000000000000004,8.0,7.500000000000001,1.6,15.899999999999999,16
784,13433.0,-1.9000000000000001,0.9,-0.7000000000000001,2.2,0.5,8.200000000000001,7.1000000000000005,2.3,19.799999999999997,16
785,13449.0,-1.6,0.9,-0.5,2.5,0.5,8.4,6.0,1.2000000000000002,25.7,16
786,13467.0,-1.1,0.9,-0.2,3.0,0.6000000000000001,8.700000000000001,7.0,-0.8,31.9,16
787,13485.0,-0.7000000000000001,0.9,-0.1,3.5,0.5,8.700000000000001,8.4,-2.2,34.900000000000006,16
788,13499.0,-0.30000000000000004,0.8,-0.1,3.8000000000000003,0.4,8.8,9.5,-4.1,35.8,16
789,13518.0,0.0,0.8,-0.1,4.2,0.4,8.8,10.299999999999999,-5.4,34.50000000000001,16
790,13532.0,0.7000000000000001,0.30000000000000004,-0.1,4.7,0.2,8.9,10.4,-5.9,30.200000000000003,16
791,13549.0,1.3,-0.30000000000000004,0.2,5.300000000000001,-0.2,9.1,10.4,-6.600000000000001,21.200000000000003,16
792,13566.0,1.0,-0.2,0.4,5.1000000000000005,-0.1,9.3,11.4,-7.9,7.8,16
793,13583.0,0.2,0.2,0.7000000000000001,4.3,0.30000000000000004,9.600000000000001,13.8,-8.100000000000001,2.5,16
794,13599.0,-0.5,0.6000000000000001,1.0,3.6,0.7000000000000001,9.9,17.9,-11.3,6.600000000000001,16
795,13616.0,-0.8,0.8,1.1,3.3000000000000003,1.0,10.0,22.3,-15.100000000000001,14.200000000000001,16
796,13637.0,-0.6000000000000001,0.0,0.8,3.6,0.2,9.600000000000001,25.200000000000003,-25.7,26.400000000000006,16
797,13650.0,-0.1,-0.8,0.30000000000000004,4.2,-0.6000000000000001,9.200000000000001,16.0,-32.7,25.900000000000002,16
798,13667.0,0.6000000000000001,-1.6,0.30000000000000004,5.0,-1.3,9.1,7.9,-29.300000000000004,18.4,16
799,13683.0,1.0,-2.1,0.7000000000000001,5.4,-1.9000000000000001,9.5,1.9,-17.300000000000004,5.500000000000001,16
800,13700.0,1.0,-2.2,1.3,5.5,-2.0,10.100000000000001,-2.4000000000000004,-5.500000000000001,-3.6000000000000005,16
801,13716.0,1.2000000000000002,-2.3000000000000003,2.3000000000000003,5.6000000000000005,-2.1,11.0,-1.9,10.600000000000001,-6.8,16
802,13736.0,2.0,-2.5,2.8000000000000003,6.4,-2.2,11.600000000000001,5.9,20.1,-7.300000000000001,16
803,13749.0,2.1,-2.6,2.7,6.5,-2.3000000000000003,11.4,18.1,23.6,-11.900000000000002,16
804,13766.0,1.4000000000000001,-2.6,1.4000000000000001,5.800000000000001,-2.3000000000000003,10.200000000000001,20.900000000000002,18.700000000000003,-16.700000000000003,16
805,13783.0,0.8,-2.6,0.2,5.1000000000000005,-2.2,9.0,11.2,12.7,-17.6,16
806,13799.0,0.5,-2.3000000000000003,-0.4,4.7,-1.9000000000000001,8.4,-6.500000000000001,10.0,-11.900000000000002,16
807,13816.0,0.6000000000000001,-2.0,-0.4,4.800000000000001,-1.6,8.5,-13.5,11.2,-8.100000000000001,16
808,13833.0,0.8,-2.0,-0.30000000000000004,5.0,-1.5,8.6,-15.899999999999999,11.3,-6.9,16
809,13851.0,1.2000000000000002,-1.7000000000000002,-0.4,5.4,-1.3,8.5,-18.700000000000003,7.300000000000001,-14.300000000000002,16
810,13866.0,1.1,-1.2000000000000002,-0.6000000000000001,5.2,-0.9,8.3,-17.7,5.6,-20.3,16
811,13883.0,0.7000000000000001,-0.9,-0.8,4.800000000000001,-0.6000000000000001,8.1,-15.399999999999999,5.4,-25.8,16
812,13899.0,0.2,-0.6000000000000001,-1.1,4.3,-0.30000000000000004,7.800000000000001,-12.4,5.9,-29.600000000000005,16
813,13916.0,-0.30000000000000004,-0.4,-1.1,3.8000000000000003,-0.1,7.800000000000001,-6.699999999999999,10.9,-31.400000000000002,16
814,13946.0,-0.8,-0.30000000000000004,-1.1,3.2,0.0,7.800000000000001,4.9,23.700000000000003,-29.400000000000002,16
815,13949.0,-0.8,-0.30000000000000004,-1.1,3.2,0.0,7.800000000000001,4.9,23.700000000000003,-29.400000000000002,16
816,13966.0,-0.9,-0.4,-1.0,3.1,0.0,8.0,9.2,25.900000000000002,-26.6,16
817,13991.0,-1.0,-0.4,-1.0,2.8000000000000003,0.1,8.0,16.6,23.099999999999998,-16.8,16
818,13999.0,-1.2000000000000002,-0.4,-1.1,2.6,0.1,7.9,17.200000000000003,20.900000000000002,-13.399999999999999,16
819,14018.0,-1.3,-0.4,-1.3,2.5,0.1,7.7,16.700000000000003,15.899999999999999,-5.500000000000001,16
820,14034.0,-1.3,-0.5,-1.3,2.5,0.1,7.7,14.300000000000002,10.9,5.9,16
821,14049.0,-1.0,-0.6000000000000001,-1.2000000000000002,2.7,0.0,7.9,11.6,7.200000000000001,15.700000000000001,16
822,14071.0,-0.30000000000000004,-0.8,-0.9,3.4000000000000004,-0.2,8.200000000000001,6.4,3.9,27.2,16
823,14083.0,-0.2,-0.8,-0.8,3.5,-0.2,8.3,4.9,3.1,30.3,16
824,14099.0,-0.1,-0.7000000000000001,-0.6000000000000001,3.6,-0.1,8.5,1.8000000000000003,2.2,34.800000000000004,16
825,14118.0,0.5,-0.6000000000000001,0.1,4.2,-0.1,9.1,1.3,-0.6000000000000001,41.0,16
826,14137.0,0.7000000000000001,-0.6000000000000001,0.4,4.4,-0.1,9.5,3.5,-3.6000000000000005,41.1,16
827,14149.0,0.5,-0.5,0.5,4.2,0.0,9.600000000000001,8.4,-5.300000000000001,40.7,16
828,14181.0,0.1,-0.2,0.5,4.0,0.0,9.600000000000001,16.3,-0.2,39.300000000000004,16
829,14183.0,0.1,-0.2,0.5,3.9000000000000004,-0.1,9.600000000000001,16.3,-0.2,39.300000000000004,16
830,14199.0,-0.2,-0.4,0.7000000000000001,3.7,-0.30000000000000004,9.700000000000001,17.1,2.3,36.7,16
831,14217.0,-0.4,-0.8,1.0,3.5,-0.8,10.100000000000001,16.0,2.5,37.6,16
832,14243.0,-0.8,-1.0,1.5,2.8000000000000003,-1.1,10.600000000000001,9.0,-3.3000000000000007,46.9,16
833,14249.0,-0.9,-1.0,1.6,2.7,-1.2000000000000002,10.8,8.100000000000001,-3.2,54.50000000000001,16
834,14266.0,-0.4,-1.3,1.7000000000000002,3.1,-1.6,10.8,5.6,-1.9,76.89999999999999,16
835,14285.0,2.4000000000000004,-2.1,1.5,6.0,-2.5,10.700000000000001,-2.4000000000000004,-3.0,93.4,16
836,14300.0,4.5,-2.5,1.7000000000000002,7.0,-2.8000000000000003,10.700000000000001,-4.300000000000001,-11.4,79.3,16
837,14316.0,5.0,-2.6,1.8,8.6,-3.2,10.9,3.0,-25.4,37.1,16
838,14341.0,2.3000000000000003,-2.0,0.6000000000000001,5.9,-2.6,9.700000000000001,19.799999999999997,-28.200000000000003,-1.0,16
839,14349.0,-0.9,-0.9,-1.3,2.8000000000000003,-1.5,7.800000000000001,31.2,-17.400000000000002,-22.2,16
840,14367.0,-3.3000000000000003,-0.4,-2.0,0.4,-0.8,7.1000000000000005,20.8,-6.8,-14.400000000000002,16
841,14383.0,-3.8000000000000003,-0.1,-1.7000000000000002,-0.1,-0.5,7.4,-2.4000000000000004,-0.6000000000000001,13.3,16
842,14401.0,-2.5,0.0,-0.4,1.2000000000000002,-0.5,8.700000000000001,-18.0,2.3,37.7,16
843,14416.0,-0.7000000000000001,-0.30000000000000004,1.3,3.0,-0.8,10.3,-21.400000000000002,2.1,50.900000000000006,16
844,14439.0,0.8,-0.7000000000000001,2.1,4.5,-1.4000000000000001,11.200000000000001,-11.4,-7.0,42.2,16
845,14449.0,0.9,-0.6000000000000001,2.2,4.6000000000000005,-1.4000000000000001,11.3,-6.8,-10.600000000000001,36.5,16
846,14466.0,0.4,-0.30000000000000004,1.8,4.1000000000000005,-1.1,10.9,6.0,-18.0,25.1,16
847,14483.0,-0.4,-0.1,0.7000000000000001,3.3000000000000003,-0.9,9.700000000000001,15.2,-19.1,19.5,16
848,14503.0,-0.8,0.0,-0.2,3.1,-0.7000000000000001,8.8,16.1,-16.4,18.200000000000003,16
849,14519.0,-1.3,0.30000000000000004,-0.8,2.6,-0.4,8.200000000000001,20.5,-3.3000000000000007,13.100000000000001,16
850,14533.0,-1.5,0.4,-1.1,2.3000000000000003,-0.30000000000000004,7.9,22.1,4.5,12.100000000000001,16
851,14549.0,-1.6,0.4,-1.0,2.2,-0.2,8.0,23.700000000000003,9.8,11.6,16
852,14568.0,-1.8,0.4,-1.2000000000000002,2.0,-0.2,7.9,25.1,11.2,11.6,16
853,14583.0,-1.9000000000000001,0.30000000000000004,-1.3,1.9000000000000001,-0.30000000000000004,7.7,24.0,9.899999999999999,14.600000000000001,16
854,14602.0,-1.9000000000000001,0.2,-1.5,1.8,-0.30000000000000004,7.6000000000000005,19.0,6.9,19.9,16
855,14616.0,-1.8,0.2,-1.4000000000000001,1.9000000000000001,-0.30000000000000004,7.7,13.900000000000002,4.0,26.400000000000006,16
856,14635.0,-1.4000000000000001,0.2,-1.0,2.3000000000000003,-0.30000000000000004,8.0,5.500000000000001,-0.30000000000000004,38.7,16
857,14649.0,-1.2000000000000002,0.2,-0.9,2.5,-0.30000000000000004,8.1,1.4,-2.5,45.0,16
858,14666.0,-0.5,0.30000000000000004,-0.6000000000000001,3.2,-0.30000000000000004,8.4,-2.4000000000000004,-4.800000000000001,49.0,16
859,14684.0,-0.2,0.5,-0.30000000000000004,3.6,-0.1,8.700000000000001,-3.5,-8.899999999999999,48.70000000000001,16
860,14700.0,-0.1,0.8,-0.1,3.7,0.1,8.9,-3.4,-11.6,47.900000000000006,16
861,14716.0,0.0,1.1,0.1,3.8000000000000003,0.4,9.1,-2.5,-15.100000000000001,46.9,16
862,14739.0,0.7000000000000001,0.6000000000000001,0.0,4.4,0.2,9.1,-3.2,-17.5,42.3,16
863,14749.0,0.8,0.4,0.2,4.5,0.1,9.3,-4.4,-16.200000000000003,37.300000000000004,16
864,14766.0,0.7000000000000001,0.4,0.9,4.4,0.30000000000000004,9.9,-4.300000000000001,-11.700000000000001,29.900000000000006,16
865,14783.0,0.30000000000000004,0.8,1.9000000000000001,4.1000000000000005,0.7000000000000001,10.9,1.3,-6.2,24.400000000000002,16
866,14803.0,-0.30000000000000004,1.3,3.2,3.6,1.1,12.200000000000001,17.9,-7.699999999999999,27.9,16
867,14817.0,-0.2,1.0,3.6,3.6,0.9,12.600000000000001,31.0,-17.0,33.6,16
868,14842.0,0.4,-1.1,1.5,4.4,-1.1,10.4,39.2,-31.5,33.2,16
869,14858.0,1.0,-1.7000000000000002,-0.2,5.1000000000000005,-1.7000000000000002,8.700000000000001,31.6,-33.1,20.2,16
870,14866.0,1.2000000000000002,-2.1,-0.5,5.2,-2.0,8.5,27.5,-27.099999999999998,14.400000000000002,16
871,14883.0,1.4000000000000001,-2.6,-0.5,5.5,-2.5,8.4,18.0,-12.200000000000001,2.7,16
872,14899.0,1.3,-2.8000000000000003,0.4,5.4,-2.6,9.200000000000001,5.500000000000001,5.7,-7.500000000000001,16
873,14916.0,1.3,-2.8000000000000003,1.6,5.4,-2.7,10.5,7.9,25.4,-9.100000000000001,16
874,14942.0,1.6,-2.9000000000000004,2.2,5.6000000000000005,-2.7,11.100000000000001,23.700000000000003,40.7,-7.500000000000001,16
875,14952.0,1.6,-2.9000000000000004,2.2,5.6000000000000005,-2.7,11.100000000000001,23.700000000000003,40.7,-7.500000000000001,16
876,14968.0,1.2000000000000002,-3.2,1.0,5.1000000000000005,-2.9000000000000004,10.0,26.300000000000004,30.699999999999996,-8.4,16
877,14983.0,0.9,-3.1,0.2,4.7,-2.7,9.200000000000001,15.700000000000001,21.200000000000003,-3.7000000000000006,16
878,15014.0,0.8,-2.4000000000000004,-0.30000000000000004,4.5,-2.0,8.700000000000001,-8.0,7.8,5.300000000000001,16
879,15020.0,1.0,-2.2,-0.4,4.7,-1.8,8.700000000000001,-10.5,6.2,6.300000000000001,16
880,15032.0,1.2000000000000002,-2.0,-0.4,4.9,-1.6,8.6,-11.6,5.1000000000000005,4.5,16
881,15066.0,0.7000000000000001,-1.2000000000000002,-1.2000000000000002,4.3,-0.9,7.9,-8.8,7.699999999999999,-6.699999999999999,16
882,15083.0,0.2,-0.8,-1.4000000000000001,3.8000000000000003,-0.6000000000000001,7.7,-8.4,10.299999999999999,-10.4,16
883,15099.0,-0.5,0.0,-1.1,3.5,-0.30000000000000004,7.9,-6.9,13.8,-11.1,16
884,15116.0,-0.5,0.1,-0.8,3.4000000000000004,-0.2,8.200000000000001,-4.4,16.700000000000003,-9.600000000000001,16
885,15148.0,-0.4,0.2,-0.4,3.6,-0.2,8.6,0.5,17.300000000000004,-7.400000000000001,16
886,15152.0,-0.4,0.2,-0.2,3.6,-0.30000000000000004,8.700000000000001,6.600000000000001,15.399999999999999,-6.300000000000001,16
887,15166.0,-0.6000000000000001,0.2,-0.2,3.3000000000000003,-0.30000000000000004,8.700000000000001,13.3,9.600000000000001,-3.7000000000000006,16
888,15183.0,-0.8,0.1,-0.4,3.0,-0.30000000000000004,8.6,17.5,2.8,0.4,16
889,15199.0,-1.1,-0.1,-0.9,2.8000000000000003,-0.5,8.1,19.799999999999997,-2.4000000000000004,7.500000000000001,16
890,15219.0,-0.9,-0.4,-1.2000000000000002,3.0,-0.7000000000000001,7.800000000000001,19.0,-2.0,13.3,16
891,15235.0,-0.7000000000000001,-0.6000000000000001,-1.2000000000000002,3.2,-0.8,7.800000000000001,17.9,1.3,16.0,16
892,15250.0,-0.7000000000000001,-0.7000000000000001,-1.0,3.2,-0.9,8.0,17.7,4.0,16.900000000000002,16
893,15273.0,-0.6000000000000001,-0.7000000000000001,-0.9,3.3000000000000003,-0.9,8.1,13.5,6.4,20.400000000000002,16
894,15283.0,-0.6000000000000001,-0.6000000000000001,-0.8,3.3000000000000003,-0.8,8.3,11.3,6.300000000000001,22.5,16
895,15302.0,-0.30000000000000004,-0.4,-0.30000000000000004,3.5,-0.7000000000000001,8.700000000000001,8.700000000000001,5.6,29.1,16
896,15316.0,-0.1,-0.2,-0.1,3.7,-0.6000000000000001,8.9,7.6,1.1,34.900000000000006,16
897,15343.0,-0.1,-0.1,0.2,3.7,-0.5,9.200000000000001,6.2,-1.1,37.800000000000004,16
898,15351.0,-0.1,-0.1,0.30000000000000004,3.7,-0.5,9.3,6.1000000000000005,-0.6000000000000001,38.7,16
899,15373.0,0.30000000000000004,0.0,1.0,4.0,-0.5,10.0,8.0,3.5,37.6,16
900,15383.0,0.2,0.0,1.4000000000000001,3.9000000000000004,-0.5,10.4,10.1,4.0,35.3,16
901,15399.0,-0.4,-0.2,1.6,3.2,-0.7000000000000001,10.700000000000001,14.0,0.1,33.50000000000001,16
902,15416.0,-1.1,-0.6000000000000001,1.3,2.5,-1.1,10.4,10.200000000000001,-8.3,39.599999999999994,16
903,15440.0,-0.7000000000000001,-1.2000000000000002,1.1,2.7,-1.8,10.200000000000001,-1.7,-11.1,69.10000000000001,16
904,15450.0,0.2,-1.3,1.2000000000000002,3.6,-2.0,10.4,-4.9,-7.300000000000001,77.5,16
905,15467.0,2.3000000000000003,-1.6,1.8,5.7,-2.4000000000000004,10.9,-6.4,0.1,81.3,16
906,15490.0,4.5,-2.0,1.9000000000000001,7.800000000000001,-2.8000000000000003,11.100000000000001,7.8,-2.7,41.199999999999996,16
907,15499.0,3.0,-1.7000000000000002,1.1,6.4,-2.6,10.3,21.8,-9.899999999999999,4.300000000000001,16
908,15516.0,0.30000000000000004,-0.9,-0.30000000000000004,3.7,-1.8,8.8,31.6,-16.1,-22.5,16
909,15552.0,-3.9000000000000004,0.30000000000000004,-2.1,1.1,-1.0,7.7,23.400000000000002,-12.5,-14.900000000000002,16
910,15567.0,-3.5,0.4,-2.2,0.0,-0.2,7.0,1.7,-0.4,19.0,16
911,15582.0,-1.9000000000000001,0.0,-0.9,1.6,-0.6000000000000001,8.200000000000001,-13.000000000000002,8.700000000000001,39.9,16
912,15599.0,-0.4,-0.4,0.5,3.1,-1.1,9.600000000000001,-17.400000000000002,8.3,46.9,16
913,15616.0,0.7000000000000001,-0.9,1.3,4.2,-1.7000000000000002,10.4,-17.300000000000004,2.7,43.70000000000001,16
914,15645.0,1.1,-0.7000000000000001,1.8,4.6000000000000005,-1.6,10.9,-5.6,-12.200000000000001,22.1,16
915,15653.0,1.1,-0.7000000000000001,1.8,4.6000000000000005,-1.6,10.9,-5.6,-12.200000000000001,22.1,16
916,15668.0,-0.1,-0.1,0.7000000000000001,3.4000000000000004,-1.1,9.8,4.6,-16.1,9.5,16
917,15682.0,-0.8,0.30000000000000004,0.0,2.8000000000000003,-0.7000000000000001,9.1,9.100000000000001,-12.0,7.200000000000001,16
918,15699.0,-1.3,0.6000000000000001,-0.5,2.2,-0.30000000000000004,8.6,12.100000000000001,-7.200000000000001,6.500000000000001,16
919,15717.0,-1.8,0.9,-1.1,1.8,-0.1,8.0,13.5,-1.7,8.4,16
920,15735.0,-1.9000000000000001,1.0,-1.3,1.7000000000000002,0.1,7.800000000000001,12.200000000000001,2.6,11.2,16
921,15750.0,-1.8,1.0,-1.3,1.7000000000000002,0.2,7.800000000000001,10.8,5.500000000000001,14.800000000000002,16
922,15766.0,-1.7000000000000002,1.1,-1.2000000000000002,1.9000000000000001,0.2,7.9,9.2,4.5,17.6,16
923,15783.0,-1.4000000000000001,0.9,-1.1,2.1,0.1,8.0,6.699999999999999,1.5,21.900000000000002,16
924,15801.0,-1.0,0.7000000000000001,-1.0,2.5,-0.1,8.1,3.9,-0.9000000000000001,26.000000000000004,16
925,15817.0,-0.6000000000000001,0.6000000000000001,-0.9,2.9000000000000004,-0.30000000000000004,8.200000000000001,3.0,-1.5,26.400000000000006,16
926,15835.0,-0.30000000000000004,0.9,-0.6000000000000001,3.2,0.0,8.5,0.4,-5.500000000000001,27.5,16
927,15852.0,-0.30000000000000004,1.0,-0.6000000000000001,3.2,0.1,8.5,-0.1,-7.500000000000001,29.1,16
928,15866.0,0.1,1.0,-0.5,3.7,0.1,8.6,-1.0,-9.4,29.300000000000004,16
929,15883.0,0.4,0.9,-0.4,3.9000000000000004,0.1,8.700000000000001,-1.6,-11.900000000000002,26.400000000000006,16
930,15902.0,0.4,0.8,-0.30000000000000004,4.0,0.2,8.9,-2.6,-14.0,22.9,16
931,15917.0,0.6000000000000001,0.7000000000000001,0.0,4.2,0.2,9.1,-4.0,-16.1,17.6,16
932,15935.0,0.7000000000000001,0.7000000000000001,0.5,4.3,0.2,9.600000000000001,-4.1,-16.6,10.600000000000001,16
933,15949.0,0.30000000000000004,1.0,1.1,4.0,0.5,10.100000000000001,-1.0,-16.0,3.8,16
934,15966.0,-0.30000000000000004,1.4000000000000001,1.8,3.4000000000000004,0.9,10.8,4.0,-15.299999999999999,2.8,16
935,15992.0,-0.8,1.8,2.5,3.0,1.4000000000000001,11.5,17.400000000000002,-18.4,13.200000000000003,16
936,15999.0,-0.7000000000000001,1.6,2.4000000000000004,3.1,1.2000000000000002,11.5,28.1,-25.5,21.200000000000003,16
937,16017.0,0.5,-0.4,0.8,4.4,-0.7000000000000001,9.700000000000001,27.9,-31.3,19.300000000000004,16
938,16032.0,0.9,-0.9,0.1,4.800000000000001,-1.2000000000000002,9.1,16.5,-33.400000000000006,5.8,16
939,16049.0,1.3,-1.9000000000000001,-0.4,5.4,-2.2,8.5,4.6,-24.200000000000003,-9.4,16
940,16066.0,1.2000000000000002,-2.4000000000000004,0.2,5.300000000000001,-2.7,9.1,-8.0,-5.9,-22.700000000000003,16
941,16083.0,1.3,-2.5,1.6,5.4,-2.8000000000000003,10.5,-8.5,20.2,-28.1,16
942,16101.0,1.8,-2.6,2.6,5.9,-2.9000000000000004,11.600000000000001,4.300000000000001,45.3,-30.4,16
943,16116.0,2.3000000000000003,-2.9000000000000004,2.7,6.2,-3.1,11.700000000000001,26.700000000000003,64.9,-37.1,16
944,16132.0,2.2,-3.3000000000000003,1.7000000000000002,6.0,-3.4000000000000004,10.700000000000001,32.8,61.39999999999999,-49.6,16
945,16149.0,1.3,-3.3000000000000003,0.4,4.9,-3.3000000000000003,9.5,19.300000000000004,46.0,-60.6,16
946,16166.0,0.30000000000000004,-2.8000000000000003,0.1,3.8000000000000003,-2.6,9.200000000000001,2.5,35.2,-58.7,16
947,16183.0,-0.4,-2.1,0.7000000000000001,3.0,-1.9000000000000001,9.9,-9.600000000000001,26.200000000000003,-36.6,16
948,16199.0,0.2,-1.9000000000000001,0.7000000000000001,3.5,-1.7000000000000002,9.9,-14.100000000000001,18.8,-24.0,16
949,16216.0,0.9,-1.8,0.5,4.2,-1.6,9.700000000000001,-16.700000000000003,11.2,-21.1,16
950,16232.0,1.1,-1.6,0.1,4.4,-1.4000000000000001,9.3,-13.000000000000002,3.9,-25.200000000000003,16
951,16253.0,0.6000000000000001,-1.2000000000000002,-0.7000000000000001,3.8000000000000003,-1.0,8.5,-6.699999999999999,0.30000000000000004,-30.200000000000003,16
952,16266.0,-0.1,-0.8,-1.5,3.1,-0.6000000000000001,7.800000000000001,-2.0,0.1,-33.6,16
953,16286.0,-0.9,-0.4,-2.1,2.4000000000000004,-0.2,7.2,-0.7,1.3,-32.1,16
954,16299.0,-1.3,-0.1,-2.3000000000000003,1.9000000000000001,0.1,6.9,-3.0,6.1000000000000005,-24.3,16
955,16316.0,-1.3,-0.1,-2.1,2.0,0.1,7.2,-5.7,11.2,-13.200000000000003,16
956,16335.0,-0.4,-0.4,-1.3,2.8000000000000003,-0.2,8.0,-5.8,11.700000000000001,-3.0,16
957,16352.0,0.2,-0.7000000000000001,-1.0,3.3000000000000003,-0.6000000000000001,8.200000000000001,-3.5,8.100000000000001,-0.6000000000000001,16
958,16366.0,0.4,-0.8,-1.1,3.6,-0.6000000000000001,8.200000000000001,-2.1,4.800000000000001,-1.1,16
959,16383.0,0.4,-0.7000000000000001,-1.1,3.5,-0.6000000000000001,8.200000000000001,-1.3,2.9,-1.2000000000000002,16
960,16399.0,0.30000000000000004,-0.7000000000000001,-1.1,3.5,-0.5,8.200000000000001,-0.8,2.0,0.2,16
961,16416.0,0.4,-0.7000000000000001,-1.2000000000000002,3.5,-0.5,8.1,-1.4,2.2,1.4,16
962,16442.0,0.30000000000000004,-0.6000000000000001,-1.1,3.5,-0.4,8.200000000000001,-3.0,3.0,2.6,16
963,16449.0,0.4,-0.5,-1.0,3.5,-0.4,8.3,-4.0,3.2,2.7,16
964,16466.0,0.30000000000000004,-0.4,-0.8,3.4000000000000004,-0.30000000000000004,8.5,-7.0,2.8,3.7000000000000006,16
965,16483.0,0.2,-0.1,-0.6000000000000001,3.3000000000000003,-0.1,8.700000000000001,-10.1,1.7,8.100000000000001,16
966,16500.0,0.1,0.2,-0.30000000000000004,3.3000000000000003,0.1,8.9,-10.700000000000001,1.6,9.899999999999999,16
967,16523.0,0.1,0.5,0.30000000000000004,3.4000000000000004,0.30000000000000004,9.5,-10.9,1.5,17.300000000000004,16
968,16543.0,0.4,0.5,0.9,3.7,0.30000000000000004,10.100000000000001,-7.699999999999999,1.1,21.7,16
969,16549.0,0.5,0.5,1.1,3.8000000000000003,0.2,10.3,-6.300000000000001,1.5,21.500000000000004,16
970,16566.0,0.6000000000000001,0.4,1.5,3.8000000000000003,0.2,10.700000000000001,-0.8,4.2,20.400000000000002,16
971,16588.0,0.4,0.4,1.8,3.7,0.30000000000000004,10.9,8.3,8.100000000000001,17.799999999999997,16
972,16599.0,0.2,0.4,1.8,3.4000000000000004,0.2,11.0,16.1,10.700000000000001,15.2,16
973,16621.0,-0.1,0.0,1.6,3.1,-0.2,10.9,19.400000000000002,10.200000000000001,15.700000000000001,16
974,16633.0,-0.1,-0.7000000000000001,1.4000000000000001,3.1,-0.8,10.700000000000001,16.6,7.0,18.200000000000003,16
975,16649.0,0.1,-0.9,1.4000000000000001,3.2,-1.0,10.700000000000001,13.000000000000002,5.4,22.6,16
976,16667.0,0.2,-1.2000000000000002,1.6,3.4000000000000004,-1.3,10.9,11.1,5.7,30.599999999999998,16
977,16683.0,0.8,-1.7000000000000002,1.6,4.0,-1.7000000000000002,10.9,12.9,8.0,37.800000000000004,16
978,16699.0,2.0,-2.1,1.4000000000000001,5.1000000000000005,-2.2,10.700000000000001,15.100000000000001,9.899999999999999,39.300000000000004,16
979,16716.0,2.9000000000000004,-2.3000000000000003,1.0,6.0,-2.4000000000000004,10.3,17.799999999999997,-1.5,16.200000000000003,16
980,16739.0,1.4000000000000001,-2.2,-0.2,4.5,-2.2,9.1,24.200000000000003,-15.399999999999999,-16.8,16
981,16749.0,0.8,-2.1,-0.4,3.9000000000000004,-2.0,8.9,28.200000000000003,-16.3,-23.900000000000006,16
982,16766.0,-1.1,-1.8,-1.2000000000000002,2.0,-1.6,8.1,36.400000000000006,-12.100000000000001,-31.6,16
983,16783.0,-2.6,-1.4000000000000001,-2.1,0.6000000000000001,-1.1,7.2,32.6,-4.4,-22.9,16
984,16799.0,-3.0,-1.4000000000000001,-1.9000000000000001,0.2,-1.1,7.300000000000001,12.4,2.2,-1.2000000000000002,16
985,16818.0,-1.6,-1.3,-0.30000000000000004,1.6,-0.9,9.0,-10.9,6.300000000000001,28.1,16
986,16835.0,-0.5,-1.4000000000000001,0.9,2.7,-1.1,10.100000000000001,-12.4,5.8,39.400000000000006,16
987,16850.0,0.0,-1.5,1.1,3.2,-1.2000000000000002,10.4,-10.1,4.1,41.6,16
988,16873.0,1.0,-1.7000000000000002,1.2000000000000002,4.2,-1.5,10.5,-3.0,-7.9,38.2,16
989,16884.0,0.9,-1.4000000000000001,0.7000000000000001,4.1000000000000005,-1.3,10.0,-1.6,-20.2,30.000000000000004,16
990,16899.0,0.30000000000000004,-0.9,0.0,3.5,-0.9,9.200000000000001,-0.9000000000000001,-25.6,25.8,16
991,16935.0,-0.30000000000000004,-0.2,-1.1,3.1,-0.2,8.1,-2.8,-19.200000000000003,23.700000000000003,16
992,16949.0,-0.5,0.0,-1.2000000000000002,3.0,0.0,8.0,-4.0,-12.600000000000001,19.300000000000004,16
993,16966.0,-0.7000000000000001,0.30000000000000004,-1.0,2.7,0.30000000000000004,8.200000000000001,-4.2,-7.0,15.000000000000002,16
994,16983.0,-1.0,0.6000000000000001,-0.9,2.4000000000000004,0.5,8.3,-2.2,-1.2000000000000002,10.9,16
995,16999.0,-1.2000000000000002,0.7000000000000001,-0.8,2.2,0.6000000000000001,8.4,0.1,3.4,9.0,16
996,17018.0,-1.3,0.7000000000000001,-0.9,2.2,0.6000000000000001,8.3,2.7,7.300000000000001,9.0,16
997,17033.0,-1.1,0.6000000000000001,-1.0,2.3000000000000003,0.5,8.200000000000001,1.6,7.8,10.9,16
998,17049.0,-0.8,0.4,-1.0,2.5,0.4,8.200000000000001,-0.6000000000000001,7.400000000000001,12.0,16
999,17066.0,-0.5,0.2,-0.9,2.9000000000000004,0.1,8.3,-3.6000000000000005,7.0,12.600000000000001,16
1000,17083.0,-0.2,0.2,-0.7000000000000001,3.1,0.0,8.5,-7.200000000000001,5.0,12.4,16
1001,17100.0,-0.1,0.2,-0.5,3.3000000000000003,0.0,8.700000000000001,-8.899999999999999,2.7,11.3,16
1002,17116.0,0.1,0.30000000000000004,-0.30000000000000004,3.4000000000000004,0.1,8.9,-8.700000000000001,1.0,10.600000000000001,16
1003,17141.0,0.30000000000000004,0.4,-0.1,3.6,0.30000000000000004,9.1,-6.2,-0.5,8.2,16
1004,17153.0,0.4,0.30000000000000004,0.1,3.7,0.30000000000000004,9.3,-4.0,-2.9,6.699999999999999,16
1005,17166.0,0.4,0.30000000000000004,0.2,3.7,0.30000000000000004,9.4,-2.6,-4.4,5.8,16
1006,17183.0,0.30000000000000004,0.5,0.4,3.7,0.4,9.600000000000001,0.4,-8.100000000000001,4.4,16
1007,17201.0,0.1,0.7000000000000001,0.7000000000000001,3.5,0.7000000000000001,9.9,5.2,-11.000000000000002,6.0,16
1008,17218.0,-0.1,1.0,1.3,3.4000000000000004,1.1,10.5,9.700000000000001,-13.200000000000003,9.0,16
1009,17240.0,-0.1,0.9,1.2000000000000002,3.4000000000000004,1.0,10.4,17.9,-25.200000000000003,15.399999999999999,16
1010,17251.0,0.0,0.5,0.9,3.5,0.6000000000000001,10.100000000000001,17.5,-31.0,17.300000000000004,16
1011,17267.0,0.8,-0.9,-0.1,4.4,-0.8,9.0,9.700000000000001,-41.7,15.700000000000001,16
1012,17282.0,1.4000000000000001,-1.8,-1.0,5.1000000000000005,-1.6,8.0,-7.1000000000000005,-42.400000000000006,1.6,16
1013,17299.0,1.4000000000000001,-2.2,-0.8,5.2,-2.1,8.3,-23.800000000000004,-35.1,-9.2,16
1014,17323.0,1.4000000000000001,-2.5,0.8,5.300000000000001,-2.5,9.8,-35.5,-2.8,-18.5,16
1015,17333.0,1.7000000000000002,-2.6,1.7000000000000002,5.6000000000000005,-2.6,10.700000000000001,-33.50000000000001,10.9,-19.300000000000004,16
1016,17356.0,3.3000000000000003,-3.1,3.1,7.1000000000000005,-3.2,12.100000000000001,-10.600000000000001,48.50000000000001,-30.599999999999998,16
1017,17366.0,3.5,-3.2,3.3000000000000003,7.2,-3.3000000000000003,12.4,-4.2,49.4,-39.9,16
1018,17382.0,1.9000000000000001,-3.1,1.8,5.5,-3.1,11.0,2.9,31.099999999999998,-71.39999999999999,16
1019,17399.0,0.5,-2.7,0.9,4.0,-2.6,10.0,-4.800000000000001,19.700000000000003,-71.19999999999999,16
1020,17418.0,-0.2,-2.2,0.30000000000000004,3.3000000000000003,-2.1,9.5,-12.9,12.8,-61.9,16
1021,17437.0,-0.4,-1.9000000000000001,-0.1,3.1,-1.8,9.1,-22.9,9.600000000000001,-49.4,16
1022,17449.0,-0.2,-1.7000000000000002,0.0,3.2,-1.6,9.200000000000001,-27.3,11.6,-38.7,16
1023,17466.0,0.4,-1.6,0.0,3.8000000000000003,-1.5,9.200000000000001,-26.5,13.6,-32.7,16
1024,17486.0,0.8,-1.5,-0.4,4.1000000000000005,-1.5,8.8,-20.0,12.100000000000001,-37.9,16
1025,17499.0,0.7000000000000001,-1.4000000000000001,-0.8,4.0,-1.4000000000000001,8.4,-18.4,11.000000000000002,-40.0,16
1026,17517.0,0.5,-1.2000000000000002,-1.2000000000000002,3.8000000000000003,-1.2000000000000002,8.1,-17.5,10.299999999999999,-42.1,16
1027,17538.0,-0.6000000000000001,0.0,-1.5,3.0,-0.8,7.6000000000000005,-13.8,10.299999999999999,-45.099999999999994,16
1028,17550.0,-0.9,0.4,-1.5,2.7,-0.4,7.6000000000000005,-10.4,13.8,-41.4,16
1029,17574.0,-1.0,0.5,-1.3,2.6,-0.30000000000000004,7.800000000000001,-5.1000000000000005,16.5,-32.9,16
1030,17583.0,-1.0,0.5,-1.3,2.6,-0.30000000000000004,7.800000000000001,-3.7000000000000006,16.200000000000003,-29.500000000000004,16
1031,17599.0,-0.9,0.5,-1.1,2.7,-0.4,8.0,-1.2000000000000002,13.6,-22.000000000000004,16
1032,17616.0,-0.9,0.30000000000000004,-1.0,2.6,-0.5,8.200000000000001,1.1,10.5,-15.700000000000001,16
1033,17637.0,-0.8,0.1,-0.9,2.7,-0.7000000000000001,8.200000000000001,3.8,8.600000000000001,-5.500000000000001,16
1034,17649.0,-0.8,0.1,-0.9,2.7,-0.7000000000000001,8.200000000000001,3.8,8.600000000000001,-5.500000000000001,16
1035,17669.0,-0.30000000000000004,0.0,-0.7000000000000001,3.1,-0.8,8.4,3.8,6.8,4.4,16
1036,17685.0,-0.1,-0.1,-0.6000000000000001,3.4000000000000004,-0.9,8.6,4.300000000000001,6.8,7.400000000000001,16
1037,17700.0,0.0,-0.1,-0.6000000000000001,3.4000000000000004,-0.8,8.6,4.6,6.500000000000001,8.700000000000001,16
1038,17719.0,-0.1,0.1,-0.30000000000000004,3.3000000000000003,-0.6000000000000001,8.9,3.7000000000000006,7.400000000000001,12.9,16
1039,17733.0,0.0,0.2,-0.1,3.4000000000000004,-0.6000000000000001,9.1,3.9,7.8,17.300000000000004,16
1040,17752.0,0.2,0.2,0.5,3.5,-0.5,9.700000000000001,5.8,6.8,20.900000000000002,16
1041,17766.0,0.2,0.2,0.7000000000000001,3.5,-0.5,9.9,7.699999999999999,5.300000000000001,23.2,16
1042,17784.0,0.2,0.4,0.7000000000000001,3.5,-0.4,9.9,8.700000000000001,2.8,25.7,16
1043,17800.0,0.0,0.6000000000000001,0.8,3.3000000000000003,-0.1,10.100000000000001,10.700000000000001,1.5,28.400000000000002,16
1044,17827.0,-0.4,0.30000000000000004,0.7000000000000001,2.8000000000000003,-0.2,10.0,16.6,0.2,36.0,16
1045,17834.0,-0.5,0.1,0.6000000000000001,2.7,-0.4,9.8,10.600000000000001,-4.800000000000001,44.7,16
1046,17849.0,-0.5,-0.30000000000000004,0.5,2.7,-0.8,9.8,5.0,-7.8,49.199999999999996,16
1047,17866.0,0.6000000000000001,-1.1,0.9,3.8000000000000003,-1.7000000000000002,10.200000000000001,-10.8,-11.000000000000002,63.8,16
1048,17883.0,1.8,-1.3,1.2000000000000002,5.0,-1.9000000000000001,10.5,-17.0,-7.200000000000001,68.4,16
1049,17900.0,3.4000000000000004,-1.5,1.8,6.7,-2.3000000000000003,11.0,-18.0,-2.3,59.40000000000001,16
1050,17927.0,4.6000000000000005,-1.8,2.0,7.800000000000001,-2.7,11.3,1.7,-1.6,11.700000000000001,16
1051,17933.0,3.9000000000000004,-1.8,1.6,7.1000000000000005,-2.7,10.9,9.4,-3.5,-6.0,16
1052,17950.0,1.4000000000000001,-1.1,0.30000000000000004,4.7,-2.0,9.5,19.400000000000002,-8.4,-36.400000000000006,16
1053,17966.0,-0.9,-0.5,-0.7000000000000001,2.4000000000000004,-1.2000000000000002,8.5,18.4,-9.5,-45.2,16
1054,17983.0,-2.4000000000000004,-0.1,-1.2000000000000002,0.9,-0.8,8.0,10.600000000000001,-7.1000000000000005,-35.699999999999996,16
1055,17999.0,-2.7,0.1,-1.3,0.7000000000000001,-0.6000000000000001,7.9,-0.7,-2.3,-20.400000000000002,16
1056,18017.0,-1.7000000000000002,-0.1,-0.5,1.6,-0.8,8.700000000000001,-17.300000000000004,3.1,-2.6,16
1057,18039.0,-0.30000000000000004,-0.8,1.1,3.0,-1.5,10.3,-16.200000000000003,2.0,-2.1,16
1058,18051.0,0.2,-0.9,1.2000000000000002,3.5,-1.6,10.5,-12.5,-0.8,-5.4,16
1059,18069.0,0.4,-0.8,1.2000000000000002,3.7,-1.6,10.4,-7.8,-4.800000000000001,-12.100000000000001,16
1060,18084.0,0.0,-0.8,0.8,3.3000000000000003,-1.5,10.0,-2.3,-8.0,-17.7,16
1061,18099.0,-0.6000000000000001,-0.6000000000000001,0.0,2.7,-1.4000000000000001,9.200000000000001,1.8000000000000003,-8.899999999999999,-21.0,16
1062,18121.0,-1.1,-0.30000000000000004,-0.5,2.2,-1.1,8.700000000000001,2.9,-5.6,-21.7,16
1063,18135.0,-1.7000000000000002,0.1,-0.8,1.7000000000000002,-0.7000000000000001,8.3,4.9,0.5,-20.900000000000002,16
1064,18149.0,-1.9000000000000001,0.4,-1.2000000000000002,1.4000000000000001,-0.30000000000000004,8.0,5.4,5.9,-17.400000000000002,16
1065,18166.0,-1.7000000000000002,0.4,-1.3,1.5,-0.30000000000000004,8.0,4.2,10.200000000000001,-12.600000000000001,16
1066,18184.0,-1.3,0.5,-1.1,1.8,-0.2,8.0,1.1,9.700000000000001,-9.600000000000001,16
1067,18200.0,-1.2000000000000002,0.6000000000000001,-1.1,1.9000000000000001,-0.1,8.200000000000001,0.6000000000000001,7.0,-8.100000000000001,16
1068,18216.0,-1.1,0.6000000000000001,-1.3,2.0,-0.1,8.0,-0.5,3.5,-4.9,16
1069,18246.0,-0.9,0.5,-1.4000000000000001,2.2,-0.2,7.800000000000001,-5.2,-0.5,-0.5,16
1070,18249.0,-0.8,0.5,-1.5,2.3000000000000003,-0.2,7.800000000000001,-7.1000000000000005,-1.4,0.6000000000000001,16
1071,18266.0,-0.7000000000000001,0.5,-1.3,2.5,-0.2,8.0,-11.8,-1.9,3.2,16
1072,18283.0,-0.4,0.5,-1.0,2.8000000000000003,-0.2,8.3,-15.6,-1.6,5.1000000000000005,16
1073,18300.0,-0.2,0.7000000000000001,-0.6000000000000001,3.0,-0.1,8.700000000000001,-19.300000000000004,-3.0,5.8,16
1074,18321.0,0.0,1.2000000000000002,0.1,3.2,0.4,9.3,-19.1,-5.6,8.600000000000001,16
1075,18332.0,0.1,1.4000000000000001,0.2,3.3000000000000003,0.5,9.4,-18.200000000000003,-6.500000000000001,9.2,16
1076,18349.0,0.4,1.2000000000000002,0.4,3.5,0.6000000000000001,9.600000000000001,-15.6,-8.700000000000001,9.0,16
1077,18366.0,0.6000000000000001,0.6000000000000001,0.6000000000000001,3.8000000000000003,0.6000000000000001,9.9,-10.4,-12.4,5.7,16
1078,18382.0,0.7000000000000001,0.4,0.8,4.0,0.6000000000000001,10.100000000000001,-7.200000000000001,-14.0,0.7,16
1079,18399.0,0.6000000000000001,0.5,1.0,3.9000000000000004,0.8,10.3,-3.7000000000000006,-13.100000000000001,-5.1000000000000005,16
1080,18420.0,0.4,0.6000000000000001,1.5,3.7,0.9,10.700000000000001,2.4000000000000004,-9.600000000000001,-9.899999999999999,16
1081,18432.0,0.2,0.8,1.8,3.6,1.1,11.0,10.5,-7.8,-11.8,16
1082,18451.0,0.2,0.5,1.9000000000000001,3.6,0.9,11.100000000000001,17.6,-10.299999999999999,-11.6,16
1083,18466.0,0.9,-0.7000000000000001,1.1,4.3,-0.30000000000000004,10.3,18.3,-18.3,-15.399999999999999,16
1084,18482.0,1.1,-1.6,0.0,4.6000000000000005,-1.1,9.200000000000001,10.700000000000001,-20.0,-26.400000000000006,16
1085,18502.0,1.0,-2.5,0.30000000000000004,4.5,-1.9000000000000001,9.5,-4.6,-3.2,-39.1,16
1086,18520.0,1.2000000000000002,-3.0,1.4000000000000001,4.7,-2.4000000000000004,10.5,-10.299999999999999,11.4,-44.10000000000001,16
1087,18532.0,1.3,-3.1,1.7000000000000002,4.800000000000001,-2.5,10.9,-10.1,18.3,-45.0,16
1088,18549.0,2.0,-3.5,2.7,5.4,-2.9000000000000004,11.9,1.4,42.800000000000004,-45.7,16
1089,18566.0,2.5,-3.8000000000000003,2.5,5.800000000000001,-3.1,11.700000000000001,9.8,42.7,-53.300000000000004,16
1090,18582.0,2.0,-3.8000000000000003,1.3,5.1000000000000005,-3.1,10.600000000000001,10.1,29.500000000000004,-65.7,16
1091,18599.0,1.1,-3.7,0.0,4.1000000000000005,-2.9000000000000004,9.3,3.5,17.9,-68.4,16
1092,18622.0,-0.1,-3.2,-1.1,2.9000000000000004,-2.3000000000000003,8.200000000000001,-15.2,8.600000000000001,-56.2,16
1093,18632.0,-0.2,-3.0,-1.2000000000000002,2.8000000000000003,-2.1,8.1,-21.8,8.5,-50.3,16
1094,18649.0,-0.1,-2.6,-1.1,2.8000000000000003,-1.8,8.200000000000001,-34.1,12.100000000000001,-36.7,16
1095,18666.0,0.9,-2.3000000000000003,-0.7000000000000001,3.8000000000000003,-1.6,8.700000000000001,-39.599999999999994,18.6,-29.500000000000004,16
1096,18687.0,1.9000000000000001,-2.1,-0.30000000000000004,4.800000000000001,-1.6,9.1,-33.9,20.8,-36.1,16
1097,18699.0,1.8,-1.9000000000000001,-0.6000000000000001,4.800000000000001,-1.4000000000000001,9.0,-29.900000000000006,18.5,-42.7,16
1098,18726.0,0.6000000000000001,-1.2000000000000002,-1.5,3.4000000000000004,-0.8,7.9,-25.7,6.4,-54.4,16
1099,18739.0,0.4,-1.0,-1.6,3.2,-0.6000000000000001,7.800000000000001,-26.5,4.7,-53.7,16
1100,18750.0,0.0,-0.7000000000000001,-1.5,2.8000000000000003,-0.4,7.9,-25.0,4.300000000000001,-50.0,16
1101,18766.0,-0.1,-0.5,-1.5,2.7,-0.2,7.9,-20.5,7.6,-45.3,16
1102,18783.0,0.0,-0.6000000000000001,-1.5,2.7,-0.30000000000000004,7.9,-14.800000000000002,11.4,-41.300000000000004,16
1103,18802.0,0.0,-0.8,-1.5,2.7,-0.4,7.9,-11.5,12.7,-38.50000000000001,16
1104,18828.0,0.4,-1.0,-1.2000000000000002,3.0,-0.7000000000000001,8.200000000000001,-10.5,10.600000000000001,-33.800000000000004,16
1105,18840.0,0.4,-0.9,-1.0,3.1,-0.6000000000000001,8.4,-10.200000000000001,6.1000000000000005,-31.3,16
1106,18850.0,0.4,-0.9,-1.0,3.0,-0.6000000000000001,8.5,-9.899999999999999,4.1,-29.900000000000006,16
1107,18866.0,0.30000000000000004,-0.8,-1.0,2.9000000000000004,-0.6000000000000001,8.5,-8.600000000000001,0.6000000000000001,-26.000000000000004,16
1108,18883.0,0.30000000000000004,-0.8,-1.0,2.9000000000000004,-0.6000000000000001,8.5,-6.8,-1.4,-18.1,16
1109,18899.0,0.2,-0.9,-1.0,2.8000000000000003,-0.6000000000000001,8.4,-5.6,0.30000000000000004,-12.4,16
1110,18923.0,0.30000000000000004,-0.8,-0.6000000000000001,2.9000000000000004,-0.6000000000000001,8.8,-7.500000000000001,5.9,-1.9,16
1111,18937.0,0.5,-0.9,-0.30000000000000004,3.1,-0.6000000000000001,9.200000000000001,-7.9,7.0,0.8,16
1112,18949.0,0.7000000000000001,-0.9,0.1,3.3000000000000003,-0.7000000000000001,9.5,-7.6,7.500000000000001,3.2,16
1113,18966.0,1.0,-0.8,0.7000000000000001,3.6,-0.6000000000000001,10.100000000000001,-4.300000000000001,7.300000000000001,8.700000000000001,16
1114,18984.0,1.2000000000000002,-0.8,0.9,3.8000000000000003,-0.7000000000000001,10.4,-2.7,5.500000000000001,9.899999999999999,16
1115,18999.0,1.3,-0.7000000000000001,1.2000000000000002,3.9000000000000004,-0.6000000000000001,10.700000000000001,0.5,3.4,9.600000000000001,16
1116,19018.0,0.7000000000000001,-0.2,1.0,3.4000000000000004,-0.1,10.4,10.5,2.7,7.9,16
1117,19032.0,0.1,-0.1,0.6000000000000001,2.8000000000000003,0.0,10.100000000000001,13.8,4.9,9.3,16
1118,19051.0,-0.30000000000000004,-0.30000000000000004,0.6000000000000001,2.3000000000000003,-0.2,10.0,11.900000000000002,6.500000000000001,13.200000000000003,16
1119,19066.0,-0.2,-0.7000000000000001,0.8,2.4000000000000004,-0.6000000000000001,10.3,6.2,6.699999999999999,18.700000000000003,16
1120,19083.0,0.2,-1.0,1.2000000000000002,2.8000000000000003,-1.0,10.700000000000001,4.9,7.9,22.1,16
1121,19099.0,0.5,-1.4000000000000001,1.3,3.1,-1.4000000000000001,10.8,8.4,8.899999999999999,26.400000000000006,16
1122,19126.0,1.5,-2.2,0.4,4.1000000000000005,-2.2,9.9,1.6,3.2,33.7,16
1123,19138.0,2.2,-2.3000000000000003,0.4,4.800000000000001,-2.4000000000000004,9.8,-5.300000000000001,-1.0,27.9,16
1124,19153.0,3.5,-2.4000000000000004,0.5,6.1000000000000005,-2.5,10.0,-5.0,-11.3,5.8,16
1125,19166.0,3.3000000000000003,-2.3000000000000003,0.2,5.9,-2.4000000000000004,9.600000000000001,-2.6,-16.0,-6.300000000000001,16
1126,19183.0,1.5,-2.1,-0.7000000000000001,4.2,-2.2,8.700000000000001,4.0,-23.2,-31.3,16
1127,19199.0,-0.30000000000000004,-1.7000000000000002,-1.5,2.4000000000000004,-1.8,7.9,7.300000000000001,-22.8,-42.0,16
1128,19227.0,-2.5,-1.4000000000000001,-2.2,0.30000000000000004,-1.4000000000000001,7.2,-2.3,3.0,-27.3,16
1129,19233.0,-2.4000000000000004,-1.5,-1.9000000000000001,0.4,-1.4000000000000001,7.5,-12.4,12.9,-18.4,16
1130,19249.0,-1.2000000000000002,-1.5,-0.30000000000000004,1.5,-1.5,9.1,-23.800000000000004,26.000000000000004,-6.8,16
1131,19266.0,0.0,-1.3,1.2000000000000002,2.7,-1.4000000000000001,10.600000000000001,-21.500000000000004,34.2,0.0,16
1132,19283.0,1.1,-1.3,1.9000000000000001,3.7,-1.4000000000000001,11.4,-13.3,31.400000000000002,-0.6000000000000001,16
1133,19302.0,1.5,-1.3,2.1,4.0,-1.5,11.5,-4.5,14.800000000000002,-7.300000000000001,16
1134,19322.0,0.5,-1.0,0.6000000000000001,2.9000000000000004,-1.1,10.100000000000001,-2.3,-16.900000000000002,-10.8,16
1135,19332.0,0.2,-0.9,0.0,2.7,-1.0,9.5,-5.300000000000001,-23.0,-8.4,16
1136,19349.0,0.1,-0.8,-0.6000000000000001,2.7,-0.9,8.9,-10.5,-25.8,-5.7,16
1137,19366.0,0.1,-0.8,-0.8,2.7,-0.9,8.6,-9.600000000000001,-16.700000000000003,-9.100000000000001,16
1138,19383.0,-0.30000000000000004,-0.5,-0.9,2.3000000000000003,-0.7000000000000001,8.5,-6.9,-0.9000000000000001,-17.400000000000002,16
1139,19400.0,-0.8,-0.1,-0.7000000000000001,1.9000000000000001,-0.4,8.700000000000001,-6.8,2.5,-19.1,16
1140,19424.0,-1.2000000000000002,0.2,-0.6000000000000001,1.5,-0.1,8.8,-4.0,0.8,-15.700000000000001,16
1141,19434.0,-1.2000000000000002,0.2,-0.6000000000000001,1.5,-0.1,8.8,-2.3,-0.2,-13.8,16
1142,19449.0,-1.2000000000000002,0.1,-1.0,1.4000000000000001,-0.1,8.4,-1.1,-1.4,-9.2,16
1143,19466.0,-1.0,0.0,-1.2000000000000002,1.6,-0.2,8.200000000000001,-1.8000000000000003,-0.4,-5.8,16
1144,19483.0,-0.8,0.0,-1.3,1.8,-0.2,8.200000000000001,-2.9,1.2000000000000002,-3.3000000000000007,16
1145,19499.0,-0.6000000000000001,0.0,-1.2000000000000002,2.1,-0.2,8.200000000000001,-4.4,1.9,-0.5,16
1146,19524.0,-0.1,0.0,-1.1,2.5,-0.30000000000000004,8.4,-7.0,1.4,0.8,16
1147,19533.0,0.0,0.0,-1.0,2.6,-0.2,8.5,-7.699999999999999,0.7,0.6000000000000001,16
1148,19550.0,0.30000000000000004,0.2,-0.8,2.9000000000000004,-0.1,8.700000000000001,-9.8,-1.7,0.2,16
1149,19566.0,0.7000000000000001,0.30000000000000004,-0.5,3.3000000000000003,0.0,8.9,-10.299999999999999,-2.8,-0.9000000000000001,16
1150,19587.0,0.7000000000000001,0.4,-0.2,3.4000000000000004,0.1,9.200000000000001,-10.1,-5.0,-3.4,16
1151,19599.0,0.5,0.7000000000000001,0.2,3.3000000000000003,0.4,9.600000000000001,-8.899999999999999,-7.1000000000000005,-4.1,16
1152,19625.0,0.1,1.2000000000000002,0.8,3.0,1.0,10.200000000000001,-5.0,-10.600000000000001,0.5,16
1153,19632.0,0.1,1.3,1.0,3.0,1.1,10.4,-2.9,-12.0,2.6,16
1154,19649.0,0.0,1.5,1.4000000000000001,2.9000000000000004,1.3,10.8,3.4,-14.800000000000002,5.9,16
1155,19666.0,-0.4,1.9000000000000001,1.8,2.6,1.7000000000000002,11.200000000000001,10.5,-18.1,11.2,16
1156,19689.0,-0.5,2.1,2.2,2.5,2.0,11.5,28.3,-26.400000000000006,29.0,16
1157,19699.0,0.2,1.2000000000000002,1.7000000000000002,3.2,1.1,11.100000000000001,35.4,-32.300000000000004,35.8,16
1158,19727.0,3.7,-2.4000000000000004,-1.7000000000000002,7.0,-2.4000000000000004,7.6000000000000005,9.600000000000001,-47.400000000000006,-8.4,16
1159,19734.0,3.3000000000000003,-2.6,-2.0,6.7,-2.6,7.300000000000001,-3.0,-46.50000000000001,-26.5,16
1160,19750.0,2.3000000000000003,-2.2,-2.0,5.7,-2.1,7.2,-26.400000000000006,-32.9,-48.400000000000006,16
1161,19766.0,1.6,-1.5,-0.30000000000000004,5.2,-1.5,8.8,-32.9,-0.4,-49.9,16
1162,19782.0,2.2,-1.5,1.0,5.7,-1.5,10.200000000000001,-17.7,25.1,-43.900000000000006,16
1163,19800.0,2.8000000000000003,-2.0,1.6,6.300000000000001,-2.0,10.8,-0.6000000000000001,36.400000000000006,-45.400000000000006,16
1164,19824.0,2.3000000000000003,-3.0,1.0,5.6000000000000005,-2.9000000000000004,10.200000000000001,6.1000000000000005,32.0,-60.6,16
1165,19833.0,1.6,-3.2,0.9,4.800000000000001,-3.1,10.200000000000001,1.8000000000000003,27.6,-62.800000000000004,16
1166,19858.0,1.0,-2.9000000000000004,0.4,4.1000000000000005,-2.7,9.700000000000001,-23.0,17.6,-58.1,16
1167,19866.0,1.2000000000000002,-2.8000000000000003,0.8,4.3,-2.6,10.100000000000001,-30.799999999999997,17.300000000000004,-54.4,16
1168,19882.0,2.0,-2.5,2.0,5.1000000000000005,-2.4000000000000004,11.3,-37.9,10.700000000000001,-50.7,16
