,ms,accelX,accelY,accelZ,accelWithGX,accelWithGY,accelWithGZ,rotRateAlpha,rotRateBeta,rotRateGamma,interval
0,189.0,0.0,-0.1,0.2,0.30000000000000004,1.0,10.0,-2.9,0.0,0.6000000000000001,16
1,207.0,-0.1,0.0,0.30000000000000004,0.30000000000000004,1.0,10.100000000000001,-2.7,1.3,1.0,16
2,222.0,0.0,0.0,0.2,0.30000000000000004,1.0,9.9,-0.4,2.9,1.0,16
3,239.0,0.0,0.0,-0.1,0.30000000000000004,1.0,9.600000000000001,2.6,2.0,0.5,16
4,256.0,0.0,0.0,-0.1,0.4,1.1,9.600000000000001,3.6000000000000005,0.5,0.0,16
5,273.0,0.0,0.0,-0.2,0.30000000000000004,1.0,9.600000000000001,3.7000000000000006,-1.0,-0.5,16
6,289.0,0.0,0.0,-0.1,0.4,1.0,9.700000000000001,1.2000000000000002,-0.4,-0.1,16
7,306.0,0.0,0.0,-0.1,0.4,1.0,9.700000000000001,-2.3,0.6000000000000001,0.30000000000000004,16
8,324.0,0.0,0.0,-0.1,0.4,1.0,9.700000000000001,-5.500000000000001,0.4,0.30000000000000004,16
9,340.0,0.0,0.0,0.1,0.4,1.0,9.8,-6.300000000000001,0.2,0.30000000000000004,16
10,357.0,0.0,0.0,0.2,0.30000000000000004,1.0,9.9,-4.6,1.5,1.3,16
11,374.0,0.1,0.0,0.1,0.4,1.0,9.9,-3.0,1.0,1.4,16
12,389.0,0.1,0.1,0.1,0.4,1.1,9.9,1.4,-0.30000000000000004,0.9000000000000001,16
13,406.0,0.1,0.1,0.2,0.4,1.1,9.9,4.5,-0.6000000000000001,-0.2,16
14,426.0,0.0,0.0,0.1,0.4,1.0,9.8,5.1000000000000005,0.5,-0.8,16
15,439.0,0.0,0.0,0.1,0.30000000000000004,1.0,9.700000000000001,4.300000000000001,0.30000000000000004,-0.5,16
16,456.0,0.0,0.0,-0.1,0.2,1.0,9.700000000000001,1.1,-1.2000000000000002,0.1,16
17,472.0,-0.2,-0.1,0.0,0.2,0.8,9.600000000000001,-2.1,-0.2,1.0,16
18,490.0,-0.1,-0.1,-0.1,0.30000000000000004,1.0,9.8,-4.6,-2.2,2.2,16
19,508.0,0.0,0.1,0.1,0.4,1.1,9.9,-4.6,0.5,1.4,16
20,523.0,0.1,0.1,0.1,0.30000000000000004,1.0,9.9,-2.8,0.4,-0.1,16
21,539.0,0.0,0.0,0.1,0.30000000000000004,1.0,9.8,-1.4,0.1,0.2,16
22,557.0,0.0,0.1,0.1,0.4,1.0,9.8,1.0,-1.0,1.1,16
23,573.0,0.1,0.1,0.1,0.4,1.1,9.9,1.9,-0.9000000000000001,0.5,16
24,589.0,0.0,0.0,0.0,0.4,1.0,9.8,1.4,0.6000000000000001,0.4,16
25,606.0,0.0,0.0,0.0,0.30000000000000004,1.0,9.700000000000001,-0.1,0.4,0.6000000000000001,16
26,622.0,0.0,0.0,0.0,0.30000000000000004,0.9,9.700000000000001,-1.6,0.0,1.1,16
27,639.0,0.0,-0.1,-0.1,0.30000000000000004,0.9,9.700000000000001,-1.9,-0.30000000000000004,1.8000000000000003,16
28,656.0,0.0,-0.1,-0.1,0.4,1.0,9.600000000000001,-1.5,-1.7,2.9,16
29,672.0,0.1,0.1,-0.2,0.5,1.0,9.700000000000001,-0.8,-2.7,1.7,16
30,691.0,0.2,0.0,0.0,0.4,0.9,9.9,-0.4,-2.7,1.6,16
31,707.0,0.0,-0.1,0.1,0.30000000000000004,0.8,9.8,0.6000000000000001,-1.1,4.1,16
32,725.0,0.0,-0.2,0.1,0.4,0.8,9.9,2.4000000000000004,-2.2,6.8,16
33,742.0,0.0,-0.1,0.1,0.4,0.9,9.8,5.500000000000001,-0.6000000000000001,9.0,16
34,756.0,0.0,-0.1,0.0,0.4,0.8,9.700000000000001,6.4,0.9000000000000001,10.299999999999999,16
35,773.0,-0.1,-0.30000000000000004,-0.4,0.30000000000000004,0.7000000000000001,9.3,5.1000000000000005,5.8,13.6,16
36,790.0,0.0,-0.6000000000000001,-0.9,0.30000000000000004,0.4,8.9,-0.5,8.5,19.700000000000003,16
37,807.0,0.0,-0.8,-0.4,0.30000000000000004,0.1,9.4,-7.500000000000001,8.3,29.500000000000004,16
38,825.0,0.2,-1.2000000000000002,-0.30000000000000004,0.4,-0.30000000000000004,9.5,-9.600000000000001,21.500000000000004,46.800000000000004,16
39,841.0,0.2,-1.2000000000000002,-0.30000000000000004,0.6000000000000001,0.0,9.4,-10.200000000000001,29.300000000000004,53.2,16
40,856.0,0.8,-0.4,-0.30000000000000004,0.8,1.3,9.3,-11.700000000000001,38.1,52.60000000000001,16
41,875.0,0.6000000000000001,1.0,-0.5,0.6000000000000001,2.0,9.600000000000001,-12.299999999999999,26.000000000000004,43.4,16
42,889.0,0.6000000000000001,0.8,-0.1,0.7000000000000001,1.2000000000000002,9.8,-10.0,23.400000000000002,35.4,16
43,907.0,0.7000000000000001,0.1,-0.30000000000000004,0.6000000000000001,0.8,8.8,-6.500000000000001,30.1,30.9,16
44,923.0,0.7000000000000001,0.30000000000000004,-1.9000000000000001,0.6000000000000001,1.1,7.9,-4.1,26.5,28.700000000000003,16
45,940.0,0.6000000000000001,0.2,-2.9000000000000004,0.5,1.0,6.800000000000001,2.3,-0.7,27.6,16
46,957.0,0.6000000000000001,0.4,-2.8000000000000003,0.5,1.2000000000000002,6.9,1.8000000000000003,-16.1,35.2,16
47,974.0,-0.2,-1.0,-1.2000000000000002,-0.2,-0.2,8.6,-12.5,-20.400000000000002,38.0,16
48,990.0,0.5,1.4000000000000001,-1.2000000000000002,0.6000000000000001,2.1,8.6,-41.1,-5.1000000000000005,37.2,16
49,1008.0,-0.5,1.6,-1.7000000000000002,-0.5,2.1,8.1,-65.4,8.5,38.0,16
50,1023.0,-0.5,1.6,-1.7000000000000002,-0.30000000000000004,1.5,6.9,-75.3,0.5,34.60000000000001,16
51,1040.0,-0.6000000000000001,0.6000000000000001,-3.2,-1.2000000000000002,0.4,7.0,-88.7,-43.900000000000006,32.8,16
52,1057.0,-1.9000000000000001,-0.1,-2.3000000000000003,-1.7000000000000002,-0.8,8.1,-92.50000000000001,-81.8,52.80000000000001,16
53,1074.0,-2.0,-0.9,-1.0,-1.0,-1.6,9.3,-92.60000000000001,-101.0,84.80000000000001,16
54,1090.0,-1.3,-1.1,0.1,-0.2,-2.1,10.3,-92.60000000000001,-96.0,112.9,16
55,1107.0,-1.0,-1.3,1.3,0.7000000000000001,-1.9000000000000001,12.600000000000001,-85.1,-60.1,128.20000000000002,16
56,1123.0,0.9,0.1,3.7,2.1,-1.1,13.4,-68.2,-17.5,112.30000000000001,16
57,1140.0,1.5,0.1,-0.30000000000000004,2.5,-1.3,9.4,-40.5,9.3,50.7,16
58,1158.0,-1.6,-0.4,0.30000000000000004,-0.6000000000000001,-1.9000000000000001,9.9,-35.0,-0.6000000000000001,47.0,16
59,1173.0,-2.9000000000000004,-2.9000000000000004,1.0,-1.9000000000000001,-4.6000000000000005,10.600000000000001,-29.900000000000006,5.500000000000001,64.4,16
60,1190.0,-4.2,-3.1,0.30000000000000004,-3.2,-4.800000000000001,9.9,-6.699999999999999,-25.8,90.9,16
61,1207.0,-4.2,-3.1,0.30000000000000004,-2.7,-3.9000000000000004,10.0,9.0,-49.0,107.10000000000001,16
62,1225.0,-2.4000000000000004,-0.7000000000000001,0.8,0.6000000000000001,-0.8,10.8,23.2,-63.0,119.0,16
63,1241.0,1.1,2.1,1.1,3.4000000000000004,1.1,10.200000000000001,6.300000000000001,-36.6,92.0,16
64,1256.0,2.5,2.9000000000000004,0.30000000000000004,3.6,-5.6000000000000005,21.1,-42.800000000000004,54.4,69.7,16
65,1273.0,3.3000000000000003,-5.6000000000000005,6.7,2.8000000000000003,0.8,12.200000000000001,-139.3,238.29999999999998,64.2,16
66,1290.0,-0.6000000000000001,1.6,2.9000000000000004,-0.1,-1.5,7.300000000000001,-42.7,168.0,47.60000000000001,16
67,1307.0,1.1,-0.2,-1.5,0.7000000000000001,-2.7,8.0,-7.1000000000000005,103.40000000000002,46.50000000000001,16
68,1323.0,1.1,-5.5,-5.300000000000001,0.4,-7.9,4.1000000000000005,-28.800000000000004,75.60000000000001,70.3,16
69,1340.0,-3.9000000000000004,-4.1000000000000005,-1.1,-4.800000000000001,-6.800000000000001,8.3,-73.5,19.300000000000004,88.3,16
70,1356.0,-6.6000000000000005,-4.3,8.3,-7.7,-7.2,17.7,-49.6,33.7,119.30000000000003,16
71,1373.0,-6.6000000000000005,-4.3,8.3,-7.1000000000000005,-7.6000000000000005,19.6,-9.2,57.400000000000006,137.3,16
72,1390.0,-4.5,-5.4,8.200000000000001,-3.7,-4.5,10.0,39.599999999999994,144.9,169.9,16
73,1406.0,-1.8,-2.0,0.7000000000000001,-2.7,-2.9000000000000004,6.6000000000000005,30.200000000000003,159.1,181.0,16
74,1423.0,0.4,-1.1,-5.6000000000000005,-1.9000000000000001,-3.5,2.7,-13.000000000000002,133.50000000000003,196.79999999999998,16
75,1440.0,2.1,-1.6,-7.7,0.4,-5.2,1.5,-64.60000000000001,85.80000000000001,196.90000000000003,16
76,1456.0,3.6,-3.0,-4.5,0.7000000000000001,-4.5,7.2,-126.89999999999999,73.0,205.90000000000003,16
77,1473.0,5.6000000000000005,-1.1,1.6,3.3000000000000003,-1.9000000000000001,12.4,-116.30000000000001,63.2,182.20000000000002,16
78,1491.0,8.4,0.9,4.1000000000000005,4.3,-2.0,13.600000000000001,-80.2,33.0,128.1,16
79,1507.0,7.800000000000001,1.2000000000000002,6.6000000000000005,3.6,-1.3,15.100000000000001,-58.400000000000006,21.7,100.70000000000002,16
80,1525.0,7.5,3.5,7.6000000000000005,3.3000000000000003,1.0,16.1,15.899999999999999,-26.6,39.400000000000006,16
81,1540.0,-0.1,0.7000000000000001,4.7,-4.3,-1.7000000000000002,13.3,53.10000000000001,19.700000000000003,-17.200000000000003,16
82,1558.0,-1.5,-1.2000000000000002,-1.3,-5.800000000000001,-3.4000000000000004,7.300000000000001,46.6,37.400000000000006,-26.6,16
83,1573.0,0.2,3.8000000000000003,-4.5,-4.2,1.6,4.0,3.9,15.2,-31.5,16
84,1590.0,0.2,3.8000000000000003,-4.5,-5.0,1.9000000000000001,3.5,-19.200000000000003,-8.2,-32.300000000000004,16
85,1607.0,-0.30000000000000004,1.0,-3.2,-5.300000000000001,-2.1,9.200000000000001,-46.7,-40.1,10.9,16
86,1623.0,-1.2000000000000002,0.0,0.2,-4.800000000000001,-1.9000000000000001,9.8,-46.300000000000004,-45.9,35.8,16
87,1641.0,-0.2,0.5,2.5,-3.6,-2.2,10.3,-34.2,-26.700000000000003,34.1,16
88,1658.0,0.7000000000000001,-0.1,2.5,-2.2,-3.3000000000000003,11.600000000000001,-22.5,15.8,26.400000000000006,16
89,1674.0,3.3000000000000003,0.1,1.9000000000000001,-0.2,-1.8,8.700000000000001,-5.7,51.800000000000004,0.5,16
90,1690.0,3.1,1.1,0.0,-1.2000000000000002,-1.5,8.4,2.8,42.3,-19.700000000000003,16
91,1707.0,-0.2,-0.5,-1.2000000000000002,-4.5,-3.1,7.2,24.900000000000002,22.8,-46.800000000000004,16
92,1725.0,-2.6,-1.3,-3.6,-6.9,-3.9000000000000004,4.9,20.5,-36.2,-36.300000000000004,16
93,1740.0,-2.6,-0.2,-2.9000000000000004,-6.6000000000000005,-2.8000000000000003,5.6000000000000005,7.1000000000000005,-68.1,-22.4,16
94,1756.0,-0.7000000000000001,-0.1,-1.1,-4.5,-2.7,7.6000000000000005,2.5,-83.89999999999999,-9.8,16
95,1774.0,0.2,-0.6000000000000001,-1.3,-3.4000000000000004,-3.2,7.4,5.7,-52.00000000000001,-7.200000000000001,16
96,1790.0,0.2,-0.6000000000000001,-1.3,-3.7,-3.1,6.9,2.4000000000000004,-37.300000000000004,0.4,16
97,1807.0,-1.2000000000000002,0.1,-1.0,-5.9,-1.3,9.4,-1.5,-7.0,14.100000000000001,16
98,1824.0,-2.2,2.1,-0.6000000000000001,-5.0,-0.5,5.4,-23.2,23.700000000000003,26.799999999999997,16
99,1841.0,-0.6000000000000001,1.8,-4.3,-4.3,-1.1,5.2,11.3,-43.1,50.3,16
100,1857.0,0.7000000000000001,2.7,-2.0,-2.2,0.1,2.6,-62.800000000000004,-15.2,64.0,16
101,1873.0,3.0,1.5,-4.5,-0.5,-1.1,4.2,-73.4,-65.0,67.4,16
102,1891.0,5.800000000000001,2.9000000000000004,0.8,2.4000000000000004,0.2,9.600000000000001,-67.4,-85.30000000000001,78.3,16
103,1907.0,10.0,5.5,3.8000000000000003,6.800000000000001,2.6,12.600000000000001,-108.39999999999999,-49.6,56.9,16
104,1924.0,10.600000000000001,5.4,11.3,7.5,2.2,20.0,-56.10000000000001,-35.0,-13.700000000000001,16
105,1941.0,5.2,2.5,11.600000000000001,2.1,-0.8,20.3,4.0,13.8,-51.6,16
106,1957.0,1.5,0.5,5.6000000000000005,-1.6,-2.7,14.4,46.800000000000004,32.300000000000004,-47.80000000000001,16
107,1973.0,1.5,0.5,5.6000000000000005,-2.7,-2.4000000000000004,11.3,45.099999999999994,35.599999999999994,-38.7,16
108,1990.0,-0.30000000000000004,0.5,0.7000000000000001,-4.4,-3.3000000000000003,8.5,34.2,30.200000000000003,-23.6,16
109,2007.0,-2.3000000000000003,-0.7000000000000001,-0.1,-5.7,-3.7,7.7,44.6,13.6,-3.2,16
110,2023.0,-2.2,-0.9,-2.1,-5.4,-3.9000000000000004,5.6000000000000005,46.7,-10.700000000000001,6.8,16
111,2040.0,-1.8,-0.6000000000000001,-4.4,-3.8000000000000003,-3.9000000000000004,3.1,49.9,-85.20000000000002,15.100000000000001,16
112,2056.0,-0.7000000000000001,-1.8,-5.2,-3.6,-4.4,3.8000000000000003,41.199999999999996,-144.70000000000002,17.6,16
113,2076.0,-1.5,-2.1,0.1,-2.7,-5.6000000000000005,13.0,-10.1,-190.30000000000004,16.8,16
114,2090.0,0.1,-3.6,7.0,-1.7000000000000002,-6.2,16.3,-16.0,-164.4,23.099999999999998,16
115,2108.0,0.8,-1.2000000000000002,10.3,-0.7000000000000001,-3.8000000000000003,19.700000000000003,4.5,-110.30000000000001,17.200000000000003,16
116,2123.0,1.6,0.30000000000000004,8.1,0.30000000000000004,-2.1,17.5,46.7,-54.300000000000004,-15.5,16
117,2142.0,1.1,-0.2,3.7,0.0,-2.4000000000000004,13.100000000000001,69.00000000000001,-37.300000000000004,-47.3,16
118,2156.0,1.1,-0.2,3.7,-0.7000000000000001,-2.8000000000000003,12.200000000000001,67.9,-37.50000000000001,-57.20000000000001,16
119,2174.0,-0.5,-0.9,2.7,-2.1,-3.7,10.9,65.6,-26.400000000000006,-68.80000000000001,16
120,2189.0,-1.6,-2.5,0.0,-2.6,-4.5,8.8,60.2,-34.800000000000004,-52.300000000000004,16
121,2206.0,-1.7000000000000002,-2.2,-1.3,-2.1,-3.1,7.6000000000000005,46.300000000000004,-43.4,-31.9,16
122,2224.0,-1.3,-0.7000000000000001,-2.4000000000000004,-1.6,-1.6,7.4,32.0,-61.50000000000001,-23.800000000000004,16
123,2240.0,-1.1,0.4,-2.1,-1.6,-1.0,8.5,21.900000000000002,-77.9,-27.3,16
124,2257.0,-1.6,0.30000000000000004,0.2,-1.7000000000000002,-1.1,9.9,20.7,-75.3,-28.600000000000005,16
125,2273.0,-1.9000000000000001,-0.1,1.7000000000000002,-1.8,-1.5,11.4,26.799999999999997,-63.4,-23.6,16
126,2292.0,-2.1,-0.1,1.9000000000000001,-1.9000000000000001,-1.4000000000000001,11.700000000000001,31.400000000000002,-21.8,-12.7,16
127,2306.0,-1.8,0.7000000000000001,0.30000000000000004,-1.6,-0.5,10.0,32.300000000000004,0.2,-0.8,16
128,2325.0,-1.1,1.9000000000000001,-0.8,-0.9,0.8,9.0,33.6,-1.5,3.3000000000000007,16
129,2340.0,-1.1,1.9000000000000001,-0.8,-0.7000000000000001,1.3,8.200000000000001,31.3,-12.200000000000001,-2.8,16
130,2359.0,-0.9,2.3000000000000003,-1.6,-1.0,0.9,6.800000000000001,23.2,-40.5,-3.2,16
131,2373.0,-1.3,1.8,-3.0,-1.3,1.1,7.300000000000001,15.399999999999999,-47.5,-1.3,16
132,2392.0,-1.8,1.8,-2.4000000000000004,-1.0,0.8,7.5,-5.9,-49.50000000000001,4.300000000000001,16
133,2408.0,-1.3,1.7000000000000002,-1.6,-0.1,0.9,8.700000000000001,-16.3,-56.50000000000001,11.000000000000002,16
134,2424.0,-0.4,2.1,-0.6000000000000001,1.0,1.6,9.5,9.899999999999999,-89.2,9.4,16
135,2444.0,0.1,2.8000000000000003,-0.30000000000000004,1.2000000000000002,2.1,9.0,38.400000000000006,-119.30000000000003,-6.300000000000001,16
136,2458.0,-0.6000000000000001,3.0,-0.1,0.9,2.3000000000000003,9.600000000000001,38.2,-121.6,-16.6,16
137,2475.0,-0.9,1.1,0.6000000000000001,0.8,0.4,10.3,8.600000000000001,-56.10000000000001,-21.300000000000004,16
138,2490.0,-1.2000000000000002,0.2,0.8,0.6000000000000001,-0.5,10.4,-7.300000000000001,-30.1,-9.5,16
139,2508.0,-0.8,1.5,3.1,1.1,0.8,12.700000000000001,5.9,-11.700000000000001,18.0,16
140,2524.0,0.6000000000000001,2.2,1.5,2.5,1.5,11.100000000000001,1.5,33.7,15.000000000000002,16
141,2540.0,0.6000000000000001,2.2,1.5,2.4000000000000004,1.6,10.3,-1.3,46.199999999999996,6.699999999999999,16
142,2557.0,0.30000000000000004,2.5,0.30000000000000004,1.5,1.9000000000000001,9.600000000000001,5.500000000000001,45.8,-0.7,16
143,2574.0,-0.2,2.2,-0.2,1.0,1.2000000000000002,9.0,16.900000000000002,22.1,-11.4,16
144,2590.0,-1.1,1.4000000000000001,-0.8,0.0,0.2,9.0,16.700000000000003,-6.500000000000001,-15.100000000000001,16
145,2612.0,-1.9000000000000001,0.30000000000000004,-0.30000000000000004,-0.30000000000000004,-0.2,9.600000000000001,1.6,-22.8,-2.0,16
146,2626.0,-1.8,0.6000000000000001,0.6000000000000001,0.4,0.6000000000000001,11.0,-13.700000000000001,-27.6,15.8,16
147,2639.0,-0.5,1.5,2.0,1.3,0.9,11.600000000000001,-14.600000000000001,-26.5,20.0,16
148,2658.0,0.30000000000000004,1.5,1.9000000000000001,2.0,0.9,11.600000000000001,-2.8,-12.299999999999999,23.6,16
149,2672.0,0.1,1.6,0.0,1.9000000000000001,1.0,9.600000000000001,19.300000000000004,-13.100000000000001,24.5,16
150,2690.0,-1.3,0.30000000000000004,-2.7,0.6000000000000001,-0.2,6.9,25.200000000000003,-41.0,42.1,16
151,2711.0,-1.8,2.3000000000000003,-2.3000000000000003,0.2,1.8,7.300000000000001,16.0,-39.300000000000004,63.900000000000006,16
152,2723.0,-1.8,2.3000000000000003,-2.3000000000000003,0.8,2.3000000000000003,6.7,9.4,-36.8,64.7,16
153,2741.0,-1.1,3.3000000000000003,-2.9000000000000004,0.9,2.9000000000000004,6.9,0.2,-39.699999999999996,50.8,16
154,2757.0,-1.8,3.2,-2.3000000000000003,-0.6000000000000001,1.5,8.1,6.1000000000000005,-51.1,33.2,16
155,2773.0,-4.0,-0.4,1.5,-2.3000000000000003,-2.0,10.200000000000001,3.8,-8.5,64.60000000000001,16
156,2791.0,-4.800000000000001,-0.6000000000000001,1.4000000000000001,-2.3000000000000003,0.8,10.9,27.2,18.8,106.80000000000001,16
157,2810.0,-4.1000000000000005,1.3,1.3,-0.7000000000000001,0.1,8.200000000000001,37.300000000000004,36.5,121.2,16
158,2822.0,-1.4000000000000001,2.8000000000000003,-1.6,0.6000000000000001,2.3000000000000003,8.0,40.9,29.0,132.6,16
159,2841.0,0.5,6.4,-2.6,2.4000000000000004,5.9,7.0,39.50000000000001,16.1,110.6,16
160,2856.0,0.5,4.5,-2.8000000000000003,2.5,4.0,6.800000000000001,18.5,9.100000000000001,63.10000000000001,16
161,2874.0,-0.7000000000000001,2.5,-1.9000000000000001,1.2000000000000002,2.1,7.7,-0.1,14.5,40.300000000000004,16
162,2890.0,-1.3,1.1,-0.7000000000000001,0.6000000000000001,0.6000000000000001,9.0,-0.4,1.9,23.800000000000004,16
163,2909.0,-2.9000000000000004,-5.0,4.5,-1.1,-5.5,14.200000000000001,1.5,60.300000000000004,17.5,16
164,2924.0,-2.9000000000000004,-5.0,4.5,-1.1,-7.2,15.100000000000001,11.6,103.7,26.799999999999997,16
165,2942.0,-2.2,-6.1000000000000005,5.300000000000001,-0.4,-5.6000000000000005,13.5,45.099999999999994,169.60000000000002,58.3,16
166,2957.0,-0.7000000000000001,-4.9,2.1,0.7000000000000001,-4.9,9.9,73.7,171.70000000000002,95.5,16
167,2973.0,2.0,-4.1000000000000005,-2.9000000000000004,3.6,-3.1,4.4,90.70000000000002,130.70000000000002,117.60000000000001,16
168,2990.0,3.0,-1.5,-5.1000000000000005,3.4000000000000004,-0.30000000000000004,4.9,104.4,125.80000000000001,114.50000000000001,16
169,3009.0,4.9,-0.30000000000000004,-4.800000000000001,4.2,1.9000000000000001,1.6,116.2,62.0,98.60000000000001,16
170,3022.0,3.1,4.3,-11.9,2.7,5.2,-2.1,83.5,-71.8,62.7,16
171,3039.0,-1.2000000000000002,-1.5,3.5,-1.1,-0.5,13.3,26.000000000000004,-149.50000000000003,-5.6,16
172,3057.0,-3.3000000000000003,-7.0,7.4,-3.0,-5.9,17.2,27.2,-10.0,11.700000000000001,16
173,3073.0,1.4000000000000001,-9.3,8.0,1.4000000000000001,-8.1,17.7,21.400000000000002,97.40000000000002,41.300000000000004,16
174,3090.0,2.3000000000000003,0.4,-9.8,1.7000000000000002,1.3,0.0,-96.80000000000001,170.40000000000003,98.60000000000001,16
175,3108.0,2.3000000000000003,0.4,-9.8,2.7,6.2,7.0,-125.60000000000001,151.0,56.0,16
176,3123.0,3.8000000000000003,5.6000000000000005,-2.7,0.9,6.0,11.600000000000001,-119.30000000000003,136.3,30.3,16
177,3140.0,0.9,4.3,1.0,-0.30000000000000004,2.0,7.5,-105.9,107.4,9.2,16
178,3156.0,0.6000000000000001,-1.0,-0.9,-3.8000000000000003,-3.4000000000000004,11.5,-92.7,45.7,-0.7,16
179,3174.0,-3.7,-3.4000000000000004,0.6000000000000001,-7.5,-5.1000000000000005,14.8,-96.0,0.5,21.200000000000003,16
180,3189.0,-5.4,-3.2,3.4000000000000004,-7.300000000000001,-3.9000000000000004,13.0,-84.9,-13.000000000000002,37.400000000000006,16
181,3211.0,-4.5,-2.8000000000000003,6.4,-6.7,-3.8000000000000003,16.1,10.4,0.0,56.50000000000001,16
182,3222.0,-4.800000000000001,-3.5,5.4,-6.7,-4.2,15.0,37.50000000000001,-3.5,66.4,16
183,3240.0,-3.3000000000000003,-2.8000000000000003,-1.0,-5.300000000000001,-3.2,8.6,64.7,9.5,86.4,16
184,3257.0,-1.3,1.6,-1.8,-3.3000000000000003,1.4000000000000001,7.800000000000001,37.2,24.0,98.0,16
185,3273.0,0.2,5.2,-5.0,-2.3000000000000003,5.0,4.5,-53.50000000000001,150.2,87.89999999999999,16
186,3292.0,0.2,5.2,-5.0,0.8,2.5,5.4,-98.10000000000001,132.9,68.1,16
187,3308.0,3.7,2.9000000000000004,-3.9000000000000004,4.6000000000000005,2.9000000000000004,10.4,-80.9,95.4,65.8,16
188,3323.0,9.0,3.8000000000000003,4.5,2.8000000000000003,1.8,13.100000000000001,6.2,61.9,27.6,16
189,3341.0,2.0,2.7,2.7,-2.9000000000000004,2.4000000000000004,8.700000000000001,33.400000000000006,46.800000000000004,5.1000000000000005,16
190,3357.0,0.7000000000000001,1.0,-0.2,-3.1,0.0,7.9,17.300000000000004,58.2,-1.9,16
191,3380.0,-0.30000000000000004,0.2,-2.2,-4.7,-0.6000000000000001,8.700000000000001,-1.2000000000000002,66.3,-5.500000000000001,16
192,3389.0,-1.0,0.6000000000000001,-2.3000000000000003,-4.800000000000001,0.30000000000000004,6.800000000000001,-14.600000000000001,73.9,-8.8,16
193,3412.0,-1.4000000000000001,-0.1,-3.0,-5.4,-2.3000000000000003,6.5,-42.1,34.0,-17.1,16
194,3422.0,-1.9000000000000001,-2.9000000000000004,0.30000000000000004,-6.0,-3.6,9.200000000000001,-37.1,10.600000000000001,-9.4,16
195,3442.0,-1.4000000000000001,-2.9000000000000004,8.200000000000001,-5.4,-3.5,17.1,9.600000000000001,-39.599999999999994,33.7,16
196,3456.0,0.4,-2.7,-1.2000000000000002,-3.7,-3.1,7.800000000000001,56.0,10.600000000000001,26.799999999999997,16
197,3477.0,2.0,1.1,-6.1000000000000005,-2.1,0.8,2.8000000000000003,17.7,12.5,12.100000000000001,16
198,3489.0,2.0,1.1,-6.1000000000000005,-3.4000000000000004,0.0,3.9000000000000004,-13.3,14.700000000000001,2.0,16
199,3507.0,-1.4000000000000001,0.7000000000000001,-2.2,-5.9,-1.0,6.300000000000001,-33.50000000000001,14.300000000000002,-2.0,16
200,3522.0,-3.4000000000000004,-1.6,0.5,-6.5,-0.9,9.5,-24.3,-0.2,15.700000000000001,16
201,3541.0,-1.3,-0.6000000000000001,0.4,-5.4,0.4,11.5,-2.3,-28.900000000000002,20.0,16
202,3558.0,1.1,1.0,-0.8,-3.1,0.7000000000000001,10.8,12.100000000000001,-47.3,5.500000000000001,16
203,3573.0,2.2,1.4000000000000001,-0.30000000000000004,-1.7000000000000002,1.0,8.700000000000001,12.7,-69.5,-7.300000000000001,16
204,3590.0,5.4,2.5,2.0,1.8,2.1,11.100000000000001,25.6,-139.4,-13.5,16
205,3607.0,3.8000000000000003,0.5,0.30000000000000004,0.5,0.2,9.5,38.2,-79.19999999999999,-40.6,16
206,3624.0,2.2,-1.0,1.4000000000000001,-0.9,-1.3,10.700000000000001,26.700000000000003,-69.20000000000002,-38.400000000000006,16
207,3640.0,-2.8000000000000003,-1.4000000000000001,6.0,-5.6000000000000005,-1.6,15.4,35.1,-92.10000000000001,-20.599999999999998,16
208,3658.0,-1.5,-1.5,-2.0,-4.3,-1.6,7.4,31.400000000000002,32.300000000000004,-26.300000000000004,16
209,3675.0,-3.1,-1.8,-8.700000000000001,-5.9,-1.9000000000000001,0.6000000000000001,1.0,-28.700000000000003,-7.300000000000001,16
210,3689.0,-3.1,-1.8,-8.700000000000001,-6.9,-2.2,3.2,-9.8,-73.5,2.7,16
211,3707.0,-5.5,-1.8,-0.5,-8.3,-1.8,12.8,5.0,-94.9,17.9,16
212,3724.0,-4.9,-0.9,2.6,-5.1000000000000005,0.9,12.600000000000001,7.8,-40.300000000000004,29.200000000000003,16
213,3740.0,-1.4000000000000001,2.3000000000000003,1.7000000000000002,-4.7,3.6,12.700000000000001,-7.0,-4.1,9.600000000000001,16
214,3756.0,-1.2000000000000002,3.5,1.8,-3.5,3.4000000000000004,11.4,8.2,5.4,-14.900000000000002,16
215,3778.0,-0.30000000000000004,1.9000000000000001,-5.6000000000000005,-5.300000000000001,1.7000000000000002,4.3,-18.8,-19.700000000000003,-28.800000000000004,16
216,3790.0,-4.3,1.4000000000000001,-0.1,-6.5,1.2000000000000002,9.4,-20.900000000000002,-64.80000000000001,-21.6,16
217,3807.0,0.1,-2.1,0.9,-1.9000000000000001,-2.3000000000000003,10.5,-14.600000000000001,-50.900000000000006,-14.600000000000001,16
218,3826.0,3.3000000000000003,-2.8000000000000003,10.9,1.4000000000000001,-3.1,20.6,-20.5,-23.2,13.6,16
219,3840.0,5.9,2.5,4.800000000000001,3.7,2.3000000000000003,14.4,31.6,129.10000000000002,-18.3,16
220,3857.0,1.8,0.6000000000000001,-4.1000000000000005,-0.7000000000000001,0.6000000000000001,5.4,96.60000000000001,73.10000000000001,-46.199999999999996,16
221,3874.0,1.8,0.6000000000000001,-4.1000000000000005,-3.8000000000000003,-2.2,6.1000000000000005,102.4,38.2,-43.300000000000004,16
222,3890.0,-2.0,-4.7,-5.300000000000001,-5.800000000000001,-4.800000000000001,3.0,60.2,-5.9,-5.300000000000001,16
223,3906.0,-2.2,-3.8000000000000003,-7.0,0.7000000000000001,0.5,-3.4000000000000004,3.9,-132.5,14.300000000000002,16
224,3923.0,0.30000000000000004,0.0,-1.9000000000000001,-4.0,1.1,13.100000000000001,-26.000000000000004,-79.7,-9.3,16
225,3942.0,-0.5,0.5,0.7000000000000001,-2.8000000000000003,-1.3,10.4,-15.2,-83.4,-20.400000000000002,16
226,3957.0,-0.7000000000000001,-1.3,2.8000000000000003,-2.3000000000000003,-1.1,12.5,-13.100000000000001,-94.4,-19.400000000000002,16
227,3973.0,1.1,-1.0,-0.6000000000000001,-0.30000000000000004,-0.8,9.1,-5.8,-80.10000000000001,1.2000000000000002,16
228,3990.0,-1.7000000000000002,2.1,3.0,-2.9000000000000004,2.3000000000000003,12.8,18.200000000000003,-47.1,31.400000000000002,16
229,4007.0,-5.0,-2.1,0.5,-6.2,-1.8,10.3,1.3,30.200000000000003,38.900000000000006,16
230,4023.0,-0.8,0.7000000000000001,0.5,-2.2,1.0,10.200000000000001,-37.9,60.1,61.8,16
231,4041.0,-2.1,1.5,0.4,-3.7,1.6,10.0,-21.1,57.699999999999996,55.60000000000001,16
232,4057.0,-2.1,1.5,0.4,-5.5,1.6,5.0,-35.4,52.80000000000001,72.50000000000001,16
233,4073.0,-3.0,1.5,-4.9,-3.5,1.6,8.200000000000001,-105.20000000000002,-6.699999999999999,85.69999999999999,16
234,4091.0,-2.1,1.0,-0.30000000000000004,-3.5,0.5,8.5,-109.9,-48.9,76.4,16
235,4106.0,-3.0,0.9,-0.30000000000000004,-4.6000000000000005,0.2,10.0,-140.10000000000002,-128.60000000000002,97.00000000000001,16
236,4124.0,-3.2,0.6000000000000001,1.4000000000000001,-3.2,-1.1,12.100000000000001,-151.9,-147.8,146.60000000000002,16
237,4141.0,-0.9,-0.1,2.7,0.0,-1.9000000000000001,13.0,-136.9,-97.10000000000001,168.0,16
238,4156.0,0.5,-1.0,2.9000000000000004,0.0,-2.7,12.600000000000001,-124.39999999999999,-67.2,161.10000000000002,16
239,4173.0,2.8000000000000003,-2.5,1.6,2.3000000000000003,-4.6000000000000005,11.200000000000001,-109.7,-31.799999999999997,125.10000000000001,16
240,4190.0,3.6,-4.5,4.800000000000001,3.0,-6.800000000000001,14.3,-58.1,34.400000000000006,48.70000000000001,16
241,4207.0,2.2,-3.7,4.4,1.4000000000000001,-6.0,13.9,7.0,101.10000000000001,0.7,16
242,4224.0,-0.1,-1.8,1.7000000000000002,-1.0,-4.0,11.200000000000001,59.20000000000001,8.700000000000001,-7.1000000000000005,16
243,4240.0,-0.1,-1.8,1.7000000000000002,-1.3,-3.5,10.9,68.2,-2.2,3.5,16
244,4257.0,1.1,-0.9,-1.7000000000000002,-0.2,-2.9000000000000004,6.1000000000000005,19.200000000000003,-9.3,34.50000000000001,16
245,4273.0,0.2,-0.6000000000000001,-2.9000000000000004,-0.8,-1.9000000000000001,7.800000000000001,-38.900000000000006,-49.1,51.50000000000001,16
246,4291.0,-0.8,0.7000000000000001,-0.8,-1.0,-0.8,9.1,-77.80000000000001,-64.9,67.60000000000001,16
247,4307.0,-0.8,1.7000000000000002,-0.7000000000000001,-2.1,-0.4,11.0,-54.0,-65.3,67.3,16
248,4324.0,-1.0,1.8,3.0,-0.9,-1.9000000000000001,10.700000000000001,18.3,9.600000000000001,75.5,16
249,4339.0,0.7000000000000001,0.5,-1.0,0.1,-1.8,8.5,49.0,27.3,77.7,16
250,4356.0,0.4,-0.4,-3.1,-0.30000000000000004,-2.5,6.4,81.0,25.300000000000004,77.1,16
251,4374.0,0.9,-1.3,-5.6000000000000005,0.1,-3.1,4.0,75.4,6.0,80.9,16
252,4391.0,0.30000000000000004,-1.1,-5.1000000000000005,-0.7000000000000001,-2.8000000000000003,4.6000000000000005,54.50000000000001,25.300000000000004,86.3,16
253,4406.0,0.5,-1.9000000000000001,-4.800000000000001,-0.7000000000000001,-3.3000000000000003,4.800000000000001,51.1,38.2,95.9,16
254,4424.0,0.9,-2.4000000000000004,-3.8000000000000003,-0.4,-3.7,5.800000000000001,38.50000000000001,43.6,92.7,16
255,4439.0,0.9,-2.4000000000000004,-3.8000000000000003,0.6000000000000001,-4.2,6.2,34.60000000000001,38.0,86.4,16
256,4457.0,2.2,-3.7,-3.6,0.1,-4.6000000000000005,6.9,12.9,17.1,60.400000000000006,16
257,4473.0,0.1,-2.5,-1.2000000000000002,-3.0,-2.6,9.4,4.2,11.900000000000002,24.599999999999998,16
258,4491.0,-2.6,-1.0,-0.1,-3.8000000000000003,-1.6,10.5,21.200000000000003,6.0,9.4,16
259,4506.0,-1.7000000000000002,-0.7000000000000001,1.4000000000000001,-2.7,-1.3,9.200000000000001,34.7,12.299999999999999,9.700000000000001,16
260,4524.0,-0.6000000000000001,0.6000000000000001,-1.6,-2.7,0.7000000000000001,9.1,5.1000000000000005,-10.9,-12.5,16
261,4540.0,-0.9,2.1,0.1,-2.5,1.1,9.8,-14.5,-14.100000000000001,-29.900000000000006,16
262,4558.0,-0.4,0.9,1.8,-1.8,-0.1,11.5,-30.5,-53.9,-44.2,16
263,4573.0,-0.7000000000000001,-0.8,2.4000000000000004,-1.8,-2.0,12.100000000000001,-25.200000000000003,-92.10000000000001,-52.7,16
264,4590.0,-2.5,-2.1,1.3,-3.2,-3.2,11.0,12.5,-133.3,-67.00000000000001,16
265,4607.0,-0.7000000000000001,-2.8000000000000003,-1.3,-0.9,-3.9000000000000004,8.5,46.300000000000004,-151.3,-58.3,16
266,4625.0,-0.7000000000000001,-2.8000000000000003,-1.3,-0.5,-3.5,9.0,25.200000000000003,-88.4,-62.199999999999996,16
267,4640.0,-0.7000000000000001,-2.5,-0.7000000000000001,-0.30000000000000004,-2.3000000000000003,9.0,9.4,-42.0,-72.30000000000001,16
268,4656.0,-1.3,-0.2,-0.30000000000000004,-0.9,-0.7000000000000001,9.0,-4.800000000000001,-25.7,-75.9,16
269,4674.0,-1.9000000000000001,1.6,0.5,-2.4000000000000004,1.8,12.200000000000001,-13.399999999999999,-54.0,-84.5,16
270,4690.0,-2.3000000000000003,2.3000000000000003,1.0,-3.3000000000000003,1.3,12.9,14.900000000000002,-83.60000000000001,-49.6,16
271,4707.0,-4.4,3.7,6.300000000000001,-1.5,3.9000000000000004,15.200000000000001,64.4,-12.299999999999999,-26.000000000000004,16
272,4724.0,-1.8,4.1000000000000005,3.0,-0.9,3.4000000000000004,12.8,73.8,15.6,-31.799999999999997,16
273,4740.0,-2.2,5.7,4.3,-1.5,5.300000000000001,14.100000000000001,67.9,52.900000000000006,-42.3,16
274,4756.0,-3.9000000000000004,6.2,5.0,-3.4000000000000004,6.0,14.8,73.4,49.6,-20.8,16
275,4773.0,-3.1,5.800000000000001,5.1000000000000005,-2.7,6.0,14.9,119.30000000000003,-0.2,22.3,16
276,4789.0,-3.0,3.8000000000000003,6.0,-2.4000000000000004,4.5,15.8,172.9,-36.300000000000004,59.40000000000001,16
277,4808.0,-1.5,2.6,3.4000000000000004,-0.9,3.9000000000000004,13.100000000000001,187.20000000000002,-13.3,50.2,16
278,4823.0,-1.5,2.6,3.4000000000000004,-0.7000000000000001,3.3000000000000003,12.700000000000001,185.3,-3.6000000000000005,38.1,16
279,4840.0,-0.9,1.0,2.4000000000000004,0.1,2.9000000000000004,11.4,145.3,21.8,-27.800000000000004,16
280,4857.0,-0.30000000000000004,-0.6000000000000001,2.7,0.0,0.8,12.4,152.0,-10.8,-128.60000000000002,16
281,4873.0,-0.9,-2.9000000000000004,2.4000000000000004,-0.5,-0.30000000000000004,11.0,152.3,-55.7,-149.50000000000003,16
282,4889.0,-1.3,-3.4000000000000004,0.9,-0.9,-0.2,10.600000000000001,138.7,-103.00000000000001,-128.70000000000002,16
283,4907.0,-1.0,-3.8000000000000003,1.6,0.8,-0.6000000000000001,9.5,108.50000000000001,-72.30000000000001,-107.30000000000001,16
284,4923.0,1.2000000000000002,-5.0,0.4,1.9000000000000001,-1.1,9.4,85.4,-39.9,-100.0,16
285,4941.0,1.3,-5.800000000000001,-0.6000000000000001,1.9000000000000001,-1.8,8.3,36.400000000000006,15.5,-81.8,16
286,4956.0,1.5,-4.2,0.4,1.9000000000000001,-0.2,9.3,-6.300000000000001,46.300000000000004,-76.0,16
287,4973.0,1.0,-3.5,-0.6000000000000001,1.2000000000000002,0.5,8.4,-31.6,40.7,-76.3,16
288,4994.0,1.6,-3.1,-2.4000000000000004,1.7000000000000002,0.7000000000000001,6.7,-53.50000000000001,-2.9,-77.80000000000001,16
289,5008.0,1.4000000000000001,-3.7,-4.7,1.5,-0.1,4.5,-87.50000000000001,-39.50000000000001,-89.6,16
290,5024.0,1.4000000000000001,-3.7,-4.7,2.0,-0.6000000000000001,3.9000000000000004,-111.80000000000001,-42.3,-105.7,16
291,5040.0,4.1000000000000005,-3.0,-2.5,5.5,1.7000000000000002,8.200000000000001,-143.70000000000002,31.7,-170.50000000000003,16
292,5057.0,4.6000000000000005,-1.6,-4.1000000000000005,2.8000000000000003,0.8,6.0,-152.6,91.2,-226.3,16
293,5073.0,3.5,-0.30000000000000004,-4.4,2.4000000000000004,1.9000000000000001,4.2,-142.79999999999998,123.5,-251.00000000000003,16
294,5091.0,3.2,-0.4,-5.4,2.1,0.5,5.6000000000000005,-116.30000000000001,108.2,-237.90000000000003,16
295,5108.0,3.4000000000000004,-1.4000000000000001,-2.1,1.2000000000000002,-0.5,7.9,-57.60000000000001,77.20000000000002,-145.9,16
296,5123.0,3.5,-0.9,1.1,1.6,0.2,10.700000000000001,-35.8,72.2,-83.89999999999999,16
297,5140.0,2.4000000000000004,1.0,-3.3000000000000003,0.30000000000000004,2.1,6.2,-21.900000000000002,38.0,14.200000000000001,16
298,5156.0,1.8,3.3000000000000003,-2.9000000000000004,-0.2,4.3,6.6000000000000005,-40.9,-30.3,47.5,16
299,5174.0,1.2000000000000002,4.3,0.9,-0.7000000000000001,5.2,10.5,-54.1,-46.4,39.9,16
300,5190.0,1.2000000000000002,4.3,0.9,-0.6000000000000001,4.5,10.600000000000001,-56.50000000000001,-36.1,34.900000000000006,16
301,5207.0,1.7000000000000002,3.5,0.0,0.30000000000000004,3.1,9.0,-62.1,-35.599999999999994,22.4,16
302,5223.0,2.3000000000000003,1.0,-1.7000000000000002,1.5,0.9,8.6,-68.7,-52.80000000000001,16.900000000000002,16
303,5239.0,3.5,1.3,1.4000000000000001,1.1,4.6000000000000005,14.200000000000001,-64.30000000000001,-2.8,-10.5,16
304,5256.0,-0.1,7.800000000000001,6.800000000000001,-4.7,10.8,16.7,-16.6,131.2,-62.7,16
305,5273.0,-5.5,12.200000000000001,4.5,-9.0,12.100000000000001,11.100000000000001,42.800000000000004,126.30000000000001,-62.6,16
306,5290.0,-6.0,12.5,1.8,-8.3,12.8,11.3,59.60000000000001,32.7,-41.199999999999996,16
307,5307.0,-4.5,2.8000000000000003,6.800000000000001,-6.6000000000000005,3.5,16.400000000000002,147.29999999999998,-45.5,-20.3,16
308,5323.0,-4.800000000000001,-3.5,2.6,-6.7,-2.2,12.100000000000001,195.5,-85.1,19.300000000000004,16
309,5340.0,0.5,-0.30000000000000004,-2.5,-1.2000000000000002,1.5,7.0,169.29999999999998,-82.9,56.2,16
310,5356.0,3.1,1.0,0.9,1.8,3.2,10.4,116.80000000000001,-52.80000000000001,48.800000000000004,16
311,5373.0,3.1,1.0,0.9,2.0,3.2,9.1,81.0,-46.4,46.0,16
312,5390.0,3.1,1.4000000000000001,0.5,2.4000000000000004,3.0,8.9,28.3,-28.900000000000002,35.0,16
313,5406.0,4.9,0.0,-0.6000000000000001,4.0,2.4000000000000004,9.600000000000001,22.6,-37.800000000000004,9.100000000000001,16
314,5422.0,3.9000000000000004,-0.7000000000000001,1.1,1.4000000000000001,1.5,11.700000000000001,31.400000000000002,-12.299999999999999,-35.3,16
315,5439.0,0.4,-2.4000000000000004,2.5,-1.2000000000000002,0.1,10.4,60.00000000000001,22.1,-61.199999999999996,16
316,5456.0,-1.2000000000000002,-1.8,-0.8,-3.4000000000000004,1.5,7.6000000000000005,56.0,24.1,-55.400000000000006,16
317,5473.0,-3.1,-1.6,-2.5,-4.3,1.4000000000000001,6.800000000000001,48.0,22.700000000000003,-46.800000000000004,16
318,5490.0,-4.3,-1.7000000000000002,-3.5,-5.7,1.3,5.7,14.900000000000002,17.1,-14.300000000000002,16
319,5511.0,-2.3000000000000003,-1.3,-4.0,-1.8,1.9000000000000001,5.300000000000001,-36.5,-4.4,21.1,16
320,5525.0,0.8,-1.0,-2.7,-0.6000000000000001,1.9000000000000001,6.5,-52.7,-11.000000000000002,19.1,16
321,5541.0,-0.9,-1.6,-1.0,-2.2,1.1,8.3,-64.2,-22.3,8.700000000000001,16
322,5558.0,-2.7,-1.8,0.9,-3.9000000000000004,0.7000000000000001,10.3,-58.900000000000006,-22.2,15.700000000000001,16
323,5573.0,-2.7,-1.8,0.9,-4.1000000000000005,1.0,10.8,-50.3,-17.6,22.3,16
324,5590.0,-3.3000000000000003,-1.4000000000000001,1.1,-4.6000000000000005,0.8,10.700000000000001,-22.8,-19.200000000000003,42.60000000000001,16
325,5609.0,-3.3000000000000003,-1.5,0.9,-3.8000000000000003,0.8,9.8,-5.0,0.6000000000000001,61.0,16
326,5624.0,-1.9000000000000001,-1.3,0.2,-2.4000000000000004,1.5,9.0,13.5,41.300000000000004,68.4,16
327,5641.0,-1.0,-0.6000000000000001,-1.0,-2.1,1.9000000000000001,7.5,19.6,81.7,65.7,16
328,5657.0,-0.4,-0.6000000000000001,-2.7,-1.7000000000000002,1.5,6.300000000000001,6.2,96.0,65.2,16
329,5674.0,0.1,-1.2000000000000002,-3.4000000000000004,-1.6,1.3,6.0,-5.300000000000001,94.6,66.3,16
330,5690.0,0.2,-0.8,-3.6,-1.7000000000000002,1.7000000000000002,5.7,-29.300000000000004,88.60000000000001,68.3,16
331,5707.0,0.1,-0.5,-3.5,-1.9000000000000001,1.9000000000000001,5.7,-52.400000000000006,74.0,65.0,16
332,5723.0,1.0,0.1,-2.0,-1.2000000000000002,2.4000000000000004,7.300000000000001,-70.10000000000001,64.4,38.300000000000004,16
333,5740.0,0.9,0.5,-0.6000000000000001,-1.5,2.5,8.700000000000001,-71.8,70.7,5.500000000000001,16
334,5757.0,0.9,0.5,-0.6000000000000001,-2.2,3.6,11.0,-60.1,85.80000000000001,-1.5,16
335,5773.0,0.2,1.8,1.8,-2.2,3.9000000000000004,10.5,-10.299999999999999,144.4,11.8,16
336,5789.0,0.0,1.7000000000000002,-1.9000000000000001,-3.4000000000000004,3.0,6.0,-16.6,119.1,43.900000000000006,16
337,5808.0,0.4,1.1,-2.9000000000000004,-2.4000000000000004,3.2,6.300000000000001,-52.5,82.8,45.6,16
338,5823.0,2.1,2.2,-2.0,-1.1,4.4,8.5,-70.7,81.60000000000001,18.8,16
339,5840.0,3.1,3.4000000000000004,-0.4,-1.8,5.4,8.0,-46.1,40.0,-23.3,16
340,5858.0,1.4000000000000001,2.9000000000000004,2.3000000000000003,-2.4000000000000004,4.4,11.200000000000001,-32.8,24.7,-54.50000000000001,16
341,5874.0,-0.30000000000000004,2.0,2.3000000000000003,-4.2,3.3000000000000003,11.200000000000001,-3.1,8.4,-80.9,16
342,5890.0,-1.6,1.1,3.0,-5.6000000000000005,2.3000000000000003,11.9,-2.3,-0.7,-37.1,16
343,5907.0,-0.5,1.2000000000000002,3.5,-4.4,2.4000000000000004,12.4,-18.8,-13.399999999999999,1.1,16
344,5923.0,1.8,1.2000000000000002,5.300000000000001,-2.0,2.3000000000000003,14.200000000000001,-13.100000000000001,-29.900000000000006,-2.4000000000000004,16
345,5940.0,1.8,1.2000000000000002,5.300000000000001,-0.8,1.6,14.700000000000001,1.9,-18.200000000000003,-17.6,16
346,5958.0,3.3000000000000003,-0.30000000000000004,6.2,-0.6000000000000001,0.9,15.100000000000001,51.70000000000001,38.0,-65.2,16
347,5973.0,3.3000000000000003,-0.30000000000000004,6.2,-0.8,1.0,14.3,65.7,55.400000000000006,-78.3,16
348,5990.0,3.0,-0.30000000000000004,5.1000000000000005,-1.8,0.9,13.100000000000001,88.60000000000001,84.6,-99.30000000000001,16
349,6006.0,1.9000000000000001,-0.8,3.7,-2.9000000000000004,0.6000000000000001,11.200000000000001,108.39999999999999,97.3,-106.5,16
350,6024.0,1.5,-0.6000000000000001,0.7000000000000001,-4.1000000000000005,1.0,7.5,95.30000000000001,87.89999999999999,-105.0,16
351,6039.0,0.1,-0.8,-1.5,-4.9,0.9,6.800000000000001,77.4,74.5,-100.5,16
352,6058.0,-0.5,-0.4,-2.3000000000000003,-5.7,1.3,5.9,38.50000000000001,42.2,-84.80000000000001,16
353,6073.0,-1.3,-1.2000000000000002,-1.3,-6.6000000000000005,0.30000000000000004,6.9,1.8000000000000003,-7.8,-60.300000000000004,16
354,6093.0,0.4,-0.7000000000000001,0.5,-4.800000000000001,0.7000000000000001,8.700000000000001,-0.8,-18.0,-39.0,16
355,6110.0,2.1,-1.2000000000000002,1.1,-3.1,0.30000000000000004,9.3,27.0,12.9,-35.5,16
356,6122.0,2.1,-1.2000000000000002,1.1,-2.2,0.30000000000000004,8.700000000000001,72.30000000000001,53.0,-49.0,16
357,6141.0,3.0,-1.6,-2.2,-2.6,0.1,5.7,109.50000000000001,84.5,-64.50000000000001,16
358,6159.0,3.0,-1.6,-2.2,-2.3000000000000003,0.4,3.8000000000000003,113.5,94.2,-93.4,16
359,6173.0,3.6,-1.4000000000000001,-3.9000000000000004,-2.4000000000000004,0.5,2.6,103.49999999999999,94.0,-106.5,16
360,6191.0,2.9000000000000004,-1.9000000000000001,-5.2,-3.8000000000000003,-0.30000000000000004,2.5,82.8,97.3,-113.89999999999999,16
361,6209.0,2.1,-2.1,-4.6000000000000005,-4.6000000000000005,-0.5,2.1,68.5,118.60000000000001,-104.50000000000001,16
362,6223.0,2.0,-2.5,-5.2,-4.800000000000001,-0.8,1.7000000000000002,60.1,129.3,-97.7,16
363,6240.0,2.6,-2.8000000000000003,-4.5,-4.6000000000000005,-1.2000000000000002,2.1,43.00000000000001,148.0,-93.49999999999999,16
364,6258.0,1.8,-3.5,-2.3000000000000003,-5.7,-2.1,3.8000000000000003,37.50000000000001,172.00000000000003,-92.10000000000001,16
365,6275.0,0.4,-3.6,-1.5,-7.6000000000000005,-2.4000000000000004,4.1000000000000005,41.800000000000004,189.4,-82.50000000000001,16
366,6290.0,0.30000000000000004,-3.8000000000000003,-1.7000000000000002,-8.0,-2.6,3.4000000000000004,31.2,182.70000000000002,-66.1,16
367,6311.0,0.6000000000000001,-2.9000000000000004,-1.8,-8.0,-1.9000000000000001,2.9000000000000004,-0.2,151.20000000000002,-61.50000000000001,16
368,6322.0,0.6000000000000001,-2.9000000000000004,-1.8,-8.3,-2.5,2.6,-25.8,140.9,-65.2,16
369,6340.0,0.1,-3.6,-0.9,-8.9,-3.2,4.0,-62.6,126.4,-71.19999999999999,16
370,6357.0,0.2,-4.0,0.1,-8.5,-3.7,4.2,-86.8,128.9,-82.10000000000001,16
371,6373.0,1.0,-3.8000000000000003,0.7000000000000001,-7.6000000000000005,-3.9000000000000004,5.1000000000000005,-101.6,146.0,-100.1,16
372,6390.0,1.9000000000000001,-3.7,2.6,-7.5,-4.4,6.1000000000000005,-93.10000000000001,170.8,-130.6,16
373,6411.0,1.4000000000000001,-3.7,2.9000000000000004,-9.600000000000001,-4.9,6.1000000000000005,-77.3,171.39999999999998,-158.6,16
374,6422.0,-0.6000000000000001,-3.6,3.4000000000000004,-10.100000000000001,-5.0,5.5,-66.7,161.5,-163.5,16
375,6440.0,-2.1,-3.2,2.7,-11.600000000000001,-5.2,4.4,-52.300000000000004,117.1,-164.79999999999998,16
376,6457.0,-3.7,-3.3000000000000003,2.5,-13.100000000000001,-5.800000000000001,4.0,-52.7,52.400000000000006,-158.6,16
377,6473.0,-3.3000000000000003,-2.7,2.7,-12.5,-5.7,4.1000000000000005,-54.300000000000004,2.3,-152.70000000000002,16
378,6490.0,-4.5,-2.5,3.8000000000000003,-13.5,-6.0,5.2,-59.5,-20.1,-153.4,16
379,6510.0,-5.1000000000000005,-1.2000000000000002,4.9,-14.0,-5.1000000000000005,6.2,-52.1,-12.200000000000001,-142.10000000000002,16
380,6522.0,-5.1000000000000005,-1.2000000000000002,4.9,-13.700000000000001,-4.7,6.2,-47.2,-2.5,-135.8,16
381,6541.0,-4.5,0.1,4.4,-12.700000000000001,-3.7,5.4,-42.60000000000001,11.3,-130.20000000000002,16
382,6557.0,-3.8000000000000003,1.3,4.1000000000000005,-12.200000000000001,-3.1,5.5,-41.800000000000004,14.300000000000002,-129.10000000000002,16
383,6575.0,-3.4000000000000004,2.4000000000000004,4.3,-11.5,-2.2,5.4,-33.7,8.3,-125.7,16
384,6589.0,-2.9000000000000004,3.6,3.9000000000000004,-10.600000000000001,-1.3,4.7,-21.1,-4.5,-128.8,16
385,6610.0,-2.4000000000000004,4.6000000000000005,3.4000000000000004,-10.700000000000001,-1.0,4.5,-4.0,-17.9,-130.9,16
386,6622.0,-3.4000000000000004,5.1000000000000005,3.1,-11.100000000000001,-0.9,4.3,7.699999999999999,-22.1,-125.4,16
387,6641.0,-3.9000000000000004,5.7,2.5,-11.4,-0.5,3.8000000000000003,33.2,-22.6,-105.4,16
388,6658.0,-3.9000000000000004,6.6000000000000005,1.6,-11.3,0.30000000000000004,3.0,57.00000000000001,-12.100000000000001,-73.5,16
389,6672.0,-3.3000000000000003,7.0,0.0,-10.600000000000001,0.6000000000000001,1.6,68.0,-2.4000000000000004,-46.0,16
390,6690.0,-2.8000000000000003,7.4,-0.7000000000000001,-10.0,0.9,1.1,71.8,7.699999999999999,-31.099999999999998,16
391,6714.0,-2.4000000000000004,7.6000000000000005,-2.1,-9.5,1.2000000000000002,-0.30000000000000004,69.00000000000001,21.6,-26.9,16
392,6723.0,-2.4000000000000004,7.6000000000000005,-2.1,-9.5,1.1,-0.9,61.7,24.400000000000002,-26.200000000000003,16
393,6740.0,-2.6,7.4,-2.7,-10.200000000000001,0.8,-0.2,46.4,27.3,-19.1,16
394,6757.0,-3.5,7.2,-1.4000000000000001,-11.0,0.5,1.1,44.8,38.7,-3.2,16
395,6773.0,-4.3,6.300000000000001,-0.6000000000000001,-11.600000000000001,-0.5,1.6,47.900000000000006,55.900000000000006,18.1,16
396,6793.0,-4.5,5.4,0.4,-12.3,-1.7000000000000002,3.0,45.5,84.1,25.900000000000002,16
397,6813.0,-5.5,4.0,2.2,-13.5,-2.7,5.0,40.9,119.0,19.0,16
398,6822.0,-6.9,3.1,4.7,-14.4,-3.1,6.2,42.5,133.70000000000002,13.000000000000002,16
399,6840.0,-8.9,2.1,7.0,-16.5,-4.0,8.200000000000001,61.0,149.50000000000003,9.3,16
400,6857.0,-11.100000000000001,0.9,7.9,-18.8,-5.1000000000000005,9.0,92.90000000000002,142.20000000000002,29.700000000000006,16
401,6873.0,-11.0,0.1,7.5,-18.8,-5.7,8.5,120.10000000000001,121.80000000000001,71.10000000000001,16
402,6890.0,-8.8,-0.4,6.2,-16.8,-5.9,7.2,125.60000000000001,103.10000000000001,98.7,16
403,6914.0,-7.7,-1.7000000000000002,5.6000000000000005,-15.9,-6.9,6.5,113.00000000000001,95.30000000000001,106.4,16
404,6924.0,-7.7,-1.7000000000000002,5.6000000000000005,-15.3,-6.800000000000001,6.5,103.89999999999999,95.0,106.9,16
405,6941.0,-6.0,-1.6,6.0,-13.9,-6.0,7.1000000000000005,89.70000000000002,97.60000000000001,108.90000000000002,16
406,6958.0,-4.7,-1.3,6.2,-12.600000000000001,-5.6000000000000005,6.7,84.2,84.9,118.3,16
407,6974.0,-2.6,-0.9,6.1000000000000005,-10.4,-4.9,6.7,85.0,64.80000000000001,126.4,16
408,6990.0,-0.30000000000000004,-1.0,6.0,-9.3,-4.800000000000001,6.6000000000000005,94.2,47.5,128.4,16
409,7006.0,2.0,-1.2000000000000002,5.300000000000001,-7.2,-4.7,5.9,99.9,40.4,125.4,16
410,7024.0,3.3000000000000003,-1.6,4.6000000000000005,-6.0,-4.6000000000000005,5.2,110.6,33.6,115.7,16
411,7040.0,4.0,-1.9000000000000001,3.8000000000000003,-5.4,-4.7,4.4,119.0,40.7,104.80000000000001,16
412,7057.0,4.3,-2.3000000000000003,3.3000000000000003,-5.2,-4.7,3.9000000000000004,124.10000000000001,58.60000000000001,93.49999999999999,16
413,7074.0,4.7,-2.6,3.0,-4.9,-4.800000000000001,3.4000000000000004,125.4,79.7,80.4,16
414,7089.0,4.7,-2.6,3.0,-4.9,-4.800000000000001,3.2,123.6,90.5,73.6,16
415,7106.0,4.4,-2.9000000000000004,2.6,-5.6000000000000005,-5.0,2.7,114.10000000000001,105.9,64.30000000000001,16
416,7124.0,3.7,-3.3000000000000003,2.9000000000000004,-6.0,-5.1000000000000005,2.9000000000000004,107.00000000000001,111.0,61.599999999999994,16
417,7140.0,2.5,-4.1000000000000005,3.4000000000000004,-7.7,-6.0,3.1,83.00000000000001,119.30000000000003,65.6,16
418,7157.0,1.7000000000000002,-4.9,3.7,-8.0,-6.6000000000000005,3.0,59.9,112.30000000000001,73.9,16
419,7174.0,1.9000000000000001,-5.5,3.8000000000000003,-7.6000000000000005,-6.9,2.7,28.500000000000004,93.3,75.8,16
420,7191.0,2.4000000000000004,-6.0,3.8000000000000003,-7.300000000000001,-7.0,2.6,10.700000000000001,78.80000000000001,74.60000000000001,16
421,7207.0,2.7,-6.4,4.6000000000000005,-7.0,-7.2,3.3000000000000003,-20.599999999999998,47.1,69.3,16
422,7222.0,3.1,-7.2,5.4,-6.6000000000000005,-7.800000000000001,4.0,-40.2,16.900000000000002,61.7,16
423,7240.0,4.1000000000000005,-7.6000000000000005,6.5,-5.6000000000000005,-8.0,5.1000000000000005,-41.1,7.1000000000000005,46.300000000000004,16
424,7256.0,4.1000000000000005,-7.6000000000000005,6.5,-4.7,-7.5,5.0,-33.300000000000004,3.4,19.0,16
425,7277.0,5.300000000000001,-6.7,6.2,-4.4,-7.1000000000000005,4.9,-23.6,-8.4,-12.5,16
426,7289.0,5.300000000000001,-6.7,6.2,-4.3,-6.9,4.6000000000000005,-18.700000000000003,-18.1,-26.6,16
427,7309.0,5.800000000000001,-5.9,5.6000000000000005,-3.5,-6.0,4.1000000000000005,-11.2,-43.900000000000006,-51.4,16
428,7322.0,6.5,-5.0,4.800000000000001,-3.2,-5.6000000000000005,3.3000000000000003,-7.400000000000001,-73.0,-72.2,16
429,7341.0,6.5,-4.5,4.1000000000000005,-3.3000000000000003,-5.7,3.1,-5.4,-94.3,-92.2,16
430,7356.0,6.1000000000000005,-4.7,3.6,-3.6,-6.0,3.1,-3.4,-101.10000000000001,-103.8,16
431,7375.0,5.0,-5.0,3.3000000000000003,-4.9,-7.0,2.9000000000000004,8.2,-94.6,-139.20000000000002,16
432,7390.0,4.3,-4.9,2.8000000000000003,-5.2,-7.1000000000000005,2.9000000000000004,11.8,-83.5,-153.20000000000002,16
433,7407.0,2.6,-4.4,3.0,-6.800000000000001,-7.2,3.3000000000000003,24.599999999999998,-53.10000000000001,-180.60000000000002,16
434,7424.0,0.7000000000000001,-3.3000000000000003,2.6,-8.6,-6.7,3.0,46.1,-25.200000000000003,-202.0,16
435,7440.0,-1.7000000000000002,-2.1,1.7000000000000002,-10.700000000000001,-6.1000000000000005,2.2,60.5,-7.1000000000000005,-210.20000000000002,16
436,7456.0,-1.7000000000000002,-2.1,1.7000000000000002,-11.5,-5.7,1.7000000000000002,63.900000000000006,-1.9,-208.10000000000002,16
437,7474.0,-3.2,-0.8,0.6000000000000001,-12.0,-4.9,0.9,58.1,6.2,-194.10000000000002,16
438,7491.0,-3.8000000000000003,0.30000000000000004,-0.7000000000000001,-12.200000000000001,-4.7,0.30000000000000004,36.8,4.1,-173.20000000000002,16
439,7508.0,-3.6,1.2000000000000002,0.0,-11.8,-4.3,0.9,19.300000000000004,-6.0,-154.40000000000003,16
440,7522.0,-4.2,1.6,0.30000000000000004,-12.0,-4.0,1.7000000000000002,18.200000000000003,-29.400000000000002,-138.20000000000002,16
441,7541.0,-4.800000000000001,2.5,1.4000000000000001,-12.9,-3.3000000000000003,2.3000000000000003,40.1,-40.9,-121.10000000000001,16
442,7557.0,-5.800000000000001,3.5,0.30000000000000004,-13.100000000000001,-2.9000000000000004,1.5,61.9,-44.10000000000001,-96.30000000000001,16
443,7572.0,-5.6000000000000005,4.3,-2.6,-12.8,-2.3000000000000003,-1.2000000000000002,61.50000000000001,-41.6,-84.6,16
444,7592.0,-5.0,5.0,-4.0,-12.100000000000001,-1.7000000000000002,-2.4000000000000004,43.800000000000004,-27.5,-67.8,16
445,7607.0,-5.2,4.800000000000001,-3.7,-12.100000000000001,-2.0,-2.1,20.400000000000002,-3.6000000000000005,-55.1,16
446,7625.0,-5.1000000000000005,4.800000000000001,-2.1,-12.0,-2.0,-0.5,13.200000000000003,5.6,-45.6,16
447,7641.0,-5.6000000000000005,4.9,-1.0,-12.4,-2.0,0.7000000000000001,20.599999999999998,6.0,-35.699999999999996,16
448,7658.0,-5.7,5.0,-0.9,-12.5,-2.0,0.8,35.599999999999994,3.8,-22.000000000000004,16
449,7673.0,-5.7,5.0,-0.9,-12.5,-1.9000000000000001,0.5,41.6,3.2,-15.100000000000001,16
450,7691.0,-5.800000000000001,5.1000000000000005,-1.3,-12.5,-1.8,0.30000000000000004,49.300000000000004,5.9,-1.3,16
451,7712.0,-5.6000000000000005,5.1000000000000005,-2.1,-12.600000000000001,-2.0,-0.7000000000000001,45.6,10.4,12.600000000000001,16
452,7747.0,-6.7,3.4000000000000004,-1.2000000000000002,-13.9,-3.7,2.1,9.3,26.799999999999997,26.200000000000003,16
453,7768.0,-8.9,2.0,4.9,-16.0,-4.6000000000000005,6.7,28.400000000000002,69.10000000000001,26.799999999999997,16
454,7776.0,-8.9,2.0,4.9,-16.8,-4.7,7.800000000000001,43.4,90.0,32.0,16
455,7789.0,-10.3,1.6,6.9,-17.5,-4.800000000000001,8.5,60.7,109.9,40.4,16
456,7805.0,-10.5,1.1,6.800000000000001,-17.900000000000002,-5.2,8.4,90.9,132.8,65.4,16
457,7822.0,-10.5,1.1,6.800000000000001,-17.7,-5.4,8.200000000000001,101.10000000000001,135.1,78.60000000000001,16
458,7839.0,-10.200000000000001,-0.2,6.6000000000000005,-17.900000000000002,-7.0,7.800000000000001,114.50000000000001,131.0,100.5,16
459,7860.0,-8.200000000000001,-2.5,5.2,-16.3,-7.800000000000001,6.5,112.0,107.5,119.30000000000003,16
460,7874.0,-8.200000000000001,-2.5,5.2,-15.5,-7.7,6.1000000000000005,106.60000000000001,97.2,124.7,16
461,7890.0,-6.0,-2.6,4.7,-13.200000000000001,-7.300000000000001,5.7,95.0,71.6,133.70000000000002,16
462,7907.0,-3.4000000000000004,-2.5,4.3,-10.8,-6.6000000000000005,5.300000000000001,87.7,44.6,138.10000000000002,16
463,7923.0,-0.8,-2.1,4.1000000000000005,-8.6,-5.800000000000001,5.300000000000001,89.2,24.599999999999998,134.8,16
464,7940.0,1.3,-1.8,4.0,-7.7,-5.5,5.2,93.8,19.6,132.2,16
465,7957.0,2.6,-1.8,3.5,-6.6000000000000005,-5.1000000000000005,4.9,107.30000000000001,19.9,127.00000000000003,16
466,7974.0,3.7,-2.2,2.7,-5.6000000000000005,-5.1000000000000005,4.1000000000000005,118.60000000000001,28.700000000000003,119.20000000000002,16
467,7990.0,4.4,-2.3000000000000003,2.1,-5.0,-4.9,3.5,125.60000000000001,42.3,110.30000000000001,16
468,8007.0,4.7,-2.6,1.5,-4.7,-4.7,2.9000000000000004,128.60000000000002,54.4,105.10000000000001,16
469,8023.0,4.7,-2.6,1.5,-4.3,-4.6000000000000005,2.5,127.40000000000002,65.8,102.2,16
470,8040.0,5.300000000000001,-2.8000000000000003,1.2000000000000002,-4.1000000000000005,-4.6000000000000005,2.3000000000000003,125.30000000000001,71.8,99.9,16
471,8058.0,5.7,-3.2,1.0,-4.0,-4.800000000000001,1.9000000000000001,116.9,80.60000000000001,95.0,16
472,8073.0,5.7,-3.7,1.0,-4.1000000000000005,-5.1000000000000005,1.6,103.60000000000001,87.50000000000001,91.4,16
473,8090.0,5.5,-4.5,0.7000000000000001,-4.4,-5.800000000000001,1.1,81.3,85.4,88.20000000000002,16
474,8109.0,5.300000000000001,-5.4,0.5,-4.3,-6.300000000000001,0.9,49.800000000000004,70.10000000000001,82.8,16
475,8123.0,5.6000000000000005,-6.2,0.9,-4.2,-6.6000000000000005,1.1,32.400000000000006,58.5,78.5,16
476,8140.0,5.800000000000001,-6.9,1.6,-4.0,-7.1000000000000005,1.7000000000000002,0.9000000000000001,32.300000000000004,66.80000000000001,16
477,8158.0,5.6000000000000005,-7.7,2.4000000000000004,-4.2,-7.800000000000001,2.5,-21.1,6.500000000000001,52.1,16
478,8175.0,5.6000000000000005,-8.4,3.1,-4.2,-8.4,3.2,-33.50000000000001,-16.4,32.6,16
479,8190.0,4.9,-9.5,3.0,-4.9,-9.5,3.2,-38.0,-30.799999999999997,8.899999999999999,16
480,8209.0,4.4,-9.9,2.5,-5.4,-10.0,2.9000000000000004,-46.300000000000004,-37.9,-16.6,16
481,8224.0,4.4,-9.9,2.5,-5.5,-10.0,2.9000000000000004,-56.6,-41.6,-40.1,16
482,8240.0,4.4,-9.4,2.4000000000000004,-4.9,-9.0,3.1,-62.1,-44.00000000000001,-50.5,16
483,8257.0,5.2,-8.1,2.7,-4.5,-8.3,3.8000000000000003,-69.00000000000001,-54.199999999999996,-69.10000000000001,16
484,8273.0,4.9,-7.6000000000000005,3.4000000000000004,-5.2,-8.4,4.3,-65.3,-66.7,-84.9,16
485,8290.0,4.1000000000000005,-7.6000000000000005,3.1,-5.9,-8.8,4.0,-60.400000000000006,-80.9,-101.20000000000002,16
486,8311.0,3.3000000000000003,-7.6000000000000005,2.3000000000000003,-6.7,-9.3,3.1,-62.199999999999996,-89.70000000000002,-117.5,16
487,8327.0,2.7,-7.6000000000000005,1.3,-6.800000000000001,-9.4,2.8000000000000003,-72.2,-93.60000000000001,-139.70000000000002,16
488,8339.0,2.5,-7.0,1.1,-6.9,-9.4,2.9000000000000004,-78.10000000000001,-91.2,-154.29999999999998,16
489,8358.0,1.5,-6.1000000000000005,2.0,-7.7,-9.0,4.0,-83.80000000000001,-75.3,-183.7,16
490,8372.0,0.4,-4.800000000000001,2.2,-8.5,-8.3,4.3,-76.7,-56.0,-205.79999999999998,16
491,8390.0,-1.0,-3.5,2.4000000000000004,-9.600000000000001,-7.7,4.4,-66.5,-37.50000000000001,-219.9,16
492,8410.0,-3.1,-1.7000000000000002,2.4000000000000004,-11.4,-6.6000000000000005,4.5,-50.5,-22.2,-213.70000000000002,16
493,8423.0,-3.1,-1.7000000000000002,2.4000000000000004,-11.8,-6.0,4.0,-43.800000000000004,-20.5,-204.70000000000002,16
494,8439.0,-4.0,-0.1,1.5,-12.0,-4.9,3.5,-40.5,-29.1,-184.5,16
495,8458.0,-4.4,1.5,1.3,-12.0,-4.1000000000000005,3.1,-42.5,-46.4,-167.0,16
496,8473.0,-4.5,2.6,0.8,-11.600000000000001,-3.4000000000000004,3.0,-48.9,-69.00000000000001,-155.4,16
497,8490.0,-4.6000000000000005,3.4000000000000004,1.0,-11.5,-3.0,3.5,-49.9,-81.50000000000001,-146.60000000000002,16
498,8511.0,-5.2,4.1000000000000005,1.6,-12.200000000000001,-2.4000000000000004,4.4,-38.1,-75.7,-135.9,16
499,8522.0,-6.2,5.300000000000001,1.6,-12.4,-1.9000000000000001,3.9000000000000004,-26.400000000000006,-67.2,-127.69999999999999,16
500,8541.0,-6.6000000000000005,6.5,0.4,-12.600000000000001,-0.9,2.8000000000000003,-8.8,-54.0,-111.9,16
501,8558.0,-7.5,7.4,-0.6000000000000001,-13.200000000000001,-0.2,1.9000000000000001,0.6000000000000001,-53.10000000000001,-102.4,16
502,8573.0,-8.700000000000001,8.200000000000001,-0.7000000000000001,-14.100000000000001,0.4,1.9000000000000001,10.299999999999999,-58.800000000000004,-93.60000000000001,16
503,8590.0,-8.700000000000001,8.200000000000001,-0.7000000000000001,-15.3,0.8,1.9000000000000001,24.599999999999998,-52.80000000000001,-79.1,16
504,8608.0,-11.5,9.0,-1.3,-16.5,1.1,1.7000000000000002,37.1,-29.700000000000006,-53.2,16
505,8623.0,-11.5,9.0,-1.3,-16.7,1.1,1.3,40.5,-12.9,-36.5,16
506,8640.0,-12.3,8.5,-2.5,-17.8,-0.1,0.0,32.2,13.8,0.9000000000000001,16
507,8657.0,-13.100000000000001,7.0,-3.2,-18.3,-1.5,0.2,12.200000000000001,17.5,33.800000000000004,16
508,8673.0,-13.5,5.300000000000001,-2.2,-18.8,-3.2,2.1,-3.6000000000000005,20.5,62.199999999999996,16
509,8690.0,-13.5,3.9000000000000004,0.6000000000000001,-19.1,-4.4,4.9,-4.2,52.400000000000006,86.00000000000001,16
510,8714.0,-13.700000000000001,2.5,3.2,-19.8,-5.5,7.2,6.300000000000001,94.80000000000001,112.60000000000001,16
511,8723.0,-14.5,0.9,5.300000000000001,-20.6,-6.300000000000001,8.0,12.600000000000001,114.10000000000001,129.20000000000002,16
512,8740.0,-15.100000000000001,-1.6,6.2,-21.700000000000003,-8.5,8.700000000000001,23.400000000000002,131.9,168.4,16
513,8756.0,-13.600000000000001,-3.8000000000000003,6.7,-20.700000000000003,-10.200000000000001,9.0,33.6,118.50000000000001,202.0,16
514,8774.0,-11.0,-4.7,5.0,-18.6,-10.600000000000001,7.1000000000000005,37.400000000000006,73.10000000000001,219.4,16
515,8790.0,-11.0,-4.7,5.0,-16.8,-10.200000000000001,6.4,29.200000000000003,14.200000000000001,226.2,16
516,8810.0,-6.5,-5.0,3.9000000000000004,-14.8,-9.600000000000001,6.1000000000000005,26.1,-29.400000000000002,231.00000000000006,16
517,8822.0,-6.5,-5.0,3.9000000000000004,-13.8,-9.3,6.1000000000000005,28.700000000000003,-43.70000000000001,232.8,16
518,8841.0,-4.2,-5.0,3.5,-11.700000000000001,-8.8,5.9,42.0,-55.60000000000001,236.3,16
519,8856.0,-1.9000000000000001,-5.2,3.2,-9.700000000000001,-8.4,5.6000000000000005,64.30000000000001,-44.6,236.10000000000002,16
520,8874.0,0.5,-5.6000000000000005,2.4000000000000004,-7.4,-8.0,4.9,88.10000000000001,-25.5,224.0,16
521,8890.0,2.7,-5.9,1.7000000000000002,-6.5,-7.800000000000001,4.7,98.39999999999999,-15.100000000000001,213.20000000000002,16
522,8908.0,3.8000000000000003,-5.9,0.30000000000000004,-5.4,-7.1000000000000005,3.4000000000000004,112.0,-2.0,189.4,16
523,8923.0,3.8000000000000003,-6.1000000000000005,-0.5,-5.5,-6.800000000000001,2.6,112.60000000000001,2.6,172.5,16
524,8940.0,4.3,-6.300000000000001,-0.6000000000000001,-5.1000000000000005,-6.4,2.4000000000000004,109.7,4.300000000000001,161.6,16
525,8957.0,4.9,-6.800000000000001,-0.5,-4.5,-6.300000000000001,2.5,110.0,7.699999999999999,152.4,16
526,8974.0,5.4,-7.4,-0.8,-3.9000000000000004,-6.4,2.2,114.50000000000001,10.9,142.0,16
527,8993.0,5.800000000000001,-8.3,-1.9000000000000001,-3.4000000000000004,-6.9,1.0,112.5,9.8,129.60000000000002,16
528,9006.0,5.800000000000001,-8.3,-1.9000000000000001,-3.1,-7.0,0.7000000000000001,108.10000000000001,8.899999999999999,121.30000000000001,16
529,9022.0,6.5,-8.9,-2.2,-2.5,-7.1000000000000005,0.6000000000000001,96.1,16.6,102.5,16
530,9040.0,6.800000000000001,-9.5,-2.4000000000000004,-2.3000000000000003,-7.300000000000001,0.2,76.1,36.0,80.8,16
531,9057.0,7.0,-9.700000000000001,-2.4000000000000004,-2.2,-7.5,0.4,50.400000000000006,57.1,56.50000000000001,16
532,9073.0,6.7,-10.5,-1.7000000000000002,-2.3000000000000003,-8.1,1.1,28.700000000000003,66.4,35.8,16
533,9089.0,7.1000000000000005,-11.0,-0.6000000000000001,-2.1,-8.4,1.5,21.500000000000004,65.6,23.400000000000002,16
534,9106.0,6.9,-12.100000000000001,0.0,-2.4000000000000004,-9.5,1.9000000000000001,11.700000000000001,62.7,-7.200000000000001,16
535,9124.0,6.7,-12.4,-0.4,-2.6,-9.9,1.4000000000000001,-0.6000000000000001,46.7,-46.800000000000004,16
536,9140.0,6.0,-12.200000000000001,-0.9,-3.4000000000000004,-10.0,0.8,-22.9,20.8,-82.0,16
537,9159.0,5.9,-11.100000000000001,-0.6000000000000001,-3.6,-9.200000000000001,1.1,-53.10000000000001,-2.2,-107.7,16
538,9173.0,5.9,-11.100000000000001,-0.6000000000000001,-3.7,-9.0,1.6,-65.8,-10.4,-117.9,16
539,9191.0,5.300000000000001,-10.5,0.4,-5.0,-9.4,2.7,-80.50000000000001,-17.799999999999997,-133.8,16
540,9207.0,4.1000000000000005,-10.5,1.1,-5.7,-9.8,3.2,-85.0,-18.8,-149.79999999999998,16
541,9225.0,3.5,-10.5,1.2000000000000002,-6.5,-10.600000000000001,3.1,-89.0,-15.5,-169.60000000000002,16
542,9240.0,2.6,-10.600000000000001,0.7000000000000001,-7.4,-11.200000000000001,2.4000000000000004,-102.3,-14.100000000000001,-195.20000000000002,16
543,9256.0,1.7000000000000002,-10.4,0.30000000000000004,-7.9,-11.5,2.4000000000000004,-126.60000000000002,-15.899999999999999,-223.8,16
544,9275.0,0.30000000000000004,-9.9,0.7000000000000001,-10.0,-11.8,2.9000000000000004,-151.20000000000002,-20.8,-245.39999999999998,16
545,9290.0,-1.4000000000000001,-8.9,1.5,-10.600000000000001,-11.700000000000001,3.5,-160.70000000000002,-26.400000000000006,-251.8,16
546,9308.0,-2.5,-8.0,3.4000000000000004,-11.4,-11.5,5.4,-166.3,-33.50000000000001,-260.0,16
547,9323.0,-3.4000000000000004,-6.7,5.300000000000001,-11.9,-11.100000000000001,7.1000000000000005,-147.2,-27.099999999999998,-268.70000000000005,16
548,9341.0,-4.4,-5.300000000000001,5.9,-12.5,-10.5,7.6000000000000005,-112.20000000000002,-16.6,-275.6,16
549,9357.0,-6.4,-3.7,5.2,-14.0,-9.700000000000001,6.800000000000001,-79.8,-4.4,-281.40000000000003,16
550,9373.0,-6.4,-3.7,5.2,-15.3,-9.0,6.4,-66.5,-3.9,-279.20000000000005,16
551,9390.0,-9.3,-1.3,4.3,-17.2,-6.9,4.800000000000001,-48.2,-16.1,-259.3,16
552,9409.0,-11.0,1.4000000000000001,2.1,-17.3,-4.9,2.4000000000000004,-58.2,-51.2,-222.5,16
553,9423.0,-10.700000000000001,3.5,0.2,-15.9,-3.8000000000000003,1.6,-94.7,-98.60000000000001,-184.20000000000002,16
554,9441.0,-9.5,4.7,1.3,-14.4,-2.9000000000000004,3.5,-121.30000000000001,-126.4,-156.5,16
555,9457.0,-9.1,5.7,3.3000000000000003,-14.200000000000001,-2.6,4.5,-114.6,-132.8,-141.5,16
556,9473.0,-9.8,6.7,4.6000000000000005,-14.600000000000001,-1.9000000000000001,5.7,-101.20000000000002,-128.9,-136.8,16
557,9491.0,-10.5,8.200000000000001,4.3,-14.9,-0.5,5.4,-70.7,-117.20000000000002,-129.70000000000002,16
558,9508.0,-12.0,9.5,4.7,-16.0,0.6000000000000001,5.9,-41.800000000000004,-95.20000000000002,-116.6,16
559,9522.0,-13.600000000000001,10.3,4.3,-17.3,1.3,5.5,-12.4,-67.60000000000001,-88.20000000000002,16
560,9540.0,-14.700000000000001,9.5,3.6,-18.2,0.4,4.800000000000001,1.0,-36.1,-54.699999999999996,16
561,9558.0,-15.600000000000001,8.4,3.9000000000000004,-19.0,-0.7000000000000001,5.2,5.2,-1.1,-37.0,16
562,9573.0,-15.600000000000001,8.4,3.9000000000000004,-19.6,-1.2000000000000002,5.9,9.8,24.200000000000003,-30.5,16
563,9589.0,-16.900000000000002,7.5,5.4,-20.900000000000002,-1.9000000000000001,7.4,28.900000000000002,79.3,-9.5,16
564,9606.0,-17.8,6.7,6.5,-21.700000000000003,-3.1,7.800000000000001,52.5,121.6,35.8,16
565,9623.0,-18.1,4.9,6.4,-21.5,-5.1000000000000005,7.5,69.7,132.9,95.20000000000002,16
566,9640.0,-16.900000000000002,2.5,6.0,-20.400000000000002,-7.5,7.1000000000000005,83.30000000000001,122.20000000000002,145.00000000000003,16
567,9659.0,-15.100000000000001,-0.1,5.5,-19.1,-9.700000000000001,6.5,89.9,108.60000000000001,181.0,16
568,9675.0,-13.4,-2.6,4.7,-18.6,-10.8,6.300000000000001,88.20000000000002,102.60000000000001,195.1,16
569,9690.0,-11.600000000000001,-4.6000000000000005,4.3,-17.400000000000002,-12.4,5.9,75.9,91.6,217.4,16
570,9706.0,-9.4,-5.9,4.7,-15.8,-13.200000000000001,6.300000000000001,64.50000000000001,79.1,231.8,16
571,9723.0,-7.1000000000000005,-6.6000000000000005,4.9,-14.100000000000001,-13.3,6.5,64.30000000000001,63.599999999999994,235.8,16
572,9741.0,-5.0,-6.5,5.0,-12.4,-12.700000000000001,6.7,75.8,50.1,233.8,16
573,9756.0,-5.0,-6.5,5.0,-11.9,-12.5,6.5,85.0,45.8,233.29999999999998,16
574,9774.0,-3.4000000000000004,-6.7,4.6000000000000005,-10.5,-11.8,5.9,105.20000000000002,42.3,232.9,16
575,9789.0,-1.4000000000000001,-6.6000000000000005,3.8000000000000003,-9.1,-11.200000000000001,5.0,122.30000000000001,45.8,229.70000000000002,16
576,9810.0,0.30000000000000004,-6.7,2.5,-7.6000000000000005,-10.700000000000001,3.8000000000000003,129.8,50.2,220.70000000000002,16
577,9825.0,2.1,-6.9,1.7000000000000002,-6.4,-10.200000000000001,3.5,132.4,55.400000000000006,204.5,16
578,9840.0,3.2,-7.1000000000000005,1.2000000000000002,-6.0,-10.0,3.1,133.10000000000002,57.9,196.20000000000002,16
579,9857.0,4.0,-7.4,-0.2,-5.300000000000001,-9.700000000000001,1.6,128.70000000000002,49.50000000000001,186.10000000000002,16
580,9873.0,5.300000000000001,-7.800000000000001,-1.4000000000000001,-4.2,-9.600000000000001,0.30000000000000004,112.7,22.4,182.60000000000002,16
581,9890.0,7.2,-8.4,-2.1,-2.4000000000000004,-9.5,-0.2,88.10000000000001,-4.0,170.40000000000003,16
582,9910.0,8.200000000000001,-9.0,-1.9000000000000001,-1.4000000000000001,-9.700000000000001,0.0,61.9,-10.600000000000001,149.70000000000002,16
583,9923.0,8.200000000000001,-9.0,-1.9000000000000001,-1.0,-9.8,0.0,38.400000000000006,-3.3000000000000007,126.30000000000001,16
584,9939.0,9.0,-9.5,-1.4000000000000001,-0.30000000000000004,-9.8,1.1,31.099999999999998,5.7,114.80000000000001,16
585,9957.0,9.700000000000001,-9.9,-0.5,0.5,-9.9,1.4000000000000001,24.200000000000003,25.5,89.9,16
586,9972.0,10.5,-10.100000000000001,-0.30000000000000004,1.0,-9.700000000000001,1.3,17.1,39.2,60.00000000000001,16
587,9990.0,10.5,-10.200000000000001,-0.5,0.30000000000000004,-10.3,0.9,6.500000000000001,40.300000000000004,30.200000000000003,16
588,10008.0,9.3,-11.3,-1.1,-0.7000000000000001,-11.100000000000001,0.1,-15.299999999999999,29.0,4.6,16
589,10023.0,8.700000000000001,-11.600000000000001,-1.5,-1.0,-11.200000000000001,0.0,-46.4,11.6,-20.8,16
590,10043.0,8.3,-11.4,-1.0,-1.3,-10.9,1.1,-76.3,-1.4,-45.9,16
591,10060.0,8.5,-10.4,0.4,-1.2000000000000002,-10.4,1.9000000000000001,-86.60000000000001,-6.9,-58.60000000000001,16
592,10073.0,7.9,-9.700000000000001,1.5,-1.8,-10.100000000000001,3.0,-95.4,-15.000000000000002,-83.30000000000001,16
593,10090.0,6.800000000000001,-9.700000000000001,2.0,-2.9000000000000004,-10.4,3.6,-94.9,-18.8,-106.60000000000001,16
594,10109.0,6.0,-9.9,2.1,-3.6,-11.100000000000001,3.7,-91.90000000000002,-17.400000000000002,-134.6,16
595,10122.0,6.0,-9.9,2.1,-4.1000000000000005,-11.5,3.6,-92.10000000000001,-14.100000000000001,-150.2,16
596,10140.0,4.7,-10.100000000000001,2.0,-5.4,-12.200000000000001,3.5,-96.4,-6.8,-182.20000000000002,16
597,10158.0,3.5,-9.9,2.1,-6.2,-12.4,3.8000000000000003,-103.00000000000001,-1.6,-215.9,16
598,10173.0,2.5,-9.3,2.7,-7.300000000000001,-12.4,4.7,-105.60000000000002,0.30000000000000004,-248.0,16
599,10191.0,0.8,-8.3,3.7,-8.8,-12.0,5.4,-98.8,0.6000000000000001,-267.6,16
600,10210.0,-1.1,-7.0,4.4,-10.100000000000001,-11.5,5.800000000000001,-83.89999999999999,-2.1,-273.6,16
601,10222.0,-2.5,-5.7,4.7,-10.5,-11.200000000000001,5.800000000000001,-74.80000000000001,-4.2,-273.2,16
602,10239.0,-3.7,-4.4,4.5,-11.200000000000001,-10.600000000000001,5.6000000000000005,-58.3,-5.300000000000001,-271.6,16
603,10259.0,-4.9,-3.0,4.6000000000000005,-11.8,-9.9,5.5,-43.50000000000001,-0.7,-271.8,16
604,10272.0,-6.800000000000001,-1.6,4.4,-13.100000000000001,-9.1,5.300000000000001,-30.200000000000003,3.7000000000000006,-267.40000000000003,16
605,10289.0,-9.1,0.1,3.9000000000000004,-14.8,-7.800000000000001,4.800000000000001,-16.6,-3.6000000000000005,-248.3,16
606,10312.0,-10.100000000000001,2.2,2.6,-15.200000000000001,-6.1000000000000005,3.5,-13.8,-31.400000000000002,-214.8,16
607,10324.0,-10.100000000000001,2.2,2.6,-15.100000000000001,-5.5,2.9000000000000004,-19.6,-50.400000000000006,-197.10000000000002,16
608,10340.0,-10.200000000000001,3.8000000000000003,1.7000000000000002,-14.600000000000001,-4.1000000000000005,2.8000000000000003,-37.400000000000006,-93.89999999999999,-163.6,16
609,10356.0,-10.100000000000001,5.300000000000001,2.0,-14.3,-3.1,3.0,-44.9,-126.89999999999999,-138.29999999999998,16
610,10373.0,-10.4,6.300000000000001,2.1,-14.200000000000001,-2.2,3.0,-43.300000000000004,-138.10000000000002,-120.4,16
611,10391.0,-11.0,7.1000000000000005,1.9000000000000001,-14.8,-1.7000000000000002,2.9000000000000004,-35.699999999999996,-119.20000000000002,-105.0,16
612,10410.0,-11.8,7.800000000000001,2.1,-15.4,-1.4000000000000001,3.3000000000000003,-18.200000000000003,-78.60000000000001,-88.20000000000002,16
613,10422.0,-12.9,7.9,2.4000000000000004,-15.8,-1.4000000000000001,3.4000000000000004,-5.8,-55.7,-78.60000000000001,16
614,10441.0,-14.4,7.4,1.6,-17.2,-1.9000000000000001,2.8000000000000003,20.0,-17.200000000000003,-55.0,16
615,10457.0,-15.3,6.1000000000000005,0.2,-18.0,-3.3000000000000003,1.4000000000000001,28.600000000000005,-3.0,-31.6,16
616,10473.0,-16.400000000000002,4.6000000000000005,0.4,-19.0,-4.7,1.8,28.0,3.9,-15.5,16
617,10491.0,-16.900000000000002,3.9000000000000004,1.9000000000000001,-19.6,-5.5,3.3000000000000003,34.300000000000004,27.800000000000004,5.2,16
618,10506.0,-16.900000000000002,3.9000000000000004,1.9000000000000001,-19.700000000000003,-5.800000000000001,4.2,41.900000000000006,50.5,19.400000000000002,16
619,10522.0,-17.0,2.9000000000000004,3.2,-19.900000000000002,-7.1000000000000005,4.800000000000001,60.400000000000006,99.8,60.300000000000004,16
620,10544.0,-16.7,1.1,3.3000000000000003,-19.700000000000003,-9.0,4.7,74.60000000000001,129.9,108.10000000000001,16
621,10556.0,-15.700000000000001,-1.0,2.9000000000000004,-18.900000000000002,-11.100000000000001,4.2,80.2,134.00000000000003,151.4,16
622,10573.0,-14.4,-3.5,2.2,-17.7,-13.100000000000001,3.6,72.4,115.9,189.2,16
623,10591.0,-11.9,-5.5,1.9000000000000001,-15.600000000000001,-14.4,3.8000000000000003,56.7,90.70000000000002,213.1,16
624,10606.0,-8.9,-6.4,2.3000000000000003,-14.200000000000001,-14.4,4.0,49.300000000000004,78.7,218.50000000000003,16
625,10628.0,-6.0,-6.1000000000000005,3.2,-11.3,-13.200000000000001,5.300000000000001,46.6,51.300000000000004,222.9,16
626,10639.0,-4.0,-5.6000000000000005,3.7,-10.5,-12.700000000000001,5.4,53.2,45.5,225.0,16
627,10657.0,-2.1,-5.1000000000000005,3.2,-9.200000000000001,-11.700000000000001,5.1000000000000005,69.9,38.800000000000004,229.50000000000003,16
628,10673.0,-0.5,-5.0,2.3000000000000003,-8.0,-11.0,4.2,82.0,38.400000000000006,232.2,16
629,10690.0,-0.5,-5.0,2.3000000000000003,-7.300000000000001,-10.8,3.9000000000000004,87.80000000000001,44.7,224.40000000000003,16
630,10708.0,1.5,-5.4,1.6,-5.7,-10.600000000000001,3.4000000000000004,89.30000000000001,48.50000000000001,214.60000000000002,16
631,10724.0,3.1,-5.5,1.4000000000000001,-5.0,-10.0,3.1,93.89999999999999,60.300000000000004,191.9,16
632,10740.0,3.8000000000000003,-5.4,0.5,-4.5,-9.3,1.6,91.6,62.900000000000006,179.6,16
633,10759.0,4.800000000000001,-5.4,-1.1,-3.5,-8.9,0.30000000000000004,74.80000000000001,41.800000000000004,171.8,16
634,10775.0,6.1000000000000005,-5.5,-1.8,-2.5,-8.700000000000001,-0.1,52.00000000000001,15.2,161.20000000000002,16
635,10790.0,7.2,-5.800000000000001,-2.0,-2.1,-8.6,-0.1,40.0,3.9,155.1,16
636,10806.0,8.1,-6.2,-1.6,-1.2000000000000002,-8.6,0.4,18.1,-9.3,140.5,16
637,10823.0,8.700000000000001,-6.800000000000001,-1.0,-0.7000000000000001,-8.9,0.9,4.1,-8.5,125.9,16
638,10841.0,9.8,-7.2,-0.4,0.4,-8.9,1.6,-0.8,0.8,106.9,16
639,10857.0,10.3,-7.5,-0.4,0.8,-9.0,1.5,-1.8000000000000003,16.0,84.1,16
640,10874.0,10.700000000000001,-7.6000000000000005,-0.6000000000000001,1.1,-8.9,1.3,-7.0,24.3,60.300000000000004,16
641,10889.0,10.700000000000001,-7.6000000000000005,-0.6000000000000001,1.0,-8.9,1.3,-11.1,25.5,48.400000000000006,16
642,10907.0,10.100000000000001,-8.0,-0.4,-0.4,-9.8,1.4000000000000001,-20.2,24.599999999999998,29.800000000000004,16
643,10922.0,8.3,-9.4,-0.6000000000000001,-2.1,-11.4,0.7000000000000001,-34.900000000000006,14.300000000000002,18.3,16
644,10940.0,6.9,-11.0,-1.5,-2.7,-12.5,-0.2,-63.0,-6.0,5.7,16
645,10958.0,7.4,-11.0,-1.9000000000000001,-1.5,-11.8,0.30000000000000004,-102.0,-29.500000000000004,-18.5,16
646,10974.0,8.200000000000001,-10.100000000000001,-0.4,-1.3,-11.5,1.4000000000000001,-118.10000000000001,-38.60000000000001,-34.7,16
647,10991.0,6.9,-10.0,1.7000000000000002,-2.5,-11.700000000000001,3.5,-130.4,-44.5,-63.900000000000006,16
648,11006.0,5.300000000000001,-10.100000000000001,2.3000000000000003,-4.1000000000000005,-12.200000000000001,4.2,-126.4,-40.6,-86.00000000000001,16
649,11023.0,4.0,-10.700000000000001,2.3000000000000003,-5.2,-13.200000000000001,4.2,-119.1,-36.1,-108.39999999999999,16
650,11040.0,3.2,-11.0,2.1,-6.0,-14.0,3.9000000000000004,-117.7,-31.7,-138.40000000000003,16
651,11058.0,2.5,-10.600000000000001,2.4000000000000004,-6.4,-14.200000000000001,4.3,-120.60000000000001,-30.599999999999998,-180.39999999999998,16
652,11074.0,2.5,-10.600000000000001,2.4000000000000004,-6.9,-14.0,4.7,-120.60000000000001,-30.4,-202.0,16
653,11091.0,1.0,-9.600000000000001,3.3000000000000003,-8.6,-13.600000000000001,5.300000000000001,-114.40000000000002,-30.3,-234.50000000000003,16
654,11107.0,-1.1,-8.1,3.6,-10.0,-12.600000000000001,5.4,-102.2,-34.1,-248.20000000000002,16
655,11123.0,-2.6,-6.300000000000001,3.7,-11.0,-11.5,5.2,-87.89999999999999,-38.7,-248.0,16
656,11140.0,-4.1000000000000005,-4.6000000000000005,3.3000000000000003,-11.5,-10.3,4.7,-74.80000000000001,-44.2,-239.4,16
657,11158.0,-4.7,-2.9000000000000004,2.9000000000000004,-11.5,-9.200000000000001,4.0,-66.7,-44.2,-233.60000000000002,16
658,11175.0,-5.5,-1.2000000000000002,2.1,-12.100000000000001,-8.0,3.1,-65.4,-45.9,-230.20000000000005,16
659,11190.0,-6.800000000000001,0.5,1.2000000000000002,-12.4,-7.4,2.6,-68.60000000000001,-47.60000000000001,-225.70000000000002,16
660,11206.0,-7.6000000000000005,2.2,1.0,-12.8,-6.1000000000000005,2.3000000000000003,-79.00000000000001,-55.400000000000006,-208.3,16
661,11224.0,-8.3,3.3000000000000003,1.3,-12.9,-5.300000000000001,2.5,-86.7,-69.9,-186.3,16
662,11241.0,-8.6,4.7,2.1,-12.700000000000001,-4.1000000000000005,3.2,-86.00000000000001,-87.89999999999999,-161.10000000000002,16
663,11255.0,-8.6,4.7,2.1,-12.600000000000001,-3.7,3.3000000000000003,-82.3,-95.9,-148.8,16
664,11276.0,-9.3,6.4,2.2,-12.600000000000001,-2.8000000000000003,3.1,-67.3,-108.3,-122.10000000000002,16
665,11290.0,-9.3,6.4,2.2,-12.9,-2.6,3.0,-61.10000000000001,-108.0,-117.80000000000001,16
666,11306.0,-10.4,6.9,1.9000000000000001,-14.100000000000001,-2.1,2.4000000000000004,-50.0,-95.30000000000001,-107.30000000000001,16
667,11323.0,-11.9,7.6000000000000005,1.3,-15.100000000000001,-1.5,1.7000000000000002,-45.2,-71.7,-84.80000000000001,16
668,11339.0,-13.0,8.0,1.0,-15.5,-1.5,1.7000000000000002,-44.9,-49.300000000000004,-53.300000000000004,16
669,11357.0,-13.9,7.4,1.9000000000000001,-16.3,-2.0,2.5,-41.7,-33.7,-18.900000000000002,16
670,11373.0,-14.5,6.0,2.2,-16.900000000000002,-3.5,2.7,-41.199999999999996,-32.5,-1.3,16
671,11390.0,-14.4,4.1000000000000005,3.5,-16.900000000000002,-5.300000000000001,3.9000000000000004,-41.0,-34.60000000000001,27.0,16
672,11407.0,-14.5,2.2,5.1000000000000005,-17.2,-7.2,5.5,-30.5,-26.799999999999997,52.400000000000006,16
673,11426.0,-14.200000000000001,0.9,6.4,-17.1,-8.4,6.7,-4.800000000000001,0.4,78.3,16
674,11441.0,-14.5,-0.5,6.300000000000001,-17.7,-9.8,6.7,28.0,27.5,106.30000000000001,16
675,11457.0,-14.5,-0.5,6.300000000000001,-18.0,-10.5,6.300000000000001,42.0,35.3,123.00000000000001,16
676,11473.0,-14.3,-2.1,5.5,-17.7,-11.9,5.9,63.30000000000001,40.1,162.8,16
677,11490.0,-13.200000000000001,-4.0,5.0,-16.8,-13.9,5.2,79.6,34.2,201.60000000000002,16
678,11506.0,-11.3,-6.2,3.9000000000000004,-15.3,-15.5,4.5,89.6,16.1,228.90000000000003,16
679,11527.0,-9.1,-7.800000000000001,3.2,-13.5,-16.0,4.0,99.10000000000001,-1.9,241.20000000000002,16
680,11539.0,-6.5,-8.1,2.2,-12.5,-15.8,3.6,104.50000000000001,-11.2,241.60000000000002,16
681,11557.0,-4.2,-7.6000000000000005,0.7000000000000001,-10.8,-14.700000000000001,2.4000000000000004,112.5,-26.400000000000006,236.4,16
682,11573.0,-2.5,-6.800000000000001,-0.6000000000000001,-9.5,-13.4,1.4000000000000001,113.5,-34.300000000000004,233.8,16
683,11590.0,-0.7000000000000001,-6.2,-1.5,-8.200000000000001,-12.100000000000001,0.8,111.6,-36.0,233.8,16
684,11608.0,1.2000000000000002,-5.9,-1.9000000000000001,-6.7,-11.200000000000001,0.7000000000000001,110.2,-31.799999999999997,228.80000000000004,16
685,11625.0,2.7,-6.0,-2.4000000000000004,-5.4,-10.700000000000001,0.4,111.20000000000002,-26.1,215.8,16
686,11640.0,2.7,-6.0,-2.4000000000000004,-4.800000000000001,-10.4,0.2,112.20000000000002,-26.000000000000004,207.3,16
687,11657.0,4.1000000000000005,-6.1000000000000005,-3.2,-4.1000000000000005,-9.9,-0.8,109.7,-29.1,189.2,16
688,11674.0,4.800000000000001,-6.300000000000001,-4.5,-3.4000000000000004,-9.4,-1.6,96.4,-32.2,174.6,16
689,11689.0,5.7,-6.300000000000001,-5.2,-2.4000000000000004,-9.0,-2.1,78.80000000000001,-27.700000000000003,160.9,16
690,11707.0,6.9,-6.4,-5.7,-1.5,-8.9,-2.4000000000000004,61.10000000000001,-24.400000000000002,144.60000000000002,16
691,11722.0,7.800000000000001,-6.800000000000001,-6.2,-1.1,-8.8,-2.6,52.1,-23.700000000000003,136.1,16
692,11740.0,8.6,-7.0,-6.800000000000001,-0.30000000000000004,-8.700000000000001,-3.1,31.099999999999998,-26.000000000000004,116.4,16
693,11757.0,9.1,-7.0,-6.9,0.2,-8.4,-3.1,6.699999999999999,-30.5,92.2,16
694,11774.0,9.1,-6.9,-6.6000000000000005,0.2,-8.1,-2.7,-17.1,-27.2,67.3,16
695,11789.0,8.700000000000001,-6.9,-6.300000000000001,-0.30000000000000004,-8.1,-2.5,-39.2,-15.399999999999999,45.5,16
696,11808.0,8.1,-6.9,-6.1000000000000005,-0.8,-8.1,-2.3000000000000003,-61.300000000000004,-2.6,29.800000000000004,16
697,11825.0,7.800000000000001,-6.9,-5.6000000000000005,-1.2000000000000002,-8.1,-1.9000000000000001,-84.2,3.0,16.4,16
698,11840.0,7.800000000000001,-6.9,-5.6000000000000005,-1.5,-8.3,-1.5,-94.80000000000001,1.8000000000000003,9.3,16
699,11857.0,7.1000000000000005,-7.1000000000000005,-5.2,-2.3000000000000003,-8.700000000000001,-1.7000000000000002,-116.5,-5.8,-2.4000000000000004,16
700,11873.0,6.4,-7.5,-5.6000000000000005,-2.9000000000000004,-9.4,-1.8,-148.5,-14.400000000000002,-12.4,16
701,11889.0,5.9,-7.9,-5.1000000000000005,-3.5,-10.200000000000001,-0.8,-186.20000000000002,-19.0,-24.200000000000003,16
702,11906.0,5.0,-8.4,-3.7,-4.1000000000000005,-11.0,0.6000000000000001,-219.5,-19.300000000000004,-33.9,16
703,11925.0,4.4,-8.9,-2.0,-4.7,-12.100000000000001,2.3000000000000003,-245.49999999999997,-16.1,-44.8,16
704,11939.0,3.6,-9.8,-0.30000000000000004,-5.1000000000000005,-12.8,3.0,-256.2,-14.100000000000001,-52.7,16
705,11956.0,2.6,-10.700000000000001,1.4000000000000001,-6.1000000000000005,-14.200000000000001,4.5,-272.8,-13.8,-73.0,16
706,11974.0,1.4000000000000001,-11.600000000000001,3.1,-7.1000000000000005,-15.600000000000001,5.800000000000001,-280.3,-18.3,-98.3,16
707,11990.0,0.30000000000000004,-11.8,4.9,-8.0,-16.400000000000002,7.300000000000001,-273.4,-17.400000000000002,-133.10000000000002,16
708,12010.0,-1.4000000000000001,-10.700000000000001,7.0,-9.5,-16.0,9.0,-243.50000000000003,-1.5,-169.9,16
709,12029.0,-3.1,-8.8,7.2,-10.9,-14.600000000000001,8.9,-197.4,20.2,-194.6,16
710,12039.0,-3.1,-8.8,7.2,-11.3,-13.700000000000001,8.200000000000001,-177.20000000000002,28.1,-201.0,16
711,12058.0,-4.4,-6.6000000000000005,6.5,-12.200000000000001,-12.0,7.6000000000000005,-147.9,41.4,-200.5,16
712,12073.0,-5.4,-4.1000000000000005,6.300000000000001,-12.200000000000001,-10.100000000000001,6.5,-127.9,44.4,-187.50000000000003,16
713,12092.0,-5.300000000000001,-2.0,5.5,-11.5,-8.6,5.800000000000001,-122.90000000000002,29.800000000000004,-176.5,16
714,12107.0,-5.300000000000001,-0.4,5.4,-11.4,-7.6000000000000005,5.7,-123.8,5.2,-168.3,16
715,12123.0,-5.5,1.0,5.9,-11.200000000000001,-7.0,5.800000000000001,-122.20000000000002,-10.299999999999999,-164.3,16
716,12140.0,-5.800000000000001,2.0,6.0,-11.200000000000001,-6.2,5.6000000000000005,-116.0,-42.1,-152.5,16
717,12156.0,-6.0,3.5,5.6000000000000005,-11.0,-4.9,5.0,-110.4,-68.80000000000001,-131.0,16
718,12173.0,-5.300000000000001,4.5,5.0,-10.100000000000001,-4.1000000000000005,4.4,-112.60000000000001,-87.2,-105.3,16
719,12189.0,-5.300000000000001,4.5,5.0,-9.200000000000001,-3.6,4.2,-119.60000000000002,-95.60000000000002,-89.30000000000001,16
720,12207.0,-4.7,5.1000000000000005,5.1000000000000005,-9.1,-3.5,4.3,-121.80000000000001,-97.50000000000001,-85.5,16
721,12224.0,-5.0,5.4,5.7,-9.9,-3.1,4.800000000000001,-116.80000000000001,-96.30000000000001,-83.4,16
722,12239.0,-6.5,6.0,5.9,-11.4,-2.5,4.2,-107.19999999999999,-88.4,-76.3,16
723,12257.0,-8.3,6.300000000000001,4.9,-13.0,-2.7,3.2,-115.10000000000002,-77.00000000000001,-52.300000000000004,16
724,12273.0,-9.3,5.9,5.300000000000001,-13.200000000000001,-3.3000000000000003,4.9,-129.8,-67.2,-20.3,16
725,12290.0,-9.5,4.6000000000000005,7.7,-13.8,-5.1000000000000005,6.800000000000001,-126.8,-60.5,2.2,16
726,12306.0,-9.9,2.8000000000000003,10.0,-14.0,-5.9,7.9,-115.9,-58.5,5.300000000000001,16
727,12324.0,-10.100000000000001,2.5,12.3,-14.3,-6.1000000000000005,10.100000000000001,-70.4,-54.199999999999996,-8.5,16
728,12340.0,-12.3,2.7,13.200000000000001,-16.5,-5.9,11.0,-1.6,-42.2,-17.200000000000003,16
729,12357.0,-14.100000000000001,3.3000000000000003,11.700000000000001,-18.2,-5.300000000000001,9.700000000000001,71.9,-23.400000000000002,-1.3,16
730,12374.0,-15.4,3.5,9.0,-19.6,-5.2,7.4,131.7,-3.4,32.400000000000006,16
731,12389.0,-15.4,3.5,9.0,-20.400000000000002,-5.9,5.800000000000001,154.40000000000003,5.4,55.0,16
732,12407.0,-16.3,2.0,5.4,-20.6,-7.4,2.9000000000000004,177.10000000000002,18.4,107.7,16
733,12422.0,-15.700000000000001,-0.1,2.6,-20.1,-9.9,1.3,176.20000000000002,28.600000000000005,161.3,16
734,12439.0,-14.0,-2.8000000000000003,1.2000000000000002,-18.0,-11.8,0.9,163.5,36.1,202.60000000000002,16
735,12458.0,-10.700000000000001,-4.4,1.2000000000000002,-15.200000000000001,-12.600000000000001,1.5,153.4,37.1,221.1,16
736,12472.0,-7.7,-5.2,1.5,-13.200000000000001,-12.600000000000001,1.9000000000000001,150.70000000000002,32.7,225.20000000000002,16
737,12491.0,-5.5,-5.5,1.3,-11.700000000000001,-12.0,1.8,150.4,22.6,225.10000000000002,16
738,12505.0,-3.5,-5.2,0.8,-10.9,-11.600000000000001,1.7000000000000002,150.2,16.8,224.50000000000003,16
739,12527.0,-2.4000000000000004,-5.4,0.6000000000000001,-10.200000000000001,-11.200000000000001,1.8,150.9,7.9,224.1,16
740,12542.0,-1.1,-5.6000000000000005,0.1,-9.3,-10.8,1.5,153.3,4.1,225.3,16
741,12556.0,0.4,-5.7,-0.30000000000000004,-8.1,-10.200000000000001,1.4000000000000001,154.7,6.699999999999999,223.9,16
742,12574.0,1.7000000000000002,-5.9,-1.0,-7.1000000000000005,-9.700000000000001,0.8,152.8,11.4,219.3,16
743,12589.0,1.7000000000000002,-5.9,-1.0,-6.5,-9.600000000000001,0.5,149.9,11.8,213.9,16
744,12607.0,3.2,-6.2,-1.5,-5.4,-9.1,0.4,140.9,12.200000000000001,199.1,16
745,12626.0,4.0,-6.4,-1.7000000000000002,-5.1000000000000005,-8.8,0.30000000000000004,131.29999999999998,14.900000000000002,185.80000000000004,16
746,12639.0,4.5,-6.6000000000000005,-1.8,-4.800000000000001,-8.4,0.1,121.6,21.500000000000004,176.9,16
747,12657.0,4.800000000000001,-7.1000000000000005,-2.2,-4.6000000000000005,-8.4,-0.30000000000000004,107.10000000000001,32.6,171.3,16
748,12675.0,5.300000000000001,-7.5,-2.4000000000000004,-3.7,-8.3,-0.7000000000000001,88.8,42.5,163.5,16
749,12689.0,6.7,-8.0,-3.0,-2.9000000000000004,-8.3,-1.2000000000000002,76.7,45.099999999999994,155.4,16
750,12707.0,8.3,-8.200000000000001,-2.9000000000000004,-1.4000000000000001,-8.1,-1.2000000000000002,48.70000000000001,42.1,124.60000000000001,16
751,12722.0,8.6,-8.3,-2.6,-1.1,-7.9,-1.0,26.300000000000004,35.2,87.3,16
752,12740.0,8.5,-8.200000000000001,-3.3000000000000003,-1.2000000000000002,-7.7,-1.8,1.0,22.000000000000004,55.60000000000001,16
753,12756.0,8.200000000000001,-8.1,-3.0,-1.5,-7.5,-1.5,-30.3,6.4,30.000000000000004,16
754,12774.0,7.2,-8.6,-2.7,-2.5,-8.0,-1.2000000000000002,-58.0,-2.8,12.8,16
755,12789.0,7.2,-8.6,-2.7,-3.0,-8.700000000000001,-1.3,-72.10000000000001,-7.8,5.500000000000001,16
756,12808.0,6.4,-9.600000000000001,-2.8000000000000003,-3.3000000000000003,-9.4,-1.1,-103.49999999999999,-16.700000000000003,-12.200000000000001,16
757,12824.0,6.4,-10.100000000000001,-2.5,-3.1,-9.9,-0.6000000000000001,-136.6,-19.400000000000002,-38.2,16
758,12839.0,6.9,-10.100000000000001,-1.7000000000000002,-2.9000000000000004,-10.0,0.9,-166.60000000000002,-16.1,-71.7,16
759,12857.0,6.1000000000000005,-9.8,0.30000000000000004,-4.4,-10.4,2.8000000000000003,-178.0,-7.1000000000000005,-99.30000000000001,16
760,12875.0,4.3,-9.9,1.6,-6.300000000000001,-10.700000000000001,3.5,-174.10000000000002,-2.8,-113.5,16
761,12890.0,2.9000000000000004,-9.700000000000001,1.7000000000000002,-6.7,-10.9,3.3000000000000003,-170.8,-6.0,-117.80000000000001,16
762,12907.0,2.9000000000000004,-10.0,0.9,-6.6000000000000005,-11.700000000000001,2.6,-173.1,-19.400000000000002,-132.9,16
763,12922.0,2.9000000000000004,-10.200000000000001,0.9,-6.5,-12.5,2.5,-183.9,-25.6,-163.29999999999998,16
764,12940.0,1.7000000000000002,-10.0,1.4000000000000001,-7.5,-13.0,2.8000000000000003,-196.5,-12.299999999999999,-202.30000000000004,16
765,12956.0,1.7000000000000002,-10.0,1.4000000000000001,-8.4,-13.200000000000001,3.3000000000000003,-200.8,-1.3,-220.3,16
766,12974.0,-0.5,-9.5,2.6,-10.200000000000001,-13.100000000000001,4.4,-199.5,22.3,-246.60000000000005,16
767,12989.0,-2.3000000000000003,-8.3,4.0,-11.8,-12.5,5.5,-184.0,44.10000000000001,-261.0,16
768,13006.0,-4.4,-6.6000000000000005,5.300000000000001,-13.3,-11.200000000000001,5.9,-155.9,56.2,-258.90000000000003,16
769,13025.0,-6.0,-4.5,5.7,-14.0,-9.700000000000001,5.4,-126.4,51.800000000000004,-246.00000000000003,16
770,13039.0,-6.9,-2.3000000000000003,5.0,-14.200000000000001,-8.1,4.3,-110.4,33.1,-228.4,16
771,13056.0,-7.300000000000001,-0.4,4.1000000000000005,-14.100000000000001,-7.4,3.6,-109.10000000000001,20.900000000000002,-219.6,16
772,13073.0,-7.6000000000000005,1.4000000000000001,3.9000000000000004,-14.0,-6.0,3.1,-116.80000000000001,-1.1,-200.3,16
773,13090.0,-8.1,3.3000000000000003,4.5,-14.0,-4.4,3.5,-122.20000000000002,-17.0,-172.00000000000003,16
774,13109.0,-7.4,5.1000000000000005,4.5,-13.100000000000001,-2.9000000000000004,3.3000000000000003,-118.90000000000002,-34.60000000000001,-142.10000000000002,16
775,13125.0,-7.1000000000000005,6.0,4.2,-12.5,-2.1,2.7,-119.30000000000003,-54.50000000000001,-118.3,16
776,13139.0,-7.1000000000000005,6.0,4.2,-12.5,-2.1,2.2,-127.9,-76.2,-102.10000000000001,16
777,13158.0,-7.4,6.1000000000000005,3.9000000000000004,-12.600000000000001,-2.2,2.4000000000000004,-141.0,-87.10000000000001,-90.0,16
778,13172.0,-7.6000000000000005,6.1000000000000005,4.800000000000001,-12.8,-2.1,4.2,-143.5,-80.2,-85.1,16
779,13190.0,-8.5,6.2,7.6000000000000005,-13.8,-1.9000000000000001,6.9,-129.60000000000002,-46.300000000000004,-72.9,16
780,13206.0,-9.700000000000001,6.5,10.200000000000001,-15.3,-1.8,8.700000000000001,-92.10000000000001,-9.899999999999999,-59.60000000000001,16
781,13226.0,-11.600000000000001,6.300000000000001,11.600000000000001,-17.2,-2.2,9.5,-45.6,11.4,-46.9,16
782,13242.0,-14.0,5.7,12.600000000000001,-19.6,-2.9000000000000004,10.4,6.600000000000001,18.200000000000003,-30.3,16
783,13259.0,-16.6,5.0,13.200000000000001,-22.400000000000002,-3.9000000000000004,10.200000000000001,65.8,25.200000000000003,-3.5,16
784,13273.0,-18.900000000000002,4.0,11.600000000000001,-23.400000000000002,-4.4,9.3,90.80000000000001,30.699999999999996,19.700000000000003,16
785,13290.0,-18.8,2.5,9.1,-23.5,-5.9,7.0,122.39999999999999,37.1,81.2,16
786,13305.0,-16.8,0.4,7.5,-21.8,-7.9,5.7,134.6,39.300000000000004,141.9,16
787,13326.0,-14.700000000000001,-2.4000000000000004,6.5,-20.1,-10.4,5.0,138.40000000000003,38.800000000000004,185.80000000000004,16
788,13340.0,-14.700000000000001,-2.4000000000000004,6.5,-19.3,-11.5,4.800000000000001,138.50000000000003,37.300000000000004,202.1,16
789,13357.0,-12.4,-4.6000000000000005,6.0,-17.3,-12.9,4.6000000000000005,137.8,31.3,224.50000000000003,16
790,13376.0,-9.5,-5.800000000000001,5.5,-14.700000000000001,-13.0,4.6000000000000005,137.70000000000002,16.3,234.30000000000004,16
791,13390.0,-6.5,-5.9,5.2,-12.3,-12.3,4.6000000000000005,144.60000000000002,-4.800000000000001,233.60000000000002,16
792,13409.0,-3.8000000000000003,-5.6000000000000005,4.9,-10.4,-11.5,4.7,160.8,-19.6,226.6,16
793,13422.0,-1.8,-5.300000000000001,4.4,-9.700000000000001,-11.0,4.5,182.3,-19.1,220.0,16
794,13441.0,-0.30000000000000004,-5.2,3.3000000000000003,-8.6,-10.4,3.9000000000000004,192.50000000000003,-13.399999999999999,218.00000000000003,16
795,13457.0,0.9,-5.5,2.0,-7.7,-10.0,2.8000000000000003,206.10000000000002,3.0,215.9,16
796,13472.0,2.0,-5.7,0.9,-7.0,-9.600000000000001,2.0,208.10000000000002,22.2,214.10000000000002,16
797,13490.0,2.6,-6.1000000000000005,0.1,-6.6000000000000005,-9.4,1.3,200.8,41.300000000000004,213.70000000000002,16
798,13506.0,3.0,-7.0,-0.4,-6.300000000000001,-9.600000000000001,0.8,187.50000000000003,56.400000000000006,209.70000000000002,16
799,13522.0,3.0,-7.0,-0.4,-5.9,-9.700000000000001,0.8,179.40000000000003,60.900000000000006,203.00000000000003,16
800,13543.0,3.8000000000000003,-8.200000000000001,0.0,-5.9,-9.5,1.0,156.4,73.0,177.5,16
801,13556.0,3.8000000000000003,-8.200000000000001,0.0,-6.0,-9.5,0.8,149.10000000000002,75.1,171.0,16
802,13574.0,3.8000000000000003,-8.700000000000001,-0.2,-5.9,-9.5,0.4,131.79999999999998,75.5,160.9,16
803,13590.0,4.2,-9.1,-0.4,-5.1000000000000005,-9.4,0.0,110.0,71.30000000000001,149.3,16
804,13606.0,4.9,-9.5,-0.9,-4.5,-9.4,-1.0,79.39999999999999,57.1,135.9,16
805,13623.0,6.0,-10.0,-1.6,-3.8000000000000003,-9.5,-1.4000000000000001,60.300000000000004,43.6,126.4,16
806,13641.0,7.0,-10.5,-1.7000000000000002,-2.7,-9.700000000000001,-1.5,18.200000000000003,12.600000000000001,102.7,16
807,13657.0,7.2,-11.200000000000001,-0.8,-2.6,-10.200000000000001,-0.6000000000000001,-17.9,-11.6,78.0,16
808,13674.0,6.9,-12.3,-0.2,-2.8000000000000003,-11.200000000000001,0.1,-39.699999999999996,-21.900000000000002,55.5,16
809,13691.0,6.800000000000001,-13.0,-0.30000000000000004,-2.9000000000000004,-11.8,0.0,-56.6,-24.400000000000002,29.400000000000002,16
810,13706.0,6.800000000000001,-13.0,-0.30000000000000004,-2.3000000000000003,-11.3,-0.1,-77.7,-29.400000000000002,-1.2000000000000002,16
811,13727.0,7.7,-11.8,-0.6000000000000001,-2.1,-10.700000000000001,0.0,-104.2,-34.50000000000001,-34.400000000000006,16
812,13742.0,7.7,-11.8,-0.6000000000000001,-2.3000000000000003,-10.700000000000001,0.30000000000000004,-117.5,-37.0,-50.0,16
813,13756.0,7.1000000000000005,-11.8,-0.1,-2.9000000000000004,-11.200000000000001,1.2000000000000002,-138.00000000000003,-40.9,-81.90000000000002,16
814,13773.0,6.4,-11.9,0.9,-3.7,-11.8,2.2,-145.7,-39.1,-117.9,16
815,13790.0,5.6000000000000005,-12.200000000000001,1.3,-4.5,-12.700000000000001,2.5,-146.8,-27.700000000000003,-157.60000000000002,16
816,13806.0,4.800000000000001,-12.4,1.5,-5.5,-13.5,2.8000000000000003,-147.29999999999998,-4.4,-204.6,16
817,13822.0,3.3000000000000003,-12.3,1.9000000000000001,-6.300000000000001,-13.700000000000001,3.0,-147.29999999999998,10.700000000000001,-228.00000000000003,16
818,13840.0,1.0,-11.5,2.7,-8.5,-13.8,3.6,-143.2,41.199999999999996,-264.2,16
819,13856.0,-0.8,-10.100000000000001,3.5,-10.0,-13.3,4.1000000000000005,-130.8,57.20000000000001,-282.70000000000005,16
820,13874.0,-2.0,-8.5,4.1000000000000005,-11.0,-12.600000000000001,4.4,-111.80000000000001,59.699999999999996,-288.9,16
821,13890.0,-2.8000000000000003,-6.9,4.1000000000000005,-11.3,-11.8,4.1000000000000005,-94.5,49.6,-290.00000000000006,16
822,13907.0,-2.8000000000000003,-6.9,4.1000000000000005,-11.600000000000001,-11.100000000000001,3.4000000000000004,-87.2,32.300000000000004,-290.40000000000003,16
823,13922.0,-3.6,-5.5,3.6,-11.8,-10.8,3.3000000000000003,-87.10000000000001,21.8,-291.20000000000005,16
824,13941.0,-4.6000000000000005,-4.3,3.7,-12.600000000000001,-10.3,3.4000000000000004,-88.00000000000001,5.0,-291.4,16
825,13956.0,-6.2,-2.8000000000000003,4.0,-13.600000000000001,-9.3,3.3000000000000003,-86.3,-8.3,-282.8,16
826,13974.0,-7.800000000000001,-1.2000000000000002,4.0,-14.200000000000001,-8.3,3.1,-86.1,-24.200000000000003,-265.2,16
827,13990.0,-8.4,0.4,3.8000000000000003,-14.0,-7.0,3.1,-91.8,-40.4,-245.20000000000002,16
828,14005.0,-9.4,2.0,4.4,-14.4,-6.300000000000001,3.4000000000000004,-93.60000000000001,-47.60000000000001,-233.29999999999998,16
829,14023.0,-10.4,3.7,5.0,-14.9,-4.9,3.8000000000000003,-86.00000000000001,-63.4,-204.70000000000002,16
830,14040.0,-11.3,5.0,4.3,-15.3,-3.9000000000000004,3.0,-80.60000000000001,-73.0,-182.0,16
831,14057.0,-12.8,6.4,3.8000000000000003,-16.400000000000002,-2.6,2.4000000000000004,-88.10000000000001,-79.00000000000001,-168.1,16
832,14073.0,-14.9,7.300000000000001,5.800000000000001,-18.1,-1.8,4.2,-97.89999999999999,-67.8,-146.9,16
833,14089.0,-14.9,7.300000000000001,5.800000000000001,-20.3,-1.8,6.9,-81.7,-32.1,-111.30000000000001,16
834,14106.0,-17.3,7.300000000000001,8.700000000000001,-21.200000000000003,-2.3000000000000003,7.7,-64.30000000000001,-12.5,-90.0,16
835,14125.0,-19.0,6.5,10.200000000000001,-22.3,-3.3000000000000003,8.5,-22.700000000000003,14.100000000000001,-54.300000000000004,16
836,14140.0,-20.200000000000003,5.4,10.5,-23.0,-4.0,8.6,18.6,25.0,-23.400000000000002,16
837,14158.0,-20.3,5.2,10.700000000000001,-22.6,-4.1000000000000005,8.6,61.39999999999999,32.400000000000006,15.5,16
838,14173.0,-19.3,4.800000000000001,9.700000000000001,-21.400000000000002,-5.5,7.2,95.60000000000002,43.00000000000001,72.4,16
839,14191.0,-17.5,2.8000000000000003,7.9,-19.700000000000003,-7.5,5.9,117.0,55.3,124.0,16
840,14205.0,-15.8,0.4,6.4,-19.200000000000003,-8.700000000000001,5.2,124.0,64.50000000000001,145.5,16
841,14223.0,-14.3,-2.1,5.0,-18.2,-11.100000000000001,4.1000000000000005,125.7,86.8,185.4,16
842,14239.0,-11.9,-3.7,4.9,-16.3,-12.4,4.3,114.9,110.6,215.2,16
843,14259.0,-9.600000000000001,-4.6000000000000005,5.4,-14.700000000000001,-13.0,4.9,104.3,129.20000000000002,234.8,16
844,14273.0,-7.2,-5.2,5.6000000000000005,-12.9,-13.200000000000001,5.1000000000000005,99.39999999999999,130.0,246.1,16
845,14290.0,-7.2,-5.2,5.6000000000000005,-12.200000000000001,-13.100000000000001,5.4,104.7,116.6,249.3,16
846,14310.0,-3.6,-5.5,6.1000000000000005,-10.5,-12.5,5.7,121.70000000000002,100.70000000000002,250.60000000000002,16
847,14324.0,-3.6,-5.5,6.1000000000000005,-9.9,-12.3,5.300000000000001,131.29999999999998,93.8,251.00000000000003,16
848,14340.0,-2.0,-5.6000000000000005,5.1000000000000005,-8.9,-12.0,4.1000000000000005,144.60000000000002,80.4,250.3,16
849,14357.0,-0.5,-5.9,3.6,-7.9,-11.600000000000001,2.8000000000000003,144.4,70.6,247.7,16
850,14374.0,0.9,-6.2,2.5,-6.800000000000001,-11.200000000000001,2.3000000000000003,135.8,66.9,241.10000000000002,16
851,14391.0,2.3000000000000003,-6.4,2.2,-5.9,-10.9,2.0,125.30000000000001,70.2,229.2,16
852,14407.0,3.4000000000000004,-6.7,2.1,-5.6000000000000005,-10.700000000000001,2.0,120.00000000000001,73.9,221.40000000000003,16
853,14422.0,4.1000000000000005,-6.9,2.0,-5.1000000000000005,-10.4,1.9000000000000001,109.00000000000001,81.50000000000001,204.3,16
854,14441.0,4.4,-7.2,2.2,-5.0,-10.100000000000001,1.9000000000000001,96.80000000000001,90.5,188.4,16
855,14456.0,4.6000000000000005,-7.800000000000001,2.1,-4.9,-10.200000000000001,1.5,79.6,96.20000000000002,177.70000000000002,16
856,14474.0,5.0,-8.6,2.3000000000000003,-4.7,-10.3,1.5,56.50000000000001,93.00000000000001,168.6,16
857,14491.0,5.0,-8.6,2.3000000000000003,-4.2,-10.700000000000001,1.5,44.4,88.4,162.20000000000002,16
858,14505.0,5.800000000000001,-9.4,2.4000000000000004,-3.3000000000000003,-11.100000000000001,1.5,18.3,70.8,144.60000000000002,16
859,14525.0,6.9,-10.100000000000001,2.7,-2.4000000000000004,-11.4,1.7000000000000002,-6.1000000000000005,43.800000000000004,118.50000000000001,16
860,14539.0,7.300000000000001,-10.9,3.1,-2.3000000000000003,-12.0,1.8,-26.9,15.399999999999999,90.30000000000001,16
861,14557.0,7.4,-11.8,3.1,-2.3000000000000003,-12.600000000000001,1.6,-45.8,-11.000000000000002,63.8,16
862,14573.0,7.9,-12.0,2.8000000000000003,-1.8,-12.4,1.5,-55.8,-23.3,49.300000000000004,16
863,14590.0,9.1,-11.0,3.5,-0.6000000000000001,-11.3,2.3000000000000003,-71.9,-39.300000000000004,16.6,16
864,14608.0,9.3,-10.0,4.2,-0.4,-10.4,3.2,-73.4,-46.4,-16.1,16
865,14622.0,9.0,-9.700000000000001,3.8000000000000003,-0.8,-10.200000000000001,3.0,-66.2,-54.800000000000004,-43.70000000000001,16
866,14640.0,9.0,-9.4,3.0,-0.8,-10.200000000000001,2.3000000000000003,-63.500000000000014,-63.900000000000006,-75.4,16
867,14658.0,8.5,-9.3,2.2,-1.2000000000000002,-10.4,1.7000000000000002,-68.60000000000001,-70.0,-111.10000000000002,16
868,14675.0,7.800000000000001,-9.1,2.0,-1.8,-10.700000000000001,1.7000000000000002,-79.1,-72.10000000000001,-149.20000000000002,16
869,14692.0,7.800000000000001,-9.1,2.0,-2.2,-10.8,1.9000000000000001,-84.5,-70.8,-169.8,16
870,14707.0,6.800000000000001,-8.700000000000001,2.5,-3.5,-11.0,3.0,-89.10000000000001,-58.3,-210.40000000000003,16
871,14726.0,5.0,-8.200000000000001,3.4000000000000004,-5.4,-11.100000000000001,3.6,-82.2,-41.199999999999996,-243.0,16
872,14739.0,2.8000000000000003,-7.4,3.7,-7.5,-10.8,3.6,-70.3,-29.600000000000005,-260.50000000000006,16
873,14758.0,0.4,-6.2,3.4000000000000004,-9.0,-10.200000000000001,3.1,-59.300000000000004,-30.9,-264.6,16
874,14773.0,-1.1,-4.800000000000001,2.6,-9.5,-9.9,2.7,-57.1,-34.50000000000001,-265.0,16
875,14791.0,-2.1,-3.6,1.7000000000000002,-10.0,-9.4,1.8,-63.0,-39.50000000000001,-263.90000000000003,16
876,14805.0,-3.2,-2.7,1.8,-10.600000000000001,-9.1,1.8,-78.7,-38.0,-260.90000000000003,16
877,14823.0,-4.9,-1.8,2.8000000000000003,-11.8,-8.8,2.7,-86.7,-30.5,-252.60000000000002,16
878,14839.0,-6.300000000000001,-0.5,3.5,-12.600000000000001,-8.0,3.3000000000000003,-79.19999999999999,-23.6,-238.89999999999998,16
879,14856.0,-6.300000000000001,-0.5,3.5,-13.0,-7.6000000000000005,3.4000000000000004,-71.7,-23.2,-232.9,16
880,14873.0,-7.6000000000000005,0.9,3.5,-13.700000000000001,-6.4,2.8000000000000003,-57.3,-30.3,-219.10000000000002,16
881,14890.0,-8.9,2.5,2.9000000000000004,-14.600000000000001,-5.2,2.3000000000000003,-50.900000000000006,-41.1,-200.70000000000002,16
882,14907.0,-10.200000000000001,3.8000000000000003,2.4000000000000004,-15.4,-4.2,1.6,-53.8,-44.5,-177.9,16
883,14922.0,-11.5,5.0,2.0,-16.5,-3.4000000000000004,1.4000000000000001,-55.0,-43.4,-161.8,16
884,14940.0,-13.600000000000001,5.9,2.1,-18.6,-2.7,1.6,-51.50000000000001,-35.2,-138.9,16
885,14957.0,-16.0,6.800000000000001,2.3000000000000003,-19.5,-2.3000000000000003,1.6,-48.300000000000004,-32.7,-121.80000000000001,16
886,14974.0,-17.1,7.2,3.0,-20.400000000000002,-2.0,2.1,-42.400000000000006,-31.799999999999997,-83.00000000000001,16
887,14990.0,-18.2,6.5,3.9000000000000004,-21.400000000000002,-2.8000000000000003,3.0,-36.0,-34.2,-42.0,16
888,15007.0,-18.400000000000002,5.5,5.1000000000000005,-21.700000000000003,-3.7,4.2,-21.8,-33.400000000000006,-5.300000000000001,16
889,15023.0,-17.8,4.6000000000000005,6.2,-21.1,-4.6000000000000005,5.300000000000001,0.6000000000000001,-21.7,24.8,16
890,15040.0,-16.1,4.1000000000000005,7.5,-19.6,-5.1000000000000005,6.6000000000000005,30.000000000000004,13.399999999999999,53.400000000000006,16
891,15057.0,-16.1,4.1000000000000005,7.5,-18.8,-5.5,6.800000000000001,45.400000000000006,37.1,67.9,16
892,15074.0,-14.5,3.0,7.4,-17.7,-6.800000000000001,6.5,71.5,76.7,97.50000000000001,16
893,15091.0,-13.4,1.1,6.9,-17.2,-8.9,6.1000000000000005,89.8,104.4,124.60000000000001,16
894,15107.0,-12.700000000000001,-1.4000000000000001,6.5,-16.900000000000002,-11.100000000000001,5.800000000000001,99.2,127.80000000000001,147.1,16
895,15125.0,-11.8,-3.3000000000000003,6.0,-16.0,-12.3,5.4,97.50000000000001,140.3,164.7,16
896,15139.0,-10.0,-4.2,5.7,-15.3,-12.5,5.300000000000001,92.7,140.4,172.5,16
897,15159.0,-7.5,-4.2,6.1000000000000005,-12.4,-11.9,5.7,84.0,121.5,191.20000000000005,16
898,15172.0,-5.300000000000001,-4.0,6.0,-11.5,-11.600000000000001,5.7,84.6,109.39999999999999,196.7,16
899,15191.0,-2.8000000000000003,-3.5,5.800000000000001,-9.4,-10.700000000000001,5.6000000000000005,91.0,81.10000000000001,201.1,16
900,15206.0,-0.8,-3.3000000000000003,5.300000000000001,-7.9,-10.100000000000001,5.1000000000000005,102.4,60.7,199.0,16
901,15224.0,0.7000000000000001,-3.3000000000000003,4.6000000000000005,-6.800000000000001,-9.600000000000001,4.5,114.00000000000001,54.9,194.00000000000003,16
902,15241.0,0.7000000000000001,-3.3000000000000003,4.6000000000000005,-6.4,-9.4,4.1000000000000005,118.40000000000002,57.3,191.70000000000002,16
903,15258.0,1.8,-3.4000000000000004,3.7,-5.7,-9.1,3.6,123.19999999999999,68.4,186.70000000000002,16
904,15272.0,2.7,-3.6,3.4000000000000004,-5.4,-9.1,3.2,124.8,86.4,180.70000000000002,16
905,15290.0,3.3000000000000003,-4.0,3.0,-5.0,-8.9,3.0,122.90000000000002,104.7,174.3,16
906,15306.0,3.7,-4.3,2.8000000000000003,-4.800000000000001,-8.700000000000001,2.7,118.40000000000002,117.30000000000001,167.1,16
907,15323.0,4.4,-4.5,2.9000000000000004,-4.3,-8.6,2.3000000000000003,112.60000000000001,121.10000000000001,156.70000000000002,16
908,15340.0,4.800000000000001,-5.1000000000000005,2.3000000000000003,-4.3,-8.700000000000001,1.9000000000000001,106.9,119.1,151.5,16
909,15358.0,4.9,-6.0,1.5,-4.3,-9.3,0.8,86.1,104.7,144.60000000000002,16
910,15374.0,5.800000000000001,-6.800000000000001,0.9,-3.5,-9.700000000000001,0.1,52.2,77.1,139.5,16
911,15389.0,7.0,-7.7,1.2000000000000002,-2.4000000000000004,-10.3,0.2,13.399999999999999,41.50000000000001,127.19999999999999,16
912,15407.0,8.3,-8.200000000000001,2.1,-1.2000000000000002,-10.4,1.1,-20.2,6.4,105.20000000000002,16
913,15424.0,8.3,-8.200000000000001,2.1,-0.9,-10.600000000000001,1.6,-31.9,-8.899999999999999,92.8,16
914,15439.0,8.9,-8.9,3.0,-0.6000000000000001,-11.200000000000001,2.3000000000000003,-46.4,-31.7,68.80000000000001,16
915,15457.0,9.1,-9.8,3.2,-0.30000000000000004,-11.8,2.3000000000000003,-56.2,-46.199999999999996,45.099999999999994,16
916,15474.0,10.0,-9.9,3.0,1.1,-11.100000000000001,2.6,-65.8,-54.1,10.9,16
917,15490.0,11.0,-8.9,3.5,1.1,-10.5,3.4000000000000004,-67.4,-54.4,-33.400000000000006,16
918,15507.0,10.100000000000001,-8.5,4.2,-0.4,-10.4,4.0,-57.60000000000001,-52.400000000000006,-74.80000000000001,16
919,15524.0,8.4,-8.3,4.3,-1.2000000000000002,-10.5,4.0,-50.5,-52.900000000000006,-93.10000000000001,16
920,15540.0,6.6000000000000005,-8.1,3.8000000000000003,-2.8000000000000003,-10.700000000000001,3.6,-36.6,-56.50000000000001,-124.7,16
921,15556.0,5.2,-8.1,2.7,-4.2,-11.200000000000001,2.7,-30.4,-61.10000000000001,-150.9,16
922,15574.0,4.0,-8.200000000000001,2.3000000000000003,-5.1000000000000005,-11.8,2.4000000000000004,-34.2,-60.400000000000006,-178.3,16
923,15590.0,2.6,-7.7,2.7,-6.2,-11.9,3.0,-36.0,-45.3,-207.4,16
924,15607.0,0.8,-6.7,2.8000000000000003,-7.800000000000001,-11.600000000000001,3.1,-30.9,-27.9,-230.20000000000005,16
925,15623.0,0.8,-6.7,2.8000000000000003,-8.6,-11.200000000000001,3.0,-26.799999999999997,-22.000000000000004,-238.50000000000003,16
926,15639.0,-1.4000000000000001,-5.300000000000001,2.5,-10.4,-10.200000000000001,2.5,-17.5,-16.0,-244.0,16
927,15656.0,-3.4000000000000004,-3.5,1.6,-11.4,-9.0,1.3,-15.8,-19.0,-233.70000000000002,16
928,15672.0,-4.3,-1.7000000000000002,0.4,-11.5,-7.800000000000001,0.4,-29.0,-32.1,-215.6,16
929,15689.0,-4.7,-0.1,-0.1,-11.4,-6.800000000000001,0.2,-52.1,-49.4,-195.5,16
930,15708.0,-5.1000000000000005,1.1,0.1,-11.5,-5.9,0.6000000000000001,-70.10000000000001,-64.7,-175.89999999999998,16
931,15722.0,-5.5,2.4000000000000004,0.30000000000000004,-11.4,-5.4,0.6000000000000001,-75.3,-71.9,-166.5,16
932,15740.0,-5.800000000000001,3.5,0.4,-11.3,-4.6000000000000005,0.6000000000000001,-81.7,-86.89999999999999,-153.10000000000002,16
933,15756.0,-5.9,4.5,0.9,-11.0,-3.9000000000000004,1.1,-84.1,-97.8,-144.60000000000002,16
934,15773.0,-6.6000000000000005,5.4,1.9000000000000001,-11.3,-3.2,2.0,-73.8,-92.50000000000001,-141.4,16
935,15790.0,-8.200000000000001,6.4,2.5,-12.600000000000001,-2.4000000000000004,2.5,-54.9,-71.8,-141.6,16
936,15807.0,-8.200000000000001,6.4,2.5,-14.0,-2.0,2.6,-44.5,-56.0,-139.4,16
937,15822.0,-11.5,7.2,2.5,-16.8,-1.5,2.3000000000000003,-22.700000000000003,-21.7,-124.39999999999999,16
938,15840.0,-14.200000000000001,7.6000000000000005,2.2,-19.0,-1.6,1.9000000000000001,-5.6,7.400000000000001,-98.60000000000001,16
939,15857.0,-16.2,7.4,1.7000000000000002,-20.3,-2.2,1.6,0.8,27.0,-66.9,16
940,15873.0,-17.6,6.2,1.9000000000000001,-21.6,-3.9000000000000004,2.6,-2.4000000000000004,38.400000000000006,-33.300000000000004,16
941,15890.0,-18.8,4.5,3.5,-22.400000000000002,-5.5,4.3,-0.1,46.4,2.1,16
942,15907.0,-18.7,3.1,5.4,-22.1,-6.1000000000000005,5.300000000000001,5.2,52.1,20.1,16
943,15925.0,-16.7,2.4000000000000004,6.9,-20.3,-6.7,6.800000000000001,24.200000000000003,73.4,55.1,16
944,15940.0,-13.9,1.6,7.5,-17.7,-7.4,7.4,46.1,98.7,86.89999999999999,16
945,15956.0,-11.4,0.2,7.7,-15.5,-8.700000000000001,7.6000000000000005,68.3,121.30000000000001,107.19999999999999,16
946,15972.0,-9.8,-1.5,7.4,-14.3,-10.200000000000001,7.4,89.0,142.60000000000002,116.5,16
947,15990.0,-9.8,-1.5,7.4,-13.3,-10.5,7.1000000000000005,104.4,160.8,118.90000000000002,16
948,16007.0,-8.5,-2.0,7.0,-12.700000000000001,-10.200000000000001,6.9,110.10000000000001,167.3,120.3,16
949,16025.0,-7.0,-1.4000000000000001,6.5,-11.700000000000001,-9.4,6.0,116.80000000000001,168.5,128.0,16
950,16039.0,-5.800000000000001,-1.1,5.4,-10.700000000000001,-8.9,5.2,115.50000000000003,151.3,141.8,16
951,16057.0,-4.0,-0.7000000000000001,4.800000000000001,-9.3,-8.3,4.800000000000001,114.40000000000002,129.10000000000002,152.5,16
952,16073.0,-2.4000000000000004,-0.5,4.2,-8.0,-7.7,4.0,114.10000000000001,111.30000000000001,160.50000000000003,16
953,16090.0,-0.9,-0.4,3.3000000000000003,-7.0,-7.5,3.2,110.4,100.1,164.89999999999998,16
954,16106.0,0.6000000000000001,-0.5,2.6,-6.5,-7.300000000000001,2.9000000000000004,107.30000000000001,97.3,165.3,16
955,16125.0,1.9000000000000001,-1.2000000000000002,2.1,-5.5,-7.6000000000000005,2.5,100.30000000000001,94.5,161.00000000000003,16
956,16139.0,2.9000000000000004,-1.6,2.1,-4.800000000000001,-7.7,2.4000000000000004,92.39999999999999,98.3,149.60000000000002,16
957,16157.0,3.5,-2.0,2.1,-4.5,-7.7,2.3000000000000003,84.3,109.7,137.1,16
958,16173.0,3.7,-2.5,2.2,-4.5,-7.9,2.3000000000000003,73.2,124.8,127.3,16
959,16189.0,3.7,-2.5,2.2,-4.4,-8.0,2.4000000000000004,66.9,132.0,122.30000000000001,16
960,16206.0,3.9000000000000004,-3.1,2.8000000000000003,-4.6000000000000005,-8.3,2.6,54.0,140.6,116.69999999999999,16
961,16223.0,3.8000000000000003,-3.7,3.0,-4.7,-8.700000000000001,2.3000000000000003,35.4,133.0,119.49999999999999,16
962,16241.0,4.3,-4.4,2.7,-3.9000000000000004,-9.1,1.8,7.6,102.7,123.00000000000001,16
963,16257.0,5.800000000000001,-5.1000000000000005,2.8000000000000003,-2.3000000000000003,-9.5,2.0,-23.2,56.0,112.4,16
964,16273.0,7.300000000000001,-5.9,3.5,-1.2000000000000002,-9.9,2.9000000000000004,-45.8,11.6,90.30000000000001,16
965,16291.0,8.0,-6.6000000000000005,4.7,-1.3,-10.9,3.9000000000000004,-50.900000000000006,-17.6,66.60000000000001,16
966,16305.0,7.6000000000000005,-8.0,5.2,-1.5,-11.5,4.0,-48.70000000000001,-24.5,55.400000000000006,16
967,16324.0,7.9,-8.6,4.9,-1.2000000000000002,-12.0,3.7,-42.60000000000001,-31.3,28.600000000000005,16
968,16340.0,8.8,-8.3,4.2,-0.30000000000000004,-11.700000000000001,3.1,-42.7,-34.7,-6.4,16
969,16356.0,8.8,-8.3,4.2,0.5,-10.3,3.9000000000000004,-44.9,-39.2,-46.7,16
970,16374.0,9.600000000000001,-6.800000000000001,4.9,-0.4,-9.8,4.7,-33.9,-48.2,-76.3,16
971,16391.0,8.6,-6.1000000000000005,5.6000000000000005,-1.2000000000000002,-10.100000000000001,4.800000000000001,-25.200000000000003,-52.900000000000006,-87.10000000000001,16
972,16406.0,7.1000000000000005,-6.4,5.300000000000001,-2.2,-10.700000000000001,3.9000000000000004,-10.0,-63.8,-106.60000000000001,16
973,16430.0,5.0,-7.2,3.3000000000000003,-3.6,-12.0,3.0,-6.4,-77.1,-147.4,16
974,16441.0,5.0,-7.2,3.3000000000000003,-4.0,-12.3,3.0,-6.699999999999999,-76.89999999999999,-165.7,16
975,16456.0,3.6,-7.300000000000001,3.4000000000000004,-5.5,-12.600000000000001,3.5,-3.4,-65.0,-202.70000000000002,16
976,16475.0,1.5,-6.7,3.5,-7.300000000000001,-12.200000000000001,3.5,5.2,-48.300000000000004,-230.6,16
977,16490.0,-0.7000000000000001,-5.300000000000001,3.5,-8.200000000000001,-11.8,3.6,10.9,-41.50000000000001,-238.40000000000003,16
978,16506.0,-2.9000000000000004,-3.6,3.2,-9.8,-10.600000000000001,3.4000000000000004,24.599999999999998,-32.300000000000004,-241.9,16
979,16528.0,-4.9,-1.8,2.0,-11.200000000000001,-9.200000000000001,2.5,33.7,-31.9,-230.6,16
980,16540.0,-5.9,-0.2,0.4,-11.700000000000001,-8.1,1.0,26.700000000000003,-41.50000000000001,-211.4,16
981,16557.0,-6.2,1.4000000000000001,-0.30000000000000004,-11.5,-6.800000000000001,0.4,5.0,-50.8,-191.9,16
982,16575.0,-7.0,2.7,-0.2,-11.9,-5.800000000000001,0.5,-15.6,-55.60000000000001,-169.70000000000002,16
983,16590.0,-7.0,2.7,-0.2,-11.9,-5.2,0.6000000000000001,-21.7,-61.9,-157.4,16
984,16611.0,-7.5,4.1000000000000005,0.1,-11.5,-3.6,0.8,-27.2,-89.9,-116.4,16
985,16624.0,-7.4,5.300000000000001,0.0,-11.200000000000001,-3.3000000000000003,0.4,-29.800000000000004,-100.80000000000001,-104.10000000000001,16
986,16639.0,-6.800000000000001,6.1000000000000005,-0.5,-10.200000000000001,-2.7,0.5,-35.2,-120.00000000000001,-87.89999999999999,16
987,16656.0,-6.2,6.5,-0.1,-9.8,-2.6,0.8,-34.60000000000001,-122.90000000000002,-85.4,16
988,16673.0,-6.5,6.6000000000000005,0.8,-9.8,-2.5,1.7000000000000002,-22.9,-106.4,-90.1,16
989,16690.0,-8.1,6.5,1.3,-11.200000000000001,-2.8000000000000003,2.4000000000000004,5.500000000000001,-64.80000000000001,-102.2,16
990,16706.0,-10.700000000000001,6.5,1.0,-13.4,-2.8000000000000003,2.1,41.0,-13.100000000000001,-110.4,16
991,16723.0,-13.5,6.6000000000000005,-0.7000000000000001,-15.9,-2.9000000000000004,0.6000000000000001,63.70000000000001,29.800000000000004,-101.30000000000001,16
992,16740.0,-16.5,5.7,-2.0,-18.8,-3.7,-0.6000000000000001,54.4,48.2,-70.8,16
993,16756.0,-16.5,5.7,-2.0,-19.6,-4.6000000000000005,-0.30000000000000004,42.60000000000001,48.400000000000006,-50.0,16
994,16772.0,-17.900000000000002,3.7,-0.8,-20.0,-6.7,2.0,25.1,49.699999999999996,-11.6,16
995,16789.0,-17.5,1.7000000000000002,1.9000000000000001,-19.3,-8.4,4.800000000000001,26.6,71.30000000000001,17.7,16
996,16806.0,-16.3,0.5,4.2,-18.2,-9.3,6.2,38.900000000000006,115.60000000000001,49.1,16
997,16822.0,-15.100000000000001,-0.7000000000000001,5.0,-17.6,-10.9,6.7,48.70000000000001,161.00000000000003,86.00000000000001,16
998,16841.0,-14.200000000000001,-2.7,5.2,-16.900000000000002,-12.8,6.9,52.1,188.6,117.20000000000002,16
999,16858.0,-13.200000000000001,-4.6000000000000005,5.4,-16.1,-13.9,7.1000000000000005,47.2,192.70000000000002,142.50000000000003,16
1000,16872.0,-11.0,-4.800000000000001,5.9,-15.0,-13.600000000000001,7.4,43.6,185.00000000000003,152.2,16
1001,16890.0,-8.200000000000001,-4.3,6.300000000000001,-12.8,-12.9,7.7,40.800000000000004,153.3,169.50000000000003,16
1002,16906.0,-5.5,-3.9000000000000004,6.1000000000000005,-10.700000000000001,-12.100000000000001,7.4,46.300000000000004,106.70000000000002,183.29999999999998,16
1003,16922.0,-2.7,-3.5,5.5,-8.4,-11.4,6.9,58.400000000000006,63.70000000000001,187.79999999999998,16
1004,16941.0,-0.6000000000000001,-2.8000000000000003,4.4,-6.7,-10.3,5.9,72.0,40.4,184.20000000000002,16
1005,16956.0,-0.6000000000000001,-2.8000000000000003,4.4,-6.1000000000000005,-9.8,5.2,77.00000000000001,36.400000000000006,180.9,16
1006,16973.0,0.9,-2.2,3.2,-5.2,-8.9,4.5,83.70000000000002,42.0,174.00000000000003,16
1007,16990.0,2.0,-2.0,2.5,-4.6000000000000005,-8.6,3.9000000000000004,88.9,62.4,168.2,16
1008,17006.0,3.4000000000000004,-2.4000000000000004,2.0,-3.4000000000000004,-8.700000000000001,3.7,90.9,87.10000000000001,156.3,16
1009,17022.0,4.5,-2.9000000000000004,1.9000000000000001,-3.0,-8.700000000000001,3.4000000000000004,89.70000000000002,109.30000000000001,143.8,16
1010,17039.0,5.2,-3.2,1.6,-2.8000000000000003,-8.700000000000001,3.1,87.10000000000001,113.60000000000001,140.10000000000002,16
1011,17057.0,6.300000000000001,-3.5,1.1,-1.9000000000000001,-8.6,2.6,76.60000000000001,105.4,133.0,16
1012,17074.0,7.300000000000001,-4.0,0.9,-1.1,-8.8,2.2,59.699999999999996,84.1,120.7,16
1013,17089.0,8.0,-4.5,1.0,-0.6000000000000001,-9.0,2.1,39.599999999999994,62.0,105.5,16
1014,17108.0,8.200000000000001,-4.800000000000001,1.2000000000000002,-0.5,-9.1,2.3000000000000003,20.3,42.400000000000006,92.10000000000001,16
1015,17124.0,8.5,-5.300000000000001,1.7000000000000002,-0.30000000000000004,-9.4,2.7,5.7,32.8,81.0,16
1016,17140.0,8.5,-5.300000000000001,1.7000000000000002,0.0,-9.5,2.9000000000000004,0.9000000000000001,30.4,75.2,16
1017,17156.0,9.0,-5.9,2.1,0.1,-10.200000000000001,3.1,-5.7,26.700000000000003,61.599999999999994,16
1018,17173.0,9.0,-7.1000000000000005,2.2,-0.30000000000000004,-11.600000000000001,2.8000000000000003,-12.299999999999999,20.900000000000002,43.50000000000001,16
1019,17189.0,8.5,-8.6,1.7000000000000002,-0.7000000000000001,-12.9,2.1,-25.6,5.2,20.599999999999998,16
1020,17207.0,8.6,-9.200000000000001,1.3,0.0,-12.4,2.5,-45.400000000000006,-17.5,-12.4,16
1021,17222.0,9.0,-8.1,2.5,0.0,-11.9,3.3000000000000003,-51.300000000000004,-27.3,-31.5,16
1022,17241.0,7.4,-7.5,3.5,-1.5,-11.5,4.4,-47.3,-44.9,-61.300000000000004,16
1023,17256.0,5.9,-7.2,3.1,-2.9000000000000004,-11.4,4.1000000000000005,-34.800000000000004,-60.5,-77.5,16
1024,17272.0,4.9,-7.2,2.0,-3.7,-11.700000000000001,3.2,-29.400000000000002,-72.50000000000001,-92.2,16
1025,17290.0,4.1000000000000005,-7.4,1.1,-4.3,-12.200000000000001,2.4000000000000004,-31.099999999999998,-75.7,-109.2,16
1026,17307.0,3.5,-7.2,0.8,-4.7,-12.5,2.2,-38.60000000000001,-70.0,-136.7,16
1027,17322.0,3.5,-7.2,0.8,-4.9,-12.3,2.5,-41.7,-64.10000000000001,-153.70000000000002,16
1028,17339.0,2.3000000000000003,-6.300000000000001,1.5,-6.2,-11.5,3.4000000000000004,-39.300000000000004,-49.800000000000004,-183.9,16
1029,17356.0,0.6000000000000001,-4.800000000000001,2.0,-7.6000000000000005,-10.3,3.4000000000000004,-27.3,-40.300000000000004,-198.9,16
1030,17374.0,-1.2000000000000002,-3.0,1.5,-8.8,-8.9,2.7,-18.5,-41.0,-198.70000000000002,16
1031,17390.0,-2.7,-1.2000000000000002,0.6000000000000001,-9.4,-7.6000000000000005,1.8,-20.900000000000002,-51.1,-184.6,16
1032,17405.0,-3.2,0.4,-0.4,-9.4,-7.1000000000000005,1.3,-26.9,-59.1,-175.79999999999998,16
1033,17426.0,-3.4000000000000004,1.3,-0.8,-8.9,-6.2,1.2000000000000002,-54.0,-85.69999999999999,-158.2,16
1034,17439.0,-3.6,2.1,0.0,-8.8,-6.0,1.8,-58.900000000000006,-90.30000000000001,-156.4,16
1035,17456.0,-4.5,3.0,0.9,-9.3,-5.300000000000001,2.6,-52.00000000000001,-90.0,-156.4,16
1036,17473.0,-6.0,4.1000000000000005,0.1,-10.4,-4.5,1.9000000000000001,-36.9,-86.5,-150.8,16
1037,17489.0,-7.0,5.1000000000000005,-0.8,-10.9,-3.7,1.1,-31.9,-86.00000000000001,-136.8,16
1038,17506.0,-7.0,5.1000000000000005,-0.8,-11.0,-3.4000000000000004,1.0,-32.1,-84.69999999999999,-129.3,16
1039,17523.0,-7.4,5.800000000000001,-0.6000000000000001,-11.0,-3.0,1.4000000000000001,-29.300000000000004,-75.5,-120.00000000000001,16
1040,17539.0,-7.9,6.300000000000001,-0.30000000000000004,-11.600000000000001,-2.6,1.6,-18.0,-62.50000000000001,-119.89999999999999,16
1041,17557.0,-9.3,6.800000000000001,0.0,-12.9,-2.2,1.8,2.8,-42.2,-119.60000000000002,16
1042,17573.0,-11.3,7.1000000000000005,-0.4,-14.8,-2.1,1.0,20.3,-20.7,-110.2,16
1043,17591.0,-13.600000000000001,7.2,-1.2000000000000002,-16.900000000000002,-2.6,0.6000000000000001,24.1,-2.4000000000000004,-84.69999999999999,16
1044,17605.0,-15.600000000000001,6.0,-1.5,-17.7,-3.3000000000000003,0.5,20.8,5.8,-67.00000000000001,16
1045,17626.0,-17.1,3.7,-1.0,-19.5,-6.9,2.0,0.4,26.5,-12.200000000000001,16
1046,17639.0,-17.7,1.5,1.3,-19.700000000000003,-7.9,3.3000000000000003,-3.8,36.6,3.7000000000000006,16
1047,17657.0,-17.0,0.7000000000000001,4.0,-19.1,-8.700000000000001,6.0,0.8,67.4,33.9,16
1048,17673.0,-16.2,-0.2,5.4,-18.6,-9.5,7.4,15.5,103.89999999999999,69.7,16
1049,17690.0,-15.200000000000001,-2.0,5.6000000000000005,-18.1,-11.200000000000001,7.6000000000000005,29.600000000000005,126.70000000000002,113.3,16
1050,17707.0,-15.200000000000001,-2.0,5.6000000000000005,-17.400000000000002,-12.100000000000001,7.5,34.900000000000006,129.9,133.10000000000002,16
1051,17722.0,-13.3,-4.1000000000000005,5.4,-15.600000000000001,-13.8,7.2,41.50000000000001,121.9,162.20000000000002,16
1052,17740.0,-10.5,-5.5,5.2,-13.3,-14.4,7.0,45.9,106.5,176.8,16
1053,17757.0,-7.9,-5.9,4.800000000000001,-11.5,-14.0,6.5,48.10000000000001,91.6,181.50000000000003,16
1054,17773.0,-5.7,-5.2,4.5,-10.0,-12.700000000000001,6.5,52.5,76.5,181.2,16
1055,17791.0,-3.9000000000000004,-4.1000000000000005,4.4,-8.9,-11.3,6.300000000000001,65.3,64.2,183.5,16
1056,17805.0,-2.3000000000000003,-3.3000000000000003,4.1000000000000005,-8.4,-10.8,6.1000000000000005,74.10000000000001,60.900000000000006,185.90000000000003,16
1057,17824.0,-0.8,-2.9000000000000004,3.0,-7.4,-9.9,5.1000000000000005,90.80000000000001,60.2,191.39999999999998,16
1058,17839.0,0.9,-2.7,2.0,-6.1000000000000005,-9.200000000000001,4.2,100.9,64.9,191.0,16
1059,17857.0,2.8000000000000003,-2.8000000000000003,1.4000000000000001,-4.6000000000000005,-8.9,3.6,106.70000000000002,67.60000000000001,177.6,16
1060,17873.0,3.7,-2.9000000000000004,1.1,-4.0,-8.5,3.4000000000000004,113.2,72.30000000000001,158.6,16
1061,17890.0,3.7,-2.9000000000000004,1.1,-3.8000000000000003,-8.200000000000001,2.9000000000000004,115.8,76.0,144.0,16
1062,17906.0,4.3,-2.8000000000000003,0.1,-3.8000000000000003,-7.6000000000000005,2.0,113.4,77.1,140.8,16
1063,17925.0,4.6000000000000005,-2.7,-1.0,-3.5,-7.300000000000001,0.7000000000000001,98.7,71.8,142.60000000000002,16
1064,17939.0,5.300000000000001,-3.0,-1.9000000000000001,-2.8000000000000003,-7.4,0.2,72.0,60.2,147.29999999999998,16
1065,17957.0,6.300000000000001,-3.7,-1.9000000000000001,-2.0,-7.800000000000001,0.5,41.50000000000001,50.900000000000006,146.8,16
1066,17973.0,7.300000000000001,-4.6000000000000005,-1.0,-1.2000000000000002,-8.3,1.6,18.6,44.10000000000001,137.70000000000002,16
1067,17990.0,8.3,-5.300000000000001,0.1,-0.4,-8.5,2.5,6.2,39.8,120.50000000000001,16
1068,18006.0,9.1,-5.9,0.9,-0.2,-8.700000000000001,2.8000000000000003,3.1,37.300000000000004,110.2,16
1069,18024.0,9.600000000000001,-6.4,1.0,0.30000000000000004,-9.0,2.8000000000000003,-0.7,29.1,88.7,16
1070,18040.0,9.200000000000001,-7.6000000000000005,0.8,-0.2,-10.0,2.5,-6.300000000000001,17.9,68.4,16
1071,18056.0,8.6,-8.8,0.0,-0.8,-11.100000000000001,1.7000000000000002,-19.1,4.0,49.9,16
1072,18072.0,8.6,-8.8,0.0,-0.7000000000000001,-11.3,1.2000000000000002,-30.9,-4.800000000000001,39.599999999999994,16
1073,18090.0,9.200000000000001,-8.9,-0.7000000000000001,0.4,-10.9,1.5,-61.7,-25.300000000000004,5.2,16
1074,18106.0,9.600000000000001,-8.4,0.7000000000000001,-0.4,-10.600000000000001,3.5,-78.4,-37.6,-35.4,16
1075,18123.0,8.0,-8.200000000000001,2.3000000000000003,-2.0,-10.9,4.5,-70.6,-46.199999999999996,-65.5,16
1076,18140.0,6.7,-8.3,2.7,-2.8000000000000003,-11.3,4.4,-52.80000000000001,-54.699999999999996,-94.2,16
1077,18156.0,5.9,-8.4,1.8,-3.6,-11.9,3.1,-43.300000000000004,-62.900000000000006,-125.4,16
1078,18174.0,4.800000000000001,-8.700000000000001,0.5,-4.5,-12.600000000000001,2.3000000000000003,-49.4,-64.80000000000001,-156.5,16
1079,18190.0,3.6,-8.6,-0.2,-5.0,-12.8,2.1,-56.2,-62.50000000000001,-172.4,16
1080,18206.0,2.2,-8.1,0.4,-6.1000000000000005,-12.8,2.7,-69.80000000000001,-56.10000000000001,-204.20000000000002,16
1081,18222.0,0.30000000000000004,-7.0,1.6,-7.5,-12.4,4.0,-70.2,-47.0,-227.90000000000003,16
1082,18240.0,-1.6,-5.5,2.3000000000000003,-9.0,-11.5,4.7,-53.400000000000006,-37.2,-238.1,16
1083,18256.0,-1.6,-5.5,2.3000000000000003,-9.5,-11.0,4.5,-43.300000000000004,-33.6,-237.60000000000005,16
1084,18274.0,-3.0,-4.0,1.7000000000000002,-10.0,-10.0,3.6,-26.6,-35.4,-225.4,16
1085,18288.0,-3.6,-2.5,0.9,-10.0,-9.3,2.8000000000000003,-26.5,-39.50000000000001,-221.1,16
1086,18307.0,-4.2,-1.5,0.1,-10.100000000000001,-8.700000000000001,2.4000000000000004,-32.400000000000006,-52.400000000000006,-214.90000000000003,16
1087,18322.0,-4.9,-0.4,0.1,-10.4,-7.800000000000001,2.6,-37.9,-66.1,-210.0,16
1088,18340.0,-6.1000000000000005,0.9,0.2,-11.0,-6.7,2.5,-38.800000000000004,-83.60000000000001,-201.60000000000002,16
1089,18358.0,-6.9,2.5,0.0,-11.3,-5.5,2.3000000000000003,-38.50000000000001,-102.89999999999999,-186.10000000000002,16
1090,18372.0,-7.9,3.8000000000000003,-0.2,-11.5,-5.0,2.2,-38.900000000000006,-110.30000000000001,-174.20000000000002,16
1091,18389.0,-8.200000000000001,5.1000000000000005,-0.5,-11.200000000000001,-3.9000000000000004,1.9000000000000001,-40.6,-116.69999999999999,-148.5,16
1092,18405.0,-8.5,5.6000000000000005,-1.0,-11.200000000000001,-3.6,1.5,-45.8,-106.1,-128.4,16
1093,18423.0,-9.5,5.800000000000001,-0.30000000000000004,-11.700000000000001,-3.4000000000000004,2.1,-45.9,-83.60000000000001,-121.9,16
1094,18440.0,-12.100000000000001,6.1000000000000005,0.2,-13.9,-3.3000000000000003,2.5,-30.9,-59.40000000000001,-119.20000000000002,16
1095,18455.0,-12.100000000000001,6.1000000000000005,0.2,-15.100000000000001,-3.1,2.1,-24.400000000000002,-52.00000000000001,-113.1,16
1096,18473.0,-14.9,6.300000000000001,-0.7000000000000001,-17.7,-3.5,1.1,-26.799999999999997,-48.800000000000004,-82.60000000000001,16
1097,18490.0,-17.400000000000002,5.300000000000001,-0.9,-19.3,-5.4,1.9000000000000001,-40.7,-52.300000000000004,-35.599999999999994,16
1098,18508.0,-18.400000000000002,2.8000000000000003,1.0,-19.700000000000003,-8.0,4.2,-41.0,-29.900000000000006,4.4,16
1099,18522.0,-18.400000000000002,0.5,3.2,-19.3,-9.5,6.2,-26.200000000000003,26.700000000000003,29.900000000000006,16
1100,18540.0,-17.5,-0.30000000000000004,5.5,-18.8,-10.100000000000001,8.200000000000001,-0.7,97.60000000000001,54.9,16
1101,18555.0,-16.900000000000002,-0.9,6.7,-18.7,-10.4,8.6,15.399999999999999,124.90000000000002,72.30000000000001,16
1102,18573.0,-16.1,-2.1,6.2,-18.3,-11.4,8.1,46.50000000000001,147.9,116.9,16
