,ms,accelX,accelY,accelZ,accelWithGX,accelWithGY,accelWithGZ,rotRateAlpha,rotRateBeta,rotRateGamma,interval
0,37.0,0.0,0.0,0.0,-2.7,0.30000000000000004,9.5,-2.7,-0.9000000000000001,0.0,16
1,54.0,-0.1,0.0,0.0,-2.7,0.30000000000000004,9.5,-2.7,-0.9000000000000001,0.0,16
2,72.0,0.0,0.0,0.0,-2.7,0.30000000000000004,9.4,-2.7,-0.9000000000000001,0.0,16
3,85.0,0.0,0.0,0.0,-2.6,0.30000000000000004,9.5,-2.7,-0.9000000000000001,0.0,16
4,102.0,0.0,0.0,0.1,-2.7,0.30000000000000004,9.5,-2.7,-0.9000000000000001,0.0,16
5,118.0,0.0,0.0,0.1,-2.6,0.30000000000000004,9.600000000000001,-2.7,-0.9000000000000001,0.0,16
6,135.0,0.0,0.0,0.2,-2.7,0.2,9.600000000000001,-2.7,-0.9000000000000001,0.0,16
7,151.0,0.0,0.0,0.30000000000000004,-2.7,0.30000000000000004,9.700000000000001,-2.7,-0.9000000000000001,0.0,16
8,168.0,-0.1,0.0,0.30000000000000004,-2.7,0.2,9.8,0.6000000000000001,-0.4,0.2,16
9,186.0,-0.1,0.0,0.4,-2.7,0.2,9.8,1.3,-1.8000000000000003,-0.7,16
10,202.0,-0.1,0.0,0.30000000000000004,-2.7,0.30000000000000004,9.700000000000001,2.3,-3.3000000000000007,-1.0,16
11,218.0,0.0,0.0,0.0,-2.6,0.30000000000000004,9.5,2.8,-2.3,-1.2000000000000002,16
12,235.0,0.0,0.1,0.0,-2.6,0.30000000000000004,9.4,2.1,-0.7,-1.6,16
13,251.0,-0.1,0.1,-0.1,-2.7,0.4,9.4,1.7,0.1,-1.7,16
14,268.0,-0.1,0.1,0.0,-2.8000000000000003,0.4,9.4,1.6,0.0,-1.0,16
15,285.0,-0.1,0.1,0.0,-2.8000000000000003,0.5,9.4,1.4,0.8,-0.1,16
16,301.0,-0.1,0.0,0.0,-2.8000000000000003,0.4,9.4,1.0,0.1,0.9000000000000001,16
17,319.0,0.0,0.0,0.0,-2.7,0.30000000000000004,9.4,-0.5,-1.3,1.1,16
18,334.0,0.1,0.0,0.0,-2.6,0.30000000000000004,9.4,-2.2,-2.1,0.4,16
19,352.0,0.1,0.0,0.1,-2.7,0.30000000000000004,9.5,-1.9,-1.2000000000000002,0.7,16
20,368.0,0.2,-0.1,0.1,-2.6,0.2,9.600000000000001,-0.7,-0.2,0.8,16
21,384.0,0.2,-0.2,0.2,-2.5,0.2,9.600000000000001,0.5,1.1,0.1,16
22,401.0,0.1,-0.2,0.2,-2.6,0.2,9.600000000000001,1.1,2.0,-1.2000000000000002,16
23,418.0,0.0,-0.1,0.2,-2.7,0.30000000000000004,9.600000000000001,1.4,1.8000000000000003,-1.4,16
24,434.0,0.0,0.0,0.2,-2.7,0.30000000000000004,9.600000000000001,0.4,1.7,-1.2000000000000002,16
25,451.0,0.0,0.0,0.2,-2.7,0.4,9.600000000000001,-0.8,1.0,-1.4,16
26,468.0,-0.1,0.1,0.2,-2.8000000000000003,0.4,9.600000000000001,-2.3,-0.5,-1.9,16
27,484.0,-0.1,0.2,0.2,-2.8000000000000003,0.5,9.600000000000001,-2.7,-1.9,-1.1,16
28,501.0,-0.1,0.2,0.2,-2.8000000000000003,0.5,9.600000000000001,-2.0,-1.6,-0.1,16
29,518.0,0.0,0.1,0.2,-2.7,0.4,9.600000000000001,-0.8,-0.9000000000000001,0.2,16
30,535.0,0.0,0.0,0.1,-2.7,0.4,9.600000000000001,0.5,-0.30000000000000004,0.1,16
31,551.0,0.1,0.0,0.1,-2.6,0.4,9.600000000000001,0.6000000000000001,-0.5,-0.1,16
32,568.0,0.1,0.0,0.0,-2.6,0.30000000000000004,9.4,0.4,0.0,-0.2,16
33,586.0,0.1,0.0,0.1,-2.6,0.30000000000000004,9.5,0.1,0.7,-0.2,16
34,602.0,0.0,-0.1,0.1,-2.7,0.2,9.600000000000001,0.0,0.30000000000000004,-0.2,16
35,619.0,0.1,-0.1,0.1,-2.6,0.30000000000000004,9.5,-0.8,-0.9000000000000001,-0.6000000000000001,16
36,636.0,0.1,-0.1,0.1,-2.6,0.30000000000000004,9.5,-1.8000000000000003,-1.1,-1.2000000000000002,16
37,651.0,0.0,-0.1,0.1,-2.7,0.2,9.5,-2.4000000000000004,0.2,-1.2000000000000002,16
38,668.0,0.0,-0.1,0.1,-2.7,0.2,9.5,-2.0,1.5,-1.3,16
39,685.0,-0.1,0.0,0.1,-2.8000000000000003,0.30000000000000004,9.600000000000001,-1.0,2.5,-1.2000000000000002,16
40,701.0,-0.1,0.1,0.0,-2.8000000000000003,0.4,9.5,-2.2,2.1,0.0,16
41,718.0,-0.1,0.0,0.2,-2.8000000000000003,0.30000000000000004,9.600000000000001,-4.0,2.4000000000000004,0.0,16
42,734.0,-0.1,-0.1,0.5,-2.8000000000000003,0.2,9.9,-4.1,1.7,-0.6000000000000001,16
43,751.0,-0.1,-0.1,0.6000000000000001,-2.9000000000000004,0.2,10.0,-1.6,-0.1,-1.2000000000000002,16
44,768.0,-0.1,-0.1,0.4,-2.8000000000000003,0.2,9.9,1.3,-1.4,-1.2000000000000002,16
45,784.0,-0.1,-0.1,0.1,-2.8000000000000003,0.2,9.5,3.1,-1.7,-1.3,16
46,801.0,-0.1,0.0,-0.2,-2.8000000000000003,0.2,9.200000000000001,2.7,-1.2000000000000002,-1.5,16
47,818.0,-0.1,0.0,-0.30000000000000004,-2.8000000000000003,0.30000000000000004,9.1,0.7,0.1,-1.4,16
48,834.0,-0.1,0.1,-0.4,-2.8000000000000003,0.4,9.0,-0.9000000000000001,1.9,-0.9000000000000001,16
49,851.0,-0.1,0.0,-0.30000000000000004,-2.8000000000000003,0.30000000000000004,9.1,-2.3,5.2,0.2,16
50,868.0,-0.1,0.0,0.0,-2.9000000000000004,0.2,9.4,-2.6,7.400000000000001,0.5,16
51,884.0,-0.2,-0.1,0.2,-3.0,0.2,9.600000000000001,-1.8000000000000003,6.1000000000000005,0.7,16
52,901.0,-0.30000000000000004,0.0,0.0,-3.1,0.2,9.4,-2.2,2.5,1.2000000000000002,16
53,918.0,-0.1,0.0,-0.1,-2.9000000000000004,0.30000000000000004,9.3,-4.1,1.7,1.6,16
54,934.0,-0.1,0.0,-0.1,-2.9000000000000004,0.30000000000000004,9.3,-6.1000000000000005,3.9,2.1,16
55,951.0,-0.1,0.0,0.1,-2.9000000000000004,0.2,9.5,-6.8,4.800000000000001,2.3,16
56,968.0,0.0,-0.1,0.2,-2.9000000000000004,0.1,9.600000000000001,-5.7,5.1000000000000005,2.3,16
57,984.0,0.0,-0.1,0.1,-2.8000000000000003,0.1,9.5,-4.2,5.4,1.9,16
58,1001.0,0.1,-0.1,0.0,-2.7,0.1,9.4,-3.9,6.300000000000001,0.9000000000000001,16
59,1018.0,0.1,-0.1,0.2,-2.7,0.1,9.5,-4.300000000000001,7.9,-0.2,16
60,1035.0,0.0,-0.1,0.4,-2.9000000000000004,0.0,9.8,-2.9,7.0,-1.5,16
61,1051.0,0.0,-0.1,0.4,-2.9000000000000004,0.1,9.8,-1.6,5.7,-1.9,16
62,1068.0,0.0,0.0,0.30000000000000004,-2.9000000000000004,0.1,9.700000000000001,-0.5,4.5,-2.1,16
63,1084.0,0.0,0.1,0.1,-2.9000000000000004,0.2,9.4,-0.8,3.4,-1.9,16
64,1101.0,0.1,0.1,-0.1,-2.8000000000000003,0.2,9.3,-3.0,3.3000000000000007,-1.5,16
65,1118.0,0.2,0.0,-0.1,-2.8000000000000003,0.1,9.3,-5.1000000000000005,3.7000000000000006,-1.4,16
66,1134.0,0.2,0.0,0.0,-2.8000000000000003,0.1,9.3,-6.699999999999999,3.7000000000000006,-2.2,16
67,1151.0,0.30000000000000004,0.0,0.2,-2.7,0.1,9.5,-6.300000000000001,4.0,-2.7,16
68,1168.0,0.1,0.1,0.2,-2.8000000000000003,0.2,9.600000000000001,-4.6,5.4,-2.5,16
69,1184.0,0.2,0.1,0.2,-2.8000000000000003,0.2,9.5,-4.1,3.6000000000000005,-2.2,16
70,1201.0,0.30000000000000004,0.0,0.0,-2.7,0.0,9.4,-5.300000000000001,3.5,-2.8,16
71,1218.0,0.1,0.0,0.30000000000000004,-2.8000000000000003,0.1,9.600000000000001,-6.0,4.0,-4.9,16
72,1234.0,0.1,0.1,0.4,-2.9000000000000004,0.1,9.700000000000001,-3.9,4.5,-4.800000000000001,16
73,1251.0,0.1,0.0,0.4,-2.9000000000000004,0.1,9.8,-2.0,5.0,-5.2,16
74,1268.0,0.0,0.0,0.30000000000000004,-3.0,0.0,9.700000000000001,-1.3,5.6,-5.9,16
75,1284.0,-0.2,0.2,0.30000000000000004,-3.2,0.2,9.700000000000001,-1.9,6.9,-6.4,16
76,1301.0,-0.4,0.30000000000000004,0.30000000000000004,-3.5,0.30000000000000004,9.600000000000001,-2.8,5.9,-4.7,16
77,1318.0,-0.4,0.2,0.4,-3.4000000000000004,0.2,9.700000000000001,-3.7000000000000006,5.2,-2.9,16
78,1334.0,-0.4,0.2,0.4,-3.4000000000000004,0.1,9.700000000000001,-4.300000000000001,4.1,-1.9,16
79,1351.0,-0.4,0.1,0.4,-3.4000000000000004,0.1,9.700000000000001,-3.7000000000000006,2.9,-1.2000000000000002,16
80,1368.0,-0.2,0.1,0.5,-3.3000000000000003,0.1,9.8,-2.5,1.9,-0.5,16
81,1384.0,-0.2,0.1,0.5,-3.3000000000000003,0.0,9.8,-0.6000000000000001,0.6000000000000001,-0.6000000000000001,16
82,1401.0,-0.30000000000000004,0.1,0.30000000000000004,-3.3000000000000003,0.1,9.600000000000001,-0.30000000000000004,-1.3,-0.1,16
83,1418.0,-0.2,0.2,0.2,-3.3000000000000003,0.1,9.5,-0.30000000000000004,-0.6000000000000001,0.6000000000000001,16
84,1434.0,-0.30000000000000004,0.1,0.2,-3.4000000000000004,0.1,9.5,-0.30000000000000004,0.0,1.6,16
85,1451.0,-0.30000000000000004,0.1,0.0,-3.4000000000000004,0.0,9.3,-0.9000000000000001,-2.1,2.6,16
86,1468.0,-0.2,0.1,-0.2,-3.2,0.0,9.1,-2.6,-3.5,3.5,16
87,1484.0,0.0,0.0,-0.1,-3.0,-0.1,9.200000000000001,-4.1,-1.9,3.6000000000000005,16
88,1501.0,0.1,-0.2,0.2,-3.0,-0.2,9.5,-3.9,-1.3,2.6,16
89,1518.0,0.1,-0.2,0.4,-2.9000000000000004,-0.30000000000000004,9.700000000000001,-2.0,-2.9,1.2000000000000002,16
90,1534.0,0.1,-0.30000000000000004,0.2,-2.9000000000000004,-0.30000000000000004,9.5,1.2000000000000002,-4.800000000000001,-0.30000000000000004,16
91,1551.0,0.2,-0.2,-0.2,-2.8000000000000003,-0.2,9.1,4.1,-2.8,-1.6,16
92,1568.0,0.0,-0.1,-0.4,-3.0,-0.1,8.9,3.8,-0.6000000000000001,-1.8000000000000003,16
93,1584.0,-0.1,0.1,-0.5,-3.2,0.0,8.8,0.7,-0.2,-0.2,16
94,1601.0,-0.1,0.0,-0.4,-3.1,0.0,8.9,-3.3000000000000007,1.5,1.6,16
95,1618.0,0.0,-0.1,-0.2,-3.0,-0.2,9.200000000000001,-7.200000000000001,3.7000000000000006,2.3,16
96,1635.0,0.1,-0.30000000000000004,0.2,-3.0,-0.4,9.5,-8.3,2.9,2.0,16
97,1651.0,0.1,-0.30000000000000004,0.4,-2.9000000000000004,-0.4,9.700000000000001,-6.4,1.6,0.9000000000000001,16
98,1668.0,0.1,-0.30000000000000004,0.6000000000000001,-2.9000000000000004,-0.4,9.9,-2.7,2.0,-0.1,16
99,1684.0,0.0,-0.30000000000000004,0.4,-3.1,-0.4,9.700000000000001,1.6,2.7,-0.5,16
100,1701.0,-0.1,-0.2,0.2,-3.1,-0.30000000000000004,9.5,3.1,1.6,-0.30000000000000004,16
101,1718.0,-0.1,-0.1,-0.2,-3.1,-0.2,9.1,1.0,0.0,0.0,16
102,1734.0,0.0,-0.1,-0.4,-3.1,-0.2,8.9,-3.1,-0.9000000000000001,0.30000000000000004,16
103,1751.0,0.1,-0.1,-0.5,-3.0,-0.2,8.8,-7.0,-0.8,0.4,16
104,1768.0,0.2,-0.1,-0.2,-2.8000000000000003,-0.30000000000000004,9.1,-9.700000000000001,1.6,0.0,16
105,1784.0,0.1,-0.2,0.1,-2.9000000000000004,-0.4,9.4,-8.4,4.1,-1.1,16
106,1801.0,0.1,-0.1,0.4,-3.0,-0.30000000000000004,9.700000000000001,-5.1000000000000005,4.300000000000001,-1.3,16
107,1818.0,0.2,-0.1,0.4,-2.9000000000000004,-0.30000000000000004,9.700000000000001,-0.5,5.500000000000001,-1.5,16
108,1834.0,0.1,-0.1,0.4,-3.0,-0.30000000000000004,9.700000000000001,1.3,6.300000000000001,-2.1,16
109,1851.0,0.0,0.0,0.4,-3.1,-0.2,9.700000000000001,0.9000000000000001,6.2,-3.3000000000000007,16
110,1868.0,-0.1,0.1,0.4,-3.2,-0.1,9.700000000000001,0.0,5.1000000000000005,-3.4,16
111,1884.0,-0.2,0.2,0.2,-3.4000000000000004,-0.1,9.5,-2.8,2.3,-2.2,16
112,1902.0,-0.1,0.2,0.1,-3.3000000000000003,0.0,9.4,-6.1000000000000005,1.5,-1.2000000000000002,16
113,1918.0,0.0,0.30000000000000004,0.30000000000000004,-3.2,0.0,9.600000000000001,-8.700000000000001,3.5,-0.5,16
114,1934.0,-0.1,0.2,0.7000000000000001,-3.2,-0.1,10.0,-9.100000000000001,5.500000000000001,-0.5,16
115,1951.0,-0.1,0.2,1.0,-3.3000000000000003,-0.1,10.3,-6.2,5.2,-0.4,16
116,1968.0,-0.1,0.1,1.0,-3.2,-0.2,10.3,-0.5,3.5,-0.1,16
117,1984.0,-0.1,0.2,1.0,-3.3000000000000003,-0.1,10.200000000000001,4.2,3.5,-0.1,16
118,2001.0,-0.30000000000000004,0.2,0.7000000000000001,-3.4000000000000004,-0.1,9.9,7.9,2.6,0.1,16
119,2018.0,-0.30000000000000004,0.30000000000000004,0.30000000000000004,-3.5,0.0,9.600000000000001,8.100000000000001,2.2,1.5,16
120,2034.0,-0.4,0.30000000000000004,0.0,-3.6,0.1,9.3,6.1000000000000005,1.0,3.0,16
121,2061.0,-0.30000000000000004,0.2,-0.2,-3.5,0.1,9.0,-3.7000000000000006,-4.2,7.8,16
122,2076.0,0.1,0.0,-0.2,-3.4000000000000004,0.0,9.0,-8.899999999999999,-5.8,9.0,16
123,2085.0,0.2,-0.1,-0.1,-3.1,-0.2,9.1,-10.1,-5.7,9.100000000000001,16
124,2102.0,0.30000000000000004,-0.30000000000000004,0.2,-2.9000000000000004,-0.4,9.4,-10.0,-3.6000000000000005,7.500000000000001,16
125,2118.0,0.30000000000000004,-0.4,0.6000000000000001,-2.9000000000000004,-0.5,9.8,-6.0,-1.3,5.500000000000001,16
126,2135.0,0.1,-0.30000000000000004,0.6000000000000001,-3.1,-0.4,9.9,2.2,-0.7,3.7000000000000006,16
127,2157.0,0.0,-0.1,-0.1,-3.2,-0.30000000000000004,9.200000000000001,9.5,-2.9,3.0,16
128,2174.0,-0.1,0.0,-0.5,-3.2,-0.1,8.8,7.9,-1.2000000000000002,2.4000000000000004,16
129,2185.0,-0.1,0.1,-0.6000000000000001,-3.3000000000000003,-0.1,8.700000000000001,6.0,0.2,2.4000000000000004,16
130,2204.0,-0.4,0.1,-0.6000000000000001,-3.5,0.0,8.700000000000001,-3.2,4.4,4.4,16
131,2219.0,-0.30000000000000004,0.0,-0.2,-3.5,-0.2,9.1,-7.6,4.1,5.500000000000001,16
132,2237.0,0.1,-0.30000000000000004,0.2,-3.2,-0.4,9.5,-7.9,2.3,5.1000000000000005,16
133,2252.0,0.30000000000000004,-0.5,0.4,-2.9000000000000004,-0.6000000000000001,9.700000000000001,-4.5,-1.3,1.9,16
134,2268.0,0.4,-0.4,0.2,-2.9000000000000004,-0.6000000000000001,9.5,-0.7,-5.1000000000000005,-1.1,16
135,2285.0,0.30000000000000004,-0.1,-0.1,-2.8000000000000003,-0.4,9.200000000000001,3.3000000000000007,-6.0,-3.1,16
136,2301.0,0.30000000000000004,0.1,-0.2,-2.8000000000000003,-0.2,9.1,6.2,-0.7,-3.3000000000000007,16
137,2318.0,0.1,0.1,-0.2,-3.0,-0.2,9.1,7.200000000000001,5.4,-2.5,16
138,2337.0,0.0,0.1,0.0,-3.1,-0.2,9.3,6.300000000000001,8.700000000000001,-1.3,16
139,2352.0,0.1,0.0,0.30000000000000004,-3.0,-0.30000000000000004,9.600000000000001,3.9,8.5,-1.7,16
140,2369.0,0.1,0.0,0.5,-3.1,-0.30000000000000004,9.8,2.4000000000000004,6.2,-3.7000000000000006,16
141,2387.0,-0.1,0.1,0.8,-3.2,-0.2,10.100000000000001,2.9,2.7,-4.4,16
142,2401.0,-0.2,0.2,0.9,-3.3000000000000003,-0.1,10.200000000000001,4.9,1.8000000000000003,-3.8,16
143,2419.0,-0.2,0.1,0.7000000000000001,-3.3000000000000003,-0.1,10.0,7.8,1.5,-3.0,16
144,2435.0,-0.4,0.2,0.4,-3.5,0.0,9.700000000000001,8.5,1.6,-2.2,16
145,2455.0,-0.30000000000000004,0.2,0.30000000000000004,-3.4000000000000004,0.0,9.600000000000001,6.9,3.3000000000000007,-1.4,16
146,2468.0,-0.30000000000000004,0.1,0.5,-3.4000000000000004,-0.1,9.8,5.4,4.7,-1.0,16
147,2485.0,-0.30000000000000004,0.0,0.7000000000000001,-3.4000000000000004,-0.2,10.0,4.9,1.4,-0.9000000000000001,16
148,2505.0,-0.1,-0.1,0.5,-3.2,-0.30000000000000004,9.8,6.699999999999999,-4.0,-2.2,16
149,2518.0,0.0,-0.1,0.4,-3.1,-0.2,9.700000000000001,7.300000000000001,-4.1,-2.9,16
150,2536.0,-0.30000000000000004,0.1,0.1,-3.3000000000000003,0.0,9.5,10.9,-3.6000000000000005,-3.5,16
151,2554.0,-0.2,0.2,0.0,-3.3000000000000003,0.1,9.3,12.7,-0.9000000000000001,-1.2000000000000002,16
152,2575.0,-0.2,0.2,-0.2,-3.3000000000000003,0.1,9.1,12.4,1.3,0.8,16
153,2585.0,-0.2,0.1,-0.30000000000000004,-3.3000000000000003,0.1,9.0,10.0,1.3,1.2000000000000002,16
154,2603.0,-0.2,0.1,-0.4,-3.2,0.1,8.9,6.0,0.2,1.6,16
155,2618.0,-0.1,0.2,-0.4,-3.2,0.2,8.9,1.9,-0.30000000000000004,3.2,16
156,2636.0,0.1,0.1,-0.4,-3.0,0.1,8.9,-1.8000000000000003,-0.9000000000000001,4.5,16
157,2652.0,0.30000000000000004,0.1,-0.4,-2.8000000000000003,0.1,8.9,-6.2,-1.3,4.800000000000001,16
158,2671.0,0.7000000000000001,0.0,-0.2,-2.4000000000000004,0.0,9.1,-9.600000000000001,0.2,3.4,16
159,2685.0,0.8,0.0,0.0,-2.3000000000000003,0.0,9.3,-9.600000000000001,1.4,2.0,16
160,2702.0,0.7000000000000001,0.0,0.2,-2.3000000000000003,0.0,9.600000000000001,-8.100000000000001,2.8,-0.2,16
161,2718.0,0.4,0.2,0.5,-2.4000000000000004,0.2,9.9,-4.4,3.8,-2.7,16
162,2736.0,0.30000000000000004,0.2,0.6000000000000001,-2.4000000000000004,0.30000000000000004,10.0,1.5,2.9,-4.2,16
163,2757.0,0.1,0.30000000000000004,0.6000000000000001,-2.5,0.30000000000000004,10.100000000000001,2.3,1.9,-6.699999999999999,16
164,2768.0,-0.2,0.5,0.7000000000000001,-2.8000000000000003,0.6000000000000001,10.100000000000001,2.4000000000000004,-0.2,-9.5,16
165,2785.0,-0.4,0.6000000000000001,0.6000000000000001,-3.0,0.7000000000000001,10.0,2.8,-2.1,-9.600000000000001,16
166,2802.0,-0.6000000000000001,0.7000000000000001,0.5,-3.2,0.9,10.0,2.5,-1.8000000000000003,-8.8,16
167,2818.0,-0.7000000000000001,0.9,0.5,-3.3000000000000003,1.1,9.9,1.6,-2.0,-6.600000000000001,16
168,2835.0,-0.7000000000000001,0.9,0.4,-3.3000000000000003,1.1,9.8,0.8,-0.7,-3.5,16
169,2852.0,-0.7000000000000001,0.8,0.4,-3.3000000000000003,1.1,9.9,0.5,-0.5,-0.8,16
170,2869.0,-0.6000000000000001,0.6000000000000001,0.30000000000000004,-3.2,0.9,9.700000000000001,-1.0,-1.3,2.8,16
171,2886.0,-0.5,0.5,0.4,-3.2,0.8,9.8,-2.4000000000000004,-1.9,2.7,16
172,2910.0,-0.7000000000000001,0.5,0.6000000000000001,-3.4000000000000004,0.8,10.100000000000001,-2.2,-3.1,3.3000000000000007,16
173,2926.0,-0.7000000000000001,0.5,0.6000000000000001,-3.4000000000000004,0.8,10.100000000000001,0.1,-8.4,6.2,16
174,2935.0,-0.7000000000000001,0.4,0.6000000000000001,-3.4000000000000004,0.7000000000000001,10.0,0.7,-9.899999999999999,7.200000000000001,16
175,2962.0,-0.6000000000000001,0.30000000000000004,0.4,-3.2,0.7000000000000001,9.8,1.3,-11.000000000000002,8.100000000000001,16
176,2972.0,-0.8,0.30000000000000004,0.4,-3.3000000000000003,0.7000000000000001,9.8,1.2000000000000002,-10.8,8.5,16
177,2985.0,-0.9,0.4,0.5,-3.5,0.8,9.9,1.7,-9.700000000000001,10.200000000000001,16
178,3004.0,-0.9,0.30000000000000004,0.4,-3.4000000000000004,0.7000000000000001,9.9,5.500000000000001,-7.0,13.000000000000002,16
179,3019.0,-0.8,0.2,0.30000000000000004,-3.4000000000000004,0.6000000000000001,9.8,6.8,-5.7,13.399999999999999,16
180,3040.0,-1.0,0.1,0.4,-3.6,0.6000000000000001,9.9,12.4,2.7,13.100000000000001,16
181,3054.0,-1.7000000000000002,0.0,0.2,-4.2,0.6000000000000001,9.600000000000001,18.5,6.4,16.3,16
182,3069.0,-2.1,0.1,-0.4,-4.7,0.6000000000000001,9.1,18.1,-3.4,22.6,16
183,3086.0,-1.3,-0.1,-1.1,-3.8000000000000003,0.6000000000000001,8.4,8.3,-15.899999999999999,31.3,16
184,3101.0,-0.2,-0.30000000000000004,-1.3,-2.8000000000000003,0.4,8.1,-6.300000000000001,-16.0,33.400000000000006,16
185,3118.0,-0.2,-0.6000000000000001,-1.1,-2.7,0.1,8.4,-24.7,-20.8,31.099999999999998,16
186,3138.0,0.0,-0.7000000000000001,-0.5,-2.5,-0.1,9.0,-33.400000000000006,-27.2,28.600000000000005,16
187,3155.0,0.0,-0.7000000000000001,0.2,-2.4000000000000004,-0.1,9.700000000000001,-29.500000000000004,-24.599999999999998,26.200000000000003,16
188,3168.0,-0.2,-0.7000000000000001,0.7000000000000001,-2.5,-0.2,10.200000000000001,-14.700000000000001,-13.900000000000002,24.0,16
189,3187.0,-0.6000000000000001,-0.8,0.8,-2.9000000000000004,-0.30000000000000004,10.4,9.100000000000001,-2.7,19.9,16
190,3203.0,-0.6000000000000001,-0.8,0.8,-2.9000000000000004,-0.30000000000000004,10.4,9.100000000000001,-2.7,19.9,16
191,3218.0,-1.3,-0.4,0.5,-3.6,0.1,10.100000000000001,37.300000000000004,-7.6,18.700000000000003,16
192,3235.0,-1.6,-0.1,-0.30000000000000004,-3.9000000000000004,0.5,9.200000000000001,38.400000000000006,-9.700000000000001,20.900000000000002,16
193,3264.0,-1.3,0.1,-1.6,-3.5,0.9,7.9,15.2,-9.5,30.9,16
194,3268.0,-1.2000000000000002,-0.1,-1.6,-3.5,0.8,7.9,6.0,-9.0,32.6,16
195,3285.0,-1.1,-0.4,-1.3,-3.3000000000000003,0.5,8.200000000000001,-13.8,-13.900000000000002,34.400000000000006,16
196,3302.0,-0.8,-0.6000000000000001,-0.8,-3.0,0.2,8.8,-24.900000000000002,-16.5,34.2,16
197,3319.0,-0.6000000000000001,-0.7000000000000001,-0.2,-2.7,0.1,9.3,-29.300000000000004,-12.200000000000001,32.1,16
198,3335.0,-0.4,-0.8,0.2,-2.5,-0.1,9.8,-25.900000000000002,-6.9,28.900000000000002,16
199,3358.0,-0.30000000000000004,-0.7000000000000001,0.5,-2.4000000000000004,0.0,10.100000000000001,-13.399999999999999,0.4,21.400000000000002,16
200,3368.0,-0.30000000000000004,-0.5,0.5,-2.4000000000000004,0.1,10.0,-7.1000000000000005,2.7,17.9,16
201,3388.0,-0.5,0.0,-0.2,-2.7,0.6000000000000001,9.4,3.4,2.9,13.399999999999999,16
202,3402.0,-0.7000000000000001,0.4,-0.9,-2.9000000000000004,1.0,8.700000000000001,3.4,0.9000000000000001,12.7,16
203,3421.0,-0.7000000000000001,0.7000000000000001,-1.2000000000000002,-2.9000000000000004,1.4000000000000001,8.3,-3.2,0.0,13.6,16
204,3440.0,-0.6000000000000001,0.7000000000000001,-1.1,-2.7,1.4000000000000001,8.5,-15.100000000000001,3.1,14.800000000000002,16
205,3465.0,-0.5,0.4,0.0,-2.7,1.0,9.5,-26.9,2.6,12.7,16
206,3468.0,-0.5,0.30000000000000004,0.4,-2.7,0.9,10.0,-27.0,1.0,11.4,16
207,3485.0,-0.5,0.30000000000000004,0.8,-2.7,0.8,10.4,-21.0,-6.500000000000001,8.700000000000001,16
208,3501.0,-0.30000000000000004,0.30000000000000004,0.6000000000000001,-2.5,0.8,10.200000000000001,-11.900000000000002,-12.200000000000001,6.2,16
209,3518.0,-0.30000000000000004,0.5,0.0,-2.4000000000000004,0.9,9.5,-1.3,-14.5,3.8,16
210,3539.0,-0.30000000000000004,0.8,-1.0,-2.4000000000000004,1.2000000000000002,8.6,7.0,-7.200000000000001,1.4,16
211,3552.0,-0.4,1.0,-1.3,-2.5,1.5,8.3,7.1000000000000005,-0.6000000000000001,1.4,16
212,3569.0,-0.5,1.0,-1.1,-2.5,1.5,8.4,4.800000000000001,5.7,2.0,16
213,3585.0,-0.7000000000000001,1.0,-0.6000000000000001,-2.8000000000000003,1.6,9.0,2.5,7.0,2.8,16
214,3601.0,-0.6000000000000001,0.9,-0.1,-2.8000000000000003,1.4000000000000001,9.5,0.2,4.1,3.2,16
215,3618.0,-0.5,0.7000000000000001,0.5,-2.6,1.3,10.100000000000001,-0.2,-0.1,3.0,16
216,3636.0,-0.1,0.1,1.0,-2.5,1.0,10.5,2.3,-7.300000000000001,0.9000000000000001,16
217,3655.0,-0.1,-0.1,1.2000000000000002,-2.5,0.9,10.600000000000001,6.699999999999999,-16.200000000000003,-0.9000000000000001,16
218,3668.0,0.30000000000000004,-0.2,0.8,-2.1,0.8,10.200000000000001,12.0,-25.4,-2.4000000000000004,16
219,3686.0,0.5,-0.30000000000000004,-0.1,-1.8,0.8,9.4,15.6,-31.2,-6.600000000000001,16
220,3702.0,0.4,-0.4,-1.2000000000000002,-1.8,0.8,8.3,16.1,-35.699999999999996,-10.600000000000001,16
221,3718.0,0.4,-0.2,-2.0,-1.7000000000000002,0.9,7.5,12.600000000000001,-32.300000000000004,-12.7,16
222,3735.0,0.6000000000000001,-0.2,-2.0,-1.4000000000000001,1.0,7.5,6.8,-15.8,-12.7,16
223,3757.0,0.30000000000000004,-0.8,-0.5,-1.8,0.4,9.0,-2.3,25.4,-12.600000000000001,16
224,3768.0,-0.1,-1.3,1.3,-2.0,0.2,9.700000000000001,-2.6,43.4,-15.2,16
225,3790.0,-0.30000000000000004,-1.8,3.5,-2.6,-0.6000000000000001,13.0,8.3,46.4,-19.6,16
226,3804.0,-0.30000000000000004,-1.9000000000000001,4.0,-2.7,-0.7000000000000001,13.4,16.6,39.1,-22.6,16
227,3818.0,-0.2,-1.9000000000000001,3.5,-2.7,-0.7000000000000001,12.9,29.800000000000004,21.300000000000004,-26.799999999999997,16
228,3835.0,0.0,-1.7000000000000002,1.9000000000000001,-2.6,-0.5,11.3,39.599999999999994,-0.1,-30.1,16
229,3856.0,0.6000000000000001,-1.2000000000000002,-0.8,-2.0,0.2,8.6,31.9,-4.6,-31.5,16
230,3871.0,1.0,-1.0,-1.4000000000000001,-1.6,0.4,8.0,26.200000000000003,0.6000000000000001,-31.5,16
231,3889.0,1.0,-1.1,-0.9,-1.6,0.4,8.5,8.700000000000001,24.900000000000002,-29.200000000000003,16
232,3901.0,0.9,-1.1,-0.2,-1.7000000000000002,0.30000000000000004,9.1,6.0,31.099999999999998,-28.500000000000004,16
233,3919.0,0.4,-1.3,1.2000000000000002,-2.3000000000000003,0.1,10.5,7.0,35.0,-26.700000000000003,16
234,3935.0,0.30000000000000004,-1.3,1.3,-2.5,0.1,10.600000000000001,11.4,28.1,-24.900000000000002,16
235,3955.0,0.4,-1.0,1.2000000000000002,-2.5,0.4,10.4,15.2,20.2,-22.1,16
236,3969.0,0.4,-0.9,0.7000000000000001,-2.6,0.5,9.9,15.6,15.5,-18.4,16
237,3985.0,0.5,-0.8,0.1,-2.5,0.7000000000000001,9.3,11.900000000000002,10.0,-13.5,16
238,4002.0,0.7000000000000001,-0.7000000000000001,-0.2,-2.3000000000000003,0.8,9.0,5.8,6.300000000000001,-8.2,16
239,4018.0,0.8,-0.7000000000000001,-0.4,-2.3000000000000003,0.7000000000000001,8.8,0.30000000000000004,4.0,-4.1,16
240,4041.0,0.9,-0.8,-0.6000000000000001,-2.1,0.6000000000000001,8.6,-9.899999999999999,-0.8,2.2,16
241,4066.0,1.1,-1.0,-0.2,-2.0,0.4,9.0,-14.100000000000001,-0.30000000000000004,6.1000000000000005,16
242,4068.0,1.1,-1.0,-0.2,-2.0,0.4,9.0,-14.100000000000001,-0.30000000000000004,6.1000000000000005,16
243,4085.0,1.0,-1.0,0.0,-2.0,0.30000000000000004,9.200000000000001,-10.299999999999999,1.5,8.3,16
244,4106.0,0.8,-0.7000000000000001,0.1,-2.0,0.4,9.4,-6.2,3.8,9.0,16
245,4118.0,0.4,-0.30000000000000004,0.30000000000000004,-2.1,0.5,9.700000000000001,-1.2000000000000002,8.100000000000001,11.4,16
246,4135.0,-0.1,-0.1,0.30000000000000004,-2.4000000000000004,0.6000000000000001,9.8,1.2000000000000002,9.8,13.100000000000001,16
247,4162.0,-0.30000000000000004,0.2,0.30000000000000004,-2.6,0.8,9.8,-2.6,4.9,16.4,16
248,4168.0,-0.30000000000000004,0.2,0.4,-2.6,0.8,10.0,-4.7,4.800000000000001,17.6,16
249,4185.0,-0.30000000000000004,0.2,0.8,-2.7,0.8,10.3,-9.3,3.5,20.400000000000002,16
250,4202.0,-0.4,0.0,1.2000000000000002,-2.8000000000000003,0.6000000000000001,10.700000000000001,-11.5,-0.1,21.300000000000004,16
251,4219.0,-0.8,-0.2,1.3,-3.1,0.4,10.8,-10.299999999999999,-12.0,21.900000000000002,16
252,4240.0,-1.2000000000000002,-0.2,0.7000000000000001,-3.5,0.30000000000000004,10.200000000000001,-9.700000000000001,-18.4,23.6,16
253,4255.0,-1.3,-0.2,-0.2,-3.6,0.30000000000000004,9.3,-14.400000000000002,-25.300000000000004,27.2,16
254,4268.0,-1.0,-0.1,-0.4,-3.2,0.4,9.1,-20.7,-28.200000000000003,29.700000000000006,16
255,4285.0,-0.4,-0.30000000000000004,-0.4,-2.5,0.2,9.200000000000001,-34.800000000000004,-27.099999999999998,31.099999999999998,16
256,4302.0,-0.4,-0.4,-0.2,-2.4000000000000004,-0.1,9.4,-39.400000000000006,-30.1,29.1,16
257,4319.0,-0.4,-0.4,0.1,-2.4000000000000004,-0.1,9.700000000000001,-36.2,-29.300000000000004,26.1,16
258,4335.0,-0.5,-0.30000000000000004,0.4,-2.4000000000000004,-0.1,10.0,-30.200000000000003,-25.8,24.8,16
259,4369.0,-1.0,-0.1,1.2000000000000002,-2.8000000000000003,-0.1,10.8,-16.1,-15.8,16.1,16
260,4386.0,-1.6,0.30000000000000004,0.9,-3.3000000000000003,0.30000000000000004,10.600000000000001,-3.8,-21.1,12.9,16
261,4402.0,-1.7000000000000002,0.5,0.4,-3.4000000000000004,0.5,10.100000000000001,4.0,-24.3,13.6,16
262,4418.0,-1.8,0.6000000000000001,-0.2,-3.4000000000000004,0.7000000000000001,9.4,8.2,-23.900000000000006,15.2,16
263,4435.0,-1.8,0.7000000000000001,-1.0,-3.4000000000000004,0.8,8.700000000000001,8.700000000000001,-22.9,17.400000000000002,16
264,4455.0,-1.9000000000000001,0.8,-1.6,-3.4000000000000004,0.9,8.1,4.9,-19.799999999999997,19.6,16
265,4470.0,-1.8,0.9,-1.8,-3.3000000000000003,1.0,7.9,-3.3000000000000007,-12.8,23.2,16
266,4485.0,-0.9,0.5,-1.3,-3.2,0.9,8.200000000000001,-12.4,-6.4,26.000000000000004,16
267,4502.0,-0.9,0.30000000000000004,-0.7000000000000001,-3.2,0.7000000000000001,8.9,-20.5,-1.8000000000000003,27.700000000000003,16
268,4518.0,-0.8,0.2,0.0,-3.1,0.6000000000000001,9.5,-23.6,-0.6000000000000001,27.3,16
269,4535.0,-0.6000000000000001,0.2,0.4,-3.0,0.5,9.9,-21.6,-0.9000000000000001,26.700000000000003,16
270,4559.0,-0.30000000000000004,0.1,0.30000000000000004,-2.6,0.4,9.8,-13.000000000000002,0.0,25.4,16
271,4569.0,0.0,0.2,0.1,-2.5,0.6000000000000001,9.600000000000001,-7.6,0.30000000000000004,23.400000000000002,16
272,4585.0,0.2,0.2,-0.1,-2.4000000000000004,0.7000000000000001,9.4,-2.2,1.6,22.5,16
273,4601.0,0.30000000000000004,0.2,-0.2,-2.3000000000000003,0.6000000000000001,9.200000000000001,-0.5,2.2,22.000000000000004,16
274,4623.0,0.4,0.2,-0.7000000000000001,-2.3000000000000003,0.7000000000000001,8.8,-0.30000000000000004,1.0,18.8,16
275,4635.0,0.5,0.2,-0.8,-2.2,0.7000000000000001,8.6,-4.4,0.8,16.0,16
276,4659.0,0.30000000000000004,0.30000000000000004,-0.6000000000000001,-2.3000000000000003,0.8,8.9,-6.699999999999999,2.7,13.100000000000001,16
277,4669.0,0.30000000000000004,0.30000000000000004,-0.5,-2.3000000000000003,0.8,8.9,-5.8,3.0,12.8,16
278,4685.0,0.4,0.2,-0.4,-2.2,0.9,9.0,-3.3000000000000007,3.9,12.200000000000001,16
279,4706.0,0.4,0.2,-0.30000000000000004,-2.2,0.9,9.1,0.6000000000000001,5.0,11.1,16
280,4718.0,0.4,0.2,-0.30000000000000004,-2.1,0.9,9.1,0.30000000000000004,2.9,9.100000000000001,16
281,4738.0,0.6000000000000001,0.2,-0.1,-1.8,1.0,9.3,-1.5,1.1,7.0,16
282,4756.0,0.8,0.2,0.1,-1.7000000000000002,1.0,9.600000000000001,-3.5,0.0,3.3000000000000007,16
283,4770.0,0.7000000000000001,0.30000000000000004,0.4,-1.7000000000000002,1.1,9.8,-2.7,-2.0,0.2,16
284,4788.0,0.6000000000000001,0.4,0.30000000000000004,-1.8,1.2000000000000002,9.8,0.5,-4.800000000000001,-1.8000000000000003,16
285,4801.0,0.6000000000000001,0.5,0.1,-1.7000000000000002,1.3,9.600000000000001,3.7000000000000006,-4.1,-2.9,16
286,4818.0,0.7000000000000001,0.4,0.2,-1.6,1.2000000000000002,9.700000000000001,6.600000000000001,2.2,-4.9,16
287,4835.0,0.6000000000000001,0.2,0.7000000000000001,-1.7000000000000002,1.1,10.200000000000001,9.600000000000001,6.600000000000001,-7.9,16
288,4860.0,0.1,-0.1,1.1,-2.1,0.8,10.600000000000001,17.1,0.5,-11.1,16
289,4868.0,0.0,-0.1,0.7000000000000001,-2.3000000000000003,0.8,10.200000000000001,19.6,-7.8,-12.0,16
290,4885.0,0.0,-0.1,-0.30000000000000004,-2.2,0.9,9.200000000000001,18.8,-19.400000000000002,-12.8,16
291,4901.0,0.30000000000000004,0.0,-1.3,-1.9000000000000001,1.1,8.4,10.299999999999999,-18.3,-12.4,16
292,4918.0,0.2,-0.2,-0.9,-1.9000000000000001,0.8,8.6,-5.9,5.2,-11.3,16
293,4947.0,-0.30000000000000004,-0.7000000000000001,0.7000000000000001,-2.5,0.30000000000000004,10.200000000000001,-11.8,23.900000000000006,-9.4,16
294,4952.0,-0.4,-0.9,1.2000000000000002,-2.6,0.0,10.700000000000001,-11.8,29.600000000000005,-8.899999999999999,16
295,4980.0,0.0,-1.7000000000000002,3.2,-2.3000000000000003,-0.7000000000000001,12.600000000000001,-1.6,43.800000000000004,-12.299999999999999,16
296,4991.0,0.1,-2.0,3.7,-2.3000000000000003,-1.1,13.100000000000001,10.9,38.900000000000006,-18.900000000000002,16
297,5002.0,0.1,-2.0,3.6,-2.4000000000000004,-1.0,13.0,18.0,32.300000000000004,-21.900000000000002,16
298,5018.0,0.2,-1.7000000000000002,2.6,-2.4000000000000004,-0.7000000000000001,12.0,33.7,11.2,-27.099999999999998,16
299,5040.0,0.7000000000000001,-1.0,0.4,-2.0,0.1,9.700000000000001,41.7,-1.8000000000000003,-26.700000000000003,16
300,5062.0,1.1,-0.8,-0.9,-1.6,0.4,8.5,27.6,12.5,-24.200000000000003,16
301,5071.0,0.9,-0.9,-0.9,-1.8,0.30000000000000004,8.5,20.400000000000002,17.6,-23.3,16
302,5086.0,0.6000000000000001,-1.1,0.1,-2.1,0.2,9.4,7.0,21.7,-22.1,16
303,5105.0,0.7000000000000001,-1.3,1.4000000000000001,-2.1,-0.1,10.700000000000001,1.2000000000000002,18.6,-20.7,16
304,5118.0,0.9,-1.6,1.8,-2.0,-0.4,11.100000000000001,4.7,8.700000000000001,-19.9,16
305,5140.0,1.3,-1.6,1.2000000000000002,-1.5,-0.4,10.5,13.399999999999999,-8.2,-22.2,16
306,5158.0,1.3,-1.4000000000000001,0.7000000000000001,-1.5,-0.2,10.0,17.0,-11.8,-22.700000000000003,16
307,5168.0,1.2000000000000002,-1.1,0.0,-1.6,0.2,9.4,20.400000000000002,-11.3,-20.8,16
308,5185.0,1.2000000000000002,-0.9,-0.5,-1.5,0.4,8.8,21.0,-6.600000000000001,-17.1,16
309,5203.0,1.1,-0.9,-1.1,-1.7000000000000002,0.4,8.3,17.6,-1.8000000000000003,-13.399999999999999,16
310,5219.0,0.8,-0.7000000000000001,-1.0,-1.7000000000000002,0.4,8.4,5.9,4.7,-10.1,16
311,5235.0,0.6000000000000001,-0.6000000000000001,-0.9,-1.9000000000000001,0.4,8.6,2.8,4.6,-9.700000000000001,16
312,5268.0,0.5,-0.5,0.0,-2.0,0.5,9.4,-5.6,-3.2,-1.6,16
313,5285.0,0.7000000000000001,-0.6000000000000001,-0.2,-1.7000000000000002,0.30000000000000004,9.200000000000001,-8.600000000000001,-11.8,1.3,16
314,5301.0,0.9,-0.7000000000000001,-0.5,-1.5,0.30000000000000004,9.0,-12.5,-15.399999999999999,2.1,16
315,5321.0,0.9,-0.7000000000000001,-0.5,-1.4000000000000001,0.2,8.9,-15.399999999999999,-14.0,2.0,16
316,5335.0,0.9,-0.8,-0.4,-1.4000000000000001,0.1,9.1,-15.899999999999999,-9.5,1.7,16
317,5370.0,-0.1,-0.1,0.5,-1.8,0.2,10.0,-7.500000000000001,0.9000000000000001,-0.2,16
318,5386.0,-0.1,-0.1,0.6000000000000001,-2.0,0.30000000000000004,10.3,0.7,2.2,1.3,16
319,5405.0,-0.1,-0.1,0.6000000000000001,-1.9000000000000001,0.2,10.200000000000001,7.6,1.9,1.3,16
320,5418.0,0.0,-0.1,0.5,-1.9000000000000001,0.2,10.100000000000001,7.8,1.5,-0.7,16
321,5438.0,-0.30000000000000004,0.1,0.5,-2.2,0.5,10.100000000000001,7.200000000000001,1.1,-2.6,16
322,5462.0,-0.7000000000000001,0.30000000000000004,0.4,-2.7,0.7000000000000001,10.0,9.3,3.8,-0.2,16
323,5468.0,-0.9,0.30000000000000004,0.30000000000000004,-2.8000000000000003,0.7000000000000001,9.9,10.4,6.500000000000001,1.9,16
324,5489.0,-1.5,0.2,0.0,-3.7,0.7000000000000001,9.600000000000001,9.899999999999999,11.2,8.4,16
325,5505.0,-1.6,0.1,-0.2,-3.9000000000000004,0.6000000000000001,9.3,7.400000000000001,10.700000000000001,11.6,16
326,5518.0,-1.2000000000000002,0.0,-0.4,-3.8000000000000003,0.6000000000000001,9.1,-2.8,9.0,18.700000000000003,16
327,5535.0,-0.4,-0.2,0.30000000000000004,-3.1,0.30000000000000004,9.700000000000001,-18.700000000000003,14.100000000000001,24.200000000000003,16
328,5559.0,0.1,-0.8,2.2,-2.6,-0.30000000000000004,11.600000000000001,-28.0,9.3,20.7,16
329,5568.0,-0.1,-0.9,2.3000000000000003,-2.8000000000000003,-0.5,11.8,-25.900000000000002,1.8000000000000003,18.6,16
330,5586.0,0.0,-0.7000000000000001,2.0,-2.7,-0.4,11.4,-10.200000000000001,-23.800000000000004,11.5,16
331,5601.0,-0.30000000000000004,-0.1,0.30000000000000004,-2.9000000000000004,0.2,9.8,0.30000000000000004,-34.400000000000006,10.8,16
332,5620.0,-0.30000000000000004,0.1,-1.1,-2.8000000000000003,0.5,8.4,7.6,-35.0,12.4,16
333,5635.0,-0.30000000000000004,0.30000000000000004,-2.2,-2.7,0.7000000000000001,7.300000000000001,4.2,-26.000000000000004,14.600000000000001,16
334,5658.0,-0.2,0.2,-2.1,-2.5,0.6000000000000001,7.5,-10.4,-0.1,15.399999999999999,16
335,5669.0,-0.30000000000000004,0.0,-1.4000000000000001,-2.6,0.5,8.200000000000001,-15.6,8.600000000000001,15.000000000000002,16
336,5688.0,-0.5,-0.2,0.1,-2.9000000000000004,0.2,9.600000000000001,-17.7,17.1,14.400000000000002,16
337,5702.0,-0.7000000000000001,-0.4,1.2000000000000002,-3.1,-0.1,10.700000000000001,-12.600000000000001,18.700000000000003,12.7,16
338,5718.0,-0.9,-0.5,1.4000000000000001,-3.3000000000000003,-0.2,10.9,-6.9,10.700000000000001,10.700000000000001,16
339,5735.0,-0.7000000000000001,-0.2,0.6000000000000001,-3.2,0.0,10.5,-2.1,-4.2,7.6,16
340,5758.0,-0.6000000000000001,0.1,-0.2,-3.1,0.4,9.200000000000001,-4.300000000000001,-7.1000000000000005,7.9,16
341,5780.0,-0.2,0.2,-0.8,-2.7,0.4,8.700000000000001,-13.3,-5.500000000000001,7.6,16
342,5785.0,-0.1,0.1,-0.6000000000000001,-2.5,0.4,8.9,-16.5,-1.0,6.300000000000001,16
343,5801.0,-0.2,0.0,-0.1,-2.7,0.2,9.3,-17.300000000000004,6.9,3.7000000000000006,16
344,5818.0,-0.5,0.0,0.30000000000000004,-3.0,0.2,9.8,-13.000000000000002,10.5,0.7,16
345,5835.0,-0.8,0.1,0.4,-3.3000000000000003,0.30000000000000004,9.9,-5.6,8.600000000000001,-0.8,16
346,5851.0,-0.7000000000000001,0.30000000000000004,0.2,-3.3000000000000003,0.5,9.600000000000001,2.5,4.1,-0.6000000000000001,16
347,5868.0,-0.6000000000000001,0.30000000000000004,-0.1,-3.1,0.5,9.3,4.9,2.9,-0.6000000000000001,16
348,5887.0,-0.4,0.6000000000000001,-1.1,-2.9000000000000004,0.8,8.3,4.300000000000001,1.9,-1.4,16
349,5902.0,-0.30000000000000004,0.8,-1.5,-2.8000000000000003,0.9,8.0,-1.0,5.4,-1.2000000000000002,16
350,5918.0,-0.30000000000000004,0.9,-1.4000000000000001,-2.9000000000000004,1.1,8.0,-6.8,6.8,-0.1,16
351,5942.0,0.2,0.8,-0.6000000000000001,-2.6,1.1,8.8,-14.800000000000002,7.0,2.7,16
352,5951.0,0.2,0.8,-0.4,-2.5,1.1,9.0,-14.900000000000002,6.4,2.6,16
353,5970.0,0.4,0.8,-0.2,-2.4000000000000004,1.0,9.200000000000001,-13.5,6.1000000000000005,1.5,16
354,5985.0,0.4,0.7000000000000001,0.0,-2.4000000000000004,1.1,9.4,-9.600000000000001,4.5,-0.2,16
355,6001.0,0.4,0.6000000000000001,0.0,-2.4000000000000004,1.2000000000000002,9.4,-5.500000000000001,3.6000000000000005,-0.2,16
356,6020.0,0.4,0.4,0.0,-2.3000000000000003,1.2000000000000002,9.4,-2.8,4.1,-0.7,16
357,6043.0,0.2,0.30000000000000004,0.2,-2.4000000000000004,1.3,9.700000000000001,-1.7,3.3000000000000007,-2.2,16
358,6051.0,0.2,0.30000000000000004,0.30000000000000004,-2.4000000000000004,1.3,9.700000000000001,-1.4,2.4000000000000004,-2.1,16
359,6069.0,0.0,0.30000000000000004,0.4,-2.5,1.4000000000000001,9.8,-1.6,0.7,-1.3,16
360,6085.0,0.2,0.1,0.8,-2.3000000000000003,1.2000000000000002,10.3,-2.4000000000000004,-0.30000000000000004,-1.8000000000000003,16
361,6101.0,0.1,-0.1,1.1,-2.4000000000000004,1.1,10.5,-0.6000000000000001,-3.9,-3.3000000000000007,16
362,6118.0,0.2,-0.2,1.3,-2.2,0.9,10.8,2.3,-8.700000000000001,-4.5,16
363,6137.0,0.2,-0.4,1.3,-2.2,0.7000000000000001,10.700000000000001,8.100000000000001,-16.200000000000003,-7.500000000000001,16
364,6152.0,0.2,-0.4,0.7000000000000001,-2.2,0.7000000000000001,10.100000000000001,13.100000000000001,-23.099999999999998,-9.3,16
365,6168.0,0.2,-0.4,0.0,-2.1,0.7000000000000001,9.4,14.800000000000002,-22.8,-10.700000000000001,16
366,6185.0,0.1,-0.30000000000000004,-0.30000000000000004,-2.1,0.8,9.200000000000001,11.6,-11.000000000000002,-11.5,16
367,6202.0,-0.2,-0.5,0.0,-2.4000000000000004,0.7000000000000001,9.4,8.4,2.5,-10.200000000000001,16
368,6220.0,-0.30000000000000004,-1.0,1.1,-2.6,0.2,10.600000000000001,5.0,13.8,-8.0,16
369,6235.0,-0.2,-1.2000000000000002,1.5,-2.5,0.0,10.9,5.500000000000001,14.900000000000002,-8.2,16
370,6262.0,0.0,-1.8,1.8,-2.4000000000000004,-0.6000000000000001,11.200000000000001,14.5,4.9,-14.700000000000001,16
371,6268.0,0.1,-1.8,1.5,-2.3000000000000003,-0.5,10.9,18.0,-1.4,-17.200000000000003,16
372,6287.0,0.4,-1.6,0.9,-2.0,-0.30000000000000004,10.3,22.1,-4.2,-19.400000000000002,16
373,6304.0,0.6000000000000001,-1.5,0.4,-1.8,-0.1,9.8,24.599999999999998,1.7,-20.599999999999998,16
374,6318.0,0.8,-1.5,0.30000000000000004,-1.6,-0.1,9.700000000000001,24.200000000000003,12.4,-21.200000000000003,16
375,6335.0,0.8,-1.6,0.5,-1.7000000000000002,-0.2,9.9,22.2,22.9,-23.099999999999998,16
376,6351.0,0.5,-1.7000000000000002,0.9,-2.0,-0.30000000000000004,10.3,20.1,25.0,-24.7,16
377,6368.0,0.2,-1.8,1.1,-2.4000000000000004,-0.30000000000000004,10.5,18.700000000000003,21.6,-25.1,16
378,6386.0,0.0,-1.8,0.4,-2.7,-0.30000000000000004,10.100000000000001,13.8,7.500000000000001,-23.3,16
379,6402.0,0.1,-1.6,-0.2,-2.6,-0.1,9.1,7.1000000000000005,0.4,-22.1,16
380,6418.0,0.2,-1.4000000000000001,-0.5,-2.5,0.1,8.8,-1.4,0.0,-19.5,16
381,6436.0,0.30000000000000004,-1.3,-0.4,-2.4000000000000004,0.1,8.9,-4.9,1.9,-16.3,16
382,6451.0,0.6000000000000001,-1.4000000000000001,-0.1,-2.2,0.0,9.3,-4.0,5.1000000000000005,-12.600000000000001,16
383,6471.0,0.7000000000000001,-1.5,0.1,-2.0,-0.1,9.4,-2.2,6.4,-11.700000000000001,16
384,6485.0,0.6000000000000001,-1.5,0.2,-2.1,-0.2,9.5,5.7,3.9,-10.600000000000001,16
385,6502.0,0.4,-0.6000000000000001,-0.30000000000000004,-2.0,0.0,9.200000000000001,7.500000000000001,-2.8,-10.0,16
386,6520.0,0.30000000000000004,-0.2,-0.6000000000000001,-2.0,0.1,8.9,6.2,-5.8,-10.1,16
387,6535.0,0.0,0.1,-0.9,-2.2,0.2,8.6,2.9,-7.1000000000000005,-8.899999999999999,16
388,6552.0,-0.1,0.30000000000000004,-1.1,-2.4000000000000004,0.4,8.4,-0.2,-7.200000000000001,-5.9,16
389,6569.0,-0.2,0.5,-1.0,-2.5,0.6000000000000001,8.5,-3.4,-4.7,-0.30000000000000004,16
390,6585.0,0.0,0.5,-0.9,-2.3000000000000003,0.7000000000000001,8.700000000000001,-6.0,0.30000000000000004,5.300000000000001,16
391,6603.0,0.1,0.1,0.2,-2.2,0.30000000000000004,9.700000000000001,-9.8,8.600000000000001,11.4,16
392,6618.0,0.0,-0.1,1.1,-2.3000000000000003,0.0,10.600000000000001,-9.100000000000001,6.300000000000001,11.900000000000002,16
393,6634.0,-0.2,-0.2,1.8,-2.5,-0.1,11.4,-5.0,2.2,11.4,16
394,6651.0,-0.4,-0.1,1.9000000000000001,-2.8000000000000003,0.0,11.4,2.3,-7.500000000000001,11.700000000000001,16
395,6668.0,-0.2,0.0,1.2000000000000002,-2.5,0.1,10.8,5.8,-18.200000000000003,12.299999999999999,16
396,6684.0,0.1,0.2,0.6000000000000001,-2.2,0.30000000000000004,10.100000000000001,6.2,-20.900000000000002,12.5,16
397,6701.0,-0.1,0.30000000000000004,0.0,-2.3000000000000003,0.4,9.600000000000001,4.1,-17.6,12.7,16
398,6718.0,-1.1,0.30000000000000004,-0.5,-2.8000000000000003,0.5,9.3,0.7,-8.100000000000001,16.4,16
399,6736.0,-1.4000000000000001,0.30000000000000004,-0.5,-3.5,0.6000000000000001,9.0,-3.2,-9.100000000000001,20.3,16
400,6751.0,-0.9,0.4,-0.4,-3.2,0.7000000000000001,9.1,-19.6,-12.8,31.3,16
401,6774.0,-0.2,0.2,0.30000000000000004,-2.5,0.5,9.8,-37.6,-12.0,36.6,16
402,6785.0,0.2,-0.1,1.7000000000000002,-2.1,0.0,11.200000000000001,-47.3,-12.5,35.1,16
403,6801.0,0.0,-0.4,2.6,-2.2,-0.4,12.100000000000001,-44.2,-21.500000000000004,30.599999999999998,16
404,6818.0,0.0,-0.4,2.2,-2.1,-0.4,11.8,-31.400000000000002,-36.2,24.8,16
405,6835.0,-0.1,-0.30000000000000004,1.0,-2.2,-0.4,10.600000000000001,-20.0,-47.7,18.900000000000002,16
406,6851.0,-0.2,0.0,0.0,-2.1,-0.1,9.600000000000001,-8.100000000000001,-50.3,13.700000000000001,16
407,6868.0,-0.5,0.6000000000000001,-0.8,-2.3000000000000003,0.4,8.9,1.5,-45.400000000000006,11.900000000000002,16
408,6897.0,-0.7000000000000001,0.9,-1.5,-2.4000000000000004,0.8,8.1,13.3,-11.2,17.799999999999997,16
409,6903.0,-0.8,0.7000000000000001,-1.6,-2.4000000000000004,0.7000000000000001,8.1,13.3,-11.2,17.799999999999997,16
410,6918.0,-0.8,0.7000000000000001,-1.5,-2.5,0.6000000000000001,8.1,6.9,1.2000000000000002,18.200000000000003,16
411,6936.0,-0.9,0.6000000000000001,-0.8,-2.6,0.6000000000000001,8.9,-11.1,7.500000000000001,15.5,16
412,6951.0,-1.1,0.7000000000000001,-0.1,-2.8000000000000003,0.7000000000000001,9.5,-19.1,7.400000000000001,15.000000000000002,16
413,6969.0,-1.2000000000000002,0.8,0.2,-2.9000000000000004,0.7000000000000001,9.8,-21.900000000000002,6.4,15.6,16
414,6991.0,-0.7000000000000001,0.6000000000000001,0.8,-2.4000000000000004,0.5,10.4,-21.6,-3.7000000000000006,14.900000000000002,16
415,7002.0,-0.6000000000000001,0.6000000000000001,0.7000000000000001,-2.3000000000000003,0.5,10.4,-20.5,-6.8,13.200000000000003,16
416,7021.0,-0.5,0.7000000000000001,0.4,-2.2,0.5,10.0,-17.7,-12.100000000000001,9.600000000000001,16
417,7045.0,-0.5,1.0,-0.2,-2.2,0.7000000000000001,9.5,-3.7000000000000006,-9.899999999999999,5.9,16
418,7052.0,-0.4,1.0,-0.4,-2.1,0.8,9.3,-3.7000000000000006,-9.899999999999999,5.9,16
419,7077.0,-0.4,1.0,-0.5,-2.1,0.8,9.1,7.6,3.4,4.7,16
420,7085.0,-0.5,1.1,-0.7000000000000001,-2.2,0.8,9.0,14.900000000000002,10.200000000000001,4.800000000000001,16
421,7101.0,-0.7000000000000001,1.1,-0.9,-2.4000000000000004,0.9,8.700000000000001,17.200000000000003,10.700000000000001,6.0,16
422,7118.0,-0.5,1.0,-0.9,-2.2,0.9,8.8,15.100000000000001,10.0,6.8,16
423,7134.0,-0.4,0.9,-0.9,-2.1,0.9,8.700000000000001,12.9,8.600000000000001,6.600000000000001,16
424,7160.0,-0.1,0.7000000000000001,-0.9,-2.0,1.0,8.700000000000001,-2.2,-5.6,3.0,16
425,7168.0,0.1,0.8,-0.9,-1.9000000000000001,1.0,8.700000000000001,-6.600000000000001,-7.500000000000001,2.6,16
426,7185.0,0.4,0.8,-0.6000000000000001,-1.5,1.1,9.0,-11.1,-3.8,2.1,16
427,7202.0,0.6000000000000001,0.7000000000000001,-0.1,-1.3,1.0,9.600000000000001,-12.200000000000001,2.4000000000000004,0.1,16
428,7218.0,0.7000000000000001,0.6000000000000001,0.6000000000000001,-1.3,0.8,10.200000000000001,-8.4,5.4,-3.3000000000000007,16
429,7235.0,0.5,0.2,1.0,-1.3,0.7000000000000001,10.5,2.7,2.0,-10.299999999999999,16
430,7251.0,0.4,0.2,1.2000000000000002,-1.3,0.7000000000000001,10.8,6.699999999999999,1.6,-12.4,16
431,7273.0,0.1,0.1,1.1,-1.6,0.7000000000000001,10.700000000000001,20.7,-3.8,-16.1,16
432,7285.0,0.2,0.0,0.4,-1.5,0.7000000000000001,10.0,24.400000000000002,-16.6,-18.5,16
433,7302.0,0.4,0.1,-0.5,-1.3,0.8,9.1,21.7,-26.6,-20.7,16
434,7318.0,0.4,0.2,-1.2000000000000002,-1.2000000000000002,0.9,8.4,12.9,-29.600000000000005,-21.6,16
435,7344.0,0.6000000000000001,-0.2,-1.3,-0.9,0.5,8.3,-3.7000000000000006,-17.1,-21.500000000000004,16
436,7351.0,0.6000000000000001,-0.4,-0.9,-0.8,0.30000000000000004,8.700000000000001,-7.8,-8.0,-22.2,16
437,7368.0,0.5,-0.9,0.4,-1.0,-0.2,10.0,-11.6,16.6,-24.900000000000002,16
438,7385.0,0.1,-1.3,2.0,-1.4000000000000001,-0.6000000000000001,11.700000000000001,-7.699999999999999,33.2,-27.800000000000004,16
439,7401.0,-0.2,-1.4000000000000001,3.5,-1.8,-0.7000000000000001,13.100000000000001,6.0,43.6,-29.700000000000006,16
440,7418.0,-0.5,-1.7000000000000002,3.8000000000000003,-2.3000000000000003,-1.0,13.4,29.300000000000004,32.300000000000004,-31.6,16
441,7435.0,-0.6000000000000001,-1.6,2.9000000000000004,-2.5,-0.8,12.5,37.9,12.0,-33.300000000000004,16
442,7452.0,-0.4,-1.1,1.6,-2.3000000000000003,-0.30000000000000004,11.200000000000001,39.50000000000001,0.8,-31.799999999999997,16
443,7471.0,-0.2,-0.7000000000000001,0.2,-2.1,0.2,9.8,32.0,1.3,-28.0,16
444,7485.0,0.2,-0.7000000000000001,-0.6000000000000001,-1.7000000000000002,0.30000000000000004,9.0,13.700000000000001,5.0,-23.5,16
445,7503.0,0.5,-0.8,-0.30000000000000004,-1.4000000000000001,0.2,9.200000000000001,-2.5,4.300000000000001,-21.300000000000004,16
446,7518.0,0.8,-1.0,0.1,-1.2000000000000002,-0.1,9.600000000000001,-12.7,-1.5,-20.599999999999998,16
447,7535.0,1.1,-1.2000000000000002,0.1,-0.9,-0.30000000000000004,9.700000000000001,-14.400000000000002,-7.699999999999999,-21.6,16
448,7560.0,1.4000000000000001,-1.2000000000000002,0.1,-0.5,-0.4,9.700000000000001,-4.9,-5.8,-26.200000000000003,16
449,7568.0,1.3,-1.1,0.0,-0.6000000000000001,-0.30000000000000004,9.600000000000001,6.9,2.6,-28.0,16
450,7586.0,1.0,-1.0,-0.1,-0.9,-0.2,9.5,15.899999999999999,5.1000000000000005,-28.3,16
451,7602.0,0.9,-0.8,-0.30000000000000004,-1.0,0.0,9.200000000000001,21.200000000000003,2.2,-28.0,16
452,7618.0,0.9,-0.7000000000000001,-0.7000000000000001,-1.1,0.2,8.9,20.3,-0.9000000000000001,-26.799999999999997,16
453,7634.0,0.7000000000000001,-0.5,-1.2000000000000002,-1.2000000000000002,0.30000000000000004,8.4,12.5,-4.4,-25.1,16
454,7651.0,0.5,-0.30000000000000004,-1.3,-1.4000000000000001,0.5,8.3,2.0,-8.8,-22.8,16
455,7670.0,0.4,-0.2,-0.7000000000000001,-1.5,0.7000000000000001,8.9,-6.300000000000001,-7.6,-17.6,16
456,7685.0,0.30000000000000004,-0.4,-0.4,-1.6,0.5,9.200000000000001,-7.699999999999999,-7.0,-11.8,16
457,7701.0,0.4,-0.5,-0.1,-1.5,0.30000000000000004,9.5,-6.699999999999999,-7.200000000000001,-8.8,16
458,7721.0,0.4,-0.4,0.30000000000000004,-1.4000000000000001,0.30000000000000004,10.0,-1.6,-7.0,-6.8,16
459,7735.0,0.4,-0.4,0.30000000000000004,-1.4000000000000001,0.30000000000000004,9.9,0.6000000000000001,-7.1000000000000005,-6.0,16
460,7753.0,0.30000000000000004,-0.2,0.1,-1.3,0.4,9.700000000000001,6.1000000000000005,-7.500000000000001,-3.9,16
461,7768.0,0.1,0.0,0.0,-1.4000000000000001,0.5,9.700000000000001,6.2,-5.6,-3.0,16
462,7785.0,-0.1,0.2,0.2,-1.5,0.6000000000000001,9.9,3.2,-1.7,-1.9,16
463,7801.0,-0.30000000000000004,0.30000000000000004,0.7000000000000001,-1.8,0.8,10.4,1.4,-0.30000000000000004,0.30000000000000004,16
464,7819.0,-0.4,0.2,0.8,-1.9000000000000001,0.7000000000000001,10.5,2.2,-4.800000000000001,3.4,16
465,7835.0,-0.2,0.1,0.7000000000000001,-1.6,0.6000000000000001,10.3,2.9,-12.9,5.1000000000000005,16
466,7851.0,-0.2,0.1,0.30000000000000004,-1.6,0.6000000000000001,10.0,1.9,-15.6,5.0,16
467,7872.0,-0.7000000000000001,0.30000000000000004,0.2,-2.1,0.8,9.9,0.2,-11.4,6.600000000000001,16
468,7885.0,-1.4000000000000001,0.2,0.0,-2.9000000000000004,0.8,9.700000000000001,-1.3,-2.6,12.4,16
469,7908.0,-1.5,0.0,0.4,-3.1,0.6000000000000001,10.100000000000001,-11.900000000000002,11.000000000000002,28.200000000000003,16
470,7918.0,-0.5,-0.7000000000000001,1.4000000000000001,-2.2,-0.2,11.100000000000001,-21.7,17.300000000000004,34.7,16
471,7935.0,-0.1,-1.5,2.3000000000000003,-1.8,-1.0,12.0,-26.200000000000003,11.700000000000001,32.300000000000004,16
472,7958.0,-0.2,-1.6,2.1,-1.9000000000000001,-1.2000000000000002,11.700000000000001,-21.8,-19.400000000000002,16.900000000000002,16
473,7968.0,-0.4,-1.3,1.5,-2.1,-0.9,11.200000000000001,-17.9,-26.700000000000003,13.100000000000001,16
474,7986.0,-1.1,-0.6000000000000001,0.30000000000000004,-2.7,-0.30000000000000004,10.0,-8.0,-41.900000000000006,11.3,16
475,8001.0,-1.1,-0.1,-0.5,-2.6,0.2,9.200000000000001,2.6,-40.800000000000004,16.1,16
476,8018.0,-0.8,-0.1,-1.3,-2.2,0.30000000000000004,8.4,8.700000000000001,-27.6,19.6,16
477,8042.0,-0.6000000000000001,-0.2,-1.7000000000000002,-1.9000000000000001,0.2,8.0,5.1000000000000005,1.7,19.1,16
478,8051.0,-0.7000000000000001,-0.2,-1.6,-2.1,0.2,8.200000000000001,2.0,8.2,18.4,16
479,8082.0,-0.9,-0.30000000000000004,-0.1,-2.3000000000000003,0.1,9.600000000000001,-7.9,14.300000000000002,16.200000000000003,16
480,8084.0,-0.9,-0.30000000000000004,-0.1,-2.3000000000000003,0.1,9.600000000000001,-7.9,14.300000000000002,16.200000000000003,16
481,8101.0,-0.6000000000000001,-0.30000000000000004,0.1,-2.1,0.1,9.8,-8.600000000000001,6.1000000000000005,15.299999999999999,16
482,8118.0,-0.4,-0.1,-0.30000000000000004,-1.9000000000000001,0.2,9.4,-9.899999999999999,1.3,13.8,16
483,8137.0,0.1,0.1,-0.5,-1.6,0.4,9.200000000000001,-11.900000000000002,2.2,12.600000000000001,16
484,8151.0,0.30000000000000004,0.30000000000000004,-0.5,-1.5,0.5,9.1,-13.200000000000003,7.0,11.000000000000002,16
485,8168.0,0.4,0.4,-0.30000000000000004,-1.5,0.6000000000000001,9.3,-12.600000000000001,10.600000000000001,10.0,16
486,8189.0,0.4,0.2,0.2,-1.4000000000000001,0.5,9.9,-6.500000000000001,13.8,6.699999999999999,16
487,8201.0,0.30000000000000004,0.2,0.2,-1.5,0.5,9.8,-2.9,12.5,4.7,16
488,8220.0,-0.1,0.30000000000000004,0.1,-1.9000000000000001,0.7000000000000001,9.700000000000001,4.9,6.4,1.2000000000000002,16
489,8235.0,-0.2,0.6000000000000001,-0.2,-2.0,1.0,9.5,8.600000000000001,2.8,1.8000000000000003,16
490,8258.0,-0.30000000000000004,0.7000000000000001,-0.4,-2.1,1.1,9.200000000000001,8.899999999999999,3.0,4.0,16
491,8268.0,-0.30000000000000004,0.6000000000000001,-0.8,-2.1,1.1,8.9,5.500000000000001,0.8,6.699999999999999,16
492,8285.0,-0.1,0.4,-0.9,-2.0,1.0,8.700000000000001,-0.2,-4.4,7.8,16
493,8301.0,0.1,0.30000000000000004,-1.0,-1.8,1.1,8.6,-4.5,-6.500000000000001,8.700000000000001,16
494,8318.0,0.30000000000000004,0.30000000000000004,-0.9,-1.6,1.0,8.700000000000001,-6.9,-4.2,9.700000000000001,16
495,8339.0,0.7000000000000001,0.1,-0.7000000000000001,-1.2000000000000002,0.9,8.9,-6.600000000000001,-0.5,9.2,16
496,8351.0,0.8,-0.1,-0.5,-1.0,0.7000000000000001,9.1,-4.4,3.8,5.6,16
497,8378.0,0.4,0.1,0.2,-1.3,0.9,9.8,3.9,4.9,-2.3,16
498,8385.0,0.4,0.1,0.2,-1.3,0.9,9.8,3.9,4.9,-2.3,16
499,8402.0,0.1,0.1,0.6000000000000001,-1.4000000000000001,1.0,10.3,9.700000000000001,6.500000000000001,-5.1000000000000005,16
500,8418.0,0.0,0.1,0.9,-1.5,1.0,10.600000000000001,11.900000000000002,7.699999999999999,-7.0,16
501,8435.0,-0.2,-0.1,1.1,-1.8,0.8,10.700000000000001,14.0,3.7000000000000006,-9.2,16
502,8464.0,-0.1,-0.4,1.1,-1.6,0.5,10.700000000000001,15.299999999999999,-13.000000000000002,-11.900000000000002,16
503,8471.0,0.1,-0.5,0.9,-1.5,0.5,10.5,14.800000000000002,-18.5,-12.8,16
504,8488.0,0.30000000000000004,-0.5,0.2,-1.2000000000000002,0.5,9.8,12.299999999999999,-30.599999999999998,-16.700000000000003,16
505,8501.0,0.2,-0.5,-0.7000000000000001,-1.2000000000000002,0.5,9.0,7.1000000000000005,-37.400000000000006,-20.1,16
506,8518.0,0.2,-0.2,-0.9,-1.1,0.8,8.700000000000001,0.5,-28.800000000000004,-21.500000000000004,16
507,8535.0,0.1,-0.1,-0.4,-1.2000000000000002,0.9,9.3,-2.6,-4.2,-18.900000000000002,16
508,8551.0,-0.2,-0.5,0.9,-1.5,0.4,10.5,-0.8,25.8,-14.100000000000001,16
509,8569.0,0.1,-1.6,2.9000000000000004,-1.3,-0.6000000000000001,12.600000000000001,9.5,46.0,-16.1,16
510,8588.0,-0.2,-1.8,3.4000000000000004,-1.8,-0.8,13.0,18.4,35.9,-23.6,16
511,8601.0,-0.7000000000000001,-1.4000000000000001,3.0,-2.4000000000000004,-0.4,12.600000000000001,28.700000000000003,11.000000000000002,-28.700000000000003,16
512,8618.0,-0.8,-0.9,1.8,-2.5,0.2,11.4,35.0,-4.0,-26.000000000000004,16
513,8634.0,-0.5,-0.7000000000000001,0.2,-2.2,0.5,9.8,31.400000000000002,-5.2,-19.200000000000003,16
514,8656.0,0.2,-0.8,-0.5,-1.5,0.4,9.1,6.0,12.200000000000001,-14.0,16
515,8668.0,0.2,-1.0,-0.2,-1.5,0.30000000000000004,9.4,-1.9,15.8,-13.200000000000003,16
516,8685.0,0.4,-1.4000000000000001,1.0,-1.4000000000000001,-0.1,10.600000000000001,-11.700000000000001,16.700000000000003,-13.5,16
517,8702.0,0.5,-1.6,1.6,-1.3,-0.4,11.100000000000001,-12.9,6.699999999999999,-17.200000000000003,16
518,8718.0,0.6000000000000001,-1.6,1.5,-1.2000000000000002,-0.4,11.0,-6.699999999999999,-4.5,-21.0,16
519,8735.0,0.7000000000000001,-1.4000000000000001,0.8,-1.1,-0.2,10.4,1.6,-9.3,-23.800000000000004,16
520,8751.0,0.6000000000000001,-1.2000000000000002,-0.1,-1.2000000000000002,0.0,9.5,10.200000000000001,-13.399999999999999,-25.6,16
521,8768.0,0.7000000000000001,-0.9,-0.8,-1.1,0.2,8.700000000000001,14.800000000000002,-12.200000000000001,-25.200000000000003,16
522,8785.0,0.5,-0.6000000000000001,-1.6,-1.2000000000000002,0.6000000000000001,7.9,16.200000000000003,-2.4000000000000004,-22.5,16
523,8801.0,0.30000000000000004,-0.4,-1.8,-1.5,0.8,7.800000000000001,12.8,2.4000000000000004,-18.700000000000003,16
524,8818.0,0.1,-0.4,-1.7000000000000002,-1.7000000000000002,0.8,7.800000000000001,8.3,3.7000000000000006,-14.300000000000002,16
525,8835.0,0.0,-0.4,-1.5,-1.7000000000000002,0.8,8.0,2.9,2.7,-9.5,16
526,8857.0,-0.1,-0.4,-0.9,-1.9000000000000001,0.9,8.6,-2.9,3.7000000000000006,-1.9,16
527,8869.0,-0.2,-0.30000000000000004,-0.7000000000000001,-2.0,0.9,8.9,-4.1,5.1000000000000005,0.9000000000000001,16
528,8887.0,-0.30000000000000004,-0.4,-0.2,-2.1,0.9,9.3,-5.0,4.7,9.8,16
529,8905.0,-0.1,-0.6000000000000001,-0.1,-1.9000000000000001,0.6000000000000001,9.5,-5.4,1.5,14.300000000000002,16
530,8921.0,0.2,-0.7000000000000001,0.0,-1.6,0.5,9.600000000000001,-6.8,-0.5,16.700000000000003,16
531,8941.0,0.2,-0.7000000000000001,0.7000000000000001,-1.5,0.5,9.9,-6.1000000000000005,2.4000000000000004,18.8,16
532,8952.0,0.1,-0.7000000000000001,0.8,-1.7000000000000002,0.4,10.4,-4.4,2.9,20.0,16
533,8968.0,0.1,-0.8,1.0,-1.7000000000000002,0.2,10.600000000000001,-1.0,3.4,21.1,16
534,8985.0,0.30000000000000004,-0.6000000000000001,1.0,-1.4000000000000001,0.0,10.700000000000001,2.5,3.4,18.0,16
535,9001.0,0.0,-0.30000000000000004,1.2000000000000002,-1.6,0.30000000000000004,10.8,6.300000000000001,6.1000000000000005,15.000000000000002,16
536,9018.0,-0.5,0.0,1.1,-2.1,0.6000000000000001,10.8,12.7,9.600000000000001,15.6,16
537,9043.0,-1.1,0.2,0.2,-2.8000000000000003,0.8,9.8,16.3,13.200000000000003,21.8,16
538,9065.0,-1.4000000000000001,0.30000000000000004,-0.2,-3.1,0.9,9.5,2.6,18.8,33.0,16
539,9069.0,-1.4000000000000001,0.30000000000000004,-0.2,-3.1,0.9,9.5,2.6,18.8,33.0,16
540,9085.0,-0.9,-0.30000000000000004,0.6000000000000001,-2.8000000000000003,0.4,10.200000000000001,-21.500000000000004,16.6,43.2,16
541,9101.0,-0.30000000000000004,-0.9,1.7000000000000002,-2.2,-0.2,11.3,-31.9,6.9,42.900000000000006,16
542,9118.0,-0.1,-1.1,1.9000000000000001,-2.0,-0.6000000000000001,11.5,-32.8,-14.400000000000002,37.50000000000001,16
543,9134.0,0.2,-1.1,1.3,-1.7000000000000002,-0.5,10.9,-27.6,-30.3,32.2,16
544,9159.0,0.2,-0.9,-0.4,-1.5,-0.4,9.200000000000001,-16.3,-42.900000000000006,23.0,16
545,9175.0,0.2,-0.6000000000000001,-1.0,-1.5,-0.2,8.700000000000001,-8.3,-41.0,18.3,16
546,9185.0,0.2,-0.5,-1.1,-1.4000000000000001,-0.1,8.5,-5.0,-36.5,17.0,16
547,9201.0,0.1,-0.2,-1.4000000000000001,-1.4000000000000001,0.2,8.3,-0.30000000000000004,-18.5,14.800000000000002,16
548,9218.0,-0.30000000000000004,0.0,-1.2000000000000002,-1.8,0.4,8.5,1.8000000000000003,6.9,14.200000000000001,16
549,9235.0,-0.6000000000000001,-0.1,-0.8,-2.1,0.4,8.9,-1.3,22.5,13.700000000000001,16
550,9268.0,-0.7000000000000001,-0.1,0.5,-2.4000000000000004,0.30000000000000004,10.100000000000001,-14.800000000000002,15.899999999999999,10.200000000000001,16
551,9270.0,-0.7000000000000001,-0.1,0.5,-2.4000000000000004,0.30000000000000004,10.100000000000001,-14.800000000000002,15.899999999999999,10.200000000000001,16
552,9288.0,-0.7000000000000001,0.2,0.5,-2.4000000000000004,0.5,10.200000000000001,-22.1,-4.800000000000001,5.6,16
553,9301.0,-0.5,0.5,0.1,-2.2,0.8,9.700000000000001,-22.700000000000003,-11.5,5.0,16
554,9323.0,-0.4,0.9,-0.4,-2.0,1.0,9.4,-17.300000000000004,-5.4,4.300000000000001,16
555,9334.0,-0.4,1.0,-0.30000000000000004,-2.0,1.2000000000000002,9.3,-14.400000000000002,-3.4,4.300000000000001,16
556,9351.0,-0.4,1.1,-0.6000000000000001,-2.0,1.3,9.1,-8.600000000000001,-0.8,5.1000000000000005,16
557,9379.0,-0.1,1.1,-1.1,-1.9000000000000001,1.4000000000000001,8.6,-6.300000000000001,-1.0,4.1,16
558,9385.0,-0.1,1.1,-1.1,-1.9000000000000001,1.4000000000000001,8.6,-6.300000000000001,-1.0,4.1,16
559,9401.0,0.0,1.1,-1.2000000000000002,-1.8,1.5,8.5,-7.0,1.9,4.300000000000001,16
560,9418.0,0.0,0.8,-0.9,-1.9000000000000001,1.5,8.700000000000001,-7.8,5.2,4.7,16
561,9435.0,0.0,0.7000000000000001,-0.8,-2.0,1.5,8.8,-7.9,5.300000000000001,6.500000000000001,16
562,9454.0,0.1,0.4,-0.7000000000000001,-1.9000000000000001,1.4000000000000001,8.9,-9.100000000000001,3.1,7.500000000000001,16
563,9468.0,0.2,0.2,-0.7000000000000001,-1.8,1.3,8.9,-11.1,1.1,7.300000000000001,16
564,9484.0,0.4,0.1,-0.5,-1.6,1.2000000000000002,9.0,-12.7,1.4,6.4,16
565,9502.0,0.6000000000000001,0.0,-0.1,-1.4000000000000001,1.1,9.5,-13.200000000000003,2.1,3.8,16
566,9519.0,0.8,-0.1,0.4,-1.2000000000000002,1.0,10.0,-11.6,2.6,0.2,16
567,9535.0,0.8,-0.1,0.9,-1.2000000000000002,1.0,10.5,-6.8,1.8000000000000003,-5.1000000000000005,16
568,9551.0,0.7000000000000001,0.0,1.3,-1.2000000000000002,1.1,10.9,0.6000000000000001,0.4,-10.1,16
569,9568.0,0.5,0.0,1.4000000000000001,-1.5,1.1,11.0,6.9,-1.4,-13.900000000000002,16
570,9585.0,0.2,-0.1,1.3,-1.7000000000000002,1.0,10.9,14.900000000000002,-7.9,-19.0,16
571,9601.0,0.2,-0.2,1.1,-1.7000000000000002,0.9,10.600000000000001,18.900000000000002,-12.5,-21.7,16
572,9618.0,0.0,-0.30000000000000004,0.30000000000000004,-1.9000000000000001,0.8,9.8,20.8,-17.200000000000003,-22.9,16
573,9638.0,-0.2,-0.4,-0.2,-2.0,0.9,9.4,18.3,-12.4,-21.1,16
574,9653.0,-0.4,-0.30000000000000004,-0.2,-2.2,0.8,9.4,13.3,-2.6,-17.400000000000002,16
575,9668.0,-0.30000000000000004,-0.6000000000000001,0.6000000000000001,-2.1,0.5,10.100000000000001,6.4,12.8,-12.0,16
576,9687.0,0.1,-1.1,2.1,-1.7000000000000002,0.0,11.600000000000001,3.8,26.400000000000006,-9.4,16
577,9701.0,0.30000000000000004,-1.7000000000000002,3.2,-1.6,-0.6000000000000001,12.700000000000001,7.699999999999999,33.0,-12.0,16
578,9723.0,0.30000000000000004,-2.1,3.1,-1.8,-0.9,12.600000000000001,19.799999999999997,14.900000000000002,-21.0,16
579,9736.0,0.2,-2.0,2.8000000000000003,-1.9000000000000001,-0.8,12.3,23.6,8.2,-23.3,16
580,9753.0,-0.2,-1.5,1.9000000000000001,-2.3000000000000003,-0.30000000000000004,11.4,32.2,-5.6,-23.400000000000002,16
581,9770.0,0.2,-1.2000000000000002,0.30000000000000004,-1.9000000000000001,0.1,9.8,36.2,-13.000000000000002,-15.000000000000002,16
582,9784.0,0.9,-1.2000000000000002,-0.9,-1.2000000000000002,0.2,8.6,24.7,-5.4,-11.4,16
583,9801.0,1.2000000000000002,-1.3,-1.2000000000000002,-0.9,0.2,8.3,7.400000000000001,5.0,-11.000000000000002,16
584,9818.0,1.2000000000000002,-1.5,-0.30000000000000004,-0.9,0.0,9.200000000000001,-8.5,14.300000000000002,-10.600000000000001,16
585,9834.0,1.1,-1.8,0.8,-1.0,-0.4,10.200000000000001,-11.700000000000001,15.299999999999999,-10.5,16
586,9851.0,1.1,-1.8,0.8,-1.0,-0.4,10.200000000000001,-11.700000000000001,15.299999999999999,-10.5,16
587,9878.0,1.4000000000000001,-1.9000000000000001,1.2000000000000002,-0.8,-0.6000000000000001,10.700000000000001,2.8,3.6000000000000005,-15.399999999999999,16
588,9885.0,1.1,-1.7000000000000002,0.7000000000000001,-1.0,-0.4,10.200000000000001,11.4,-0.4,-16.6,16
589,9901.0,1.1,-1.4000000000000001,0.1,-1.1,-0.1,9.600000000000001,18.0,-1.4,-15.5,16
590,9923.0,0.9,-1.0,-0.9,-1.3,0.30000000000000004,8.5,16.900000000000002,-1.6,-11.4,16
591,9935.0,1.0,-1.0,-1.3,-1.2000000000000002,0.30000000000000004,8.1,10.9,-0.4,-8.700000000000001,16
592,9951.0,1.0,-1.1,-1.3,-1.2000000000000002,0.30000000000000004,8.200000000000001,2.5,1.6,-6.8,16
593,9967.0,0.8,-1.1,-1.0,-1.3,0.30000000000000004,8.5,-3.1,1.0,-5.8,16
594,9984.0,0.6000000000000001,-1.0,-0.5,-1.6,0.30000000000000004,9.0,-5.6,-0.5,-4.5,16
595,10005.0,0.30000000000000004,-0.9,-0.30000000000000004,-1.8,0.5,9.200000000000001,-4.6,-2.4000000000000004,-2.4000000000000004,16
596,10018.0,0.2,-0.7000000000000001,-0.2,-1.9000000000000001,0.6000000000000001,9.3,-2.6,-4.1,1.9,16
597,10040.0,0.30000000000000004,-0.30000000000000004,-0.30000000000000004,-1.7000000000000002,0.8,9.200000000000001,-3.2,-2.4000000000000004,7.200000000000001,16
598,10061.0,0.30000000000000004,-0.1,-0.2,-1.5,0.8,9.4,-4.6,-2.0,9.600000000000001,16
599,10068.0,0.30000000000000004,0.0,0.0,-1.5,0.8,9.600000000000001,-5.6,-1.8000000000000003,11.1,16
600,10085.0,0.2,0.0,0.30000000000000004,-1.5,0.7000000000000001,9.9,-6.699999999999999,-1.8000000000000003,12.4,16
601,10106.0,0.30000000000000004,-0.2,1.0,-1.3,0.5,10.700000000000001,-7.8,-4.9,10.299999999999999,16
602,10118.0,0.0,-0.1,1.2000000000000002,-1.6,0.5,10.9,-5.4,-7.300000000000001,8.600000000000001,16
603,10139.0,-0.30000000000000004,-0.2,1.1,-1.8,0.4,10.8,-1.6,-9.3,8.2,16
604,10151.0,-0.9,-0.1,0.5,-2.4000000000000004,0.6000000000000001,10.100000000000001,0.1,-7.8,9.8,16
605,10168.0,-1.3,0.1,-0.30000000000000004,-2.8000000000000003,0.7000000000000001,9.4,-4.1,-5.4,15.6,16
606,10184.0,-0.6000000000000001,0.1,-0.30000000000000004,-2.1,0.7000000000000001,9.4,-17.7,1.3,23.0,16
607,10202.0,0.4,-0.30000000000000004,0.9,-1.2000000000000002,0.30000000000000004,10.600000000000001,-30.799999999999997,12.9,24.599999999999998,16
608,10218.0,0.4,-1.0,2.5,-1.1,-0.6000000000000001,12.100000000000001,-35.3,20.7,17.5,16
609,10234.0,0.0,-1.3,3.0,-1.6,-0.9,12.700000000000001,-26.5,18.0,6.4,16
610,10262.0,-1.8,0.0,1.1,-3.5,0.30000000000000004,10.700000000000001,4.7,-13.8,-4.4,16
611,10268.0,-1.8,0.0,1.1,-3.5,0.30000000000000004,10.700000000000001,4.7,-13.8,-4.4,16
612,10285.0,-2.3000000000000003,0.7000000000000001,-0.4,-3.8000000000000003,1.0,9.3,23.700000000000003,-40.4,12.9,16
613,10304.0,-1.3,0.5,-2.1,-2.8000000000000003,1.0,7.6000000000000005,23.0,-35.8,22.5,16
614,10318.0,-0.4,0.4,-3.2,-1.8,0.9,6.5,6.4,-13.3,22.9,16
615,10335.0,-0.5,0.1,-2.4000000000000004,-1.9000000000000001,0.6000000000000001,7.300000000000001,-18.1,6.8,19.5,16
616,10352.0,-0.9,-0.1,-0.7000000000000001,-2.3000000000000003,0.4,9.0,-28.800000000000004,15.299999999999999,18.8,16
617,10368.0,-0.9,-0.1,0.4,-2.3000000000000003,0.30000000000000004,10.0,-26.9,18.900000000000002,18.0,16
618,10384.0,-0.9,0.0,0.7000000000000001,-2.4000000000000004,0.30000000000000004,10.4,-17.6,13.700000000000001,16.6,16
619,10402.0,-0.7000000000000001,0.1,0.6000000000000001,-2.2,0.4,10.3,-9.100000000000001,6.699999999999999,16.200000000000003,16
620,10418.0,-0.30000000000000004,0.30000000000000004,0.0,-1.8,0.6000000000000001,9.700000000000001,-0.6000000000000001,0.5,13.8,16
621,10435.0,-0.1,0.5,-0.5,-1.7000000000000002,0.7000000000000001,9.4,-0.30000000000000004,-0.7,12.5,16
622,10455.0,0.1,0.6000000000000001,-0.8,-1.4000000000000001,0.8,8.9,-3.9,-3.4,7.6,16
623,10468.0,0.1,0.7000000000000001,-0.9,-1.5,1.0,8.8,-6.500000000000001,-2.1,3.9,16
624,10484.0,0.0,0.6000000000000001,-0.9,-1.7000000000000002,1.1,8.8,-5.8,0.5,1.7,16
625,10504.0,-0.1,0.5,-0.7000000000000001,-1.8,1.1,8.9,-2.2,4.0,0.5,16
626,10519.0,-0.2,0.30000000000000004,-0.5,-2.0,1.0,9.200000000000001,2.0,4.800000000000001,0.0,16
627,10536.0,-0.30000000000000004,0.30000000000000004,-0.4,-2.1,1.1,9.200000000000001,6.300000000000001,0.6000000000000001,-0.4,16
628,10554.0,-0.1,0.4,-0.8,-2.1,1.3,8.8,6.8,-6.8,0.7,16
629,10569.0,0.0,0.5,-1.2000000000000002,-2.1,1.4000000000000001,8.6,2.4000000000000004,-10.200000000000001,1.9,16
630,10588.0,0.30000000000000004,0.5,-1.3,-1.6,1.5,8.3,-5.7,-9.600000000000001,1.6,16
631,10601.0,0.4,0.5,-1.2000000000000002,-1.5,1.4000000000000001,8.4,-9.2,-8.700000000000001,1.0,16
632,10618.0,0.6000000000000001,0.5,-0.4,-1.3,1.4000000000000001,9.200000000000001,-15.6,-5.2,-2.6,16
633,10634.0,0.6000000000000001,0.4,0.6000000000000001,-1.2000000000000002,1.3,10.200000000000001,-12.7,-0.6000000000000001,-4.6,16
634,10657.0,0.7000000000000001,0.1,1.5,-1.2000000000000002,1.0,11.100000000000001,-3.1,2.4000000000000004,-8.0,16
635,10670.0,0.4,0.0,2.1,-1.4000000000000001,0.8,11.700000000000001,7.500000000000001,1.3,-12.4,16
636,10684.0,0.30000000000000004,-0.30000000000000004,2.4000000000000004,-1.6,0.6000000000000001,12.0,20.1,-4.4,-16.700000000000003,16
637,10703.0,0.1,-0.6000000000000001,2.0,-1.7000000000000002,0.4,11.5,31.0,-14.0,-20.1,16
638,10720.0,-0.30000000000000004,-0.6000000000000001,0.7000000000000001,-2.1,0.4,10.3,32.7,-31.0,-21.8,16
639,10737.0,-0.30000000000000004,-0.5,-0.9,-2.0,0.6000000000000001,8.700000000000001,20.7,-27.9,-18.3,16
640,10755.0,-0.2,-0.6000000000000001,-0.7000000000000001,-1.8,0.6000000000000001,8.9,3.0,0.0,-14.800000000000002,16
641,10767.0,-0.4,-1.0,0.9,-2.1,0.1,10.5,-8.2,18.700000000000003,-10.1,16
642,10784.0,-0.2,-1.6,2.6,-2.0,-0.5,12.200000000000001,-10.299999999999999,31.3,-6.699999999999999,16
643,10801.0,-0.1,-2.1,3.2,-1.9000000000000001,-1.0,12.8,-5.1000000000000005,28.1,-7.6,16
644,10817.0,0.0,-2.3000000000000003,2.7,-1.9000000000000001,-1.2000000000000002,12.3,2.4000000000000004,13.399999999999999,-11.2,16
645,10834.0,-0.1,-2.0,2.0,-2.0,-1.0,11.5,8.5,-2.1,-11.900000000000002,16
646,10859.0,0.4,-1.7000000000000002,0.7000000000000001,-1.5,-0.6000000000000001,10.3,17.0,-13.100000000000001,-5.7,16
647,10868.0,0.9,-1.7000000000000002,0.2,-1.0,-0.6000000000000001,9.700000000000001,16.8,-10.200000000000001,-4.800000000000001,16
648,10885.0,1.5,-1.8,-0.7000000000000001,-0.30000000000000004,-0.6000000000000001,8.9,8.3,2.8,-6.4,16
649,10901.0,1.6,-1.8,-0.5,-0.2,-0.6000000000000001,9.0,-6.0,14.800000000000002,-10.8,16
650,10918.0,1.4000000000000001,-1.9000000000000001,0.9,-0.5,-0.8,10.4,-14.200000000000001,16.6,-15.5,16
651,10934.0,1.5,-1.8,1.3,-0.5,-0.8,10.9,-8.700000000000001,9.2,-18.700000000000003,16
652,10951.0,1.5,-1.7000000000000002,1.1,-0.5,-0.7000000000000001,10.600000000000001,0.8,1.6,-21.7,16
653,10968.0,1.4000000000000001,-1.5,0.4,-0.5,-0.5,10.0,12.299999999999999,-4.4,-23.400000000000002,16
654,10988.0,1.2000000000000002,-1.1,-0.30000000000000004,-0.7000000000000001,-0.1,9.3,20.1,-3.2,-23.6,16
655,11002.0,0.9,-0.7000000000000001,-0.8,-1.0,0.30000000000000004,8.8,23.0,-0.8,-21.500000000000004,16
656,11018.0,0.7000000000000001,-0.5,-1.1,-1.2000000000000002,0.5,8.5,22.2,2.1,-15.899999999999999,16
657,11042.0,0.6000000000000001,-0.5,-1.7000000000000002,-1.3,0.6000000000000001,7.9,13.399999999999999,1.7,-9.0,16
658,11058.0,0.6000000000000001,-0.5,-1.7000000000000002,-1.4000000000000001,0.7000000000000001,7.800000000000001,3.1,-0.6000000000000001,-5.0,16
659,11068.0,0.5,-0.4,-1.6,-1.4000000000000001,0.7000000000000001,8.0,-1.2000000000000002,-1.0,-3.4,16
660,11085.0,0.4,-0.5,-1.1,-1.5,0.7000000000000001,8.4,-8.3,-0.4,0.9000000000000001,16
661,11101.0,0.30000000000000004,-0.4,-0.5,-1.6,0.7000000000000001,9.0,-10.9,-0.4,4.5,16
662,11121.0,0.4,-0.5,0.1,-1.5,0.6000000000000001,9.700000000000001,-8.8,-0.9000000000000001,10.299999999999999,16
663,11134.0,0.5,-0.5,0.30000000000000004,-1.4000000000000001,0.5,9.8,-4.800000000000001,0.8,13.200000000000003,16
664,11156.0,0.7000000000000001,-0.5,0.4,-1.2000000000000002,0.5,10.0,-1.5,5.0,14.5,16
665,11170.0,0.5,-0.4,0.7000000000000001,-1.2000000000000002,0.4,10.3,2.3,13.200000000000003,14.700000000000001,16
666,11184.0,0.1,-0.30000000000000004,1.1,-1.5,0.4,10.700000000000001,4.5,18.900000000000002,14.400000000000002,16
667,11202.0,-0.2,-0.2,1.7000000000000002,-1.9000000000000001,0.5,11.4,6.2,18.700000000000003,13.200000000000003,16
668,11218.0,-0.7000000000000001,-0.1,1.9000000000000001,-2.4000000000000004,0.7000000000000001,11.5,8.899999999999999,8.4,14.600000000000001,16
669,11235.0,-1.0,0.0,1.2000000000000002,-2.7,0.8,10.8,9.3,-1.5,17.400000000000002,16
670,11256.0,-1.2000000000000002,0.1,-0.1,-2.9000000000000004,1.0,9.5,-2.5,-6.0,24.900000000000002,16
671,11270.0,-0.8,0.1,0.2,-2.5,0.9,9.8,-16.700000000000003,1.7,31.7,16
672,11288.0,-0.4,-0.5,1.4000000000000001,-2.0,0.30000000000000004,11.0,-25.0,6.300000000000001,34.800000000000004,16
673,11301.0,-0.2,-1.1,2.3000000000000003,-1.9000000000000001,-0.4,12.0,-25.300000000000004,2.9,32.7,16
674,11318.0,-0.1,-1.4000000000000001,2.2,-1.8,-0.7000000000000001,11.8,-19.0,-9.3,26.5,16
675,11334.0,-0.30000000000000004,-1.1,1.2000000000000002,-1.9000000000000001,-0.4,10.8,-9.899999999999999,-26.700000000000003,19.300000000000004,16
676,11359.0,-0.7000000000000001,-0.6000000000000001,-0.4,-2.2,0.1,9.3,3.2,-42.2,18.700000000000003,16
677,11372.0,-0.4,-0.30000000000000004,-1.1,-1.8,0.4,8.6,7.0,-38.1,19.5,16
678,11384.0,-0.4,-0.2,-1.4000000000000001,-1.7000000000000002,0.5,8.3,6.4,-30.4,19.700000000000003,16
679,11403.0,-0.4,-0.30000000000000004,-1.5,-1.6,0.4,8.200000000000001,-8.0,1.6,17.1,16
680,11419.0,-0.5,-0.4,-0.9,-1.8,0.30000000000000004,8.8,-13.6,9.4,15.700000000000001,16
681,11438.0,-0.8,-0.5,0.4,-2.1,0.1,10.100000000000001,-20.3,19.300000000000004,11.700000000000001,16
682,11464.0,-0.8,-0.5,1.5,-2.2,0.0,11.200000000000001,-11.1,8.100000000000001,5.300000000000001,16
683,11468.0,-0.8,-0.4,1.2000000000000002,-2.3000000000000003,0.1,10.9,-7.699999999999999,1.0,3.3000000000000007,16
684,11484.0,-0.8,-0.30000000000000004,0.7000000000000001,-2.2,0.30000000000000004,10.4,-3.7000000000000006,-9.5,0.7,16
685,11506.0,-0.30000000000000004,0.4,-1.5,-1.6,0.9,8.200000000000001,2.9,-21.8,-1.5,16
686,11518.0,-0.2,0.5,-1.9000000000000001,-1.5,1.0,7.800000000000001,2.9,-18.5,-2.2,16
687,11537.0,-0.1,0.7000000000000001,-2.4000000000000004,-1.4000000000000001,1.2000000000000002,7.300000000000001,1.5,-4.7,-3.2,16
688,11555.0,-0.4,0.8,-1.8,-1.7000000000000002,1.3,7.9,-0.2,12.9,-3.2,16
689,11571.0,-0.8,0.7000000000000001,-1.1,-2.1,1.3,8.6,0.6000000000000001,16.0,-2.3,16
690,11584.0,-0.8,0.7000000000000001,-0.8,-2.1,1.3,8.9,0.9000000000000001,15.100000000000001,-1.3,16
691,11602.0,-0.7000000000000001,0.6000000000000001,-0.5,-2.1,1.2000000000000002,9.200000000000001,1.2000000000000002,9.8,-0.4,16
692,11618.0,-0.6000000000000001,0.7000000000000001,-0.6000000000000001,-2.0,1.3,9.1,-0.8,1.0,-1.3,16
693,11636.0,-0.4,0.8,-0.7000000000000001,-1.9000000000000001,1.4000000000000001,9.0,-1.8000000000000003,-1.3,-0.5,16
694,11655.0,-0.30000000000000004,0.8,-0.8,-1.8,1.4000000000000001,8.9,-2.4000000000000004,-2.4000000000000004,0.6000000000000001,16
695,11668.0,-0.2,0.8,-1.0,-1.7000000000000002,1.5,8.700000000000001,-3.4,-3.4,1.4,16
696,11684.0,0.2,0.7000000000000001,-0.9,-1.3,1.5,8.8,-5.300000000000001,-4.0,1.5,16
697,11701.0,0.6000000000000001,0.5,-0.6000000000000001,-0.9,1.3,9.1,-7.200000000000001,-2.8,-0.6000000000000001,16
698,11719.0,0.7000000000000001,0.2,0.0,-0.8,1.2000000000000002,9.600000000000001,-7.699999999999999,-2.2,-5.7,16
699,11734.0,0.6000000000000001,0.0,0.5,-0.9,1.1,10.200000000000001,-5.0,-2.1,-12.100000000000001,16
700,11759.0,0.1,0.0,1.9000000000000001,-1.2000000000000002,1.1,11.5,4.300000000000001,1.2000000000000002,-20.0,16
701,11769.0,-0.5,0.1,2.2,-1.9000000000000001,1.2000000000000002,11.8,17.6,1.2000000000000002,-21.200000000000003,16
702,11784.0,-0.6000000000000001,0.0,2.1,-2.0,1.2000000000000002,11.8,26.9,-9.5,-20.3,16
703,11801.0,-0.5,-0.1,0.8,-1.8,1.2000000000000002,10.4,30.9,-24.599999999999998,-20.2,16
704,11818.0,-0.30000000000000004,0.1,-0.6000000000000001,-1.6,1.4000000000000001,9.1,25.900000000000002,-30.9,-19.1,16
705,11837.0,-0.1,0.0,-1.2000000000000002,-1.3,1.4000000000000001,8.4,17.1,-25.900000000000002,-17.300000000000004,16
706,11864.0,0.0,-0.7000000000000001,-0.1,-1.2000000000000002,0.7000000000000001,9.600000000000001,-3.0,12.5,-15.2,16
707,11869.0,0.0,-0.7000000000000001,-0.1,-1.2000000000000002,0.7000000000000001,9.600000000000001,-3.0,12.5,-15.2,16
708,11897.0,-0.2,-1.6,3.9000000000000004,-1.5,-0.2,13.5,7.0,47.3,-14.400000000000002,16
709,11901.0,-0.2,-1.6,3.9000000000000004,-1.5,-0.2,13.5,7.0,47.3,-14.400000000000002,16
710,11919.0,-0.30000000000000004,-2.1,4.6000000000000005,-1.8,-0.6000000000000001,14.100000000000001,26.700000000000003,28.800000000000004,-19.9,16
711,11934.0,-0.6000000000000001,-1.8,3.8000000000000003,-2.1,-0.30000000000000004,13.4,40.0,3.9,-22.1,16
712,11956.0,-0.5,-1.4000000000000001,2.1,-2.1,0.2,11.600000000000001,44.4,-13.100000000000001,-19.0,16
713,11968.0,-0.2,-1.1,0.1,-1.8,0.6000000000000001,9.600000000000001,34.800000000000004,-22.9,-14.100000000000001,16
714,11985.0,0.2,-1.2000000000000002,-1.3,-1.3,0.6000000000000001,8.200000000000001,15.399999999999999,-25.900000000000002,-10.299999999999999,16
715,12001.0,0.4,-1.4000000000000001,-1.8,-1.0,0.4,7.7,-7.0,-25.0,-8.5,16
716,12018.0,0.5,-1.6,-1.6,-0.9,0.1,7.9,-20.0,-17.400000000000002,-7.400000000000001,16
717,12046.0,0.6000000000000001,-1.8,0.1,-0.9,-0.30000000000000004,10.5,-21.8,11.4,-7.0,16
718,12056.0,0.4,-2.0,1.5,-1.0,-0.4,11.100000000000001,-8.899999999999999,28.500000000000004,-7.9,16
719,12068.0,0.30000000000000004,-2.1,2.0,-1.1,-0.5,11.600000000000001,-0.9000000000000001,32.400000000000006,-8.5,16
720,12086.0,-0.2,-1.9000000000000001,2.2,-1.8,-0.30000000000000004,11.700000000000001,21.7,9.600000000000001,-6.600000000000001,16
721,12101.0,-0.2,-1.7000000000000002,1.1,-1.7000000000000002,0.0,10.600000000000001,28.3,-14.800000000000002,-4.1,16
722,12118.0,0.30000000000000004,-1.4000000000000001,-1.0,-1.2000000000000002,0.30000000000000004,8.6,23.400000000000002,-34.400000000000006,-2.1,16
723,12134.0,0.6000000000000001,-1.2000000000000002,-2.3000000000000003,-0.8,0.6000000000000001,7.2,7.0,-33.400000000000006,0.1,16
724,12161.0,0.5,-1.1,-2.5,-0.7000000000000001,0.7000000000000001,7.0,-15.5,-22.8,2.6,16
725,12168.0,0.5,-1.1,-2.2,-0.7000000000000001,0.6000000000000001,7.4,-21.1,-16.0,4.300000000000001,16
726,12185.0,0.6000000000000001,-1.3,-1.3,-0.6000000000000001,0.4,8.3,-22.6,-6.500000000000001,5.6,16
727,12201.0,0.5,-1.4000000000000001,-0.2,-0.7000000000000001,0.2,9.4,-14.200000000000001,4.4,4.6,16
728,12218.0,0.1,-1.4000000000000001,0.1,-1.1,0.2,9.700000000000001,-2.1,8.2,3.8,16
729,12237.0,-0.2,-1.0,0.1,-1.4000000000000001,0.6000000000000001,9.700000000000001,16.200000000000003,2.4000000000000004,5.7,16
730,12258.0,-0.1,-0.9,0.0,-1.4000000000000001,0.8,9.5,18.4,0.5,8.4,16
731,12268.0,0.2,-0.8,-0.7000000000000001,-1.1,0.9,8.9,15.100000000000001,1.5,9.0,16
732,12286.0,0.1,-0.6000000000000001,-0.30000000000000004,-1.2000000000000002,1.1,9.3,-2.5,5.1000000000000005,8.700000000000001,16
733,12301.0,-0.2,-0.6000000000000001,0.4,-1.5,1.1,9.9,-9.100000000000001,6.0,10.0,16
734,12318.0,-0.30000000000000004,-0.6000000000000001,0.9,-1.5,1.1,10.4,-10.9,0.9000000000000001,12.600000000000001,16
735,12335.0,-0.1,-0.6000000000000001,1.0,-1.3,1.1,10.600000000000001,-7.500000000000001,1.1,14.900000000000002,16
736,12356.0,-0.1,-0.6000000000000001,1.1,-1.4000000000000001,1.0,10.700000000000001,-1.4,4.9,16.0,16
737,12368.0,-0.4,-0.5,1.0,-1.7000000000000002,1.1,10.600000000000001,1.4,6.8,16.200000000000003,16
738,12384.0,-1.0,-0.30000000000000004,0.4,-2.4000000000000004,1.1,10.0,2.7,7.6,19.799999999999997,16
739,12401.0,-1.1,0.0,0.1,-2.5,1.3,9.700000000000001,-3.8,10.200000000000001,27.700000000000003,16
740,12418.0,-0.7000000000000001,-0.1,0.30000000000000004,-2.3000000000000003,1.1,9.9,-15.5,11.700000000000001,34.400000000000006,16
741,12435.0,0.0,-0.9,1.5,-1.7000000000000002,0.30000000000000004,11.100000000000001,-32.1,5.0,36.9,16
742,12456.0,0.0,-1.1,1.9000000000000001,-1.6,-0.1,11.5,-31.0,-13.000000000000002,32.1,16
743,12468.0,0.2,-1.0,1.3,-1.4000000000000001,0.0,10.9,-22.9,-26.400000000000006,27.700000000000003,16
744,12485.0,0.1,-0.8,0.4,-1.4000000000000001,0.1,10.0,-10.0,-34.1,23.2,16
745,12501.0,0.2,-0.5,-0.30000000000000004,-1.2000000000000002,0.4,9.3,-0.2,-30.1,19.9,16
746,12518.0,0.0,-0.2,-0.6000000000000001,-1.3,0.8,9.0,9.2,-8.600000000000001,17.6,16
747,12545.0,-0.5,0.0,-0.5,-1.8,1.0,9.200000000000001,11.900000000000002,25.0,18.900000000000002,16
748,12557.0,-0.6000000000000001,-0.1,0.0,-2.0,0.9,9.600000000000001,6.8,31.0,18.8,16
749,12568.0,-0.7000000000000001,-0.1,0.30000000000000004,-2.1,0.9,10.0,2.6,29.300000000000004,19.300000000000004,16
750,12585.0,-0.4,-0.2,0.9,-2.0,0.9,10.4,-6.2,14.5,19.700000000000003,16
751,12601.0,-0.2,-0.2,0.8,-1.8,0.8,10.5,-11.900000000000002,-0.6000000000000001,17.0,16
752,12618.0,0.2,-0.2,0.2,-1.4000000000000001,0.8,9.8,-15.000000000000002,-10.0,14.5,16
753,12635.0,0.4,-0.1,-0.2,-1.1,0.9,9.4,-15.000000000000002,-10.600000000000001,11.700000000000001,16
754,12659.0,0.4,0.1,-0.7000000000000001,-1.1,1.0,9.0,-7.500000000000001,-0.5,8.0,16
755,12668.0,0.4,0.1,-0.8,-1.1,1.0,8.9,-4.6,3.5,7.200000000000001,16
756,12684.0,0.4,0.2,-0.6000000000000001,-1.1,1.1,9.1,3.4,14.700000000000001,4.5,16
757,12701.0,0.1,0.30000000000000004,-0.30000000000000004,-1.4000000000000001,1.2000000000000002,9.3,10.9,21.200000000000003,2.8,16
758,12719.0,0.0,0.4,-0.4,-1.6,1.4000000000000001,9.3,18.1,22.6,2.5,16
759,12734.0,0.0,0.5,-0.4,-1.7000000000000002,1.5,9.200000000000001,20.2,19.0,3.2,16
760,12759.0,-0.1,0.6000000000000001,-0.9,-1.8,1.6,8.700000000000001,14.100000000000001,1.8000000000000003,2.3,16
761,12772.0,-0.1,0.7000000000000001,-1.3,-1.8,1.8,8.3,4.300000000000001,-10.9,3.2,16
762,12784.0,0.30000000000000004,0.8,-1.5,-1.4000000000000001,1.9000000000000001,8.1,-4.6,-13.8,5.1000000000000005,16
763,12801.0,0.7000000000000001,0.6000000000000001,-1.2000000000000002,-1.0,1.7000000000000002,8.4,-11.8,-12.0,4.9,16
764,12820.0,0.9,0.4,-0.8,-0.7000000000000001,1.5,8.8,-12.299999999999999,-9.899999999999999,2.5,16
765,12834.0,1.0,0.4,-0.30000000000000004,-0.6000000000000001,1.4000000000000001,9.3,-7.699999999999999,-8.100000000000001,-1.6,16
766,12862.0,1.0,0.30000000000000004,0.6000000000000001,-0.6000000000000001,1.4000000000000001,10.200000000000001,5.1000000000000005,-2.2,-7.8,16
767,12868.0,0.9,0.30000000000000004,0.9,-0.6000000000000001,1.3,10.600000000000001,9.3,-0.7,-9.899999999999999,16
768,12890.0,0.7000000000000001,0.2,1.3,-0.8,1.2000000000000002,10.9,17.5,0.4,-15.000000000000002,16
769,12903.0,0.7000000000000001,-0.1,1.5,-0.9,1.0,11.100000000000001,22.000000000000004,-1.8000000000000003,-19.6,16
770,12918.0,0.5,-0.1,1.3,-1.0,1.1,10.9,23.800000000000004,-11.3,-26.200000000000003,16
771,12936.0,0.1,0.2,-0.2,-1.4000000000000001,1.5,9.4,21.8,-28.600000000000005,-29.200000000000003,16
772,12960.0,0.30000000000000004,0.4,-1.1,-1.1,1.7000000000000002,8.6,10.600000000000001,-24.400000000000002,-27.099999999999998,16
773,12968.0,0.30000000000000004,0.30000000000000004,-1.1,-1.1,1.6,8.5,5.0,-15.5,-25.7,16
774,12988.0,0.30000000000000004,0.0,-0.6000000000000001,-1.0,1.3,9.0,-2.2,0.7,-23.0,16
775,13001.0,0.5,-0.5,0.8,-0.9,0.8,10.5,-4.300000000000001,22.5,-21.300000000000004,16
776,13020.0,0.30000000000000004,-0.9,2.3000000000000003,-1.1,0.4,12.0,-0.4,38.60000000000001,-22.700000000000003,16
777,13039.0,0.0,-1.4000000000000001,4.3,-1.6,-0.1,13.9,13.8,41.300000000000004,-26.400000000000006,16
778,13058.0,-0.2,-1.4000000000000001,4.6000000000000005,-1.9000000000000001,-0.1,14.100000000000001,26.799999999999997,29.800000000000004,-30.1,16
779,13068.0,-0.4,-1.3,4.4,-2.1,0.0,13.9,31.3,21.900000000000002,-30.699999999999996,16
780,13090.0,-0.1,-0.9,2.6,-2.0,0.5,12.100000000000001,34.2,3.2,-27.800000000000004,16
781,13103.0,0.2,-0.8,1.3,-1.7000000000000002,0.7000000000000001,10.8,24.3,-0.5,-25.5,16
782,13119.0,0.4,-1.0,0.6000000000000001,-1.5,0.6000000000000001,10.100000000000001,7.400000000000001,-7.300000000000001,-24.200000000000003,16
783,13136.0,0.5,-1.1,0.2,-1.3,0.5,9.8,-3.6000000000000005,-16.8,-23.3,16
784,13157.0,0.8,-1.1,-0.30000000000000004,-1.0,0.4,9.200000000000001,-8.3,-24.7,-22.700000000000003,16
785,13168.0,1.1,-1.1,-0.9,-0.7000000000000001,0.4,8.700000000000001,-6.600000000000001,-23.2,-22.700000000000003,16
786,13186.0,1.1,-1.1,-1.2000000000000002,-0.5,0.4,8.3,-1.0,-14.5,-23.2,16
787,13201.0,1.1,-1.0,-1.1,-0.5,0.5,8.4,9.0,1.1,-22.3,16
788,13218.0,0.8,-0.9,-0.8,-0.9,0.6000000000000001,8.8,19.200000000000003,10.600000000000001,-21.300000000000004,16
789,13234.0,0.4,-0.9,-0.8,-1.2000000000000002,0.6000000000000001,8.700000000000001,28.200000000000003,8.100000000000001,-18.6,16
790,13262.0,0.4,-0.7000000000000001,-2.0,-1.3,0.9,7.5,18.3,-10.4,-13.399999999999999,16
791,13268.0,0.4,-0.7000000000000001,-2.0,-1.3,0.9,7.5,18.3,-10.4,-13.399999999999999,16
792,13287.0,0.2,-0.30000000000000004,-2.3000000000000003,-1.5,1.3,7.300000000000001,-5.7,-14.0,-6.699999999999999,16
793,13301.0,0.2,-0.30000000000000004,-1.6,-1.5,1.4000000000000001,7.9,-16.900000000000002,-12.200000000000001,-0.30000000000000004,16
794,13318.0,0.30000000000000004,-0.4,-0.8,-1.3,1.1,8.8,-21.7,-7.500000000000001,6.0,16
795,13334.0,0.6000000000000001,-0.7000000000000001,-0.1,-1.0,0.8,9.5,-20.1,-4.9,8.700000000000001,16
796,13358.0,0.8,-0.7000000000000001,0.4,-0.8,0.7000000000000001,10.0,-12.299999999999999,-5.1000000000000005,6.8,16
797,13371.0,0.8,-0.6000000000000001,0.6000000000000001,-0.8,0.8,10.200000000000001,-9.0,-3.3000000000000007,6.1000000000000005,16
798,13384.0,0.6000000000000001,-0.4,0.9,-0.9,1.0,10.5,0.1,2.8,5.4,16
799,13402.0,0.2,-0.30000000000000004,0.9,-1.3,1.1,10.5,6.0,7.1000000000000005,5.500000000000001,16
800,13418.0,0.1,-0.30000000000000004,1.1,-1.5,1.2000000000000002,10.700000000000001,7.400000000000001,9.3,5.0,16
801,13435.0,-0.30000000000000004,0.0,1.4000000000000001,-1.8,1.4000000000000001,10.9,7.9,6.9,6.300000000000001,16
802,13451.0,-0.5,0.0,1.4000000000000001,-2.1,1.5,10.9,8.899999999999999,0.4,8.899999999999999,16
803,13468.0,-0.9,0.2,0.4,-2.5,1.7000000000000002,10.0,5.7,-9.3,13.3,16
804,13492.0,-0.9,0.30000000000000004,-0.4,-2.5,1.8,9.200000000000001,-15.2,-14.600000000000001,24.8,16
805,13501.0,-0.7000000000000001,0.2,-0.5,-2.2,1.7000000000000002,9.1,-23.5,-14.0,28.3,16
806,13518.0,-0.2,-0.2,0.0,-1.6,1.2000000000000002,9.600000000000001,-41.6,-13.900000000000002,35.699999999999996,16
807,13534.0,0.6000000000000001,-0.9,0.9,-0.8,0.5,10.5,-51.6,-14.0,37.6,16
808,13551.0,0.8,-1.3,1.7000000000000002,-0.5,-0.1,11.4,-52.00000000000001,-15.299999999999999,31.099999999999998,16
809,13571.0,0.5,-1.3,1.9000000000000001,-0.7000000000000001,-0.30000000000000004,11.600000000000001,-34.7,-16.0,17.0,16
810,13584.0,0.4,-1.1,1.7000000000000002,-0.9,-0.2,11.4,-27.700000000000003,-17.1,13.000000000000002,16
811,13606.0,-0.5,-0.5,0.8,-1.7000000000000002,0.4,10.5,-7.0,-30.1,7.300000000000001,16
812,13618.0,-0.7000000000000001,-0.2,-0.1,-1.8,0.6000000000000001,9.600000000000001,2.2,-35.699999999999996,7.699999999999999,16
813,13634.0,-0.5,0.0,-0.8,-1.5,0.9,8.9,7.200000000000001,-29.1,8.4,16
814,13660.0,-0.30000000000000004,0.30000000000000004,-1.4000000000000001,-1.3,1.2000000000000002,8.4,4.9,0.4,9.3,16
815,13668.0,-0.4,0.30000000000000004,-1.2000000000000002,-1.3,1.2000000000000002,8.5,3.1,10.200000000000001,10.5,16
816,13684.0,-0.6000000000000001,0.2,-0.6000000000000001,-1.5,1.1,9.200000000000001,-0.5,24.400000000000002,12.600000000000001,16
817,13701.0,-0.6000000000000001,0.1,0.2,-1.6,1.0,9.9,-3.2,29.900000000000006,13.5,16
818,13718.0,-0.6000000000000001,0.1,0.7000000000000001,-1.7000000000000002,1.0,10.4,-3.1,26.5,14.800000000000002,16
819,13735.0,-0.5,0.1,0.8,-1.6,1.1,10.5,-1.8000000000000003,20.900000000000002,16.1,16
820,13751.0,-0.4,0.2,0.5,-1.6,1.1,10.200000000000001,-2.1,6.600000000000001,16.700000000000003,16
821,13770.0,-0.1,0.2,-0.2,-1.4000000000000001,1.1,9.5,-5.7,-5.8,16.0,16
822,13787.0,0.2,0.30000000000000004,-1.0,-1.0,1.2000000000000002,8.6,-7.500000000000001,-5.8,15.700000000000001,16
823,13818.0,0.5,0.30000000000000004,-1.2000000000000002,-0.7000000000000001,1.2000000000000002,8.5,-5.0,7.300000000000001,14.0,16
824,13834.0,0.4,0.30000000000000004,-0.9,-0.8,1.2000000000000002,8.8,-0.7,12.4,12.0,16
825,13851.0,0.4,0.30000000000000004,-0.9,-0.9,1.2000000000000002,8.8,3.2,12.100000000000001,10.299999999999999,16
826,13878.0,0.4,0.4,-1.1,-0.9,1.4000000000000001,8.6,5.500000000000001,8.700000000000001,8.0,16
827,13884.0,0.4,0.5,-1.1,-0.9,1.5,8.5,4.6,8.100000000000001,7.1000000000000005,16
828,13901.0,0.4,0.6000000000000001,-1.1,-0.9,1.6,8.6,2.3,6.8,6.0,16
829,13919.0,0.4,0.8,-0.7000000000000001,-0.9,1.8,9.0,-6.300000000000001,3.9,6.600000000000001,16
830,13935.0,0.4,0.7000000000000001,-0.6000000000000001,-0.8,1.8,9.0,-8.2,2.2,6.500000000000001,16
831,13959.0,0.8,0.4,-0.4,-0.4,1.5,9.3,-14.100000000000001,-4.0,2.1,16
832,13969.0,0.9,0.30000000000000004,-0.2,-0.30000000000000004,1.5,9.5,-14.100000000000001,-2.9,0.1,16
833,13985.0,0.7000000000000001,0.2,0.5,-0.30000000000000004,1.4000000000000001,10.200000000000001,-9.8,2.4000000000000004,-5.300000000000001,16
834,14001.0,0.2,0.0,1.3,-0.6000000000000001,1.4000000000000001,11.0,-1.4,4.7,-9.700000000000001,16
835,14018.0,-0.2,-0.1,2.1,-1.0,1.3,11.8,12.5,3.2,-14.0,16
836,14041.0,-0.5,-0.1,2.1,-1.3,1.3,11.8,31.9,-10.9,-19.799999999999997,16
837,14051.0,-0.6000000000000001,-0.1,1.7000000000000002,-1.4000000000000001,1.4000000000000001,11.3,36.0,-15.700000000000001,-20.5,16
838,14070.0,-0.5,0.1,0.5,-1.3,1.7000000000000002,10.100000000000001,38.800000000000004,-22.9,-21.0,16
839,14091.0,-0.6000000000000001,0.2,-1.0,-1.2000000000000002,1.9000000000000001,8.6,25.0,-16.700000000000003,-20.2,16
840,14101.0,-0.5,0.2,-1.0,-1.2000000000000002,2.0,8.6,15.5,-7.1000000000000005,-18.5,16
841,14118.0,-0.6000000000000001,-0.5,0.8,-1.3,1.3,10.4,-1.4,18.200000000000003,-13.700000000000001,16
842,14134.0,-0.5,-1.3,2.4000000000000004,-1.2000000000000002,0.5,12.100000000000001,-2.1,27.700000000000003,-15.000000000000002,16
843,14159.0,-0.6000000000000001,-1.8,3.9000000000000004,-1.5,0.0,13.5,11.900000000000002,25.6,-21.6,16
844,14168.0,-0.7000000000000001,-1.9000000000000001,3.7,-1.6,-0.1,13.3,17.300000000000004,18.4,-23.900000000000006,16
845,14185.0,-0.6000000000000001,-1.7000000000000002,2.6,-1.6,0.1,12.200000000000001,28.3,-2.4000000000000004,-27.400000000000002,16
846,14204.0,-0.2,-1.5,1.1,-1.2000000000000002,0.4,10.600000000000001,32.5,-10.700000000000001,-28.3,16
847,14218.0,0.0,-1.3,-0.2,-0.9,0.7000000000000001,9.3,29.300000000000004,-5.6,-28.700000000000003,16
848,14234.0,0.2,-1.1,-1.0,-0.8,1.0,8.6,20.8,5.7,-27.099999999999998,16
849,14251.0,0.30000000000000004,-1.1,-0.6000000000000001,-0.7000000000000001,1.0,8.9,7.500000000000001,21.300000000000004,-24.599999999999998,16
850,14268.0,0.0,-1.5,1.0,-1.1,0.5,10.5,-2.8,27.800000000000004,-23.3,16
851,14290.0,-0.1,-1.7000000000000002,1.5,-1.3,0.30000000000000004,11.0,-2.5,16.1,-23.3,16
852,14301.0,0.1,-1.7000000000000002,1.4000000000000001,-1.1,0.30000000000000004,10.9,-0.7,-5.7,-24.5,16
853,14325.0,0.4,-1.4000000000000001,0.2,-0.8,0.6000000000000001,9.700000000000001,2.4000000000000004,-19.799999999999997,-26.1,16
854,14334.0,0.30000000000000004,-1.3,-0.4,-0.8,0.7000000000000001,9.1,2.6,-20.599999999999998,-25.4,16
855,14351.0,0.4,-1.2000000000000002,-0.7000000000000001,-0.8,0.8,8.8,2.5,-20.2,-24.3,16
856,14372.0,0.4,-1.0,-1.2000000000000002,-0.7000000000000001,0.9,8.3,0.8,-2.6,-19.1,16
857,14384.0,0.2,-1.1,-1.0,-0.9,0.8,8.6,1.3,2.0,-17.300000000000004,16
858,14404.0,0.1,-1.2000000000000002,-0.4,-1.1,0.7000000000000001,9.1,6.4,4.1,-13.6,16
859,14418.0,0.0,-1.2000000000000002,-0.4,-1.1,0.7000000000000001,9.200000000000001,8.2,2.2,-12.600000000000001,16
860,14438.0,-0.1,-1.0,-0.7000000000000001,-1.2000000000000002,1.0,8.8,9.3,-5.1000000000000005,-8.5,16
861,14451.0,-0.1,-0.7000000000000001,-1.0,-1.2000000000000002,1.2000000000000002,8.6,4.300000000000001,-6.600000000000001,-6.699999999999999,16
862,14468.0,-0.1,-0.4,-1.0,-1.3,1.4000000000000001,8.6,-3.2,-6.8,-3.7000000000000006,16
863,14490.0,-0.30000000000000004,-0.2,-0.9,-1.4000000000000001,1.5,8.700000000000001,-8.2,-6.300000000000001,0.2,16
864,14501.0,-0.2,-0.2,-0.8,-1.4000000000000001,1.5,8.8,-12.0,-7.1000000000000005,4.4,16
865,14519.0,-0.1,-0.1,-0.6000000000000001,-1.2000000000000002,1.5,9.0,-13.000000000000002,-4.2,7.0,16
866,14534.0,0.0,-0.30000000000000004,-0.2,-1.1,1.3,9.4,-11.1,0.4,8.5,16
867,14551.0,0.0,-0.4,0.0,-1.1,1.2000000000000002,9.700000000000001,-8.2,1.1,8.2,16
868,14568.0,0.0,-0.30000000000000004,0.1,-1.2000000000000002,1.1,9.700000000000001,-7.200000000000001,-0.9000000000000001,6.699999999999999,16
869,14584.0,0.0,-0.1,0.4,-1.2000000000000002,1.2000000000000002,10.0,-8.2,3.5,5.1000000000000005,16
870,14602.0,-0.30000000000000004,-0.1,1.0,-1.5,1.2000000000000002,10.700000000000001,-6.2,7.699999999999999,5.0,16
871,14618.0,-0.4,0.0,1.3,-1.6,1.2000000000000002,10.9,-0.7,6.8,5.9,16
872,14636.0,-0.2,-0.1,1.2000000000000002,-1.5,1.2000000000000002,10.8,5.1000000000000005,5.1000000000000005,6.500000000000001,16
873,14654.0,-0.4,-0.2,0.7000000000000001,-1.6,1.1,10.4,10.200000000000001,6.1000000000000005,5.7,16
874,14668.0,-1.2000000000000002,-0.1,0.2,-2.4000000000000004,1.2000000000000002,9.9,10.200000000000001,8.700000000000001,7.300000000000001,16
875,14685.0,-1.8,0.0,-0.1,-3.1,1.4000000000000001,9.5,3.9,11.900000000000002,12.9,16
876,14705.0,-1.1,0.0,0.2,-2.6,1.3,9.8,-17.9,6.699999999999999,27.9,16
877,14718.0,-0.4,-0.30000000000000004,0.7000000000000001,-1.9000000000000001,1.0,10.3,-25.0,6.1000000000000005,30.599999999999998,16
878,14740.0,0.7000000000000001,-1.5,2.0,-0.8,-0.30000000000000004,11.600000000000001,-35.2,-4.5,23.0,16
879,14753.0,0.8,-1.6,1.9000000000000001,-0.7000000000000001,-0.4,11.600000000000001,-33.300000000000004,-10.5,16.900000000000002,16
880,14767.0,0.5,-1.2000000000000002,1.0,-1.0,-0.2,10.700000000000001,-24.200000000000003,-25.0,1.6,16
881,14793.0,-0.30000000000000004,-0.2,-0.2,-1.7000000000000002,0.8,9.5,-6.1000000000000005,-35.3,-5.4,16
882,14801.0,-0.7000000000000001,0.30000000000000004,-0.7000000000000001,-2.0,1.3,9.0,7.6,-26.799999999999997,-3.1,16
883,14819.0,-0.9,0.5,-1.0,-2.1,1.5,8.700000000000001,20.599999999999998,0.1,3.4,16
884,14834.0,-0.9,0.5,-1.0,-2.1,1.6,8.6,24.1,27.099999999999998,8.5,16
885,14851.0,-0.9,0.30000000000000004,-0.8,-2.3000000000000003,1.5,8.9,16.200000000000003,43.800000000000004,11.900000000000002,16
886,14867.0,-1.0,0.2,-0.2,-2.5,1.4000000000000001,9.4,4.4,43.900000000000006,14.400000000000002,16
887,14884.0,-0.9,0.1,0.30000000000000004,-2.5,1.2000000000000002,9.9,-9.2,28.400000000000002,16.4,16
888,14904.0,-0.5,-0.1,-0.2,-2.1,1.1,9.4,-24.1,-0.30000000000000004,17.5,16
889,14918.0,-0.1,0.0,-0.4,-1.8,1.1,9.200000000000001,-27.400000000000002,-4.800000000000001,17.5,16
890,14934.0,0.1,0.0,-0.6000000000000001,-1.5,1.0,9.0,-31.0,-7.8,17.200000000000003,16
891,14954.0,0.30000000000000004,-0.1,-1.0,-1.3,0.9,8.6,-30.4,-11.4,14.400000000000002,16
892,14967.0,0.30000000000000004,0.1,-1.1,-1.3,1.0,8.6,-27.0,-11.000000000000002,10.9,16
893,14984.0,0.2,0.4,-0.7000000000000001,-1.4000000000000001,1.2000000000000002,8.9,-18.3,-0.5,8.600000000000001,16
894,15001.0,0.0,0.4,-0.4,-1.5,1.3,9.3,-7.300000000000001,9.700000000000001,8.700000000000001,16
895,15018.0,0.0,0.30000000000000004,0.0,-1.6,1.2000000000000002,9.700000000000001,4.800000000000001,18.5,8.600000000000001,16
896,15042.0,0.1,0.4,0.4,-1.6,1.3,10.0,13.6,20.3,5.8,16
897,15058.0,0.1,0.4,0.4,-1.6,1.4000000000000001,10.0,14.0,15.399999999999999,3.1,16
898,15067.0,0.2,0.5,0.4,-1.6,1.5,10.0,13.3,12.9,2.0,16
899,15088.0,0.2,0.9,0.5,-1.6,1.9000000000000001,10.100000000000001,8.600000000000001,-0.30000000000000004,1.6,16
900,15102.0,0.2,0.9,0.30000000000000004,-1.5,2.0,9.9,2.1,-16.900000000000002,2.7,16
901,15119.0,0.5,0.8,-0.30000000000000004,-1.2000000000000002,1.9000000000000001,9.3,-5.6,-30.3,1.6,16
902,15134.0,0.9,0.6000000000000001,-0.30000000000000004,-0.8,1.7000000000000002,9.3,-12.299999999999999,-35.8,-2.9,16
903,15153.0,1.0,0.30000000000000004,0.2,-0.5,1.3,9.8,-10.9,-30.200000000000003,-7.500000000000001,16
904,15168.0,1.2000000000000002,0.0,1.0,-0.2,1.1,10.600000000000001,1.6,-9.100000000000001,-14.700000000000001,16
905,15184.0,1.3,-0.30000000000000004,1.7000000000000002,-0.1,0.7000000000000001,11.4,19.6,13.100000000000001,-21.0,16
906,15201.0,1.1,-0.5,2.4000000000000004,-0.4,0.5,12.0,45.7,32.6,-28.600000000000005,16
907,15218.0,0.4,-0.6000000000000001,2.0,-1.2000000000000002,0.6000000000000001,11.600000000000001,69.4,28.1,-34.2,16
908,15235.0,-0.6000000000000001,-0.4,1.3,-2.3000000000000003,1.0,10.9,80.0,-0.1,-33.1,16
909,15253.0,-0.4,0.2,-0.4,-2.0,1.8,9.1,75.7,-13.900000000000002,-27.3,16
910,15268.0,-0.1,0.6000000000000001,-2.3000000000000003,-1.8,2.4000000000000004,7.2,27.700000000000003,17.0,-21.200000000000003,16
911,15284.0,-0.4,0.0,-0.4,-2.2,1.9000000000000001,9.1,-13.6,32.2,-12.8,16
912,15304.0,-0.4,-1.0,2.6,-2.2,0.8,12.100000000000001,-31.2,35.1,-8.700000000000001,16
913,15318.0,-0.1,-1.9000000000000001,3.9000000000000004,-2.0,-0.2,13.3,-28.3,21.300000000000004,-11.2,16
914,15337.0,0.2,-2.1,3.7,-1.8,-0.5,13.100000000000001,-15.2,3.2,-17.9,16
915,15352.0,0.2,-1.9000000000000001,2.9000000000000004,-1.8,-0.30000000000000004,12.4,-2.7,-11.2,-21.300000000000004,16
916,15368.0,0.1,-1.5,2.1,-1.9000000000000001,0.1,11.600000000000001,11.2,-21.1,-19.700000000000003,16
917,15388.0,0.8,-1.4000000000000001,0.1,-1.0,0.30000000000000004,9.600000000000001,17.7,-20.900000000000002,-17.799999999999997,16
918,15401.0,1.0,-1.3,-0.5,-0.8,0.30000000000000004,9.0,14.100000000000001,-17.400000000000002,-18.3,16
919,15418.0,1.3,-1.2000000000000002,-1.2000000000000002,-0.5,0.4,8.200000000000001,1.4,-8.2,-20.2,16
920,15435.0,1.0,-1.1,-0.4,-0.8,0.5,9.1,-16.6,2.1,-21.7,16
921,15461.0,0.9,-1.0,0.6000000000000001,-1.0,0.5,10.0,-16.1,0.0,-20.599999999999998,16
922,15475.0,0.9,-1.0,0.7000000000000001,-0.9,0.4,10.200000000000001,-9.8,-6.699999999999999,-19.5,16
923,15484.0,1.0,-0.9,0.5,-0.7000000000000001,0.5,10.100000000000001,-1.2000000000000002,-13.6,-19.1,16
924,15501.0,1.1,-0.8,0.1,-0.7000000000000001,0.6000000000000001,9.600000000000001,5.4,-15.6,-19.300000000000004,16
925,15518.0,0.9,-0.6000000000000001,-0.4,-0.8,0.8,9.1,10.0,-16.3,-18.6,16
926,15537.0,0.7000000000000001,-0.4,-0.8,-1.0,1.0,8.700000000000001,10.700000000000001,-16.900000000000002,-16.700000000000003,16
927,15551.0,0.4,-0.2,-1.1,-1.2000000000000002,1.2000000000000002,8.4,8.899999999999999,-14.700000000000001,-13.100000000000001,16
928,15568.0,0.30000000000000004,-0.1,-1.3,-1.3,1.4000000000000001,8.3,5.0,-11.1,-7.9,16
929,15587.0,0.2,-0.1,-1.2000000000000002,-1.2000000000000002,1.3,8.4,-2.8,-8.700000000000001,-1.2000000000000002,16
930,15601.0,0.2,-0.2,-0.7000000000000001,-1.2000000000000002,1.1,8.9,-7.6,-4.5,2.0,16
931,15618.0,0.0,-0.2,-0.2,-1.4000000000000001,1.1,9.4,-7.0,1.3,5.500000000000001,16
932,15634.0,-0.1,-0.2,0.5,-1.5,1.1,10.100000000000001,-2.4000000000000004,5.9,8.600000000000001,16
933,15651.0,-0.30000000000000004,-0.2,0.8,-1.7000000000000002,1.2000000000000002,10.4,5.500000000000001,10.0,13.000000000000002,16
934,15668.0,-0.30000000000000004,-0.1,1.1,-1.8,1.2000000000000002,10.700000000000001,11.6,10.5,16.4,16
935,15684.0,-0.2,-0.2,1.0,-1.7000000000000002,1.2000000000000002,10.600000000000001,14.400000000000002,7.8,19.1,16
936,15702.0,-0.1,-0.2,0.8,-1.6,1.2000000000000002,10.3,12.5,3.8,19.5,16
937,15718.0,-0.1,-0.2,0.6000000000000001,-1.6,1.3,10.200000000000001,8.100000000000001,-1.7,18.900000000000002,16
938,15738.0,-0.2,0.0,0.2,-1.7000000000000002,1.4000000000000001,9.8,6.300000000000001,-7.8,19.9,16
939,15751.0,-0.2,0.0,0.2,-1.7000000000000002,1.4000000000000001,9.8,6.699999999999999,-9.5,20.3,16
940,15774.0,-0.6000000000000001,0.0,-0.4,-2.1,1.4000000000000001,9.200000000000001,7.8,-9.3,20.8,16
941,15785.0,-0.8,0.1,-0.5,-2.2,1.6,9.1,7.300000000000001,-10.299999999999999,22.1,16
942,15801.0,-0.4,0.30000000000000004,-0.4,-2.1,1.8,9.200000000000001,0.9000000000000001,1.1,33.400000000000006,16
943,15818.0,0.30000000000000004,-0.1,-0.1,-1.5,1.4000000000000001,9.4,-9.8,9.5,41.1,16
944,15835.0,0.8,-0.8,0.8,-1.0,0.7000000000000001,10.3,-20.5,10.4,39.400000000000006,16
945,15851.0,0.9,-1.3,1.4000000000000001,-0.9,0.1,11.0,-25.200000000000003,1.2000000000000002,30.9,16
946,15872.0,0.7000000000000001,-1.2000000000000002,1.2000000000000002,-1.0,0.2,10.700000000000001,-17.5,-13.200000000000003,20.0,16
947,15884.0,0.6000000000000001,-1.0,0.8,-1.1,0.4,10.3,-12.200000000000001,-19.1,15.8,16
948,15901.0,0.30000000000000004,-0.6000000000000001,0.0,-1.4000000000000001,0.7000000000000001,9.600000000000001,-4.1,-25.4,13.3,16
949,15921.0,0.5,-0.2,-1.1,-1.0,1.1,8.5,1.6,-18.200000000000003,12.9,16
950,15935.0,0.5,-0.1,-1.3,-1.0,1.2000000000000002,8.3,0.1,-11.2,12.600000000000001,16
951,15951.0,0.4,-0.1,-1.1,-1.2000000000000002,1.2000000000000002,8.5,-14.300000000000002,12.7,10.299999999999999,16
952,15971.0,0.1,-0.2,-0.1,-1.4000000000000001,1.1,9.5,-23.2,19.1,7.9,16
953,15985.0,0.30000000000000004,-0.30000000000000004,0.9,-1.3,0.9,10.5,-24.7,20.900000000000002,6.500000000000001,16
954,16001.0,0.4,-0.30000000000000004,1.6,-1.3,0.8,11.200000000000001,-19.200000000000003,20.900000000000002,3.3000000000000007,16
955,16019.0,0.2,-0.2,1.6,-1.5,0.8,11.200000000000001,-11.700000000000001,12.8,-0.8,16
956,16040.0,0.2,0.30000000000000004,0.5,-1.5,1.4000000000000001,10.100000000000001,-0.6000000000000001,-5.300000000000001,-4.0,16
957,16055.0,0.30000000000000004,0.6000000000000001,-0.5,-1.4000000000000001,1.7000000000000002,9.1,2.4000000000000004,-7.1000000000000005,-4.0,16
958,16068.0,0.30000000000000004,0.7000000000000001,-0.9,-1.4000000000000001,1.7000000000000002,8.700000000000001,2.2,-5.6,-3.7000000000000006,16
959,16084.0,0.2,0.9,-1.5,-1.4000000000000001,1.9000000000000001,8.1,-1.5,-0.7,-3.1,16
960,16101.0,0.1,1.0,-1.5,-1.6,2.1,8.1,-7.8,6.0,-1.0,16
961,16118.0,-0.1,0.9,-1.2000000000000002,-1.7000000000000002,2.0,8.4,-10.1,8.4,2.4000000000000004,16
962,16136.0,0.0,0.7000000000000001,-0.9,-1.7000000000000002,1.9000000000000001,8.700000000000001,-10.8,8.4,5.0,16
963,16151.0,0.2,0.5,-0.4,-1.5,1.7000000000000002,9.200000000000001,-10.200000000000001,9.0,6.300000000000001,16
964,16167.0,0.30000000000000004,0.1,0.1,-1.4000000000000001,1.6,9.700000000000001,-7.699999999999999,10.4,5.1000000000000005,16
965,16184.0,0.1,0.0,0.4,-1.6,1.6,10.0,-4.1,8.899999999999999,3.3000000000000007,16
966,16201.0,0.0,0.1,0.4,-1.7000000000000002,1.7000000000000002,10.0,0.5,3.5,2.3,16
967,16217.0,0.1,0.2,0.0,-1.6,1.8,9.600000000000001,2.6,0.0,1.9,16
968,16238.0,0.2,0.2,-0.4,-1.4000000000000001,1.9000000000000001,9.1,1.4,-0.1,0.8,16
969,16251.0,0.2,0.30000000000000004,-0.5,-1.4000000000000001,2.0,9.1,0.4,-0.30000000000000004,0.4,16
970,16281.0,0.2,0.4,0.0,-1.4000000000000001,2.1,9.5,-5.4,-4.0,0.5,16
971,16284.0,0.2,0.4,0.0,-1.4000000000000001,2.1,9.5,-5.4,-4.0,0.5,16
972,16301.0,0.2,0.1,0.8,-1.3,1.8,10.3,-6.0,-3.9,-2.3,16
973,16320.0,0.1,0.0,1.4000000000000001,-1.5,1.7000000000000002,11.0,-0.4,-0.1,-5.300000000000001,16
974,16334.0,-0.30000000000000004,-0.1,1.8,-1.8,1.6,11.3,8.0,-1.6,-7.400000000000001,16
975,16359.0,-0.4,-0.4,1.0,-1.9000000000000001,1.4000000000000001,10.5,20.900000000000002,-16.6,-10.299999999999999,16
976,16368.0,-0.2,-0.4,0.5,-1.7000000000000002,1.4000000000000001,10.0,23.2,-22.9,-12.5,16
977,16385.0,-0.1,-0.30000000000000004,-0.5,-1.6,1.6,9.1,23.800000000000004,-27.700000000000003,-15.000000000000002,16
978,16402.0,-0.2,0.0,-1.1,-1.6,1.9000000000000001,8.4,19.300000000000004,-20.1,-14.200000000000001,16
979,16418.0,-0.2,0.1,-1.2000000000000002,-1.6,2.1,8.4,12.100000000000001,-4.6,-10.9,16
980,16434.0,-0.30000000000000004,-0.1,-0.30000000000000004,-1.7000000000000002,1.8,9.200000000000001,2.2,22.000000000000004,-4.9,16
981,16453.0,-0.1,-1.0,2.6,-1.6,0.9,12.100000000000001,-4.300000000000001,50.400000000000006,-2.9,16
982,16468.0,0.0,-1.7000000000000002,4.1000000000000005,-1.6,0.2,13.600000000000001,1.1,50.5,-7.0,16
983,16484.0,-0.1,-2.1,4.3,-1.8,-0.1,13.700000000000001,11.900000000000002,27.9,-14.5,16
984,16501.0,-0.1,-1.9000000000000001,3.3000000000000003,-2.0,0.1,12.700000000000001,20.5,1.6,-20.7,16
985,16522.0,0.0,-1.4000000000000001,1.5,-1.8,0.6000000000000001,11.0,26.000000000000004,-23.2,-21.300000000000004,16
986,16534.0,0.5,-1.1,-0.4,-1.3,1.0,9.0,23.0,-27.099999999999998,-18.3,16
987,16551.0,1.1,-0.8,-1.7000000000000002,-0.6000000000000001,1.3,7.800000000000001,9.2,-14.0,-15.5,16
988,16568.0,1.5,-0.9,-1.5,-0.2,1.2000000000000002,7.9,-5.4,5.1000000000000005,-13.700000000000001,16
989,16584.0,1.4000000000000001,-1.2000000000000002,-0.2,-0.4,0.9,9.200000000000001,-15.6,22.1,-12.600000000000001,16
990,16603.0,1.3,-1.7000000000000002,1.3,-0.5,0.30000000000000004,10.700000000000001,-11.700000000000001,19.1,-16.1,16
991,16620.0,1.3,-1.7000000000000002,1.4000000000000001,-0.6000000000000001,0.2,10.8,-3.4,10.4,-19.6,16
992,16634.0,1.1,-1.4000000000000001,0.8,-0.7000000000000001,0.5,10.200000000000001,6.9,-1.9,-22.5,16
993,16651.0,1.1,-1.1,-0.1,-0.8,0.8,9.3,12.8,-7.300000000000001,-22.2,16
994,16668.0,1.1,-0.8,-0.8,-0.8,1.1,8.6,14.200000000000001,-2.6,-20.5,16
995,16684.0,0.7000000000000001,-0.5,-1.0,-1.1,1.4000000000000001,8.4,11.4,5.8,-17.6,16
996,16701.0,0.30000000000000004,-0.30000000000000004,-0.8,-1.5,1.6,8.700000000000001,8.5,9.100000000000001,-12.100000000000001,16
997,16720.0,0.30000000000000004,-0.4,-0.8,-1.6,1.5,8.6,4.2,9.2,-4.1,16
998,16734.0,0.4,-0.7000000000000001,-0.8,-1.5,1.3,8.6,-2.5,5.2,-0.9000000000000001,16
999,16751.0,0.4,-0.8,-0.6000000000000001,-1.6,1.2000000000000002,8.8,-10.299999999999999,-0.8,0.0,16
1000,16768.0,0.2,-0.7000000000000001,-0.30000000000000004,-1.7000000000000002,1.2000000000000002,9.1,-13.6,-5.0,2.4000000000000004,16
1001,16784.0,0.2,-0.6000000000000001,-0.30000000000000004,-1.7000000000000002,1.3,9.200000000000001,-12.100000000000001,-7.9,9.600000000000001,16
1002,16801.0,0.4,-0.7000000000000001,-0.4,-1.4000000000000001,1.1,9.1,-10.5,-7.200000000000001,13.8,16
1003,16818.0,0.6000000000000001,-0.7000000000000001,-0.4,-1.2000000000000002,1.1,9.1,-11.5,-6.699999999999999,15.5,16
1004,16838.0,0.7000000000000001,-0.7000000000000001,-0.30000000000000004,-1.1,1.1,9.200000000000001,-13.200000000000003,-5.300000000000001,16.1,16
1005,16852.0,0.7000000000000001,-0.6000000000000001,0.0,-1.0,1.1,9.5,-13.8,-3.1,16.8,16
1006,16868.0,0.7000000000000001,-0.6000000000000001,0.2,-0.8,0.9,9.8,-13.399999999999999,-1.1,14.600000000000001,16
1007,16884.0,0.5,-0.5,0.4,-0.9,0.7000000000000001,10.100000000000001,-11.8,-1.6,10.4,16
1008,16905.0,0.1,-0.1,0.7000000000000001,-1.0,1.0,10.4,-5.4,-2.9,4.300000000000001,16
1009,16918.0,0.0,0.1,0.7000000000000001,-1.2000000000000002,1.1,10.4,-1.4,-2.1,3.2,16
1010,16934.0,-0.30000000000000004,0.30000000000000004,0.6000000000000001,-1.4000000000000001,1.4000000000000001,10.3,4.6,-0.5,3.9,16
1011,16960.0,-0.8,0.5,0.0,-1.9000000000000001,1.5,9.700000000000001,8.100000000000001,5.0,5.8,16
1012,16967.0,-1.5,0.7000000000000001,-0.2,-2.7,1.7000000000000002,9.5,3.4,10.5,9.3,16
1013,16984.0,-2.0,0.7000000000000001,0.1,-3.1,1.8,9.8,-6.4,17.400000000000002,19.700000000000003,16
1014,17001.0,-1.4000000000000001,0.30000000000000004,0.6000000000000001,-2.7,1.4000000000000001,10.3,-21.6,17.1,30.699999999999996,16
1015,17018.0,-0.6000000000000001,-0.4,1.7000000000000002,-1.9000000000000001,0.6000000000000001,11.3,-34.2,14.900000000000002,32.5,16
1016,17042.0,-0.2,-1.2000000000000002,2.3000000000000003,-1.5,-0.30000000000000004,12.0,-37.6,-10.0,21.400000000000002,16
1017,17058.0,-0.4,-1.0,1.5,-1.7000000000000002,-0.2,11.200000000000001,-29.700000000000006,-20.8,12.299999999999999,16
1018,17067.0,-0.6000000000000001,-0.6000000000000001,1.1,-1.8,0.1,10.8,-23.099999999999998,-26.1,8.600000000000001,16
1019,17085.0,-1.1,0.0,0.1,-2.3000000000000003,0.7000000000000001,9.8,-10.5,-29.900000000000006,7.699999999999999,16
1020,17101.0,-1.5,0.4,-0.4,-2.6,1.1,9.3,2.9,-34.800000000000004,13.900000000000002,16
1021,17118.0,-0.9,0.6000000000000001,-1.3,-1.9000000000000001,1.3,8.4,10.1,-20.0,23.700000000000003,16
1022,17134.0,-0.7000000000000001,0.6000000000000001,-1.7000000000000002,-1.6,1.3,8.0,6.300000000000001,-10.299999999999999,23.6,16
1023,17151.0,-0.9,0.2,-1.2000000000000002,-1.8,1.0,8.5,-18.200000000000003,11.2,20.400000000000002,16
1024,17178.0,-0.9,0.1,0.5,-1.9000000000000001,0.8,10.200000000000001,-32.8,10.700000000000001,15.8,16
1025,17184.0,-1.0,0.1,0.9,-2.0,0.8,10.600000000000001,-32.7,8.3,14.600000000000001,16
1026,17201.0,-1.1,0.30000000000000004,1.5,-2.1,0.8,11.3,-26.700000000000003,6.1000000000000005,14.400000000000002,16
1027,17218.0,-1.0,0.30000000000000004,1.2000000000000002,-2.1,0.8,11.0,-15.700000000000001,-2.7,15.399999999999999,16
1028,17235.0,-0.8,0.30000000000000004,0.4,-1.8,0.7000000000000001,10.100000000000001,-6.699999999999999,-11.3,14.100000000000001,16
1029,17254.0,-0.5,0.6000000000000001,-0.8,-1.5,1.0,8.9,-1.6,-12.600000000000001,10.4,16
1030,17268.0,-0.4,0.8,-1.1,-1.3,1.3,8.700000000000001,1.2000000000000002,-1.3,8.8,16
1031,17284.0,-0.6000000000000001,1.0,-1.0,-1.6,1.5,8.700000000000001,3.9,9.0,8.899999999999999,16
1032,17301.0,-0.8,1.0,-0.9,-1.9000000000000001,1.5,8.8,5.500000000000001,11.3,10.600000000000001,16
1033,17318.0,-0.6000000000000001,1.0,-0.9,-1.7000000000000002,1.5,8.9,5.0,9.4,12.0,16
1034,17334.0,-0.4,0.9,-1.0,-1.5,1.4000000000000001,8.700000000000001,2.7,7.500000000000001,12.0,16
1035,17351.0,-0.30000000000000004,0.7000000000000001,-1.0,-1.4000000000000001,1.3,8.700000000000001,-2.7,5.6,10.4,16
1036,17372.0,-0.1,0.5,-0.7000000000000001,-1.4000000000000001,1.2000000000000002,9.0,-6.8,3.2,7.9,16
1037,17384.0,0.0,0.30000000000000004,-0.4,-1.3,1.2000000000000002,9.200000000000001,-8.3,-1.7,4.800000000000001,16
1038,17404.0,0.5,0.1,-0.30000000000000004,-0.9,1.1,9.3,-3.9,-6.1000000000000005,-0.4,16
1039,17418.0,0.6000000000000001,0.1,-0.30000000000000004,-0.8,1.2000000000000002,9.4,-1.8000000000000003,-5.9,-2.6,16
1040,17435.0,0.8,0.1,-0.30000000000000004,-0.6000000000000001,1.2000000000000002,9.3,3.1,-4.1,-7.200000000000001,16
1041,17463.0,0.6000000000000001,0.1,0.2,-0.7000000000000001,1.2000000000000002,9.8,15.399999999999999,7.1000000000000005,-15.700000000000001,16
1042,17468.0,0.5,0.0,0.4,-0.8,1.2000000000000002,10.100000000000001,17.200000000000003,9.4,-17.300000000000004,16
1043,17484.0,0.5,0.0,0.8,-0.9,1.2000000000000002,10.4,18.5,12.0,-18.700000000000003,16
1044,17504.0,0.2,-0.2,1.4000000000000001,-1.2000000000000002,1.1,11.100000000000001,20.900000000000002,11.3,-23.400000000000002,16
1045,17518.0,0.2,-0.4,1.7000000000000002,-1.3,0.9,11.3,21.8,-1.7,-26.400000000000006,16
1046,17535.0,-0.1,-0.4,1.0,-1.6,1.0,10.600000000000001,21.7,-20.7,-31.3,16
1047,17551.0,-0.1,0.30000000000000004,0.0,-1.4000000000000001,1.7000000000000002,9.600000000000001,18.3,-34.0,-31.6,16
1048,17568.0,-0.2,0.2,-1.6,-1.5,1.6,8.0,10.0,-28.800000000000004,-29.300000000000004,16
1049,17585.0,0.30000000000000004,-0.2,-1.0,-1.0,1.3,8.700000000000001,-6.699999999999999,2.9,-25.4,16
1050,17602.0,0.1,-1.1,2.3000000000000003,-1.2000000000000002,0.30000000000000004,12.0,-6.8,40.6,-23.2,16
1051,17617.0,-0.1,-1.5,4.1000000000000005,-1.5,-0.1,13.700000000000001,5.7,44.00000000000001,-24.5,16
1052,17635.0,-0.6000000000000001,-1.7000000000000002,4.3,-2.1,-0.30000000000000004,13.9,23.0,26.700000000000003,-26.799999999999997,16
1053,17651.0,-0.6000000000000001,-1.6,3.5,-2.2,-0.1,13.0,32.7,8.8,-27.0,16
1054,17667.0,-0.4,-1.2000000000000002,1.9000000000000001,-2.0,0.30000000000000004,11.5,30.9,-0.6000000000000001,-26.000000000000004,16
1055,17685.0,-0.4,-0.9,0.9,-2.0,0.7000000000000001,10.4,19.6,-0.9000000000000001,-22.6,16
1056,17701.0,-0.1,-1.0,0.5,-1.8,0.7000000000000001,10.0,1.3,-3.5,-16.3,16
1057,17718.0,0.30000000000000004,-1.3,0.5,-1.4000000000000001,0.30000000000000004,10.0,-11.1,-11.1,-14.100000000000001,16
1058,17735.0,0.7000000000000001,-1.6,0.5,-1.0,0.0,10.0,-17.300000000000004,-20.0,-15.299999999999999,16
1059,17755.0,1.1,-1.6,0.1,-0.5,-0.1,9.700000000000001,-12.100000000000001,-22.3,-19.5,16
1060,17768.0,1.1,-1.5,-0.1,-0.4,-0.1,9.5,-8.4,-20.0,-20.599999999999998,16
1061,17786.0,1.1,-1.4000000000000001,-0.30000000000000004,-0.30000000000000004,0.0,9.3,2.0,-11.2,-21.8,16
1062,17801.0,0.8,-1.1,-0.6000000000000001,-0.7000000000000001,0.30000000000000004,9.0,15.5,-2.4000000000000004,-22.000000000000004,16
1063,17818.0,0.5,-1.0,-0.9,-0.9,0.4,8.700000000000001,21.900000000000002,-2.5,-20.2,16
1064,17834.0,0.5,-0.9,-1.3,-1.0,0.6000000000000001,8.3,21.0,-6.8,-17.6,16
1065,17852.0,0.4,-0.7000000000000001,-1.7000000000000002,-1.1,0.8,7.9,14.800000000000002,-8.899999999999999,-15.299999999999999,16
1066,17890.0,0.1,-0.4,-1.4000000000000001,-1.3,1.2000000000000002,8.200000000000001,-6.8,-8.4,-8.700000000000001,16
1067,17901.0,-0.1,-0.4,-0.8,-1.5,1.1,8.8,-13.8,-6.1000000000000005,-2.7,16
1068,17918.0,-0.30000000000000004,-0.4,0.1,-1.6,1.1,9.700000000000001,-14.700000000000001,-4.800000000000001,1.6,16
1069,17935.0,0.1,-0.7000000000000001,0.7000000000000001,-1.2000000000000002,0.7000000000000001,10.3,-5.0,-3.9,7.1000000000000005,16
1070,17968.0,0.4,-0.9,0.9,-1.0,0.6000000000000001,10.5,7.1000000000000005,2.5,3.7000000000000006,16
1071,17985.0,0.1,-0.6000000000000001,1.1,-1.2000000000000002,0.8,10.700000000000001,14.100000000000001,4.800000000000001,1.0,16
1072,18014.0,-0.30000000000000004,0.0,0.7000000000000001,-1.7000000000000002,1.5,10.3,27.099999999999998,3.5,6.9,16
1073,18017.0,-0.2,0.0,0.4,-1.6,1.6,10.0,26.200000000000003,2.0,8.4,16
1074,18035.0,0.0,0.0,-0.1,-1.3,1.7000000000000002,9.4,21.400000000000002,0.2,10.700000000000001,16
1075,18051.0,0.1,0.1,-0.2,-1.2000000000000002,1.8,9.3,12.100000000000001,-1.2000000000000002,12.7,16
1076,18070.0,0.1,-0.1,0.30000000000000004,-1.2000000000000002,1.7000000000000002,9.9,1.5,-0.5,16.0,16
1077,18084.0,0.1,-0.2,0.5,-1.2000000000000002,1.5,10.100000000000001,0.6000000000000001,-0.1,16.5,16
1078,18101.0,-0.30000000000000004,-0.5,0.5,-1.6,1.2000000000000002,10.100000000000001,1.0,-1.3,17.200000000000003,16
1079,18118.0,-0.6000000000000001,-0.4,0.2,-1.9000000000000001,1.3,9.8,-1.2000000000000002,0.1,20.599999999999998,16
1080,18135.0,-0.6000000000000001,-0.2,0.30000000000000004,-2.0,1.4000000000000001,9.8,-6.500000000000001,6.0,27.9,16
1081,18151.0,0.1,-0.5,0.9,-1.3,0.9,10.5,-15.100000000000001,10.5,34.800000000000004,16
1082,18168.0,0.6000000000000001,-1.2000000000000002,1.6,-0.9,0.30000000000000004,11.200000000000001,-20.1,9.899999999999999,32.300000000000004,16
1083,18186.0,0.30000000000000004,-1.5,1.9000000000000001,-1.2000000000000002,-0.1,11.5,-18.6,-4.7,24.3,16
1084,18201.0,0.0,-1.3,1.1,-1.4000000000000001,0.1,10.700000000000001,-13.399999999999999,-23.5,18.1,16
1085,18218.0,-0.2,-0.8,0.0,-1.6,0.5,9.700000000000001,-6.9,-39.400000000000006,15.2,16
1086,18234.0,-0.1,-0.5,-0.9,-1.4000000000000001,0.8,8.700000000000001,-2.9,-39.300000000000004,16.8,16
1087,18259.0,0.0,-0.30000000000000004,-1.8,-1.1,1.0,7.9,-4.6,-18.200000000000003,18.700000000000003,16
1088,18267.0,-0.1,-0.2,-1.3,-1.1,1.1,8.3,-8.899999999999999,11.3,21.8,16
1089,18284.0,-0.4,-0.5,-0.6000000000000001,-1.5,0.8,9.1,-12.7,24.8,22.3,16
1090,18301.0,-0.30000000000000004,-0.7000000000000001,0.4,-1.5,0.5,10.0,-15.299999999999999,27.9,21.6,16
1091,18318.0,-0.1,-0.7000000000000001,1.0,-1.3,0.5,10.700000000000001,-14.800000000000002,25.5,18.8,16
1092,18343.0,0.0,-0.5,1.1,-1.4000000000000001,0.7000000000000001,10.8,-11.000000000000002,14.700000000000001,11.2,16
1093,18357.0,-0.2,-0.1,0.8,-1.6,1.0,10.5,-6.4,4.300000000000001,7.400000000000001,16
1094,18367.0,-0.30000000000000004,0.1,0.6000000000000001,-1.7000000000000002,1.2000000000000002,10.200000000000001,-4.4,-0.6000000000000001,7.1000000000000005,16
1095,18384.0,-0.2,0.30000000000000004,-0.30000000000000004,-1.6,1.4000000000000001,9.4,-1.7,-9.700000000000001,7.6,16
1096,18401.0,0.0,0.4,-1.3,-1.3,1.5,8.4,-2.9,-12.8,6.9,16
1097,18417.0,0.2,0.6000000000000001,-1.8,-1.1,1.6,7.800000000000001,-6.0,-9.8,4.9,16
1098,18434.0,0.1,0.7000000000000001,-1.9000000000000001,-1.1,1.8,7.7,-6.1000000000000005,-0.5,4.9,16
1099,18450.0,0.2,0.7000000000000001,-1.3,-1.1,1.8,8.3,-2.8,10.9,6.1000000000000005,16
1100,18474.0,0.2,0.5,-0.6000000000000001,-1.1,1.6,9.1,0.9000000000000001,19.400000000000002,5.6,16
1101,18484.0,0.1,0.30000000000000004,0.1,-1.2000000000000002,1.4000000000000001,9.700000000000001,4.9,18.1,2.7,16
1102,18501.0,-0.1,0.4,0.30000000000000004,-1.5,1.5,9.9,6.8,7.9,-0.2,16
1103,18517.0,0.0,0.6000000000000001,0.0,-1.4000000000000001,1.7000000000000002,9.600000000000001,5.8,-1.8000000000000003,-0.8,16
1104,18535.0,0.2,0.6000000000000001,-0.5,-1.2000000000000002,1.7000000000000002,9.1,0.9000000000000001,-6.699999999999999,-0.5,16
1105,18560.0,0.4,0.7000000000000001,-0.7000000000000001,-0.9,1.8,9.0,-7.200000000000001,-4.7,-1.3,16
1106,18567.0,0.5,0.6000000000000001,-0.5,-0.9,1.7000000000000002,9.1,-8.3,-3.2,-1.8000000000000003,16
1107,18584.0,0.5,0.5,0.0,-0.9,1.6,9.700000000000001,-7.1000000000000005,1.5,-3.4,16
1108,18600.0,0.4,0.4,0.5,-1.0,1.5,10.100000000000001,-1.0,4.6,-6.0,16
1109,18617.0,0.0,0.0,1.0,-1.2000000000000002,1.4000000000000001,10.700000000000001,6.1000000000000005,5.500000000000001,-8.899999999999999,16
1110,18636.0,-0.2,0.1,1.4000000000000001,-1.3,1.5,10.9,19.1,3.8,-13.200000000000003,16
1111,18650.0,-0.4,0.1,1.4000000000000001,-1.6,1.6,11.0,27.800000000000004,-2.6,-14.5,16
1112,18667.0,-0.5,0.0,0.9,-1.7000000000000002,1.6,10.5,31.099999999999998,-12.4,-14.900000000000002,16
1113,18684.0,-0.4,0.6000000000000001,-0.4,-1.6,2.2,9.200000000000001,25.8,-18.3,-14.0,16
1114,18702.0,-0.7000000000000001,0.7000000000000001,-0.8,-1.8,2.4000000000000004,8.700000000000001,5.300000000000001,-10.4,-11.4,16
1115,18717.0,-0.6000000000000001,0.2,0.0,-1.7000000000000002,1.9000000000000001,9.600000000000001,-13.3,-3.5,-6.0,16
1116,18738.0,0.0,-0.9,2.7,-1.1,0.7000000000000001,12.4,-19.5,17.6,-4.5,16
1117,18755.0,0.30000000000000004,-1.7000000000000002,4.0,-0.9,-0.1,13.600000000000001,-3.6000000000000005,20.3,-10.5,16
1118,18767.0,0.4,-1.9000000000000001,4.0,-0.9,-0.4,13.600000000000001,5.300000000000001,15.100000000000001,-14.600000000000001,16
1119,18795.0,0.4,-1.6,1.4000000000000001,-0.8,0.1,11.0,35.699999999999996,-14.0,-29.200000000000003,16
1120,18811.0,0.6000000000000001,-1.1,-0.1,-0.6000000000000001,0.6000000000000001,9.5,39.0,-10.200000000000001,-29.900000000000006,16
1121,18817.0,0.6000000000000001,-0.9,-0.8,-0.6000000000000001,0.9,8.700000000000001,36.1,-0.6000000000000001,-29.600000000000005,16
1122,18834.0,0.6000000000000001,-0.8,-1.4000000000000001,-0.6000000000000001,1.1,8.1,24.3,17.799999999999997,-27.5,16
1123,18852.0,0.6000000000000001,-0.9,-0.30000000000000004,-0.7000000000000001,1.1,9.200000000000001,7.200000000000001,37.300000000000004,-24.1,16
1124,18867.0,0.4,-1.3,1.3,-1.0,0.6000000000000001,10.8,-1.0,44.2,-22.8,16
1125,18884.0,0.30000000000000004,-1.7000000000000002,2.5,-1.2000000000000002,0.2,12.0,-1.6,31.799999999999997,-23.2,16
1126,18903.0,0.30000000000000004,-1.7000000000000002,2.5,-1.3,0.1,12.0,2.9,4.4,-26.6,16
1127,18918.0,0.4,-1.4000000000000001,1.3,-1.2000000000000002,0.5,10.8,6.600000000000001,-17.7,-27.700000000000003,16
1128,18941.0,0.9,-1.1,-1.0,-0.7000000000000001,0.8,8.5,5.2,-29.700000000000006,-25.300000000000004,16
1129,18964.0,1.1,-1.0,-2.0,-0.4,0.9,7.5,-1.8000000000000003,-13.3,-22.6,16
1130,18967.0,1.1,-1.0,-1.8,-0.4,0.9,7.7,-2.6,-4.9,-21.900000000000002,16
1131,18985.0,1.0,-1.1,-1.4000000000000001,-0.5,0.8,8.200000000000001,-2.0,3.6000000000000005,-21.300000000000004,16
1132,19001.0,0.2,-1.2000000000000002,-0.2,-1.3,0.6000000000000001,9.3,6.699999999999999,15.100000000000001,-17.6,16
1133,19017.0,0.1,-1.2000000000000002,0.0,-1.5,0.6000000000000001,9.5,11.3,4.4,-15.100000000000001,16
1134,19039.0,0.1,-1.1,-0.4,-1.4000000000000001,0.8,9.1,8.4,-12.200000000000001,-12.7,16
1135,19063.0,0.1,-0.8,-0.9,-1.4000000000000001,1.0,8.6,-0.6000000000000001,-18.8,-11.4,16
1136,19068.0,0.1,-0.7000000000000001,-1.1,-1.4000000000000001,1.1,8.5,-4.6,-20.1,-10.600000000000001,16
1137,19084.0,-0.1,-0.4,-1.2000000000000002,-1.6,1.4000000000000001,8.3,-11.4,-18.1,-7.0,16
1138,19105.0,-0.1,-0.2,-0.7000000000000001,-1.5,1.6,8.8,-9.4,-5.4,-0.4,16
1139,19118.0,-0.1,-0.2,-0.6000000000000001,-1.5,1.6,9.0,-6.4,-1.0,1.3,16
1140,19135.0,0.1,-0.4,-0.1,-1.3,1.4000000000000001,9.5,4.1,6.2,3.9,16
1141,19153.0,0.2,-0.30000000000000004,0.2,-1.2000000000000002,1.5,9.700000000000001,6.2,6.600000000000001,2.6,16
1142,19167.0,0.1,0.0,0.6000000000000001,-1.3,1.8,10.100000000000001,6.4,7.699999999999999,1.6,16
1143,19185.0,-0.1,0.2,0.9,-1.5,2.0,10.4,5.500000000000001,6.0,3.4,16
1144,19201.0,-0.2,0.4,1.1,-1.6,2.2,10.600000000000001,3.1,0.8,6.699999999999999,16
1145,19221.0,-0.1,0.2,1.0,-1.5,2.0,10.5,-0.30000000000000004,-9.700000000000001,11.6,16
1146,19234.0,0.1,0.2,0.9,-1.3,2.0,10.5,-1.6,-11.5,12.299999999999999,16
1147,19256.0,0.2,-0.2,0.6000000000000001,-1.2000000000000002,1.6,10.200000000000001,-4.800000000000001,-10.4,9.5,16
1148,19267.0,-0.1,-0.30000000000000004,0.7000000000000001,-1.4000000000000001,1.5,10.200000000000001,-4.7,-9.3,8.4,16
1149,19287.0,-0.8,-0.30000000000000004,0.8,-2.1,1.5,10.3,0.6000000000000001,-3.8,7.1000000000000005,16
1150,19301.0,-1.3,0.0,0.4,-2.7,1.8,10.0,5.300000000000001,-3.3000000000000007,13.200000000000003,16
1151,19319.0,-0.9,0.1,-0.1,-2.4000000000000004,1.8,9.5,2.5,-2.3,22.5,16
1152,19334.0,-0.1,-0.30000000000000004,0.2,-1.6,1.4000000000000001,9.700000000000001,-7.500000000000001,5.0,29.300000000000004,16
1153,19355.0,-0.1,-0.9,0.7000000000000001,-1.7000000000000002,0.7000000000000001,10.3,-15.8,3.5,28.800000000000004,16
1154,19367.0,-0.4,-1.1,1.2000000000000002,-2.0,0.5,10.700000000000001,-18.700000000000003,-9.899999999999999,25.0,16
1155,19385.0,-0.5,-0.9,1.1,-2.1,0.6000000000000001,10.600000000000001,-15.299999999999999,-24.3,23.099999999999998,16
1156,19400.0,-0.4,-0.7000000000000001,0.2,-1.9000000000000001,0.9,9.8,-11.3,-31.5,23.700000000000003,16
1157,19417.0,-0.5,-0.6000000000000001,-0.9,-1.9000000000000001,0.9,8.700000000000001,-13.3,-30.699999999999996,25.0,16
1158,19434.0,-0.1,-0.5,-1.2000000000000002,-1.4000000000000001,1.0,8.4,-23.800000000000004,-15.5,25.1,16
1159,19451.0,-0.2,-0.6000000000000001,-0.4,-1.4000000000000001,0.9,9.200000000000001,-30.9,7.300000000000001,23.400000000000002,16
1160,19467.0,-0.4,-0.7000000000000001,1.0,-1.7000000000000002,0.6000000000000001,10.600000000000001,-26.400000000000006,19.799999999999997,22.3,16
1161,19484.0,-0.30000000000000004,-0.7000000000000001,1.2000000000000002,-1.6,0.5,10.8,-20.599999999999998,19.1,21.300000000000004,16
1162,19502.0,0.0,-0.7000000000000001,0.9,-1.3,0.6000000000000001,10.5,-6.8,9.2,17.9,16
1163,19518.0,0.2,-0.4,0.30000000000000004,-1.1,0.8,9.9,-3.0,3.0,14.700000000000001,16
1164,19534.0,0.30000000000000004,-0.1,-0.4,-1.1,1.1,9.200000000000001,-2.9,-1.2000000000000002,11.700000000000001,16
1165,19554.0,0.4,0.2,-1.1,-1.0,1.4000000000000001,8.6,-6.0,-2.1,10.5,16
1166,19569.0,0.5,0.4,-1.3,-0.9,1.6,8.3,-9.600000000000001,2.2,9.899999999999999,16
1167,19587.0,0.5,0.4,-1.2000000000000002,-0.9,1.6,8.5,-10.8,8.3,8.8,16
1168,19600.0,0.5,0.4,-1.2000000000000002,-0.9,1.6,8.5,-10.8,8.3,8.8,16
1169,19618.0,0.0,0.30000000000000004,-0.30000000000000004,-1.4000000000000001,1.5,9.4,2.6,17.9,6.4,16
1170,19634.0,-0.1,0.30000000000000004,-0.2,-1.5,1.5,9.5,9.3,15.100000000000001,6.2,16
1171,19656.0,0.0,0.5,-0.30000000000000004,-1.5,1.7000000000000002,9.3,14.200000000000001,10.9,5.8,16
1172,19668.0,0.1,0.5,-0.6000000000000001,-1.4000000000000001,1.8,9.0,15.8,9.8,6.300000000000001,16
1173,19686.0,0.2,0.5,-1.0,-1.3,1.9000000000000001,8.6,14.800000000000002,10.600000000000001,6.300000000000001,16
1174,19700.0,0.2,0.7000000000000001,-1.4000000000000001,-1.4000000000000001,2.0,8.200000000000001,12.0,9.600000000000001,7.0,16
1175,19719.0,0.2,0.6000000000000001,-1.5,-1.3,2.1,8.1,7.300000000000001,9.5,8.4,16
1176,19738.0,0.4,0.5,-1.0,-1.2000000000000002,2.0,8.6,-0.9000000000000001,6.500000000000001,9.8,16
1177,17539.0,0.6000000000000001,0.2,-0.5,-1.0,1.8,9.0,-6.600000000000001,0.6000000000000001,7.9,16
1178,17549.0,0.6000000000000001,0.30000000000000004,0.1,-1.0,1.8,9.700000000000001,-11.900000000000002,-6.2,4.1,16
1179,17561.0,0.5,0.4,1.0,-1.0,1.9000000000000001,10.100000000000001,-12.5,-7.200000000000001,2.5,16
1180,17578.0,0.5,0.30000000000000004,1.8,-1.0,1.8,11.4,-5.7,-4.2,-0.30000000000000004,16
1181,17595.0,0.5,0.1,2.8000000000000003,-1.0,1.6,12.3,6.500000000000001,-0.7,-2.6,16
1182,17612.0,0.5,-0.30000000000000004,3.0,-1.0,1.2000000000000002,12.5,18.0,-7.0,-5.8,16
1183,17635.0,0.5,-0.5,1.1,-0.9,1.1,10.600000000000001,27.3,-37.7,-17.1,16
1184,17646.0,0.6000000000000001,-0.2,0.1,-0.8,1.4000000000000001,9.600000000000001,25.1,-43.4,-19.799999999999997,16
1185,17662.0,0.4,0.5,-1.2000000000000002,-0.9,2.2,8.3,12.0,-35.1,-21.1,16
1186,17679.0,0.6000000000000001,0.4,-1.1,-0.6000000000000001,2.2,8.5,-3.7000000000000006,-11.8,-19.6,16
1187,17695.0,0.4,-0.2,1.0,-0.8,1.5,10.600000000000001,-12.200000000000001,16.4,-18.3,16
