,ms,accelX,accelY,accelZ,accelWithGX,accelWithGY,accelWithGZ,rotRateAlpha,rotRateBeta,rotRateGamma,interval
0,289.0,0.2055445909500122,-0.05321550369262695,-0.2501697540283203,-0.7592926025390625,3.188995361328125,8.847122192382812,-5.926637105090104,-1.8621827753122764,1.8429489626095206,16
1,306.0,0.11939960718154907,-0.06481552124023438,-0.38757896423339844,-0.6240997314453125,3.129180908203125,8.49298095703125,-6.5692213022049035,-2.220631102954546,2.4514368553876165,16
2,324.0,0.11939960718154907,-0.06481552124023438,-0.38757896423339844,-0.7162322998046875,3.1124267578125,8.911727905273438,-6.5692213022049035,-2.220631102954546,2.4514368553876165,16
3,340.0,0.1254555583000183,-0.08498001098632812,-0.2796907424926758,-0.773651123046875,3.005950927734375,9.296981811523438,-9.896670899781675,-0.8086943977295097,1.8910334943664102,16
4,360.0,0.061551809310913086,-0.16170930862426758,0.09292411804199219,-0.773651123046875,3.005950927734375,9.296981811523438,-5.904780499746064,0.0,2.327291337033465,16
5,379.0,0.05696380138397217,-0.14535093307495117,0.0852975845336914,-0.686309814453125,3.0274810791015625,9.139053344726562,-0.9826729762680745,0.45024607008724055,2.407723644699535,16
6,397.0,0.13504642248153687,-0.11810827255249023,-0.06932449340820312,-0.620513916015625,3.1136322021484375,8.63775634765625,0.7046569562918755,-0.7081540131469221,2.2678413704976736,16
7,413.0,0.18586456775665283,-0.029767274856567383,-0.5454530715942383,-0.581024169921875,3.183013916015625,8.597076416015625,-1.5859152837636006,-2.6490205676977454,1.2012390297084825,16
8,430.0,0.20742374658584595,0.046095848083496094,-0.5641613006591797,-0.626495361328125,3.1507110595703125,9.180923461914062,-4.892382540210093,-3.2662511026134577,-0.022730869557802437,16
9,447.0,0.14723795652389526,0.02532672882080078,0.014047622680664062,-0.6121368408203125,3.047821044921875,9.408233642578125,-4.495466587162312,-3.027576972256532,-0.2753932273349141,16
10,464.0,0.14788365364074707,-0.06621170043945312,0.2282886505126953,-0.6121368408203125,3.047821044921875,9.408233642578125,-1.8516916047471368,-2.8002682766785076,-0.3295976085881353,16
11,481.0,0.13672727346420288,-0.06270003318786621,0.21872997283935547,-0.6133270263671875,3.118408203125,9.19049072265625,1.1627714043029707,-1.6645990630021477,-0.3645681771386006,16
12,497.0,0.12855452299118042,0.0025272369384765625,0.0025081634521484375,-0.683929443359375,3.177032470703125,9.044525146484375,2.8072623903886007,-0.0979175919413028,-0.3680652339936471,16
13,514.0,0.05583453178405762,0.05063939094543457,-0.13550853729248047,-0.6300811767578125,3.1004638671875,9.04931640625,3.597597239629116,0.11889993307158198,0.5385467556771654,16
14,531.0,0.1049429178237915,-0.03600764274597168,-0.1225433349609375,-0.5822296142578125,3.0573883056640625,8.959579467773438,4.727146603809145,-0.3129865885266643,1.057859698651575,16
15,548.0,0.14463591575622559,-0.08944344520568848,-0.20099639892578125,-0.5116424560546875,3.0633697509765625,8.784912109375,5.086469195665176,-1.211730200273622,1.3883315714534719,16
16,565.0,0.20164340734481812,-0.09244871139526367,-0.36005115509033203,-0.5116424560546875,3.0633697509765625,8.784912109375,3.702508945280512,-3.0048461026987296,1.2213471066250001,16
17,582.0,0.1864013671875,-0.09722495079040527,-0.3468446731567383,-0.4900970458984375,3.1148223876953125,8.682022094726562,2.0064363705829455,-3.006594631126253,1.3288816049176808,16
18,599.0,0.19428694248199463,-0.047463178634643555,-0.43560123443603516,-0.4829254150390625,3.0908966064453125,8.717910766601562,0.15911608690461704,-1.727546086392985,1.385708778812187,16
19,617.0,0.1897466778755188,-0.06815743446350098,-0.3887805938720703,-0.49249267578125,3.1243896484375,8.843536376953125,-1.2230956350525233,-1.8534401331746602,1.160148611661686,16
20,634.0,0.16814738512039185,-0.0297701358795166,-0.25749683380126953,-0.4889068603515625,3.0801239013671875,8.93206787109375,-1.9426150829783466,-2.7399440459289552,0.9109833107396207,16
21,655.0,0.1588696837425232,-0.0679166316986084,-0.16626262664794922,-0.52838134765625,3.1566925048828125,8.915313720703125,-1.2493235614653724,-3.2295320056354693,-0.12064846149910523,16
22,676.0,0.09787559509277344,0.010942935943603516,-0.17540264129638672,-0.5714569091796875,3.2093353271484375,8.875839233398438,-0.12939110363672154,-2.680494079393164,-0.21332046815783823,16
23,692.0,0.09787559509277344,0.010942935943603516,-0.17540264129638672,-0.632476806640625,3.20574951171875,9.044525146484375,-0.12939110363672154,-2.680494079393164,-0.21332046815783823,16
24,709.0,-0.015067517757415771,0.05585789680480957,-0.039821624755859375,-0.508056640625,3.1746368408203125,9.063674926757812,0.943331086648801,-0.7632326586139049,0.5376724914634038,16
25,726.0,0.10323899984359741,0.019693613052368164,-0.01879119873046875,-0.5547027587890625,3.18182373046875,8.975143432617188,2.4182148152646743,-1.5509447152131355,-0.3532027423596994,16
26,744.0,0.10323899984359741,0.019693613052368164,-0.01879119873046875,-0.5547027587890625,3.18182373046875,8.975143432617188,2.4182148152646743,-1.5509447152131355,-0.3532027423596994,16
27,761.0,0.043271660804748535,0.01033782958984375,-0.09687614440917969,-0.5427398681640625,3.28350830078125,8.812423706054688,3.4900627413364353,-1.9399922903370617,-1.4862491633947745,16
28,781.0,0.051372408866882324,0.10143303871154785,-0.24992084503173828,-0.6061553955078125,3.24163818359375,8.63177490234375,2.481161838655512,-0.8288024746460273,-1.2773000163057446,16
29,798.0,-0.013581693172454834,0.05560159683227539,-0.4179239273071289,-0.569061279296875,3.28350830078125,8.611434936523438,-0.5053247155542234,-1.632251287092967,-1.597280718542502,16
30,814.0,0.018882811069488525,0.09923911094665527,-0.42792320251464844,-0.579833984375,3.210540771484375,8.9954833984375,-2.7198359690124376,-2.778411671334467,-2.169049514342609,16
31,832.0,0.0014552474021911621,0.03192710876464844,-0.045317649841308594,-0.5427398681640625,3.2201080322265625,9.060089111328125,-1.9670944809636723,-3.6893949820740874,-2.017801805361847,16
32,849.0,0.02986675500869751,0.04217076301574707,0.017622947692871094,-0.48651123046875,3.21173095703125,8.906951904296875,0.7868377923854689,-3.534650216238279,-1.7153063874003223,16
33,866.0,0.07616639137268066,0.029695749282836914,-0.13111400604248047,-0.48651123046875,3.21173095703125,8.906951904296875,1.9111415712829278,-3.6745324904401397,-2.1401987952884753,16
34,883.0,0.06673896312713623,0.02469468116760254,-0.1264505386352539,-0.3190155029296875,3.2021636962890625,8.680816650390625,1.7074380094764676,-4.110790333107194,-3.8345228415585186,16
35,900.0,0.22147870063781738,0.013217926025390625,-0.3426475524902344,-0.4817352294921875,3.2440338134765625,8.696380615234375,-0.010491170565139585,-3.843265483696135,-4.940467071966983,16
36,917.0,0.05281496047973633,0.05534029006958008,-0.31888580322265625,-0.4530181884765625,3.2201080322265625,8.695175170898438,-0.791209113454277,-2.952390249873032,-4.796213476696314,16
37,936.0,0.07595962285995483,0.034037113189697266,-0.31262969970703125,-0.409942626953125,3.1734466552734375,8.807647705078125,-1.3734690798195242,-2.934904965597799,-4.568030516904527,16
38,957.0,0.06733965873718262,-0.07909488677978516,-0.1237945556640625,-0.451812744140625,3.094482421875,8.880630493164062,-1.9968194642315678,-2.4085979089132965,-4.0119984769521295,16
39,974.0,0.06733965873718262,-0.07909488677978516,-0.1237945556640625,-0.368072509765625,3.0454254150390625,9.042144775390625,-1.9968194642315678,-2.4085979089132965,-4.0119984769521295,16
40,993.0,0.06267565488815308,-0.07078218460083008,-0.12267017364501953,-0.457794189453125,3.083709716796875,8.86865234375,-2.2870751832004297,-2.7224587616537224,-4.369572540380638,16
41,1010.0,0.04273819923400879,-0.06727266311645508,-0.1355123519897461,-0.5295867919921875,3.1626739501953125,8.781326293945312,-1.0062781100396385,-3.955171303057624,-4.947461185677076,16
42,1028.0,0.04273819923400879,-0.06727266311645508,-0.1355123519897461,-0.5116424560546875,3.159088134765625,8.897369384765625,-1.0062781100396385,-3.955171303057624,-4.947461185677076,16
43,1045.0,-0.019413739442825317,0.01741814613342285,-0.10177040100097656,-0.6061553955078125,3.15191650390625,8.877029418945312,-1.925129798703114,-2.936653494025322,-5.443168994879922,16
44,1062.0,-0.019413739442825317,0.01741814613342285,-0.10177040100097656,-0.6061553955078125,3.15191650390625,8.877029418945312,-1.925129798703114,-2.936653494025322,-5.443168994879922,16
45,1079.0,-0.11317497491836548,0.013676881790161133,-0.1201467514038086,-0.551116943359375,3.2428436279296875,8.629379272460938,-0.36281964871107736,-2.8238734104500716,-5.667854897816661,16
46,1096.0,-0.0655646026134491,0.10063695907592773,-0.3547506332397461,-0.63726806640625,3.246429443359375,8.512130737304688,0.6172305349157123,-5.77451513189558,-6.179299462867216,16
47,1115.0,-0.15909028053283691,0.10111021995544434,-0.45943164825439453,-0.3357696533203125,3.20574951171875,8.108932495117188,0.24042265878444882,-7.70838757273631,-6.473926502904886,16
48,1131.0,0.12005159258842468,0.06170797348022461,-0.8511838912963867,-0.2950897216796875,3.35888671875,7.881622314453125,-1.164519932730494,-12.980200781718953,-8.092189562577667,16
49,1149.0,0.1271590292453766,0.21981334686279297,-1.066563606262207,-0.2950897216796875,3.35888671875,7.881622314453125,-4.293511553783375,-17.274586599716088,-9.513743174154081,16
50,1167.0,0.08954384922981262,0.23499107360839844,-1.0587081909179688,-0.199371337890625,3.48211669921875,8.010833740234375,-9.02065815759252,-17.546482770195958,-10.972015882708483,16
51,1184.0,0.15344864130020142,0.38338351249694824,-0.9276037216186523,-0.2017669677734375,3.4210968017578125,8.471450805664062,-13.527490179533734,-13.15592788868504,-12.487990029371153,16
52,1201.0,0.13546782732009888,0.36020374298095703,-0.4753599166870117,-0.4183197021484375,3.2918853759765625,9.239547729492188,-18.33594335522271,-6.337541285558071,-13.892932620886096,16
53,1220.0,-0.07744252681732178,0.2792351245880127,0.27118492126464844,-0.3238067626953125,3.046630859375,10.05072021484375,-20.43068041139558,-1.4906204844635829,-14.66053660056881,16
54,1237.0,0.02942037582397461,0.0834054946899414,1.0509939193725586,-0.2424468994140625,2.8504180908203125,10.390487670898438,-16.903024308867394,1.1286750999662671,-15.366067821074447,16
55,1259.0,0.13078424334526062,-0.07500815391540527,1.360468864440918,-0.49847412109375,2.8288726806640625,10.13446044921875,-9.654499712569704,4.76211717235961,-17.062140395772012,16
56,1283.0,0.16015779972076416,-0.05949115753173828,1.3384923934936523,-0.8645782470703125,2.90545654296875,9.631973266601562,0.023605133771564066,7.79931105096752,-17.900559776769416,16
57,1299.0,-0.3694837689399719,-0.03609585762023926,0.572596549987793,-1.008148193359375,2.8851165771484375,8.963180541992188,11.909227119860953,13.940142888429225,-12.243196049517897,16
58,1316.0,-0.46531981229782104,-0.0831291675567627,-0.08363819122314453,-0.866973876953125,2.8348541259765625,8.440338134765625,10.243753792645043,10.384510331060666,-9.322279311340283,16
59,1334.0,-0.46531981229782104,-0.0831291675567627,-0.08363819122314453,-1.0464324951171875,2.8324737548828125,8.430770874023438,10.243753792645043,10.384510331060666,-9.322279311340283,16
60,1352.0,-0.4450374245643616,-0.15051627159118652,-0.5913658142089844,-1.0464324951171875,2.8324737548828125,8.430770874023438,-2.906054246543665,4.607372406523801,-4.996419981647728,16
61,1369.0,-0.4256724715232849,-0.13735103607177734,-0.586669921875,-1.2151336669921875,2.77862548828125,9.063674926757812,-5.31902347652577,3.919326470293397,-1.0360030933075342,16
62,1385.0,-0.579355001449585,-0.17527437210083008,0.04173469543457031,-1.11224365234375,2.6446380615234375,9.381927490234375,-5.229848526722083,2.730327139577577,3.569620784788744,16
63,1404.0,-0.47204530239105225,-0.2950413227081299,0.35204124450683594,-0.8980865478515625,2.6350555419921875,9.5302734375,-3.3597973734859523,-0.9564450498552255,5.271813208982642,16
64,1421.0,-0.2691635489463806,-0.2970454692840576,0.4920186996459961,-1.0284881591796875,2.765472412109375,9.167755126953125,-0.38205346141383323,-6.4590640112709385,5.846204797424034,16
65,1438.0,-0.4212290644645691,-0.16689658164978027,0.1268749237060547,-0.88970947265625,2.852813720703125,8.744232177734375,1.202113293922244,-9.477024077176091,7.42949728854635,16
66,1461.0,-0.3405199646949768,-0.08624649047851562,-0.2910137176513672,-0.6946868896484375,2.91143798828125,8.507339477539062,-0.11889993307158198,-9.018909629164996,9.89404810714039,16
67,1478.0,-0.3405199646949768,-0.08624649047851562,-0.2910137176513672,-0.5762481689453125,2.95330810546875,8.48101806640625,-0.11889993307158198,-9.018909629164996,9.89404810714039,16
68,1495.0,-0.17359137535095215,-0.024840831756591797,-0.5243301391601562,-0.38720703125,2.867156982421875,8.601852416992188,-2.9436476077354152,-7.375292907293129,9.694715866402738,16
69,1513.0,-0.07729816436767578,0.02646493911743164,-0.5487337112426758,-0.48651123046875,2.831268310546875,8.892593383789062,-5.444917523307445,-4.22094762404116,8.197101268229062,16
70,1529.0,0.09654322266578674,-0.04451107978820801,-0.4284811019897461,-0.45062255859375,2.7917938232421875,9.168960571289062,-6.423219178506711,-1.7957386950663925,6.093621569918576,16
71,1547.0,0.010617882013320923,-0.0909583568572998,0.12889385223388672,-0.45062255859375,2.7917938232421875,9.168960571289062,-4.242804229385201,-3.690269246287849,5.778012188750627,16
72,1565.0,0.010617882013320923,-0.0909583568572998,0.12889385223388672,-0.403961181640625,2.8145294189453125,8.898574829101562,-0.9669362204203651,-5.19575222238538,4.85828623587339,16
73,1583.0,-0.00558134913444519,-0.08384251594543457,0.12472343444824219,-0.356109619140625,2.976043701171875,8.388900756835938,-0.9669362204203651,-5.19575222238538,4.85828623587339,16
74,1599.0,0.0546967089176178,0.10565567016601562,-0.6500768661499023,-0.3369598388671875,3.03466796875,8.131668090820312,-2.988235082637259,-4.524317306216446,3.3283238617905333,16
75,1616.0,0.0546967089176178,0.10565567016601562,-0.6500768661499023,-0.344146728515625,3.065765380859375,8.3936767578125,-2.988235082637259,-4.524317306216446,3.3283238617905333,16
76,1633.0,0.04262569546699524,0.23156070709228516,-0.6425619125366211,-0.279541015625,2.94732666015625,9.087600708007812,-12.738903858720741,-1.0202663374598246,2.4689221396628493,16
77,1650.0,0.10447269678115845,0.14760065078735352,0.03965282440185547,-0.279541015625,2.94732666015625,9.087600708007812,-14.632560145728437,0.9809244478405512,1.4014455346598964,16
78,1669.0,0.10447269678115845,0.14760065078735352,0.03965282440185547,-0.2532196044921875,2.9317626953125,9.44891357421875,-14.632560145728437,0.9809244478405512,1.4014455346598964,16
79,1691.0,0.1367073357105255,0.1963176727294922,0.37631988525390625,-0.2137298583984375,2.984405517578125,9.660690307617188,-11.058568039870885,3.214669514001521,0.6530753676799392,16
80,1709.0,0.18470096588134766,0.27373504638671875,0.5744209289550781,-0.2783355712890625,2.8958740234375,10.165573120117188,-9.67897911055503,4.610869463378847,-0.6032423074955262,16
81,1726.0,0.13229796290397644,0.2050011157989502,1.0626773834228516,-0.18621826171875,2.789398193359375,10.449111938476562,-6.641785231947119,4.844298008453204,-1.7808762034324446,16
82,1743.0,0.23927101492881775,0.10815048217773438,1.3305473327636719,-0.3010711669921875,2.7056427001953125,10.267257690429688,-1.2134787287011455,6.954771820473783,-2.0545209023398354,16
83,1761.0,0.14466756582260132,0.0189058780670166,1.140005111694336,-0.3010711669921875,2.7056427001953125,10.267257690429688,5.413444011612026,7.836904412159271,-2.8605925074280605,16
84,1778.0,0.16209450364112854,-0.0029845237731933594,1.1362953186035156,-0.569061279296875,2.702056884765625,9.743240356445312,11.207192956210362,5.081223610382606,-1.6095204175351647,16
85,1795.0,-0.09763631224632263,-0.04063820838928223,0.6169557571411133,-0.5834197998046875,2.68292236328125,8.857894897460938,14.671027771133948,-0.17223005011104153,-0.28938145475510024,16
86,1812.0,-0.11680096387863159,-0.09776067733764648,-0.2544584274291992,-0.821502685546875,2.93536376953125,7.48919677734375,14.439347754487116,-4.0976763699007694,0.8585274579139227,16
87,1829.0,-0.09321996569633484,-0.04171156883239746,-1.120844841003418,-0.821502685546875,2.93536376953125,7.48919677734375,10.050541401403724,-3.9656624736227633,2.2215053671683074,16
88,1847.0,-0.37590545415878296,0.10416245460510254,-1.5834245681762695,-0.821502685546875,2.93536376953125,7.48919677734375,2.4103464373408197,-3.9848962863255193,4.737637774374284,16
89,1864.0,-0.38854795694351196,0.10889601707458496,-1.5713176727294922,-0.403961181640625,2.7511138916015625,8.193878173828125,-7.303603241764675,-4.644965767715552,6.8419917368985335,16
90,1881.0,-0.0005031228065490723,0.0012061595916748047,-0.8696880340576172,-0.4721527099609375,2.6506195068359375,9.192886352539062,-19.99704536136981,-2.9716240625757875,4.805830383047692,16
91,1899.0,-0.0005031228065490723,0.0012061595916748047,-0.8696880340576172,-0.362091064453125,2.6529998779296875,10.039947509765625,-19.99704536136981,-2.9716240625757875,4.805830383047692,16
92,1916.0,-0.07836556434631348,-0.04844522476196289,0.1127004623413086,-0.2424468994140625,2.7056427001953125,10.109344482421875,-18.34031467629152,-2.0755032434701146,4.308374045417323,16
93,1932.0,0.13255321979522705,0.07283139228820801,0.991511344909668,-0.2424468994140625,2.7056427001953125,10.109344482421875,-6.317433208641554,-3.3309466544318185,1.7511512201645492,16
94,1949.0,0.13255321979522705,0.07283139228820801,0.991511344909668,-0.1551055908203125,2.7212066650390625,10.114120483398438,-6.317433208641554,-3.3309466544318185,1.7511512201645492,16
95,1966.0,0.20232746005058289,0.08760476112365723,0.9782400131225586,-0.262786865234375,2.8288726806640625,9.633163452148438,5.577805683799213,-2.5178809356335003,-3.0240799154014857,16
96,1984.0,0.20232746005058289,0.08760476112365723,0.9782400131225586,-0.286712646484375,2.9090423583984375,8.990692138671875,5.577805683799213,-2.5178809356335003,-3.0240799154014857,16
97,2000.0,0.09290999174118042,0.1770937442779541,0.4977293014526367,-0.3608856201171875,2.8240966796875,8.841140747070312,7.1270018705848255,-0.15124770898076237,-3.824031670993379,16
98,2018.0,0.011968523263931274,0.1432938575744629,-0.2824535369873047,-0.587005615234375,2.7989654541015625,8.918914794921875,2.676122758324356,3.7016346810667504,-3.869493410108984,16
99,2034.0,0.011968523263931274,0.1432938575744629,-0.2824535369873047,-0.587005615234375,2.7989654541015625,8.918914794921875,2.676122758324356,3.7016346810667504,-3.869493410108984,16
100,2053.0,-0.19370198249816895,0.10607433319091797,-0.19758033752441406,-0.5307769775390625,2.737945556640625,8.830368041992188,1.5124770898076236,0.4213953510331067,-1.7319174074617933,16
101,2070.0,-0.13647958636283875,0.04436802864074707,-0.2836771011352539,-0.43865966796875,2.73077392578125,8.842330932617188,-1.1444118558139764,-1.4250506684314603,-1.3017794142910701,16
102,2087.0,-0.13647958636283875,0.04436802864074707,-0.2836771011352539,-0.4948883056640625,2.69488525390625,9.080429077148438,-1.1444118558139764,-1.4250506684314603,-1.3017794142910701,16
103,2104.0,-0.11592233180999756,0.012820005416870117,-0.03532218933105469,-0.5176239013671875,2.6805267333984375,9.140243530273438,-2.038784146492126,-5.171272824400054,0.14600212369819257,16
104,2121.0,-0.11592233180999756,0.012820005416870117,-0.03532218933105469,-0.362091064453125,2.7212066650390625,9.158187866210938,-2.038784146492126,-5.171272824400054,0.14600212369819257,16
105,2139.0,-0.012573778629302979,0.04567718505859375,0.038677215576171875,-0.362091064453125,2.7212066650390625,9.158187866210938,-0.7405017890561024,-5.291921285899159,2.1751693638389407,16
106,2156.0,-0.025868356227874756,0.046536922454833984,0.037507057189941406,-0.375244140625,2.7056427001953125,9.192886352539062,-0.3558255350009843,-3.481320099198819,2.3710045477215465,16
107,2172.0,-0.025868356227874756,0.046536922454833984,0.037507057189941406,-0.3836212158203125,2.7044525146484375,9.22998046875,-0.3558255350009843,-3.481320099198819,2.3710045477215465,16
108,2192.0,-0.05775231122970581,0.028414011001586914,0.1077432632446289,-0.3668670654296875,2.696075439453125,9.061279296875,0.304243946389048,-0.27626749154867575,1.2126044644873837,16
109,2208.0,-0.042417317628860474,0.01952648162841797,-0.06044292449951172,-0.4123382568359375,2.7176055908203125,9.030181884765625,-0.07431245816973873,-0.7230165047808698,-0.15299623740828563,16
110,2225.0,-0.08839753270149231,0.04103589057922363,-0.09096527099609375,-0.5738525390625,2.7056427001953125,9.237152099609375,-0.11190581936148891,-0.47122841121751974,-0.8707671569065856,16
111,2242.0,-0.2471679449081421,0.0274050235748291,0.11557292938232422,-0.5738525390625,2.7056427001953125,9.237152099609375,1.2362095982589478,0.8235568893634575,-0.07780951502478525,16
112,2263.0,-0.24154701828956604,0.022598743438720703,0.11618423461914062,-0.5499267578125,2.68292236328125,9.228775024414062,2.2066428755343597,2.2136369892444527,0.7920833776680387,16
113,2281.0,-0.2054823338985443,-0.00658416748046875,0.10694026947021484,-0.632476806640625,2.66497802734375,9.057693481445312,2.706722005806013,3.0048461026987296,0.9949126752607373,16
114,2298.0,-0.27348899841308594,-0.03088688850402832,-0.06003379821777344,-0.6599884033203125,2.7463226318359375,8.90814208984375,2.6201698486436116,2.7574293302041877,1.4617697654094488,16
115,2315.0,-0.2889025807380676,0.043645381927490234,-0.2020111083984375,-0.5762481689453125,2.661376953125,8.935653686523438,1.4145594978663207,1.1251780431112206,1.9329981766269686,16
116,2332.0,-0.20284464955329895,-0.04200553894042969,-0.16923904418945312,-0.4877166748046875,2.6434326171875,9.061279296875,-0.15299623740828563,-2.516132407205977,2.1638039290600397,16
117,2348.0,-0.12538817524909973,-0.05764603614807129,-0.04316425323486328,-0.4877166748046875,2.6434326171875,9.061279296875,-0.5193129429744094,-7.169840817059145,2.2284994808784004,16
118,2366.0,-0.14576223492622375,-0.05549478530883789,-0.04304313659667969,-0.1527099609375,2.855194091796875,8.696380615234375,-0.1337624247055297,-9.514617438367843,3.5521355005135113,16
119,2384.0,0.13297301530838013,0.1593494415283203,-0.4020195007324219,-0.076141357421875,2.79656982421875,8.946426391601562,-2.7110933268748214,-7.843024261655602,3.113254865205172,16
120,2400.0,0.13297301530838013,0.1593494415283203,-0.4020195007324219,-0.0318756103515625,2.8563995361328125,9.195281982421875,-2.7110933268748214,-7.843024261655602,3.113254865205172,16
121,2418.0,0.18921664357185364,0.1083519458770752,-0.15393543243408203,-0.15869140625,2.846832275390625,9.279022216796875,-3.7514677412511634,-4.877520048576145,1.991573878948998,16
122,2437.0,0.0913749635219574,0.1719064712524414,0.17179012298583984,-0.15869140625,2.846832275390625,9.279022216796875,-1.6951983104838046,0.5219357356156944,-0.5927511369303866,16
123,2454.0,0.0913749635219574,0.1719064712524414,0.17179012298583984,-0.2304840087890625,2.8288726806640625,9.293380737304688,-1.6951983104838046,0.5219357356156944,-0.5927511369303866,16
124,2471.0,0.03407213091850281,0.15276789665222168,0.18379688262939453,-0.2603912353515625,2.73675537109375,9.19049072265625,0.9398340297937545,3.7654559686713496,-1.7126835947590373,16
125,2488.0,0.03407213091850281,0.15276789665222168,0.18379688262939453,-0.3764495849609375,2.7164154052734375,9.11871337890625,0.9398340297937545,3.7654559686713496,-1.7126835947590373,16
126,2506.0,0.014514356851577759,0.05816388130187988,0.0812692642211914,-0.41473388671875,2.68292236328125,9.017013549804688,0.7623583944001432,2.6647573235454547,-3.059050483951951,16
127,2522.0,-0.13191628456115723,0.0012094974517822266,-0.09062385559082031,-0.49249267578125,2.7164154052734375,8.906951904296875,0.40128727411658915,-2.309806052758232,-3.9202007345071586,16
128,2540.0,-0.13191628456115723,0.0012094974517822266,-0.09062385559082031,-0.49249267578125,2.7164154052734375,8.906951904296875,0.40128727411658915,-2.309806052758232,-3.9202007345071586,16
129,2558.0,-0.21547967195510864,0.03828024864196777,-0.19946575164794922,-0.3943939208984375,2.6876983642578125,9.062484741210938,-1.7581453338746422,-2.2556016715050107,-1.849068812105852,16
130,2578.0,-0.12197309732437134,0.013777732849121094,-0.045063018798828125,-0.3130340576171875,2.666168212890625,9.176132202148438,-1.3743433440332857,-2.7250815542950075,-1.309647792214925,16
131,2595.0,-0.048588335514068604,-0.005347490310668945,0.0671987533569336,-0.3357696533203125,2.777435302734375,8.987106323242188,-0.34446010022208307,-4.057460216067735,-0.6102364212056193,16
132,2611.0,-0.080101877450943,0.10613250732421875,-0.12156105041503906,-0.338165283203125,2.8384552001953125,8.82080078125,-0.31473511695418754,-3.157842340107015,-0.21332046815783823,16
133,2629.0,-0.08662179112434387,0.16820383071899414,-0.28675270080566406,-0.3608856201171875,2.825286865234375,8.885406494140625,-1.2921625079396923,-0.4100299162542055,0.03409630433670365,16
134,2646.0,-0.10658568143844604,0.15831494331359863,-0.22191238403320312,-0.3608856201171875,2.825286865234375,8.885406494140625,-1.932123912413207,1.9067702502141197,-0.2063263544477452,16
135,2667.0,-0.0996876060962677,0.16265130043029785,-0.2218790054321289,-0.3931884765625,2.80615234375,9.162979125976562,-2.0894914708903007,2.6219183770711347,-0.33834025072575163,16
136,2684.0,-0.12538346648216248,0.14657902717590332,0.05434417724609375,-0.4470367431640625,2.7511138916015625,9.3197021484375,-0.8838811201130101,1.4582727085544025,-0.5840084947927703,16
137,2701.0,-0.17770376801490784,0.09152483940124512,0.2095775604248047,-0.3489227294921875,2.7690582275390625,9.13067626953125,0.5096960366230315,-1.6680961198571942,-1.1514059695240695,16
138,2718.0,-0.08192309737205505,0.10559797286987305,0.020089149475097656,-0.40277099609375,2.80853271484375,8.990692138671875,0.21944031765416966,-2.713716119516106,-1.8595599826709914,16
139,2735.0,-0.13697290420532227,0.14255452156066895,-0.11715030670166016,-0.427886962890625,2.7678680419921875,9.134262084960938,-1.2633117888855585,-2.326417072819703,-2.270464163138959,16
140,2751.0,-0.1614425778388977,0.10322451591491699,0.02435588836669922,-0.38720703125,2.7343597412109375,9.246719360351562,-1.825463678334288,-1.8683026248086079,-1.9050217217865963,16
141,2770.0,-0.16150444746017456,0.10544562339782715,0.022063255310058594,-0.38720703125,2.7343597412109375,9.246719360351562,-1.9968194642315678,-2.626289698139943,-1.482752106539728,16
142,2789.0,-0.12444725632667542,0.07380390167236328,0.1294536590576172,-0.3764495849609375,2.7271881103515625,9.12469482421875,-0.910109046525859,-3.4638348149235867,-0.9564450498552255,16
143,2806.0,-0.12486958503723145,0.06045389175415039,0.0032806396484375,-0.3022613525390625,2.789398193359375,8.800460815429688,1.6077718891076416,-2.227625216664639,0.04109041804679671,16
144,2822.0,-0.12486958503723145,0.06045389175415039,0.0032806396484375,-0.3022613525390625,2.789398193359375,8.800460815429688,1.6077718891076416,-2.227625216664639,0.04109041804679671,16
145,2840.0,-0.05340193212032318,0.11671328544616699,-0.31140804290771484,-0.22210693359375,2.70684814453125,8.75140380859375,0.3558255350009843,-1.0115236953222084,-0.24829103670830352,16
146,2857.0,-0.05498035252094269,0.1171727180480957,-0.3099355697631836,-0.2783355712890625,2.6566009521484375,8.789703369140625,-1.1924963875708663,-0.8113171903707946,-1.088458946133232,16
147,2875.0,0.023190677165985107,0.04032158851623535,-0.35863685607910156,-0.350128173828125,2.6793212890625,8.911727905273438,-3.1762018885960095,-1.4626440296232106,-1.9531062535434862,16
148,2891.0,-0.10839439928531647,0.03305625915527344,-0.20129108428955078,-0.2783355712890625,2.6434326171875,9.042144775390625,-3.8922242796667863,-1.1697655180130637,-1.8499430763196136,16
149,2908.0,-0.10839439928531647,0.03305625915527344,-0.20129108428955078,-0.33935546875,2.6577911376953125,9.068466186523438,-3.8922242796667863,-1.1697655180130637,-1.8499430763196136,16
150,2933.0,-0.03625807166099548,0.00606989860534668,-0.07303142547607422,-0.33935546875,2.6577911376953125,9.068466186523438,-2.685739664675734,-0.009616906351377954,-2.5493544473289194,16
151,2942.0,-0.08843165636062622,0.032575130462646484,-0.04953765869140625,-0.36328125,2.7044525146484375,9.085205078125,-2.0090591632242307,0.6198533275569972,-4.0364778749374555,16
152,2959.0,-0.08843165636062622,0.032575130462646484,-0.04953765869140625,-0.280731201171875,2.6996612548828125,9.089996337890625,-2.0090591632242307,0.6198533275569972,-4.0364778749374555,16
153,2976.0,-0.022331207990646362,0.08408546447753906,-0.03049468994140625,-0.3142242431640625,2.71881103515625,9.2479248046875,-1.7948644308526307,-0.5481636620285434,-5.0707324398174665,16
154,2993.0,-0.022331207990646362,0.08408546447753906,-0.03049468994140625,-0.39678955078125,2.80615234375,9.198867797851562,-1.7948644308526307,-0.5481636620285434,-5.0707324398174665,16
155,3011.0,-0.13335880637168884,0.19557905197143555,0.07541561126708984,-0.3178253173828125,2.8994598388671875,9.034957885742188,-0.2806388126174839,-0.750992959621242,-3.600220032270401,16
156,3028.0,-0.05397304892539978,0.2880697250366211,-0.08822441101074219,-0.3178253173828125,2.8994598388671875,9.034957885742188,-0.1337624247055297,-1.057859698651575,-3.0267027080427704,16
157,3045.0,-0.05397304892539978,0.2880697250366211,-0.08822441101074219,-0.286712646484375,2.9580841064453125,8.976333618164062,-0.1337624247055297,-1.057859698651575,-3.0267027080427704,16
158,3063.0,-0.02364543080329895,0.3447115421295166,-0.14593029022216797,-0.3214111328125,2.954498291015625,9.210830688476562,-2.766171972341804,-1.0001582605433073,-2.4155920226233896,16
159,3081.0,-0.05926847457885742,0.3466148376464844,0.08593177795410156,-0.1658782958984375,2.8874969482421875,9.429779052734375,-2.6612602666904084,-1.1391662705314067,-1.7782534107911598,16
160,3098.0,0.093830406665802,0.2835211753845215,0.30159664154052734,-0.193389892578125,2.867156982421875,9.429779052734375,-1.3218874912075878,-1.4049425915149427,-2.11047381202058,16
161,3115.0,0.06405088305473328,0.26289820671081543,0.2995634078979492,-0.2783355712890625,2.91741943359375,9.17254638671875,0.6102364212056193,-1.5999035111837867,-3.4000135273189875,16
162,3132.0,-0.021124601364135742,0.3079707622528076,0.04308509826660156,-0.2783355712890625,2.91741943359375,9.17254638671875,2.2075171397481212,-0.6259731770533286,-3.49793111926029,16
163,3154.0,-0.018139421939849854,0.29981422424316406,0.044791221618652344,-0.3357696533203125,2.873138427734375,9.075637817382812,2.856221186359252,0.9450796150763243,-2.9384020224528458,16
164,3171.0,-0.07146614789962769,0.24652314186096191,-0.04953765869140625,-0.3477325439453125,2.8205108642578125,9.0732421875,3.052056370241858,0.18446974910370437,-2.8291189957326415,16
165,3190.0,-0.08185893297195435,0.18185639381408691,-0.04859638214111328,-0.2532196044921875,2.777435302734375,8.933258056640625,2.229373745092162,-2.3570163203013603,-2.718961704798676,16
166,3207.0,-0.10021859407424927,0.17185521125793457,-0.2856111526489258,-0.3214111328125,2.7822113037109375,8.953598022460938,0.2544108862046349,-3.5538840289410345,-2.8553469221454906,16
167,3223.0,-0.07305079698562622,0.1384563446044922,-0.1645822525024414,-0.3214111328125,2.7822113037109375,8.953598022460938,-0.3566997992147459,-2.6149242633610417,-2.973372591003311,16
168,3240.0,-0.07305079698562622,0.1384563446044922,-0.1645822525024414,-0.2783355712890625,2.801361083984375,9.063674926757812,-0.3566997992147459,-2.6149242633610417,-2.973372591003311,16
169,3259.0,-0.03331649303436279,0.15842008590698242,-0.05415153503417969,-0.303466796875,2.8037567138671875,9.133071899414062,-0.13026536785048318,-0.4248924078881532,-3.4253671895180746,16
170,3277.0,-0.03331649303436279,0.15842008590698242,-0.05415153503417969,-0.3249969482421875,2.807342529296875,9.231170654296875,-0.13026536785048318,-0.4248924078881532,-3.4253671895180746,16
171,3295.0,-0.05545699596405029,0.16002488136291504,0.015226364135742188,-0.274749755859375,2.8121337890625,9.19049072265625,0.2885071905413386,0.40653285939915895,-3.6177053165456337,16
172,3311.0,-0.020192235708236694,0.16185832023620605,0.07326030731201172,-0.2364654541015625,2.8683624267578125,9.011032104492188,1.965345952536149,-0.32872334437437367,-3.355426052417144,16
173,3328.0,-0.020192235708236694,0.16185832023620605,0.07326030731201172,-0.2364654541015625,2.8683624267578125,9.011032104492188,1.965345952536149,-0.32872334437437367,-3.355426052417144,16
174,3345.0,0.02001813054084778,0.20049500465393066,-0.09960556030273438,-0.2723541259765625,2.9030609130859375,8.810028076171875,1.5011116550287225,-0.7186451837120617,-4.325859329692555,16
175,3363.0,-0.01429218053817749,0.22669649124145508,-0.29165172576904297,-0.346527099609375,2.924591064453125,8.855499267578125,0.26315352834225125,-0.9922898826194525,-4.511203343010021,16
176,3380.0,-0.01429218053817749,0.22669649124145508,-0.29165172576904297,-0.2424468994140625,2.894683837890625,8.849517822265625,0.26315352834225125,-0.9922898826194525,-4.511203343010021,16
177,3397.0,0.014818191528320312,0.20836210250854492,-0.23941612243652344,-0.3537139892578125,2.9521026611328125,9.069656372070312,-0.7151481268570151,-2.7006021563096816,-4.878394312789907,16
178,3413.0,-0.09787389636039734,0.259249210357666,-0.019107818603515625,-0.298675537109375,2.964080810546875,8.918914794921875,0.3295976085881353,-3.287233443743737,-4.653708409853168,16
179,3431.0,-0.04693600535392761,0.26074981689453125,-0.16440677642822266,-0.298675537109375,2.964080810546875,8.918914794921875,2.176917892266464,-3.2312805340629924,-3.5495127078722266,16
180,3449.0,-0.049668148159980774,0.24932527542114258,-0.1587057113647461,-0.2077484130859375,3.01312255859375,8.62579345703125,1.2580662036029886,-2.0475267886297424,-3.7016346810667504,16
181,3466.0,0.03934229910373688,0.29165077209472656,-0.43976783752441406,-0.146728515625,2.993988037109375,8.635360717773438,-2.2521046146499644,-0.9529479930001791,-4.33897329289898,16
182,3482.0,0.10127189755439758,0.28006911277770996,-0.4307270050048828,-0.217315673828125,2.906646728515625,9.012222290039062,-4.195593961842072,-0.9756788625579814,-5.615399044990963,16
183,3499.0,0.0302744060754776,0.2014312744140625,-0.05648994445800781,-0.3094482421875,2.8970794677734375,8.976333618164062,-2.7600521228454724,-2.8745807348482466,-6.591077907548945,16
184,3517.0,-0.06478837132453918,0.1967029571533203,-0.09373664855957031,-0.1838226318359375,2.906646728515625,8.796875,-1.2344610698314247,-3.531153159383232,-6.699486670055387,16
185,3534.0,0.057807326316833496,0.2087697982788086,-0.2729940414428711,-0.1838226318359375,2.906646728515625,8.796875,-1.0176435448185397,-2.7775374071207053,-7.539654579480316,16
186,3555.0,0.05508001148700714,0.20739984512329102,-0.26675891876220703,-0.199371337890625,2.990386962890625,8.647323608398438,-1.9889510863077131,-2.751309480707856,-8.132405716410702,16
187,3572.0,0.03638133406639099,0.2911348342895508,-0.40720272064208984,-0.1826324462890625,3.0753326416015625,8.849517822265625,-3.809169179359431,-3.9910161358218508,-9.177151451855853,16
188,3589.0,0.046971216797828674,0.37692975997924805,-0.20279216766357422,-0.1012725830078125,3.0035552978515625,9.070846557617188,-4.443010734336615,-5.338257289228526,-9.9736061505927,16
189,3607.0,0.11826759576797485,0.30772876739501953,0.014573097229003906,-0.0952911376953125,2.966461181640625,9.110336303710938,-3.5871060690639767,-5.958110616785523,-11.027094528175466,16
190,3625.0,0.11617650091648102,0.2786552906036377,0.050868988037109375,-0.16827392578125,2.9736480712890625,9.021804809570312,-2.8841976411996244,-6.510645599882874,-11.820052170057266,16
191,3641.0,0.03549811244010925,0.2853126525878906,-0.040015220642089844,-0.16827392578125,2.9736480712890625,9.021804809570312,-2.5580970894665356,-6.40660815844524,-12.60951275508402,16
192,3659.0,0.02931275963783264,0.298159122467041,-0.04203605651855469,-0.1551055908203125,2.9329681396484375,9.125885009765625,-2.1594326079912314,-5.791126151957052,-13.228491818427255,16
193,3676.0,-0.07081055641174316,0.21139168739318848,0.05482196807861328,-0.2735595703125,2.8863067626953125,9.119903564453125,-0.2902557189688619,-3.2330290624905156,-13.635898942040177,16
194,3693.0,-0.07081055641174316,0.21139168739318848,0.05482196807861328,-0.4171295166015625,2.723602294921875,9.111526489257812,1.8569371900297067,0.17834989960737296,-13.281821935466715,16
195,3710.0,-0.014574095606803894,0.09707212448120117,-0.009125709533691406,-0.4171295166015625,2.723602294921875,9.111526489257812,2.514383878778454,2.7967712198234613,-13.098226450576773,16
196,3727.0,-0.18227961659431458,0.0376133918762207,0.05009746551513672,-0.4123382568359375,2.7678680419921875,8.958389282226562,2.2424877082985866,2.1218392467994813,-13.358757186277739,16
197,3746.0,-0.17064961791038513,0.031722068786621094,0.051853179931640625,-0.3309783935546875,2.7822113037109375,9.033767700195312,2.794148427182176,-1.8499430763196136,-13.308924126093325,16
198,3764.0,-0.09755299985408783,0.0760350227355957,-0.021671295166015625,-0.6240997314453125,2.9401397705078125,9.414230346679688,4.34946446346412,-11.145994461247048,-14.68763879119542,16
199,3782.0,-0.4052874445915222,0.21693110466003418,0.36156558990478516,-0.3896026611328125,3.046630859375,9.396270751953125,8.491728308266733,-9.563576234338495,-13.10784335692815,16
200,3799.0,-0.4052874445915222,0.21693110466003418,0.36156558990478516,-0.38720703125,3.03106689453125,8.8267822265625,8.491728308266733,-9.563576234338495,-13.10784335692815,16
201,3816.0,-0.17426566779613495,0.2539994716644287,-0.21106529235839844,-0.38720703125,3.03106689453125,8.8267822265625,9.574067404903634,-3.0188343301189158,-12.40056360799499,16
202,3833.0,-0.17385230958461761,0.23535490036010742,-0.20473670959472656,-0.298675537109375,2.978424072265625,8.3218994140625,4.345093142395312,-5.157284596979868,-13.312421182948372,16
203,3850.0,-0.08745430409908295,0.17915678024291992,-0.7057008743286133,-0.298675537109375,3.0334625244140625,8.185501098632812,-1.592035133259932,-5.23334558357713,-14.100133239547603,16
204,3870.0,-0.08440786600112915,0.24481582641601562,-0.8419466018676758,-0.4841156005859375,2.972442626953125,8.46905517578125,-6.58320952962509,-1.3935771567360415,-13.807254727937456,16
205,3891.0,-0.25711363554000854,0.20743227005004883,-0.5631856918334961,-0.515228271484375,2.753509521484375,9.34124755859375,-11.32871568192323,1.9933224073765212,-12.668962721619812,16
206,3908.0,-0.27212369441986084,0.020116567611694336,0.2984447479248047,-0.5941925048828125,2.608734130859375,9.763580322265625,-11.984413842244454,1.6549821566507696,-12.230082086311471,16
207,3925.0,-0.33858510851860046,-0.09595060348510742,0.7094917297363281,-0.5941925048828125,2.608734130859375,9.763580322265625,-8.70504877642457,-0.6102364212056193,-11.865513909172872,16
208,3942.0,-0.3316558003425598,-0.07869458198547363,0.7015762329101562,-0.66119384765625,2.56805419921875,9.770751953125,-3.3860252998988014,-2.1113480762343415,-11.12064079904796,16
209,3959.0,-0.3972112238407135,-0.11536502838134766,0.7046613693237305,-0.449432373046875,2.6230926513671875,9.122299194335938,1.3656007018956693,-4.39230340993844,-10.138842086993648,16
210,3977.0,-0.1900518238544464,-0.06350469589233398,0.05682849884033203,-0.52239990234375,2.7977752685546875,8.617416381835938,1.822840885693003,-5.599662289143254,-9.8345981406046,16
211,3994.0,-0.269458532333374,0.11043763160705566,-0.44628238677978516,-0.4757537841796875,2.85400390625,8.713119506835938,-1.0666023407891911,-5.77451513189558,-9.258458023735685,16
212,4012.0,-0.02929656207561493,0.12585854530334473,-0.14585399627685547,-0.267578125,2.7929840087890625,8.922500610351562,-6.081381870925913,-5.556823342668934,-9.11070737160997,16
213,4030.0,-0.02929656207561493,0.12585854530334473,-0.14585399627685547,-0.267578125,2.7929840087890625,8.922500610351562,-6.081381870925913,-5.556823342668934,-9.11070737160997,16
214,4047.0,-0.037083372473716736,0.14298415184020996,-0.1506214141845703,-0.5247955322265625,2.873138427734375,8.960784912109375,-6.737954295460899,-6.198533275569972,-10.550620531675376,16
215,4066.0,-0.3068158030509949,0.2491133213043213,-0.12044715881347656,-0.64923095703125,2.993988037109375,8.671249389648438,-3.762833176030065,-4.529562891499016,-10.08638623416795,16
216,4082.0,-0.3068158030509949,0.2491133213043213,-0.12044715881347656,-0.497283935546875,2.80853271484375,8.9715576171875,-3.762833176030065,-4.529562891499016,-10.08638623416795,16
217,4099.0,-0.27226966619491577,0.2128608226776123,-0.11622238159179688,-0.5367584228515625,2.6637725830078125,9.525482177734375,-7.025587221788475,-0.35495127078722266,-10.223645715728527,16
218,4117.0,-0.30274516344070435,0.08593511581420898,0.43091583251953125,-0.5367584228515625,2.6637725830078125,9.525482177734375,-6.114603911048855,0.21856605344040803,-10.594333742363458,16
219,4136.0,-0.30274516344070435,0.08593511581420898,0.43091583251953125,-0.75689697265625,2.5596923828125,9.914321899414062,-6.114603911048855,0.21856605344040803,-10.594333742363458,16
220,4152.0,-0.5041887164115906,-0.00680232048034668,0.8116703033447266,-0.7054595947265625,2.6230926513671875,9.5721435546875,2.3447766213086974,-0.6565724245349858,-9.039017706081514,16
221,4169.0,-0.44692692160606384,0.05001091957092285,0.4694366455078125,-0.6887054443359375,2.637451171875,9.20245361328125,2.9244137950326596,-1.2467007688240874,-8.231197572565767,16
222,4186.0,-0.4280131757259369,0.058341026306152344,0.10097217559814453,-0.7162322998046875,2.6326751708984375,9.201263427734375,1.8787937953737475,-3.044187992318003,-7.926079361962957,16
223,4203.0,-0.4590243697166443,0.04885697364807129,0.10048675537109375,-0.5642852783203125,2.6876983642578125,8.8507080078125,1.9434893471921082,-5.350496988221189,-7.388406870499553,16
224,4219.0,-0.4590243697166443,0.04885697364807129,0.10048675537109375,-0.5642852783203125,2.6876983642578125,8.8507080078125,1.9434893471921082,-5.350496988221189,-7.388406870499553,16
225,4238.0,-0.32853689789772034,0.10026931762695312,-0.24785995483398438,-0.5379638671875,2.731964111328125,8.775344848632812,-0.7632326586139049,-6.188042105004832,-7.224045198312366,16
226,4259.0,-0.30918776988983154,0.1475541591644287,-0.32311439514160156,-0.5475311279296875,2.7870025634765625,8.843536376953125,-1.6138917386039728,-3.828402992062187,-6.193287690287402,16
227,4275.0,-0.3214898705482483,0.20722246170043945,-0.25551414489746094,-0.5535125732421875,2.749908447265625,9.0194091796875,-2.211888460816929,-2.5703367884591986,-5.56032039952398,16
228,4292.0,-0.32713520526885986,0.17533254623413086,-0.0810089111328125,-0.4254913330078125,2.672149658203125,9.13067626953125,-1.9959452000178062,-0.9984097321157839,-4.2970086106384215,16
229,4309.0,-0.19747988879680634,0.10260224342346191,0.028615951538085938,-0.4254913330078125,2.672149658203125,9.13067626953125,-1.889284965938887,-0.7544900164762885,-4.042597724433787,16
230,4327.0,-0.19625788927078247,0.10812115669250488,0.02682971954345703,-0.421905517578125,2.6171112060546875,9.14862060546875,-2.3797471898591627,-1.2895397152984074,-4.264660834729241,16
231,4344.0,-0.19410787522792816,0.058695077896118164,0.042891502380371094,-0.5834197998046875,2.6314697265625,9.2479248046875,-1.7721335612948284,-3.065170333448282,-5.214986035088136,16
232,4360.0,-0.36114683747291565,0.07603335380554199,0.14050769805908203,-0.6061553955078125,2.6625823974609375,8.990692138671875,-0.4327607858120079,-5.19050663710281,-5.396832991550555,16
233,4377.0,-0.39073771238327026,0.10804510116577148,-0.11681747436523438,-0.5977783203125,2.6529998779296875,9.006240844726562,-0.33134613701565857,-4.0058786274557985,-4.698295884755011,16
234,4394.0,-0.38621896505355835,0.10031890869140625,-0.10161018371582031,-0.527191162109375,2.53216552734375,9.117507934570312,-1.167142725371779,-2.543234597832588,-4.022489647517269,16
235,4411.0,-0.3194461166858673,-0.01731729507446289,0.00862884521484375,-0.479339599609375,2.636260986328125,9.168960571289062,-1.0010325247570688,-3.4070076410290806,-3.434109831655691,16
236,4429.0,-0.2795496881008148,0.08798742294311523,0.05918693542480469,-0.479339599609375,2.636260986328125,9.168960571289062,-0.02098234113027917,-5.389838877840462,-3.5626266710786507,16
237,4447.0,-0.2843281030654907,0.08471274375915527,0.05750846862792969,-0.5355682373046875,2.6924896240234375,8.965576171875,0.8130657187983179,-6.2046531250663035,-3.319581219652917,16
238,4464.0,-0.3441386818885803,0.1361098289489746,-0.14183807373046875,-0.45660400390625,2.7463226318359375,8.947616577148438,0.037593361191750184,-5.724682071711167,-3.3860252998988014,16
239,4482.0,-0.15930461883544922,0.16248869895935059,-0.22017765045166016,-0.49249267578125,2.8396453857421875,8.8507080078125,-1.5859152837636006,-4.999917038502774,-5.0768522893137975,16
240,4498.0,-0.27347201108932495,0.18775415420532227,-0.1517810821533203,-0.508056640625,2.8396453857421875,9.2479248046875,-2.327291337033465,-5.1826382591789555,-5.741293091772638,16
241,4515.0,-0.3166862726211548,0.284395694732666,0.14568328857421875,-0.508056640625,2.8121337890625,9.2479248046875,-4.6248576907990335,-1.048242792300197,-4.350338727677881,16
242,4533.0,-0.3166862726211548,0.284395694732666,0.14568328857421875,-0.380035400390625,2.6458282470703125,9.428573608398438,-4.6248576907990335,-1.048242792300197,-4.350338727677881,16
243,4551.0,-0.30788999795913696,0.26039671897888184,0.13865280151367188,-0.4243011474609375,2.74273681640625,9.12469482421875,-3.4061333768153186,-1.3717205513920008,-4.271654948439335,16
244,4569.0,-0.22794365882873535,0.20275187492370605,0.0102996826171875,-0.445831298828125,2.8360595703125,9.042144775390625,-2.333411186529796,-3.08003282508223,-5.663483576747853,16
245,4588.0,-0.25132885575294495,0.302722692489624,-0.07420539855957031,-0.521209716796875,2.783416748046875,9.352005004882812,-2.333411186529796,-3.08003282508223,-5.663483576747853,16
246,4605.0,-0.3265867829322815,0.2581515312194824,0.23211956024169922,-0.521209716796875,2.783416748046875,9.526687622070312,-3.258382724689603,-1.8516916047471368,-5.751784262337778,16
247,4622.0,-0.32800132036209106,0.26273512840270996,0.40348339080810547,-0.463775634765625,2.7451324462890625,9.526687622070312,-0.7457473743386722,-3.4393554169382607,-5.8260967205075165,16
248,4638.0,-0.32800132036209106,0.26273512840270996,0.40348339080810547,-0.3537139892578125,2.7678680419921875,9.089996337890625,-0.7457473743386722,-3.4393554169382607,-5.8260967205075165,16
249,4664.0,-0.174556165933609,0.24430322647094727,-0.03481101989746094,-0.226898193359375,2.7343597412109375,8.812423706054688,0.34883142129089123,-5.583925533295544,-6.446824312278276,16
250,4680.0,-0.05685706436634064,0.2096865177154541,-0.31119632720947266,-0.5439453125,2.749908447265625,8.94403076171875,0.10141464879634933,-5.266567623700072,-7.480204612944524,16
251,4697.0,-0.38140469789505005,0.22356319427490234,-0.1788015365600586,-0.2902984619140625,2.9078369140625,8.830368041992188,0.7116510700019686,-5.36710800828266,-6.349780984550734,16
252,4719.0,-0.13550418615341187,0.3786458969116211,-0.2910423278808594,-0.2017669677734375,2.8456268310546875,8.927276611328125,0.4441262205909091,-4.104670483610863,-5.387216085199177,16
253,4735.0,-0.14139829576015472,0.3771657943725586,-0.2899637222290039,-0.2424468994140625,2.830078125,8.87225341796875,-0.30774100324409454,-4.125652824741142,-6.788661619859074,16
254,4753.0,-0.06029611825942993,0.31690049171447754,-0.19327640533447266,-0.0737457275390625,2.7882080078125,8.7669677734375,-1.8971533438627417,-5.687088710519417,-7.857012489075788,16
255,4771.0,0.037480369210243225,0.27797746658325195,-0.3572578430175781,0.0339202880859375,2.982025146484375,9.005050659179688,-5.753532790765301,-9.943881167324804,-10.33205447823497,16
256,4788.0,0.037480369210243225,0.27797746658325195,-0.3572578430175781,-0.0809326171875,2.725982666015625,9.069656372070312,-5.753532790765301,-9.943881167324804,-10.33205447823497,16
257,4806.0,0.12415994703769684,0.48439788818359375,-0.12289905548095703,-0.0809326171875,2.725982666015625,9.069656372070312,-4.910742088699088,-11.459855313987473,-11.838411718546261,16
258,4823.0,-0.045363206416368484,0.24385499954223633,-0.0629281997680664,-0.497283935546875,2.636260986328125,8.951217651367188,-0.9398340297937545,-15.385301633777202,-8.94022584992645,16
259,4841.0,-0.4962101876735687,0.1516704559326172,-0.18018341064453125,-0.50445556640625,2.954498291015625,9.070846557617188,2.348273678163744,-14.700752754401844,-1.1592743474479241,16
260,4863.0,-0.5327021479606628,0.4587268829345703,-0.057738304138183594,0.729034423828125,2.5405426025390625,8.91412353515625,4.576773159042144,-8.626364997186025,2.1419473237159985,16
261,4884.0,0.6778712868690491,0.03572726249694824,-0.21105670928955078,0.6847686767578125,3.462982177734375,9.098373413085938,2.0720061866150683,-6.772050599797603,-3.518913460390569,16
262,4902.0,0.8891724348068237,0.5958752632141113,-0.09515094757080078,0.6847686767578125,3.462982177734375,9.098373413085938,-0.6032423074955262,-7.52566635206013,-11.785081601506802,16
263,4919.0,0.6093846559524536,0.9538969993591309,-0.02678394317626953,0.2073974609375,3.342132568359375,9.105545043945312,-2.8002682766785076,-3.634316336607105,-16.671344292220564,16
264,4936.0,0.1494140475988388,0.8338677883148193,-0.021834373474121094,0.146392822265625,3.0155181884765625,9.048126220703125,0.027976454840372228,1.138292006317645,-16.270931282317736,16
265,4954.0,0.1494140475988388,0.8338677883148193,-0.021834373474121094,0.557952880859375,2.9987640380859375,8.928482055664062,0.027976454840372228,1.138292006317645,-16.270931282317736,16
266,4971.0,0.10648912191390991,0.49857091903686523,-0.07721328735351562,0.504119873046875,3.0801239013671875,8.372146606445312,4.715781169030244,3.4821943634125807,-17.34015641574821,16
267,4988.0,0.538790225982666,0.46562910079956055,-0.1921854019165039,0.4024200439453125,3.2093353271484375,7.818206787109375,5.804240115163475,3.4017620557465107,-20.085346046959735,16
268,5005.0,0.5067653656005859,0.5308859348297119,-0.7415685653686523,0.4024200439453125,3.2093353271484375,7.818206787109375,4.536557005209109,2.590444865375716,-22.838404056095115,16
269,5022.0,0.4338855445384979,0.6534895896911621,-1.2843608856201172,0.563934326171875,3.4617767333984375,7.4401397705078125,-4.487598209238458,-3.4131274905254116,-25.881717784199356,16
270,5040.0,0.4338855445384979,0.6534895896911621,-1.2843608856201172,0.611785888671875,3.4187164306640625,7.607635498046875,-4.487598209238458,-3.4131274905254116,-25.881717784199356,16
271,5057.0,0.6045716404914856,0.9231274127960205,-1.6613149642944336,0.4490814208984375,3.4557952880859375,8.540847778320312,-11.057693775657123,-2.852724129504206,-27.708055726747407,16
272,5073.0,0.5235530138015747,0.9968376159667969,-0.5757160186767578,0.55078125,3.3385467529296875,9.27783203125,-19.68580730127067,1.3201389627800646,-27.684450592975843,16
273,5090.0,0.5235530138015747,0.9968376159667969,-0.5757160186767578,0.42755126953125,3.210540771484375,9.696578979492188,-19.68580730127067,1.3201389627800646,-27.684450592975843,16
274,5109.0,0.552524209022522,0.8433589935302734,0.5515079498291016,0.42755126953125,3.210540771484375,9.696578979492188,-15.463985413015749,5.9257628408763425,-25.858112650427792,16
275,5126.0,0.5862897634506226,0.8745639324188232,0.5408573150634766,0.7075042724609375,3.3026580810546875,10.045928955078125,-9.799627572054135,7.808053693105137,-25.50316137964057,16
276,5150.0,0.8989805579185486,0.9805631637573242,0.8826503753662109,0.735015869140625,3.107635498046875,9.526687622070312,-2.6455235108426987,6.000949563259843,-27.036620810578473,16
277,5166.0,0.9502964019775391,0.7830204963684082,0.36232566833496094,0.32464599609375,3.5957794189453125,8.336257934570312,3.312587105942824,0.4904622239202756,-29.044805709588942,16
278,5183.0,0.5527133941650391,1.2581243515014648,-0.8223199844360352,0.42755126953125,3.7860107421875,7.782318115234375,3.9044639786594493,-3.9315661692860595,-28.886563886898088,16
279,5200.0,0.6620475649833679,1.4405488967895508,-1.3698406219482422,0.6249542236328125,4.2406463623046875,8.195083618164062,-1.0727221902855226,-3.9918904000356124,-29.043931445375183,16
280,5217.0,0.8716399669647217,1.8994557857513428,-0.955780029296875,0.6249542236328125,4.2406463623046875,8.195083618164062,-6.471303710263601,0.7588613375450967,-29.69788107726888,16
281,5233.0,0.8877208828926086,1.9112043380737305,-0.9562530517578125,-0.226898193359375,3.564666748046875,8.220199584960938,-6.494908844035165,-2.005562106369184,-32.93353293240068,16
282,5251.0,0.06238481402397156,1.2516286373138428,-0.931910514831543,0.3019256591796875,4.10784912109375,8.729873657226562,-7.723250064370259,5.627638743983626,-31.344120591782033,16
283,5272.0,0.3770119249820709,1.427046298980713,-0.26485157012939453,0.2145843505859375,3.6663665771484375,9.119903564453125,-5.972098844205709,6.659270516222352,-34.385685791458755,16
284,5290.0,0.3770119249820709,1.427046298980713,-0.26485157012939453,-0.1072540283203125,3.540740966796875,8.671249389648438,-5.972098844205709,6.659270516222352,-34.385685791458755,16
285,5307.0,0.606848955154419,1.3910412788391113,-0.03934192657470703,-0.1072540283203125,3.540740966796875,8.671249389648438,-1.630502758665444,3.3134613701565856,-37.347692947683164,16
286,5324.0,0.3409472107887268,1.2512478828430176,-0.4803476333618164,-0.1850128173828125,3.6532135009765625,8.588699340820312,5.920517255593773,1.1496574410965463,-38.130159418999824,16
287,5341.0,0.3409472107887268,1.2512478828430176,-0.4803476333618164,-0.5116424560546875,3.7130279541015625,8.305145263671875,5.920517255593773,1.1496574410965463,-38.130159418999824,16
288,5358.0,-0.00900423526763916,1.3772680759429932,-0.828953742980957,-0.2663726806640625,3.7776336669921875,8.429580688476562,10.424726484893702,0.8943722906781497,-34.39530269781013,16
289,5376.0,0.25913548469543457,1.409797191619873,-0.6935319900512695,-0.2197113037109375,3.6675567626953125,8.8507080078125,13.011674293414371,-0.4983306018441303,-34.14788592531559,16
290,5393.0,0.25913548469543457,1.409797191619873,-0.6935319900512695,-0.2197113037109375,3.6675567626953125,8.8507080078125,13.011674293414371,-0.4983306018441303,-34.14788592531559,16
291,5410.0,0.31752288341522217,1.2003109455108643,-0.24581336975097656,0.07220458984375,3.4330596923828125,8.7550048828125,24.63501701537527,-12.762508992492306,-36.84848808162527,16
292,5426.0,0.31752288341522217,1.2003109455108643,-0.24581336975097656,-0.38720703125,2.9030609130859375,8.199859619140625,24.63501701537527,-12.762508992492306,-36.84848808162527,16
293,5443.0,0.12160611152648926,0.29636716842651367,-0.8556241989135742,-0.368072509765625,3.551513671875,8.489395141601562,30.796831193967254,-17.519380579569347,-38.2149630477347,16
294,5460.0,0.12216520309448242,0.8590793609619141,-0.540776252746582,-0.2950897216796875,4.5002593994140625,8.5743408203125,35.69445931945992,-18.40501022810988,-39.02278318125045,16
295,5477.0,0.12216520309448242,0.8590793609619141,-0.540776252746582,-0.6707611083984375,4.953704833984375,8.714324951171875,35.69445931945992,-18.40501022810988,-39.02278318125045,16
296,5494.0,-0.20550644397735596,2.05216121673584,-0.2543220520019531,-0.6707611083984375,4.953704833984375,8.714324951171875,40.509906608858984,-14.096636182692556,-38.5795312248733,16
297,5511.0,-0.20550644397735596,2.05216121673584,-0.2543220520019531,-1.113433837890625,5.7098388671875,8.046722412109375,40.509906608858984,-14.096636182692556,-38.5795312248733,16
298,5528.0,-0.6296987533569336,2.6278953552246094,-0.8627433776855469,-0.966278076171875,6.3224029541015625,7.7619781494140625,22.29985730041795,-3.3073415206602546,-27.962466612952042,16
299,5547.0,-0.4628167152404785,3.192159414291382,-1.129612922668457,-0.813140869140625,6.4193115234375,7.5741424560546875,7.493318576150949,-1.6654733272159092,-25.833633252442468,16
300,5566.0,-0.286857008934021,3.279125690460205,-1.312037467956543,-0.7054595947265625,5.9371490478515625,7.7212982177734375,-7.415509061126164,0.18359548488994273,-25.566108403031407,16
301,5585.0,-0.15098655223846436,2.824761390686035,-1.1722040176391602,-1.2055511474609375,5.3305816650390625,8.13885498046875,-19.995296832942287,3.4332355674419293,-24.128818035607285,16
302,5602.0,-0.6146790981292725,2.277632713317871,-0.7730817794799805,-1.2055511474609375,5.3305816650390625,8.13885498046875,-30.213696963388244,7.7765801814097175,-17.984489141290535,16
303,5619.0,-0.5763944387435913,2.355807065963745,-0.7969760894775391,-1.0332794189453125,4.9261932373046875,9.771957397460938,-35.04138395177998,9.048634612432892,-12.981075045932714,16
304,5637.0,-0.3793548345565796,2.0370988845825195,0.8036098480224609,-0.9626922607421875,4.1365509033203125,11.141845703125,-35.21711105874606,1.1435375916002148,-9.509371853085273,16
305,5655.0,-0.3119312524795532,1.3334240913391113,2.135263442993164,-0.6599884033203125,3.9822235107421875,11.693389892578125,-32.938778517683254,-10.77180937775707,-9.921150297767001,16
306,5672.0,-0.034848809242248535,1.258122444152832,2.6481056213378906,-0.551116943359375,4.0013580322265625,12.425582885742188,-29.133106395178867,-16.094329911137887,-13.90604658409252,16
307,5691.0,0.16775918006896973,1.0569469928741455,3.2944746017456055,-0.352508544921875,3.6603851318359375,12.412429809570312,-14.77331668414406,-30.06157499019372,-22.457224858895046,16
308,5709.0,0.16775918006896973,1.0569469928741455,3.2944746017456055,-0.0857086181640625,3.3158111572265625,12.212631225585938,-14.77331668414406,-30.06157499019372,-22.457224858895046,16
309,5726.0,0.12068068981170654,1.0769457817077637,3.271289825439453,-0.9124298095703125,2.954498291015625,11.356002807617188,-0.4074071236129206,-20.273312852918487,-31.888787196955533,16
310,5744.0,-0.3997145891189575,0.2744467258453369,2.2215118408203125,-1.85162353515625,2.8097381591796875,9.281417846679688,19.740011682523892,-2.2180083103132606,-40.28084938485344,16
311,5761.0,-0.3997145891189575,0.2744467258453369,2.2215118408203125,-1.769073486328125,2.6434326171875,7.7631683349609375,38.2149630477347,10.534883775827668,-41.37979950155181,16
312,5779.0,-1.1159536838531494,-0.23004412651062012,-1.2990379333496094,-1.6219024658203125,2.3574981689453125,7.74163818359375,30.812567949814962,15.52955522904787,-27.574293302041877,16
313,5796.0,-0.9086616635322571,-0.5676071643829346,-1.293609619140625,-1.6219024658203125,2.3574981689453125,7.74163818359375,13.516124744754833,11.389039912672782,-21.57072094614075,16
314,5813.0,-0.9086616635322571,-0.5676071643829346,-1.293609619140625,-1.5537109375,1.97943115234375,8.628173828125,13.516124744754833,11.389039912672782,-21.57072094614075,16
315,5830.0,-0.8125403523445129,-0.9270915985107422,-0.4023284912109375,-1.5967864990234375,1.974639892578125,9.562576293945312,-10.555866116957946,-17.473044576239978,-15.70528233601396,16
316,5848.0,-0.8125403523445129,-0.9270915985107422,-0.4023284912109375,-1.047637939453125,2.1361541748046875,9.57574462890625,-10.555866116957946,-17.473044576239978,-15.70528233601396,16
317,5864.0,-0.42289572954177856,-0.7137641906738281,0.5158452987670898,-0.42669677734375,2.149322509765625,9.179733276367188,-3.807420650931908,-32.76479993914469,-11.847154360683877,16
318,5882.0,0.130548894405365,-0.6928694248199463,0.11347484588623047,0.0458831787109375,1.9782257080078125,8.422393798828125,2.046652524415981,-26.14574557675537,-15.12739369071752,16
319,5899.0,0.5609543323516846,-0.8700013160705566,-0.640507698059082,0.0458831787109375,1.9782257080078125,8.422393798828125,7.500312689861042,-15.219191433162493,-21.1388344245425,16
320,5919.0,0.5491123795509338,-0.8832893371582031,-0.6330413818359375,-0.44464111328125,2.1421356201171875,7.51910400390625,7.961049930513422,-6.425841971147996,-24.84221763403678,16
321,5936.0,0.06343072652816772,-0.7254321575164795,-1.5267810821533203,-0.327392578125,2.2988739013671875,6.64453125,1.7782534107911598,-5.78500630246072,-26.004989038339748,16
322,5956.0,0.18146634101867676,-0.5541551113128662,-2.395109176635742,-0.262786865234375,2.1529083251953125,6.4782257080078125,-7.821167656311561,-10.568980080164371,-29.324570257992665,16
323,5978.0,0.5438085794448853,-0.5077736377716064,-2.3249330520629883,-0.2592010498046875,2.47235107421875,7.3575897216796875,-18.640187301611757,-4.185977055490695,-35.06149202869649,16
324,5995.0,0.5438085794448853,-0.5077736377716064,-2.3249330520629883,-0.2592010498046875,2.47235107421875,7.3575897216796875,-18.640187301611757,-4.185977055490695,-35.06149202869649,16
325,6011.0,0.27667611837387085,-0.23847341537475586,-1.6946067810058594,-0.950714111328125,2.5297698974609375,7.6614837646484375,-17.127710211804136,2.7521837449216178,-36.741827847546354,16
326,6029.0,-0.35126131772994995,-0.111419677734375,-1.394002914428711,-1.0906982421875,2.27374267578125,7.7272796630859375,-3.2924790290263064,-5.054995683969757,-32.72196099267037,16
327,6047.0,-0.35126131772994995,-0.111419677734375,-1.394002914428711,-0.3644866943359375,2.3048553466796875,7.845733642578125,-3.2924790290263064,-5.054995683969757,-32.72196099267037,16
328,6064.0,0.1996835470199585,-0.33363986015319824,-1.2014760971069336,-0.2137298583984375,2.5178070068359375,8.058685302734375,7.546648693190408,-25.00920209886525,-33.28149008947781,16
329,6081.0,0.3077910542488098,-0.14298510551452637,-0.980198860168457,-0.710235595703125,2.9987640380859375,8.536056518554688,14.367658088958663,-27.32949932218862,-39.11895224476423,16
330,6101.0,0.3077910542488098,-0.14298510551452637,-0.980198860168457,-0.710235595703125,2.9987640380859375,8.536056518554688,14.367658088958663,-27.32949932218862,-39.11895224476423,16
331,6118.0,-0.24555158615112305,0.22855138778686523,-0.46975231170654297,-1.07275390625,3.3433380126953125,8.152008056640625,31.028511210614084,-19.338724408407302,-38.92224279666786,16
332,6135.0,-0.6331887245178223,0.4931514263153076,-0.8273992538452148,-1.1038665771484375,3.5933837890625,7.8014678955078125,32.08811943769319,-24.69796403876611,-35.48551017237089,16
333,6154.0,-0.7025556564331055,0.6744992733001709,-1.1538639068603516,-1.119415283203125,3.87933349609375,8.75140380859375,21.52788199966643,-28.47653397064388,-33.029701995914465,16
334,6172.0,-0.7628432512283325,0.9256255626678467,-0.19498443603515625,-0.725799560546875,3.2966766357421875,10.823593139648438,5.168650031758769,-29.774816328079904,-33.432737798458575,16
335,6189.0,-0.4302977919578552,0.3414182662963867,1.867147445678711,-0.5463409423828125,2.702056884765625,12.43756103515625,-2.23374506616097,-40.78704836462143,-35.02739572435979,16
336,6205.0,-0.34583109617233276,-0.2520129680633545,3.4639129638671875,-0.5463409423828125,2.702056884765625,12.43756103515625,4.616115048661418,-56.315729329455536,-36.54074707838117,16
337,6223.0,-0.46847835183143616,-0.28171467781066895,3.4577484130859375,-0.533172607421875,2.7917938232421875,11.8453369140625,20.669354541752508,-62.84386021361364,-37.10115043940238,16
338,6240.0,-0.5777485370635986,-0.2620577812194824,2.8772335052490234,-0.7162322998046875,3.0908966064453125,9.573348999023438,34.25716895203579,-55.998371419860064,-33.941559570867845,16
339,6257.0,-0.8482153415679932,-0.05056405067443848,0.6338939666748047,-0.8227081298828125,4.17962646484375,8.455902099609375,32.49727508973363,-34.713534871619366,-28.193272365385113,16
340,6281.0,-0.9679311513900757,0.7911221981048584,0.05316638946533203,0.200225830078125,2.71282958984375,10.932464599609375,-15.846913138643345,-8.675323793156675,-22.987028972434594,16
341,6299.0,-0.9679311513900757,0.7911221981048584,0.05316638946533203,0.200225830078125,2.71282958984375,10.932464599609375,-15.846913138643345,-8.675323793156675,-22.987028972434594,16
342,6316.0,-0.023756027221679688,-0.3195021152496338,1.9411230087280273,0.8415069580078125,2.139739990234375,13.0596923828125,-42.073091023064784,-34.00975217954125,-41.778463983027116,16
343,6333.0,0.5684244632720947,-0.7940545082092285,4.02125358581543,0.6165771484375,2.233062744140625,13.3779296875,-32.113473099892275,-31.313521344300376,-47.35889245946761,16
344,6357.0,0.31488844752311707,-0.6269829273223877,4.29958438873291,0.41796875,1.85260009765625,12.922103881835938,-24.223238570693542,-20.415817919761633,-48.851261472358715,16
345,6376.0,0.13309615850448608,-0.9615461826324463,3.814154624938965,0.0853729248046875,1.283111572265625,11.047317504882812,-10.299706702325787,2.3517707350187904,-49.974690987042415,16
346,6397.0,-0.06590470671653748,-1.5500051975250244,-0.6828813552856445,-0.38720703125,1.421905517578125,8.423599243164062,15.183346600398265,9.416699846426539,-48.31796030196412,16
347,6414.0,-0.06590470671653748,-1.5500051975250244,-0.6828813552856445,-1.0284881591796875,1.839447021484375,6.71990966796875,15.183346600398265,9.416699846426539,-48.31796030196412,16
348,6431.0,-0.48933717608451843,-1.4385833740234375,-0.6702814102172852,-1.008148193359375,2.0248870849609375,6.5894927978515625,8.499596686190587,-3.4393554169382607,-45.958321189021476,16
349,6450.0,-1.084458827972412,-0.8186123371124268,-2.4871816635131836,-0.6288909912109375,2.008148193359375,7.1446380615234375,-9.817987120543128,-11.31909877557185,-35.43392858375895,16
350,6467.0,-1.084458827972412,-0.8186123371124268,-2.4871816635131836,-0.920806884765625,2.04522705078125,7.482025146484375,-9.817987120543128,-11.31909877557185,-35.43392858375895,16
351,6484.0,-0.9590873122215271,-0.7435064315795898,-1.5950736999511719,-0.920806884765625,2.04522705078125,7.482025146484375,-6.7178462185443815,-0.32872334437437367,-32.53399418671162,16
352,6501.0,-0.9329184889793396,-0.7312953472137451,-1.5912895202636719,-0.954315185546875,2.3251953125,7.7320709228515625,-0.34183730758079817,-2.557222825252774,-31.367725725553598,16
353,6518.0,-0.9329184889793396,-0.7312953472137451,-1.5912895202636719,-0.856201171875,2.509429931640625,7.6160125732421875,-0.34183730758079817,-2.557222825252774,-31.367725725553598,16
354,6535.0,-0.825240969657898,-0.30885839462280273,-1.4318180084228516,-1.00335693359375,2.7582855224609375,7.4700469970703125,16.954605897479333,-1.6436167218718685,-30.85453263207552,16
355,6558.0,-0.941914439201355,-0.11159420013427734,-1.5547666549682617,-0.96148681640625,2.78460693359375,7.51910400390625,22.644317400640034,3.291604764812545,-28.162673117903456,16
356,6577.0,-0.866163969039917,-0.14965438842773438,-1.4783382415771484,-0.90167236328125,2.9090423583984375,7.065673828125,27.02875243265462,2.3570163203013603,-26.097661044998482,16
357,6593.0,-0.7837340831756592,-0.09824490547180176,-1.8993139266967773,-0.90167236328125,2.9090423583984375,7.065673828125,29.37003199710827,-4.234935851461346,-24.6411368648716,16
358,6611.0,-0.7756057977676392,-0.16875982284545898,-1.8672294616699219,-1.012939453125,3.3553009033203125,6.6110382080078125,25.60457602843692,-7.62270967978767,-21.703609106632516,16
359,6627.0,-0.8828028440475464,0.22143101692199707,-2.2930784225463867,-1.0739593505859375,3.4976654052734375,7.1338653564453125,17.15743519507203,-5.222854413011991,-16.33737536256362,16
360,6645.0,-0.9356264472007751,0.3283722400665283,-1.750802993774414,-1.164886474609375,3.48809814453125,8.44512939453125,9.369489578883412,-0.7352562037735326,-9.897545163995437,16
361,6664.0,-1.011396050453186,0.2981100082397461,-0.4305992126464844,-1.5094451904296875,3.234466552734375,9.237152099609375,5.776263660323104,4.739386302801808,-2.4225861363334826,16
362,6685.0,-1.2289814949035645,0.049933433532714844,0.5337991714477539,-1.5094451904296875,3.234466552734375,9.237152099609375,6.382128760459914,4.4333938279852365,5.31902347652577,16
363,6702.0,-1.3544871807098389,0.023946285247802734,0.3631277084350586,-1.3921966552734375,3.2811279296875,9.444137573242188,-8.679695114225483,-6.701235198482911,15.744624225633233,16
364,6719.0,-1.3544871807098389,0.023946285247802734,0.3631277084350586,-1.2294921875,3.38641357421875,10.86187744140625,-8.679695114225483,-6.701235198482911,15.744624225633233,16
365,6736.0,-1.156543254852295,0.2596120834350586,1.9458541870117188,-1.0153350830078125,3.2811279296875,11.402664184570312,-21.986870711891285,-16.266559961248927,12.885780246632695,16
366,6757.0,-0.9810373187065125,0.20966792106628418,2.4566001892089844,-1.413726806640625,3.3768310546875,11.675445556640625,-21.15806823724526,-9.803124628909181,5.966853258923139,16
367,6776.0,-1.388790488243103,0.35292720794677734,2.7013492584228516,-2.252410888671875,3.1961822509765625,12.04632568359375,-16.264811432821404,1.9557290461847712,4.85828623587339,16
368,6793.0,-2.202929735183716,0.2020585536956787,3.049264907836914,-2.252410888671875,3.1961822509765625,12.04632568359375,-7.058809261911418,15.088926065312009,11.177467972942466,16
369,6810.0,-2.15991473197937,0.20462417602539062,3.035676956176758,-1.7319793701171875,2.661376953125,11.679031372070312,4.33897329289898,19.115787033898087,14.140349393380639,16
370,6827.0,-1.6105245351791382,-0.351041316986084,2.6649293899536133,-1.1098480224609375,2.27972412109375,10.025588989257812,12.323628357183967,6.790410148286597,13.113963206424481,16
371,6844.0,-0.9910480380058289,-0.7607150077819824,1.0176277160644531,-0.701873779296875,2.4268798828125,8.461883544921875,11.041957019809415,-4.680810600479778,8.604508391841984,16
372,6865.0,-0.5908815264701843,-0.6297221183776855,-0.5375900268554688,-1.7283935546875,2.6338653564453125,10.010040283203125,3.051182106028096,1.0517398491552434,3.733982456975931,16
373,6885.0,-1.3062214851379395,-0.5444934368133545,-0.5605792999267578,-1.7283935546875,2.6338653564453125,10.010040283203125,-4.33897329289898,19.844049123961526,2.9436476077354152,16
374,6901.0,-1.4044721126556396,-0.3888685703277588,0.9996728897094727,-1.8480377197265625,2.29168701171875,10.6728515625,-3.2548856678345564,38.5340694857577,5.280555851120258,16
375,6920.0,-1.4044721126556396,-0.3888685703277588,0.9996728897094727,-1.9305877685546875,2.2641754150390625,10.05670166015625,-3.2548856678345564,38.5340694857577,5.280555851120258,16
376,6937.0,-1.4418158531188965,-0.7233638763427734,1.6570549011230469,-1.7307891845703125,2.2749481201171875,8.630569458007812,-0.6495783108248927,22.794690845407036,5.27618453005145,16
377,6958.0,-1.3154089450836182,-0.7247259616851807,-0.39113903045654297,-1.423309326171875,2.2713470458984375,7.370758056640625,-4.6615767877770224,-19.98480566237715,2.550228711542681,16
378,6975.0,-1.0700716972351074,-0.7066922187805176,-1.6530418395996094,-0.689910888671875,2.2246856689453125,7.1566009521484375,-9.75416583293853,-28.31479509109798,3.685897925219041,16
379,6992.0,-0.4127090871334076,-0.7221500873565674,-1.8713254928588867,-0.689910888671875,2.2246856689453125,7.1566009521484375,-11.872508022882965,-27.770128485924484,4.438639413267806,16
380,7009.0,-0.477641224861145,-0.6930387020111084,-1.8738059997558594,-0.391998291015625,2.139739990234375,7.413818359375,-8.233820365207052,-19.64821394007892,5.200123543454188,16
381,7027.0,-0.23166310787200928,-0.7579083442687988,-1.6163578033447266,-0.3142242431640625,2.24981689453125,7.42938232421875,-4.813698760971547,-16.55157009493522,6.473926502904886,16
382,7045.0,-0.20054252445697784,-0.6398780345916748,-1.5965232849121094,-0.2496185302734375,2.43048095703125,7.096771240234375,0.5918768727166249,-15.052206968334021,6.91018434557194,16
383,7061.0,-0.18007034063339233,-0.4660515785217285,-1.918741226196289,-0.2412567138671875,2.7870025634765625,6.826385498046875,5.884672422829546,-14.431479376563262,7.072797489331604,16
384,7082.0,-0.21545687317848206,-0.12877631187438965,-2.173886299133301,-0.1718597412109375,2.9197998046875,6.4949798583984375,8.997053023820957,-14.792550496846816,7.2695069374279715,16
385,7098.0,-0.19210848212242126,-0.021013498306274414,-2.4867238998413086,0.0877685546875,2.9856109619140625,6.7414398193359375,10.029559060273444,-15.842541817574535,7.9558043452308524,16
386,7116.0,-0.2363618016242981,-0.04633498191833496,-2.467787742614746,-0.232879638671875,3.142333984375,7.3396453857421875,9.410579996930208,-13.989975948613637,6.048159830802971,16
387,7133.0,-0.011023037135601044,-0.00624847412109375,-2.2032337188720703,-0.473358154296875,3.351715087890625,7.9893035888671875,10.264736133775322,-9.898419428209198,0.8690186284790623,16
388,7150.0,-0.6053977012634277,0.2933938503265381,-0.9224557876586914,-0.587005615234375,3.4318695068359375,8.037155151367188,14.610703540384396,-7.426000231691304,-6.857728492746243,16
389,7168.0,-0.6053977012634277,0.2933938503265381,-0.9224557876586914,-0.5882110595703125,3.5945892333984375,7.9007568359375,14.610703540384396,-7.426000231691304,-6.857728492746243,16
390,7185.0,-0.7261145710945129,0.33133888244628906,-0.85675048828125,-0.5882110595703125,3.5945892333984375,7.9007568359375,16.46152088091777,-5.713316636932266,-8.804714896793397,16
391,7201.0,-0.7281167507171631,0.45099830627441406,-0.9745492935180664,-0.626495361328125,3.70465087890625,8.2919921875,14.894839409856926,-3.5538840289410345,-9.271571986942108,16
392,7218.0,-0.72148597240448,0.4194481372833252,-0.9599771499633789,-0.72698974609375,3.6723480224609375,9.099563598632812,7.762591953989531,-0.055952909680744456,-8.751384779753938,16
393,7235.0,-0.8520036935806274,0.5047740936279297,0.2359304428100586,-0.566680908203125,3.67474365234375,10.347427368164062,-12.825456015883143,-7.370047322010559,-8.488231251411687,16
394,7252.0,-0.8520036935806274,0.5047740936279297,0.2359304428100586,-0.68511962890625,3.6197052001953125,11.163375854492188,-12.825456015883143,-7.370047322010559,-8.488231251411687,16
395,7270.0,-0.7067786455154419,0.5465734004974365,1.4631567001342773,-0.68511962890625,3.6197052001953125,11.163375854492188,-19.483852267891734,-12.369090096299571,-7.953181552589568,16
396,7294.0,-0.878142774105072,0.5828585624694824,2.228269577026367,-0.2137298583984375,3.3158111572265625,11.450515747070312,-14.795173289488101,-13.136694075982284,-9.10109046525859,16
397,7311.0,-0.4201432168483734,0.30911731719970703,2.4946861267089844,-0.4243011474609375,3.6065521240234375,11.2076416015625,-9.670236468417412,-5.723807807497406,-12.399689343781228,16
398,7328.0,-0.6195868253707886,0.6222236156463623,2.233926773071289,-1.2976837158203125,3.574249267578125,11.278228759765625,-9.935138525187188,3.5372730088795636,-13.496890932052077,16
399,7345.0,-1.4638713598251343,0.6185202598571777,2.2841758728027344,-1.2151336669921875,2.8456268310546875,11.856094360351562,-14.319573557201773,5.402952841046886,-12.140032872294023,16
400,7363.0,-1.3587801456451416,-0.06751632690429688,2.8360891342163086,-0.18023681640625,1.899261474609375,12.158798217773438,-18.20130666630342,-0.6093621569918576,-12.181997554554583,16
401,7380.0,-0.3202103078365326,-0.9609293937683105,3.1100873947143555,-0.18023681640625,1.899261474609375,12.158798217773438,-19.254795043886187,-7.230165047808698,-17.598938623021656,16
402,7396.0,-0.32168179750442505,-0.9117348194122314,3.083014488220215,0.1691131591796875,1.6492156982421875,12.19708251953125,-15.563651533384576,-8.133279980624463,-24.3517554101165,16
403,7415.0,0.03217586874961853,-1.1253156661987305,3.0984878540039062,-0.0785369873046875,1.6839141845703125,11.803451538085938,-9.060874311425556,-4.484101152383412,-27.695816027754745,16
404,7432.0,-0.19924941658973694,-1.0708847045898438,2.6887521743774414,0.041107177734375,1.5188140869140625,11.13226318359375,-3.141231320045544,-0.7684782438964747,-27.400314723503314,16
405,7448.0,-0.061533041298389435,-1.2309355735778809,2.008969306945801,-0.0833282470703125,1.5008697509765625,10.036361694335938,2.5650912031766286,-2.243361972512348,-26.706148937776575,16
406,7467.0,-0.17969059944152832,-1.25569486618042,0.9128341674804688,-0.1790313720703125,1.6300811767578125,9.086410522460938,5.94587091779286,-9.187642622420992,-24.9191528848478,16
407,7486.0,-0.2900197207927704,-1.1415019035339355,-0.03080463409423828,-0.1790313720703125,1.6300811767578125,9.086410522460938,8.41566732166947,-17.149566817148177,-22.95817825338046,16
408,7502.0,-0.3203079104423523,-1.1637029647827148,-0.02199840545654297,-0.3955841064453125,2.00933837890625,7.1673583984375,11.357566400977364,-20.35986501008089,-22.40214621342806,16
409,7519.0,-0.505964457988739,-1.0830268859863281,-1.0185832977294922,-0.683929443359375,2.32757568359375,6.4602813720703125,14.32919046355315,-14.096636182692556,-22.714258537740964,16
410,7542.0,-0.8102049231529236,-0.5671787261962891,-2.5902509689331055,-0.98541259765625,2.479522705078125,6.561981201171875,11.88125066502058,13.087735280011634,-22.173963253636277,16
411,7564.0,-1.0482810735702515,-0.44390273094177246,-2.4690303802490234,-1.0811309814453125,2.3706512451171875,6.6923828125,10.596956535004743,17.55347688390605,-21.317184324149878,16
412,7580.0,-1.0789154767990112,-0.578862190246582,-2.3198633193969727,-1.0811309814453125,2.3706512451171875,6.6923828125,10.721102053358894,15.016362135569793,-19.617614692597265,16
413,7598.0,-1.0217328071594238,-0.6057262420654297,-2.3003969192504883,-1.012939453125,2.3634796142578125,6.56317138671875,11.604983173471904,12.665465664764765,-18.35605143213923,16
414,7615.0,-0.8997418284416199,-0.6404545307159424,-2.408993721008301,-1.200775146484375,2.489105224609375,6.585906982421875,11.617222872464568,14.03980900879805,-15.820685212230496,16
415,7631.0,-1.033400297164917,-0.5419254302978516,-2.3657073974609375,-1.230682373046875,2.5166168212890625,6.768951416015625,11.105778307414013,14.692010112264228,-11.767596317231568,16
416,7649.0,-1.0160377025604248,-0.5390746593475342,-2.163541793823242,-1.1289825439453125,2.6338653564453125,7.06207275390625,9.806621685764227,11.563892755425108,-7.671668475758322,16
417,7665.0,-0.8793849349021912,-0.44350194931030273,-1.853774070739746,-1.0883026123046875,2.8743438720703125,7.295379638671875,8.496973893549303,7.998643291705172,-5.0707324398174665,16
418,7682.0,-0.8154175281524658,-0.22274327278137207,-1.6060152053833008,-1.0883026123046875,2.8743438720703125,7.295379638671875,7.466216385524338,5.472893978147817,-0.026227926412848965,16
419,7699.0,-0.7968639135360718,-0.2382216453552246,-1.5931205749511719,-1.1816253662109375,3.264373779296875,7.839752197265625,4.994671453220205,8.251305649482283,5.8951635933946855,16
420,7716.0,-0.8699514865875244,0.13889527320861816,-1.0395097732543945,-1.176849365234375,3.39837646484375,8.693984985351562,3.9420573398511993,10.321563307669829,10.714107939648802,16
421,7733.0,-0.8386238813400269,0.2620232105255127,-0.18023395538330078,-1.4280853271484375,3.39239501953125,9.63555908203125,2.720710233226199,16.164271048238817,14.161331734510917,16
422,7750.0,-1.0490976572036743,0.24361538887023926,0.7636480331420898,-1.4879150390625,3.322998046875,10.0411376953125,4.784848041917413,23.91724609587697,20.00666226772119,16
423,7768.0,-1.060145378112793,0.15361785888671875,1.173431396484375,-1.38262939453125,3.48211669921875,9.884414672851562,8.695431870073193,26.33983223221045,25.305577667330443,16
424,7789.0,-0.9164363145828247,0.2850959300994873,1.0236587524414062,-1.3969879150390625,4.003753662109375,9.5242919921875,9.125569863243916,19.809078555411062,29.137477716247677,16
425,7806.0,-0.9150705337524414,0.2646787166595459,1.0262260437011719,-1.447235107421875,4.268157958984375,9.462081909179688,2.852724129504206,-1.1863765380745348,27.666091044486848,16
426,7823.0,-1.1074271202087402,1.0928709506988525,0.5745382308959961,-2.3481292724609375,3.83984375,10.502960205078125,-26.23492052655906,-23.235320009142896,18.6506784721769,16
427,7840.0,-1.1074271202087402,1.0928709506988525,0.5745382308959961,-2.474945068359375,2.9042510986328125,15.008636474609375,-26.23492052655906,-23.235320009142896,18.6506784721769,16
428,7856.0,-2.0339760780334473,0.7517311573028564,1.5758323669433594,-1.5321807861328125,1.5786285400390625,16.051910400390625,-44.60321165769095,12.311388658191303,24.10521290183572,16
429,7874.0,-2.1131393909454346,-0.06667208671569824,6.018180847167969,-1.5321807861328125,1.5786285400390625,16.051910400390625,-46.50735911526378,36.72171977062983,32.438699387411596,16
430,7890.0,-1.125562310218811,-1.3057153224945068,7.007434844970703,-0.920806884765625,1.9411468505859375,12.3502197265625,-17.528123221706963,15.276018607056999,33.17745264804018,16
431,7907.0,-0.6211156845092773,-1.0444004535675049,3.2942943572998047,-1.38262939453125,3.1196136474609375,8.085006713867188,48.76645784362384,-30.534551929838763,15.398415596983627,16
432,7924.0,-0.6211156845092773,-1.0444004535675049,3.2942943572998047,-1.282135009765625,3.1507110595703125,6.1887054443359375,48.76645784362384,-30.534551929838763,15.398415596983627,16
433,7940.0,-1.150343894958496,0.011470317840576172,-0.9278240203857422,-1.6135406494140625,3.3553009033203125,7.839752197265625,42.832826624823646,-13.98035904226226,15.311863439821225,16
434,7958.0,-1.0650670528411865,-0.037934064865112305,-2.7847394943237305,-2.0203094482421875,2.714019775390625,10.853500366210938,17.567465111326236,10.011199511784449,16.423053255512258,16
435,7975.0,-1.3538602590560913,0.1519784927368164,-1.1230220794677734,-2.0203094482421875,2.714019775390625,10.853500366210938,-7.576373676458304,28.656632398678777,13.218874912075878,16
436,7992.0,-1.5887298583984375,-0.4368624687194824,1.863870620727539,-1.6434478759765625,2.3060455322265625,11.501968383789062,-2.7128418553023446,33.77807216289442,11.737871333963673,16
437,8009.0,-1.5887298583984375,-0.4368624687194824,1.863870620727539,-1.7164306640625,2.191192626953125,9.732467651367188,-2.7128418553023446,33.77807216289442,11.737871333963673,16
438,8026.0,-1.1501634120941162,-0.8560490608215332,2.509950637817383,-1.12420654296875,2.185211181640625,7.845733642578125,12.934739042603347,16.97471397439585,9.683350431623838,16
439,8044.0,-0.6297405958175659,-1.067488193511963,-1.1096563339233398,-0.584625244140625,2.1505126953125,6.6253814697265625,19.404294224439425,-9.64750559885961,9.67460778948622,16
440,8065.0,-0.13003480434417725,-1.1438133716583252,-2.305511474609375,-0.4195098876953125,2.07275390625,6.0774383544921875,14.949043791110148,-14.159583206083393,9.727063642311919,16
441,8082.0,-0.01522722840309143,-1.2537579536437988,-2.8301429748535156,-0.4195098876953125,2.07275390625,6.0774383544921875,12.72666415972808,-17.367258606374822,9.30916534813386,16
442,8099.0,-0.07518792152404785,-1.280458927154541,-2.808887481689453,-0.5953826904296875,2.32159423828125,5.5617828369140625,11.020100414465373,-21.88807885573622,9.401837354792592,16
443,8115.0,-0.31963542103767395,-1.052551507949829,-3.303553581237793,-0.3249969482421875,2.6685638427734375,5.55938720703125,7.695273609529886,-24.35525246697155,10.499913207277201,16
444,8133.0,-0.11735105514526367,-0.7183554172515869,-3.2880401611328125,0.0506744384765625,2.95330810546875,5.99847412109375,3.8152890288557626,-20.453411280953382,10.618813140348784,16
445,8151.0,0.19939523935317993,-0.4402179718017578,-2.8350229263305664,-0.1311798095703125,3.0885009765625,6.192291259765625,2.240739179871063,-16.60577447618844,9.6955901306165,16
446,8169.0,-0.0334804430603981,-0.3098156452178955,-2.6285791397094727,-0.3118438720703125,3.465362548828125,6.3143157958984375,2.1611811364187545,-15.800577135313977,8.893889846597084,16
447,8186.0,-0.26432687044143677,0.061649322509765625,-2.4945526123046875,-0.3118438720703125,3.465362548828125,6.3143157958984375,1.640119665016822,-17.476541633095025,7.783574295119811,16
448,8203.0,-0.3179745078086853,0.05879783630371094,-2.483279228210449,-0.0498199462890625,3.75250244140625,6.246124267578125,0.3182321738092341,-20.43505173246439,4.385309296228347,16
449,8220.0,-0.10487008094787598,0.34897851943969727,-2.5424013137817383,0.6189727783203125,3.7824249267578125,6.356201171875,-3.8100434435731927,-17.605058472517985,-3.7243655506245528,16
450,8236.0,0.5426920056343079,0.3952162265777588,-2.428961753845215,-0.3596954345703125,4.683319091796875,7.6925811767578125,-10.255993491637707,-4.737637774374284,-15.981549827562635,16
451,8254.0,-0.41421234607696533,1.3173654079437256,-1.098409652709961,-1.4747467041015625,4.6701507568359375,9.515914916992188,-10.805031417880011,6.628671268740695,-19.479480946822925,16
452,8272.0,-1.487915277481079,1.3139793872833252,0.715947151184082,-1.341949462890625,4.5529022216796875,9.855697631835938,-1.2318382771901397,7.96017566629966,-13.630653356757607,16
453,8288.0,-1.3169076442718506,1.1826517581939697,1.0548162460327148,-1.341949462890625,4.5529022216796875,9.855697631835938,8.29764165281165,9.038143441867753,-8.336109278217162,16
454,8304.0,-1.2732599973678589,1.1588013172149658,1.057882308959961,-0.902862548828125,4.5732421875,9.633163452148438,6.510645599882874,13.663001132666787,-10.05928404354134,16
455,8323.0,-0.7789055109024048,1.1726746559143066,0.8330259323120117,-1.62310791015625,4.61273193359375,10.619003295898438,-5.11531991471931,18.26075663283921,-11.814806584774697,16
456,8340.0,-1.4310715198516846,1.2331225872039795,1.8023700714111328,-1.7786407470703125,4.2059478759765625,12.063079833984375,-14.811784309549571,21.368765912761813,-10.179932505040444,16
457,8357.0,-1.5432552099227905,0.8599605560302734,3.2196779251098633,-1.0631866455078125,3.92718505859375,12.08221435546875,-13.480279911990605,-1.499363126601199,-12.43291138390417,16
458,8375.0,-0.8541597127914429,0.6002700328826904,3.216472625732422,-1.0631866455078125,3.92718505859375,12.08221435546875,-2.3823699825004474,-32.52000595929143,-16.494742921040714,16
459,8392.0,-0.9300093054771423,0.5998270511627197,3.200784683227539,-0.7533111572265625,4.9525146484375,8.816024780273438,1.6479880429406766,-41.97604769533724,-18.42774109766768,16
460,8409.0,-0.7923882603645325,1.6298997402191162,-0.0751953125,-1.1971893310546875,4.741943359375,10.141647338867188,-10.437840448100125,-31.86605632739773,-17.81051056275197,16
461,8429.0,-0.7923882603645325,1.6298997402191162,-0.0751953125,-0.9184112548828125,3.4665679931640625,11.844131469726562,-10.437840448100125,-31.86605632739773,-17.81051056275197,16
462,8452.0,-1.0461170673370361,0.2078258991241455,2.910369873046875,-0.1479339599609375,2.8480224609375,12.140838623046875,-12.536948825341804,-22.645191664853794,-13.609671015627328,16
463,8469.0,-0.3214747905731201,-0.39718174934387207,3.1902027130126953,-0.1479339599609375,2.8480224609375,12.140838623046875,3.041565199676718,-24.82210955712026,-17.733575311940946,16
464,8485.0,-0.36094504594802856,-0.4269545078277588,3.189250946044922,-0.2005767822265625,2.9377593994140625,10.33306884765625,20.29167240140748,-21.412479123449895,-23.399681681330083,16
465,8503.0,-0.4244042634963989,-0.4016838073730469,1.4004106521606445,-0.16827392578125,3.212921142578125,8.476242065429688,29.067536579146743,-7.135744512722441,-28.157427532620886,16
466,8521.0,-0.36871907114982605,-0.19872522354125977,-0.4275045394897461,-0.391998291015625,3.1219940185546875,7.3719482421875,25.478681981655246,2.2180083103132606,-29.590346578976202,16
467,8537.0,-0.5576927661895752,-0.33854031562805176,-1.506728172302246,-0.533172607421875,2.8779296875,7.881622314453125,11.903981534578383,0.06731834445964567,-29.314953351641286,16
468,8556.0,-0.6708004474639893,-0.5890655517578125,-0.989863395690918,-0.821502685546875,2.530975341796875,9.255096435546875,-6.023680432817645,-3.198932758153812,-28.540355258248482,16
469,8573.0,-0.9455055594444275,-0.905592679977417,0.37154579162597656,-0.821502685546875,2.530975341796875,9.255096435546875,-15.21307158366616,-10.297958173898264,-25.069526329614803,16
470,8590.0,-0.9604198932647705,-0.8627769947052002,0.35527610778808594,-0.7305755615234375,2.26776123046875,9.387908935546875,-15.456991299305656,-21.460563655206784,-19.548547819710095,16
471,8608.0,-0.9113326668739319,-1.0864219665527344,0.4736604690551758,-0.7581024169921875,2.3359527587890625,8.374542236328125,-11.897861685082052,-26.755107733747227,-15.234928189010201,16
472,8624.0,-0.9932783842086792,-0.9886677265167236,-0.5455684661865234,-0.4661712646484375,2.31561279296875,6.70196533203125,-8.098309412073998,-28.355011244931013,-12.149649778645403,16
473,8642.0,-0.7632535099983215,-0.9804904460906982,-2.2159814834594727,-0.4075469970703125,2.578826904296875,5.548614501953125,-11.199324578286507,-30.434885809469936,-12.04648660142153,16
474,8660.0,-0.7721748352050781,-0.6760647296905518,-3.3667049407958984,-0.127593994140625,2.912628173828125,5.6850128173828125,-19.036228990445778,-33.5892310927219,-14.828395329611043,16
475,8676.0,-0.5603460669517517,-0.28157639503479004,-3.235118865966797,-0.127593994140625,2.912628173828125,5.6850128173828125,-27.840943887239174,-32.68786468833366,-19.30375383985684,16
476,8693.0,-0.6049747467041016,-0.2036910057067871,-3.2463436126708984,-1.5477294921875,2.867156982421875,6.9926910400390625,-32.73420069166303,-16.15028282081863,-16.67571561328937,16
477,8711.0,-2.0243756771087646,-0.1658034324645996,-1.9584712982177734,-0.397979736328125,2.71881103515625,8.630569458007812,-31.784749755517897,0.7920833776680387,-10.52614113369005,16
478,8727.0,-1.3612816333770752,-0.025575876235961914,-0.9452915191650391,-0.256805419921875,2.47833251953125,8.97991943359375,-23.89713801896045,17.48965559630145,-6.678504328925108,16
479,8746.0,-0.49596768617630005,-0.4146604537963867,-0.02004718780517578,-0.6360626220703125,2.5572967529296875,8.760986328125,-0.5857570232202935,50.7589059867866,-5.602285081784538,16
480,8763.0,-0.49596768617630005,-0.4146604537963867,-0.02004718780517578,-0.6360626220703125,2.5572967529296875,8.760986328125,-0.5857570232202935,50.7589059867866,-5.602285081784538,16
481,8780.0,-0.6007331609725952,-0.38893651962280273,-0.22185993194580078,-0.69110107421875,3.0047454833984375,7.8194122314453125,20.009285060362476,42.60639219345938,0.03147351169541876,16
482,8799.0,-0.5674272179603577,0.0029115676879882812,-1.1394929885864258,-0.7951812744140625,3.51800537109375,7.1506195068359375,22.265760996081248,24.265203252954098,4.21570203875859,16
483,8816.0,-0.5674272179603577,0.0029115676879882812,-1.1394929885864258,-0.932769775390625,4.0312652587890625,7.1685638427734375,22.265760996081248,24.265203252954098,4.21570203875859,16
484,8834.0,-0.7340286374092102,0.9339311122894287,-1.743788719177246,-1.0751495361328125,4.0779266357421875,7.740447998046875,9.080982388342074,12.867420698143702,14.10975014589898,16
485,8853.0,-0.8480715155601501,0.9667091369628906,-1.1630268096923828,-0.831085205078125,3.8242950439453125,9.3017578125,-2.2660928420701505,17.845481131302435,19.585266916688084,16
486,8870.0,-0.5697536468505859,0.7257058620452881,0.39205360412597656,-0.831085205078125,3.8242950439453125,9.3017578125,-10.759569678764407,21.134463103473696,22.088285360687635,16
487,8888.0,-0.5446009635925293,0.7521569728851318,0.38092041015625,-0.5367584228515625,3.63885498046875,10.731475830078125,-13.069375731522639,10.66514914367815,19.044097368369634,16
488,8904.0,-0.26240119338035583,0.5956766605377197,1.7919559478759766,-1.036865234375,3.904449462890625,11.267471313476562,-12.063971885696763,-8.896512639238368,15.479722168863459,16
489,8921.0,-0.8109548091888428,0.890038013458252,2.3058691024780273,-1.0883026123046875,3.9475250244140625,11.053314208984375,-13.607048222986043,-20.726181715647012,13.679612152728257,16
490,8938.0,-0.913798451423645,0.9723372459411621,2.0673961639404297,-1.8085479736328125,3.880523681640625,10.871444702148438,-20.012782117217522,-12.153146835500449,13.489022554128223,16
491,8958.0,-1.6409025192260742,0.9645516872406006,1.8568058013916016,-2.252410888671875,3.357696533203125,12.154006958007812,-28.58843979000537,12.420671684911508,18.809794559081514,16
492,8977.0,-2.036775827407837,0.5161848068237305,3.1027774810791016,-2.252410888671875,3.357696533203125,12.154006958007812,-30.151624204211167,31.997195959461973,26.462229222137083,16
493,8996.0,-1.97933828830719,0.5794258117675781,3.0708770751953125,-1.9915924072265625,2.5297698974609375,12.589492797851562,-20.57493400666625,22.447607952543667,29.22665266605136,16
494,9013.0,-1.7021763324737549,-0.20906901359558105,3.480379104614258,-1.16607666015625,2.612335205078125,9.269454956054688,-9.991091434867933,1.5124770898076236,26.527799038169203,16
495,9029.0,-0.9234099388122559,-0.11605262756347656,0.1468038558959961,-1.517822265625,2.747528076171875,8.800460815429688,2.564216938962867,4.0994248983282935,14.815281366404617,16
496,9047.0,-0.9234099388122559,-0.11605262756347656,0.1468038558959961,-1.950927734375,2.5692596435546875,9.862884521484375,2.564216938962867,4.0994248983282935,14.815281366404617,16
497,9063.0,-1.2386889457702637,0.013425827026367188,-0.3182792663574219,-1.950927734375,2.5692596435546875,9.862884521484375,0.8576531937001611,28.702094137794383,16.549821566507696,16
498,9080.0,-1.4617481231689453,-0.1749579906463623,0.7496213912963867,-2.252410888671875,1.8597869873046875,10.077041625976562,3.7296111359071227,54.049636487385385,19.461995662547693,16
499,9097.0,-1.4617481231689453,-0.1749579906463623,0.7496213912963867,-2.0358734130859375,1.83465576171875,9.566162109375,3.7296111359071227,54.049636487385385,19.461995662547693,16
500,9114.0,-1.363239049911499,-0.9653847217559814,0.47706031799316406,-1.4879150390625,2.2163238525390625,7.94622802734375,17.92853623160979,20.70432511030297,28.225620141294293,16
501,9132.0,-1.363239049911499,-0.9653847217559814,0.47706031799316406,-0.773651123046875,2.4388427734375,6.475830078125,17.92853623160979,20.70432511030297,28.225620141294293,16
502,9148.0,-0.8116740584373474,-0.636976957321167,-1.1207513809204102,-0.1670684814453125,2.813323974609375,6.2006683349609375,19.981308605522102,-2.9996005174161597,28.57095450573014,16
503,9166.0,-0.14200294017791748,-0.4576561450958252,-2.5693397521972656,-0.1670684814453125,2.813323974609375,6.2006683349609375,10.031307588700967,-13.963748022200788,25.66402599497271,16
504,9182.0,0.40698349475860596,-0.09167599678039551,-2.833523750305176,-1.2163238525390625,2.5393524169921875,6.5906982421875,-6.430213292216805,-13.753050346684235,19.495217702670637,16
505,9200.0,-0.7422088384628296,-0.3014988899230957,-2.447171211242676,-1.083526611328125,3.1722564697265625,7.225982666015625,-16.053239493091088,-19.968194642315677,30.807322364532393,16
506,9217.0,-0.7422088384628296,-0.3014988899230957,-2.447171211242676,0.4837799072265625,2.8970794677734375,7.03814697265625,-16.053239493091088,-19.968194642315677,30.807322364532393,16
507,9234.0,-0.6922131180763245,0.36052632331848145,-1.817936897277832,1.0975341796875,2.7559051513671875,7.379119873046875,-10.248125113713852,-25.104496898165266,31.506733735541697,16
508,9256.0,1.365695595741272,-0.021587133407592773,-1.6643238067626953,0.4801788330078125,2.685302734375,7.3563995361328125,-3.9420573398511993,-4.799710533551361,16.884664760378403,16
509,9274.0,0.719550609588623,-0.08655285835266113,-1.6823501586914062,0.4801788330078125,2.685302734375,7.3563995361328125,-0.7422503174836257,-7.240656218373838,7.264261352145401,16
510,9290.0,0.6913139820098877,-0.08689594268798828,-1.675755500793457,0.1595458984375,3.1483154296875,7.4090423583984375,1.0744707187130458,-9.548713742704546,0.40915565204044385,16
511,9307.0,0.34747135639190674,0.37055349349975586,-1.6156024932861328,-0.3142242431640625,3.4258880615234375,7.5693511962890625,2.0405326749196493,-7.963672723154707,-3.8817331091016465,16
512,9325.0,-0.1398189216852188,0.6387119293212891,-1.4474420547485352,-0.6396484375,3.6424407958984375,7.9270782470703125,3.24614302569694,-5.429180767459735,-4.953581035173408,16
513,9342.0,-0.4729030132293701,0.8409543037414551,-1.0820274353027344,-0.7832183837890625,3.586212158203125,8.489395141601562,5.090840516733984,-4.47798130288708,-3.476074513916249,16
514,9362.0,-0.625352680683136,0.7617573738098145,-0.511601448059082,-0.7640838623046875,3.8075408935546875,8.46307373046875,10.028684796059682,-6.313061887572745,-3.1866930591611493,16
515,9380.0,-0.6173288822174072,0.944692850112915,-0.5250768661499023,-0.7640838623046875,3.8075408935546875,8.46307373046875,16.276176867600306,-7.025587221788475,-6.170556820729599,16
516,9396.0,-0.6212977170944214,0.8947527408599854,-0.508209228515625,-1.0057525634765625,4.1054534912109375,8.146026611328125,19.060708388431102,-2.1524384942811383,-6.933789479343504,16
517,9413.0,-0.8509987592697144,1.1430206298828125,-0.8070535659790039,-1.0236968994140625,4.2944793701171875,8.786102294921875,15.301372269256085,4.665073844632069,-5.045378777618379,16
518,9432.0,-0.8414456844329834,1.297943115234375,-0.15633869171142578,-0.93157958984375,4.1006622314453125,9.6810302734375,6.741451352315945,10.481553658788208,-4.484975416597173,16
519,9449.0,-0.7074941396713257,1.0951237678527832,0.7378625869750977,-1.067962646484375,4.0133209228515625,10.706344604492188,-3.1438541126868293,15.594250780866233,-6.2842111685186115,16
520,9466.0,-0.7994627952575684,1.0206499099731445,1.7512283325195312,-1.1864166259765625,4.015716552734375,10.791290283203125,-9.587181368110057,11.13025770539934,-7.440862723325251,16
521,9483.0,-0.9040668606758118,1.042856216430664,1.8200302124023438,-0.6719512939453125,3.984619140625,10.13446044921875,-10.23151409365238,-8.172621870243738,-6.668013158359968,16
522,9499.0,-0.935620129108429,1.0685498714447021,1.8022966384887695,-0.2316741943359375,4.0420379638671875,9.7408447265625,-10.484176451429493,-23.01850248413001,-6.118100967903902,16
523,9516.0,-0.47931480407714844,1.0623440742492676,1.1296987533569336,-0.5427398681640625,4.260986328125,9.965774536132812,-11.374177421038834,-27.39506913822074,-8.44801509757865,16
524,9534.0,-0.46808621287345886,1.3907444477081299,0.9322233200073242,-0.7999725341796875,4.0181121826171875,9.777938842773438,-12.341113641459199,-22.95817825338046,-8.109674846852899,16
525,9551.0,-0.46808621287345886,1.3907444477081299,0.9322233200073242,-0.7999725341796875,4.0181121826171875,9.777938842773438,-12.341113641459199,-22.95817825338046,-8.109674846852899,16
526,9568.0,-0.7726269364356995,1.1803169250488281,0.7292680740356445,-0.620513916015625,3.40673828125,9.672653198242188,-15.75424113198461,-20.337134140523087,-8.118417488990517,16
527,9584.0,-0.8149163126945496,1.2245006561279297,0.7109537124633789,0.01837158203125,2.6685638427734375,10.091384887695312,-21.354777685341627,-19.692801414980764,-9.796130515199089,16
528,9601.0,-0.6746311783790588,0.6748871803283691,0.583745002746582,-0.229278564453125,2.2127227783203125,10.53765869140625,-27.24906701452255,-19.47510962575412,-14.970026132240427,16
529,9618.0,-0.36933988332748413,-0.355971097946167,1.392735481262207,-0.3644866943359375,1.8609771728515625,10.848724365234375,-31.82321738092341,-24.58168689833581,-21.177302049948015,16
530,9635.0,-0.36933988332748413,-0.355971097946167,1.392735481262207,-0.26995849609375,1.439849853515625,10.859481811523438,-31.82321738092341,-24.58168689833581,-21.177302049948015,16
531,9656.0,-0.5521477460861206,-0.6248743534088135,1.6755332946777344,-0.26995849609375,1.439849853515625,10.859481811523438,-28.591062582646657,-24.103464373408197,-19.90437335471108,16
532,9675.0,-0.542125403881073,-0.9284772872924805,1.6457176208496094,-0.1180267333984375,1.458984375,9.884414672851562,-12.061349093055476,-16.21322984420947,-11.142497404392001,16
533,9691.0,-0.4228501617908478,-0.8820302486419678,0.6629180908203125,0.3725128173828125,1.1646728515625,8.73944091796875,-6.1355862521791344,-15.461362620374464,-12.916379494114354,16
534,9710.0,0.035202473402023315,-1.1599242687225342,-0.481842041015625,0.293548583984375,1.3907928466796875,7.788299560546875,-3.4332355674419293,-16.36010623212142,-18.144479492408912,16
535,9728.0,-0.06807434558868408,-0.9256677627563477,-1.4271535873413086,-0.449432373046875,1.8777313232421875,7.02618408203125,-1.0543626417965284,-11.202821635141554,-18.947928304855854,16
536,9745.0,-0.8209810256958008,-0.43717098236083984,-2.1795473098754883,-0.7928009033203125,2.3311767578125,6.474639892578125,-0.17747563539361133,-8.038859445538208,-18.20655225158599,16
537,9761.0,-1.1626393795013428,0.01702141761779785,-2.719789505004883,-0.7928009033203125,2.3311767578125,6.474639892578125,-1.8551886616021833,-3.3361922397143884,-17.712592970810668,16
538,9778.0,-1.1491247415542603,0.024179697036743164,-2.7106189727783203,-0.8705596923828125,2.509429931640625,6.6289825439453125,-4.88014284121743,1.244952240396564,-16.270931282317736,16
539,9794.0,-1.2032079696655273,0.21596050262451172,-2.549924850463867,-0.602569580078125,2.4388427734375,7.4329681396484375,-7.00110782380315,5.002539831144059,-13.998718590751254,16
540,9812.0,-0.9057605266571045,0.15971755981445312,-1.7432756423950195,-0.36328125,2.392181396484375,7.8887939453125,-5.159033125407391,7.108642322095831,-13.905172319878758,16
541,9829.0,-0.632683277130127,0.1169123649597168,-1.2841300964355469,-0.2723541259765625,2.449615478515625,7.8014678955078125,0.9337141802974231,8.465500381853884,-16.654733272159092,16
542,9846.0,-0.5056630969047546,0.15938901901245117,-1.3631324768066406,-0.5702667236328125,2.566864013671875,7.851715087890625,8.69892892692824,8.151639529113458,-18.314961014092432,16
543,9862.0,-0.7636009454727173,0.24337363243103027,-1.3001880645751953,-0.5702667236328125,2.566864013671875,7.851715087890625,14.459455831403634,10.46756543136802,-16.870676532958214,16
544,9880.0,-0.7177085876464844,0.19602417945861816,-1.2836856842041016,-0.7006683349609375,2.67694091796875,7.8433380126953125,19.656082318002774,13.951508323208126,-13.083363958942824,16
545,9896.0,-0.7957037687301636,0.24979615211486816,-1.2728767395019531,-0.710235595703125,2.9221954345703125,7.6674652099609375,21.35652621376915,17.54910556283724,-7.047443827132517,16
546,9914.0,-0.7449105978012085,0.4403963088989258,-1.4289655685424805,-1.0236968994140625,2.9557037353515625,8.203460693359375,18.165461833539194,23.857796129341178,1.314019113283733,16
547,9932.0,-0.9833506941795349,0.4329514503479004,-0.8785190582275391,-1.3515167236328125,2.888702392578125,9.37713623046875,11.27538556488377,32.56546769840703,10.191297939819346,16
548,9949.0,-1.2204159498214722,0.3413732051849365,0.30114173889160156,-1.407745361328125,2.7870025634765625,10.12249755859375,6.021057640176361,39.84284301375886,18.50205355583742,16
549,9966.0,-1.1836369037628174,0.22507286071777344,1.0476627349853516,-1.407745361328125,2.7870025634765625,10.12249755859375,3.640436186103436,39.202007345071586,26.985039221966538,16
550,9986.0,-1.1189587116241455,0.21459436416625977,1.0476713180541992,-1.095489501953125,3.3959808349609375,10.18231201171875,2.2250024240233537,22.088285360687635,30.137635976790982,16
551,10003.0,-0.7552958130836487,0.352557897567749,1.3228731155395508,-1.095489501953125,3.3959808349609375,10.18231201171875,-1.8114754509141018,-6.922424044564603,28.642644171258592,16
552,10022.0,-0.8753301501274109,0.8314836025238037,1.091634750366211,-1.1565093994140625,3.5574951171875,10.713531494140625,-11.729128691826057,-32.988611577867665,25.215528453312995,16
553,10039.0,-1.1381534337997437,1.126600980758667,1.56787109375,-1.0883026123046875,2.6553955078125,13.097976684570312,-44.65654177473041,-17.418840194986757,23.30176408938878,16
554,10059.0,-1.07292902469635,0.35247135162353516,3.9025468826293945,-1.0883026123046875,2.6553955078125,13.097976684570312,-51.84649066870607,25.778554606975487,29.247635007181643,16
555,10076.0,-1.07292902469635,0.35247135162353516,3.9025468826293945,-1.419708251953125,1.723388671875,15.137847900390625,-51.84649066870607,25.778554606975487,29.247635007181643,16
556,10095.0,-1.2027614116668701,-0.40279483795166016,5.861601829528809,-1.2235107421875,1.187408447265625,14.392486572265625,-6.437207405926897,49.59176326141482,29.580729672624823,16
557,10114.0,-0.9018266797065735,-0.953364372253418,5.102083206176758,-1.4986724853515625,1.3094329833984375,11.668258666992188,18.98377313762008,36.252239887839835,20.512861247489173,16
558,10131.0,-1.0997540950775146,-0.8913342952728271,2.385591506958008,-2.0203094482421875,1.5977783203125,9.237152099609375,26.827671663489443,24.34126423955136,10.347791234082678,16
559,10152.0,-1.563613772392273,-0.6655149459838867,-0.027326583862304688,-1.7367706298828125,1.77484130859375,8.244125366210938,20.624767066850662,16.86280815503436,4.1912226407732645,16
560,10169.0,-1.2408995628356934,-0.5309734344482422,-1.0033693313598633,-1.7367706298828125,1.77484130859375,8.244125366210938,12.242321785304135,8.830942823206247,-1.6619762703608627,16
561,10186.0,-1.2220613956451416,-0.5535318851470947,-0.9922342300415039,-1.916229248046875,2.2426300048828125,8.366165161132812,6.744074144957231,-1.544824865716804,-9.777770966710094,16
562,10203.0,-1.412597894668579,-0.09957432746887207,-0.8639078140258789,-2.445037841796875,2.389801025390625,8.122100830078125,4.755997322863279,-15.363445028433162,-7.463593592883053,16
563,10220.0,-1.981198787689209,0.039639949798583984,-1.1038713455200195,-1.083526611328125,2.1887969970703125,7.8852081298828125,1.4355418389966,-22.189700009483985,-0.3619453844973157,16
564,10237.0,-0.681287944316864,-0.1606910228729248,-1.338179588317871,-0.16827392578125,1.9076385498046875,7.478424072265625,-1.504608711883769,-25.14821010885335,1.7257975579654619,16
565,10259.0,0.10943010449409485,-0.42569947242736816,-1.7381410598754883,0.03631591796875,1.9758453369140625,7.3037567138671875,-2.138450266860952,-15.97892703492135,4.535682740995347,16
566,10276.0,0.10943010449409485,-0.42569947242736816,-1.7381410598754883,-0.226898193359375,2.215118408203125,8.0694580078125,-2.138450266860952,-15.97892703492135,4.535682740995347,16
567,10294.0,0.04178687930107117,-0.15177536010742188,-1.125544548034668,-0.088104248046875,2.173248291015625,8.332672119140625,18.47407710099705,16.91526400786006,12.34198790567296,16
568,10311.0,0.21197468042373657,-0.2600724697113037,-0.8401679992675781,-0.193389892578125,1.791595458984375,6.8634796142578125,30.98916932099481,13.492519610983269,12.439031233400502,16
569,10328.0,0.21197468042373657,-0.2600724697113037,-0.8401679992675781,0.2038116455078125,2.49029541015625,5.8549041748046875,30.98916932099481,13.492519610983269,12.439031233400502,16
570,10345.0,0.5026305913925171,-0.09989142417907715,-3.2507362365722656,-0.076141357421875,3.0442352294921875,5.994873046875,23.188109741599767,-4.625731955012796,6.419722121651665,16
571,10362.0,0.5026305913925171,-0.09989142417907715,-3.2507362365722656,-0.076141357421875,3.0442352294921875,5.994873046875,23.188109741599767,-4.625731955012796,6.419722121651665,16
572,10380.0,0.19485226273536682,0.37148141860961914,-3.0629100799560547,-0.7281951904296875,3.1255950927734375,6.2150115966796875,8.846679579053955,-5.720310750642359,-0.6600694813900323,16
573,10396.0,-0.4747711420059204,0.43530774116516113,-2.826857566833496,-0.8286895751953125,3.4366607666015625,7.03814697265625,3.0100916879812996,-9.136061033809055,0.2902557189688619,16
574,10414.0,-0.4747711420059204,0.43530774116516113,-2.826857566833496,-0.439849853515625,3.330169677734375,8.556396484375,3.0100916879812996,-9.136061033809055,0.2902557189688619,16
575,10431.0,-0.2148459404706955,0.612567663192749,-0.46951866149902344,-0.575042724609375,3.4916839599609375,8.9715576171875,6.349780984550734,-4.2419299651714395,-5.684465917878132,16
576,10449.0,-0.35805743932724,0.7460978031158447,-0.04686927795410156,-0.479339599609375,3.9834136962890625,8.628173828125,12.851683942295992,-7.581619261740874,-9.645757070432087,16
577,10471.0,-0.2769523859024048,1.1996221542358398,-0.3788642883300781,-0.479339599609375,3.9834136962890625,8.628173828125,12.805347938966626,-10.816396852658913,-11.540287621653544,16
578,10488.0,-0.29372087121009827,1.1756439208984375,-0.3717813491821289,-0.51043701171875,4.09588623046875,9.334060668945312,2.226750952450877,-10.62143593299007,-13.64289305575027,16
579,10504.0,-0.32806313037872314,1.2957799434661865,0.3285646438598633,-0.8334808349609375,3.9523162841796875,11.827392578125,-11.517556752095741,-2.1471929089985684,-16.0803416837177,16
580,10523.0,-0.637660801410675,1.1853721141815186,2.798646926879883,-0.8262939453125,3.5251922607421875,12.488998413085938,-16.69669795441965,0.4205210868193451,-15.76385803833599,16
581,10539.0,-0.6203821301460266,0.8003823757171631,3.4322452545166016,-0.8861083984375,3.3026580810546875,12.186309814453125,-16.98083382389218,-4.183354262849409,-15.033847419845026,16
582,10561.0,-0.6753381490707397,0.6191942691802979,3.1035146713256836,-1.300079345703125,3.576629638671875,12.144439697265625,-15.422894994968953,-3.1971842297262887,-14.630811617300914,16
583,10582.0,-1.0866007804870605,0.9246349334716797,3.0385217666625977,-0.8047637939453125,3.3289794921875,11.323699951171875,-10.487673508284539,-6.087501720422244,-12.158392420783018,16
584,10599.0,-0.630267858505249,0.69303297996521,2.1883745193481445,-0.557098388671875,2.8779296875,10.550811767578125,1.9260040629168755,-16.48774880733062,-5.087343459878937,16
585,10619.0,-0.4357433021068573,0.23369431495666504,1.4108104705810547,-0.3585052490234375,2.8348541259765625,9.463272094726562,3.8441397479098964,-29.135729187820154,-10.642418274120347,16
586,10635.0,-0.30687272548675537,0.18963146209716797,0.32131481170654297,0.2923431396484375,2.79058837890625,9.588897705078125,-3.3117128417290624,-31.988453317324357,-17.314802753549124,16
587,10652.0,0.2877030670642853,0.1628859043121338,0.4397087097167969,0.2923431396484375,2.79058837890625,9.588897705078125,-10.026062003418398,-20.345876782660703,-21.532253320735236,16
588,10670.0,0.2569844722747803,0.1896991729736328,0.43008899688720703,0.1619415283203125,2.3933868408203125,10.165573120117188,-10.544500682179045,-14.871234276085362,-24.17515403893665,16
589,10689.0,0.10486702620983124,-0.18105340003967285,0.9954509735107422,-0.03546142578125,2.3670654296875,9.886810302734375,-8.732150967051181,-14.0774023699898,-21.992990561387618,16
590,10709.0,-0.3531363606452942,-0.2908651828765869,0.043211936950683594,-0.3154296875,1.9710540771484375,8.801666259765625,-11.905730063005906,-18.36829113113189,-12.061349093055476,16
591,10725.0,-0.3531363606452942,-0.2908651828765869,0.043211936950683594,0.0554656982421875,1.66357421875,9.087600708007812,-11.905730063005906,-18.36829113113189,-12.061349093055476,16
592,10743.0,-0.47261691093444824,-0.5148930549621582,-0.3919811248779297,0.0554656982421875,1.66357421875,9.087600708007812,-13.203138156228169,-16.534084810659987,-9.875688558651397,16
593,10763.0,-0.1454889476299286,-0.7748620510101318,-0.11519336700439453,0.11767578125,1.5894012451171875,8.788497924804688,1.0867104177057088,-7.716255950660165,-17.52112910799687,16
594,10782.0,-0.1454889476299286,-0.7748620510101318,-0.11519336700439453,-0.2077484130859375,1.73895263671875,7.6255950927734375,1.0867104177057088,-7.716255950660165,-17.52112910799687,16
595,10800.0,-0.42518073320388794,-0.757129430770874,-1.5512800216674805,-0.689910888671875,2.180419921875,6.3262786865234375,19.190973756281586,-10.372270632068004,-23.478365460568632,16
596,10819.0,-0.9116369485855103,-0.36534667015075684,-2.8244991302490234,-1.00335693359375,2.6111297607421875,5.846527099609375,17.90143404098318,-8.048476351889585,-21.952774407554582,16
597,10835.0,-1.2215031385421753,0.023387670516967773,-3.278740882873535,-1.0236968994140625,2.777435302734375,6.0666656494140625,12.414551835415176,-4.3643269550980675,-18.49243664948604,16
598,10852.0,-1.2333906888961792,0.16237282752990723,-3.0383691787719727,-1.0236968994140625,2.777435302734375,6.0666656494140625,6.785164563004027,-2.208391403961883,-13.344768958857554,16
599,10870.0,-1.2268725633621216,0.14811396598815918,-3.0218305587768555,-0.99139404296875,2.8360595703125,6.56317138671875,2.9856122899959736,-2.5720853168867217,-6.905813024503132,16
600,10887.0,-1.1946320533752441,0.20166492462158203,-2.5134706497192383,-0.785614013671875,2.8874969482421875,7.1697540283203125,0.0515815886119363,-3.051182106028096,0.6119849496331425,16
601,10905.0,-0.9899774789810181,0.24989032745361328,-1.898198127746582,-0.710235595703125,2.8851165771484375,8.137649536132812,1.737162992744363,1.1426633273864533,6.464309596553508,16
602,10922.0,-0.9076225161552429,0.2331228256225586,-0.9226016998291016,-0.503265380859375,2.9628753662109375,8.849517822265625,8.786355348304403,6.628671268740695,12.01501308972611,16
603,10939.0,-0.6873247623443604,0.27774810791015625,-0.20069503784179688,-0.279541015625,2.8874969482421875,9.16656494140625,15.95182484429474,9.541719628994453,16.270057018103973,16
604,10956.0,-0.44881677627563477,0.15406489372253418,0.12983417510986328,-0.279541015625,2.8874969482421875,9.16656494140625,20.752409642059863,10.374893424709288,17.945147251671262,16
605,10974.0,-0.4382227957248688,0.09616947174072266,0.1466503143310547,-0.4960784912109375,3.071746826171875,9.369949340820312,23.414544172964032,6.943406385694883,17.32267113147298,16
606,10993.0,-0.6509125828742981,0.2201690673828125,0.3670511245727539,-0.2424468994140625,3.240447998046875,9.326889038085938,22.17134046099499,4.589887122248569,17.12421315494909,16
607,11010.0,-0.3917251229286194,0.33532190322875977,0.3391885757446289,-0.267578125,3.1794281005859375,9.660690307617188,18.018585445627238,9.129066920098962,16.73516557982516,16
608,11028.0,-0.39936938881874084,0.2280595302581787,0.6846418380737305,-0.4231109619140625,3.875732421875,10.330673217773438,16.977336767037134,13.431321116019955,15.782217586824983,16
609,11045.0,-0.5393022894859314,0.8156383037567139,1.3774967193603516,-0.4231109619140625,3.875732421875,10.330673217773438,22.77633129691804,-0.6102364212056193,16.348740797342522,16
610,11063.0,-0.5393022894859314,0.8156383037567139,1.3774967193603516,-0.391998291015625,4.2071380615234375,9.32330322265625,22.77633129691804,-0.6102364212056193,16.348740797342522,16
611,11081.0,-0.5561010241508484,0.7638034820556641,1.3887262344360352,-1.699676513671875,4.752716064453125,9.098373413085938,14.764574042006444,-3.6177053165456337,13.976861985407213,16
612,11098.0,-0.5308228731155396,1.0784859657287598,0.38413143157958984,-3.0576019287109375,4.5864105224609375,12.444732666015625,-4.945712657249553,8.427907020662134,17.514134994286778,16
613,11115.0,-1.8172252178192139,1.6561357975006104,0.14484024047851562,-1.657806396484375,3.1315765380859375,14.423599243164062,-24.00379825303937,18.98377313762008,31.097578083501254,16
614,11133.0,-1.7114542722702026,0.16268038749694824,5.387116432189941,0.6249542236328125,2.19598388671875,13.319305419921875,-22.141615477727097,18.616582167840196,54.32415545050654,16
615,11150.0,-1.7114542722702026,0.16268038749694824,5.387116432189941,0.6249542236328125,2.19598388671875,13.319305419921875,-22.141615477727097,18.616582167840196,54.32415545050654,16
616,11167.0,0.5398297309875488,-0.7375121116638184,4.254690170288086,0.981475830078125,2.2127227783203125,11.064071655273438,-1.4460330095617395,-8.529321669458483,43.61791588878159,16
617,11186.0,0.7823480367660522,-0.789013147354126,1.9994773864746094,0.8127899169921875,2.05120849609375,9.192886352539062,24.096470259698105,-7.62270967978767,-1.5387050162204725,16
618,11203.0,0.6264126896858215,-1.0044655799865723,0.14681148529052734,0.5447998046875,2.3299713134765625,7.571746826171875,19.188350963640303,10.666023407891911,-24.24859223289263,16
619,11221.0,0.4257986843585968,-0.7575819492340088,-1.4574766159057617,-1.6434478759765625,3.25360107421875,6.7952728271484375,5.959859145213046,17.942524459029976,-45.656700035273715,16
620,11240.0,-1.6750141382217407,0.1699540615081787,-2.226912498474121,-3.2789306640625,3.4019622802734375,7.2092437744140625,-10.443960297596458,11.685415481137975,-45.49583541994157,16
621,11257.0,-3.233095645904541,0.3629775047302246,-1.8209714889526367,-3.2789306640625,3.4019622802734375,7.2092437744140625,-24.593052333114713,12.137410079652739,-26.095038252357195,16
622,11274.0,-3.1674511432647705,0.4379701614379883,-1.838353157043457,-2.2715606689453125,2.852813720703125,7.5753326416015625,-33.260507748347536,18.7258651945604,0.3610711202835541,16
623,11291.0,-2.10849666595459,-0.02241349220275879,-1.49395751953125,-0.8406524658203125,2.2761383056640625,8.140045166015625,-33.73960453748891,18.833399692853078,16.149408556604868,16
624,11309.0,-0.651656448841095,-0.5179710388183594,-0.9494810104370117,1.04010009765625,1.779632568359375,7.370758056640625,-26.164105125244365,8.746139194471368,15.975429978066304,16
625,11325.0,1.2225621938705444,-0.9556078910827637,-1.7282543182373047,1.51507568359375,1.6444244384765625,6.51531982421875,-15.337217102020313,-4.910742088699088,-0.010491170565139585,16
626,11342.0,1.6713343858718872,-1.057607889175415,-2.5818557739257812,0.6189727783203125,2.245025634765625,5.7974700927734375,-5.842707740568987,-15.446500128740517,-19.827438103900054,16
627,11359.0,0.749443531036377,-0.4428737163543701,-3.289937973022461,0.6189727783203125,2.245025634765625,5.7974700927734375,-2.5012699155720295,-15.72189335607543,-27.927496044401575,16
628,11377.0,0.7309893369674683,-0.4306201934814453,-3.2795095443725586,-0.539154052734375,2.918609619140625,5.701751708984375,-4.632726068722889,-9.634391635653186,-18.731110779842968,16
629,11397.0,-0.41938790678977966,0.25586652755737305,-3.3651790618896484,-0.0964813232421875,2.8444366455078125,7.12548828125,-5.5917939112193995,7.634949378780333,-3.3528032597758592,16
630,11414.0,-0.5215736627578735,0.7300553321838379,-2.167536735534668,0.1786956787109375,2.8408355712890625,7.2690582275390625,-0.6049908359230495,19.769736665791786,2.3211714875371334,16
631,11432.0,0.09795571863651276,0.17824387550354004,-1.92315673828125,-0.0785369873046875,3.330169677734375,7.042938232421875,6.5692213022049035,7.251147388938977,-2.952390249873032,16
632,11450.0,0.36965659260749817,0.1500403881072998,-1.7651424407958984,-0.0785369873046875,3.330169677734375,7.042938232421875,11.876879343951773,-13.432195380233717,-13.069375731522639,16
633,11474.0,0.024219751358032227,0.5852508544921875,-1.9614324569702148,-1.083526611328125,3.4127349853515625,7.99407958984375,5.574308626944166,-28.535983937179672,-28.886563886898088,16
634,11496.0,-1.0288463830947876,0.6488466262817383,-1.0015735626220703,-1.70086669921875,3.93914794921875,9.0732421875,7.459222271814245,-28.188901044316303,-26.818929021351828,16
635,11514.0,-1.709113597869873,1.1483912467956543,0.08389091491699219,-0.44464111328125,4.109039306640625,7.92828369140625,9.653625448355942,-40.47668456873605,-23.40230447397137,16
636,11531.0,-0.5456820130348206,1.3077118396759033,-1.0544805526733398,0.2743988037109375,5.8486175537109375,13.824188232421875,-5.771892339254295,-46.740787660338135,-24.888553637366144,16
637,11549.0,0.09288743138313293,3.101062297821045,4.801077842712402,0.2743988037109375,5.8486175537109375,13.824188232421875,-8.70504877642457,3.539021537307087,-14.712992453394508,16
638,11566.0,0.09288743138313293,3.101062297821045,4.801077842712402,-0.3656768798828125,3.7919921875,14.62579345703125,-8.70504877642457,3.539021537307087,-14.712992453394508,16
639,11586.0,0.10511951148509979,3.09295916557312,4.779362678527832,-0.421905517578125,4.162872314453125,12.311935424804688,4.4578732259705625,-3.146476905328114,-15.48059643307722,16
640,11604.0,-0.683415412902832,1.34079909324646,3.2499771118164062,-3.2753448486328125,3.76806640625,11.8931884765625,11.987036634885738,-29.892841996937726,-17.63390919157212,16
