,ms,accelX,accelY,accelZ,accelWithGX,accelWithGY,accelWithGZ,rotRateAlpha,rotRateBeta,rotRateGamma,interval
0,69.0,0.2,0.7000000000000001,1.7000000000000002,1.2000000000000002,2.0,10.5,4.4,0.4,63.70000000000001,16
1,87.0,0.0,-2.5,1.9000000000000001,1.5,1.9000000000000001,10.5,7.500000000000001,-1.0,51.800000000000004,16
2,103.0,0.0,-2.5,1.9000000000000001,1.5,1.9000000000000001,10.5,7.500000000000001,-1.0,51.800000000000004,16
3,119.0,0.2,-2.6,1.8,1.3,1.8,10.5,0.9000000000000001,-1.4,32.7,16
4,136.0,-0.4,-3.0,2.6,0.9,1.4000000000000001,11.3,-16.1,-1.5,21.6,16
5,152.0,-0.9,-3.6,3.6,0.5,0.8,12.200000000000001,-27.9,5.2,17.200000000000003,16
6,174.0,-1.3,-3.8000000000000003,3.6,0.0,0.5,12.3,-23.5,18.900000000000002,20.5,16
7,185.0,-1.6,-3.6,3.0,-0.30000000000000004,0.6000000000000001,11.700000000000001,-15.399999999999999,27.3,23.900000000000006,16
8,202.0,-1.6,-3.4000000000000004,1.8,-0.30000000000000004,0.8,10.600000000000001,6.0,36.8,35.2,16
9,219.0,-1.6,-3.4000000000000004,1.8,-0.30000000000000004,1.0,9.9,15.5,36.2,39.699999999999996,16
10,235.0,-1.6,-2.5,0.1,-0.4,1.7000000000000002,8.9,24.5,23.099999999999998,47.3,16
11,252.0,-1.3,-2.4000000000000004,-0.1,0.0,1.9000000000000001,8.700000000000001,18.1,9.3,56.7,16
12,269.0,-1.0,-2.2,0.2,0.6000000000000001,2.2,9.200000000000001,8.4,6.9,64.9,16
13,285.0,-0.30000000000000004,-2.0,0.9,1.0,2.3000000000000003,9.600000000000001,7.1000000000000005,6.9,66.5,16
14,303.0,-0.2,-1.9000000000000001,1.0,1.4000000000000001,2.5,9.8,11.2,3.6000000000000005,65.2,16
15,319.0,0.0,-1.7000000000000002,1.1,1.4000000000000001,2.6,9.8,15.399999999999999,0.5,61.0,16
16,335.0,-0.1,-1.7000000000000002,1.1,1.4000000000000001,2.5,9.700000000000001,17.0,-0.5,57.20000000000001,16
17,352.0,-0.2,-1.8,1.0,1.2000000000000002,2.3000000000000003,9.700000000000001,17.0,-0.8,49.300000000000004,16
18,369.0,-0.7000000000000001,-2.4000000000000004,1.3,1.0,1.8,10.0,14.700000000000001,-0.5,43.50000000000001,16
19,385.0,-0.7000000000000001,-2.7,1.6,1.0,1.5,10.200000000000001,13.8,-1.0,42.2,16
20,402.0,-0.6000000000000001,-3.1,1.8,1.2000000000000002,1.1,10.5,12.8,0.6000000000000001,40.300000000000004,16
21,419.0,-0.6000000000000001,-3.1,1.8,1.2000000000000002,1.0,10.5,13.100000000000001,3.6000000000000005,39.599999999999994,16
22,435.0,-0.7000000000000001,-3.4000000000000004,1.7000000000000002,1.0,0.9,10.200000000000001,15.100000000000001,7.9,36.400000000000006,16
23,453.0,-0.9,-3.6,1.3,0.9,0.7000000000000001,10.0,16.6,8.700000000000001,34.300000000000004,16
24,469.0,-1.0,-3.6,1.3,0.9,0.7000000000000001,9.9,17.799999999999997,8.8,34.50000000000001,16
25,485.0,-1.0,-3.6,1.2000000000000002,0.9,0.7000000000000001,9.8,18.5,9.600000000000001,34.900000000000006,16
26,502.0,-1.0,-3.6,1.0,0.9,0.8,9.600000000000001,19.1,9.899999999999999,36.9,16
27,519.0,-1.0,-3.6,1.0,1.0,0.8,9.600000000000001,19.1,8.700000000000001,38.1,16
28,535.0,-0.7000000000000001,-3.4000000000000004,1.1,1.3,1.0,9.700000000000001,18.3,6.699999999999999,38.50000000000001,16
29,552.0,-0.5,-3.3000000000000003,1.2000000000000002,1.5,1.1,9.8,18.900000000000002,6.9,37.0,16
30,569.0,-0.4,-3.2,1.0,1.6,1.2000000000000002,9.600000000000001,21.200000000000003,8.100000000000001,35.699999999999996,16
31,585.0,-0.2,-3.1,1.0,1.8,1.3,9.5,22.000000000000004,6.8,34.7,16
32,602.0,0.0,-3.0,1.2000000000000002,2.0,1.4000000000000001,9.700000000000001,20.599999999999998,2.5,30.000000000000004,16
33,619.0,0.0,-3.0,1.2000000000000002,2.1,1.4000000000000001,9.700000000000001,19.799999999999997,1.6,27.099999999999998,16
34,635.0,0.1,-3.0,1.3,2.2,1.5,9.700000000000001,18.6,3.0,22.3,16
35,652.0,0.0,-2.8000000000000003,1.1,2.1,1.6,9.600000000000001,18.1,4.7,18.6,16
36,669.0,-0.1,-2.8000000000000003,0.8,1.9000000000000001,1.8,9.1,17.9,6.0,15.399999999999999,16
37,685.0,-0.4,-2.6,0.5,1.7000000000000002,1.9000000000000001,9.0,16.3,6.500000000000001,13.100000000000001,16
38,702.0,-0.7000000000000001,-2.6,0.6000000000000001,1.4000000000000001,1.9000000000000001,9.0,7.9,6.500000000000001,10.600000000000001,16
39,719.0,-0.7000000000000001,-2.5,1.2000000000000002,1.4000000000000001,2.0,9.600000000000001,-2.9,5.300000000000001,14.0,16
40,735.0,-0.7000000000000001,-2.5,1.2000000000000002,1.4000000000000001,2.1,9.8,-5.8,5.7,16.4,16
41,752.0,-0.6000000000000001,-2.2,1.6,1.6,2.4000000000000004,10.100000000000001,-3.3000000000000007,4.6,20.900000000000002,16
42,769.0,-0.4,-1.7000000000000002,1.4000000000000001,1.8,2.8000000000000003,9.600000000000001,7.300000000000001,4.7,22.9,16
43,785.0,-0.2,-1.2000000000000002,0.5,1.9000000000000001,3.2,9.0,12.100000000000001,4.300000000000001,22.8,16
44,802.0,-0.2,-0.9,0.0,2.0,3.5,8.5,15.5,1.2000000000000002,21.0,16
45,819.0,-0.2,-0.7000000000000001,-0.2,2.0,3.7,8.200000000000001,10.600000000000001,-3.0,16.900000000000002,16
46,835.0,-0.2,-0.7000000000000001,-0.2,2.0,3.7,8.4,4.7,-5.8,14.200000000000001,16
47,852.0,-0.2,-0.7000000000000001,0.4,2.1,3.5,9.200000000000001,-8.4,-6.9,10.8,16
48,869.0,-0.2,-0.9,1.6,2.1,3.4000000000000004,10.100000000000001,-14.5,-1.2000000000000002,8.0,16
49,885.0,-0.30000000000000004,-0.9,1.8,2.0,3.4000000000000004,10.3,-14.700000000000001,3.9,6.8,16
50,902.0,-0.7000000000000001,-0.8,1.6,1.6,3.4000000000000004,10.200000000000001,-7.8,10.700000000000001,6.4,16
51,919.0,-0.8,-0.8,1.1,1.5,3.4000000000000004,9.700000000000001,4.9,9.600000000000001,9.2,16
52,935.0,-0.7000000000000001,-0.8,1.1,1.5,3.5,9.3,11.000000000000002,8.5,11.2,16
53,954.0,-0.7000000000000001,-0.5,-0.2,1.5,3.7,8.4,17.5,2.9,13.100000000000001,16
54,969.0,-0.7000000000000001,-0.5,-0.5,1.6,3.8000000000000003,8.1,12.299999999999999,-4.4,13.000000000000002,16
55,985.0,-0.6000000000000001,-0.6000000000000001,-0.1,1.6,3.7,8.4,6.8,-6.699999999999999,11.900000000000002,16
56,1002.0,-0.5,-0.9,0.8,1.7000000000000002,3.4000000000000004,9.3,-2.7,-6.4,9.0,16
57,1019.0,-0.5,-1.0,1.0,1.8,3.3000000000000003,9.5,-4.300000000000001,-5.1000000000000005,7.6,16
58,1035.0,-0.4,-1.1,1.3,2.0,3.1,9.9,-1.4,-2.7,5.0,16
59,1055.0,-0.2,-1.2000000000000002,1.4000000000000001,2.2,2.9000000000000004,10.0,3.5,-2.1,2.1,16
60,1069.0,-0.1,-1.5,1.2000000000000002,2.2,2.7,9.8,8.100000000000001,0.4,-0.30000000000000004,16
61,1087.0,-0.1,-1.6,0.9,2.2,2.6,9.4,10.9,2.1,-1.3,16
62,1103.0,-0.1,-1.6,0.0,2.2,2.6,8.6,14.900000000000002,2.9,-3.5,16
63,1120.0,-0.1,-1.6,-0.2,2.2,2.6,8.3,14.300000000000002,2.2,-4.4,16
64,1137.0,0.0,-1.5,-0.6000000000000001,2.2,2.8000000000000003,7.9,10.0,2.1,-6.500000000000001,16
65,1154.0,-0.1,-1.4000000000000001,-0.7000000000000001,2.1,2.9000000000000004,7.800000000000001,1.1,6.2,-9.899999999999999,16
66,1182.0,-0.6000000000000001,-1.1,-0.8,1.6,3.2,7.7,-4.0,9.600000000000001,-15.399999999999999,16
67,1187.0,-0.6000000000000001,-1.1,-0.8,1.6,3.2,7.7,-4.0,9.600000000000001,-15.399999999999999,16
68,1203.0,-0.9,-0.9,-0.8,1.2000000000000002,3.4000000000000004,7.7,-6.500000000000001,0.5,-16.5,16
69,1223.0,-1.0,-0.7000000000000001,-0.5,1.2000000000000002,3.6,8.1,-15.899999999999999,-2.4000000000000004,-16.0,16
70,1236.0,-1.0,-0.7000000000000001,-0.2,1.1,3.6,8.3,-22.1,-0.5,-16.0,16
71,1253.0,-1.1,-0.5,0.4,0.9,3.6,9.0,-29.1,3.3000000000000007,-16.700000000000003,16
72,1272.0,-1.3,-0.4,0.9,0.8,3.7,9.5,-26.9,3.4,-17.0,16
73,1286.0,-1.3,-0.4,0.9,0.7000000000000001,3.7,9.600000000000001,-23.099999999999998,2.3,-16.3,16
74,1304.0,-1.1,-0.2,1.1,0.9,3.8000000000000003,9.8,-15.899999999999999,-0.8,-13.8,16
75,1323.0,-0.9,-0.1,1.2000000000000002,1.1,3.8000000000000003,9.9,-12.8,-1.1,-13.000000000000002,16
76,1336.0,-0.8,-0.1,1.2000000000000002,1.1,3.8000000000000003,10.0,-12.4,0.1,-13.000000000000002,16
77,1352.0,-0.8,-0.2,1.2000000000000002,1.1,3.7,10.0,-10.600000000000001,5.0,-12.7,16
78,1374.0,-0.7000000000000001,-0.30000000000000004,1.0,1.1,3.6,9.8,-7.400000000000001,10.299999999999999,-12.0,16
79,1386.0,-0.7000000000000001,-0.30000000000000004,0.8,1.2000000000000002,3.6,9.600000000000001,-5.7,11.000000000000002,-11.900000000000002,16
80,1404.0,-0.5,-0.30000000000000004,0.5,1.2000000000000002,3.5,9.3,-2.2,9.100000000000001,-11.6,16
81,1420.0,-0.5,-0.30000000000000004,0.2,1.2000000000000002,3.5,9.1,0.1,6.8,-11.8,16
82,1436.0,-0.5,-0.30000000000000004,0.2,1.2000000000000002,3.5,9.0,0.30000000000000004,7.0,-11.700000000000001,16
83,1453.0,-0.5,-0.4,0.0,1.1,3.4000000000000004,8.8,-2.5,9.600000000000001,-10.600000000000001,16
84,1473.0,-0.4,-0.5,0.1,1.2000000000000002,3.4000000000000004,9.0,-5.4,11.1,-8.600000000000001,16
85,1487.0,-0.2,-0.4,0.4,1.4000000000000001,3.5,9.3,-4.6,10.1,-7.6,16
86,1503.0,-0.2,-0.30000000000000004,0.4,1.3,3.5,9.3,-2.6,9.600000000000001,-7.500000000000001,16
87,1519.0,-0.2,-0.2,0.0,1.2000000000000002,3.6,9.0,2.0,7.8,-7.400000000000001,16
88,1538.0,-0.4,-0.2,-0.1,1.1,3.6,8.8,1.9,5.4,-7.0,16
89,1556.0,-0.4,-0.2,-0.1,1.0,3.6,8.8,0.0,4.6,-6.600000000000001,16
90,1573.0,-0.30000000000000004,-0.30000000000000004,0.0,1.1,3.5,8.9,-3.9,6.2,-5.0,16
91,1586.0,-0.30000000000000004,-0.2,0.0,1.0,3.5,9.0,-4.6,9.600000000000001,-4.800000000000001,16
92,1602.0,-0.30000000000000004,-0.2,0.0,0.8,3.5,9.0,-4.6,9.600000000000001,-4.800000000000001,16
93,1619.0,-0.4,-0.1,0.0,0.7000000000000001,3.5,9.0,-4.0,7.9,-4.9,16
94,1637.0,-0.4,-0.30000000000000004,0.9,0.6000000000000001,3.2,9.9,-6.4,-2.9,-4.6,16
95,1652.0,-0.30000000000000004,-0.5,1.2000000000000002,0.6000000000000001,3.0,10.3,-6.600000000000001,-6.500000000000001,-4.5,16
96,1670.0,-0.2,-0.8,2.0,0.6000000000000001,2.5,11.100000000000001,-5.300000000000001,-11.3,-5.0,16
97,1686.0,0.0,-1.2000000000000002,2.5,0.9,2.1,11.700000000000001,-1.9,-8.4,-4.2,16
98,1703.0,0.30000000000000004,-1.4000000000000001,2.5,1.2000000000000002,2.0,11.700000000000001,0.0,-2.2,-3.8,16
99,1720.0,0.7000000000000001,-1.2000000000000002,2.0,1.6,2.1,11.100000000000001,5.0,8.5,-4.800000000000001,16
100,1736.0,0.6000000000000001,-1.2000000000000002,1.7000000000000002,1.5,2.2,10.9,7.6,9.700000000000001,-8.5,16
101,1753.0,0.4,-1.2000000000000002,1.2000000000000002,1.2000000000000002,2.2,10.3,8.3,5.300000000000001,-14.800000000000002,16
102,1770.0,-0.2,-1.4000000000000001,1.2000000000000002,0.7000000000000001,2.0,10.3,-2.3,-3.1,-22.000000000000004,16
103,1788.0,-0.7000000000000001,-1.9000000000000001,1.8,0.1,1.5,10.9,-18.4,1.6,-22.3,16
104,1803.0,-1.0,-2.0,2.0,-0.2,1.4000000000000001,11.200000000000001,-22.5,6.9,-19.799999999999997,16
105,1819.0,-1.3,-2.0,1.8,-0.6000000000000001,1.3,11.0,-17.6,15.700000000000001,-11.4,16
106,1839.0,-1.3,-1.5,0.8,-0.7000000000000001,1.4000000000000001,10.700000000000001,-9.700000000000001,17.9,-4.9,16
107,1853.0,-1.3,-1.3,0.4,-0.6000000000000001,2.0,9.600000000000001,11.000000000000002,9.0,7.400000000000001,16
108,1869.0,-1.0,-0.9,-0.4,-0.4,2.4000000000000004,8.8,25.5,-9.8,14.100000000000001,16
109,1889.0,-0.6000000000000001,-0.6000000000000001,-0.8,0.1,2.8000000000000003,8.3,24.599999999999998,-19.700000000000003,15.5,16
110,1902.0,-0.4,-0.6000000000000001,-0.9,0.30000000000000004,2.8000000000000003,8.3,19.300000000000004,-18.700000000000003,14.100000000000001,16
111,1919.0,-0.4,-0.6000000000000001,-0.5,0.4,2.8000000000000003,8.6,5.500000000000001,-10.0,6.500000000000001,16
112,1940.0,-0.6000000000000001,-0.9,0.2,0.2,2.5,9.3,-3.6000000000000005,-3.3000000000000007,-1.8000000000000003,16
113,1954.0,-0.8,-1.0,0.4,0.0,2.5,9.5,-3.6000000000000005,-1.0,-5.1000000000000005,16
114,1969.0,-1.2000000000000002,-1.1,0.4,-0.4,2.3000000000000003,9.5,3.0,1.8000000000000003,-8.899999999999999,16
115,1994.0,-1.3,-1.1,0.1,-0.6000000000000001,2.3000000000000003,9.1,8.600000000000001,2.0,-9.2,16
116,2005.0,-1.4000000000000001,-1.2000000000000002,-0.2,-0.7000000000000001,2.2,8.9,7.6,-0.4,-8.3,16
117,2020.0,-1.3,-1.3,-0.30000000000000004,-0.6000000000000001,2.1,8.9,5.6,-1.0,-7.1000000000000005,16
118,2035.0,-1.3,-1.3,-0.30000000000000004,-0.5,2.1,9.0,3.4,-0.9000000000000001,-5.9,16
119,2052.0,-1.0,-1.4000000000000001,-0.1,-0.30000000000000004,2.0,9.1,1.3,2.0,-5.6,16
120,2080.0,-0.8,-1.3,-0.4,-0.2,2.1,8.8,1.7,6.9,-6.2,16
121,2086.0,-0.8,-1.3,-0.4,-0.2,2.1,8.700000000000001,0.0,9.700000000000001,-5.2,16
122,2102.0,-0.7000000000000001,-1.3,-0.5,-0.1,2.2,8.700000000000001,-1.5,10.200000000000001,-4.4,16
123,2119.0,-0.5,-1.2000000000000002,-0.5,0.1,2.3000000000000003,8.700000000000001,-4.800000000000001,9.8,-3.5,16
124,2139.0,-0.5,-0.9,-0.5,0.1,2.5,8.6,-6.9,10.5,-3.0,16
125,2154.0,-0.5,-0.8,-0.5,0.1,2.6,8.700000000000001,-7.8,10.700000000000001,-2.7,16
126,2172.0,-0.5,-0.5,-0.6000000000000001,0.0,2.8000000000000003,8.6,-9.100000000000001,9.5,-1.3,16
127,2186.0,-0.5,-0.4,-0.5,0.0,3.0,8.700000000000001,-9.100000000000001,7.200000000000001,0.0,16
128,2205.0,-0.4,-0.30000000000000004,-0.5,0.0,3.0,8.8,-9.100000000000001,5.1000000000000005,0.30000000000000004,16
129,2219.0,-0.5,-0.1,-0.30000000000000004,0.0,3.2,8.9,-9.5,2.7,1.5,16
130,2236.0,-0.4,0.0,-0.30000000000000004,0.0,3.3000000000000003,9.0,-9.600000000000001,2.2,2.9,16
131,2252.0,-0.2,0.4,-0.2,0.2,3.6,9.1,-8.600000000000001,0.1,5.7,16
132,2272.0,-0.1,0.7000000000000001,0.0,0.30000000000000004,3.9000000000000004,9.3,-9.100000000000001,-2.1,4.800000000000001,16
133,2286.0,-0.2,0.7000000000000001,0.4,0.30000000000000004,3.8000000000000003,9.700000000000001,-11.1,-1.1,2.4000000000000004,16
134,2303.0,-0.2,0.6000000000000001,0.6000000000000001,0.2,3.8000000000000003,9.9,-11.3,0.7,1.9,16
135,2319.0,-0.1,0.4,0.8,0.1,3.7,10.0,-8.4,3.9,2.0,16
136,2336.0,-0.1,0.4,0.8,0.1,3.7,10.0,-5.4,2.7,2.8,16
137,2353.0,0.2,0.4,0.9,0.4,3.8000000000000003,10.100000000000001,0.30000000000000004,-1.6,3.9,16
138,2369.0,0.6000000000000001,0.4,1.0,0.8,3.7,10.200000000000001,3.6000000000000005,-3.8,0.1,16
139,2389.0,0.6000000000000001,0.30000000000000004,1.2000000000000002,0.8,3.6,10.5,3.3000000000000007,-1.6,-7.500000000000001,16
140,2403.0,0.4,0.2,1.5,0.7000000000000001,3.5,10.700000000000001,1.3,-1.0,-11.4,16
141,2419.0,0.1,-0.1,2.0,0.4,3.3000000000000003,11.200000000000001,-2.2,2.2,-15.700000000000001,16
142,2437.0,0.1,-0.2,2.0,0.30000000000000004,3.2,11.3,-2.1,9.700000000000001,-15.5,16
143,2452.0,0.1,-0.2,2.0,0.30000000000000004,3.2,11.200000000000001,-0.8,11.4,-15.5,16
144,2469.0,0.2,-0.30000000000000004,1.6,0.30000000000000004,3.1,10.8,3.9,9.700000000000001,-16.6,16
145,2486.0,0.2,-0.30000000000000004,1.3,0.4,3.0,10.5,3.7000000000000006,-3.0,-18.3,16
146,2506.0,0.30000000000000004,-0.5,1.4000000000000001,0.4,2.9000000000000004,10.600000000000001,-1.8000000000000003,-10.299999999999999,-19.5,16
147,2520.0,0.1,-0.6000000000000001,1.4000000000000001,0.2,2.8000000000000003,10.600000000000001,-4.6,-8.600000000000001,-19.6,16
148,2536.0,-0.1,-0.7000000000000001,1.4000000000000001,-0.1,2.6,10.600000000000001,-11.8,-6.4,-15.8,16
149,2553.0,-0.30000000000000004,-0.8,1.4000000000000001,-0.2,2.5,10.600000000000001,-16.700000000000003,-8.3,-11.8,16
150,2575.0,0.1,-0.9,2.1,0.2,2.4000000000000004,11.4,-26.000000000000004,-17.9,-3.4,16
151,2588.0,0.8,-1.1,2.8000000000000003,1.0,2.1,12.100000000000001,-24.1,-22.1,0.8,16
152,2606.0,1.1,-1.2000000000000002,2.6,1.4000000000000001,2.0,11.9,-9.5,-16.1,2.7,16
153,2622.0,1.4000000000000001,-1.4000000000000001,2.2,1.7000000000000002,1.8,11.5,1.8000000000000003,-8.2,2.8,16
154,2636.0,1.5,-1.5,2.0,1.8,1.7000000000000002,11.3,14.0,-2.9,1.7,16
155,2652.0,1.7000000000000002,-1.7000000000000002,1.1,2.0,1.5,10.4,31.7,-1.7,-3.0,16
156,2679.0,1.4000000000000001,-2.1,-0.2,1.7000000000000002,1.2000000000000002,9.0,54.6,-11.4,-15.8,16
157,2686.0,1.3,-2.3000000000000003,-0.4,1.6,1.1,8.700000000000001,55.900000000000006,-17.0,-19.0,16
158,2706.0,1.0,-2.7,-0.8,1.4000000000000001,0.9,8.3,49.300000000000004,-23.5,-20.8,16
159,2720.0,1.1,-2.7,-1.1,1.5,1.0,8.0,44.4,-21.6,-19.6,16
160,2736.0,1.1,-2.7,-1.1,1.6,1.1,7.800000000000001,39.2,-15.8,-19.0,16
161,2753.0,1.3,-2.6,-1.6,1.6,1.4000000000000001,7.300000000000001,26.000000000000004,-0.2,-24.0,16
162,2770.0,0.5,-2.3000000000000003,-1.9000000000000001,0.8,1.7000000000000002,7.1000000000000005,12.5,17.200000000000003,-32.400000000000006,16
163,2786.0,0.0,-2.1,-1.9000000000000001,0.30000000000000004,1.9000000000000001,7.1000000000000005,8.100000000000001,19.799999999999997,-34.60000000000001,16
164,2803.0,-0.5,-1.9000000000000001,-2.0,-0.30000000000000004,2.1,7.0,4.5,13.3,-33.1,16
165,2819.0,-0.4,-1.5,-1.8,-0.2,2.6,7.2,-0.6000000000000001,-4.0,-26.799999999999997,16
166,2839.0,0.1,-1.6,-1.3,0.2,2.4000000000000004,7.6000000000000005,-8.5,-4.300000000000001,-21.500000000000004,16
167,2852.0,0.2,-1.4000000000000001,-1.3,0.30000000000000004,2.6,7.7,-10.1,4.5,-20.0,16
168,2869.0,0.1,-1.5,-1.5,0.30000000000000004,2.8000000000000003,7.5,-6.8,-8.2,-8.3,16
169,2890.0,0.1,-0.1,-1.5,0.30000000000000004,3.8000000000000003,7.5,-12.299999999999999,-9.100000000000001,-11.8,16
170,2907.0,0.30000000000000004,-0.2,-1.2000000000000002,0.6000000000000001,3.3000000000000003,8.0,-20.8,-2.0,-24.5,16
171,2919.0,0.4,-0.8,-0.8,0.5,3.1,8.200000000000001,-19.6,-5.1000000000000005,-25.300000000000004,16
172,2939.0,0.1,-0.8,-0.7000000000000001,0.2,3.0,8.4,-14.400000000000002,-1.4,-24.400000000000002,16
173,2954.0,0.1,-0.8,-0.7000000000000001,0.1,3.1,8.4,-12.299999999999999,3.6000000000000005,-22.1,16
174,2970.0,0.1,-0.5,-0.6000000000000001,0.1,3.4000000000000004,8.5,-6.600000000000001,18.900000000000002,-16.8,16
175,2987.0,0.1,0.0,-0.30000000000000004,0.0,3.7,8.8,-6.8,31.9,-14.300000000000002,16
176,3003.0,0.1,0.1,-0.2,-0.1,3.8000000000000003,8.9,-6.4,26.000000000000004,-14.400000000000002,16
177,3027.0,0.0,0.1,0.30000000000000004,-0.30000000000000004,3.7,9.3,1.0,14.900000000000002,-16.700000000000003,16
178,3038.0,-0.2,0.0,0.2,-0.5,3.7,9.200000000000001,3.8,13.200000000000003,-17.0,16
179,3053.0,-0.30000000000000004,0.1,0.1,-0.6000000000000001,3.8000000000000003,9.1,6.699999999999999,14.400000000000002,-16.900000000000002,16
180,3069.0,-0.4,0.2,-0.2,-0.8,3.9000000000000004,8.9,8.5,15.5,-16.0,16
181,3086.0,-0.4,0.30000000000000004,0.0,-0.9,4.1000000000000005,9.1,3.5,13.399999999999999,-15.8,16
182,3103.0,-0.30000000000000004,0.30000000000000004,0.7000000000000001,-0.8,4.1000000000000005,9.700000000000001,-3.2,8.600000000000001,-15.6,16
183,3119.0,0.0,0.1,2.0,-0.5,3.9000000000000004,11.0,-18.200000000000003,-3.6000000000000005,-12.4,16
184,3136.0,0.2,0.1,2.6,-0.2,3.8000000000000003,12.100000000000001,-22.9,-4.6,-8.4,16
185,3154.0,0.30000000000000004,0.2,3.0,-0.1,3.9000000000000004,12.3,-19.6,5.1000000000000005,-7.300000000000001,16
186,3169.0,-0.1,0.7000000000000001,2.4000000000000004,-0.7000000000000001,4.3,11.5,-9.8,23.099999999999998,-9.899999999999999,16
187,3186.0,-0.5,0.7000000000000001,1.8,-1.2000000000000002,4.3,11.0,-10.9,22.000000000000004,-13.900000000000002,16
188,3202.0,-0.7000000000000001,0.6000000000000001,2.1,-1.4000000000000001,4.1000000000000005,11.3,-16.6,13.3,-16.3,16
189,3219.0,-0.7000000000000001,0.5,2.4000000000000004,-1.4000000000000001,2.8000000000000003,13.0,-34.900000000000006,-8.100000000000001,-18.900000000000002,16
190,3236.0,-0.7000000000000001,-1.4000000000000001,5.0,-1.5,2.0,14.200000000000001,-40.5,-15.399999999999999,-10.0,16
191,3252.0,-0.7000000000000001,-1.7000000000000002,5.2,-1.4000000000000001,1.6,14.4,-33.0,-12.7,-0.8,16
192,3274.0,-0.4,-1.7000000000000002,4.6000000000000005,-1.1,1.4000000000000001,13.8,-3.9,-4.1,19.200000000000003,16
193,3286.0,-0.1,-1.6,3.8000000000000003,-0.6000000000000001,1.7000000000000002,12.4,29.900000000000006,-7.6,25.200000000000003,16
194,3302.0,0.30000000000000004,-1.6,2.2,-0.30000000000000004,1.7000000000000002,11.5,40.4,-16.5,24.599999999999998,16
195,3319.0,0.8,-1.9000000000000001,1.0,0.30000000000000004,1.5,10.200000000000001,44.2,-25.1,24.8,16
196,3336.0,0.9,-2.0,0.8,0.4,1.4000000000000001,10.0,40.5,-23.5,24.7,16
197,3352.0,1.2000000000000002,-2.2,0.2,0.8,1.4000000000000001,9.3,31.799999999999997,-15.100000000000001,22.000000000000004,16
198,3379.0,0.8,-2.0,-0.7000000000000001,0.5,1.7000000000000002,8.4,23.800000000000004,1.1,6.8,16
199,3385.0,0.8,-2.1,-0.7000000000000001,0.1,1.7000000000000002,8.1,21.200000000000003,4.800000000000001,-0.2,16
200,3402.0,0.0,-2.1,-1.2000000000000002,-0.30000000000000004,1.6,7.9,18.6,6.9,-5.9,16
201,3419.0,-0.7000000000000001,-2.5,-1.1,-1.0,1.3,7.9,12.600000000000001,1.7,-10.1,16
202,3437.0,-0.8,-2.7,-1.0,-1.2000000000000002,1.1,8.1,9.4,-4.9,-8.0,16
203,3452.0,-0.8,-3.0,-0.5,-0.9,0.8,8.700000000000001,7.300000000000001,-12.100000000000001,2.6,16
204,3470.0,0.1,-3.0,-0.1,-0.30000000000000004,0.9,8.9,13.399999999999999,-11.6,17.400000000000002,16
205,3486.0,0.6000000000000001,-2.4000000000000004,-1.0,0.4,1.5,8.0,27.2,-2.5,19.1,16
206,3503.0,0.5,-2.2,-1.7000000000000002,0.2,2.0,6.7,35.0,12.5,11.2,16
207,3519.0,0.1,-1.8,-2.8000000000000003,-0.1,2.3000000000000003,6.1000000000000005,33.300000000000004,17.200000000000003,6.300000000000001,16
208,3536.0,-0.2,-1.8,-3.2,-1.0,2.5,5.5,27.9,15.399999999999999,2.8,16
209,3554.0,-0.7000000000000001,-1.7000000000000002,-3.4000000000000004,-1.2000000000000002,2.6,5.6000000000000005,14.300000000000002,7.0,-0.9000000000000001,16
210,3579.0,-0.7000000000000001,-1.5,-1.4000000000000001,-0.9,2.7,7.5,-4.9,-6.300000000000001,9.899999999999999,16
211,3587.0,-0.6000000000000001,-1.4000000000000001,-1.2000000000000002,-0.9,2.8000000000000003,7.6000000000000005,-4.7,-2.3,13.399999999999999,16
212,3602.0,-0.7000000000000001,-1.0,-1.0,-0.9,3.2,7.9,-1.6,5.4,15.2,16
213,3619.0,-1.0,-0.30000000000000004,-0.9,-1.2000000000000002,3.9000000000000004,7.9,4.6,19.5,12.5,16
214,3638.0,-1.4000000000000001,-0.1,-1.0,-1.7000000000000002,4.1000000000000005,7.9,5.1000000000000005,22.4,4.7,16
215,3657.0,-1.6,-0.1,-0.8,-2.0,4.2,8.0,0.2,13.5,2.5,16
216,3670.0,-1.6,-0.1,-0.8,-1.9000000000000001,4.2,8.200000000000001,-3.2,7.0,4.6,16
217,3689.0,-1.1,0.1,0.30000000000000004,-1.5,4.3,9.200000000000001,-9.100000000000001,-4.2,8.600000000000001,16
218,3706.0,-0.7000000000000001,0.2,1.5,-1.1,4.4,10.4,-12.299999999999999,-10.9,7.200000000000001,16
219,3719.0,-0.6000000000000001,0.2,2.2,-0.9,4.4,11.100000000000001,-14.900000000000002,-4.6,5.7,16
220,3736.0,-0.4,0.2,2.6,-0.7000000000000001,4.3,11.4,-13.399999999999999,23.0,3.2,16
221,3754.0,-0.30000000000000004,0.30000000000000004,1.9000000000000001,-0.6000000000000001,4.4,10.8,-9.600000000000001,33.7,1.4,16
222,3769.0,0.6000000000000001,0.6000000000000001,0.8,0.1,4.7,9.700000000000001,-18.4,24.7,-6.1000000000000005,16
223,3787.0,0.6000000000000001,0.30000000000000004,2.5,0.0,4.3,11.4,-62.900000000000006,-10.9,-28.1,16
224,3805.0,0.1,-1.3,4.5,-0.9,1.9000000000000001,14.0,-94.5,11.8,-40.9,16
225,3819.0,-1.9000000000000001,-3.4000000000000004,5.9,-2.5,0.30000000000000004,15.0,-97.40000000000002,32.0,-34.7,16
226,3839.0,-2.3000000000000003,-3.8000000000000003,5.5,-3.0,-0.5,14.700000000000001,-74.7,45.400000000000006,14.300000000000002,16
227,3854.0,-2.2,-3.7,5.4,-2.3000000000000003,-0.6000000000000001,14.100000000000001,-48.9,41.50000000000001,45.7,16
228,3869.0,1.3,-3.1,3.4000000000000004,0.4,0.0,12.700000000000001,9.8,0.5,81.8,16
229,3887.0,2.8000000000000003,-2.7,2.9000000000000004,3.1,0.8,11.8,42.5,-40.6,83.30000000000001,16
230,3904.0,4.800000000000001,-2.1,1.9000000000000001,4.5,1.3,10.700000000000001,58.0,-60.8,67.8,16
231,3924.0,4.9,-2.0,0.7000000000000001,4.6000000000000005,1.5,9.8,54.300000000000004,-51.300000000000004,55.8,16
232,3936.0,4.800000000000001,-2.1,0.7000000000000001,4.4,1.5,9.5,45.8,-34.800000000000004,40.6,16
233,3952.0,3.1,-2.0,-0.6000000000000001,3.0,1.7000000000000002,8.5,25.0,-0.6000000000000001,8.2,16
234,3969.0,1.9000000000000001,-2.0,-1.0,1.8,1.7000000000000002,8.1,6.9,17.400000000000002,-13.399999999999999,16
235,3992.0,1.3,-1.8,-1.0,0.6000000000000001,1.9000000000000001,8.1,-4.7,5.4,-25.4,16
236,4003.0,0.4,-1.9000000000000001,-0.9,0.1,1.8,8.200000000000001,-6.0,-4.0,-29.300000000000004,16
237,4019.0,0.0,-2.2,-0.8,-0.2,1.5,8.200000000000001,-5.2,-14.800000000000002,-26.5,16
238,4037.0,0.0,-2.1,-0.8,-0.2,1.6,8.200000000000001,-6.0,-16.1,-20.599999999999998,16
239,4055.0,0.5,-1.7000000000000002,-0.9,0.30000000000000004,2.0,8.200000000000001,0.0,-3.3000000000000007,-13.8,16
240,4070.0,0.6000000000000001,-1.3,-1.5,0.30000000000000004,2.5,7.5,14.400000000000002,-10.9,-21.1,16
241,4087.0,0.5,-1.1,-1.8,0.30000000000000004,2.7,7.2,21.300000000000004,-30.599999999999998,-26.700000000000003,16
242,4102.0,1.1,-1.2000000000000002,-0.9,1.0,2.6,8.200000000000001,21.200000000000003,-37.0,-27.6,16
243,4120.0,1.4000000000000001,-1.2000000000000002,-0.5,1.3,2.6,8.5,22.6,-34.400000000000006,-29.800000000000004,16
244,4136.0,1.7000000000000002,-1.2000000000000002,-0.7000000000000001,1.7000000000000002,2.8000000000000003,8.3,24.900000000000002,-24.200000000000003,-37.0,16
245,4152.0,1.6,-1.2000000000000002,-0.8,1.6,2.8000000000000003,8.1,24.0,-18.8,-41.300000000000004,16
246,4170.0,1.1,-1.1,-1.4000000000000001,1.1,3.0,7.6000000000000005,18.8,-2.7,-48.2,16
247,4186.0,0.5,-1.0,-1.6,0.4,3.1,7.300000000000001,8.3,10.1,-46.4,16
248,4203.0,0.4,-1.9000000000000001,-1.4000000000000001,0.2,2.3000000000000003,7.5,-1.2000000000000002,-15.899999999999999,-31.3,16
249,4219.0,0.9,0.0,-0.5,0.8,4.1000000000000005,8.4,2.1,-10.200000000000001,-28.700000000000003,16
250,4237.0,1.1,-0.9,-0.30000000000000004,0.9,3.2,8.6,8.600000000000001,-8.2,-32.2,16
251,4253.0,1.0,-0.7000000000000001,-0.4,0.8,3.4000000000000004,8.5,9.3,-3.6000000000000005,-32.7,16
252,4270.0,0.2,-0.2,-0.8,0.0,4.0,8.1,6.300000000000001,15.2,-33.9,16
253,4286.0,-0.1,0.0,0.2,-0.5,4.2,9.1,-4.6,10.700000000000001,-34.300000000000004,16
254,4302.0,-0.30000000000000004,0.0,1.4000000000000001,-0.6000000000000001,4.0,10.700000000000001,-13.6,8.3,-33.800000000000004,16
255,4319.0,-0.2,-0.2,2.6,-0.6000000000000001,3.9000000000000004,11.5,-14.700000000000001,3.6000000000000005,-32.1,16
256,4336.0,-0.1,-0.30000000000000004,3.1,-0.6000000000000001,3.8000000000000003,12.0,-7.400000000000001,-3.7000000000000006,-24.1,16
257,4352.0,-0.1,-0.30000000000000004,3.1,-0.30000000000000004,4.0,11.9,-0.7,-6.2,-18.0,16
258,4370.0,0.7000000000000001,0.4,2.6,0.6000000000000001,4.9,11.200000000000001,14.100000000000001,-9.5,-12.4,16
259,4386.0,1.4000000000000001,1.4000000000000001,1.3,0.8,5.4,9.9,17.400000000000002,-18.8,-28.200000000000003,16
260,4402.0,0.7000000000000001,0.9,0.8,0.30000000000000004,5.1000000000000005,9.700000000000001,6.4,-21.6,-39.599999999999994,16
261,4419.0,0.1,-0.7000000000000001,2.5,-0.4,3.4000000000000004,11.4,-34.0,-12.7,-51.50000000000001,16
262,4436.0,-0.1,-0.8,3.1,-1.2000000000000002,2.6,13.4,-67.5,0.0,-49.699999999999996,16
263,4452.0,-0.6000000000000001,-1.2000000000000002,4.4,-1.6,2.0,14.4,-71.9,4.5,-42.7,16
264,4469.0,-1.2000000000000002,-2.4000000000000004,6.2,-1.8,1.2000000000000002,15.3,-50.5,5.9,-19.700000000000003,16
265,4486.0,-0.9,-2.3000000000000003,5.5,-1.0,1.5,13.700000000000001,-1.2000000000000002,-4.4,14.0,16
266,4503.0,0.6000000000000001,-1.3,2.9000000000000004,-0.1,2.2,12.0,24.1,-12.4,25.1,16
267,4519.0,1.4000000000000001,-1.0,0.6000000000000001,0.8,2.6,9.700000000000001,53.0,-33.50000000000001,28.700000000000003,16
268,4541.0,1.3,-1.1,0.2,1.1,2.9000000000000004,8.3,50.1,-33.6,23.0,16
269,4553.0,1.4000000000000001,-1.0,-0.7000000000000001,0.9,2.8000000000000003,7.800000000000001,29.200000000000003,-17.6,14.5,16
270,4570.0,1.2000000000000002,-1.2000000000000002,-1.1,0.7000000000000001,2.6,8.1,17.400000000000002,-12.0,11.4,16
271,4587.0,0.5,-1.8,-0.1,0.30000000000000004,2.2,8.9,4.6,-14.200000000000001,9.700000000000001,16
272,4602.0,0.8,-2.4000000000000004,0.6000000000000001,0.6000000000000001,1.7000000000000002,9.600000000000001,7.200000000000001,-26.000000000000004,10.8,16
273,4620.0,1.1,-2.6,0.6000000000000001,1.0,1.4000000000000001,9.600000000000001,12.7,-29.300000000000004,10.299999999999999,16
274,4635.0,1.3,-2.7,0.5,1.7000000000000002,1.5,8.8,19.5,-29.700000000000006,9.0,16
275,4652.0,1.6,-2.6,-0.1,1.7000000000000002,1.6,8.4,28.400000000000002,-24.0,2.7,16
276,4674.0,1.4000000000000001,-2.4000000000000004,-1.5,1.6,1.8,7.300000000000001,18.900000000000002,-15.8,-5.6,16
277,4685.0,1.3,-2.4000000000000004,-1.5,1.5,1.8,7.300000000000001,17.1,-14.5,-6.1000000000000005,16
278,4711.0,1.2000000000000002,-2.3000000000000003,-1.6,1.4000000000000001,2.0,7.300000000000001,17.5,-13.200000000000003,-8.100000000000001,16
279,4723.0,1.0,-2.2,-2.2,1.3,2.2,6.6000000000000005,25.900000000000002,-14.5,-10.1,16
280,4736.0,1.1,-1.9000000000000001,-2.8000000000000003,1.4000000000000001,2.5,6.0,28.700000000000003,-15.000000000000002,-11.3,16
281,4753.0,1.1,-1.9000000000000001,-3.1,1.4000000000000001,2.5,5.7,29.0,-13.900000000000002,-13.200000000000003,16
282,4769.0,1.1,-1.5,-3.4000000000000004,1.4000000000000001,3.0,5.300000000000001,22.4,-9.4,-20.900000000000002,16
283,4786.0,0.8,-1.4000000000000001,-3.5,0.9,3.2,5.2,11.900000000000002,-3.8,-32.2,16
284,4802.0,0.2,-1.4000000000000001,-3.3000000000000003,0.5,3.2,5.4,4.9,-1.6,-37.300000000000004,16
285,4819.0,-0.5,-1.3,-2.4000000000000004,-0.30000000000000004,3.3000000000000003,6.2,-9.5,1.1,-42.60000000000001,16
286,4836.0,-1.0,-1.3,-1.1,-0.8,3.3000000000000003,7.6000000000000005,-15.399999999999999,0.0,-41.900000000000006,16
287,4852.0,-0.9,-1.3,-1.1,-0.8,3.3000000000000003,8.0,-13.399999999999999,-1.3,-38.2,16
288,4871.0,-0.4,-0.9,-0.1,-0.30000000000000004,3.5,8.6,-4.1,-8.100000000000001,-30.3,16
289,4891.0,0.2,-0.4,0.0,0.30000000000000004,4.1000000000000005,8.700000000000001,3.2,-15.000000000000002,-28.1,16
290,4905.0,0.4,0.0,0.2,0.6000000000000001,4.5,9.0,-1.1,-9.5,-33.1,16
291,4920.0,0.5,0.1,0.6000000000000001,0.6000000000000001,4.6000000000000005,9.3,-6.4,-3.8,-36.0,16
292,4936.0,0.4,0.0,1.4000000000000001,0.4,4.5,10.100000000000001,-17.0,3.5,-38.900000000000006,16
293,4962.0,0.8,0.1,2.8000000000000003,0.7000000000000001,4.5,11.600000000000001,-16.4,2.9,-30.5,16
294,4969.0,0.8,0.1,2.8000000000000003,1.1,4.5,12.0,-16.4,2.9,-30.5,16
295,4989.0,1.9000000000000001,0.4,3.4000000000000004,2.0,4.9,11.9,-0.4,2.3,-35.3,16
296,5003.0,2.3000000000000003,0.5,2.0,2.1,4.9,10.4,0.0,-0.6000000000000001,-49.6,16
297,5019.0,2.0,0.4,1.4000000000000001,1.8,4.7,10.200000000000001,-12.4,-0.6000000000000001,-57.400000000000006,16
298,5038.0,2.0,-0.5,2.1,1.6,3.8000000000000003,11.0,-47.3,3.8,-71.19999999999999,16
299,5052.0,2.0,-0.4,2.1,1.2000000000000002,3.0,11.8,-63.0,1.8000000000000003,-79.00000000000001,16
300,5069.0,0.2,-3.2,5.5,-0.30000000000000004,0.8,14.5,-79.39999999999999,-11.000000000000002,-78.60000000000001,16
301,5086.0,-0.30000000000000004,-4.800000000000001,6.9,-0.9,-1.1,16.0,-65.89999999999999,-9.8,-42.3,16
302,5102.0,0.6000000000000001,-4.9,6.4,1.0,-1.0,14.700000000000001,-22.1,-7.8,6.2,16
303,5119.0,3.6,-3.5,3.5,3.0,-0.1,12.700000000000001,2.9,-19.300000000000004,19.799999999999997,16
304,5136.0,4.3,-3.2,2.5,3.8000000000000003,0.30000000000000004,11.600000000000001,23.3,-34.0,23.800000000000004,16
305,5155.0,5.5,-2.6,-0.9,5.2,1.0,8.200000000000001,36.1,-57.3,-1.3,16
306,5169.0,5.1000000000000005,-2.7,-1.7000000000000002,4.9,1.0,7.4,26.300000000000004,-50.7,-17.9,16
307,5188.0,3.5,-2.7,-2.0,3.5,1.0,7.0,-12.100000000000001,-20.900000000000002,-47.0,16
308,5204.0,2.7,-2.8000000000000003,-1.6,2.0,0.8,7.9,-44.00000000000001,9.5,-61.39999999999999,16
309,5219.0,1.5,-2.8000000000000003,-0.8,1.3,0.9,8.3,-48.0,16.0,-63.599999999999994,16
310,5236.0,1.2000000000000002,-2.1,-1.0,0.9,1.4000000000000001,8.200000000000001,-33.7,10.8,-56.800000000000004,16
311,5258.0,1.8,-1.0,-2.1,1.5,2.3000000000000003,7.1000000000000005,-10.200000000000001,-6.500000000000001,-45.6,16
312,5269.0,1.9000000000000001,-1.0,-2.1,1.7000000000000002,2.5,6.9,-2.8,-16.6,-44.300000000000004,16
313,5286.0,2.2,-0.7000000000000001,-2.6,1.8,2.8000000000000003,6.5,2.7,-25.6,-49.0,16
314,5305.0,2.1,-0.4,-3.0,1.7000000000000002,3.1,6.1000000000000005,1.9,-20.1,-52.2,16
315,5320.0,2.0,-0.1,-3.1,1.6,3.2,6.1000000000000005,0.30000000000000004,-16.4,-54.300000000000004,16
316,5336.0,1.7000000000000002,0.0,-3.0,1.3,3.3000000000000003,6.300000000000001,-4.2,-12.9,-59.300000000000004,16
317,5357.0,1.6,0.0,-2.9000000000000004,1.3,3.3000000000000003,6.4,-7.1000000000000005,-11.6,-61.39999999999999,16
318,5369.0,1.4000000000000001,0.0,-2.4000000000000004,1.0,3.3000000000000003,6.9,-15.899999999999999,-12.4,-67.60000000000001,16
319,5386.0,1.1,-0.30000000000000004,-1.3,0.7000000000000001,2.9000000000000004,7.9,-25.0,-16.0,-74.5,16
320,5402.0,1.0,-0.5,-0.7000000000000001,0.5,2.7,8.6,-27.9,-14.200000000000001,-75.9,16
321,5419.0,0.9,-0.5,-0.2,0.30000000000000004,2.5,9.5,-27.099999999999998,-4.4,-72.60000000000001,16
322,5436.0,0.6000000000000001,-0.2,0.1,0.0,2.7,9.4,-20.900000000000002,6.600000000000001,-64.4,16
323,5454.0,0.5,0.0,0.0,-0.1,2.9000000000000004,9.3,-20.8,11.1,-59.699999999999996,16
324,5474.0,0.2,0.5,0.1,-0.5,3.3000000000000003,9.5,-27.099999999999998,17.799999999999997,-52.5,16
325,5486.0,0.1,0.8,0.9,-0.8,3.6,10.8,-32.0,18.4,-47.5,16
326,5504.0,0.0,0.7000000000000001,2.8000000000000003,-0.9,3.3000000000000003,12.200000000000001,-25.0,18.200000000000003,-37.9,16
327,5519.0,0.2,0.7000000000000001,3.3000000000000003,-0.8,3.3000000000000003,12.700000000000001,-15.399999999999999,18.200000000000003,-29.1,16
328,5536.0,1.3,1.4000000000000001,2.8000000000000003,0.30000000000000004,4.0,12.3,7.0,15.000000000000002,-9.100000000000001,16
329,5552.0,2.0,1.7000000000000002,2.5,0.9,4.2,11.9,13.5,11.8,-4.1,16
330,5575.0,3.1,2.4000000000000004,2.2,2.0,5.0,11.600000000000001,0.7,-3.3000000000000007,-20.900000000000002,16
331,5585.0,3.1,2.4000000000000004,2.2,1.9000000000000001,4.6000000000000005,12.3,-15.700000000000001,-7.1000000000000005,-36.300000000000004,16
332,5602.0,2.3000000000000003,0.5,4.800000000000001,1.2000000000000002,3.1,14.200000000000001,-33.6,-4.1,-52.400000000000006,16
333,5627.0,0.2,-1.6,8.1,-1.0,0.7000000000000001,17.6,-43.900000000000006,30.3,-58.2,16
334,5636.0,0.2,-2.3000000000000003,8.200000000000001,-1.1,-0.1,17.7,-23.400000000000002,40.300000000000004,-42.400000000000006,16
335,5652.0,1.3,-1.8,5.300000000000001,-0.1,0.4,14.8,38.60000000000001,37.6,-9.899999999999999,16
336,5669.0,2.0,-1.6,3.6,0.5,0.7000000000000001,13.0,63.0,20.5,-0.7,16
337,5687.0,3.3000000000000003,-1.5,0.9,1.8,0.9,10.3,74.7,-13.8,2.1,16
338,5705.0,3.9000000000000004,-1.9000000000000001,0.6000000000000001,2.4000000000000004,0.8,9.9,50.60000000000001,-18.0,-6.699999999999999,16
339,5720.0,3.9000000000000004,-2.3000000000000003,0.8,2.4000000000000004,0.5,10.100000000000001,38.800000000000004,-8.4,-12.200000000000001,16
340,5738.0,3.4000000000000004,-2.4000000000000004,0.5,1.9000000000000001,0.5,9.700000000000001,27.800000000000004,10.299999999999999,-21.400000000000002,16
341,5752.0,3.4000000000000004,-2.5,0.5,1.4000000000000001,0.5,8.8,26.200000000000003,12.5,-23.900000000000006,16
342,5773.0,3.0,-2.4000000000000004,-0.7000000000000001,1.4000000000000001,0.6000000000000001,8.5,22.2,-0.30000000000000004,-25.4,16
343,5785.0,3.0,-2.3000000000000003,-0.8,1.5,0.8,8.6,13.6,-25.0,-27.3,16
344,5804.0,3.2,-2.5,-0.1,1.7000000000000002,0.6000000000000001,9.1,8.600000000000001,-35.2,-31.3,16
345,5819.0,3.0,-2.4000000000000004,-0.1,1.6,0.7000000000000001,9.1,8.899999999999999,-32.6,-32.8,16
346,5835.0,2.7,-2.1,-0.7000000000000001,1.4000000000000001,1.0,8.6,14.800000000000002,-19.0,-32.9,16
347,5853.0,2.5,-1.9000000000000001,-1.1,1.2000000000000002,1.2000000000000002,8.1,18.1,-11.700000000000001,-32.5,16
348,5885.0,1.8,-0.9,-3.1,0.4,2.3000000000000003,6.1000000000000005,21.400000000000002,-7.500000000000001,-30.3,16
349,5902.0,1.7000000000000002,-0.6000000000000001,-3.2,0.30000000000000004,2.6,6.0,21.6,-23.3,-28.800000000000004,16
350,5928.0,1.9000000000000001,-0.7000000000000001,-3.0,0.6000000000000001,2.6,6.2,23.5,-32.0,-25.300000000000004,16
351,5935.0,1.9000000000000001,-0.7000000000000001,-3.0,0.9,2.9000000000000004,6.2,24.400000000000002,-32.300000000000004,-24.900000000000002,16
352,5952.0,2.4000000000000004,0.0,-3.1,1.2000000000000002,3.4000000000000004,6.0,26.6,-28.800000000000004,-28.700000000000003,16
353,5971.0,2.4000000000000004,0.0,-3.1,1.2000000000000002,3.6,5.9,25.200000000000003,-26.1,-33.2,16
354,5987.0,2.2,0.4,-3.1,1.1,3.9000000000000004,6.0,16.5,-19.0,-44.7,16
355,6002.0,1.8,0.5,-2.6,0.6000000000000001,3.9000000000000004,6.5,8.4,-15.000000000000002,-51.800000000000004,16
356,6019.0,1.1,0.30000000000000004,-1.5,0.0,3.8000000000000003,7.6000000000000005,-4.6,-3.4,-62.800000000000004,16
357,6036.0,0.6000000000000001,0.2,-0.8,-0.6000000000000001,3.7,8.3,-6.9,5.7,-69.60000000000001,16
358,6055.0,0.2,0.2,-0.7000000000000001,-1.2000000000000002,3.6,8.4,-3.6000000000000005,9.5,-71.5,16
359,6077.0,-0.30000000000000004,0.5,-0.7000000000000001,-1.8,3.8000000000000003,8.5,-6.8,12.7,-68.0,16
360,6086.0,-0.30000000000000004,0.5,-0.7000000000000001,-1.9000000000000001,3.9000000000000004,8.6,-6.8,12.7,-68.0,16
361,6105.0,-0.2,0.9,0.4,-1.9000000000000001,4.1000000000000005,9.5,-23.2,13.8,-58.900000000000006,16
362,6119.0,-0.4,1.0,1.1,-2.1,4.1000000000000005,10.200000000000001,-26.200000000000003,11.4,-56.2,16
363,6136.0,-0.5,1.0,1.4000000000000001,-2.3000000000000003,4.2,11.100000000000001,-28.1,7.1000000000000005,-51.70000000000001,16
364,6152.0,-0.4,1.1,2.3000000000000003,-1.8,4.1000000000000005,12.0,-31.2,-5.6,-38.300000000000004,16
365,6179.0,1.4000000000000001,1.2000000000000002,3.7,-0.4,4.0,12.9,-30.3,-24.7,-16.0,16
366,6186.0,2.1,1.3,3.7,0.30000000000000004,4.0,13.0,-27.800000000000004,-33.800000000000004,-12.0,16
367,6203.0,3.1,0.8,4.5,1.4000000000000001,3.4000000000000004,13.8,-36.1,-51.2,-16.4,16
368,6219.0,3.2,-0.2,6.0,1.6,2.4000000000000004,15.3,-44.00000000000001,-52.80000000000001,-20.7,16
369,6236.0,2.9000000000000004,-1.7000000000000002,6.9,1.4000000000000001,0.7000000000000001,16.3,-44.9,-28.800000000000004,-23.0,16
370,6253.0,2.8000000000000003,-2.1,6.7,1.4000000000000001,0.30000000000000004,16.1,-37.2,-11.8,-19.5,16
371,6269.0,3.2,-2.2,5.1000000000000005,1.8,0.1,14.600000000000001,-15.8,6.0,-5.7,16
372,6286.0,3.6,-2.0,4.3,2.5,0.4,12.9,8.3,-6.1000000000000005,4.2,16
373,6303.0,4.4,-1.2000000000000002,1.7000000000000002,3.0,1.1,11.200000000000001,26.6,-26.1,2.0,16
374,6319.0,4.4,-1.2000000000000002,1.7000000000000002,3.1,1.4000000000000001,10.200000000000001,32.2,-31.5,-3.1,16
375,6338.0,3.9000000000000004,-0.7000000000000001,-0.9,2.7,1.7000000000000002,8.5,36.1,-27.700000000000003,-17.5,16
376,6357.0,3.0,-0.6000000000000001,-2.3000000000000003,1.9000000000000001,1.9000000000000001,7.1000000000000005,25.200000000000003,-15.700000000000001,-32.400000000000006,16
377,6376.0,2.8000000000000003,-0.6000000000000001,-2.5,1.6,2.0,6.9,14.800000000000002,-12.8,-39.300000000000004,16
378,6386.0,2.0,-0.5,-1.9000000000000001,0.9,2.1,7.5,-1.5,-14.900000000000002,-49.4,16
379,6403.0,1.2000000000000002,-1.0,-0.8,0.1,1.5,8.6,-9.700000000000001,-16.900000000000002,-58.7,16
380,6422.0,0.7000000000000001,-1.1,-0.6000000000000001,-0.4,1.4000000000000001,8.8,-5.6,-14.800000000000002,-58.800000000000004,16
381,6437.0,0.2,-1.1,-1.3,-1.0,1.4000000000000001,8.1,11.6,-10.4,-51.70000000000001,16
382,6457.0,0.30000000000000004,-0.6000000000000001,-2.5,-0.8,1.9000000000000001,6.9,25.8,-9.4,-41.199999999999996,16
383,6469.0,0.4,-0.5,-2.8000000000000003,-0.7000000000000001,2.0,6.6000000000000005,28.700000000000003,-10.4,-38.60000000000001,16
384,6486.0,0.6000000000000001,-0.30000000000000004,-3.3000000000000003,-0.5,2.3000000000000003,6.1000000000000005,26.700000000000003,-12.9,-36.400000000000006,16
385,6504.0,0.8,-0.2,-3.3000000000000003,-0.30000000000000004,2.5,6.1000000000000005,22.2,-12.8,-36.5,16
386,6523.0,0.8,-0.30000000000000004,-3.1,-0.30000000000000004,2.5,6.2,20.2,-14.0,-36.5,16
387,6535.0,0.9,-0.30000000000000004,-3.0,-0.30000000000000004,2.5,6.4,19.6,-15.5,-35.699999999999996,16
388,6553.0,1.1,-0.1,-2.6,0.0,2.7,6.7,17.6,-16.5,-33.1,16
389,6572.0,1.3,-0.1,-2.5,0.2,2.7,6.800000000000001,16.0,-14.800000000000002,-33.2,16
390,6585.0,1.3,0.1,-2.5,0.2,3.0,6.800000000000001,10.8,-2.6,-35.3,16
391,6603.0,0.8,0.6000000000000001,-2.5,-0.30000000000000004,3.5,6.800000000000001,-0.8,13.000000000000002,-39.1,16
392,6624.0,0.4,0.8,-2.0,-0.8,3.6,7.300000000000001,-14.5,19.300000000000004,-40.6,16
393,6636.0,0.30000000000000004,0.8,-1.8,-1.3,3.7,8.200000000000001,-19.200000000000003,21.900000000000002,-38.900000000000006,16
394,6652.0,-0.5,1.0,0.0,-1.9000000000000001,3.8000000000000003,9.4,-24.599999999999998,23.800000000000004,-31.9,16
395,6669.0,-0.6000000000000001,1.0,0.6000000000000001,-2.1,3.7,10.0,-24.5,22.6,-26.200000000000003,16
396,6685.0,-0.6000000000000001,1.2000000000000002,2.0,-2.1,3.8000000000000003,11.3,-13.8,16.0,-9.0,16
397,6704.0,0.30000000000000004,1.6,2.5,-1.3,4.2,11.8,6.300000000000001,7.500000000000001,9.3,16
398,6723.0,1.3,2.2,1.8,-0.30000000000000004,4.800000000000001,11.100000000000001,21.1,5.7,19.700000000000003,16
399,6736.0,1.7000000000000002,2.8000000000000003,1.0,0.1,5.5,10.3,23.5,6.600000000000001,20.2,16
400,6753.0,1.8,3.5,-0.1,0.2,6.2,9.200000000000001,16.200000000000003,10.299999999999999,13.6,16
401,6776.0,1.9000000000000001,3.4000000000000004,-0.2,0.30000000000000004,6.2,9.0,-17.5,6.4,-4.800000000000001,16
402,6786.0,1.9000000000000001,2.9000000000000004,0.8,0.30000000000000004,5.6000000000000005,10.100000000000001,-41.7,-2.6,-17.6,16
403,6802.0,1.3,0.6000000000000001,4.6000000000000005,-0.30000000000000004,3.2,13.9,-76.4,-14.800000000000002,-38.60000000000001,16
404,6819.0,0.1,-0.7000000000000001,6.7,-1.5,1.7000000000000002,16.1,-80.7,-11.4,-39.9,16
405,6835.0,-0.4,-2.5,7.7,-2.0,-0.30000000000000004,17.1,-67.60000000000001,12.200000000000001,-20.0,16
406,6852.0,-0.4,-2.3000000000000003,7.300000000000001,-2.0,-0.30000000000000004,16.8,-47.0,28.700000000000003,-1.7,16
407,6869.0,0.2,-1.3,3.9000000000000004,-1.5,0.6000000000000001,13.4,7.200000000000001,33.800000000000004,34.900000000000006,16
408,6886.0,1.2000000000000002,-0.5,0.5,-0.6000000000000001,1.5,9.9,37.7,1.8000000000000003,56.7,16
409,6905.0,2.2,-0.1,-1.1,0.4,2.1,8.3,34.2,-27.099999999999998,62.50000000000001,16
410,6919.0,2.2,-0.1,-1.1,0.4,2.1,8.3,34.2,-27.099999999999998,62.50000000000001,16
411,6942.0,2.3000000000000003,0.0,-1.4000000000000001,0.8,2.3000000000000003,8.0,5.6,-36.0,46.6,16
412,6957.0,2.3000000000000003,0.0,-1.4000000000000001,0.8,2.3000000000000003,8.0,5.6,-36.0,46.6,16
413,6982.0,1.6,-0.9,-0.7000000000000001,0.4,1.4000000000000001,8.8,-11.3,-21.1,30.000000000000004,16
414,6985.0,1.5,-0.9,-0.8,0.4,1.4000000000000001,8.700000000000001,-7.300000000000001,-22.000000000000004,28.600000000000005,16
415,7002.0,1.5,-0.8,-1.6,0.5,1.5,7.9,2.9,-29.800000000000004,26.700000000000003,16
416,7019.0,1.5,-0.7000000000000001,-2.0,0.5,1.6,7.5,3.9,-32.1,24.200000000000003,16
417,7036.0,1.2000000000000002,-0.5,-1.9000000000000001,0.30000000000000004,1.8,7.6000000000000005,-2.5,-26.700000000000003,16.6,16
418,7053.0,0.9,-0.5,-1.6,0.1,1.8,7.9,-4.4,-21.0,12.5,16
419,7072.0,0.2,-0.6000000000000001,-1.1,-0.5,1.7000000000000002,8.4,0.9000000000000001,-9.0,9.100000000000001,16
420,7087.0,0.2,-0.5,-1.5,-0.5,1.8,7.9,16.700000000000003,-8.0,13.200000000000003,16
421,7102.0,0.7000000000000001,-0.2,-2.2,0.0,2.2,7.2,27.700000000000003,-14.300000000000002,14.800000000000002,16
422,7120.0,0.9,0.0,-2.5,0.30000000000000004,2.4000000000000004,7.0,28.700000000000003,-16.200000000000003,12.5,16
423,7144.0,1.0,0.0,-2.8000000000000003,0.5,2.6,6.7,23.099999999999998,-4.800000000000001,-0.9000000000000001,16
424,7156.0,0.7000000000000001,0.1,-2.8000000000000003,0.2,2.8000000000000003,6.6000000000000005,19.0,1.0,-6.300000000000001,16
425,7169.0,0.5,0.1,-2.8000000000000003,0.0,2.8000000000000003,6.6000000000000005,13.900000000000002,5.2,-11.000000000000002,16
426,7185.0,0.0,0.30000000000000004,-2.6,-0.6000000000000001,3.0,6.800000000000001,-0.2,8.100000000000001,-19.5,16
427,7202.0,-0.7000000000000001,0.4,-1.2000000000000002,-1.3,3.1,8.200000000000001,-17.5,4.800000000000001,-27.0,16
428,7219.0,-1.0,0.0,0.1,-1.7000000000000002,2.7,9.5,-21.1,3.6000000000000005,-28.200000000000003,16
429,7236.0,-1.1,-0.1,0.6000000000000001,-1.8,2.5,10.0,-16.5,-2.0,-22.4,16
430,7252.0,-1.1,0.0,0.6000000000000001,-1.5,2.5,10.200000000000001,-13.3,-7.500000000000001,-17.6,16
431,7275.0,0.7000000000000001,0.30000000000000004,1.7000000000000002,0.1,2.8000000000000003,11.100000000000001,-17.6,-21.1,-12.5,16
432,7286.0,0.8,0.2,2.1,0.2,2.7,11.600000000000001,-22.8,-20.7,-14.400000000000002,16
433,7302.0,0.8,0.30000000000000004,3.2,0.2,2.6,12.700000000000001,-28.200000000000003,-6.1000000000000005,-16.200000000000003,16
434,7319.0,0.7000000000000001,0.30000000000000004,3.5,0.2,2.6,13.0,-26.700000000000003,3.3000000000000007,-14.800000000000002,16
435,7337.0,1.6,0.8,3.1,1.0,3.0,12.700000000000001,-17.7,5.9,-7.699999999999999,16
436,7353.0,2.3000000000000003,1.0,3.4000000000000004,1.6,3.2,13.0,-18.8,-9.0,-8.2,16
437,7369.0,2.6,0.7000000000000001,3.7,2.0,2.9000000000000004,13.3,-22.000000000000004,-10.299999999999999,-12.100000000000001,16
438,7385.0,2.2,0.6000000000000001,4.0,1.7000000000000002,2.7,13.5,-26.799999999999997,4.7,-22.6,16
439,7402.0,1.4000000000000001,0.1,3.5,0.7000000000000001,2.1,13.100000000000001,-27.2,29.800000000000004,-29.200000000000003,16
440,7419.0,0.5,-0.5,3.2,-0.2,1.4000000000000001,12.8,-25.200000000000003,36.300000000000004,-29.1,16
441,7435.0,0.30000000000000004,-0.9,3.2,-0.5,1.0,12.8,-21.500000000000004,33.7,-25.300000000000004,16
442,7452.0,0.6000000000000001,-1.7000000000000002,3.1,-0.30000000000000004,0.1,12.700000000000001,-5.9,8.8,-0.2,16
443,7469.0,1.8,-1.7000000000000002,2.8000000000000003,1.5,0.30000000000000004,12.0,20.5,-24.1,25.5,16
444,7489.0,3.1,-0.9,0.4,2.3000000000000003,1.0,10.0,43.00000000000001,-35.599999999999994,32.9,16
445,7503.0,3.2,-0.30000000000000004,-1.7000000000000002,2.6,1.7000000000000002,7.9,43.50000000000001,-24.900000000000002,26.700000000000003,16
446,7524.0,2.6,-0.1,-2.8000000000000003,2.1,2.1,6.7,26.799999999999997,-7.0,11.8,16
447,7537.0,1.9000000000000001,-0.2,-3.0,1.4000000000000001,2.1,6.5,16.6,0.1,5.2,16
448,7552.0,1.9000000000000001,-0.2,-3.0,1.1,2.1,6.6000000000000005,9.4,4.300000000000001,1.1,16
449,7580.0,0.5,0.0,-2.7,0.0,2.3000000000000003,6.800000000000001,8.4,-6.600000000000001,2.9,16
450,7585.0,0.4,0.0,-2.7,-0.1,2.3000000000000003,6.9,12.200000000000001,-13.100000000000001,5.0,16
451,7607.0,0.4,0.1,-2.9000000000000004,0.0,2.5,6.6000000000000005,20.900000000000002,-17.5,8.3,16
452,7622.0,0.4,0.30000000000000004,-3.1,0.0,2.8000000000000003,6.2,23.900000000000006,-11.700000000000001,8.3,16
453,7636.0,0.4,0.6000000000000001,-3.5,0.0,3.1,6.0,21.300000000000004,-6.9,6.1000000000000005,16
454,7655.0,0.1,0.6000000000000001,-3.4000000000000004,-0.30000000000000004,3.1,6.0,13.399999999999999,-1.7,0.7,16
455,7672.0,0.1,0.5,-3.3000000000000003,-0.30000000000000004,3.1,6.2,9.5,-3.4,-0.8,16
456,7688.0,0.1,0.2,-2.3000000000000003,-0.2,2.8000000000000003,7.1000000000000005,8.5,-13.399999999999999,-1.7,16
457,7705.0,0.2,-0.1,-1.9000000000000001,0.0,2.5,7.7,15.399999999999999,-18.0,0.0,16
458,7720.0,0.30000000000000004,-0.2,-1.7000000000000002,0.1,2.4000000000000004,7.800000000000001,17.200000000000003,-18.1,0.6000000000000001,16
459,7735.0,0.7000000000000001,-0.1,-2.1,0.5,2.6,7.300000000000001,21.0,-14.900000000000002,0.7,16
460,7752.0,0.5,-0.2,-1.7000000000000002,0.4,2.6,7.7,17.7,-10.1,-2.0,16
461,7769.0,0.5,-0.2,-1.7000000000000002,0.2,2.5,8.1,6.4,6.1000000000000005,-6.500000000000001,16
462,7785.0,-0.2,-0.5,-1.1,-0.4,2.4000000000000004,8.3,10.9,22.5,-2.3,16
463,7802.0,-0.2,-0.1,-2.1,-0.5,2.8000000000000003,7.300000000000001,24.5,19.9,10.700000000000001,16
464,7819.0,0.30000000000000004,0.5,-2.5,0.0,3.4000000000000004,6.800000000000001,26.300000000000004,10.9,16.900000000000002,16
465,7835.0,1.2000000000000002,1.0,-1.7000000000000002,0.9,4.0,7.6000000000000005,11.000000000000002,-9.700000000000001,20.1,16
466,7852.0,1.3,1.1,-0.6000000000000001,1.1,4.1000000000000005,8.700000000000001,-2.0,-14.5,14.5,16
467,7874.0,0.8,1.1,2.9000000000000004,0.6000000000000001,4.1000000000000005,12.200000000000001,-24.8,14.0,-2.9,16
468,7891.0,0.5,1.3,3.0,0.30000000000000004,4.3,12.4,-24.1,31.7,-5.4,16
469,7904.0,0.0,1.8,2.5,-0.7000000000000001,4.9,11.3,-21.6,58.400000000000006,-5.500000000000001,16
470,7919.0,-0.4,2.5,1.3,-0.9,5.300000000000001,10.700000000000001,-26.700000000000003,60.7,-4.1,16
471,7937.0,-0.9,2.5,3.0,-1.5,5.2,12.4,-52.1,29.500000000000004,-7.8,16
472,7955.0,-0.7000000000000001,0.9,5.6000000000000005,-1.4000000000000001,3.4000000000000004,15.100000000000001,-65.7,-11.2,-3.6000000000000005,16
473,7969.0,-0.8,0.1,6.9,-1.5,2.5,16.400000000000002,-60.6,-25.300000000000004,2.9,16
474,7986.0,-0.6000000000000001,-0.9,7.800000000000001,-1.2000000000000002,1.4000000000000001,17.400000000000002,-32.7,-21.400000000000002,29.0,16
475,8002.0,-0.30000000000000004,-0.6000000000000001,6.9,-0.5,1.8,15.5,-16.3,-6.9,42.7,16
476,8019.0,0.30000000000000004,-0.1,4.1000000000000005,-0.2,2.1,13.700000000000001,9.8,17.400000000000002,58.2,16
477,8036.0,0.4,0.5,1.3,-0.1,2.7,10.9,21.0,24.8,65.6,16
478,8052.0,0.5,0.5,0.8,-0.1,2.7,10.3,22.5,19.6,67.5,16
479,8070.0,0.8,0.5,-0.2,0.30000000000000004,2.8000000000000003,9.3,23.900000000000006,-2.2,70.5,16
480,8085.0,1.2000000000000002,0.30000000000000004,-0.7000000000000001,0.7000000000000001,2.7,8.8,22.6,-24.400000000000002,67.60000000000001,16
481,8102.0,1.4000000000000001,-0.1,-0.5,1.0,2.4000000000000004,9.0,10.8,-26.9,58.400000000000006,16
482,8119.0,1.3,-0.4,0.1,1.1,2.1,9.600000000000001,5.7,-22.000000000000004,51.70000000000001,16
483,8137.0,0.5,-1.1,0.8,0.30000000000000004,1.5,10.200000000000001,9.2,-5.6,40.800000000000004,16
484,8155.0,-0.5,-1.5,-0.30000000000000004,-0.6000000000000001,1.1,9.200000000000001,17.400000000000002,3.2,39.699999999999996,16
485,8169.0,-0.6000000000000001,-1.6,-0.8,-0.7000000000000001,1.0,8.6,32.0,11.8,44.6,16
486,8186.0,-0.6000000000000001,-1.6,-1.9000000000000001,-0.7000000000000001,1.1,7.1000000000000005,47.5,9.3,56.400000000000006,16
487,8202.0,-0.4,-1.6,-3.0,-0.30000000000000004,1.5,5.9,54.50000000000001,-2.6,65.3,16
488,8219.0,0.1,-1.3,-3.8000000000000003,0.1,1.7000000000000002,5.6000000000000005,54.4,-11.000000000000002,66.80000000000001,16
489,8235.0,0.2,-1.4000000000000001,-3.5,0.30000000000000004,1.8,5.800000000000001,48.50000000000001,-21.6,62.7,16
490,8252.0,0.30000000000000004,-1.5,-3.3000000000000003,0.4,1.7000000000000002,6.0,45.099999999999994,-20.1,59.80000000000001,16
491,8269.0,0.4,-1.7000000000000002,-3.0,0.7000000000000001,1.7000000000000002,6.4,35.9,-11.1,52.900000000000006,16
492,8286.0,0.6000000000000001,-2.0,-1.8,1.0,1.5,7.4,27.6,-9.3,44.8,16
493,8305.0,0.8,-2.3000000000000003,-1.3,1.2000000000000002,1.3,7.9,29.500000000000004,-10.299999999999999,38.2,16
494,8319.0,0.9,-2.3000000000000003,-1.6,1.4000000000000001,1.3,7.5,32.6,-9.2,35.3,16
495,8335.0,1.2000000000000002,-2.3000000000000003,-2.6,1.8,1.4000000000000001,6.5,30.4,-3.8,28.3,16
496,8353.0,1.4000000000000001,-2.2,-2.8000000000000003,2.0,1.5,6.2,23.800000000000004,-1.4,24.0,16
497,8369.0,1.6,-1.9000000000000001,-3.1,2.2,1.9000000000000001,6.0,5.1000000000000005,-1.6,9.899999999999999,16
498,8385.0,1.7000000000000002,-1.7000000000000002,-2.6,2.4000000000000004,2.1,6.4,-23.5,-0.8,-6.699999999999999,16
499,8402.0,1.4000000000000001,-1.5,-1.1,2.0,2.2,8.0,-58.1,13.399999999999999,-22.9,16
500,8419.0,1.1,-1.6,0.30000000000000004,1.7000000000000002,2.0,9.4,-71.9,21.500000000000004,-27.6,16
501,8436.0,0.7000000000000001,-1.3,1.9000000000000001,1.2000000000000002,2.1,11.100000000000001,-91.7,29.700000000000006,-31.799999999999997,16
502,8453.0,0.4,-0.6000000000000001,3.7,0.7000000000000001,2.4000000000000004,13.0,-98.10000000000001,29.600000000000005,-31.400000000000002,16
503,8471.0,0.30000000000000004,-0.30000000000000004,4.1000000000000005,0.6000000000000001,2.6,13.5,-94.4,26.400000000000006,-30.699999999999996,16
504,8487.0,0.30000000000000004,0.1,4.3,0.5,2.7,13.9,-88.9,16.700000000000003,-29.500000000000004,16
505,8502.0,0.2,0.0,4.9,0.30000000000000004,2.5,14.4,-92.3,18.3,-29.800000000000004,16
506,8519.0,-0.2,-0.5,6.300000000000001,-0.1,1.6,15.9,-100.2,33.9,-25.200000000000003,16
507,8536.0,-0.1,-0.4,6.300000000000001,-0.30000000000000004,1.4000000000000001,16.3,-97.89999999999999,39.8,-18.6,16
508,8552.0,-0.4,-0.5,6.800000000000001,-0.6000000000000001,1.0,16.5,-50.3,16.700000000000003,20.7,16
509,8572.0,-0.4,-0.4,6.800000000000001,-0.1,1.0,16.0,-27.0,-1.6,38.300000000000004,16
510,8586.0,2.2,-0.1,4.800000000000001,2.0,1.3,14.5,16.6,-38.0,64.60000000000001,16
511,8603.0,4.0,0.2,2.9000000000000004,4.0,1.7000000000000002,12.600000000000001,40.6,-51.4,69.00000000000001,16
512,8619.0,4.5,0.5,1.6,4.6000000000000005,2.0,11.3,49.50000000000001,-52.300000000000004,64.10000000000001,16
513,8636.0,4.5,0.5,-0.2,4.800000000000001,2.3000000000000003,9.5,51.300000000000004,-41.50000000000001,41.900000000000006,16
514,8656.0,4.2,0.4,-0.5,3.9000000000000004,2.1,8.4,39.2,-18.8,12.7,16
515,8668.0,3.4000000000000004,0.1,-1.2000000000000002,3.6,2.0,8.200000000000001,32.2,-7.0,0.0,16
516,8685.0,1.7000000000000002,-0.4,-2.0,2.2,1.7000000000000002,7.6000000000000005,25.1,8.899999999999999,-16.4,16
517,8702.0,0.8,-0.7000000000000001,-2.8000000000000003,1.2000000000000002,1.5,6.800000000000001,29.300000000000004,9.3,-20.7,16
518,8719.0,0.6000000000000001,-0.7000000000000001,-3.4000000000000004,1.1,1.5,6.1000000000000005,33.6,5.2,-20.3,16
519,8738.0,0.6000000000000001,-0.7000000000000001,-4.4,1.0,1.7000000000000002,5.1000000000000005,37.300000000000004,-5.7,-19.6,16
520,8754.0,0.6000000000000001,-0.7000000000000001,-4.5,1.0,1.7000000000000002,5.0,34.60000000000001,-10.299999999999999,-20.8,16
521,8773.0,0.4,-1.1,-4.1000000000000005,0.8,1.4000000000000001,5.4,19.0,-8.3,-26.700000000000003,16
522,8787.0,0.2,-1.2000000000000002,-3.8000000000000003,0.6000000000000001,1.4000000000000001,5.7,15.399999999999999,-3.6000000000000005,-27.3,16
523,8803.0,0.0,-1.4000000000000001,-3.6,0.4,1.2000000000000002,5.800000000000001,16.1,1.5,-24.599999999999998,16
524,8823.0,0.30000000000000004,-1.2000000000000002,-4.1000000000000005,0.6000000000000001,1.5,5.300000000000001,17.5,0.2,-22.000000000000004,16
525,8838.0,0.6000000000000001,-0.9,-4.2,1.0,1.8,5.300000000000001,12.7,-8.600000000000001,-21.400000000000002,16
526,8856.0,0.7000000000000001,-0.9,-3.1,1.1,1.9000000000000001,6.300000000000001,-5.300000000000001,-14.700000000000001,-30.799999999999997,16
527,8873.0,0.1,-1.4000000000000001,-1.9000000000000001,0.5,1.3,7.5,-21.6,-4.800000000000001,-39.699999999999996,16
528,8886.0,-0.30000000000000004,-1.6,-1.3,0.1,1.1,8.200000000000001,-24.5,4.7,-38.800000000000004,16
529,8902.0,-0.7000000000000001,-1.7000000000000002,-0.8,-0.4,0.9,8.700000000000001,-16.8,20.2,-24.0,16
530,8920.0,-0.5,-1.2000000000000002,-0.9,-0.2,1.4000000000000001,8.5,-10.299999999999999,19.799999999999997,-14.900000000000002,16
531,8936.0,0.4,-0.4,-1.1,0.6000000000000001,2.2,8.3,-1.0,2.7,-4.7,16
532,8960.0,0.9,0.2,-0.6000000000000001,1.1,2.7,8.8,-4.4,-12.299999999999999,-4.9,16
533,8974.0,0.8,0.7000000000000001,0.4,1.1,3.2,9.9,-19.700000000000003,-11.1,-10.600000000000001,16
534,8986.0,0.8,0.7000000000000001,0.4,0.9,3.4000000000000004,10.600000000000001,-28.3,-5.0,-14.0,16
535,9002.0,0.5,1.0,2.1,0.7000000000000001,3.4000000000000004,11.600000000000001,-35.0,3.4,-17.200000000000003,16
536,9019.0,-0.2,1.3,3.6,0.1,3.6,13.100000000000001,-35.5,28.1,-19.9,16
537,9037.0,-0.7000000000000001,1.7000000000000002,2.8000000000000003,-0.6000000000000001,3.9000000000000004,12.3,-17.9,52.7,-13.3,16
538,9052.0,-0.8,2.0,2.0,-0.8,4.2,11.5,-7.500000000000001,57.00000000000001,-8.0,16
539,9069.0,-1.2000000000000002,3.5,-0.5,-1.3,5.7,9.1,-5.7,44.6,-5.2,16
540,9090.0,-1.1,3.9000000000000004,-0.6000000000000001,-1.1,5.5,10.0,-39.8,5.1000000000000005,-6.4,16
541,9105.0,-1.3,1.0,5.1000000000000005,-1.6,2.9000000000000004,14.700000000000001,-78.4,-20.2,-15.299999999999999,16
542,9119.0,-2.5,0.0,7.6000000000000005,-2.7,1.8,17.2,-80.2,-24.900000000000002,-13.6,16
543,9136.0,-2.9000000000000004,-1.7000000000000002,8.700000000000001,-3.1,-0.1,18.400000000000002,-39.9,-12.600000000000001,20.599999999999998,16
544,9152.0,-2.6,-1.7000000000000002,7.9,-2.8000000000000003,-0.1,17.6,-6.699999999999999,-6.0,44.8,16
545,9178.0,1.1,-1.1,1.3,1.0,0.5,11.0,71.6,-25.4,102.8,16
546,9186.0,1.6,-1.3,0.8,1.6,0.5,10.4,76.60000000000001,-33.9,110.5,16
547,9202.0,3.0,-0.7000000000000001,-0.6000000000000001,3.2,1.3,9.0,69.20000000000002,-44.9,107.8,16
548,9219.0,3.5,-0.8,-1.2000000000000002,3.8000000000000003,1.3,8.4,63.900000000000006,-46.6,98.7,16
549,9236.0,2.9000000000000004,-1.0,-1.7000000000000002,3.4000000000000004,1.3,7.800000000000001,46.300000000000004,-46.0,71.19999999999999,16
550,9252.0,2.3000000000000003,-1.3,-1.5,3.0,1.1,8.0,34.1,-42.1,59.1,16
551,9269.0,1.5,-1.7000000000000002,-0.5,2.4000000000000004,0.8,8.9,9.4,-31.2,46.1,16
552,9288.0,0.9,-2.0,0.4,1.9000000000000001,0.5,9.8,-3.7000000000000006,-9.8,39.599999999999994,16
553,9302.0,0.4,-2.0,0.6000000000000001,1.5,0.4,10.100000000000001,-0.30000000000000004,12.8,36.5,16
554,9327.0,-0.2,-1.9000000000000001,-0.30000000000000004,0.8,0.5,9.200000000000001,16.0,17.7,36.6,16
555,9336.0,-0.5,-1.9000000000000001,-0.8,0.6000000000000001,0.5,8.6,22.700000000000003,12.4,39.0,16
556,9352.0,-0.5,-2.0,-0.8,0.5,0.4,8.200000000000001,29.0,6.699999999999999,42.900000000000006,16
557,9373.0,-0.5,-2.0,-1.7000000000000002,0.8,0.6000000000000001,7.4,37.2,-4.9,52.5,16
558,9388.0,0.30000000000000004,-1.9000000000000001,-2.6,1.4000000000000001,0.7000000000000001,6.800000000000001,42.3,-12.0,57.20000000000001,16
559,9402.0,0.9,-1.6,-2.8000000000000003,2.1,1.1,6.5,41.7,-14.400000000000002,55.7,16
560,9420.0,1.5,-1.3,-2.9000000000000004,2.7,1.5,6.4,40.5,-14.100000000000001,51.70000000000001,16
561,9436.0,1.7000000000000002,-1.1,-3.1,3.1,1.8,6.2,32.9,-6.8,33.50000000000001,16
562,9452.0,1.7000000000000002,-1.1,-3.1,2.6,1.9000000000000001,6.300000000000001,24.7,2.0,21.900000000000002,16
563,9470.0,0.9,-1.0,-2.8000000000000003,2.3000000000000003,2.0,6.5,6.300000000000001,19.400000000000002,2.8,16
564,9487.0,0.30000000000000004,-0.8,-2.1,1.6,2.1,7.2,-3.5,20.8,-9.700000000000001,16
565,9507.0,-0.30000000000000004,-0.7000000000000001,-1.4000000000000001,0.9,2.3000000000000003,7.9,-5.1000000000000005,13.399999999999999,-15.8,16
566,9519.0,-0.4,-0.6000000000000001,-0.8,0.8,2.4000000000000004,8.5,-6.2,6.8,-18.1,16
567,9535.0,-0.4,-0.30000000000000004,0.5,0.8,2.7,9.700000000000001,-12.7,-3.3000000000000007,-21.500000000000004,16
568,9552.0,-0.30000000000000004,-0.30000000000000004,0.5,0.9,2.7,10.100000000000001,-15.700000000000001,-7.0,-23.099999999999998,16
569,9569.0,-0.1,0.0,2.0,1.1,2.9000000000000004,11.3,-17.300000000000004,-4.4,-27.9,16
570,9586.0,0.0,0.30000000000000004,2.0,1.2000000000000002,3.1,11.3,-14.700000000000001,9.0,-31.099999999999998,16
571,9608.0,0.30000000000000004,0.7000000000000001,1.6,1.7000000000000002,3.8000000000000003,10.600000000000001,-21.6,21.500000000000004,-33.2,16
572,9619.0,0.8,1.6,1.4000000000000001,1.8,4.4,10.8,-33.7,25.6,-39.599999999999994,16
573,9642.0,0.4,1.4000000000000001,3.1,1.2000000000000002,4.0,12.5,-85.4,37.50000000000001,-77.3,16
574,9658.0,-1.8,-0.5,6.1000000000000005,-1.1,1.9000000000000001,15.600000000000001,-96.4,42.400000000000006,-87.10000000000001,16
575,9668.0,-2.3000000000000003,-1.0,6.7,-1.7000000000000002,1.3,16.2,-97.89999999999999,47.1,-87.3,16
576,9685.0,-3.6,-2.7,7.7,-3.2,-0.7000000000000001,17.3,-73.4,69.3,-49.300000000000004,16
577,9708.0,-1.8,-3.0,6.5,-1.7000000000000002,-1.3,16.2,-34.0,82.7,22.000000000000004,16
578,9720.0,-0.1,-2.5,5.300000000000001,-0.1,-0.8,15.0,-11.000000000000002,71.39999999999999,54.199999999999996,16
579,9735.0,3.1,-1.5,2.5,2.9000000000000004,0.2,12.200000000000001,36.6,25.6,99.5,16
580,9763.0,5.300000000000001,-0.4,-0.30000000000000004,5.2,1.6,9.3,73.0,-32.7,111.80000000000001,16
581,9769.0,5.300000000000001,-0.4,-0.30000000000000004,5.2,1.6,9.3,73.0,-32.7,111.80000000000001,16
582,9785.0,5.6000000000000005,0.30000000000000004,-2.2,5.7,2.6,7.300000000000001,75.3,-46.7,85.69999999999999,16
583,9804.0,4.5,0.2,-3.5,4.800000000000001,2.6,6.0,51.0,-35.599999999999994,50.2,16
584,9822.0,3.6,0.1,-3.4000000000000004,4.0,2.7,6.0,33.300000000000004,-25.300000000000004,35.599999999999994,16
585,9839.0,2.2,-0.5,-2.3000000000000003,2.6,2.1,7.1000000000000005,9.0,-6.0,15.700000000000001,16
586,9863.0,1.5,-1.1,-1.8,1.8,1.6,7.6000000000000005,12.0,-6.0,9.5,16
587,9871.0,1.3,-1.1,-1.9000000000000001,1.8,1.6,7.6000000000000005,21.1,-13.3,7.200000000000001,16
588,9885.0,1.1,-1.1,-2.5,1.6,1.6,6.6000000000000005,33.400000000000006,-24.900000000000002,5.4,16
589,9902.0,0.9,-1.2000000000000002,-3.5,1.6,1.7000000000000002,5.9,30.599999999999998,-23.800000000000004,0.4,16
590,9919.0,1.0,-1.3,-3.7,1.7000000000000002,1.6,5.6000000000000005,26.700000000000003,-21.6,-3.1,16
591,9937.0,0.7000000000000001,-1.3,-3.8000000000000003,1.5,1.6,5.5,18.4,-20.400000000000002,-11.2,16
592,9954.0,0.7000000000000001,-1.4000000000000001,-3.8000000000000003,1.4000000000000001,1.6,5.5,13.900000000000002,-21.8,-15.000000000000002,16
593,9973.0,0.5,-1.5,-3.5,1.3,1.6,5.800000000000001,6.500000000000001,-23.3,-20.3,16
594,9985.0,0.5,-1.6,-2.9000000000000004,1.4000000000000001,1.4000000000000001,6.4,-3.2,-19.1,-27.700000000000003,16
595,10003.0,0.30000000000000004,-1.7000000000000002,-2.2,1.3,1.4000000000000001,7.1000000000000005,-13.100000000000001,-8.2,-34.7,16
596,10019.0,0.30000000000000004,-1.7000000000000002,-2.2,1.0,1.5,7.7,-17.1,-2.4000000000000004,-37.300000000000004,16
597,10039.0,-0.7000000000000001,-1.3,-0.8,0.2,1.7000000000000002,8.4,-18.1,8.100000000000001,-38.60000000000001,16
598,10065.0,-1.5,-0.4,-1.2000000000000002,-0.8,2.5,8.1,-10.9,22.3,-26.5,16
599,10068.0,-1.5,-0.4,-1.2000000000000002,-0.8,2.5,8.1,-10.9,22.3,-26.5,16
600,10086.0,-2.0,0.4,-1.4000000000000001,-1.4000000000000001,3.3000000000000003,7.9,-16.4,22.700000000000003,-15.6,16
601,10102.0,-2.0,0.9,-0.6000000000000001,-1.4000000000000001,3.8000000000000003,8.700000000000001,-26.9,10.1,-2.8,16
602,10121.0,-1.7000000000000002,1.1,0.6000000000000001,-1.0,3.9000000000000004,10.3,-33.2,-5.0,11.3,16
603,10137.0,-1.2000000000000002,1.4000000000000001,1.9000000000000001,-0.6000000000000001,4.1000000000000005,11.3,-33.400000000000006,-9.600000000000001,19.1,16
604,10152.0,-0.4,1.8,3.1,0.30000000000000004,4.4,12.5,-27.800000000000004,-5.8,34.7,16
605,10171.0,0.1,1.9000000000000001,3.5,0.7000000000000001,4.5,12.9,-23.0,1.2000000000000002,39.699999999999996,16
606,10188.0,0.4,3.1,3.1,1.1,5.6000000000000005,12.600000000000001,-8.8,17.400000000000002,41.1,16
607,10202.0,0.5,3.7,2.7,1.1,6.300000000000001,12.200000000000001,-14.700000000000001,20.3,32.1,16
608,10220.0,0.4,3.8000000000000003,2.7,1.0,5.800000000000001,13.3,-25.8,17.6,26.5,16
609,10236.0,-0.2,2.1,5.6000000000000005,0.4,4.5,15.100000000000001,-35.0,17.300000000000004,18.3,16
610,10252.0,-0.9,1.0,6.2,-0.30000000000000004,3.2,15.700000000000001,-20.400000000000002,15.700000000000001,21.1,16
611,10272.0,-1.0,-0.2,6.0,-0.5,2.0,15.5,2.5,13.900000000000002,40.1,16
612,10286.0,-0.7000000000000001,-0.5,5.6000000000000005,-0.2,1.7000000000000002,15.200000000000001,15.8,10.9,51.2,16
613,10304.0,-0.30000000000000004,-0.7000000000000001,4.9,0.2,1.5,14.4,35.699999999999996,2.3,63.599999999999994,16
614,10319.0,0.6000000000000001,-0.8,2.9000000000000004,1.1,1.5,12.4,46.0,-4.300000000000001,67.9,16
615,10336.0,0.9,-1.1,1.4000000000000001,1.5,1.3,10.8,54.800000000000004,-10.700000000000001,67.4,16
616,10352.0,0.9,-1.3,1.1,1.5,1.2000000000000002,10.600000000000001,53.50000000000001,-10.0,64.80000000000001,16
617,10373.0,1.0,-2.0,0.1,1.8,0.8,9.5,45.2,-6.600000000000001,57.49999999999999,16
618,10395.0,0.6000000000000001,-2.1,0.0,1.5,0.7000000000000001,9.4,36.8,-13.8,49.6,16
619,10402.0,0.6000000000000001,-2.1,0.0,1.5,0.7000000000000001,9.4,36.8,-13.8,49.6,16
620,10419.0,0.30000000000000004,-2.7,0.0,1.2000000000000002,0.2,9.3,31.2,-12.200000000000001,46.1,16
621,10435.0,-0.1,-3.1,-0.30000000000000004,1.0,0.0,9.0,33.9,4.300000000000001,44.9,16
622,10452.0,-0.1,-3.1,-0.6000000000000001,0.9,0.0,8.700000000000001,39.8,15.700000000000001,45.5,16
623,10476.0,-0.5,-2.6,-3.0,0.5,0.6000000000000001,6.2,50.5,30.4,44.8,16
624,10486.0,-0.6000000000000001,-2.7,-3.2,0.4,0.7000000000000001,5.9,47.3,30.9,43.800000000000004,16
625,10502.0,-0.7000000000000001,-2.7,-3.5,0.30000000000000004,0.7000000000000001,5.6000000000000005,41.50000000000001,29.800000000000004,42.60000000000001,16
626,10523.0,-0.9,-2.8000000000000003,-3.5,0.0,0.8,5.800000000000001,24.1,19.700000000000003,43.4,16
627,10538.0,-0.9,-2.7,-3.1,0.0,0.9,6.0,21.200000000000003,14.600000000000001,44.10000000000001,16
628,10555.0,-1.0,-2.6,-2.8000000000000003,0.0,1.0,6.2,16.700000000000003,6.300000000000001,43.1,16
629,10580.0,-1.0,-2.4000000000000004,-2.4000000000000004,0.0,1.2000000000000002,6.6000000000000005,8.8,7.6,42.400000000000006,16
630,10585.0,-0.9,-2.3000000000000003,-2.3000000000000003,0.1,1.3,6.7,4.5,11.3,42.0,16
631,10604.0,-0.7000000000000001,-2.1,-1.8,0.30000000000000004,1.6,7.2,-4.800000000000001,19.6,39.2,16
632,10622.0,-0.7000000000000001,-1.9000000000000001,-1.6,0.30000000000000004,1.9000000000000001,7.7,-11.5,26.400000000000006,35.5,16
633,10635.0,-0.8,-1.5,-1.2000000000000002,0.2,2.1,7.9,-13.8,27.800000000000004,34.0,16
634,10653.0,-0.8,-1.0,-0.7000000000000001,0.2,2.5,8.4,-22.1,27.6,31.5,16
635,10679.0,-0.8,-0.7000000000000001,0.6000000000000001,0.1,2.7,9.700000000000001,-31.0,21.0,27.9,16
636,10686.0,-0.8,-0.6000000000000001,1.0,0.1,2.8000000000000003,10.100000000000001,-33.7,17.400000000000002,26.9,16
637,10706.0,-0.8,-0.30000000000000004,2.2,0.1,3.0,11.4,-35.1,14.300000000000002,27.0,16
638,10721.0,-0.6000000000000001,-0.1,2.8000000000000003,0.4,3.1,12.200000000000001,-32.6,10.600000000000001,27.6,16
639,10736.0,-0.1,0.1,3.0,0.7000000000000001,3.2,12.3,-30.799999999999997,9.3,27.400000000000002,16
640,10753.0,0.30000000000000004,0.5,2.8000000000000003,1.4000000000000001,3.7,12.100000000000001,-33.1,4.800000000000001,23.6,16
641,10776.0,0.7000000000000001,0.9,3.0,1.5,3.5,13.100000000000001,-54.4,-0.9000000000000001,9.5,16
642,10790.0,0.5,0.4,4.5,1.3,3.1,13.8,-69.80000000000001,3.2,1.0,16
643,10807.0,-0.30000000000000004,-1.4000000000000001,6.800000000000001,0.5,1.1,16.3,-92.2,30.4,-7.6,16
644,10823.0,-1.0,-2.9000000000000004,8.0,-0.30000000000000004,-0.7000000000000001,17.6,-73.7,59.300000000000004,8.2,16
645,10836.0,-0.9,-2.8000000000000003,8.0,0.0,-0.9,16.8,-48.400000000000006,61.10000000000001,26.200000000000003,16
646,10854.0,0.8,-2.6,5.2,1.3,-0.6000000000000001,14.8,11.8,35.3,64.50000000000001,16
647,10876.0,2.9000000000000004,-1.9000000000000001,2.3000000000000003,3.3000000000000003,0.1,11.9,49.4,1.6,85.30000000000001,16
648,10886.0,2.9000000000000004,-2.0,2.3000000000000003,3.9000000000000004,0.4,11.200000000000001,57.1,-8.0,86.60000000000001,16
649,10906.0,4.3,-1.3,-0.30000000000000004,4.800000000000001,1.1,9.3,65.10000000000001,-8.100000000000001,72.7,16
650,10919.0,4.2,-1.0,-1.5,4.800000000000001,1.4000000000000001,8.0,56.7,3.5,47.0,16
651,10935.0,4.0,-1.0,-1.9000000000000001,3.9000000000000004,1.9000000000000001,6.6000000000000005,46.800000000000004,9.8,33.1,16
652,10952.0,2.9000000000000004,-0.7000000000000001,-3.1,3.5,1.9000000000000001,6.300000000000001,33.50000000000001,15.899999999999999,20.599999999999998,16
653,10974.0,0.8,-0.9,-2.3000000000000003,1.3,1.9000000000000001,7.1000000000000005,2.0,21.300000000000004,-2.5,16
654,10992.0,-0.30000000000000004,-0.8,-1.9000000000000001,0.2,2.0,7.5,5.6,12.0,-5.6,16
655,11002.0,-0.6000000000000001,-0.8,-2.0,-0.1,2.0,7.4,10.8,6.1000000000000005,-4.6,16
656,11019.0,-0.8,-0.8,-2.2,-0.4,2.0,7.2,15.100000000000001,1.1,-2.8,16
657,11040.0,-0.9,-0.7000000000000001,-2.4000000000000004,-0.4,2.2,7.0,14.600000000000001,-5.7,2.6,16
658,11054.0,-0.7000000000000001,-0.6000000000000001,-2.2,-0.30000000000000004,2.3000000000000003,7.2,12.8,-6.1000000000000005,2.5,16
659,11076.0,-0.7000000000000001,-0.7000000000000001,-2.2,-0.30000000000000004,2.2,7.300000000000001,11.700000000000001,-6.4,1.1,16
660,11085.0,-0.7000000000000001,-1.1,-1.9000000000000001,-0.2,1.8,7.5,12.0,-4.800000000000001,-1.9,16
661,11104.0,-0.5,-1.5,-2.0,-0.1,1.5,7.300000000000001,12.299999999999999,-0.2,-2.1,16
662,11122.0,-0.30000000000000004,-1.7000000000000002,-2.2,0.1,1.3,7.1000000000000005,10.9,3.1,-2.4000000000000004,16
663,11140.0,-0.30000000000000004,-1.9000000000000001,-2.2,0.1,1.1,7.1000000000000005,7.400000000000001,7.6,-3.9,16
664,11152.0,-0.4,-2.0,-2.4000000000000004,0.0,1.1,6.9,5.4,11.5,-4.1,16
665,11171.0,-0.4,-1.9000000000000001,-2.5,0.0,1.2000000000000002,6.800000000000001,2.2,14.100000000000001,-4.1,16
666,11185.0,-0.5,-1.9000000000000001,-2.5,-0.1,1.2000000000000002,6.800000000000001,-9.2,14.900000000000002,-2.8,16
667,11202.0,-0.5,-1.8,-1.5,-0.2,1.3,7.9,-23.0,6.8,1.4,16
668,11219.0,-0.4,-1.6,-0.30000000000000004,-0.1,1.4000000000000001,9.0,-22.4,-4.300000000000001,9.2,16
669,11235.0,-0.2,-1.3,-0.1,0.1,1.7000000000000002,9.3,-18.200000000000003,-7.400000000000001,13.5,16
670,11252.0,0.30000000000000004,-0.4,0.0,0.6000000000000001,2.5,9.4,-13.700000000000001,-9.4,17.799999999999997,16
671,11270.0,0.6000000000000001,0.0,0.2,1.0,2.8000000000000003,9.5,-15.6,-8.5,16.8,16
672,11285.0,0.8,0.6000000000000001,1.1,1.3,3.4000000000000004,10.5,-25.4,-4.6,4.9,16
673,11304.0,0.30000000000000004,0.9,2.8000000000000003,0.7000000000000001,3.6,12.200000000000001,-33.0,9.2,-8.5,16
674,11320.0,-0.6000000000000001,1.0,3.6,-0.2,3.6,13.0,-21.400000000000002,38.7,-14.200000000000001,16
675,11336.0,-0.9,1.3,2.7,-0.6000000000000001,3.9000000000000004,12.200000000000001,-10.1,55.2,-12.0,16
676,11352.0,-1.4000000000000001,2.6,0.0,-1.3,5.2,9.5,1.4,69.20000000000002,-10.200000000000001,16
677,11372.0,-2.0,3.6,-1.1,-2.1,6.1000000000000005,8.3,-18.6,45.5,-15.6,16
678,11393.0,-2.7,1.6,1.9000000000000001,-3.0,4.1000000000000005,11.4,-70.4,13.3,-23.900000000000006,16
679,11402.0,-2.7,1.8,1.8,-3.5,3.3000000000000003,13.200000000000001,-90.9,1.7,-23.700000000000003,16
680,11419.0,-4.5,-1.5,8.8,-4.800000000000001,0.5,18.400000000000002,-80.50000000000001,3.1,9.2,16
681,11435.0,-4.3,-1.8,9.5,-4.7,0.1,19.1,-47.400000000000006,15.100000000000001,37.400000000000006,16
682,11453.0,-3.2,-1.0,6.5,-3.6,0.8,16.2,32.8,23.0,92.2,16
683,11470.0,-1.0,-0.5,1.8,-1.4000000000000001,1.5,11.4,67.8,9.3,118.2,16
684,11486.0,-0.2,-0.2,0.5,-0.5,1.9000000000000001,10.100000000000001,73.8,-1.8000000000000003,125.80000000000001,16
685,11503.0,0.7000000000000001,0.5,-0.8,0.5,2.8000000000000003,8.700000000000001,60.2,-21.900000000000002,124.2,16
686,11519.0,1.0,0.30000000000000004,-0.7000000000000001,0.7000000000000001,2.7,9.1,35.2,-26.700000000000003,107.30000000000001,16
687,11536.0,0.2,-0.2,0.1,0.30000000000000004,2.3000000000000003,9.600000000000001,25.1,-22.9,97.2,16
688,11552.0,0.1,-0.30000000000000004,0.2,0.0,2.0,9.8,18.6,-15.700000000000001,89.10000000000001,16
689,11568.0,-0.9,-1.1,0.2,-0.5,1.5,9.600000000000001,13.8,-5.6,81.0,16
690,11586.0,-0.8,-1.2000000000000002,0.1,-0.5,1.5,9.5,13.900000000000002,-11.900000000000002,78.2,16
691,11602.0,-1.2000000000000002,-1.5,0.30000000000000004,-0.7000000000000001,1.2000000000000002,9.700000000000001,11.700000000000001,-23.400000000000002,69.4,16
692,11618.0,-1.5,-1.9000000000000001,0.7000000000000001,-1.0,0.8,10.100000000000001,10.0,-23.800000000000004,65.6,16
693,11635.0,-2.6,-2.8000000000000003,1.4000000000000001,-1.9000000000000001,-0.1,10.8,14.700000000000001,-9.100000000000001,65.2,16
694,11652.0,-2.7,-3.1,0.7000000000000001,-2.0,-0.30000000000000004,10.0,36.1,12.200000000000001,81.10000000000001,16
695,11670.0,-2.7,-3.1,0.7000000000000001,-1.9000000000000001,-0.2,9.5,50.0,15.700000000000001,90.4,16
696,11692.0,-1.6,-2.8000000000000003,-2.2,-0.7000000000000001,0.30000000000000004,7.1000000000000005,75.3,-6.2,109.2,16
697,11705.0,-1.1,-2.8000000000000003,-2.5,-0.2,0.4,6.7,77.20000000000002,-14.400000000000002,111.70000000000002,16
698,11719.0,-0.6000000000000001,-2.7,-2.7,1.1,0.8,6.300000000000001,76.5,-23.5,108.90000000000002,16
699,11735.0,0.6000000000000001,-2.4000000000000004,-2.9000000000000004,1.8,1.0,6.2,75.8,-24.400000000000002,102.0,16
700,11752.0,1.0,-2.2,-3.0,2.4000000000000004,1.4000000000000001,6.0,72.30000000000001,-20.900000000000002,81.3,16
701,11771.0,1.0,-2.2,-3.0,2.5,1.6,5.9,69.7,-15.000000000000002,67.10000000000001,16
702,11794.0,0.30000000000000004,-1.9000000000000001,-3.9000000000000004,1.9000000000000001,2.2,4.9,49.199999999999996,18.0,21.400000000000002,16
703,11802.0,0.0,-1.8,-4.0,1.6,2.3000000000000003,4.800000000000001,35.9,29.500000000000004,5.6,16
704,11819.0,-0.9,-1.8,-3.8000000000000003,0.6000000000000001,2.4000000000000004,4.9,8.100000000000001,43.6,-20.400000000000002,16
705,11839.0,-1.4000000000000001,-1.8,-3.6,-0.4,2.3000000000000003,5.4,-13.200000000000003,39.1,-38.1,16
706,11853.0,-2.0,-2.0,-2.8000000000000003,-0.8,2.2,6.0,-21.900000000000002,30.000000000000004,-42.7,16
707,11874.0,-2.0,-2.1,-1.3,-0.9,2.1,7.5,-36.1,6.600000000000001,-43.6,16
708,11885.0,-1.9000000000000001,-2.1,-0.6000000000000001,-0.8,2.0,8.200000000000001,-41.0,-4.6,-41.7,16
709,11903.0,-1.3,-2.0,1.0,-0.2,2.0,9.9,-43.70000000000001,-15.899999999999999,-33.7,16
710,11919.0,0.4,-1.3,1.1,1.4000000000000001,2.6,10.0,-43.4,-15.2,-30.4,16
711,11940.0,1.0,-0.7000000000000001,1.0,2.2,2.9000000000000004,10.4,-68.60000000000001,-16.4,-53.0,16
712,11961.0,1.0,-0.7000000000000001,1.0,2.2,2.9000000000000004,10.4,-68.60000000000001,-16.4,-53.0,16
713,11971.0,0.6000000000000001,-1.8,3.1,0.6000000000000001,0.4,13.3,-110.6,-3.2,-86.2,16
714,11987.0,-1.1,-3.5,4.6000000000000005,-0.30000000000000004,-0.4,13.8,-140.9,33.2,-104.4,16
715,12002.0,-2.1,-4.1000000000000005,5.1000000000000005,-2.0,-1.7000000000000002,14.8,-148.0,64.7,-87.7,16
716,12019.0,-3.0,-4.2,5.6000000000000005,-2.6,-2.1,15.3,-131.29999999999998,60.1,-38.0,16
717,12035.0,-2.4000000000000004,-3.8000000000000003,5.9,-2.1,-1.8,15.5,-113.8,43.50000000000001,-5.9,16
718,12055.0,-0.6000000000000001,-2.3000000000000003,5.4,-0.4,-0.7000000000000001,15.100000000000001,-59.40000000000001,0.1,61.9,16
719,12075.0,2.0,-0.5,3.1,2.3000000000000003,1.1,12.8,4.800000000000001,-32.0,109.60000000000001,16
720,12085.0,2.9000000000000004,0.30000000000000004,1.7000000000000002,3.2,1.8,11.4,27.6,-41.800000000000004,118.00000000000001,16
721,12103.0,4.0,1.4000000000000001,-0.9,4.5,3.0,8.700000000000001,38.50000000000001,-52.00000000000001,107.6,16
722,12119.0,3.5,1.9000000000000001,-1.6,4.2,3.6,8.0,13.5,-44.4,75.4,16
723,12135.0,2.7,1.7000000000000002,-0.9,3.6,3.4000000000000004,8.700000000000001,-2.7,-34.300000000000004,58.7,16
724,12155.0,1.4000000000000001,1.1,0.30000000000000004,2.4000000000000004,2.8000000000000003,9.9,-18.6,-10.299999999999999,34.400000000000006,16
725,12168.0,1.1,1.1,0.4,2.1,2.7,10.100000000000001,-15.100000000000001,-3.5,28.0,16
726,12189.0,0.4,0.7000000000000001,0.2,1.4000000000000001,2.3000000000000003,9.8,8.700000000000001,-5.1000000000000005,27.0,16
727,12203.0,0.6000000000000001,0.8,-1.1,1.7000000000000002,2.5,8.5,32.2,-17.400000000000002,28.0,16
728,12221.0,0.9,0.9,-1.7000000000000002,2.1,2.7,7.6000000000000005,40.7,-26.9,18.5,16
729,12236.0,0.9,1.0,-2.4000000000000004,2.1,2.8000000000000003,7.2,39.599999999999994,-26.5,10.299999999999999,16
730,12252.0,0.7000000000000001,0.8,-2.5,2.0,2.7,7.0,35.699999999999996,-21.1,1.5,16
731,12273.0,-0.6000000000000001,0.1,-2.3000000000000003,0.7000000000000001,2.1,7.2,22.3,6.9,-15.700000000000001,16
732,12286.0,-0.8,0.0,-2.3000000000000003,0.5,2.1,7.2,20.0,11.8,-17.400000000000002,16
733,12306.0,-1.1,0.0,-2.3000000000000003,0.0,2.1,7.300000000000001,16.900000000000002,8.700000000000001,-19.200000000000003,16
734,12320.0,-1.7000000000000002,-0.1,-1.5,-0.5,2.1,8.0,15.399999999999999,1.7,-19.5,16
735,12342.0,-2.0,-0.4,-0.7000000000000001,-0.8,1.9000000000000001,8.700000000000001,18.6,0.1,-15.6,16
736,12353.0,-2.1,-0.4,-0.6000000000000001,-0.9,1.9000000000000001,8.9,21.7,2.6,-11.1,16
737,12373.0,-1.7000000000000002,-0.4,-0.4,-0.6000000000000001,2.0,9.0,25.4,10.1,-2.9,16
738,12387.0,-1.7000000000000002,-0.4,-0.4,-0.5,2.1,9.0,26.799999999999997,14.800000000000002,2.2,16
739,12403.0,-1.2000000000000002,0.0,-0.1,-0.1,2.5,9.3,29.700000000000006,17.799999999999997,7.6,16
740,12419.0,-0.8,0.2,0.2,0.2,2.8000000000000003,9.600000000000001,29.700000000000006,13.000000000000002,7.1000000000000005,16
741,12435.0,-0.6000000000000001,0.30000000000000004,0.6000000000000001,0.4,3.0,10.0,27.6,13.3,5.500000000000001,16
742,12452.0,-0.8,0.6000000000000001,1.0,0.1,3.3000000000000003,10.4,25.200000000000003,27.2,-1.6,16
743,12468.0,-1.1,0.7000000000000001,0.9,-0.2,3.5,10.3,25.200000000000003,40.7,-5.0,16
744,12485.0,-1.7000000000000002,1.0,0.0,-1.0,3.9000000000000004,9.4,27.0,65.8,-6.8,16
745,12502.0,-1.7000000000000002,1.0,0.0,-1.5,4.5,8.1,27.0,65.8,-6.8,16
746,12520.0,-2.4000000000000004,2.0,-2.6,-2.1,4.9,6.9,-8.700000000000001,41.50000000000001,-15.700000000000001,16
747,12535.0,-1.9000000000000001,0.7000000000000001,-0.5,-1.7000000000000002,3.7,8.8,-44.5,7.6,-20.7,16
748,12554.0,-2.1,-2.3000000000000003,7.1000000000000005,-2.0,0.5,16.5,-102.5,-54.0,-33.7,16
749,12576.0,-2.0,-4.7,11.700000000000001,-1.7000000000000002,-2.2,21.200000000000003,-80.30000000000001,-50.60000000000001,-3.6000000000000005,16
750,12585.0,-1.7000000000000002,-4.7,11.700000000000001,-1.3,-2.4000000000000004,21.200000000000003,-47.5,-29.600000000000005,15.700000000000001,16
751,12602.0,-0.6000000000000001,-3.7,8.4,-0.1,-1.5,17.900000000000002,24.900000000000002,5.300000000000001,48.6,16
752,12618.0,0.7000000000000001,-3.2,3.7,1.3,-0.8,13.200000000000001,48.9,17.1,61.9,16
753,12636.0,1.4000000000000001,-3.1,1.9000000000000001,2.0,-0.7000000000000001,11.4,41.50000000000001,18.0,61.7,16
754,12654.0,1.4000000000000001,-3.1,1.7000000000000002,2.0,-0.6000000000000001,11.200000000000001,15.6,11.5,54.199999999999996,16
755,12671.0,1.4000000000000001,-3.1,1.7000000000000002,1.7000000000000002,-0.7000000000000001,11.4,7.1000000000000005,8.8,50.1,16
756,12688.0,0.5,-3.5,2.1,1.0,-0.9,11.5,9.4,16.3,50.900000000000006,16
757,12703.0,0.2,-3.5,1.2000000000000002,0.6000000000000001,-0.8,10.0,25.900000000000002,30.000000000000004,63.500000000000014,16
758,12718.0,0.4,-2.9000000000000004,-1.2000000000000002,0.8,-0.30000000000000004,8.200000000000001,38.400000000000006,31.099999999999998,78.0,16
759,12735.0,0.7000000000000001,-2.5,-2.3000000000000003,1.1,0.2,7.1000000000000005,41.199999999999996,27.099999999999998,82.2,16
760,12752.0,1.1,-2.1,-3.1,1.5,0.7000000000000001,6.300000000000001,42.800000000000004,18.700000000000003,84.6,16
761,12771.0,1.0,-1.6,-3.7,1.5,1.3,5.7,42.0,10.8,79.6,16
762,12787.0,0.9,-1.6,-3.8000000000000003,1.4000000000000001,1.5,5.5,40.800000000000004,8.8,76.3,16
763,12802.0,0.5,-1.3,-3.9000000000000004,1.1,1.8,5.300000000000001,38.0,7.6,71.9,16
764,12818.0,0.6000000000000001,-1.3,-3.8000000000000003,1.3,2.0,5.4,35.1,4.0,69.00000000000001,16
765,12835.0,1.1,-0.9,-3.6,1.8,2.4000000000000004,5.6000000000000005,34.900000000000006,-0.5,67.3,16
766,12853.0,1.2000000000000002,-0.7000000000000001,-3.6,2.4000000000000004,3.0,5.5,36.300000000000004,-12.5,56.800000000000004,16
767,12869.0,1.6,0.0,-3.4000000000000004,2.5,3.5,5.7,28.700000000000003,-20.900000000000002,33.1,16
768,12885.0,1.4000000000000001,0.0,-3.1,2.3000000000000003,3.5,6.0,20.5,-20.3,18.200000000000003,16
769,12902.0,0.4,-0.4,-2.0,1.4000000000000001,3.2,7.1000000000000005,3.7000000000000006,-4.800000000000001,-9.2,16
770,12919.0,-0.30000000000000004,-0.5,-1.2000000000000002,0.6000000000000001,3.1,7.800000000000001,-6.699999999999999,16.5,-24.5,16
771,12936.0,-0.7000000000000001,-0.30000000000000004,-1.1,0.2,3.2,7.9,-9.4,21.8,-29.200000000000003,16
772,12952.0,-0.9,-0.2,-0.6000000000000001,-0.1,3.4000000000000004,8.5,-17.6,18.4,-36.1,16
773,12968.0,-0.8,-0.2,-0.30000000000000004,-0.1,3.4000000000000004,8.9,-23.2,11.6,-39.2,16
774,12990.0,-0.7000000000000001,-0.30000000000000004,2.1,0.0,3.1,11.3,-31.6,-1.7,-45.5,16
775,13004.0,-0.6000000000000001,-0.4,2.5,0.1,3.0,11.600000000000001,-28.600000000000005,-0.30000000000000004,-44.10000000000001,16
776,13020.0,0.0,0.1,2.0,0.6000000000000001,3.4000000000000004,11.200000000000001,-22.000000000000004,3.0,-37.400000000000006,16
777,13039.0,1.3,0.7000000000000001,1.9000000000000001,1.8,3.9000000000000004,11.200000000000001,-34.900000000000006,-8.3,-39.1,16
778,13052.0,1.7000000000000002,0.8,3.1,2.2,4.0,12.3,-49.4,-18.3,-47.400000000000006,16
779,13077.0,1.4000000000000001,-1.3,5.800000000000001,1.9000000000000001,1.7000000000000002,15.100000000000001,-77.00000000000001,-19.9,-69.00000000000001,16
780,13086.0,0.8,-1.9000000000000001,6.7,1.3,1.0,16.1,-82.2,-8.100000000000001,-73.8,16
781,13102.0,-1.1,-3.3000000000000003,7.5,-0.7000000000000001,-0.7000000000000001,16.900000000000002,-55.60000000000001,25.8,-49.4,16
782,13120.0,-1.2000000000000002,-3.3000000000000003,6.6000000000000005,-0.2,-0.6000000000000001,14.9,-8.5,23.900000000000006,6.1000000000000005,16
783,13136.0,0.7000000000000001,-2.6,4.1000000000000005,0.9,-0.2,13.600000000000001,11.8,3.6000000000000005,28.900000000000002,16
784,13154.0,2.4000000000000004,-1.5,2.2,2.8000000000000003,1.0,11.700000000000001,41.800000000000004,-47.400000000000006,51.800000000000004,16
785,13169.0,2.9000000000000004,-1.2000000000000002,1.6,3.4000000000000004,1.4000000000000001,11.0,49.1,-64.80000000000001,52.60000000000001,16
786,13188.0,3.3000000000000003,-0.7000000000000001,0.5,4.1000000000000005,2.3000000000000003,9.5,46.300000000000004,-69.20000000000002,34.800000000000004,16
787,13202.0,2.8000000000000003,-0.5,-0.9,3.8000000000000003,2.4000000000000004,8.4,26.6,-40.5,6.1000000000000005,16
788,13219.0,1.4000000000000001,-0.7000000000000001,-1.3,2.5,2.2,8.0,3.2,-6.600000000000001,-17.799999999999997,16
789,13235.0,0.7000000000000001,-0.9,-1.2000000000000002,1.8,2.1,8.1,-3.2,2.0,-25.0,16
790,13255.0,-0.4,-1.2000000000000002,-1.2000000000000002,0.6000000000000001,1.8,8.1,-2.8,4.4,-29.300000000000004,16
791,13271.0,-1.0,-1.4000000000000001,-1.7000000000000002,0.0,1.6,7.6000000000000005,8.5,-5.9,-27.400000000000002,16
792,13285.0,-1.1,-1.5,-1.9000000000000001,-0.1,1.5,7.4,16.1,-12.200000000000001,-23.900000000000006,16
793,13303.0,-0.8,-1.4000000000000001,-2.7,0.30000000000000004,1.6,6.5,27.700000000000003,-21.0,-16.8,16
794,13324.0,-0.30000000000000004,-1.4000000000000001,-3.4000000000000004,0.7000000000000001,1.8,5.800000000000001,31.7,-21.500000000000004,-17.300000000000004,16
795,13336.0,-0.4,-1.3,-3.7,0.7000000000000001,1.9000000000000001,5.5,29.900000000000006,-18.200000000000003,-20.8,16
796,13352.0,-0.5,-1.4000000000000001,-3.9000000000000004,0.6000000000000001,1.9000000000000001,5.2,21.0,-8.100000000000001,-29.1,16
797,13368.0,-1.0,-1.5,-3.7,0.1,1.9000000000000001,5.5,9.0,0.7,-35.599999999999994,16
798,13385.0,-1.1,-1.6,-3.5,0.0,1.8,5.6000000000000005,3.8,2.9,-36.2,16
799,13402.0,-1.0,-1.5,-3.1,0.0,2.0,6.5,-7.6,-0.4,-36.300000000000004,16
800,13418.0,-1.0,-1.4000000000000001,-1.7000000000000002,-0.1,2.0,7.800000000000001,-15.100000000000001,-1.6,-38.0,16
801,13436.0,-1.2000000000000002,-1.6,-0.6000000000000001,-0.30000000000000004,1.8,8.5,-16.700000000000003,2.7,-38.2,16
802,13466.0,-1.4000000000000001,-1.5,0.0,-0.6000000000000001,2.0,9.1,-12.299999999999999,31.400000000000002,-29.0,16
803,13468.0,-1.4000000000000001,-1.1,-0.30000000000000004,-0.6000000000000001,2.2,8.9,-8.0,34.900000000000006,-24.200000000000003,16
804,13485.0,-1.3,-0.9,-0.6000000000000001,-0.6000000000000001,2.4000000000000004,8.6,-5.500000000000001,33.0,-19.5,16
805,13502.0,-1.0,-0.4,-0.6000000000000001,-0.4,2.9000000000000004,8.700000000000001,-10.600000000000001,19.300000000000004,-11.6,16
806,13519.0,-0.4,-0.1,0.7000000000000001,0.1,3.1,9.9,-23.5,10.8,-8.0,16
807,13535.0,-0.4,-0.1,0.6000000000000001,0.30000000000000004,3.2,11.0,-28.400000000000002,11.8,-7.200000000000001,16
808,13552.0,-0.1,0.1,2.7,0.30000000000000004,3.3000000000000003,12.0,-26.000000000000004,23.3,-3.1,16
809,13568.0,-0.1,0.2,2.7,0.4,3.5,11.700000000000001,-20.0,30.4,1.1,16
810,13586.0,0.2,1.4000000000000001,1.2000000000000002,0.5,4.4,10.5,-19.700000000000003,21.0,4.800000000000001,16
811,13605.0,0.9,0.9,2.8000000000000003,1.1,3.8000000000000003,12.200000000000001,-41.50000000000001,-11.5,-1.2000000000000002,16
812,13619.0,1.1,0.1,4.1000000000000005,1.4000000000000001,2.9000000000000004,13.5,-47.60000000000001,-21.0,-3.8,16
813,13635.0,1.0,-1.5,6.5,1.3,1.2000000000000002,16.0,-44.5,-23.0,-2.3,16
814,13654.0,1.1,-1.7000000000000002,6.800000000000001,1.6,0.9,16.2,-12.200000000000001,-9.8,12.7,16
815,13669.0,1.1,-1.7000000000000002,6.800000000000001,1.8,1.0,15.5,7.200000000000001,-6.2,19.200000000000003,16
816,13687.0,2.2,-1.2000000000000002,3.8000000000000003,2.7,1.4000000000000001,13.3,29.0,-15.399999999999999,21.400000000000002,16
817,13702.0,2.4000000000000004,-0.9,2.8000000000000003,3.0,1.8,12.200000000000001,35.3,-29.1,13.5,16
818,13719.0,2.0,-1.1,1.6,2.7,1.7000000000000002,11.0,39.2,-33.400000000000006,-0.8,16
819,13735.0,1.9000000000000001,-1.2000000000000002,1.6,2.5,1.7000000000000002,10.200000000000001,37.2,-27.2,-6.9,16
820,13753.0,1.3,-1.3,-0.5,2.1,1.7000000000000002,8.8,28.0,-11.3,-18.3,16
821,13769.0,1.0,-1.4000000000000001,-0.8,1.9000000000000001,1.7000000000000002,8.4,21.1,-3.8,-24.5,16
822,13785.0,0.4,-1.7000000000000002,-1.2000000000000002,1.2000000000000002,1.5,8.1,4.2,6.699999999999999,-35.699999999999996,16
823,13802.0,-0.1,-1.8,-1.0,0.4,1.2000000000000002,8.3,-7.200000000000001,11.8,-41.6,16
824,13819.0,-0.9,-2.2,-0.7000000000000001,-0.2,0.9,8.5,-7.200000000000001,8.8,-37.0,16
825,13835.0,-1.1,-2.3000000000000003,-0.6000000000000001,-0.4,0.7000000000000001,8.700000000000001,-4.2,4.800000000000001,-30.5,16
826,13852.0,-0.8,-2.2,-0.5,-0.2,0.9,8.8,10.8,-6.8,-13.3,16
827,13869.0,-0.5,-1.9000000000000001,-0.8,0.1,1.1,8.5,21.6,-15.2,-5.300000000000001,16
828,13885.0,0.1,-1.6,-1.6,0.8,1.5,7.7,38.50000000000001,-30.799999999999997,1.1,16
829,13902.0,0.5,-1.6,-2.1,1.4000000000000001,1.9000000000000001,6.800000000000001,43.50000000000001,-30.3,-0.8,16
830,13919.0,0.8,-1.3,-2.8000000000000003,1.6,2.2,6.300000000000001,38.800000000000004,-22.1,-10.5,16
831,13935.0,0.6000000000000001,-1.2000000000000002,-2.8000000000000003,1.5,2.2,6.300000000000001,34.2,-18.1,-17.200000000000003,16
832,13952.0,0.4,-1.2000000000000002,-2.4000000000000004,1.3,2.4000000000000004,6.7,23.5,-10.5,-29.500000000000004,16
833,13969.0,0.4,-1.3,-2.4000000000000004,1.2000000000000002,2.4000000000000004,6.800000000000001,20.3,-5.4,-35.5,16
834,13985.0,-0.4,-1.2000000000000002,-2.0,0.5,2.5,7.0,13.000000000000002,0.30000000000000004,-48.50000000000001,16
835,14003.0,-1.1,-1.6,-1.0,-0.30000000000000004,2.2,8.1,6.1000000000000005,2.7,-53.8,16
836,14019.0,-1.2000000000000002,-1.6,-0.5,-0.5,2.3000000000000003,8.700000000000001,7.500000000000001,0.8,-50.0,16
837,14039.0,-0.8,-1.3,0.0,-0.1,2.5,9.0,9.700000000000001,-9.0,-46.800000000000004,16
838,14060.0,-0.4,-1.0,0.2,0.30000000000000004,2.8000000000000003,9.200000000000001,1.0,-15.899999999999999,-50.0,16
839,14068.0,-0.30000000000000004,-1.0,0.2,0.4,2.9000000000000004,9.4,1.0,-15.899999999999999,-50.0,16
840,14085.0,0.1,-1.0,1.1,0.7000000000000001,2.9000000000000004,10.100000000000001,-11.900000000000002,-8.100000000000001,-57.800000000000004,16
841,14103.0,-0.1,-0.8,1.3,0.4,3.1,10.3,-21.300000000000004,4.0,-63.0,16
842,14119.0,-0.30000000000000004,-0.4,1.1,0.2,3.6,10.0,-33.2,9.3,-65.2,16
843,14136.0,0.0,0.1,0.8,0.4,3.8000000000000003,9.9,-42.800000000000004,10.5,-67.60000000000001,16
844,14153.0,0.2,0.2,0.9,0.5,3.6,11.100000000000001,-65.4,6.9,-75.3,16
845,14175.0,-0.6000000000000001,-1.7000000000000002,5.2,-0.4,1.6,14.4,-97.10000000000001,-7.300000000000001,-89.4,16
846,14190.0,-1.6,-2.9000000000000004,7.6000000000000005,-1.5,0.0,16.900000000000002,-100.4,-8.100000000000001,-78.9,16
847,14202.0,-1.7000000000000002,-3.2,7.9,-1.6,-0.4,17.3,-83.5,-2.0,-58.3,16
848,14219.0,-0.2,-3.1,6.300000000000001,-0.2,-0.5,15.8,-30.1,1.2000000000000002,-2.7,16
849,14235.0,-0.2,-3.1,6.300000000000001,0.8,0.0,14.100000000000001,-5.300000000000001,-6.1000000000000005,18.6,16
850,14257.0,2.9000000000000004,-2.0,2.1,3.0,0.5,11.5,25.7,-27.5,49.0,16
851,14269.0,3.4000000000000004,-1.8,1.3,3.6,0.8,10.8,34.300000000000004,-36.6,56.0,16
852,14286.0,4.0,-1.4000000000000001,0.30000000000000004,4.6000000000000005,1.4000000000000001,9.3,44.5,-48.50000000000001,53.8,16
853,14303.0,4.4,-1.1,-1.4000000000000001,5.0,1.9000000000000001,7.6000000000000005,45.5,-49.300000000000004,34.900000000000006,16
854,14318.0,4.2,-1.0,-2.5,4.7,2.1,6.5,29.300000000000004,-35.0,7.1000000000000005,16
855,14335.0,3.7,-0.9,-3.0,4.4,2.1,6.300000000000001,16.3,-24.400000000000002,-6.8,16
856,14352.0,2.9000000000000004,-1.1,-2.3000000000000003,3.7,1.9000000000000001,7.0,-6.500000000000001,-0.30000000000000004,-33.1,16
857,14372.0,1.6,-1.5,-1.8,2.4000000000000004,1.6,7.5,-8.100000000000001,12.600000000000001,-53.400000000000006,16
858,14388.0,1.7000000000000002,-1.5,-1.8,2.0,1.4000000000000001,7.4,-2.2,14.100000000000001,-58.60000000000001,16
859,14406.0,0.8,-1.6,-2.5,1.3,1.5,6.6000000000000005,8.8,11.4,-59.80000000000001,16
860,14418.0,0.7000000000000001,-1.4000000000000001,-3.2,1.2000000000000002,1.7000000000000002,6.1000000000000005,10.9,4.800000000000001,-58.3,16
861,14435.0,0.9,-1.1,-3.3000000000000003,1.4000000000000001,2.0,5.9,9.100000000000001,2.7,-58.900000000000006,16
862,14453.0,1.2000000000000002,-1.1,-3.3000000000000003,1.7000000000000002,2.0,6.0,2.6,4.5,-64.0,16
863,14473.0,1.2000000000000002,-1.2000000000000002,-3.1,1.5,1.9000000000000001,6.2,-6.2,7.400000000000001,-72.30000000000001,16
864,14485.0,1.2000000000000002,-1.2000000000000002,-3.1,1.4000000000000001,1.8,6.4,-11.4,8.5,-74.80000000000001,16
865,14506.0,1.0,-1.2000000000000002,-2.6,1.1,1.9000000000000001,7.0,-21.200000000000003,7.1000000000000005,-76.1,16
866,14519.0,0.8,-1.2000000000000002,-1.6,1.0,1.9000000000000001,7.800000000000001,-26.6,7.200000000000001,-74.0,16
867,14540.0,0.4,-1.0,-1.0,0.4,2.0,8.4,-24.599999999999998,14.300000000000002,-69.00000000000001,16
868,14552.0,0.2,-0.7000000000000001,-1.2000000000000002,0.1,2.2,8.200000000000001,-23.2,16.4,-65.10000000000001,16
869,14579.0,0.0,0.1,-1.2000000000000002,-0.2,2.9000000000000004,8.200000000000001,-27.9,10.5,-55.7,16
870,14585.0,0.0,0.1,-1.2000000000000002,-0.2,2.9000000000000004,8.200000000000001,-27.9,10.5,-55.7,16
871,14605.0,-0.2,0.6000000000000001,-0.1,-0.5,3.3000000000000003,9.4,-36.8,5.300000000000001,-49.1,16
872,14622.0,-0.4,0.8,1.0,-0.8,3.4000000000000004,11.100000000000001,-39.400000000000006,4.7,-38.900000000000006,16
873,14635.0,-0.2,1.1,2.5,-0.6000000000000001,3.5,12.0,-35.699999999999996,7.6,-31.099999999999998,16
874,14652.0,-0.2,1.1,2.5,-0.4,3.6,12.3,-29.500000000000004,10.600000000000001,-22.700000000000003,16
875,14669.0,2.2,2.6,3.3000000000000003,1.7000000000000002,4.9,12.8,-9.100000000000001,13.700000000000001,-12.7,16
876,14685.0,2.3000000000000003,2.6,3.3000000000000003,2.0,4.9,12.8,-2.5,14.300000000000002,-16.5,16
877,14705.0,2.6,2.7,2.7,2.0,5.0,12.3,3.8,15.5,-21.400000000000002,16
878,14718.0,2.0,2.7,2.0,1.3,5.0,11.5,-14.700000000000001,18.700000000000003,-41.4,16
879,14735.0,2.1,0.6000000000000001,4.3,1.3,2.9000000000000004,13.8,-33.50000000000001,15.700000000000001,-52.00000000000001,16
880,14753.0,0.8,-1.9000000000000001,7.7,-0.1,0.2,17.2,-43.4,20.0,-61.9,16
881,14772.0,0.2,-2.9000000000000004,7.7,-0.8,-0.9,17.2,-5.4,23.400000000000002,-40.4,16
882,14785.0,0.2,-3.0,6.6000000000000005,-0.8,-1.1,16.2,20.599999999999998,22.5,-21.500000000000004,16
883,14803.0,0.8,-3.0,4.800000000000001,0.30000000000000004,-0.6000000000000001,12.9,57.800000000000004,3.5,12.5,16
884,14819.0,2.4000000000000004,-2.1,1.9000000000000001,1.3,0.0,11.4,66.0,-14.600000000000001,23.099999999999998,16
885,14835.0,4.0,-1.8,1.2000000000000002,3.0,0.6000000000000001,10.600000000000001,65.2,-55.5,25.300000000000004,16
886,14852.0,4.1000000000000005,-1.9000000000000001,1.2000000000000002,3.2,0.6000000000000001,10.600000000000001,59.80000000000001,-67.7,17.400000000000002,16
887,14873.0,3.7,-2.1,1.3,3.2,0.7000000000000001,10.700000000000001,37.9,-46.6,-18.900000000000002,16
888,14885.0,3.3000000000000003,-2.2,1.2000000000000002,2.9000000000000004,0.6000000000000001,10.600000000000001,29.600000000000005,-29.0,-30.200000000000003,16
889,14904.0,2.4000000000000004,-2.4000000000000004,1.0,2.0,0.5,10.4,22.2,-3.7000000000000006,-45.400000000000006,16
890,14919.0,2.0,-2.5,0.7000000000000001,1.2000000000000002,0.4,9.4,33.50000000000001,2.3,-51.300000000000004,16
891,14935.0,1.3,-2.5,-1.0,0.8,0.5,8.3,41.7,0.9000000000000001,-51.4,16
892,14952.0,1.0,-2.2,-3.1,0.5,0.9,6.1000000000000005,51.300000000000004,-3.8,-49.1,16
893,14981.0,0.9,-2.1,-4.4,0.1,1.4000000000000001,4.7,35.3,-2.6,-53.50000000000001,16
894,14985.0,0.9,-2.1,-4.4,0.1,1.4000000000000001,4.7,35.3,-2.6,-53.50000000000001,16
895,15003.0,0.30000000000000004,-1.9000000000000001,-4.3,-0.4,1.6,4.9,13.399999999999999,0.5,-58.0,16
896,15018.0,0.1,-2.0,-3.5,-1.0,1.3,6.300000000000001,1.6,2.6,-58.2,16
897,15035.0,-0.5,-2.3000000000000003,-2.3000000000000003,-1.3,1.1,6.9,3.2,4.0,-54.699999999999996,16
898,15055.0,-0.7000000000000001,-2.3000000000000003,-2.3000000000000003,-1.6,1.2000000000000002,6.800000000000001,11.1,3.4,-45.2,16
899,15074.0,0.0,-1.7000000000000002,-2.7,-1.0,1.8,6.4,17.799999999999997,-3.9,-30.799999999999997,16
900,15085.0,0.2,-1.6,-2.7,-0.7000000000000001,2.0,6.4,17.200000000000003,-9.3,-26.300000000000004,16
901,15109.0,1.5,-1.0,-2.3000000000000003,0.6000000000000001,2.6,6.800000000000001,5.0,-20.3,-28.200000000000003,16
902,15119.0,1.7000000000000002,-1.0,-1.9000000000000001,0.8,2.6,7.2,-1.7,-19.200000000000003,-32.5,16
903,15136.0,1.9000000000000001,-1.1,-1.2000000000000002,1.0,2.5,7.800000000000001,-7.400000000000001,-14.400000000000002,-37.400000000000006,16
904,15152.0,1.9000000000000001,-0.9,-0.9,1.0,2.6,8.200000000000001,-9.600000000000001,1.0,-45.3,16
905,15174.0,1.9000000000000001,-0.4,-1.4000000000000001,0.9,3.1,7.800000000000001,-12.600000000000001,15.700000000000001,-53.2,16
906,15186.0,1.9000000000000001,-0.30000000000000004,-1.4000000000000001,0.8,3.2,7.7,-18.900000000000002,21.6,-59.00000000000001,16
907,15203.0,1.4000000000000001,-0.2,-1.2000000000000002,0.2,3.2,8.0,-34.300000000000004,31.2,-69.5,16
908,15218.0,0.7000000000000001,0.2,-0.8,-0.7000000000000001,3.4000000000000004,8.4,-44.5,32.400000000000006,-70.9,16
909,15236.0,0.4,0.4,-0.5,-1.0,3.5,8.700000000000001,-48.10000000000001,27.400000000000002,-67.4,16
910,15252.0,0.30000000000000004,0.9,0.4,-1.3,3.9000000000000004,9.600000000000001,-52.900000000000006,10.0,-53.9,16
911,15270.0,0.9,1.7000000000000002,1.1,-0.8,4.4,10.4,-53.9,-0.5,-45.6,16
912,15285.0,0.9,1.8,1.1,-0.2,4.5,10.9,-58.5,-21.0,-31.2,16
913,15302.0,2.7,2.3000000000000003,2.8000000000000003,1.5,4.9,12.8,-66.3,-41.800000000000004,-26.200000000000003,16
914,15320.0,4.1000000000000005,2.7,5.4,2.6,4.9,14.8,-68.0,-57.1,-34.0,16
915,15335.0,4.1000000000000005,2.5,6.4,2.7,4.6000000000000005,15.9,-68.60000000000001,-54.699999999999996,-40.4,16
916,15352.0,3.1,1.6,7.5,1.9000000000000001,3.4000000000000004,17.1,-65.0,-32.5,-54.1,16
917,15368.0,2.5,0.7000000000000001,7.7,1.2000000000000002,2.4000000000000004,17.2,-57.699999999999996,-17.9,-56.6,16
918,15385.0,1.3,-0.6000000000000001,6.9,0.0,0.9,16.5,-35.1,-5.300000000000001,-46.0,16
919,15403.0,1.2000000000000002,-1.3,6.300000000000001,0.1,0.0,15.5,-3.5,-27.700000000000003,-22.000000000000004,16
920,15419.0,2.4000000000000004,-1.6,4.6000000000000005,1.3,-0.2,14.3,35.3,-62.50000000000001,-2.7,16
921,15435.0,3.0,-1.5,2.9000000000000004,2.0,0.0,12.600000000000001,53.7,-73.10000000000001,1.4,16
922,15451.0,3.6,-1.3,0.1,2.9000000000000004,0.30000000000000004,9.700000000000001,73.7,-75.2,-1.8000000000000003,16
923,15471.0,3.6,-1.2000000000000002,-1.9000000000000001,3.1,0.7000000000000001,7.7,69.4,-56.400000000000006,-20.7,16
924,15493.0,3.0,-1.1,-3.5,2.7,1.0,6.1000000000000005,52.5,-41.0,-40.6,16
925,15505.0,3.0,-1.1,-3.5,2.3000000000000003,1.1,5.9,37.400000000000006,-34.1,-54.300000000000004,16
926,15525.0,1.2000000000000002,-1.6,-2.5,1.0,0.7000000000000001,7.0,8.3,-33.0,-78.5,16
927,15542.0,0.2,-2.2,-1.0,0.0,0.1,8.5,-0.1,-36.0,-88.50000000000001,16
928,15551.0,-0.30000000000000004,-2.4000000000000004,-0.7000000000000001,-0.5,-0.1,8.8,3.8,-36.5,-88.60000000000001,16
929,15569.0,-0.4,-2.4000000000000004,-0.7000000000000001,-0.7000000000000001,-0.1,8.8,9.2,-34.50000000000001,-85.9,16
930,15587.0,-0.7000000000000001,-2.4000000000000004,-1.0,-0.7000000000000001,0.0,8.200000000000001,18.4,-21.6,-75.60000000000001,16
931,15602.0,-0.30000000000000004,-1.8,-2.3000000000000003,-0.4,0.6000000000000001,7.2,21.200000000000003,-5.8,-67.8,16
932,15624.0,-0.2,-1.8,-2.8000000000000003,-0.4,0.8,6.4,20.599999999999998,-2.0,-67.00000000000001,16
933,15636.0,-0.30000000000000004,-1.5,-3.5,-0.5,1.0,5.9,17.200000000000003,1.7,-64.7,16
934,15652.0,-0.30000000000000004,-1.0,-3.8000000000000003,-0.5,1.6,5.6000000000000005,10.4,-0.5,-59.00000000000001,16
935,15668.0,-0.2,-1.0,-3.7,-0.5,1.6,5.7,5.2,-3.2,-57.00000000000001,16
936,15690.0,-0.1,-1.0,-3.2,-0.30000000000000004,1.7000000000000002,6.6000000000000005,-5.0,-4.1,-52.900000000000006,16
937,15702.0,0.1,-0.7000000000000001,-2.2,-0.2,1.8,7.2,-9.0,-2.8,-48.70000000000001,16
938,15718.0,0.1,-0.5,-2.1,-0.30000000000000004,2.2,7.300000000000001,-6.1000000000000005,-3.3000000000000007,-41.6,16
939,15736.0,0.2,0.0,-2.4000000000000004,-0.2,2.6,7.1000000000000005,-5.6,-4.5,-37.50000000000001,16
940,15751.0,0.4,0.8,-2.6,0.1,3.3000000000000003,6.800000000000001,-11.8,-5.7,-32.9,16
941,15768.0,0.4,0.8,-2.6,0.1,3.5,6.9,-19.0,-4.7,-33.300000000000004,16
942,15785.0,0.2,1.5,-1.7000000000000002,-0.2,3.9000000000000004,7.800000000000001,-37.50000000000001,1.5,-36.5,16
943,15802.0,-0.1,1.5,0.1,-0.5,3.8000000000000003,9.600000000000001,-46.300000000000004,7.8,-36.1,16
944,15818.0,-0.4,1.6,1.4000000000000001,-0.9,3.6,10.9,-40.4,7.6,-27.0,16
945,15838.0,-0.30000000000000004,1.7000000000000002,1.8,-0.7000000000000001,3.9000000000000004,11.700000000000001,-32.7,6.8,-9.2,16
946,15852.0,0.4,2.2,2.5,-0.2,4.1000000000000005,12.100000000000001,-29.400000000000002,7.8,-0.8,16
947,15868.0,0.7000000000000001,2.5,2.7,0.1,4.4,12.3,-27.099999999999998,9.2,4.5,16
948,15894.0,2.0,3.1,3.2,1.4000000000000001,4.800000000000001,12.8,-19.200000000000003,8.4,0.0,16
949,15902.0,2.0,3.2,2.9000000000000004,1.4000000000000001,4.9,12.600000000000001,-16.0,11.5,-6.600000000000001,16
950,15920.0,1.7000000000000002,3.6,2.4000000000000004,0.9,4.9,12.200000000000001,-28.700000000000003,7.300000000000001,-24.1,16
951,15935.0,1.4000000000000001,2.5,3.8000000000000003,0.7000000000000001,4.1000000000000005,13.5,-35.5,4.800000000000001,-28.600000000000005,16
952,15951.0,0.4,0.5,6.800000000000001,-0.30000000000000004,1.9000000000000001,16.5,-52.00000000000001,5.9,-41.0,16
953,15968.0,0.4,0.5,6.800000000000001,-0.8,1.3,16.900000000000002,-45.3,13.5,-41.1,16
954,15989.0,-1.0,-0.5,6.800000000000001,-2.1,0.7000000000000001,15.8,-8.5,35.1,-20.900000000000002,16
955,16003.0,-1.2000000000000002,-0.6000000000000001,4.2,-2.0,0.8,13.0,26.000000000000004,35.5,13.3,16
956,16022.0,0.0,-0.1,1.4000000000000001,-1.0,1.2000000000000002,11.100000000000001,42.800000000000004,1.2000000000000002,40.2,16
957,16035.0,0.7000000000000001,0.0,0.9,-0.30000000000000004,1.4000000000000001,10.600000000000001,47.80000000000001,-22.9,48.10000000000001,16
958,16053.0,1.7000000000000002,0.1,0.4,0.9,1.7000000000000002,10.0,53.300000000000004,-52.2,53.50000000000001,16
959,16070.0,1.6,0.0,0.4,1.0,1.9000000000000001,9.700000000000001,52.900000000000006,-54.300000000000004,49.800000000000004,16
960,16085.0,1.8,0.30000000000000004,-0.4,1.1,2.1,9.1,48.300000000000004,-49.1,42.60000000000001,16
961,16101.0,1.6,0.2,-0.5,0.4,2.0,9.3,27.3,-24.3,23.099999999999998,16
962,16118.0,-0.5,-0.4,0.1,-0.9,1.6,9.700000000000001,10.5,8.8,4.5,16
963,16135.0,-0.9,-0.6000000000000001,0.0,-1.4000000000000001,1.4000000000000001,9.600000000000001,12.8,11.1,4.1,16
964,16152.0,-1.1,-0.7000000000000001,-0.4,-1.6,1.4000000000000001,9.200000000000001,24.900000000000002,5.0,10.4,16
965,16168.0,-1.1,-0.7000000000000001,-0.30000000000000004,-1.6,1.4000000000000001,8.9,33.0,-0.9000000000000001,15.100000000000001,16
966,16185.0,-0.8,-0.6000000000000001,-1.4000000000000001,-1.2000000000000002,1.6,8.200000000000001,43.6,-10.4,24.8,16
967,16202.0,-0.5,-0.7000000000000001,-1.9000000000000001,-0.9,1.7000000000000002,7.6000000000000005,46.50000000000001,-10.200000000000001,30.599999999999998,16
968,16218.0,-0.4,-1.0,-2.0,-0.8,1.6,7.5,48.9,-1.2000000000000002,35.3,16
969,16240.0,-0.4,-1.2000000000000002,-2.7,-0.7000000000000001,1.6,6.7,55.3,8.2,39.599999999999994,16
970,16252.0,-0.4,-1.2000000000000002,-3.2,-0.7000000000000001,1.6,6.2,57.49999999999999,9.899999999999999,40.7,16
971,16273.0,-0.1,-1.0,-3.7,-0.4,2.0,5.6000000000000005,58.3,5.2,39.300000000000004,16
972,16289.0,-0.1,-1.0,-3.8000000000000003,-0.4,2.1,5.5,55.900000000000006,0.2,35.5,16
973,16302.0,-0.2,-1.1,-3.5,-0.5,2.2,5.7,41.300000000000004,-7.0,25.6,16
974,16319.0,-0.2,-1.5,-2.6,-0.2,1.8,7.5,22.6,-6.699999999999999,18.3,16
975,16335.0,-0.1,-1.6,-1.6,0.0,1.5,8.5,19.5,-0.6000000000000001,15.8,16
976,16352.0,0.2,-2.1,-0.4,0.0,1.4000000000000001,8.8,22.5,19.0,11.1,16
977,16368.0,0.2,-2.1,-0.8,0.0,1.4000000000000001,8.4,21.900000000000002,28.900000000000002,8.600000000000001,16
978,16385.0,0.1,-1.9000000000000001,-1.3,-0.2,1.7000000000000002,7.800000000000001,13.000000000000002,38.0,4.0,16
979,16402.0,0.1,-1.8,-1.5,-0.30000000000000004,1.9000000000000001,7.6000000000000005,-3.4,38.60000000000001,-1.0,16
980,16419.0,0.1,-1.7000000000000002,-1.3,-0.30000000000000004,2.0,8.4,-26.400000000000006,29.500000000000004,-2.7,16
981,16435.0,0.5,-1.5,0.2,-0.1,2.1,9.3,-36.7,23.3,-1.7,16
982,16452.0,0.7000000000000001,-1.2000000000000002,1.5,0.1,2.2,10.700000000000001,-47.0,14.600000000000001,-0.9000000000000001,16
983,16468.0,0.8,-1.3,1.9000000000000001,0.1,2.1,11.100000000000001,-49.6,13.700000000000001,-0.5,16
984,16485.0,1.4000000000000001,-0.9,1.8,0.7000000000000001,2.3000000000000003,11.100000000000001,-51.800000000000004,13.900000000000002,4.0,16
985,16502.0,1.7000000000000002,-0.4,1.6,1.0,2.7,11.100000000000001,-64.4,-1.8000000000000003,-0.30000000000000004,16
986,16518.0,1.8,-0.5,3.5,1.1,2.4000000000000004,12.9,-81.0,-10.299999999999999,-7.1000000000000005,16
987,16535.0,0.9,-1.8,6.5,0.2,0.8,15.9,-112.0,-2.2,-22.1,16
988,16553.0,-0.4,-2.9000000000000004,8.9,-1.2000000000000002,-0.6000000000000001,18.400000000000002,-105.10000000000001,27.400000000000002,-5.8,16
989,16579.0,2.0,-2.2,6.800000000000001,1.1,-0.4,16.400000000000002,-18.6,20.400000000000002,64.0,16
990,16585.0,2.0,-2.2,6.800000000000001,1.1,-0.4,16.400000000000002,-18.6,20.400000000000002,64.0,16
991,16605.0,4.0,-0.8,2.9000000000000004,3.2,1.0,12.5,37.7,-19.0,87.00000000000001,16
992,16626.0,5.4,0.4,0.1,4.7,2.4000000000000004,9.700000000000001,51.6,-34.60000000000001,79.39999999999999,16
993,16635.0,5.300000000000001,0.30000000000000004,0.1,5.1000000000000005,3.1,8.200000000000001,46.300000000000004,-31.7,65.4,16
994,16651.0,5.2,1.1,-2.3000000000000003,4.7,3.4000000000000004,7.300000000000001,24.200000000000003,-11.700000000000001,27.400000000000002,16
995,16671.0,3.7,0.9,-2.5,3.2,3.2,7.0,0.8,11.4,-7.300000000000001,16
996,16685.0,2.9000000000000004,0.6000000000000001,-2.3000000000000003,2.4000000000000004,3.0,7.2,-6.9,18.3,-20.400000000000002,16
997,16702.0,1.4000000000000001,0.30000000000000004,-1.7000000000000002,0.8,2.6,7.800000000000001,-8.2,16.4,-31.400000000000002,16
998,16719.0,0.6000000000000001,0.0,-1.6,-0.1,2.3000000000000003,7.9,5.7,-0.8,-29.700000000000006,16
999,16735.0,0.6000000000000001,0.0,-1.6,-0.30000000000000004,2.2,7.7,13.000000000000002,-10.600000000000001,-26.000000000000004,16
1000,16752.0,0.6000000000000001,-0.1,-2.2,0.0,2.2,7.300000000000001,23.400000000000002,-20.8,-19.1,16
1001,16768.0,0.6000000000000001,-0.1,-2.2,0.2,2.3000000000000003,7.1000000000000005,25.4,-19.1,-18.0,16
1002,16785.0,1.0,-0.1,-3.0,0.4,2.3000000000000003,6.5,24.1,-9.600000000000001,-20.7,16
1003,16802.0,0.8,-0.2,-3.4000000000000004,0.30000000000000004,2.3000000000000003,6.0,17.400000000000002,-2.8,-26.9,16
1004,16818.0,0.7000000000000001,-0.4,-3.5,0.0,2.1,6.1000000000000005,11.000000000000002,-2.0,-30.799999999999997,16
1005,16836.0,0.4,-0.8,-2.9000000000000004,-0.2,1.8,6.5,7.500000000000001,-3.2,-32.300000000000004,16
1006,16852.0,0.5,-1.0,-2.4000000000000004,-0.1,1.5,7.0,5.2,-7.699999999999999,-28.900000000000002,16
1007,16868.0,0.5,-1.1,-2.4000000000000004,0.0,1.6,7.2,5.9,-10.8,-25.5,16
1008,16885.0,0.8,-0.9,-2.2,0.4,1.9000000000000001,7.300000000000001,6.300000000000001,-13.6,-21.300000000000004,16
1009,16902.0,1.1,-0.30000000000000004,-2.2,0.6000000000000001,2.3000000000000003,7.2,-2.2,-2.4000000000000004,-25.200000000000003,16
1010,16918.0,0.8,-0.1,-2.1,0.0,2.5,7.5,-10.0,6.500000000000001,-29.500000000000004,16
1011,16935.0,0.0,0.0,-1.3,-0.6000000000000001,2.6,8.200000000000001,-25.900000000000002,22.3,-35.699999999999996,16
1012,16954.0,-0.6000000000000001,0.2,-0.6000000000000001,-1.3,2.6,8.8,-32.5,26.700000000000003,-33.50000000000001,16
1013,16972.0,-0.7000000000000001,0.30000000000000004,-0.4,-1.5,2.7,9.0,-33.2,25.900000000000002,-29.0,16
1014,16985.0,-0.7000000000000001,0.30000000000000004,-0.4,-1.5,2.7,9.0,-33.2,25.900000000000002,-29.0,16
1015,17002.0,-0.2,1.0,1.8,-1.2000000000000002,3.1,11.3,-40.4,7.6,-5.2,16
1016,17018.0,0.2,1.3,3.4000000000000004,-0.8,3.3000000000000003,13.0,-34.1,-10.299999999999999,3.8,16
1017,17035.0,0.6000000000000001,1.2000000000000002,4.2,-0.4,3.2,13.8,-25.900000000000002,-12.600000000000001,7.8,16
1018,17052.0,1.1,1.8,3.8000000000000003,0.2,3.7,13.4,-3.6000000000000005,4.7,15.100000000000001,16
1019,17071.0,1.5,2.9000000000000004,1.4000000000000001,0.5,4.800000000000001,11.0,8.600000000000001,24.900000000000002,11.900000000000002,16
1020,17085.0,1.4000000000000001,3.4000000000000004,0.9,0.4,5.300000000000001,10.5,2.3,27.700000000000003,4.0,16
1021,17102.0,0.8,2.3000000000000003,2.3000000000000003,-0.30000000000000004,4.2,11.8,-29.0,22.2,-14.0,16
1022,17120.0,0.0,1.0,4.3,-1.5,2.3000000000000003,14.5,-35.699999999999996,18.8,-17.1,16
1023,17136.0,-1.3,0.1,5.6000000000000005,-2.5,1.8,15.200000000000001,-24.8,15.5,-10.700000000000001,16
1024,17152.0,-1.4000000000000001,-0.2,4.9,-2.7,1.4000000000000001,14.4,11.000000000000002,4.1,17.300000000000004,16
1025,17172.0,-0.4,-0.1,3.3000000000000003,-1.7000000000000002,1.7000000000000002,12.8,36.1,-16.900000000000002,43.300000000000004,16
1026,17185.0,0.0,0.0,2.9000000000000004,-1.2000000000000002,1.8,12.5,41.300000000000004,-28.1,50.0,16
1027,17203.0,0.8,-0.1,2.5,-0.30000000000000004,1.9000000000000001,12.100000000000001,43.6,-40.7,49.9,16
1028,17218.0,0.8,-0.30000000000000004,2.3000000000000003,-0.1,1.7000000000000002,11.600000000000001,44.5,-33.0,43.300000000000004,16
1029,17235.0,0.7000000000000001,-0.8,1.4000000000000001,-0.1,1.4000000000000001,10.9,44.6,-25.8,40.0,16
1030,17251.0,0.7000000000000001,-1.1,0.4,0.0,1.2000000000000002,9.9,42.800000000000004,-12.200000000000001,34.7,16
1031,17269.0,0.5,-1.3,-0.6000000000000001,-0.1,1.2000000000000002,8.9,40.300000000000004,-7.400000000000001,30.000000000000004,16
1032,17285.0,0.5,-1.5,-0.9,-0.1,1.1,8.6,38.50000000000001,-6.300000000000001,26.9,16
1033,17302.0,0.4,-1.8,-1.3,-0.2,0.9,7.9,35.2,-5.7,21.7,16
1034,17319.0,0.1,-2.1,-2.1,-0.4,0.7000000000000001,7.300000000000001,32.0,-2.8,17.799999999999997,16
1035,17336.0,-0.1,-2.3000000000000003,-2.3000000000000003,-0.6000000000000001,0.6000000000000001,7.0,30.4,0.0,17.0,16
1036,17352.0,-0.1,-2.6,-2.7,-0.7000000000000001,0.30000000000000004,6.7,29.700000000000006,7.0,18.3,16
1037,17372.0,0.0,-2.6,-3.3000000000000003,-0.5,0.5,6.0,29.1,13.100000000000001,22.700000000000003,16
1038,17390.0,0.1,-2.6,-3.4000000000000004,-0.4,0.5,5.9,26.9,13.5,22.9,16
1039,17402.0,0.30000000000000004,-2.5,-3.5,-0.2,0.8,5.7,22.3,15.2,21.900000000000002,16
1040,17418.0,0.4,-2.3000000000000003,-3.6,-0.1,1.0,5.5,19.1,18.3,18.900000000000002,16
1041,17437.0,0.5,-2.3000000000000003,-3.7,-0.1,1.3,5.2,17.7,20.900000000000002,17.0,16
1042,17451.0,0.5,-1.5,-4.0,-0.2,1.8,5.2,10.0,19.799999999999997,12.8,16
1043,17471.0,0.5,-1.2000000000000002,-3.0,-0.2,2.1,6.2,-1.3,14.200000000000001,7.0,16
1044,17485.0,0.5,-1.2000000000000002,-3.0,-0.2,2.3000000000000003,6.7,-4.7,14.0,4.6,16
1045,17503.0,0.4,-0.6000000000000001,-2.0,-0.4,2.7,7.2,-4.1,19.300000000000004,-0.7,16
1046,17522.0,0.30000000000000004,-0.4,-2.2,-0.7000000000000001,3.0,6.9,-3.9,27.6,-5.500000000000001,16
1047,17541.0,-0.2,0.0,-2.0,-1.1,3.4000000000000004,7.2,-14.800000000000002,31.6,-7.500000000000001,16
1048,17553.0,-0.1,0.4,-1.7000000000000002,-1.1,3.7,7.5,-20.2,26.700000000000003,-7.300000000000001,16
1049,17570.0,0.0,0.7000000000000001,-1.5,-1.0,3.9000000000000004,7.7,-25.300000000000004,16.6,-8.0,16
1050,17587.0,0.4,1.2000000000000002,-0.6000000000000001,-0.7000000000000001,4.4,8.6,-43.00000000000001,-4.6,-13.399999999999999,16
1051,17603.0,0.6000000000000001,1.3,1.2000000000000002,-0.5,4.3,10.5,-70.4,-7.9,-24.400000000000002,16
1052,17619.0,0.6000000000000001,1.1,3.6,-0.5,3.9000000000000004,13.0,-89.0,2.4000000000000004,-31.2,16
1053,17635.0,0.7000000000000001,0.9,4.9,-0.4,3.5,14.3,-90.0,0.1,-32.0,16
1054,17652.0,0.5,1.0,6.300000000000001,-0.6000000000000001,3.3000000000000003,15.8,-86.00000000000001,-23.400000000000002,-33.0,16
1055,17670.0,0.7000000000000001,1.1,7.300000000000001,-0.30000000000000004,3.1,16.8,-79.00000000000001,-31.9,-26.9,16
1056,17685.0,0.7000000000000001,1.2000000000000002,7.2,-0.30000000000000004,2.9000000000000004,17.1,-77.00000000000001,-19.0,-26.1,16
1057,17702.0,-0.4,0.30000000000000004,7.800000000000001,-1.4000000000000001,1.9000000000000001,17.5,-68.4,27.800000000000004,-20.400000000000002,16
1058,17718.0,-1.2000000000000002,-0.30000000000000004,7.300000000000001,-2.3000000000000003,1.2000000000000002,17.0,-63.2,36.400000000000006,-15.5,16
1059,17735.0,-1.4000000000000001,-0.7000000000000001,5.5,-2.5,0.6000000000000001,15.100000000000001,-28.900000000000002,39.0,17.799999999999997,16
1060,17752.0,0.5,-0.5,3.7,-0.8,0.7000000000000001,13.3,14.700000000000001,-9.4,62.300000000000004,16
1061,17770.0,2.1,-0.1,2.3000000000000003,1.0,1.3,11.9,53.400000000000006,-66.4,93.49999999999999,16
1062,17785.0,2.0,-0.2,2.3000000000000003,1.8,1.6,11.100000000000001,67.5,-82.60000000000001,99.39999999999999,16
1063,17802.0,3.4000000000000004,0.30000000000000004,0.5,3.3000000000000003,2.3000000000000003,9.5,77.9,-90.5,90.9,16
1064,17819.0,3.8000000000000003,0.5,-1.0,3.5,2.5,8.200000000000001,68.2,-71.30000000000001,61.39999999999999,16
1065,17835.0,3.2,0.2,-1.7000000000000002,3.1,2.3000000000000003,7.9,57.800000000000004,-56.50000000000001,44.10000000000001,16
1066,17853.0,2.0,-0.30000000000000004,-1.4000000000000001,2.0,2.0,8.1,36.5,-29.200000000000003,15.2,16
1067,17870.0,0.9,-0.9,-1.4000000000000001,1.1,1.5,8.1,31.099999999999998,-15.299999999999999,-2.0,16
1068,17886.0,0.5,-1.0,-1.6,0.6000000000000001,1.4000000000000001,7.9,34.60000000000001,-14.100000000000001,-6.2,16
1069,17902.0,-0.1,-1.3,-2.0,0.0,1.3,7.1000000000000005,43.300000000000004,-17.200000000000003,-8.100000000000001,16
1070,17918.0,-0.30000000000000004,-1.3,-2.9000000000000004,0.0,1.6,6.300000000000001,43.00000000000001,-16.1,-9.3,16
1071,17936.0,-0.30000000000000004,-1.0,-3.5,0.0,1.7000000000000002,5.9,39.9,-13.6,-12.8,16
1072,17952.0,-0.8,-1.3,-3.6,-0.5,1.6,5.7,27.9,-6.2,-23.3,16
1073,17968.0,-1.3,-1.6,-3.4000000000000004,-1.1,1.4000000000000001,5.9,13.000000000000002,2.6,-29.300000000000004,16
1074,17985.0,-1.3,-1.6,-3.4000000000000004,-1.3,1.3,6.1000000000000005,6.4,5.4,-28.400000000000002,16
1075,18002.0,-1.9000000000000001,-1.9000000000000001,-2.7,-1.7000000000000002,1.2000000000000002,6.6000000000000005,-1.0,5.1000000000000005,-20.2,16
1076,18018.0,-1.7000000000000002,-1.7000000000000002,-2.3000000000000003,-1.6,1.3,7.0,-5.8,-1.5,-9.3,16
1077,18035.0,-1.6,-1.5,-1.8,-1.4000000000000001,1.5,7.5,-8.2,-5.0,-3.7000000000000006,16
1078,18053.0,-1.3,-1.2000000000000002,-1.2000000000000002,-1.1,1.8,8.200000000000001,-11.8,-7.9,4.300000000000001,16
1079,18068.0,-1.3,-1.1,-1.0,-1.0,2.0,8.5,-13.6,-1.8000000000000003,11.5,16
1080,18085.0,-1.1,-0.8,-0.8,-0.9,2.2,8.5,-14.600000000000001,2.9,15.2,16
1081,18111.0,-0.9,0.0,-1.0,-0.6000000000000001,2.8000000000000003,8.3,-20.2,11.1,22.700000000000003,16
1082,18124.0,-0.7000000000000001,0.4,-0.8,-0.30000000000000004,3.4000000000000004,9.1,-32.0,9.700000000000001,27.099999999999998,16
1083,18137.0,-0.4,0.9,0.7000000000000001,-0.2,3.7,10.100000000000001,-35.0,6.8,27.2,16
1084,18152.0,-0.5,1.0,2.4000000000000004,-0.2,3.6,11.9,-29.800000000000004,3.5,29.200000000000003,16
1085,18168.0,-0.30000000000000004,1.3,2.9000000000000004,0.0,3.9000000000000004,12.3,-15.299999999999999,10.600000000000001,35.1,16
1086,18185.0,-0.1,1.6,2.6,0.1,4.1000000000000005,12.100000000000001,-5.500000000000001,15.700000000000001,38.7,16
1087,18202.0,0.1,2.2,1.6,0.30000000000000004,4.7,11.100000000000001,5.500000000000001,25.7,41.199999999999996,16
1088,18220.0,0.2,2.5,1.0,0.2,5.2,10.100000000000001,3.7000000000000006,34.7,37.400000000000006,16
1089,18235.0,-0.1,2.6,0.1,0.0,5.2,9.600000000000001,-0.6000000000000001,34.900000000000006,33.50000000000001,16
1090,18253.0,-0.2,1.6,1.6,-0.2,4.1000000000000005,11.100000000000001,-22.5,23.3,24.400000000000002,16
1091,18268.0,-0.5,0.6000000000000001,3.6,-0.5,3.0,13.200000000000001,-43.300000000000004,8.4,18.5,16
1092,18285.0,-0.9,-0.2,5.1000000000000005,-0.9,2.1,14.600000000000001,-45.5,3.0,18.3,16
1093,18301.0,-1.6,-1.3,6.9,-1.6,0.9,16.5,-26.200000000000003,9.100000000000001,35.699999999999996,16
1094,18318.0,-0.9,-1.6,5.5,-0.9,0.6000000000000001,15.100000000000001,19.799999999999997,18.5,67.9,16
1095,18335.0,-0.1,-1.0,3.5,-0.1,1.2000000000000002,13.100000000000001,40.9,14.300000000000002,80.10000000000001,16
1096,18352.0,0.9,-0.4,0.5,0.9,1.9000000000000001,10.0,55.1,4.2,87.2,16
1097,18368.0,0.9,-0.5,0.5,1.2000000000000002,1.9000000000000001,9.5,59.699999999999996,-18.700000000000003,84.0,16
1098,18385.0,1.5,-0.7000000000000001,-0.6000000000000001,1.7000000000000002,1.9000000000000001,8.8,39.50000000000001,-22.5,69.00000000000001,16
1099,18402.0,1.2000000000000002,-1.2000000000000002,0.2,1.6,1.5,9.600000000000001,13.700000000000001,-10.700000000000001,49.1,16
1100,18419.0,0.9,-1.6,0.7000000000000001,1.0,0.9,10.200000000000001,1.6,6.1000000000000005,33.9,16
1101,18435.0,0.0,-2.2,0.8,0.4,0.6000000000000001,10.200000000000001,-0.5,12.9,29.300000000000004,16
1102,18454.0,-0.6000000000000001,-2.5,0.6000000000000001,-0.2,0.2,10.0,-0.1,19.700000000000003,29.200000000000003,16
1103,18473.0,-0.8,-2.5,0.2,-0.5,0.2,9.600000000000001,8.3,13.3,35.2,16
1104,18488.0,-0.8,-2.5,0.2,-0.5,0.2,9.4,15.100000000000001,6.2,39.699999999999996,16
1105,18503.0,-0.6000000000000001,-2.7,-0.6000000000000001,-0.1,0.1,8.6,26.799999999999997,-3.6000000000000005,50.900000000000006,16
1106,18520.0,0.2,-2.4000000000000004,-1.5,0.6000000000000001,0.4,7.9,34.1,-4.9,59.1,16
1107,18535.0,0.5,-2.3000000000000003,-1.9000000000000001,1.0,0.6000000000000001,7.4,37.0,-3.1,59.40000000000001,16
1108,18554.0,0.5,-2.0,-2.7,1.1,1.0,6.6000000000000005,42.60000000000001,3.3000000000000007,56.0,16
1109,18579.0,0.30000000000000004,-1.6,-3.9000000000000004,0.9,1.5,5.4,45.7,12.8,50.5,16
1110,18590.0,0.30000000000000004,-1.7000000000000002,-3.9000000000000004,1.1,1.7000000000000002,4.800000000000001,43.4,16.5,46.9,16
1111,18604.0,0.2,-0.8,-5.4,0.8,2.5,3.8000000000000003,25.5,18.5,32.300000000000004,16
1112,18619.0,-0.5,-0.2,-5.0,0.0,3.2,4.2,3.5,15.299999999999999,20.0,16
1113,18636.0,-0.9,-0.2,-3.8000000000000003,-0.4,3.2,5.4,-12.200000000000001,10.8,13.5,16
1114,18652.0,-1.2000000000000002,-0.4,-1.1,-0.7000000000000001,3.0,8.1,-31.3,4.6,6.1000000000000005,16
1115,18668.0,-1.2000000000000002,-0.4,-0.30000000000000004,-0.7000000000000001,2.9000000000000004,8.9,-32.6,0.2,4.6,16
1116,18686.0,-1.4000000000000001,-0.30000000000000004,1.2000000000000002,-0.9,2.9000000000000004,10.5,-22.8,-1.2000000000000002,5.500000000000001,16
1117,18702.0,-1.4000000000000001,-0.1,1.4000000000000001,-0.8,3.2,10.600000000000001,-4.800000000000001,7.400000000000001,9.4,16
1118,18719.0,-1.1,0.5,0.4,-0.6000000000000001,3.6,9.700000000000001,6.600000000000001,17.7,8.899999999999999,16
1119,18736.0,-1.1,0.8,-0.30000000000000004,-0.6000000000000001,3.9000000000000004,8.9,5.300000000000001,19.300000000000004,6.300000000000001,16
1120,18755.0,-1.1,1.2000000000000002,-0.7000000000000001,-0.7000000000000001,4.3,8.6,-4.4,21.6,1.9,16
1121,18774.0,-1.1,1.6,-0.9,-0.8,4.7,8.4,-19.5,28.200000000000003,-5.4,16
1122,18785.0,-1.1,1.6,-0.8,-0.8,4.7,8.5,-31.3,32.7,-11.700000000000001,16
1123,18802.0,-1.4000000000000001,1.1,0.6000000000000001,-1.3,4.1000000000000005,10.0,-68.7,25.0,-28.0,16
1124,18818.0,-2.6,-1.7000000000000002,5.4,-2.5,1.1,14.9,-100.30000000000001,-7.200000000000001,-39.2,16
1125,18835.0,-2.9000000000000004,-2.7,7.6000000000000005,-2.8000000000000003,-0.2,17.1,-101.10000000000001,-13.399999999999999,-28.700000000000003,16
1126,18854.0,-1.2000000000000002,-4.3,8.9,-1.2000000000000002,-2.1,18.400000000000002,-69.60000000000001,-1.5,21.1,16
1127,18868.0,-1.2000000000000002,-4.2,8.8,-0.2,-2.1,18.1,-44.2,3.7000000000000006,43.900000000000006,16
1128,18885.0,1.7000000000000002,-3.3000000000000003,6.0,1.8,-1.2000000000000002,15.600000000000001,15.000000000000002,11.6,80.7,16
1129,18902.0,2.9000000000000004,-2.6,3.4000000000000004,3.5,0.0,11.4,58.5,8.5,98.39999999999999,16
1130,18918.0,4.1000000000000005,-1.4000000000000001,-0.7000000000000001,4.4,1.1,8.0,63.0,-7.300000000000001,86.5,16
1131,18936.0,4.0,-0.30000000000000004,-2.8000000000000003,4.2,2.1,6.7,53.7,-12.7,74.89999999999999,16
1132,18953.0,3.6,-0.4,-3.4000000000000004,3.9000000000000004,2.2,6.0,17.9,-13.200000000000003,47.60000000000001,16
1133,18976.0,2.4000000000000004,-0.6000000000000001,-2.2,2.7,1.9000000000000001,7.2,-17.9,-1.5,24.900000000000002,16
1134,18985.0,1.8,-0.7000000000000001,-1.7000000000000002,2.2,1.9000000000000001,7.800000000000001,-25.5,4.300000000000001,18.200000000000003,16
1135,19001.0,0.8,-0.5,-1.2000000000000002,1.2000000000000002,1.9000000000000001,8.3,-20.599999999999998,7.400000000000001,10.600000000000001,16
1136,19018.0,0.0,-0.30000000000000004,-2.1,0.4,2.1,7.4,-9.4,1.2000000000000002,9.2,16
1137,19038.0,-0.1,0.1,-2.6,0.30000000000000004,2.5,6.9,-11.3,-12.8,8.8,16
1138,19060.0,-0.2,0.1,-2.2,0.2,2.3000000000000003,7.6000000000000005,-16.900000000000002,-23.0,5.9,16
1139,19077.0,-0.30000000000000004,-0.2,-1.4000000000000001,0.2,2.1,8.200000000000001,-18.900000000000002,-23.900000000000006,4.6,16
1140,19085.0,-0.4,-0.1,-1.4000000000000001,0.1,2.0,8.5,-19.200000000000003,-21.500000000000004,4.9,16
