,ms,accelX,accelY,accelZ,accelWithGX,accelWithGY,accelWithGZ,rotRateAlpha,rotRateBeta,rotRateGamma,interval
0,157.0,0.0,0.0,0.0,1.6,4.2,8.8,3.2,2.8,3.2,16
1,169.0,0.0,0.0,0.0,1.6,4.2,8.8,3.2,2.8,3.2,16
2,184.0,0.0,0.0,0.0,1.6,4.2,8.8,2.9,1.9,3.5,16
3,201.0,0.1,0.0,-0.1,1.8,4.3,8.700000000000001,1.9,1.4,3.3000000000000007,16
4,218.0,0.0,0.1,0.1,1.7000000000000002,4.3,8.9,1.2000000000000002,0.4,2.6,16
5,236.0,0.0,0.0,0.1,1.7000000000000002,4.3,8.9,1.6,1.0,2.7,16
6,252.0,0.0,0.1,0.0,1.7000000000000002,4.3,8.8,1.9,1.1,2.5,16
7,268.0,0.0,0.0,-0.1,1.7000000000000002,4.3,8.700000000000001,1.0,1.8000000000000003,2.4000000000000004,16
8,284.0,0.0,0.0,-0.1,1.7000000000000002,4.3,8.6,0.0,3.0,2.1,16
9,301.0,0.1,0.1,0.1,1.7000000000000002,4.3,8.8,-1.4,0.9000000000000001,1.7,16
10,318.0,0.1,0.0,0.2,1.7000000000000002,4.2,9.0,-1.1,0.9000000000000001,1.5,16
11,335.0,0.0,0.0,0.2,1.6,4.3,9.0,-0.1,1.1,1.1,16
12,351.0,0.0,0.0,0.30000000000000004,1.7000000000000002,4.2,9.1,0.6000000000000001,0.4,1.6,16
13,368.0,0.0,0.0,0.2,1.7000000000000002,4.2,9.0,1.9,1.9,2.1,16
14,384.0,0.0,0.0,0.0,1.6,4.3,8.9,2.6,2.1,2.3,16
15,401.0,0.1,0.0,0.0,1.7000000000000002,4.3,8.8,2.4000000000000004,2.3,2.2,16
16,418.0,0.0,0.0,0.0,1.7000000000000002,4.3,8.8,2.2,2.0,1.4,16
17,434.0,0.0,0.0,-0.1,1.6,4.3,8.8,2.0,1.7,1.0,16
18,452.0,-0.1,0.0,-0.1,1.6,4.3,8.700000000000001,1.9,2.3,1.0,16
19,468.0,-0.1,0.1,-0.2,1.5,4.4,8.6,1.4,1.7,1.1,16
20,484.0,-0.1,0.1,-0.2,1.5,4.4,8.6,0.30000000000000004,0.7,1.4,16
21,501.0,-0.1,0.0,-0.1,1.5,4.4,8.700000000000001,-0.5,0.5,2.1,16
22,518.0,-0.1,0.1,-0.1,1.5,4.4,8.700000000000001,-1.1,0.30000000000000004,2.6,16
23,534.0,-0.1,0.1,0.0,1.5,4.4,8.8,-1.5,-1.9,2.7,16
24,552.0,-0.1,0.1,0.1,1.6,4.4,8.9,-1.0,-3.4,2.9,16
25,568.0,0.1,0.1,0.30000000000000004,1.7000000000000002,4.4,9.1,0.30000000000000004,-5.6,2.6,16
26,585.0,0.1,0.1,0.4,1.8,4.4,9.200000000000001,2.5,-5.9,1.6,16
27,602.0,0.0,0.0,0.2,1.7000000000000002,4.3,9.0,4.1,-3.7000000000000006,0.8,16
28,620.0,0.0,0.0,0.1,1.7000000000000002,4.3,8.9,4.1,-1.5,0.5,16
29,637.0,0.1,-0.1,0.0,1.8,4.3,8.8,3.1,1.0,0.5,16
30,652.0,0.1,-0.1,0.0,1.8,4.3,8.8,1.6,2.9,-0.1,16
31,669.0,0.2,-0.1,0.0,1.8,4.3,8.8,0.4,3.7000000000000006,-1.1,16
32,684.0,0.1,-0.1,0.0,1.8,4.3,8.8,0.30000000000000004,3.6000000000000005,-1.9,16
33,701.0,0.0,0.0,0.1,1.7000000000000002,4.3,8.9,0.7,2.0,-2.0,16
34,722.0,-0.1,0.0,0.0,1.6,4.3,8.8,1.7,0.30000000000000004,-1.8000000000000003,16
35,735.0,-0.2,0.1,0.0,1.4000000000000001,4.5,8.8,1.9,-3.3000000000000007,-0.5,16
36,752.0,-0.30000000000000004,0.30000000000000004,0.30000000000000004,1.4000000000000001,4.7,9.1,1.6,-9.5,1.1,16
37,768.0,-0.4,0.5,0.7000000000000001,1.3,4.9,9.5,2.1,-16.3,1.8000000000000003,16
38,791.0,0.2,0.4,2.1,2.1,4.800000000000001,11.0,6.4,-48.0,4.2,16
39,801.0,0.2,0.4,2.1,2.1,4.800000000000001,11.0,6.4,-48.0,4.2,16
40,818.0,0.6000000000000001,0.0,2.9000000000000004,2.7,4.5,11.8,17.300000000000004,-59.60000000000001,2.5,16
41,834.0,0.5,-0.4,2.6,2.7,4.2,11.4,32.7,-54.6,-0.5,16
42,851.0,0.0,-0.6000000000000001,1.0,2.3000000000000003,4.1000000000000005,9.700000000000001,45.400000000000006,-30.5,-0.5,16
43,868.0,-0.4,-0.4,-1.1,1.9000000000000001,4.3,7.6000000000000005,44.300000000000004,-2.3,4.6,16
44,885.0,-0.4,-0.2,-2.3000000000000003,1.9000000000000001,4.6000000000000005,6.300000000000001,30.5,16.200000000000003,9.5,16
45,901.0,-0.30000000000000004,0.0,-2.4000000000000004,2.0,4.800000000000001,6.1000000000000005,13.000000000000002,29.400000000000002,12.600000000000001,16
46,918.0,0.0,0.1,-1.8,2.1,5.0,6.7,1.1,34.900000000000006,12.8,16
47,935.0,0.1,0.2,-1.4000000000000001,2.2,5.0,7.2,-1.9,32.8,9.8,16
48,951.0,0.0,0.2,-1.3,2.0,5.0,7.300000000000001,0.0,24.400000000000002,5.1000000000000005,16
49,968.0,-0.30000000000000004,0.2,-1.2000000000000002,1.7000000000000002,5.1000000000000005,7.300000000000001,1.8000000000000003,10.4,1.5,16
50,984.0,-0.6000000000000001,0.2,-1.0,1.4000000000000001,5.1000000000000005,7.5,1.8000000000000003,-3.8,0.7,16
51,1001.0,-0.5,0.1,-0.6000000000000001,1.5,5.0,7.800000000000001,1.0,-12.7,2.8,16
52,1018.0,-0.2,0.1,-0.30000000000000004,1.9000000000000001,5.0,8.1,1.1,-14.900000000000002,5.4,16
53,1034.0,0.1,0.2,-0.2,2.2,5.1000000000000005,8.3,0.4,-16.200000000000003,6.500000000000001,16
54,1053.0,0.7000000000000001,0.1,0.5,2.9000000000000004,5.0,9.0,-2.9,-19.1,6.0,16
55,1068.0,0.7000000000000001,0.1,0.5,2.9000000000000004,5.0,9.0,-2.9,-19.1,6.0,16
56,1085.0,0.9,0.0,0.9,3.2,4.9,9.3,-1.1,-15.6,4.300000000000001,16
57,1101.0,0.9,-0.1,0.7000000000000001,3.2,4.800000000000001,9.1,2.3,-7.400000000000001,1.7,16
58,1118.0,0.7000000000000001,-0.1,0.2,3.1,4.7,8.700000000000001,4.4,3.5,-0.8,16
59,1135.0,0.4,-0.2,-0.1,2.7,4.7,8.3,4.2,12.600000000000001,-1.9,16
60,1151.0,0.2,-0.2,-0.4,2.4000000000000004,4.7,8.1,3.9,18.5,-1.9,16
61,1168.0,0.0,-0.1,-0.5,2.2,4.7,7.9,4.1,19.200000000000003,-1.9,16
62,1185.0,-0.2,-0.2,-0.6000000000000001,2.0,4.7,7.800000000000001,5.1000000000000005,18.200000000000003,-2.1,16
63,1201.0,-0.30000000000000004,-0.2,-0.7000000000000001,1.8,4.7,7.7,6.300000000000001,16.700000000000003,-2.6,16
64,1218.0,-0.6000000000000001,-0.1,-0.9,1.5,4.800000000000001,7.5,6.600000000000001,15.100000000000001,-2.7,16
65,1234.0,-0.6000000000000001,-0.1,-1.0,1.4000000000000001,4.800000000000001,7.4,3.8,11.900000000000002,-1.4,16
66,1251.0,-0.6000000000000001,0.0,-0.7000000000000001,1.4000000000000001,4.9,7.7,0.1,8.3,0.0,16
67,1268.0,-0.4,-0.1,-0.30000000000000004,1.6,4.9,8.1,-2.0,4.9,1.5,16
68,1285.0,0.0,-0.1,-0.1,2.0,4.800000000000001,8.3,-3.1,0.4,1.5,16
69,1301.0,0.30000000000000004,-0.1,0.1,2.3000000000000003,4.800000000000001,8.6,-3.5,-3.5,-0.7,16
70,1318.0,0.5,-0.2,0.1,2.5,4.7,8.5,-4.4,-3.6000000000000005,-4.300000000000001,16
71,1338.0,0.5,-0.2,0.2,2.6,4.6000000000000005,8.6,-6.699999999999999,-2.6,-8.3,16
72,1353.0,0.4,-0.30000000000000004,0.2,2.4000000000000004,4.5,8.6,-9.5,-0.5,-11.3,16
73,1369.0,0.1,-0.30000000000000004,0.30000000000000004,2.0,4.5,8.8,-12.0,3.1,-11.8,16
74,1384.0,0.0,-0.30000000000000004,0.6000000000000001,1.9000000000000001,4.5,9.1,-12.4,5.4,-10.4,16
75,1406.0,0.0,-0.30000000000000004,0.7000000000000001,1.9000000000000001,4.5,9.200000000000001,-9.2,6.9,-8.100000000000001,16
76,1419.0,0.2,-0.2,0.4,2.1,4.6000000000000005,9.0,-5.0,5.6,-6.4,16
77,1434.0,0.30000000000000004,0.0,0.2,2.2,4.7,8.700000000000001,-2.4000000000000004,1.5,-6.300000000000001,16
78,1459.0,0.1,0.1,-0.5,2.0,4.9,8.1,-2.4000000000000004,-0.7,-9.600000000000001,16
79,1468.0,0.1,0.1,-0.5,2.0,4.9,8.1,-2.4000000000000004,-0.7,-9.600000000000001,16
80,1484.0,-0.1,0.1,-0.6000000000000001,1.8,4.800000000000001,7.9,-6.8,-1.8000000000000003,-9.899999999999999,16
81,1502.0,-0.2,0.0,-0.4,1.7000000000000002,4.7,8.200000000000001,-11.8,-0.2,-9.4,16
82,1518.0,-0.30000000000000004,-0.1,-0.2,1.5,4.6000000000000005,8.3,-14.600000000000001,2.1,-9.0,16
83,1535.0,-0.6000000000000001,-0.1,-0.1,1.2000000000000002,4.6000000000000005,8.5,-16.4,3.5,-7.699999999999999,16
84,1551.0,-0.6000000000000001,-0.1,0.0,1.2000000000000002,4.5,8.6,-17.300000000000004,2.9,-4.9,16
85,1568.0,-0.5,-0.1,0.1,1.2000000000000002,4.5,8.700000000000001,-17.9,0.1,-2.3,16
86,1586.0,-0.5,-0.2,0.4,1.3,4.4,9.0,-17.5,-4.5,0.7,16
87,1602.0,-0.4,-0.2,0.6000000000000001,1.4000000000000001,4.3,9.3,-14.700000000000001,-8.100000000000001,2.9,16
88,1618.0,-0.30000000000000004,-0.2,0.7000000000000001,1.5,4.2,9.4,-8.899999999999999,-8.8,4.5,16
89,1639.0,-0.4,0.0,-0.2,1.5,4.5,8.5,-1.3,-1.5,7.200000000000001,16
90,1657.0,-0.4,0.0,-0.2,1.5,4.5,8.5,-1.3,-1.5,7.200000000000001,16
91,1669.0,-0.30000000000000004,0.2,-0.30000000000000004,1.6,4.6000000000000005,8.4,-2.5,2.1,9.2,16
92,1687.0,-0.2,0.4,-0.4,1.7000000000000002,4.800000000000001,8.3,-3.1,5.0,10.600000000000001,16
93,1702.0,-0.1,0.6000000000000001,-0.5,1.7000000000000002,5.0,8.3,-3.9,4.5,11.5,16
94,1718.0,0.1,0.6000000000000001,-0.4,2.0,5.0,8.3,-4.6,3.5,11.2,16
95,1734.0,0.1,0.7000000000000001,-0.30000000000000004,1.9000000000000001,5.1000000000000005,8.4,-5.300000000000001,2.1,10.0,16
96,1755.0,0.1,0.6000000000000001,0.1,2.0,5.0,8.9,-5.4,-0.2,8.8,16
97,1769.0,0.1,0.6000000000000001,0.1,2.0,5.0,8.9,-5.4,-0.2,8.8,16
98,1785.0,0.2,0.5,0.4,2.1,4.9,9.1,-4.2,-1.4,8.4,16
99,1802.0,0.4,0.30000000000000004,0.5,2.3000000000000003,4.7,9.200000000000001,-1.7,-2.1,7.500000000000001,16
100,1818.0,0.30000000000000004,0.1,0.4,2.3000000000000003,4.5,9.200000000000001,1.4,1.5,5.300000000000001,16
101,1835.0,0.1,0.0,0.1,2.0,4.4,8.9,3.5,7.9,3.5,16
102,1851.0,-0.2,0.0,-0.1,1.7000000000000002,4.4,8.700000000000001,3.7000000000000006,15.700000000000001,3.5,16
103,1868.0,-0.2,0.0,-0.30000000000000004,1.6,4.5,8.5,4.300000000000001,22.9,4.4,16
104,1884.0,-0.2,0.2,-0.4,1.6,4.6000000000000005,8.4,4.9,22.4,4.300000000000001,16
105,1902.0,-0.2,0.2,-0.4,1.5,4.6000000000000005,8.4,4.1,14.5,4.1,16
106,1918.0,-0.30000000000000004,0.2,-0.30000000000000004,1.4000000000000001,4.7,8.4,2.5,5.500000000000001,3.6000000000000005,16
107,1938.0,-0.4,0.2,0.0,1.4000000000000001,4.7,8.700000000000001,0.5,-5.9,3.9,16
108,1951.0,0.0,0.1,0.6000000000000001,1.8,4.6000000000000005,9.4,-0.5,-20.0,4.7,16
109,1968.0,0.5,0.0,1.2000000000000002,1.8,4.6000000000000005,9.4,0.8,-35.0,3.1,16
110,1984.0,0.6000000000000001,-0.2,1.8,2.6,4.2,10.600000000000001,3.7000000000000006,-43.800000000000004,-0.2,16
111,2001.0,0.7000000000000001,-0.5,2.0,2.8000000000000003,4.0,10.8,10.299999999999999,-39.8,-2.8,16
112,2018.0,0.7000000000000001,-0.8,1.4000000000000001,2.9000000000000004,3.8000000000000003,10.100000000000001,17.200000000000003,-25.0,-4.1,16
113,2035.0,0.4,-0.8,0.7000000000000001,2.6,3.8000000000000003,9.4,19.799999999999997,-9.0,-3.9,16
114,2051.0,0.30000000000000004,-0.8,0.0,2.5,3.8000000000000003,8.6,18.3,1.1,-2.3,16
115,2067.0,0.4,-0.7000000000000001,-0.5,2.5,4.0,8.1,14.600000000000001,8.4,-1.4,16
116,2088.0,0.4,-0.6000000000000001,-0.9,2.5,4.1000000000000005,7.7,10.299999999999999,14.400000000000002,-2.1,16
117,2102.0,0.30000000000000004,-0.5,-1.1,2.4000000000000004,4.2,7.5,6.4,18.900000000000002,-3.8,16
118,2119.0,-0.1,-0.4,-1.3,1.9000000000000001,4.3,7.300000000000001,3.1,20.900000000000002,-5.4,16
119,2135.0,-0.6000000000000001,-0.2,-1.3,1.4000000000000001,4.5,7.300000000000001,-0.8,16.700000000000003,-5.2,16
120,2153.0,-0.7000000000000001,-0.30000000000000004,-1.1,1.2000000000000002,4.4,7.5,-4.800000000000001,9.700000000000001,-3.3000000000000007,16
121,2169.0,-0.8,-0.30000000000000004,-0.8,1.2000000000000002,4.4,7.800000000000001,-8.100000000000001,0.0,2.6,16
122,2186.0,-0.8,-0.2,-0.5,1.1,4.4,8.1,-8.100000000000001,0.0,2.6,16
123,2201.0,-0.5,-0.1,0.0,1.4000000000000001,4.5,8.6,-8.4,-4.5,6.4,16
124,2218.0,0.0,0.0,0.5,2.0,4.6000000000000005,9.200000000000001,-6.300000000000001,-9.0,7.9,16
125,2236.0,0.4,0.1,0.9,2.4000000000000004,4.7,9.600000000000001,-1.4,-12.299999999999999,6.300000000000001,16
126,2253.0,0.4,0.1,0.9,2.5,4.7,9.5,4.2,-12.200000000000001,3.0,16
127,2268.0,0.5,0.1,0.6000000000000001,2.5,4.7,9.200000000000001,7.1000000000000005,-8.600000000000001,-0.2,16
128,2284.0,0.4,0.1,0.30000000000000004,2.5,4.7,8.9,6.500000000000001,-2.8,-3.5,16
129,2302.0,0.2,0.0,0.2,2.3000000000000003,4.7,8.8,2.8,1.1,-5.9,16
130,2319.0,0.2,-0.1,0.30000000000000004,2.2,4.6000000000000005,8.9,-0.1,5.6,-7.0,16
131,2339.0,0.2,-0.2,0.2,2.2,4.5,8.8,-0.5,8.600000000000001,-7.699999999999999,16
132,2351.0,0.2,-0.2,0.2,2.2,4.5,8.8,-0.5,8.600000000000001,-7.699999999999999,16
133,2368.0,0.2,-0.2,0.1,2.1,4.5,8.700000000000001,0.5,6.9,-8.899999999999999,16
134,2385.0,0.1,-0.2,-0.1,2.1,4.5,8.5,1.7,4.9,-9.700000000000001,16
135,2401.0,0.1,-0.2,-0.30000000000000004,2.0,4.5,8.3,2.1,2.6,-10.1,16
136,2418.0,-0.1,-0.2,-0.4,1.8,4.5,8.200000000000001,1.1,0.9000000000000001,-10.0,16
137,2435.0,-0.2,-0.2,-0.5,1.7000000000000002,4.5,8.1,-1.3,-0.6000000000000001,-8.2,16
138,2454.0,-0.30000000000000004,-0.2,-0.2,1.6,4.4,8.4,-3.8,-2.2,-4.9,16
139,2468.0,-0.2,-0.30000000000000004,0.0,1.7000000000000002,4.4,8.6,-3.5,-2.0,-1.6,16
140,2490.0,0.1,-0.2,0.0,1.9000000000000001,4.5,8.6,-1.9,-2.6,0.8,16
141,2501.0,0.2,-0.1,0.0,2.1,4.5,8.6,0.30000000000000004,-4.6,1.1,16
142,2520.0,0.1,-0.1,-0.30000000000000004,2.0,4.6000000000000005,8.4,2.8,-4.2,0.4,16
143,2535.0,-0.1,-0.1,-0.6000000000000001,1.9000000000000001,4.6000000000000005,8.0,3.2,-4.800000000000001,0.2,16
144,2552.0,-0.1,0.0,-0.7000000000000001,1.9000000000000001,4.7,7.9,0.7,-6.2,0.2,16
145,2570.0,-0.1,0.0,-0.8,1.9000000000000001,4.6000000000000005,7.800000000000001,-2.9,-4.9,-0.2,16
146,2587.0,-0.2,0.0,-0.7000000000000001,1.8,4.7,7.9,-7.9,-4.4,-0.1,16
147,2601.0,-0.1,0.0,-0.30000000000000004,1.9000000000000001,4.6000000000000005,8.3,-12.100000000000001,-4.2,0.8,16
148,2619.0,0.0,0.0,0.0,2.0,4.6000000000000005,8.6,-12.9,-2.4000000000000004,0.7,16
149,2635.0,-0.1,0.1,0.0,1.9000000000000001,4.7,8.700000000000001,-12.7,-3.6000000000000005,0.0,16
150,2652.0,0.0,0.1,0.2,2.0,4.7,8.9,-13.200000000000003,-7.6,-0.1,16
151,2676.0,-0.1,0.1,1.1,2.0,4.5,9.8,-11.2,-13.900000000000002,0.7,16
152,2688.0,-0.1,0.1,1.1,2.0,4.5,9.8,-11.2,-13.900000000000002,0.7,16
153,2702.0,-0.2,0.0,1.6,1.9000000000000001,4.5,10.3,-6.8,-16.0,3.0,16
154,2718.0,0.0,-0.1,1.8,2.1,4.4,10.5,0.2,-19.300000000000004,5.7,16
155,2735.0,0.30000000000000004,0.0,1.9000000000000001,2.5,4.5,10.600000000000001,9.3,-21.200000000000003,7.400000000000001,16
156,2754.0,0.6000000000000001,0.1,1.7000000000000002,2.9000000000000004,4.6000000000000005,10.4,19.700000000000003,-24.0,6.0,16
157,2768.0,0.6000000000000001,0.0,1.1,2.9000000000000004,4.6000000000000005,9.8,28.900000000000002,-25.7,2.6,16
158,2788.0,0.30000000000000004,0.0,0.5,2.7,4.7,9.0,33.9,-24.900000000000002,0.0,16
159,2802.0,0.30000000000000004,0.0,0.5,2.7,4.7,9.0,33.9,-24.900000000000002,0.0,16
160,2819.0,0.2,-0.1,-0.7000000000000001,2.7,4.7,7.800000000000001,32.8,-17.200000000000003,-1.5,16
161,2836.0,0.2,-0.1,-1.2000000000000002,2.8000000000000003,4.800000000000001,7.2,26.9,-12.600000000000001,-3.1,16
162,2852.0,0.1,-0.1,-1.4000000000000001,2.7,4.800000000000001,6.9,18.8,-7.8,-5.2,16
163,2871.0,0.0,-0.1,-1.2000000000000002,2.6,4.800000000000001,7.6000000000000005,10.4,-4.6,-7.0,16
164,2887.0,0.0,-0.2,-0.7000000000000001,2.6,4.800000000000001,7.6000000000000005,5.1000000000000005,-4.6,-8.100000000000001,16
165,2903.0,-0.1,-0.30000000000000004,-0.4,2.4000000000000004,4.7,7.9,3.7000000000000006,-3.9,-8.8,16
166,2918.0,-0.30000000000000004,-0.30000000000000004,-0.1,2.3000000000000003,4.7,8.200000000000001,4.300000000000001,-5.6,-8.3,16
167,2936.0,-0.30000000000000004,-0.30000000000000004,0.0,2.3000000000000003,4.7,8.200000000000001,6.0,-6.600000000000001,-6.4,16
168,2952.0,-0.30000000000000004,-0.2,0.0,2.3000000000000003,4.800000000000001,8.200000000000001,6.600000000000001,-8.100000000000001,-4.7,16
169,2968.0,-0.1,-0.2,-0.1,2.5,4.9,8.1,6.9,-9.2,-3.8,16
170,2989.0,0.0,-0.1,-0.2,2.6,5.0,8.0,6.0,-8.100000000000001,-3.8,16
171,3002.0,0.0,0.0,-0.4,2.7,5.1000000000000005,7.7,2.5,-6.300000000000001,-4.5,16
172,3020.0,0.1,0.1,-0.5,2.7,5.2,7.7,-2.9,-3.2,-5.500000000000001,16
173,3035.0,0.1,0.1,-0.30000000000000004,2.7,5.1000000000000005,7.9,-8.3,0.30000000000000004,-6.699999999999999,16
174,3054.0,0.0,0.0,-0.1,2.6,5.0,8.1,-11.5,3.0,-7.500000000000001,16
175,3068.0,0.0,-0.1,-0.1,2.6,5.0,8.200000000000001,-12.5,5.7,-7.9,16
176,3086.0,0.0,-0.1,-0.1,2.5,4.9,8.200000000000001,-12.8,7.9,-8.600000000000001,16
177,3101.0,-0.1,-0.1,0.1,2.4000000000000004,4.9,8.4,-12.4,8.700000000000001,-8.700000000000001,16
178,3121.0,-0.1,-0.1,0.30000000000000004,2.4000000000000004,4.9,8.6,-9.2,11.6,-8.2,16
179,3135.0,-0.2,0.0,0.0,2.2,5.0,8.3,-4.800000000000001,16.0,-7.9,16
180,3152.0,-0.5,0.2,-0.6000000000000001,1.9000000000000001,5.2,7.7,-3.6000000000000005,20.3,-7.699999999999999,16
181,3168.0,-0.7000000000000001,0.4,-1.2000000000000002,1.6,5.4,7.2,-7.8,22.4,-6.600000000000001,16
182,3185.0,-0.7000000000000001,0.5,-1.2000000000000002,1.5,5.5,7.2,-16.200000000000003,20.3,-4.9,16
183,3203.0,-0.6000000000000001,0.5,-0.6000000000000001,1.6,5.4,7.800000000000001,-25.4,12.200000000000001,-2.8,16
184,3218.0,-0.30000000000000004,0.30000000000000004,0.6000000000000001,1.9000000000000001,5.1000000000000005,9.1,-29.700000000000006,0.4,-0.1,16
185,3234.0,0.0,0.1,1.8,2.2,4.800000000000001,10.3,-24.7,-9.100000000000001,2.5,16
186,3252.0,0.1,-0.1,2.7,2.4000000000000004,4.6000000000000005,11.200000000000001,-10.200000000000001,-13.000000000000002,4.4,16
187,3274.0,0.2,-0.2,2.0,2.5,4.5,10.5,9.8,-5.6,5.1000000000000005,16
188,3284.0,-0.1,-0.1,0.30000000000000004,2.2,4.6000000000000005,8.8,22.3,6.600000000000001,5.300000000000001,16
189,3301.0,-0.4,0.2,-1.2000000000000002,1.8,5.0,7.2,21.900000000000002,16.5,6.2,16
190,3319.0,-0.4,0.4,-1.8,1.8,5.2,6.6000000000000005,11.000000000000002,20.2,6.500000000000001,16
191,3335.0,-0.4,0.5,-1.8,1.7000000000000002,5.4,6.7,-2.5,17.0,5.300000000000001,16
192,3352.0,-0.30000000000000004,0.5,-1.2000000000000002,1.8,5.300000000000001,7.300000000000001,-13.900000000000002,9.600000000000001,3.5,16
193,3367.0,-0.1,0.30000000000000004,-0.1,2.1,5.1000000000000005,8.4,-19.400000000000002,0.9000000000000001,2.6,16
194,3389.0,0.2,0.0,0.7000000000000001,2.4000000000000004,4.7,9.3,-18.200000000000003,-5.300000000000001,1.3,16
195,3402.0,0.30000000000000004,-0.2,1.3,2.5,4.5,9.8,-11.8,-8.0,-0.30000000000000004,16
196,3418.0,0.30000000000000004,-0.4,1.4000000000000001,2.5,4.3,10.0,-3.5,-8.0,-1.1,16
197,3435.0,0.1,-0.5,1.1,2.3000000000000003,4.2,9.600000000000001,4.300000000000001,-3.0,-0.2,16
198,3451.0,-0.1,-0.5,0.4,2.1,4.2,8.9,9.700000000000001,7.300000000000001,1.9,16
199,3468.0,-0.2,-0.4,-0.4,2.0,4.4,8.200000000000001,10.299999999999999,16.4,4.6,16
200,3497.0,0.1,0.2,-0.9,2.2,4.9,7.7,2.7,21.300000000000004,5.9,16
201,3502.0,0.1,0.2,-0.9,2.2,4.9,7.7,2.7,21.300000000000004,5.9,16
202,3518.0,0.2,0.2,-1.1,2.3000000000000003,4.9,7.4,-0.5,16.8,3.3000000000000007,16
203,3534.0,0.30000000000000004,0.30000000000000004,-1.2000000000000002,2.3000000000000003,5.0,7.300000000000001,-5.300000000000001,10.8,0.0,16
204,3552.0,0.2,0.2,-1.0,2.2,4.9,7.6000000000000005,-11.6,4.1,-3.1,16
205,3572.0,-0.2,-0.1,-0.30000000000000004,1.7000000000000002,4.5,8.3,-19.700000000000003,2.3,-3.9,16
206,3584.0,-0.2,-0.1,-0.30000000000000004,1.7000000000000002,4.5,8.3,-19.700000000000003,2.3,-3.9,16
207,3603.0,-0.30000000000000004,-0.2,0.2,1.6,4.4,8.9,-20.7,1.8000000000000003,-1.1,16
208,3618.0,-0.2,-0.2,0.7000000000000001,1.7000000000000002,4.3,9.4,-18.5,3.8,2.6,16
209,3634.0,-0.1,-0.2,0.9,1.9000000000000001,4.3,9.600000000000001,-13.5,5.500000000000001,5.7,16
210,3652.0,0.1,-0.1,0.9,2.0,4.4,9.600000000000001,-8.600000000000001,5.2,7.200000000000001,16
211,3668.0,0.30000000000000004,0.0,1.0,2.2,4.4,9.700000000000001,-4.300000000000001,3.1,7.200000000000001,16
212,3685.0,0.4,0.0,0.9,2.3000000000000003,4.4,9.600000000000001,0.30000000000000004,1.2000000000000002,6.4,16
213,3704.0,0.4,0.0,0.5,2.3000000000000003,4.4,9.3,3.9,0.1,5.0,16
214,3718.0,0.4,0.0,0.1,2.3000000000000003,4.5,8.9,4.800000000000001,-0.8,3.3000000000000007,16
215,3739.0,0.4,0.0,-0.1,2.4000000000000004,4.5,8.6,2.7,-1.0,1.6,16
216,3752.0,0.30000000000000004,0.0,-0.2,2.3000000000000003,4.4,8.5,-0.5,0.8,-0.1,16
217,3779.0,0.1,-0.2,-0.1,2.0,4.2,8.6,-6.2,5.2,-1.7,16
218,3785.0,0.1,-0.2,-0.1,2.0,4.2,8.6,-6.2,5.2,-1.7,16
219,3802.0,0.0,-0.30000000000000004,-0.1,1.9000000000000001,4.1000000000000005,8.700000000000001,-5.9,7.200000000000001,-1.3,16
220,3818.0,-0.1,-0.30000000000000004,-0.2,1.8,4.1000000000000005,8.5,-4.2,7.0,-0.4,16
221,3836.0,-0.1,-0.2,-0.5,1.8,4.2,8.3,-3.0,3.3000000000000007,0.8,16
222,3851.0,0.0,-0.2,-0.5,1.8,4.2,8.3,-3.6000000000000005,-2.0,1.5,16
223,3870.0,-0.1,-0.2,-0.4,1.9000000000000001,4.2,8.4,-3.9,-5.2,1.5,16
224,3884.0,-0.1,-0.2,-0.30000000000000004,1.8,4.2,8.5,-4.6,-8.4,1.6,16
225,3902.0,-0.2,-0.1,-0.1,1.8,4.2,8.700000000000001,-5.4,-10.0,2.3,16
226,3929.0,0.0,-0.1,0.2,2.0,4.2,8.9,-5.500000000000001,-7.500000000000001,4.0,16
227,3935.0,0.0,-0.1,0.2,2.0,4.2,8.9,-5.500000000000001,-7.500000000000001,4.0,16
228,3956.0,-0.1,-0.1,0.2,1.9000000000000001,4.2,9.0,-5.8,-7.1000000000000005,3.8,16
229,3968.0,-0.1,0.0,0.4,2.0,4.2,9.200000000000001,-5.300000000000001,-7.0,4.2,16
230,3984.0,-0.1,0.0,0.5,2.0,4.2,9.3,-4.5,-7.400000000000001,4.2,16
231,4001.0,-0.1,0.0,0.5,2.0,4.2,9.3,-4.1,-6.9,4.7,16
232,4018.0,-0.1,0.0,0.6000000000000001,2.1,4.2,9.4,-2.7,-4.2,5.6,16
233,4035.0,0.0,0.0,0.6000000000000001,2.1,4.2,9.4,-0.8,-1.9,5.9,16
234,4052.0,0.0,0.0,0.4,2.2,4.2,9.200000000000001,1.4,0.4,5.6,16
235,4078.0,0.0,0.1,0.0,2.2,4.3,8.8,2.8,-0.1,4.1,16
236,4088.0,0.0,0.0,-0.1,2.1,4.3,8.700000000000001,1.9,0.4,4.300000000000001,16
237,4101.0,0.0,0.0,-0.1,2.1,4.3,8.700000000000001,1.9,0.4,4.300000000000001,16
238,4118.0,0.0,0.0,-0.2,2.2,4.3,8.6,1.3,1.0,4.4,16
239,4137.0,0.0,0.0,-0.30000000000000004,2.1,4.3,8.5,0.30000000000000004,0.0,4.9,16
240,4152.0,0.0,0.0,-0.30000000000000004,2.1,4.3,8.5,-0.6000000000000001,-0.9000000000000001,5.4,16
241,4168.0,0.0,0.0,-0.2,2.2,4.3,8.6,-1.2000000000000002,-2.8,5.9,16
242,4188.0,0.1,0.0,-0.1,2.3000000000000003,4.3,8.700000000000001,-1.0,-5.1000000000000005,6.0,16
243,4202.0,0.1,0.0,0.0,2.3000000000000003,4.3,8.700000000000001,0.2,-4.4,6.2,16
244,4218.0,0.0,0.1,-0.1,2.3000000000000003,4.3,8.700000000000001,1.6,-4.7,6.699999999999999,16
245,4235.0,0.1,0.1,-0.1,2.4000000000000004,4.4,8.6,1.9,-6.2,7.0,16
246,4251.0,0.1,0.2,0.0,2.4000000000000004,4.4,8.700000000000001,1.7,-6.9,6.600000000000001,16
247,4271.0,0.2,0.2,-0.1,2.5,4.5,8.700000000000001,1.7,-7.300000000000001,5.4,16
248,4284.0,0.2,0.30000000000000004,-0.1,2.6,4.5,8.6,0.4,-7.6,3.9,16
249,4301.0,0.2,0.2,-0.1,2.6,4.4,8.6,-1.3,-5.500000000000001,2.6,16
250,4320.0,0.1,0.1,0.1,2.5,4.4,8.8,-3.0,-4.0,1.6,16
251,4335.0,0.1,0.0,0.2,2.5,4.3,9.0,-3.0,-1.4,1.2000000000000002,16
252,4352.0,0.1,0.0,0.30000000000000004,2.5,4.2,9.0,0.5,-0.4,0.7,16
253,4370.0,0.0,0.0,0.30000000000000004,2.5,4.2,9.0,0.5,-0.4,0.7,16
254,4384.0,0.0,-0.1,0.2,2.5,4.2,8.9,2.7,-1.3,0.4,16
255,4402.0,0.1,-0.1,0.1,2.5,4.2,8.9,4.9,-2.4000000000000004,0.6000000000000001,16
256,4418.0,0.30000000000000004,-0.1,-0.1,2.8000000000000003,4.2,8.700000000000001,7.0,-4.4,1.7,16
257,4435.0,0.30000000000000004,0.0,-0.4,2.8000000000000003,4.3,8.4,8.8,-7.400000000000001,0.1,16
258,4451.0,0.2,0.0,-0.9,2.7,4.3,7.800000000000001,7.9,-6.699999999999999,-1.8000000000000003,16
259,4468.0,0.0,0.0,-1.3,2.5,4.3,7.300000000000001,1.6,-2.4000000000000004,-2.3,16
260,4487.0,-0.2,0.0,-1.1,2.3000000000000003,4.3,7.6000000000000005,-7.500000000000001,1.7,-2.0,16
261,4501.0,-0.2,0.1,-0.6000000000000001,2.3000000000000003,4.3,8.1,-14.800000000000002,4.9,-0.5,16
262,4518.0,0.0,0.0,0.0,2.5,4.2,8.700000000000001,-17.5,6.300000000000001,-0.5,16
263,4535.0,0.0,0.0,0.4,2.4000000000000004,4.2,9.1,-16.0,3.4,-1.8000000000000003,16
264,4551.0,-0.2,0.0,0.6000000000000001,2.2,4.1000000000000005,9.4,-11.900000000000002,-1.3,-2.3,16
265,4569.0,-0.2,-0.1,0.6000000000000001,2.2,4.1000000000000005,9.3,-4.1,-6.600000000000001,-0.2,16
266,4588.0,-0.2,-0.1,0.6000000000000001,2.2,4.1000000000000005,9.3,-4.1,-6.600000000000001,-0.2,16
267,4603.0,-0.2,-0.1,0.6000000000000001,2.3000000000000003,4.0,9.3,-3.1,-7.0,1.1,16
268,4618.0,-0.1,-0.1,0.7000000000000001,2.4000000000000004,4.0,9.4,-2.7,-4.5,2.0,16
269,4634.0,0.0,-0.2,0.7000000000000001,2.5,3.9000000000000004,9.5,-1.9,-0.7,2.1,16
270,4651.0,0.0,-0.2,0.5,2.5,3.9000000000000004,9.3,-1.1,4.800000000000001,1.8000000000000003,16
271,4672.0,0.0,-0.30000000000000004,0.2,2.4000000000000004,3.8000000000000003,9.0,-1.2000000000000002,11.3,1.5,16
272,4685.0,-0.1,-0.2,-0.2,2.3000000000000003,3.8000000000000003,8.6,-3.1,18.5,1.6,16
273,4701.0,-0.1,-0.2,-0.6000000000000001,2.3000000000000003,3.8000000000000003,8.3,-6.500000000000001,24.3,2.2,16
274,4718.0,0.1,-0.2,-0.9,2.4000000000000004,3.8000000000000003,8.0,-9.700000000000001,28.1,2.0,16
275,4735.0,0.1,-0.2,-1.3,2.3000000000000003,3.8000000000000003,7.6000000000000005,-12.8,27.2,0.1,16
276,4752.0,0.0,-0.1,-1.2000000000000002,2.1,3.8000000000000003,7.7,-16.8,21.1,-1.3,16
277,4769.0,0.0,-0.30000000000000004,-0.5,2.1,3.6,8.5,-17.400000000000002,9.4,-1.3,16
278,4784.0,0.1,-0.4,0.0,2.2,3.4000000000000004,9.0,-12.4,-1.9,-1.1,16
279,4801.0,0.0,-0.4,0.1,2.2,3.4000000000000004,9.1,-6.4,-11.700000000000001,-0.7,16
280,4819.0,0.1,-0.30000000000000004,0.0,2.3000000000000003,3.5,8.9,-4.1,-16.0,0.1,16
281,4835.0,0.1,-0.2,-0.1,2.4000000000000004,3.6,8.9,-6.300000000000001,-13.6,0.8,16
282,4852.0,0.1,-0.2,0.30000000000000004,2.4000000000000004,3.6,9.200000000000001,-10.5,-7.0,1.8000000000000003,16
283,4872.0,0.2,-0.2,0.6000000000000001,2.4000000000000004,3.6,9.600000000000001,-12.600000000000001,1.5,2.9,16
284,4890.0,0.1,0.0,0.7000000000000001,2.3000000000000003,3.7,9.700000000000001,-9.5,15.100000000000001,4.1,16
285,4901.0,0.1,0.0,0.7000000000000001,2.3000000000000003,3.7,9.700000000000001,-9.5,15.100000000000001,4.1,16
286,4918.0,0.1,0.1,0.6000000000000001,2.2,3.7,9.700000000000001,-7.200000000000001,18.200000000000003,4.300000000000001,16
287,4935.0,0.0,0.2,0.4,2.2,3.8000000000000003,9.5,-4.800000000000001,18.700000000000003,4.1,16
288,4958.0,0.0,0.30000000000000004,0.1,2.0,3.9000000000000004,9.200000000000001,-2.8,13.900000000000002,2.7,16
289,4969.0,0.0,0.30000000000000004,0.1,2.0,3.9000000000000004,9.200000000000001,-2.8,13.900000000000002,2.7,16
290,4998.0,0.1,0.1,0.30000000000000004,2.1,3.7,9.5,1.1,5.500000000000001,1.6,16
291,5001.0,0.1,0.1,0.30000000000000004,2.1,3.7,9.5,1.1,5.500000000000001,1.6,16
292,5018.0,0.2,0.1,0.30000000000000004,2.1,3.7,9.4,3.9,2.1,0.5,16
293,5035.0,0.2,0.0,0.2,2.1,3.6,9.3,6.1000000000000005,1.4,-0.6000000000000001,16
294,5052.0,0.1,-0.1,0.0,2.1,3.5,9.1,6.4,3.3000000000000007,-1.1,16
295,5074.0,0.0,-0.1,0.1,2.0,3.5,9.0,5.1000000000000005,5.7,-1.2000000000000002,16
296,5086.0,0.0,-0.1,0.1,2.0,3.5,9.200000000000001,4.1,6.699999999999999,-0.8,16
297,5102.0,0.0,-0.2,0.2,2.0,3.5,9.3,5.500000000000001,6.2,-0.1,16
298,5118.0,0.0,-0.2,0.0,1.9000000000000001,3.5,9.1,8.100000000000001,5.8,0.8,16
299,5137.0,0.0,-0.1,-0.2,1.9000000000000001,3.6,8.9,9.5,3.6000000000000005,1.7,16
300,5152.0,0.0,-0.1,-0.30000000000000004,1.9000000000000001,3.6,8.700000000000001,9.4,1.5,2.7,16
301,5168.0,0.1,0.0,-0.4,2.0,3.8000000000000003,8.6,8.100000000000001,-0.7,3.3000000000000007,16
302,5187.0,0.30000000000000004,0.1,-0.4,2.2,3.9000000000000004,8.6,6.500000000000001,-0.9000000000000001,4.1,16
303,5201.0,0.9,0.2,0.0,2.8000000000000003,4.0,9.0,4.5,0.6000000000000001,5.7,16
304,5218.0,1.4000000000000001,0.5,0.30000000000000004,3.4000000000000004,4.3,9.3,8.0,-2.7,2.7,16
305,5234.0,1.5,0.7000000000000001,0.0,3.5,4.5,9.0,13.100000000000001,-8.700000000000001,-4.4,16
306,5252.0,0.9,0.5,-0.7000000000000001,2.9000000000000004,4.4,8.200000000000001,12.4,-10.299999999999999,-11.8,16
307,5270.0,0.0,0.2,-1.0,2.0,4.1000000000000005,8.0,3.6000000000000005,-7.500000000000001,-15.2,16
308,5286.0,-0.4,-0.1,-0.6000000000000001,1.6,3.8000000000000003,8.4,-6.0,-0.6000000000000001,-12.8,16
309,5302.0,0.0,0.0,0.2,1.9000000000000001,3.9000000000000004,9.1,-9.899999999999999,3.5,-10.700000000000001,16
310,5318.0,0.2,0.0,0.5,2.1,3.9000000000000004,9.5,-7.9,3.3000000000000007,-12.100000000000001,16
311,5335.0,0.1,-0.2,0.9,2.0,3.7,9.8,-2.4000000000000004,2.6,-14.100000000000001,16
312,5352.0,-0.2,-0.30000000000000004,0.7000000000000001,1.7000000000000002,3.6,9.700000000000001,5.8,-1.7,-15.299999999999999,16
313,5369.0,-0.5,-0.30000000000000004,0.0,1.5,3.7,8.9,10.4,-3.6000000000000005,-15.000000000000002,16
314,5386.0,-0.6000000000000001,-0.2,-0.5,1.3,3.7,8.5,7.0,0.2,-12.7,16
315,5402.0,-0.8,-0.30000000000000004,-0.4,1.1,3.6,8.6,1.3,3.5,-8.4,16
316,5419.0,-0.5,-0.30000000000000004,0.0,1.4000000000000001,3.7,9.0,-1.9,6.1000000000000005,-4.5,16
317,5435.0,-0.30000000000000004,-0.1,0.2,1.6,3.8000000000000003,9.200000000000001,-0.30000000000000004,4.0,-4.4,16
318,5454.0,-0.4,-0.30000000000000004,0.0,1.4000000000000001,3.7,9.0,2.0,3.2,-4.300000000000001,16
319,5472.0,-0.6000000000000001,-0.30000000000000004,0.0,1.2000000000000002,3.7,9.0,2.6,3.6000000000000005,-3.4,16
320,5487.0,-0.7000000000000001,-0.2,-0.2,1.1,3.7,8.700000000000001,3.0,4.1,-1.0,16
321,5501.0,-0.4,-0.2,0.0,1.4000000000000001,3.8000000000000003,9.0,0.6000000000000001,6.699999999999999,1.5,16
322,5518.0,-0.2,-0.1,0.30000000000000004,1.6,3.9000000000000004,9.3,2.4000000000000004,3.3000000000000007,2.3,16
323,5534.0,0.0,0.0,0.30000000000000004,1.8,4.0,9.200000000000001,7.300000000000001,-3.4,2.7,16
324,5551.0,0.2,0.2,0.1,2.0,4.2,9.0,11.700000000000001,-11.2,2.2,16
325,5568.0,0.4,0.30000000000000004,-0.1,2.2,4.3,8.9,13.399999999999999,-15.399999999999999,2.1,16
326,5585.0,0.5,0.2,-0.1,2.4000000000000004,4.3,8.8,13.100000000000001,-15.299999999999999,1.6,16
327,5601.0,0.5,0.1,0.0,2.4000000000000004,4.3,8.9,12.600000000000001,-14.800000000000002,0.30000000000000004,16
328,5618.0,0.30000000000000004,0.1,0.0,2.2,4.2,8.8,12.7,-15.399999999999999,-1.0,16
329,5635.0,0.0,0.0,-0.4,2.1,4.2,8.4,11.5,-14.5,-1.5,16
330,5662.0,0.30000000000000004,0.1,-0.4,2.2,4.2,8.4,-9.899999999999999,15.8,-3.2,16
331,5667.0,0.30000000000000004,0.1,-0.4,2.2,4.2,8.4,-9.899999999999999,15.8,-3.2,16
332,5684.0,-0.2,-0.1,-0.1,1.7000000000000002,4.1000000000000005,8.700000000000001,-13.5,20.3,-4.6,16
333,5701.0,-0.30000000000000004,-0.2,0.4,1.5,3.9000000000000004,9.3,-17.5,24.7,-4.5,16
334,5718.0,-0.30000000000000004,-0.30000000000000004,0.6000000000000001,1.4000000000000001,3.8000000000000003,9.600000000000001,-12.8,22.700000000000003,-4.0,16
335,5735.0,-0.5,-0.30000000000000004,0.6000000000000001,1.3,3.8000000000000003,9.600000000000001,-5.1000000000000005,18.700000000000003,-2.7,16
336,5752.0,-0.5,-0.2,0.4,1.2000000000000002,3.8000000000000003,9.4,3.7000000000000006,10.8,-0.9000000000000001,16
337,5768.0,-0.4,-0.2,0.1,1.3,3.9000000000000004,9.1,11.2,1.8000000000000003,0.0,16
338,5784.0,-0.5,-0.2,0.0,1.2000000000000002,3.9000000000000004,8.9,17.400000000000002,-11.2,0.7,16
339,5801.0,-0.2,-0.2,-0.5,1.6,4.0,8.4,22.5,-24.3,2.9,16
340,5821.0,0.0,0.0,-0.8,1.9000000000000001,4.2,8.0,19.700000000000003,-31.2,3.1,16
341,5835.0,0.5,0.1,-1.3,2.5,4.4,7.5,8.4,-24.8,2.8,16
342,5851.0,1.0,0.1,-0.30000000000000004,3.0,4.4,8.5,-6.699999999999999,-9.2,0.4,16
343,5869.0,1.0,0.1,0.6000000000000001,3.0,4.3,9.4,-10.200000000000001,-2.6,-3.9,16
344,5888.0,0.8,0.1,0.8,2.8000000000000003,4.3,9.600000000000001,-6.9,-1.0,-7.9,16
345,5902.0,0.4,0.0,0.6000000000000001,2.4000000000000004,4.2,9.4,-4.0,2.0,-11.000000000000002,16
346,5918.0,0.1,0.0,0.4,2.0,4.2,9.200000000000001,-1.6,4.6,-11.5,16
347,5935.0,0.0,0.0,0.0,1.9000000000000001,4.2,8.9,-0.5,5.2,-11.4,16
348,5951.0,-0.1,0.1,-0.1,1.8,4.3,8.700000000000001,-1.2000000000000002,6.500000000000001,-11.000000000000002,16
349,5970.0,-0.1,0.1,0.1,1.8,4.3,8.9,-1.7,6.699999999999999,-11.1,16
350,5988.0,-0.2,0.0,-0.4,1.6,4.2,8.4,-0.1,5.7,-9.2,16
351,6004.0,-0.2,0.0,0.30000000000000004,1.5,4.3,9.200000000000001,-0.1,4.800000000000001,-12.299999999999999,16
352,6018.0,-0.2,0.0,0.30000000000000004,1.5,4.3,9.200000000000001,-0.1,4.800000000000001,-12.299999999999999,16
353,6039.0,-0.30000000000000004,0.0,-0.4,1.4000000000000001,4.3,8.5,4.1,-1.8000000000000003,-11.2,16
354,6051.0,-0.30000000000000004,0.0,-0.7000000000000001,1.4000000000000001,4.3,8.1,0.2,-1.3,-9.8,16
355,6068.0,-0.4,0.0,-0.2,1.3,4.2,8.700000000000001,-5.8,1.3,-9.2,16
356,6084.0,-0.2,-0.1,0.2,1.5,4.2,9.1,-4.9,0.1,-8.0,16
357,6101.0,-0.30000000000000004,-0.1,0.2,1.4000000000000001,4.2,9.1,-1.6,-2.1,-8.0,16
358,6118.0,-0.4,-0.1,0.2,1.3,4.2,9.0,0.6000000000000001,-4.1,-7.8,16
359,6134.0,-0.4,-0.1,0.1,1.3,4.2,9.0,1.9,-5.4,-6.8,16
360,6152.0,-0.4,-0.1,0.1,1.3,4.2,9.0,2.3,-4.6,-5.8,16
361,6167.0,-0.4,-0.1,0.1,1.3,4.2,8.9,2.8,-5.4,-5.0,16
362,6188.0,-0.5,-0.1,0.0,1.2000000000000002,4.2,8.9,3.6000000000000005,-8.0,-3.4,16
363,6202.0,-0.4,-0.1,0.0,1.3,4.2,8.9,3.3000000000000007,-9.8,-1.3,16
364,6218.0,-0.30000000000000004,-0.1,0.1,1.5,4.2,8.9,3.2,-10.299999999999999,0.5,16
365,6235.0,-0.2,-0.1,0.1,1.6,4.2,8.9,3.2,-8.600000000000001,1.1,16
366,6251.0,-0.1,0.0,0.2,1.7000000000000002,4.3,9.0,3.1,-6.2,1.6,16
367,6268.0,-0.1,0.0,0.2,1.7000000000000002,4.3,9.0,3.5,-3.9,1.5,16
368,6289.0,-0.30000000000000004,-0.1,0.2,1.5,4.2,9.0,4.800000000000001,-4.0,1.6,16
369,6303.0,-0.5,-0.2,0.0,1.4000000000000001,4.2,8.8,6.4,-5.7,3.2,16
370,6318.0,-0.30000000000000004,0.0,-0.4,1.6,4.3,8.4,5.7,-6.600000000000001,4.6,16
371,6334.0,-0.1,0.1,-0.7000000000000001,1.8,4.5,8.1,-0.8,1.1,4.1,16
372,6352.0,0.1,0.2,-0.2,1.9000000000000001,4.5,8.6,-9.4,12.100000000000001,3.3000000000000007,16
373,6368.0,0.2,0.30000000000000004,0.4,2.0,4.6000000000000005,9.200000000000001,-11.8,16.3,2.7,16
374,6388.0,0.4,0.30000000000000004,0.8,2.2,4.5,9.700000000000001,-8.4,14.0,1.8000000000000003,16
375,6401.0,0.30000000000000004,0.2,0.7000000000000001,2.0,4.5,9.5,-1.0,8.899999999999999,-0.7,16
376,6418.0,-0.2,0.1,0.2,1.6,4.4,9.1,4.300000000000001,2.9,-2.0,16
377,6435.0,-0.4,0.0,-0.1,1.4000000000000001,4.3,8.8,6.699999999999999,-2.4000000000000004,-0.30000000000000004,16
378,6452.0,-0.30000000000000004,-0.1,-0.2,1.4000000000000001,4.2,8.700000000000001,7.1000000000000005,-6.600000000000001,1.1,16
379,6470.0,-0.30000000000000004,-0.1,-0.2,1.4000000000000001,4.2,8.6,6.9,-7.400000000000001,2.2,16
380,6484.0,-0.30000000000000004,-0.2,-0.30000000000000004,1.5,4.2,8.5,6.0,-7.500000000000001,3.4,16
381,6501.0,-0.2,-0.1,-0.4,1.6,4.2,8.4,4.0,-5.300000000000001,5.1000000000000005,16
382,6518.0,0.0,-0.1,-0.4,1.8,4.2,8.4,0.6000000000000001,-2.2,6.1000000000000005,16
383,6536.0,-0.1,-0.1,-0.30000000000000004,1.8,4.3,8.5,-2.8,1.6,6.699999999999999,16
384,6551.0,0.0,0.0,-0.2,1.9000000000000001,4.3,8.6,-5.500000000000001,4.4,7.1000000000000005,16
385,6571.0,0.1,0.0,0.1,1.9000000000000001,4.3,8.9,-7.1000000000000005,4.800000000000001,6.2,16
386,6584.0,0.1,0.0,0.2,1.9000000000000001,4.2,9.1,-5.8,3.7000000000000006,5.6,16
387,6602.0,0.1,-0.1,0.30000000000000004,1.9000000000000001,4.2,9.1,-3.2,2.3,5.4,16
388,6618.0,0.1,-0.1,0.2,1.9000000000000001,4.2,9.0,-1.0,2.6,5.0,16
389,6634.0,0.0,-0.1,0.2,1.9000000000000001,4.2,9.0,0.4,2.6,4.6,16
390,6651.0,-0.1,-0.1,0.1,1.8,4.2,8.9,1.1,3.1,5.2,16
391,6673.0,0.0,0.0,0.1,1.8,4.2,8.9,0.7,4.2,5.4,16
392,6688.0,0.0,0.0,0.1,1.8,4.2,8.9,0.4,6.0,4.9,16
393,6701.0,-0.1,0.0,0.1,1.7000000000000002,4.2,9.0,1.2000000000000002,6.2,4.5,16
394,6718.0,0.0,0.0,0.2,1.8,4.3,9.1,3.2,3.2,4.2,16
395,6734.0,0.0,0.0,0.0,1.8,4.3,8.9,5.1000000000000005,1.7,4.1,16
396,6751.0,0.0,0.1,0.0,1.8,4.4,8.8,4.7,1.0,4.2,16
397,6769.0,0.2,0.2,0.0,2.0,4.5,8.8,4.5,1.6,4.0,16
398,6784.0,0.30000000000000004,0.30000000000000004,0.0,2.1,4.6000000000000005,8.9,4.300000000000001,2.4000000000000004,2.4000000000000004,16
399,6801.0,0.30000000000000004,0.30000000000000004,-0.1,2.1,4.6000000000000005,8.700000000000001,3.9,3.2,-1.9,16
400,6818.0,-0.4,0.1,-0.5,1.4000000000000001,4.5,8.3,1.2000000000000002,4.2,-8.0,16
401,6835.0,-1.2000000000000002,-0.2,-0.5,0.5,4.1000000000000005,8.3,-2.8,7.1000000000000005,-4.4,16
402,6858.0,-0.5,-0.1,-1.8,1.1,4.2,7.0,-15.2,21.7,3.6000000000000005,16
403,6869.0,-0.5,-0.30000000000000004,0.6000000000000001,1.0,3.9000000000000004,9.4,-34.50000000000001,45.9,4.1,16
404,6889.0,-0.4,-0.30000000000000004,1.1,1.1,3.8000000000000003,10.0,-26.400000000000006,39.8,3.8,16
405,6902.0,-0.1,-0.1,0.9,1.3,4.0,9.8,-14.900000000000002,30.4,4.7,16
406,6919.0,0.30000000000000004,0.1,0.5,1.6,4.2,9.5,-7.0,20.8,5.8,16
407,6935.0,0.5,0.2,0.8,1.8,4.3,9.700000000000001,-1.3,8.4,4.7,16
408,6951.0,0.5,0.0,0.7000000000000001,1.8,4.1000000000000005,9.600000000000001,7.300000000000001,-2.5,2.5,16
409,6970.0,0.4,-0.1,0.30000000000000004,1.8,4.1000000000000005,9.3,14.400000000000002,-9.8,2.8,16
410,6989.0,0.30000000000000004,-0.1,0.0,1.7000000000000002,4.1000000000000005,8.9,17.400000000000002,-14.0,2.9,16
411,7001.0,0.30000000000000004,-0.2,-0.30000000000000004,1.7000000000000002,4.0,8.6,17.799999999999997,-14.800000000000002,2.3,16
412,7019.0,0.2,-0.2,-0.4,1.7000000000000002,4.0,8.4,15.399999999999999,-12.600000000000001,1.9,16
413,7035.0,0.30000000000000004,-0.2,-0.5,1.8,4.1000000000000005,8.4,11.8,-10.299999999999999,1.7,16
414,7052.0,0.2,-0.30000000000000004,-0.5,1.7000000000000002,4.0,8.3,9.0,-9.899999999999999,1.0,16
415,7068.0,0.1,-0.30000000000000004,-0.5,1.7000000000000002,4.0,8.3,6.0,-9.8,1.3,16
416,7086.0,0.2,-0.30000000000000004,-0.30000000000000004,1.7000000000000002,4.0,8.5,3.2,-8.700000000000001,1.5,16
417,7101.0,0.2,-0.30000000000000004,-0.2,1.8,4.1000000000000005,8.6,1.8000000000000003,-7.6,1.1,16
418,7122.0,-0.1,-0.30000000000000004,-0.4,1.5,4.1000000000000005,8.4,-0.7,-2.9,1.1,16
419,7135.0,-0.1,-0.30000000000000004,-0.4,1.5,4.1000000000000005,8.4,-0.7,-2.9,1.1,16
420,7152.0,-0.2,-0.2,-0.2,1.4000000000000001,4.1000000000000005,8.6,-3.0,-3.2,2.0,16
421,7183.0,-0.1,-0.1,0.1,1.5,4.1000000000000005,8.9,-4.4,-5.9,3.8,16
422,7184.0,-0.1,-0.1,0.1,1.5,4.1000000000000005,8.9,-4.4,-5.9,3.8,16
423,7201.0,-0.1,-0.1,0.1,1.5,4.2,8.9,-4.0,-7.400000000000001,4.1,16
424,7218.0,0.0,-0.1,0.2,1.7000000000000002,4.2,9.0,-4.300000000000001,-6.1000000000000005,4.6,16
425,7235.0,0.0,0.0,0.30000000000000004,1.7000000000000002,4.3,9.1,-5.1000000000000005,-3.6000000000000005,4.5,16
426,7251.0,0.0,0.0,0.30000000000000004,1.8,4.3,9.1,-5.6,0.1,4.5,16
427,7276.0,0.1,0.1,0.30000000000000004,1.8,4.3,9.200000000000001,-6.9,4.800000000000001,4.4,16
428,7285.0,0.2,0.1,0.30000000000000004,1.9000000000000001,4.3,9.200000000000001,-8.100000000000001,10.4,3.8,16
429,7301.0,0.2,0.2,0.4,1.9000000000000001,4.3,9.200000000000001,-9.0,14.5,2.4000000000000004,16
430,7318.0,0.2,0.2,0.30000000000000004,1.8,4.3,9.200000000000001,-8.600000000000001,15.6,1.3,16
431,7335.0,0.1,0.1,0.30000000000000004,1.7000000000000002,4.2,9.200000000000001,-8.0,15.899999999999999,1.4,16
432,7352.0,0.2,0.1,0.4,1.8,4.2,9.3,-6.9,16.3,2.2,16
433,7369.0,0.4,0.1,0.5,1.9000000000000001,4.2,9.5,-3.2,13.700000000000001,1.6,16
434,7384.0,0.30000000000000004,0.0,0.30000000000000004,1.8,4.1000000000000005,9.3,2.1,9.100000000000001,-0.4,16
435,7403.0,0.1,0.0,-0.1,1.6,4.1000000000000005,8.9,5.6,5.300000000000001,-1.5,16
436,7418.0,0.0,-0.1,-0.30000000000000004,1.5,4.0,8.6,5.8,1.3,-1.5,16
437,7435.0,-0.1,-0.2,-0.5,1.4000000000000001,3.9000000000000004,8.4,3.6000000000000005,0.0,-0.7,16
438,7451.0,0.0,-0.2,-0.4,1.5,3.9000000000000004,8.6,0.5,0.4,0.30000000000000004,16
439,7468.0,0.1,-0.30000000000000004,-0.1,1.6,3.9000000000000004,8.8,-1.1,2.4000000000000004,0.2,16
440,7488.0,0.0,-0.30000000000000004,0.1,1.5,3.8000000000000003,9.0,0.0,0.5,-1.0,16
441,7502.0,-0.2,-0.2,-0.5,1.3,3.9000000000000004,8.4,0.7,0.7,-0.1,16
442,7519.0,0.1,-0.1,-0.4,1.5,4.0,8.5,-5.1000000000000005,6.4,1.9,16
443,7535.0,0.30000000000000004,0.0,-0.1,1.7000000000000002,4.1000000000000005,8.8,-9.0,9.8,0.8,16
444,7552.0,0.0,-0.2,0.30000000000000004,1.4000000000000001,3.9000000000000004,9.3,-8.5,10.299999999999999,-1.1,16
445,7578.0,-0.1,-0.1,0.1,1.3,3.9000000000000004,9.0,2.3,-5.9,2.9,16
446,7587.0,-0.1,-0.1,0.1,1.3,3.9000000000000004,9.0,2.3,-5.9,2.9,16
447,7601.0,0.2,-0.1,0.0,1.7000000000000002,4.0,8.9,4.300000000000001,-10.600000000000001,3.8,16
448,7619.0,0.4,0.0,-0.1,1.9000000000000001,4.0,8.8,3.9,-10.9,2.7,16
449,7635.0,0.2,0.0,0.0,1.8,4.0,8.9,2.3,-9.4,1.1,16
450,7652.0,0.2,-0.1,0.1,1.7000000000000002,4.0,9.0,1.6,-8.2,0.5,16
451,7668.0,0.1,-0.1,0.1,1.7000000000000002,3.9000000000000004,9.0,1.0,-6.2,0.2,16
452,7686.0,0.0,-0.1,0.1,1.6,3.9000000000000004,9.1,0.4,-4.1,0.30000000000000004,16
453,7701.0,0.0,-0.1,0.1,1.6,4.0,9.0,0.7,-2.5,0.2,16
454,7719.0,0.0,0.0,0.0,1.6,4.1000000000000005,8.9,1.1,-2.7,-0.1,16
455,7736.0,0.0,0.1,0.1,1.6,4.2,9.0,1.1,-4.7,-0.5,16
456,7751.0,0.0,0.1,0.2,1.6,4.2,9.1,2.0,-6.500000000000001,-0.6000000000000001,16
457,7776.0,0.0,0.1,0.30000000000000004,1.6,4.1000000000000005,9.200000000000001,6.4,-10.600000000000001,0.4,16
458,7784.0,0.0,0.1,0.30000000000000004,1.7000000000000002,4.1000000000000005,9.200000000000001,6.4,-10.600000000000001,0.4,16
459,7801.0,0.0,0.1,0.1,1.7000000000000002,4.2,9.0,8.3,-12.5,0.9000000000000001,16
460,7818.0,0.0,0.1,0.0,1.8,4.2,8.8,8.3,-13.3,1.0,16
461,7835.0,0.0,0.1,-0.2,1.8,4.2,8.700000000000001,7.0,-11.900000000000002,1.3,16
462,7851.0,0.1,0.1,-0.1,1.9000000000000001,4.3,8.700000000000001,4.300000000000001,-9.0,1.6,16
463,7876.0,0.4,0.1,-0.2,2.2,4.3,8.6,-1.6,0.8,-0.7,16
464,7885.0,0.4,0.1,-0.2,2.2,4.3,8.6,-1.6,0.8,-0.7,16
465,7901.0,0.0,0.0,0.2,1.8,4.2,9.0,-3.2,4.300000000000001,-3.4,16
466,7921.0,-0.2,0.0,0.0,1.6,4.2,8.8,-3.4,3.9,-2.9,16
467,7935.0,-0.1,0.0,0.2,1.7000000000000002,4.1000000000000005,9.0,-4.800000000000001,5.2,-1.6,16
468,7951.0,0.0,0.0,0.30000000000000004,1.7000000000000002,4.1000000000000005,9.200000000000001,-4.5,5.500000000000001,-1.7,16
469,7974.0,-0.1,0.0,0.4,1.6,4.1000000000000005,9.3,-2.2,4.1,-1.9,16
470,7989.0,-0.2,0.0,0.2,1.5,4.1000000000000005,9.1,1.1,0.8,-0.6000000000000001,16
471,8001.0,-0.1,0.0,0.1,1.7000000000000002,4.1000000000000005,9.0,3.3000000000000007,-2.0,1.3,16
472,8024.0,0.1,0.0,-0.1,1.8,4.2,8.8,4.2,-4.9,2.7,16
473,8035.0,0.1,0.1,-0.1,1.9000000000000001,4.2,8.8,4.0,-9.2,2.2,16
474,8055.0,0.1,0.0,0.0,1.9000000000000001,4.2,8.8,3.6000000000000005,-12.8,1.2000000000000002,16
475,8068.0,0.0,0.0,0.0,1.9000000000000001,4.1000000000000005,8.9,4.1,-12.100000000000001,0.2,16
476,8084.0,-0.2,-0.2,-0.1,1.7000000000000002,4.0,8.8,4.800000000000001,-11.2,-0.6000000000000001,16
477,8101.0,-0.4,-0.30000000000000004,-0.2,1.5,3.9000000000000004,8.6,3.5,-6.699999999999999,0.4,16
478,8118.0,-0.5,-0.2,-0.2,1.4000000000000001,3.9000000000000004,8.6,-0.5,-3.7000000000000006,1.5,16
479,8136.0,-0.30000000000000004,-0.30000000000000004,0.2,1.5,3.9000000000000004,9.0,-2.5,-0.5,3.7000000000000006,16
480,8152.0,0.1,-0.1,0.30000000000000004,2.0,4.1000000000000005,9.1,1.3,-1.8000000000000003,5.8,16
481,8169.0,0.1,0.0,0.0,2.0,4.2,8.8,3.3000000000000007,-4.6,4.4,16
482,8187.0,0.2,0.0,0.0,2.1,4.1000000000000005,8.8,3.7000000000000006,-4.5,4.2,16
483,8201.0,0.2,0.0,0.0,2.2,4.2,8.8,4.800000000000001,-6.9,2.7,16
484,8218.0,0.2,0.1,-0.1,2.2,4.3,8.700000000000001,5.8,-10.8,0.9000000000000001,16
485,8235.0,0.0,0.1,-0.30000000000000004,2.0,4.3,8.5,4.1,-11.4,-0.2,16
486,8253.0,0.0,0.1,-0.2,2.1,4.4,8.6,1.7,-9.4,0.6000000000000001,16
487,8269.0,0.1,0.1,0.0,2.2,4.3,8.700000000000001,0.1,-7.8,0.6000000000000001,16
488,8287.0,0.0,0.1,0.1,2.1,4.3,8.9,-0.1,-6.600000000000001,0.30000000000000004,16
489,8302.0,0.0,0.0,0.2,2.1,4.3,8.9,1.0,-5.9,0.5,16
490,8317.0,0.0,0.1,0.1,2.1,4.3,8.9,2.3,-6.500000000000001,0.30000000000000004,16
491,8334.0,0.1,0.1,0.0,2.2,4.3,8.8,3.5,-7.500000000000001,-0.2,16
492,8352.0,0.1,0.1,0.0,2.3000000000000003,4.4,8.700000000000001,3.5,-8.899999999999999,-1.8000000000000003,16
493,8373.0,0.0,0.1,-0.1,2.2,4.4,8.700000000000001,2.0,-8.700000000000001,-3.3000000000000007,16
494,8385.0,0.0,0.1,-0.1,2.2,4.3,8.700000000000001,0.2,-6.4,-4.0,16
495,8404.0,0.1,0.0,0.30000000000000004,2.3000000000000003,4.3,9.0,-1.0,-1.5,-4.6,16
496,8418.0,0.1,0.0,0.30000000000000004,2.3000000000000003,4.3,9.0,-1.0,-1.5,-4.6,16
497,8434.0,0.0,0.0,0.30000000000000004,2.2,4.3,9.0,1.3,-2.4000000000000004,-5.2,16
498,8451.0,-0.1,0.0,0.1,2.1,4.3,8.8,3.5,-3.4,-5.2,16
499,8470.0,-0.1,0.0,-0.1,2.1,4.3,8.6,4.1,-4.300000000000001,-4.800000000000001,16
500,8484.0,-0.2,0.0,-0.2,2.0,4.3,8.5,3.1,-5.4,-5.1000000000000005,16
501,8501.0,-0.2,-0.1,-0.2,2.0,4.3,8.5,2.5,-5.6,-4.1,16
502,8518.0,-0.2,-0.1,-0.2,2.0,4.3,8.4,2.4000000000000004,-5.8,-2.8,16
503,8535.0,-0.1,0.0,-0.2,2.2,4.4,8.5,1.4,-7.8,-2.4000000000000004,16
504,8551.0,-0.1,0.0,0.0,2.2,4.4,8.700000000000001,0.7,-9.0,-2.8,16
505,8568.0,-0.1,0.0,0.1,2.2,4.3,8.8,0.7,-8.600000000000001,-2.7,16
506,8584.0,-0.1,-0.1,0.1,2.2,4.3,8.8,0.9000000000000001,-5.500000000000001,-1.8000000000000003,16
507,8601.0,-0.1,0.0,0.1,2.2,4.3,8.8,0.4,-3.1,-0.9000000000000001,16
508,8619.0,-0.1,0.0,0.2,2.2,4.3,8.8,0.30000000000000004,-1.7,-0.5,16
509,8635.0,-0.1,0.0,0.0,2.1,4.4,8.700000000000001,1.2000000000000002,0.0,-0.9000000000000001,16
510,8652.0,-0.2,0.0,-0.2,2.1,4.4,8.5,1.3,-0.4,-0.8,16
511,8669.0,-0.2,0.1,-0.2,2.1,4.5,8.5,-0.5,-4.0,-0.8,16
512,8685.0,-0.2,0.1,0.0,2.1,4.4,8.700000000000001,-1.7,-4.9,-0.1,16
513,8703.0,-0.1,0.1,0.1,2.2,4.5,8.8,-1.6,-4.6,0.7,16
514,8718.0,0.0,0.1,0.1,2.3000000000000003,4.5,8.8,-1.0,-4.2,0.9000000000000001,16
515,8734.0,0.0,0.1,0.1,2.4000000000000004,4.4,8.8,-0.4,-2.0,0.4,16
516,8752.0,-0.1,0.1,0.2,2.3000000000000003,4.4,8.8,0.0,-2.3,0.2,16
517,8768.0,-0.2,-0.1,0.2,2.2,4.3,8.9,0.7,-1.9,0.8,16
518,8785.0,-0.2,-0.1,0.1,2.1,4.3,8.8,1.8000000000000003,-1.4,2.2,16
519,8801.0,0.0,-0.1,0.2,2.3000000000000003,4.3,8.8,2.6,-2.2,2.9,16
520,8817.0,-0.1,-0.1,0.1,2.3000000000000003,4.2,8.8,3.3000000000000007,-2.9,2.7,16
521,8835.0,-0.1,-0.1,0.0,2.2,4.2,8.6,3.8,-2.7,3.5,16
522,8851.0,0.0,-0.1,0.0,2.3000000000000003,4.3,8.6,3.2,-3.7000000000000006,4.6,16
523,8871.0,0.0,-0.1,0.0,2.4000000000000004,4.3,8.6,2.2,-4.2,5.2,16
524,8886.0,0.2,0.0,0.1,2.6,4.3,8.700000000000001,2.1,-3.6000000000000005,5.4,16
525,8901.0,0.1,0.0,0.0,2.5,4.4,8.6,2.4000000000000004,-3.5,4.7,16
526,8917.0,0.1,0.0,-0.1,2.5,4.4,8.5,2.2,-2.9,5.0,16
527,8934.0,0.2,0.1,-0.1,2.6,4.5,8.5,0.9000000000000001,-3.0,5.2,16
528,8951.0,0.2,0.1,0.1,2.7,4.5,8.700000000000001,0.30000000000000004,-2.2,4.4,16
529,8969.0,0.2,0.1,0.0,2.7,4.5,8.6,0.8,-0.9000000000000001,3.6000000000000005,16
530,8985.0,0.2,0.2,-0.1,2.7,4.5,8.5,0.2,-1.2000000000000002,2.8,16
531,9001.0,0.2,0.2,0.0,2.7,4.5,8.6,-0.9000000000000001,-1.7,2.3,16
532,9017.0,0.30000000000000004,0.1,0.2,2.9000000000000004,4.5,8.8,-0.8,-1.9,1.6,16
533,9034.0,0.30000000000000004,0.1,0.2,2.8000000000000003,4.5,8.9,0.9000000000000001,-1.9,0.2,16
534,9051.0,0.1,0.1,0.1,2.6,4.4,8.700000000000001,2.3,-1.9,-0.7,16
535,9068.0,0.1,0.0,0.0,2.6,4.4,8.6,2.6,-1.3,-0.8,16
536,9087.0,0.0,0.0,0.0,2.6,4.4,8.6,2.2,-1.4,-1.0,16
537,9101.0,0.0,0.0,-0.1,2.5,4.4,8.5,1.4,-1.0,-0.4,16
538,9119.0,0.1,0.0,0.0,2.7,4.4,8.6,0.1,-1.8000000000000003,-0.2,16
539,9135.0,0.1,0.0,0.1,2.7,4.4,8.700000000000001,-0.2,-1.9,-0.5,16
540,9155.0,0.2,0.0,0.0,2.8000000000000003,4.4,8.6,0.5,-0.5,-0.7,16
541,9167.0,0.2,0.1,0.1,2.8000000000000003,4.5,8.700000000000001,0.9000000000000001,-0.8,-1.8000000000000003,16
542,9185.0,0.1,0.0,0.0,2.7,4.4,8.6,2.1,-0.5,-2.9,16
543,9201.0,-0.1,0.0,-0.2,2.5,4.5,8.4,2.0,-1.5,-3.2,16
544,9218.0,0.0,0.0,-0.2,2.5,4.5,8.4,0.0,-1.6,-2.2,16
545,9234.0,0.0,0.0,-0.1,2.6,4.5,8.5,-1.6,-0.5,-2.1,16
546,9251.0,0.0,0.1,0.1,2.6,4.5,8.700000000000001,-2.9,-0.9000000000000001,-2.8,16
547,9269.0,0.0,0.0,0.2,2.6,4.5,8.8,-2.7,-0.5,-3.3000000000000007,16
548,9286.0,-0.1,0.0,0.30000000000000004,2.5,4.4,8.9,-1.0,-0.7,-2.9,16
549,9301.0,-0.1,0.0,0.2,2.5,4.4,8.8,1.2000000000000002,-0.4,-2.2,16
550,9318.0,0.0,0.0,0.1,2.5,4.4,8.700000000000001,2.2,-0.2,-1.5,16
551,9335.0,0.0,0.0,0.1,2.6,4.5,8.700000000000001,2.2,0.6000000000000001,-1.4,16
552,9351.0,0.0,0.0,0.1,2.6,4.5,8.700000000000001,2.3,1.6,-1.7,16
553,9374.0,0.1,0.1,0.1,2.7,4.5,8.700000000000001,2.1,0.9000000000000001,-1.7,16
554,9385.0,0.1,0.1,0.1,2.7,4.5,8.700000000000001,2.8,1.2000000000000002,-1.8000000000000003,16
555,9401.0,0.1,0.1,0.0,2.6,4.6000000000000005,8.6,3.2,1.8000000000000003,-2.2,16
556,9419.0,0.1,0.0,0.0,2.6,4.5,8.6,2.9,2.5,-2.2,16
557,9435.0,0.0,0.0,0.0,2.6,4.5,8.6,3.0,2.6,-2.2,16
558,9451.0,0.0,0.0,-0.1,2.6,4.5,8.5,3.2,2.7,-2.4000000000000004,16
559,9468.0,0.0,0.0,-0.1,2.5,4.5,8.5,3.3000000000000007,3.8,-2.6,16
560,9485.0,-0.1,0.0,-0.1,2.4000000000000004,4.5,8.4,3.3000000000000007,5.300000000000001,-2.1,16
561,9502.0,-0.1,0.0,-0.2,2.4000000000000004,4.5,8.4,3.9,5.8,-1.8000000000000003,16
562,9518.0,-0.1,0.0,-0.2,2.3000000000000003,4.6000000000000005,8.3,4.4,5.1000000000000005,-2.1,16
563,9534.0,-0.1,0.0,-0.2,2.4000000000000004,4.6000000000000005,8.3,4.6,4.0,-2.5,16
564,9553.0,-0.1,0.0,-0.30000000000000004,2.3000000000000003,4.6000000000000005,8.3,4.300000000000001,4.0,-3.3000000000000007,16
565,9574.0,-0.1,0.0,-0.30000000000000004,2.3000000000000003,4.6000000000000005,8.200000000000001,1.5,4.7,-5.0,16
566,9585.0,-0.1,0.0,-0.30000000000000004,2.3000000000000003,4.6000000000000005,8.200000000000001,1.5,4.7,-5.0,16
567,9601.0,-0.1,0.0,-0.2,2.3000000000000003,4.6000000000000005,8.4,-0.7,4.800000000000001,-5.8,16
568,9618.0,-0.1,0.0,-0.1,2.2,4.6000000000000005,8.5,-1.8000000000000003,6.0,-6.699999999999999,16
569,9634.0,-0.2,0.0,0.1,2.1,4.6000000000000005,8.700000000000001,-2.5,5.7,-7.200000000000001,16
570,9651.0,-0.1,-0.1,0.30000000000000004,2.2,4.5,8.9,-2.2,5.7,-6.699999999999999,16
571,9673.0,0.0,0.0,0.4,2.2,4.6000000000000005,9.0,-0.4,5.8,-6.600000000000001,16
572,9684.0,0.0,-0.1,0.4,2.3000000000000003,4.5,9.0,2.4000000000000004,6.699999999999999,-6.500000000000001,16
573,9701.0,-0.1,0.0,0.1,2.1,4.6000000000000005,8.700000000000001,4.300000000000001,6.9,-6.1000000000000005,16
574,9718.0,-0.1,0.0,-0.1,2.1,4.7,8.5,4.0,5.500000000000001,-4.300000000000001,16
575,9735.0,0.0,0.0,-0.1,2.2,4.7,8.5,2.9,5.1000000000000005,-2.5,16
576,9751.0,0.1,0.1,0.0,2.2,4.7,8.6,2.5,3.9,-1.6,16
577,9770.0,0.2,0.0,0.0,2.4000000000000004,4.7,8.6,2.5,1.8000000000000003,-0.9000000000000001,16
578,9785.0,0.2,0.0,0.0,2.3000000000000003,4.7,8.6,2.2,-0.7,-1.3,16
579,9804.0,0.2,-0.1,0.0,2.3000000000000003,4.6000000000000005,8.6,1.5,-0.30000000000000004,-1.5,16
580,9818.0,0.0,-0.2,0.0,2.2,4.5,8.6,1.0,3.2,-1.7,16
581,9835.0,-0.2,-0.30000000000000004,-0.1,2.0,4.4,8.5,0.1,5.4,-0.9000000000000001,16
582,9851.0,-0.30000000000000004,-0.30000000000000004,-0.2,1.8,4.4,8.4,-0.4,7.400000000000001,0.9000000000000001,16
583,9868.0,-0.30000000000000004,-0.2,-0.1,1.8,4.4,8.5,-0.8,6.1000000000000005,3.1,16
584,9884.0,-0.2,-0.2,-0.1,1.8,4.5,8.5,-0.7,2.8,4.800000000000001,16
585,9903.0,-0.1,-0.1,-0.1,2.0,4.5,8.5,-0.6000000000000001,-0.6000000000000001,5.4,16
586,9918.0,0.0,-0.1,0.0,2.1,4.6000000000000005,8.6,-0.8,-1.9,5.500000000000001,16
587,9934.0,0.1,0.0,0.1,2.2,4.6000000000000005,8.700000000000001,-0.7,-1.3,5.300000000000001,16
588,9951.0,0.2,0.0,0.0,2.3000000000000003,4.6000000000000005,8.5,-1.4,1.6,4.2,16
589,9969.0,0.2,0.0,-0.1,2.3000000000000003,4.6000000000000005,8.5,-3.5,5.9,3.1,16
590,9985.0,0.30000000000000004,0.0,-0.1,2.4000000000000004,4.6000000000000005,8.5,-6.699999999999999,8.700000000000001,2.4000000000000004,16
591,10001.0,0.30000000000000004,0.0,0.2,2.4000000000000004,4.6000000000000005,8.8,-8.899999999999999,10.5,0.8,16
592,10018.0,0.2,0.0,0.30000000000000004,2.3000000000000003,4.5,8.9,-7.500000000000001,10.8,-0.6000000000000001,16
593,10035.0,0.1,-0.1,0.30000000000000004,2.2,4.5,9.0,-4.0,6.9,-1.0,16
594,10051.0,0.0,-0.1,0.2,2.1,4.4,8.9,0.4,1.5,-1.2000000000000002,16
595,10068.0,-0.1,-0.1,0.0,1.9000000000000001,4.4,8.6,3.2,-2.3,-0.8,16
596,10085.0,-0.2,-0.1,-0.2,1.8,4.4,8.4,3.2,-4.4,0.4,16
597,10103.0,-0.1,-0.1,-0.30000000000000004,2.0,4.4,8.3,1.6,-5.500000000000001,2.0,16
598,10118.0,0.0,-0.1,-0.2,2.1,4.5,8.4,-1.6,-4.7,2.5,16
599,10134.0,0.1,0.0,0.1,2.2,4.5,8.8,-3.4,-2.1,2.2,16
600,10151.0,0.1,0.0,0.30000000000000004,2.2,4.5,9.0,-2.1,-2.0,0.9000000000000001,16
601,10170.0,0.0,-0.1,0.30000000000000004,2.1,4.4,8.9,0.6000000000000001,-2.9,0.30000000000000004,16
602,10186.0,-0.1,-0.1,0.30000000000000004,2.1,4.5,9.0,2.4000000000000004,-6.2,0.5,16
603,10201.0,0.0,-0.1,0.30000000000000004,2.2,4.5,9.0,5.0,-8.100000000000001,1.2000000000000002,16
604,10218.0,0.1,0.0,0.2,2.3000000000000003,4.5,8.9,8.100000000000001,-9.3,1.4,16
605,10236.0,0.1,0.0,0.1,2.3000000000000003,4.6000000000000005,8.700000000000001,10.0,-12.100000000000001,0.9000000000000001,16
606,10251.0,0.1,0.0,0.0,2.4000000000000004,4.6000000000000005,8.6,11.1,-13.399999999999999,0.5,16
607,10270.0,0.1,0.0,-0.1,2.4000000000000004,4.6000000000000005,8.5,11.5,-13.200000000000003,-0.7,16
608,10285.0,0.0,0.0,-0.2,2.3000000000000003,4.6000000000000005,8.3,10.9,-12.100000000000001,-1.5,16
609,10303.0,-0.1,-0.1,-0.1,2.3000000000000003,4.6000000000000005,8.4,9.5,-10.9,-0.5,16
610,10318.0,-0.1,0.0,-0.1,2.3000000000000003,4.7,8.4,8.3,-11.000000000000002,-0.1,16
611,10334.0,-0.2,-0.1,0.1,2.2,4.6000000000000005,8.6,8.2,-10.5,0.9000000000000001,16
612,10351.0,-0.2,-0.1,0.1,2.2,4.7,8.5,9.3,-12.8,2.4000000000000004,16
613,10369.0,-0.1,0.0,-0.30000000000000004,2.4000000000000004,4.800000000000001,8.1,8.5,-12.8,4.9,16
614,10385.0,0.7000000000000001,0.30000000000000004,-0.2,3.2,5.1000000000000005,8.200000000000001,2.3,-5.1000000000000005,6.4,16
615,10403.0,0.9,0.4,0.0,3.4000000000000004,5.2,8.5,1.6,1.5,1.6,16
616,10418.0,0.5,0.30000000000000004,-0.1,3.1,5.1000000000000005,8.4,1.2000000000000002,-1.6,-5.0,16
617,10434.0,0.1,0.2,-0.2,2.7,5.0,8.200000000000001,0.30000000000000004,-1.6,-7.500000000000001,16
618,10451.0,-0.1,0.1,-0.30000000000000004,2.4000000000000004,4.9,8.1,-1.5,-0.8,-7.1000000000000005,16
619,10472.0,0.0,0.1,-0.2,2.5,4.9,8.200000000000001,-5.1000000000000005,0.2,-6.500000000000001,16
620,10485.0,0.0,0.0,0.1,2.5,4.800000000000001,8.5,-7.400000000000001,3.3000000000000007,-7.1000000000000005,16
621,10501.0,-0.1,-0.1,0.30000000000000004,2.4000000000000004,4.7,8.700000000000001,-7.0,5.300000000000001,-8.2,16
622,10519.0,-0.2,-0.1,0.2,2.2,4.7,8.700000000000001,-5.300000000000001,6.0,-8.3,16
623,10542.0,-0.2,-0.1,0.1,2.1,4.6000000000000005,8.6,-1.7,5.1000000000000005,-7.200000000000001,16
624,10552.0,-0.2,-0.1,0.1,2.1,4.6000000000000005,8.6,-1.7,5.1000000000000005,-7.200000000000001,16
625,10567.0,-0.30000000000000004,-0.2,0.1,2.0,4.6000000000000005,8.6,-0.30000000000000004,2.4000000000000004,-6.8,16
626,10584.0,-0.4,-0.2,0.1,2.0,4.6000000000000005,8.6,1.3,0.4,-5.7,16
627,10601.0,-0.4,-0.2,0.0,1.9000000000000001,4.6000000000000005,8.5,2.5,-0.9000000000000001,-4.4,16
628,10618.0,-0.30000000000000004,-0.2,-0.2,2.0,4.6000000000000005,8.3,2.2,-1.9,-2.9,16
629,10634.0,-0.1,-0.1,-0.1,2.2,4.7,8.4,0.2,-0.30000000000000004,-1.9,16
630,10652.0,-0.1,0.0,0.0,2.2,4.7,8.5,-0.7,-0.1,-2.2,16
631,10671.0,0.0,-0.1,0.2,2.2,4.7,8.700000000000001,0.0,-2.1,-2.9,16
632,10686.0,-0.2,-0.1,0.1,2.1,4.7,8.6,2.3,-3.8,-3.4,16
633,10702.0,-0.30000000000000004,-0.2,-0.30000000000000004,1.9000000000000001,4.6000000000000005,8.200000000000001,1.5,-3.8,-1.2000000000000002,16
634,10720.0,0.0,0.0,0.1,2.3000000000000003,4.7,8.6,-1.2000000000000002,-0.2,0.9000000000000001,16
635,10735.0,0.30000000000000004,0.0,0.30000000000000004,2.5,4.800000000000001,8.700000000000001,0.1,0.6000000000000001,0.1,16
636,10756.0,0.1,0.0,0.1,2.4000000000000004,4.800000000000001,8.5,2.6,-0.30000000000000004,-1.9,16
637,10769.0,0.0,0.0,-0.1,2.3000000000000003,4.800000000000001,8.3,2.0,-0.6000000000000001,-1.9,16
638,10785.0,0.0,0.0,-0.1,2.3000000000000003,4.800000000000001,8.3,0.2,0.8,-1.3,16
639,10805.0,0.1,0.0,-0.1,2.4000000000000004,4.800000000000001,8.4,-1.2000000000000002,2.8,-1.8000000000000003,16
640,10819.0,-0.2,-0.1,-0.2,2.0,4.7,8.200000000000001,-3.9,4.7,-3.4,16
641,10835.0,-0.30000000000000004,-0.1,0.2,1.9000000000000001,4.6000000000000005,8.6,-3.6000000000000005,3.1,-1.8000000000000003,16
642,10851.0,-0.1,0.0,0.0,2.2,4.7,8.5,-1.7,-1.1,-0.7,16
643,10867.0,0.1,0.0,0.0,2.3000000000000003,4.800000000000001,8.5,-2.5,-0.4,-1.8000000000000003,16
644,10890.0,0.1,0.0,0.0,2.3000000000000003,4.7,8.5,-4.300000000000001,3.6000000000000005,-2.8,16
645,10902.0,0.0,0.0,0.2,2.2,4.7,8.700000000000001,-5.4,5.8,-3.5,16
646,10919.0,-0.1,-0.1,0.4,2.1,4.6000000000000005,8.9,-3.7000000000000006,5.9,-4.0,16
647,10935.0,-0.2,-0.1,0.30000000000000004,2.0,4.6000000000000005,8.9,-1.4,5.7,-3.3000000000000007,16
648,10951.0,-0.2,-0.1,0.1,1.9000000000000001,4.6000000000000005,8.700000000000001,-0.2,5.8,-2.6,16
649,10970.0,-0.2,-0.1,-0.1,1.9000000000000001,4.6000000000000005,8.5,-0.2,6.600000000000001,-1.7,16
650,10987.0,0.0,0.0,-0.2,2.1,4.7,8.4,-1.7,6.2,-1.5,16
651,11005.0,0.0,0.0,-0.1,2.1,4.7,8.5,-3.0,6.500000000000001,-2.7,16
652,11017.0,0.0,-0.1,-0.1,2.0,4.6000000000000005,8.4,-2.8,6.600000000000001,-3.2,16
653,11034.0,0.0,0.0,-0.2,2.0,4.7,8.4,-3.4,3.8,-3.0,16
654,11051.0,0.1,0.0,0.1,2.2,4.7,8.6,-3.3000000000000007,0.30000000000000004,-3.3000000000000007,16
655,11068.0,0.1,0.0,0.1,2.2,4.7,8.700000000000001,-0.9000000000000001,-4.2,-5.1000000000000005,16
656,11084.0,-0.2,-0.1,0.1,1.9000000000000001,4.6000000000000005,8.6,1.6,-8.3,-5.6,16
657,11102.0,-0.30000000000000004,-0.1,-0.1,1.8,4.6000000000000005,8.5,2.8,-12.0,-3.5,16
658,11119.0,-0.30000000000000004,-0.1,0.0,1.8,4.6000000000000005,8.5,3.0,-11.6,-0.6000000000000001,16
659,11134.0,0.1,0.0,0.1,2.2,4.7,8.6,3.0,-13.000000000000002,2.4000000000000004,16
660,11152.0,0.30000000000000004,0.1,0.0,2.5,4.800000000000001,8.6,3.3000000000000007,-13.000000000000002,1.2000000000000002,16
661,11175.0,0.30000000000000004,0.2,-0.1,2.5,4.9,8.4,-0.1,-9.100000000000001,-2.9,16
662,11185.0,0.30000000000000004,0.2,-0.1,2.5,4.9,8.4,-0.1,-9.100000000000001,-2.9,16
663,11202.0,0.2,0.1,0.0,2.5,4.800000000000001,8.5,-2.2,-5.4,-4.2,16
664,11218.0,0.2,0.1,0.2,2.5,4.800000000000001,8.700000000000001,-2.4000000000000004,-2.8,-4.300000000000001,16
665,11239.0,0.5,0.2,0.2,2.6,4.9,8.8,2.0,-3.7000000000000006,-5.300000000000001,16
666,11251.0,0.5,0.2,0.2,2.8000000000000003,4.9,8.700000000000001,2.0,-3.7000000000000006,-5.300000000000001,16
667,11269.0,0.6000000000000001,0.2,0.1,2.9000000000000004,5.0,8.6,3.6000000000000005,-3.7000000000000006,-8.3,16
668,11284.0,0.6000000000000001,0.2,0.0,2.9000000000000004,5.0,8.5,3.9,-2.8,-10.5,16
669,11301.0,0.4,0.2,-0.1,2.7,5.0,8.4,3.5,0.5,-11.900000000000002,16
670,11322.0,0.7000000000000001,0.4,-0.7000000000000001,3.0,5.2,7.7,-7.1000000000000005,4.5,-12.100000000000001,16
671,11335.0,0.9,0.1,0.9,3.1,4.9,9.5,-15.000000000000002,25.1,-16.8,16
672,11355.0,0.5,0.2,0.9,2.7,5.0,9.5,-8.700000000000001,15.6,-20.2,16
673,11368.0,0.4,-0.2,0.7000000000000001,2.5,4.6000000000000005,9.4,-3.6000000000000005,12.0,-23.0,16
674,11388.0,0.1,-0.2,0.4,2.1,4.5,8.8,1.1,10.9,-23.0,16
675,11401.0,0.1,-0.4,0.1,2.1,4.5,8.8,3.2,7.400000000000001,-21.900000000000002,16
676,11418.0,0.1,-0.4,-0.1,2.1,4.4,8.6,4.300000000000001,5.8,-21.6,16
677,11435.0,0.0,-0.5,-0.4,1.9000000000000001,4.3,8.200000000000001,3.9,3.5,-21.6,16
678,11451.0,-0.2,-0.6000000000000001,-0.7000000000000001,1.7000000000000002,4.2,7.9,1.7,3.4,-20.900000000000002,16
679,11468.0,-0.4,-0.6000000000000001,-0.9,1.5,4.3,7.7,-1.2000000000000002,5.4,-19.200000000000003,16
680,11486.0,-0.4,-0.5,-1.0,1.4000000000000001,4.3,7.6000000000000005,-4.4,7.500000000000001,-16.700000000000003,16
681,11509.0,-0.30000000000000004,-0.30000000000000004,-0.9,1.4000000000000001,4.5,7.7,-9.5,2.4000000000000004,-15.000000000000002,16
682,11518.0,-0.30000000000000004,-0.30000000000000004,-0.9,1.4000000000000001,4.5,7.7,-9.5,2.4000000000000004,-15.000000000000002,16
683,11535.0,-0.4,-0.30000000000000004,-0.8,1.3,4.5,7.9,-11.2,-2.9,-14.900000000000002,16
684,11552.0,-0.4,-0.2,-0.6000000000000001,1.4000000000000001,4.5,8.1,-11.5,-8.700000000000001,-14.600000000000001,16
685,11570.0,-0.2,-0.2,-0.4,1.5,4.5,8.3,-11.1,-13.700000000000001,-14.5,16
686,11584.0,-0.2,-0.2,-0.30000000000000004,1.6,4.5,8.4,-10.5,-16.8,-14.800000000000002,16
687,11602.0,-0.1,-0.2,-0.1,1.7000000000000002,4.5,8.6,-10.700000000000001,-18.4,-15.000000000000002,16
688,11618.0,0.0,-0.2,0.1,1.8,4.5,8.8,-10.0,-18.1,-15.399999999999999,16
689,11635.0,0.1,-0.2,0.2,2.0,4.5,8.9,-9.5,-18.6,-16.200000000000003,16
690,11652.0,0.2,-0.2,0.4,2.0,4.5,9.1,-9.2,-17.7,-17.5,16
691,11672.0,0.0,-0.2,0.5,1.9000000000000001,4.4,9.200000000000001,-8.899999999999999,-16.200000000000003,-18.700000000000003,16
692,11688.0,-0.1,-0.30000000000000004,0.6000000000000001,1.8,4.3,9.3,-7.300000000000001,-13.8,-18.6,16
693,11702.0,-0.2,-0.30000000000000004,0.5,1.7000000000000002,4.3,9.200000000000001,-5.1000000000000005,-11.6,-18.200000000000003,16
694,11727.0,-0.2,-0.2,0.0,1.7000000000000002,4.5,8.700000000000001,-0.6000000000000001,-8.0,-16.6,16
695,11735.0,-0.2,-0.2,0.0,1.7000000000000002,4.5,8.700000000000001,-0.6000000000000001,-8.0,-16.6,16
696,11752.0,-0.1,-0.1,-0.2,1.8,4.6000000000000005,8.5,-0.7,-6.9,-16.4,16
697,11772.0,0.0,0.0,-0.2,1.9000000000000001,4.6000000000000005,8.4,-1.4,-6.0,-17.0,16
698,11784.0,0.0,0.0,-0.5,1.8,4.6000000000000005,8.200000000000001,-2.9,-4.5,-18.0,16
699,11802.0,-0.2,0.0,-0.5,1.7000000000000002,4.7,8.200000000000001,-6.1000000000000005,-3.1,-17.799999999999997,16
700,11824.0,-0.1,0.0,-0.4,1.7000000000000002,4.6000000000000005,8.3,-13.100000000000001,0.6000000000000001,-14.400000000000002,16
701,11835.0,-0.1,0.0,-0.4,1.7000000000000002,4.6000000000000005,8.3,-13.100000000000001,0.6000000000000001,-14.400000000000002,16
702,11852.0,0.0,0.0,-0.1,1.8,4.6000000000000005,8.6,-15.8,2.7,-12.600000000000001,16
703,11872.0,0.0,0.0,0.2,1.7000000000000002,4.5,9.0,-15.8,4.300000000000001,-11.4,16
704,11884.0,-0.1,0.0,0.30000000000000004,1.6,4.5,9.1,-12.8,4.7,-9.4,16
705,11904.0,0.0,0.1,0.4,1.7000000000000002,4.5,9.200000000000001,-9.700000000000001,2.9,-6.699999999999999,16
706,11918.0,0.0,0.1,0.4,1.7000000000000002,4.6000000000000005,9.200000000000001,-5.9,1.7,-4.300000000000001,16
707,11935.0,0.1,0.2,0.30000000000000004,1.8,4.7,9.1,-2.4000000000000004,2.0,-2.1,16
708,11951.0,0.30000000000000004,0.4,0.2,2.0,4.9,9.1,0.4,1.0,-0.7,16
709,11968.0,0.4,0.4,0.1,2.1,4.9,9.0,2.6,2.2,-0.7,16
710,11986.0,0.5,0.4,-0.1,2.2,4.9,8.8,4.2,7.300000000000001,-1.5,16
711,12001.0,0.4,0.5,-0.30000000000000004,2.1,5.0,8.6,3.8,11.000000000000002,-2.5,16
712,12018.0,0.30000000000000004,0.5,-0.4,2.0,5.0,8.5,2.2,15.399999999999999,-3.2,16
713,12035.0,0.2,0.5,-0.30000000000000004,1.8,5.1000000000000005,8.6,0.7,18.0,-3.3000000000000007,16
714,12051.0,0.1,0.5,-0.4,1.6,5.1000000000000005,8.4,0.0,18.200000000000003,-3.2,16
715,12075.0,-0.1,0.4,-0.6000000000000001,1.4000000000000001,5.0,8.3,-2.1,17.0,-2.6,16
716,12085.0,-0.2,0.30000000000000004,-0.30000000000000004,1.3,4.9,8.5,-5.0,14.5,-1.2000000000000002,16
717,12101.0,-0.30000000000000004,0.1,0.1,1.1,4.7,8.9,-6.600000000000001,11.4,1.4,16
718,12118.0,-0.30000000000000004,-0.1,0.7000000000000001,1.1,4.5,9.5,-5.6,8.3,4.9,16
719,12140.0,-0.2,-0.4,1.4000000000000001,1.2000000000000002,4.1000000000000005,10.3,8.5,3.5,12.5,16
720,12152.0,-0.2,-0.4,1.4000000000000001,1.2000000000000002,4.1000000000000005,10.3,8.5,3.5,12.5,16
721,12168.0,-0.1,-0.6000000000000001,1.1,1.3,4.1000000000000005,10.0,17.300000000000004,3.2,16.200000000000003,16
722,12185.0,0.0,-0.6000000000000001,0.5,1.4000000000000001,4.1000000000000005,9.3,22.000000000000004,4.2,18.900000000000002,16
723,12202.0,0.1,-0.6000000000000001,0.1,1.5,4.2,8.9,21.1,6.600000000000001,21.1,16
724,12217.0,0.1,-0.6000000000000001,-0.1,1.6,4.1000000000000005,8.8,17.0,6.699999999999999,22.700000000000003,16
725,12235.0,0.30000000000000004,-0.6000000000000001,0.1,1.8,4.1000000000000005,8.9,12.9,6.2,24.0,16
726,12252.0,0.4,-0.6000000000000001,0.30000000000000004,1.9000000000000001,4.2,9.1,10.600000000000001,7.1000000000000005,24.3,16
727,12271.0,0.4,-0.5,0.2,1.9000000000000001,4.3,9.0,8.700000000000001,9.4,23.400000000000002,16
728,12284.0,0.4,-0.4,0.1,1.9000000000000001,4.3,8.9,5.500000000000001,11.000000000000002,22.2,16
729,12302.0,0.5,-0.5,0.2,2.0,4.3,9.0,1.8000000000000003,10.200000000000001,20.900000000000002,16
730,12318.0,0.5,-0.6000000000000001,0.5,2.0,4.2,9.3,1.9,11.5,19.5,16
731,12334.0,0.5,-0.7000000000000001,0.6000000000000001,2.0,4.1000000000000005,9.4,6.699999999999999,15.5,17.9,16
732,12351.0,0.4,-0.8,0.2,1.9000000000000001,4.0,9.0,14.300000000000002,19.5,16.6,16
733,12368.0,0.4,-0.7000000000000001,-0.4,1.8,4.2,8.4,20.5,22.4,15.5,16
734,12386.0,0.30000000000000004,-0.5,-1.0,1.7000000000000002,4.4,7.7,23.5,23.0,14.300000000000002,16
735,12401.0,0.4,-0.4,-1.4000000000000001,1.7000000000000002,4.6000000000000005,7.300000000000001,24.3,23.099999999999998,12.4,16
736,12417.0,0.5,-0.1,-1.7000000000000002,1.8,4.9,7.0,22.1,19.9,8.600000000000001,16
737,12434.0,0.5,0.0,-1.8,1.8,5.0,6.9,16.8,13.5,3.5,16
738,12451.0,0.5,-0.1,-1.8,1.8,5.0,6.9,9.700000000000001,9.600000000000001,-1.5,16
739,12467.0,0.5,-0.1,-1.7000000000000002,1.7000000000000002,5.0,6.9,0.6000000000000001,8.0,-6.0,16
740,12484.0,0.4,-0.30000000000000004,-1.4000000000000001,1.6,4.800000000000001,7.300000000000001,-9.5,8.899999999999999,-8.8,16
741,12503.0,0.30000000000000004,-0.4,-0.7000000000000001,1.5,4.6000000000000005,8.0,-18.0,9.700000000000001,-10.1,16
742,12517.0,0.2,-0.5,-0.1,1.3,4.4,8.6,-22.1,10.1,-9.100000000000001,16
743,12534.0,0.1,-0.5,0.4,1.2000000000000002,4.4,9.200000000000001,-21.0,10.1,-6.300000000000001,16
744,12551.0,0.0,-0.4,0.7000000000000001,1.1,4.4,9.5,-15.2,10.9,-2.2,16
745,12568.0,0.1,-0.2,0.6000000000000001,1.2000000000000002,4.7,9.3,-6.2,11.3,1.2000000000000002,16
746,12584.0,0.0,0.1,0.0,1.0,4.9,8.8,0.9000000000000001,7.8,2.0,16
747,12600.0,-0.2,0.2,-0.6000000000000001,0.8,5.0,8.200000000000001,4.1,4.800000000000001,2.1,16
748,12617.0,-0.30000000000000004,0.2,-1.0,0.7000000000000001,5.1000000000000005,7.800000000000001,3.2,2.7,1.9,16
749,12634.0,-0.5,0.2,-1.2000000000000002,0.5,5.1000000000000005,7.5,-0.5,2.6,1.8000000000000003,16
750,12651.0,-0.6000000000000001,0.30000000000000004,-1.1,0.4,5.1000000000000005,7.6000000000000005,-5.4,1.9,2.1,16
751,12667.0,-0.6000000000000001,0.30000000000000004,-0.8,0.4,5.1000000000000005,7.9,-9.700000000000001,-0.1,1.9,16
752,12686.0,-0.6000000000000001,0.2,-0.4,0.4,5.0,8.4,-11.6,-4.5,0.9000000000000001,16
753,12701.0,-0.7000000000000001,0.2,-0.1,0.4,4.9,8.700000000000001,-11.6,-8.5,0.30000000000000004,16
754,12717.0,-0.6000000000000001,0.0,0.0,0.4,4.800000000000001,8.8,-10.700000000000001,-10.299999999999999,0.2,16
755,12734.0,-0.6000000000000001,0.0,0.1,0.4,4.7,8.9,-10.600000000000001,-8.600000000000001,0.2,16
756,12751.0,-0.7000000000000001,-0.1,0.0,0.4,4.6000000000000005,8.9,-10.700000000000001,-3.8,0.4,16
757,12767.0,-0.8,0.0,-0.1,0.30000000000000004,4.6000000000000005,8.700000000000001,-12.100000000000001,2.2,1.3,16
758,12786.0,-0.8,-0.1,-0.1,0.2,4.6000000000000005,8.8,-13.900000000000002,7.200000000000001,2.9,16
759,12801.0,-0.8,-0.1,0.1,0.2,4.5,9.0,-13.5,7.699999999999999,4.2,16
760,12818.0,-0.9,0.0,0.0,0.1,4.5,8.9,-11.6,6.600000000000001,5.6,16
761,12835.0,-0.9,0.0,-0.1,0.1,4.5,8.8,-10.4,4.9,7.400000000000001,16
762,12851.0,-0.8,0.0,-0.1,0.2,4.5,8.9,-9.899999999999999,1.0,9.100000000000001,16
763,12868.0,-0.7000000000000001,0.0,0.2,0.4,4.4,9.200000000000001,-8.700000000000001,-3.3000000000000007,10.1,16
764,12884.0,-0.6000000000000001,0.0,0.4,0.5,4.4,9.3,-5.8,-7.300000000000001,10.299999999999999,16
765,12901.0,-0.7000000000000001,0.0,0.30000000000000004,0.4,4.4,9.200000000000001,-3.8,-9.700000000000001,10.600000000000001,16
766,12917.0,-0.6000000000000001,0.0,0.5,0.6000000000000001,4.4,9.4,-3.9,-9.100000000000001,11.900000000000002,16
767,12934.0,-0.30000000000000004,-0.1,0.7000000000000001,0.8,4.3,9.700000000000001,-4.1,-6.0,12.200000000000001,16
768,12951.0,-0.30000000000000004,-0.1,0.9,0.9,4.3,9.8,-2.7,-0.1,11.4,16
769,12967.0,-0.30000000000000004,0.0,0.7000000000000001,0.9,4.3,9.700000000000001,-0.7,8.0,10.600000000000001,16
770,12984.0,-0.4,0.1,0.4,0.7000000000000001,4.4,9.4,1.1,15.399999999999999,10.1,16
771,13001.0,-0.4,0.1,0.0,0.7000000000000001,4.5,9.0,1.9,19.400000000000002,10.0,16
772,13017.0,-0.5,0.30000000000000004,-0.30000000000000004,0.6000000000000001,4.7,8.700000000000001,0.9000000000000001,20.0,10.600000000000001,16
773,13034.0,-0.4,0.30000000000000004,-0.30000000000000004,0.6000000000000001,4.7,8.700000000000001,0.4,17.400000000000002,11.1,16
774,13051.0,-0.4,0.4,-0.30000000000000004,0.6000000000000001,4.800000000000001,8.700000000000001,1.1,14.900000000000002,11.4,16
775,13067.0,-0.4,0.4,-0.30000000000000004,0.6000000000000001,4.800000000000001,8.700000000000001,2.4000000000000004,13.000000000000002,11.5,16
776,13084.0,-0.5,0.4,-0.5,0.5,4.800000000000001,8.5,3.2,13.000000000000002,12.100000000000001,16
777,13100.0,-0.5,0.5,-0.7000000000000001,0.4,4.9,8.3,2.6,13.100000000000001,13.5,16
778,13119.0,-0.5,0.5,-0.8,0.4,4.9,8.200000000000001,1.0,12.200000000000001,15.000000000000002,16
779,13134.0,-0.4,0.6000000000000001,-0.8,0.5,5.0,8.200000000000001,-1.4,9.100000000000001,16.0,16
780,13150.0,-0.30000000000000004,0.6000000000000001,-0.5,0.6000000000000001,5.0,8.5,-3.2,4.7,16.3,16
781,13167.0,-0.30000000000000004,0.6000000000000001,-0.4,0.7000000000000001,5.0,8.6,-5.1000000000000005,-0.9000000000000001,16.0,16
782,13184.0,-0.2,0.5,0.0,0.8,4.9,9.0,-5.4,-7.300000000000001,15.700000000000001,16
783,13201.0,0.0,0.4,0.5,1.0,4.800000000000001,9.5,-2.7,-13.3,14.700000000000001,16
784,13217.0,0.1,0.30000000000000004,0.6000000000000001,1.2000000000000002,4.7,9.600000000000001,2.0,-17.400000000000002,12.7,16
785,13234.0,0.1,0.2,0.6000000000000001,1.3,4.6000000000000005,9.600000000000001,5.500000000000001,-19.300000000000004,10.5,16
786,13256.0,0.1,0.0,0.8,1.4000000000000001,4.4,9.8,7.500000000000001,-17.5,6.8,16
787,13268.0,0.1,0.0,0.8,1.4000000000000001,4.4,9.8,7.500000000000001,-17.5,6.8,16
788,13284.0,0.2,-0.2,1.2000000000000002,1.6,4.3,10.100000000000001,9.2,-15.5,5.6,16
789,13301.0,0.4,-0.2,1.3,1.8,4.3,10.3,13.200000000000003,-14.0,3.7000000000000006,16
790,13318.0,0.6000000000000001,-0.30000000000000004,1.3,2.0,4.2,10.3,19.0,-12.100000000000001,1.2000000000000002,16
791,13334.0,0.7000000000000001,-0.4,0.9,2.1,4.3,9.8,24.599999999999998,-9.4,-2.2,16
792,13351.0,0.6000000000000001,-0.30000000000000004,0.2,2.1,4.3,9.1,26.799999999999997,-5.8,-5.8,16
793,13367.0,0.5,-0.4,-0.5,1.9000000000000001,4.4,8.3,23.400000000000002,-1.2000000000000002,-9.0,16
794,13384.0,0.4,-0.4,-0.7000000000000001,1.8,4.4,8.1,16.0,4.6,-11.000000000000002,16
795,13401.0,0.2,-0.5,-0.7000000000000001,1.6,4.3,8.1,9.700000000000001,9.899999999999999,-12.8,16
796,13418.0,0.0,-0.6000000000000001,-0.6000000000000001,1.3,4.3,8.200000000000001,5.8,12.7,-13.5,16
797,13437.0,-0.1,-0.6000000000000001,-0.6000000000000001,1.1,4.2,8.200000000000001,4.7,12.299999999999999,-13.200000000000003,16
798,13451.0,-0.2,-0.6000000000000001,-0.7000000000000001,1.0,4.3,8.1,5.300000000000001,10.5,-12.200000000000001,16
799,13471.0,-0.30000000000000004,-0.5,-1.0,0.9,4.4,7.800000000000001,5.8,5.500000000000001,-11.3,16
800,13484.0,-0.4,-0.4,-1.2000000000000002,0.7000000000000001,4.5,7.6000000000000005,4.4,-2.3,-10.0,16
801,13501.0,-0.30000000000000004,-0.30000000000000004,-1.0,0.8,4.6000000000000005,7.7,2.3,-8.899999999999999,-8.4,16
802,13518.0,-0.30000000000000004,-0.2,-0.9,0.9,4.7,7.9,0.8,-12.8,-7.500000000000001,16
803,13534.0,-0.1,-0.2,-0.7000000000000001,1.1,4.7,8.1,0.30000000000000004,-13.200000000000003,-7.500000000000001,16
804,13551.0,-0.1,-0.2,-0.5,1.1,4.7,8.200000000000001,-0.7,-13.8,-7.9,16
805,13568.0,-0.1,-0.1,-0.4,1.2000000000000002,4.800000000000001,8.3,-2.1,-13.000000000000002,-8.4,16
806,13591.0,0.1,-0.1,0.0,1.4000000000000001,4.800000000000001,8.8,-4.800000000000001,-8.700000000000001,-9.5,16
807,13601.0,0.1,-0.1,0.0,1.4000000000000001,4.800000000000001,8.8,-4.800000000000001,-8.700000000000001,-9.5,16
808,13617.0,0.1,-0.1,0.2,1.4000000000000001,4.800000000000001,9.0,-4.1,-6.300000000000001,-10.700000000000001,16
809,13634.0,0.1,-0.1,0.4,1.4000000000000001,4.800000000000001,9.1,-2.1,-3.7000000000000006,-12.200000000000001,16
810,13651.0,0.1,0.0,0.4,1.4000000000000001,4.9,9.200000000000001,0.1,-1.3,-13.399999999999999,16
811,13669.0,0.2,-0.1,0.4,1.4000000000000001,4.800000000000001,9.1,1.9,0.6000000000000001,-14.600000000000001,16
812,13684.0,0.2,0.0,0.4,1.4000000000000001,4.9,9.200000000000001,3.5,2.6,-16.1,16
813,13703.0,0.1,-0.1,0.30000000000000004,1.3,4.9,9.1,5.6,5.6,-17.5,16
814,13718.0,0.1,-0.1,0.1,1.2000000000000002,4.9,8.8,7.6,9.5,-18.700000000000003,16
815,13734.0,0.1,-0.1,0.1,1.2000000000000002,4.9,8.8,7.6,9.5,-18.700000000000003,16
816,13751.0,0.0,0.0,-0.8,1.1,5.1000000000000005,7.9,5.2,12.7,-20.7,16
817,13768.0,0.0,0.2,-1.2000000000000002,0.9,5.2,7.5,-0.30000000000000004,10.700000000000001,-22.6,16
818,13784.0,-0.30000000000000004,0.2,-1.3,0.6000000000000001,5.2,7.4,-7.400000000000001,7.400000000000001,-23.3,16
819,13801.0,-0.4,0.1,-1.4000000000000001,0.4,5.1000000000000005,7.300000000000001,-14.300000000000002,8.5,-22.8,16
820,13820.0,-0.6000000000000001,0.1,-1.5,0.2,5.0,7.300000000000001,-21.200000000000003,11.8,-20.0,16
821,13834.0,-0.6000000000000001,0.1,-1.6,0.1,4.9,7.2,-28.200000000000003,15.5,-17.0,16
822,13850.0,-0.7000000000000001,0.2,-1.4000000000000001,0.0,4.9,7.4,-34.800000000000004,18.200000000000003,-14.200000000000001,16
823,13867.0,-0.5,0.1,-0.8,0.0,4.800000000000001,8.1,-37.6,16.3,-12.5,16
824,13887.0,-0.4,0.0,-0.4,0.1,4.6000000000000005,8.5,-34.7,13.200000000000003,-12.5,16
825,13901.0,-0.7000000000000001,-0.1,-0.4,-0.2,4.4,8.6,-29.200000000000003,9.8,-13.100000000000001,16
826,13917.0,-1.1,-0.1,-0.4,-0.6000000000000001,4.3,8.6,-24.400000000000002,8.8,-10.299999999999999,16
827,13935.0,-1.2000000000000002,-0.2,-0.6000000000000001,-0.8,4.2,8.5,-20.5,9.3,-5.500000000000001,16
828,13950.0,-1.2000000000000002,-0.2,-0.7000000000000001,-0.8,4.2,8.4,-19.300000000000004,8.3,-0.8,16
829,13968.0,-1.1,-0.1,-0.5,-0.7000000000000001,4.2,8.6,-18.4,10.0,3.6000000000000005,16
830,13984.0,-0.9,-0.1,-0.4,-0.6000000000000001,4.1000000000000005,8.700000000000001,-16.900000000000002,12.5,6.600000000000001,16
831,14001.0,-0.8,0.0,-0.6000000000000001,-0.6000000000000001,4.2,8.5,-15.100000000000001,14.5,7.9,16
832,14018.0,-1.6,0.4,-0.8,-1.3,4.5,8.4,-15.899999999999999,13.3,10.600000000000001,16
833,14034.0,-1.7000000000000002,0.30000000000000004,-2.3000000000000003,-1.5,4.4,6.9,-22.2,6.2,19.1,16
834,14050.0,-0.1,-1.1,-2.8000000000000003,0.1,2.9000000000000004,6.300000000000001,-47.1,21.400000000000002,28.0,16
835,14068.0,-1.6,-0.6000000000000001,-1.0,-1.6,3.2,8.200000000000001,-69.7,74.4,25.200000000000003,16
836,14084.0,-2.6,1.2000000000000002,0.5,-2.9000000000000004,4.7,9.9,-75.2,122.50000000000001,43.2,16
837,14101.0,0.5,-0.1,1.0,0.1,3.3000000000000003,10.4,-77.4,106.60000000000001,54.50000000000001,16
838,14117.0,0.4,0.7000000000000001,-0.2,-0.2,3.9000000000000004,9.3,-79.00000000000001,69.20000000000002,45.2,16
839,14134.0,-0.1,1.1,-1.3,-0.8,4.0,8.3,-91.6,41.1,43.800000000000004,16
840,14151.0,0.7000000000000001,0.7000000000000001,-0.2,0.0,3.4000000000000004,9.5,-100.70000000000002,21.0,35.699999999999996,16
841,14167.0,1.1,0.8,1.5,0.4,3.2,11.200000000000001,-96.1,-10.299999999999999,18.6,16
842,14184.0,1.3,0.9,2.7,0.7000000000000001,3.1,12.5,-74.4,-24.5,-1.3,16
843,14201.0,0.8,1.0,3.9000000000000004,0.2,3.1,13.700000000000001,-33.800000000000004,-6.4,-18.900000000000002,16
844,14217.0,1.3,0.0,4.0,0.6000000000000001,2.2,13.8,22.6,21.1,-29.200000000000003,16
845,14234.0,2.1,-0.4,3.3000000000000003,1.3,2.0,13.100000000000001,81.60000000000001,48.10000000000001,-47.7,16
846,14253.0,0.8,-0.2,1.1,-0.1,2.5,10.8,122.50000000000001,31.099999999999998,-69.60000000000001,16
847,14267.0,-2.6,0.9,-3.6,-3.4000000000000004,3.9000000000000004,6.0,97.2,-66.1,-70.6,16
848,14285.0,2.0,-1.7000000000000002,-2.9000000000000004,1.4000000000000001,1.4000000000000001,6.6000000000000005,45.8,-118.80000000000003,-59.5,16
849,14302.0,1.5,-0.8,-2.6,1.1,2.4000000000000004,6.9,25.6,-71.30000000000001,-88.60000000000001,16
850,14317.0,-0.6000000000000001,0.8,-1.8,-1.1,3.9000000000000004,7.800000000000001,7.8,-7.6,-88.60000000000001,16
851,14334.0,-0.5,0.7000000000000001,-1.9000000000000001,-1.1,3.8000000000000003,7.6000000000000005,-11.6,37.300000000000004,-67.7,16
852,14351.0,-0.5,0.4,-3.6,-1.4000000000000001,3.4000000000000004,5.9,-37.300000000000004,61.10000000000001,-43.6,16
853,14367.0,-0.5,0.4,-3.6,-1.6,3.7,5.5,-76.2,108.10000000000001,-25.1,16
854,14384.0,-1.8,0.9,-1.4000000000000001,-3.4000000000000004,3.4000000000000004,8.1,-105.60000000000002,152.6,-8.8,16
855,14401.0,-1.1,0.9,0.4,-3.2,3.1,10.0,-113.5,159.2,9.8,16
856,14418.0,0.1,0.9,1.4000000000000001,-2.4000000000000004,2.8000000000000003,10.9,-104.4,134.8,16.8,16
857,14435.0,0.7000000000000001,0.9,1.6,-1.9000000000000001,2.6,11.100000000000001,-85.0,81.90000000000002,13.8,16
858,14451.0,0.7000000000000001,1.1,1.5,-2.0,2.6,11.0,-58.400000000000006,34.900000000000006,8.600000000000001,16
859,14472.0,0.5,1.5,0.9,-2.1,3.0,10.4,2.2,-31.6,6.2,16
860,14488.0,0.5,1.5,0.9,-2.1,3.0,10.4,2.2,-31.6,6.2,16
861,14500.0,0.4,1.5,0.30000000000000004,-2.1,3.1,9.9,27.0,-57.20000000000001,6.4,16
862,14529.0,0.8,1.5,-0.4,-1.4000000000000001,3.4000000000000004,9.200000000000001,56.9,-43.1,9.100000000000001,16
863,14534.0,0.8,1.5,-0.4,-1.4000000000000001,3.4000000000000004,9.200000000000001,56.9,-43.1,9.100000000000001,16
864,14551.0,0.7000000000000001,1.8,-0.4,-1.4000000000000001,3.9000000000000004,9.200000000000001,59.1,-34.900000000000006,6.8,16
865,14569.0,0.6000000000000001,1.9000000000000001,-0.7000000000000001,-1.4000000000000001,4.1000000000000005,8.9,54.1,-24.0,2.8,16
866,14584.0,0.0,1.8,-0.9,-2.0,4.1000000000000005,8.6,40.6,-7.0,-1.7,16
867,14602.0,-0.30000000000000004,2.1,0.0,-2.3000000000000003,4.5,9.600000000000001,21.6,13.8,-3.9,16
868,14617.0,-0.4,1.9000000000000001,1.2000000000000002,-2.5,4.3,10.700000000000001,10.600000000000001,30.599999999999998,-7.1000000000000005,16
869,14634.0,-0.6000000000000001,1.7000000000000002,1.6,-2.8000000000000003,4.1000000000000005,11.100000000000001,6.0,40.4,-9.700000000000001,16
870,14651.0,-0.5,1.6,1.8,-2.9000000000000004,4.1000000000000005,11.3,4.300000000000001,48.70000000000001,-12.299999999999999,16
871,14667.0,0.30000000000000004,1.3,2.1,-2.3000000000000003,3.8000000000000003,11.600000000000001,3.4,43.300000000000004,-18.5,16
872,14684.0,0.9,0.8,2.7,-1.8,3.2,12.100000000000001,3.2,20.400000000000002,-34.400000000000006,16
873,14701.0,-3.7,1.8,2.5,-6.4,4.2,11.9,7.8,-3.1,-41.800000000000004,16
874,14717.0,-1.1,0.1,2.0,-3.8000000000000003,2.5,11.4,9.4,-5.500000000000001,-24.599999999999998,16
875,14734.0,-0.7000000000000001,-0.6000000000000001,1.6,-3.8000000000000003,2.5,11.4,6.1000000000000005,-12.8,-24.3,16
876,14750.0,-1.0,-0.7000000000000001,1.7000000000000002,-3.6,1.7000000000000002,11.100000000000001,4.6,-12.7,-20.3,16
877,14767.0,-0.4,-1.2000000000000002,1.4000000000000001,-3.0,1.2000000000000002,10.9,7.0,-18.4,-13.100000000000001,16
878,14791.0,-0.30000000000000004,-1.6,1.2000000000000002,-2.8000000000000003,0.9,10.700000000000001,18.3,-38.7,1.0,16
879,14801.0,-0.5,-1.8,0.9,-2.9000000000000004,0.7000000000000001,10.4,18.3,-38.7,1.0,16
880,14817.0,-0.4,-2.0,0.8,-2.7,0.6000000000000001,10.4,28.3,-47.900000000000006,14.600000000000001,16
881,14834.0,-0.2,-2.1,0.6000000000000001,-2.3000000000000003,0.6000000000000001,10.100000000000001,44.10000000000001,-52.00000000000001,28.400000000000002,16
882,14855.0,-0.1,-2.0,-0.1,-2.0,0.9,9.4,62.50000000000001,-55.900000000000006,41.0,16
883,14868.0,0.0,-1.8,-1.2000000000000002,-1.7000000000000002,1.4000000000000001,8.3,78.0,-67.9,50.400000000000006,16
884,14884.0,0.30000000000000004,-1.5,-1.9000000000000001,-1.1,1.9000000000000001,7.5,86.5,-88.00000000000001,54.1,16
885,14901.0,0.6000000000000001,-1.1,-1.9000000000000001,-0.4,2.5,7.4,89.30000000000001,-113.1,51.300000000000004,16
886,14917.0,0.9,-0.9,-1.5,0.2,3.0,7.800000000000001,92.10000000000001,-130.4,43.4,16
887,14934.0,1.2000000000000002,-0.8,-1.8,0.9,3.4000000000000004,7.4,95.20000000000002,-130.9,34.400000000000006,16
888,14953.0,1.2000000000000002,-0.6000000000000001,-2.4000000000000004,1.3,3.8000000000000003,6.7,92.3,-121.4,23.6,16
889,14967.0,1.2000000000000002,-0.4,-2.7,1.6,4.3,6.2,83.89999999999999,-109.30000000000001,12.7,16
890,14985.0,0.9,-0.2,-3.2,1.6,4.6000000000000005,5.6000000000000005,70.7,-99.8,0.0,16
891,15000.0,0.5,-0.30000000000000004,-3.4000000000000004,1.4000000000000001,4.7,5.300000000000001,52.60000000000001,-90.6,-10.700000000000001,16
892,15017.0,0.6000000000000001,-0.30000000000000004,-3.0,1.7000000000000002,4.7,5.6000000000000005,33.800000000000004,-77.3,-16.200000000000003,16
893,15034.0,1.1,-0.30000000000000004,-2.4000000000000004,2.3000000000000003,4.800000000000001,6.1000000000000005,18.3,-63.500000000000014,-21.500000000000004,16
894,15054.0,1.3,-0.4,-1.9000000000000001,2.6,4.7,6.5,10.0,-36.1,-35.8,16
895,15070.0,1.3,-0.4,-1.9000000000000001,2.6,4.7,6.5,10.0,-36.1,-35.8,16
896,15084.0,1.1,-0.5,-2.9000000000000004,2.4000000000000004,4.7,5.6000000000000005,7.400000000000001,-21.400000000000002,-41.50000000000001,16
897,15100.0,0.7000000000000001,-0.4,-3.6,2.0,4.800000000000001,4.800000000000001,-2.0,-8.899999999999999,-46.0,16
898,15117.0,-0.1,-0.2,-4.0,1.1,5.0,4.4,-17.799999999999997,-1.9,-49.699999999999996,16
899,15134.0,-0.7000000000000001,0.0,-3.6,0.5,5.1000000000000005,4.800000000000001,-37.800000000000004,-1.5,-51.9,16
900,15154.0,-1.1,0.1,-2.2,0.0,5.1000000000000005,6.4,-51.70000000000001,-1.1,-53.10000000000001,16
901,15168.0,-1.6,0.30000000000000004,-0.6000000000000001,-0.6000000000000001,5.2,8.0,-52.900000000000006,1.3,-50.2,16
902,15185.0,-1.7000000000000002,0.5,0.5,-0.7000000000000001,5.300000000000001,9.200000000000001,-42.800000000000004,-2.0,-43.00000000000001,16
903,15202.0,-1.2000000000000002,0.7000000000000001,1.1,-0.30000000000000004,5.4,9.9,-28.700000000000003,-12.299999999999999,-37.6,16
904,15219.0,-1.2000000000000002,0.7000000000000001,1.5,-0.30000000000000004,5.4,10.200000000000001,-15.700000000000001,-24.7,-36.1,16
905,15235.0,-1.6,0.7000000000000001,1.9000000000000001,-0.7000000000000001,5.4,10.600000000000001,-4.1,-28.500000000000004,-33.400000000000006,16
906,15251.0,-1.9000000000000001,0.8,2.2,-1.0,5.5,10.9,7.6,-23.700000000000003,-25.900000000000002,16
907,15269.0,-1.8,0.9,1.9000000000000001,-0.8,5.7,10.600000000000001,19.1,-14.900000000000002,-16.6,16
908,15285.0,-1.4000000000000001,1.1,1.6,-0.4,5.9,10.3,26.400000000000006,-11.5,-9.2,16
909,15300.0,-1.1,1.1,1.5,-0.1,6.1000000000000005,10.200000000000001,31.3,-14.700000000000001,-7.0,16
910,15318.0,-1.0,1.0,1.5,0.0,6.0,10.0,34.60000000000001,-16.3,-7.6,16
911,15334.0,-1.3,0.8,1.4000000000000001,-0.30000000000000004,5.9,9.9,38.900000000000006,-5.500000000000001,-7.200000000000001,16
912,15356.0,-1.1,0.9,1.3,-0.2,6.1000000000000005,9.8,42.3,8.4,-4.5,16
913,15368.0,-0.9,1.2000000000000002,2.1,0.0,6.6000000000000005,10.5,49.199999999999996,7.6,-7.9,16
914,15385.0,-1.9000000000000001,1.1,2.6,-0.9,6.6000000000000005,10.9,63.8,-13.200000000000003,-16.5,16
915,15401.0,-3.5,0.5,2.4000000000000004,-2.4000000000000004,6.2,10.600000000000001,77.7,-46.4,-14.800000000000002,16
916,15420.0,-3.9000000000000004,-0.2,1.3,-2.7,5.7,9.4,81.3,-69.10000000000001,-0.8,16
917,15434.0,-3.2,-0.4,0.6000000000000001,-1.9000000000000001,5.6000000000000005,8.5,66.9,-64.9,18.0,16
918,15455.0,-2.1,-0.7000000000000001,1.2000000000000002,-0.6000000000000001,5.4,9.0,41.7,-43.800000000000004,32.400000000000006,16
919,15467.0,-1.5,-1.1,2.3000000000000003,0.1,5.1000000000000005,10.0,23.0,-12.4,40.300000000000004,16
920,15485.0,-1.5,-1.7000000000000002,2.4000000000000004,0.1,4.5,10.200000000000001,15.100000000000001,26.799999999999997,46.9,16
921,15502.0,-2.0,-2.1,1.5,-0.5,4.1000000000000005,9.3,11.2,58.60000000000001,56.0,16
922,15517.0,-2.1,-2.4000000000000004,0.9,-0.6000000000000001,3.7,8.700000000000001,6.9,70.10000000000001,65.8,16
923,15534.0,-1.9000000000000001,-2.7,0.4,-0.5,3.4000000000000004,8.200000000000001,5.9,74.0,73.7,16
924,15558.0,-1.9000000000000001,-2.9000000000000004,-0.4,-0.5,3.2,7.5,5.6,81.90000000000002,84.80000000000001,16
925,15567.0,-2.0,-2.9000000000000004,-1.0,-0.7000000000000001,3.2,6.9,5.6,81.90000000000002,84.80000000000001,16
926,15584.0,-1.8,-2.8000000000000003,-1.2000000000000002,-0.5,3.2,6.6000000000000005,3.9,83.2,92.10000000000001,16
927,15603.0,-1.5,-2.6,-1.1,-0.2,3.4000000000000004,6.800000000000001,4.4,75.7,95.9,16
928,15618.0,-1.4000000000000001,-2.5,-1.3,-0.1,3.4000000000000004,6.6000000000000005,7.200000000000001,66.5,96.20000000000002,16
929,15634.0,-1.5,-2.3000000000000003,-1.5,-0.2,3.6,6.4,8.700000000000001,61.7,94.6,16
930,15655.0,-1.8,-2.2,-1.8,-0.5,3.7,6.1000000000000005,7.200000000000001,63.0,93.60000000000001,16
931,15671.0,-2.1,-2.0,-1.7000000000000002,-0.8,3.9000000000000004,6.300000000000001,0.9000000000000001,59.1,93.4,16
932,15686.0,-2.2,-1.8,-0.9,-0.8,4.0,7.1000000000000005,-4.4,51.6,95.4,16
933,15704.0,-2.2,-1.5,0.2,-0.7000000000000001,4.2,8.200000000000001,-3.0,39.0,97.89999999999999,16
934,15717.0,-1.9000000000000001,-1.4000000000000001,0.1,-0.4,4.3,8.1,4.2,29.900000000000006,101.10000000000001,16
935,15734.0,-1.8,-1.1,-0.30000000000000004,-0.1,4.6000000000000005,7.7,9.700000000000001,26.000000000000004,102.89999999999999,16
936,15752.0,-2.0,-0.7000000000000001,-0.5,-0.30000000000000004,5.0,7.5,12.600000000000001,15.700000000000001,102.10000000000001,16
937,15768.0,-2.5,-0.4,-0.8,-0.5,5.2,7.2,10.9,-6.0,100.1,16
938,15784.0,-2.5,-0.30000000000000004,-0.1,-0.30000000000000004,5.300000000000001,7.800000000000001,1.9,-34.50000000000001,99.9,16
939,15800.0,-2.0,-0.30000000000000004,1.6,0.5,5.1000000000000005,9.5,-4.6,-48.6,101.50000000000001,16
940,15817.0,-1.1,-0.1,3.3000000000000003,1.5,5.300000000000001,11.200000000000001,-1.4,-38.7,104.10000000000001,16
941,15834.0,0.0,0.30000000000000004,3.6,2.9000000000000004,5.6000000000000005,11.5,5.300000000000001,-16.0,102.5,16
942,15854.0,1.0,0.9,2.1,4.1000000000000005,6.1000000000000005,10.0,3.1,44.7,84.80000000000001,16
943,15867.0,1.0,0.9,2.1,4.1000000000000005,6.1000000000000005,10.0,3.1,44.7,84.80000000000001,16
944,15884.0,0.9,0.9,1.2000000000000002,3.9000000000000004,6.0,9.200000000000001,-5.300000000000001,65.0,75.9,16
945,15900.0,1.0,0.9,1.2000000000000002,3.9000000000000004,5.9,9.200000000000001,-12.7,73.6,69.3,16
946,15917.0,1.6,1.0,1.8,4.5,6.0,10.0,-12.9,68.2,62.0,16
947,15934.0,1.8,1.2000000000000002,1.9000000000000001,4.6000000000000005,6.1000000000000005,10.200000000000001,-4.1,51.0,52.2,16
948,15963.0,1.6,1.3,1.3,4.5,6.2,9.600000000000001,3.5,35.4,44.6,16
949,15968.0,1.6,1.5,0.9,4.4,6.4,9.200000000000001,3.7000000000000006,22.1,39.9,16
950,15987.0,1.8,1.7000000000000002,1.4000000000000001,4.7,6.5,9.700000000000001,0.6000000000000001,6.8,34.2,16
951,16000.0,2.1,1.6,2.1,5.0,6.5,10.4,0.1,-5.1000000000000005,26.700000000000003,16
952,16017.0,2.3000000000000003,1.4000000000000001,2.3000000000000003,5.300000000000001,6.300000000000001,10.600000000000001,4.1,-10.1,19.9,16
953,16035.0,2.7,1.2000000000000002,1.9000000000000001,5.800000000000001,6.1000000000000005,10.100000000000001,6.8,-8.600000000000001,11.1,16
954,16050.0,3.0,0.8,1.4000000000000001,6.1000000000000005,5.7,9.700000000000001,3.0,-4.7,-1.1,16
955,16068.0,3.0,0.4,1.0,6.1000000000000005,5.2,9.3,-6.1000000000000005,4.300000000000001,-15.299999999999999,16
956,16088.0,2.8000000000000003,-0.30000000000000004,1.1,5.800000000000001,4.6000000000000005,9.4,-16.200000000000003,21.7,-28.400000000000002,16
957,16102.0,2.3000000000000003,-0.9,1.0,5.2,3.9000000000000004,9.4,-19.6,45.7,-37.2,16
958,16122.0,1.4000000000000001,-1.8,-0.1,3.8000000000000003,3.0,8.4,-13.900000000000002,71.8,-42.800000000000004,16
959,16134.0,1.4000000000000001,-1.8,-0.1,3.8000000000000003,3.0,8.4,-13.900000000000002,71.8,-42.800000000000004,16
960,16157.0,1.1,-2.0,-0.6000000000000001,3.2,2.7,8.0,-6.500000000000001,76.3,-40.6,16
961,16168.0,1.3,-1.7000000000000002,0.5,3.2,3.2,9.1,9.0,64.60000000000001,-39.1,16
962,16198.0,-0.1,-2.2,-1.5,1.5,2.8000000000000003,7.1000000000000005,27.3,42.800000000000004,-24.5,16
963,16201.0,-0.1,-2.2,-1.5,1.5,2.8000000000000003,7.1000000000000005,27.3,42.800000000000004,-24.5,16
964,16218.0,0.2,-2.2,-1.3,1.7000000000000002,2.9000000000000004,7.300000000000001,35.1,29.800000000000004,-17.799999999999997,16
965,16234.0,0.2,-2.1,-1.0,1.6,3.1,7.5,46.800000000000004,19.400000000000002,-12.4,16
966,16251.0,0.30000000000000004,-1.8,-1.4000000000000001,1.8,3.5,7.0,57.400000000000006,8.3,-7.699999999999999,16
967,16271.0,0.2,-1.4000000000000001,-2.0,1.6,4.1000000000000005,6.300000000000001,62.7,2.3,-7.400000000000001,16
968,16284.0,-0.2,-1.0,-3.0,1.1,4.6000000000000005,5.2,59.5,1.9,-7.699999999999999,16
969,16301.0,-0.5,-0.5,-3.7,0.9,5.2,4.3,44.7,4.7,-6.2,16
970,16318.0,-0.4,0.0,-3.5,0.9,5.800000000000001,4.6000000000000005,23.0,-0.30000000000000004,-6.8,16
971,16335.0,-0.30000000000000004,0.4,-2.1,1.1,6.2,5.9,4.6,-10.0,-10.299999999999999,16
972,16351.0,-0.2,0.5,-0.7000000000000001,1.2000000000000002,6.2,7.300000000000001,-2.5,-17.5,-15.100000000000001,16
973,16367.0,-0.30000000000000004,0.5,0.1,1.1,6.300000000000001,8.1,-0.5,-16.200000000000003,-17.9,16
974,16384.0,-0.2,0.5,0.0,1.1,6.300000000000001,8.0,5.9,-6.699999999999999,-18.5,16
975,16401.0,-0.30000000000000004,0.5,-0.9,1.0,6.300000000000001,7.1000000000000005,6.8,1.2000000000000002,-20.2,16
976,16419.0,-0.6000000000000001,0.6000000000000001,-1.0,0.6000000000000001,6.5,7.0,-0.6000000000000001,5.4,-21.6,16
977,16434.0,-1.1,0.8,-0.2,0.1,6.6000000000000005,7.800000000000001,-8.0,2.2,-19.400000000000002,16
978,16450.0,-1.5,1.0,1.3,-0.2,6.800000000000001,9.4,-8.899999999999999,-12.600000000000001,-10.1,16
979,16468.0,-0.7000000000000001,1.0,3.8000000000000003,0.6000000000000001,6.800000000000001,11.8,5.7,-39.50000000000001,4.800000000000001,16
980,16487.0,0.0,0.6000000000000001,4.800000000000001,1.5,6.6000000000000005,12.700000000000001,41.1,-56.9,19.400000000000002,16
981,16502.0,0.5,0.1,3.6,2.2,6.2,11.3,85.1,-52.60000000000001,34.2,16
982,16518.0,0.9,-0.2,0.4,2.7,6.1000000000000005,8.0,117.0,-33.50000000000001,43.1,16
983,16534.0,0.8,-0.2,-3.3000000000000003,2.7,6.4,4.0,120.00000000000001,-14.900000000000002,42.5,16
984,16554.0,0.2,0.0,-6.2,2.2,6.800000000000001,0.9,87.80000000000001,-5.4,37.50000000000001,16
985,16567.0,-0.2,0.5,-6.4,1.8,7.300000000000001,0.6000000000000001,32.400000000000006,9.100000000000001,35.9,16
986,16585.0,-0.30000000000000004,0.7000000000000001,-4.4,1.8,7.4,2.7,-17.5,26.200000000000003,36.0,16
987,16600.0,-0.5,0.8,-1.7000000000000002,1.6,7.4,5.4,-46.199999999999996,41.6,33.9,16
988,16617.0,-0.8,0.8,-0.30000000000000004,1.3,7.300000000000001,7.0,-54.50000000000001,49.1,30.3,16
989,16634.0,-1.2000000000000002,0.7000000000000001,-0.1,0.8,7.0,7.300000000000001,-56.50000000000001,47.900000000000006,26.400000000000006,16
990,16651.0,-1.8,0.4,-0.2,0.1,6.6000000000000005,7.300000000000001,-61.7,42.800000000000004,26.700000000000003,16
991,16668.0,-2.3000000000000003,0.2,0.6000000000000001,-0.4,6.2,8.3,-72.10000000000001,36.0,33.300000000000004,16
992,16685.0,-2.7,0.1,2.6,-0.8,5.9,10.5,-77.5,31.799999999999997,47.2,16
993,16701.0,-2.2,0.0,4.2,-0.30000000000000004,5.6000000000000005,12.200000000000001,-70.4,26.700000000000003,63.70000000000001,16
994,16719.0,-1.1,0.0,5.4,0.8,5.4,13.5,-51.800000000000004,17.9,74.0,16
995,16735.0,-0.9,-0.30000000000000004,4.7,1.1,5.1000000000000005,12.9,-22.3,20.900000000000002,73.6,16
996,16766.0,-1.0,-0.7000000000000001,0.5,1.1,4.6000000000000005,8.700000000000001,0.4,40.1,70.3,16
997,16767.0,-1.0,-0.7000000000000001,0.5,1.1,4.6000000000000005,8.700000000000001,0.4,40.1,70.3,16
998,16784.0,-0.8,-0.7000000000000001,-0.30000000000000004,1.2000000000000002,4.6000000000000005,8.0,-6.300000000000001,48.9,65.2,16
999,16800.0,-0.8,-0.8,-0.7000000000000001,1.2000000000000002,4.4,7.7,-13.200000000000003,51.0,58.1,16
1000,16818.0,-0.7000000000000001,-0.8,-0.7000000000000001,1.3,4.2,7.7,-19.6,42.0,50.8,16
1001,16835.0,-0.2,-1.1,-0.4,1.8,3.9000000000000004,8.0,-23.6,29.900000000000006,43.50000000000001,16
1002,16854.0,-0.2,-1.3,-0.1,1.8,3.6,8.4,-23.5,29.300000000000004,37.300000000000004,16
1003,16869.0,-0.2,-1.4000000000000001,-0.2,1.7000000000000002,3.4000000000000004,8.3,-20.7,40.0,34.1,16
1004,16885.0,-0.1,-1.4000000000000001,-0.5,1.7000000000000002,3.4000000000000004,8.1,-18.0,52.2,31.0,16
1005,16900.0,-0.2,-1.2000000000000002,-1.1,1.5,3.5,7.5,-16.1,64.80000000000001,27.0,16
1006,16918.0,-0.4,-1.1,-1.7000000000000002,1.2000000000000002,3.6,7.0,-16.8,74.10000000000001,24.3,16
1007,16935.0,-0.5,-0.9,-1.8,0.9,3.7,7.0,-20.3,74.4,22.000000000000004,16
1008,16955.0,-0.5,-0.9,-1.5,0.7000000000000001,3.6,7.300000000000001,-21.500000000000004,73.6,19.9,16
1009,16973.0,-1.1,-0.9,-0.8,-0.30000000000000004,3.5,8.1,-14.600000000000001,97.40000000000002,25.7,16
1010,16984.0,-1.1,-0.9,-0.8,-0.30000000000000004,3.5,8.1,-14.600000000000001,97.40000000000002,25.7,16
1011,17006.0,-1.2000000000000002,-0.4,-0.7000000000000001,-0.7000000000000001,4.0,8.200000000000001,-5.6,119.49999999999999,40.2,16
1012,17018.0,-0.4,0.5,-0.1,-0.1,4.800000000000001,8.8,1.8000000000000003,113.4,50.3,16
1013,17034.0,0.2,1.2000000000000002,1.3,0.4,5.7,10.3,10.700000000000001,70.3,48.10000000000001,16
1014,17054.0,-0.2,1.3,2.9000000000000004,0.0,5.800000000000001,11.8,23.800000000000004,8.8,40.1,16
1015,17067.0,-0.2,0.7000000000000001,3.5,0.2,5.300000000000001,12.3,41.50000000000001,-25.4,36.7,16
1016,17084.0,0.4,0.30000000000000004,3.1,0.9,5.0,11.9,54.9,-22.6,38.60000000000001,16
1017,17100.0,1.2000000000000002,0.30000000000000004,1.8,1.7000000000000002,5.2,10.600000000000001,59.699999999999996,7.9,38.7,16
1018,17117.0,1.8,0.7000000000000001,0.4,2.3000000000000003,5.7,9.0,51.50000000000001,29.400000000000002,30.599999999999998,16
1019,17136.0,2.0,0.8,-0.6000000000000001,2.5,5.9,8.0,35.3,35.699999999999996,17.1,16
1020,17151.0,1.7000000000000002,0.7000000000000001,-0.8,2.1,5.9,7.800000000000001,19.0,34.7,2.6,16
1021,17171.0,1.2000000000000002,0.4,-0.9,1.5,5.5,7.7,9.2,30.799999999999997,-7.6,16
1022,17185.0,0.9,0.30000000000000004,-1.1,1.0,5.5,7.5,3.6000000000000005,29.400000000000002,-12.200000000000001,16
1023,17200.0,1.0,0.30000000000000004,-1.2000000000000002,1.1,5.5,7.300000000000001,1.2000000000000002,29.200000000000003,-14.100000000000001,16
1024,17222.0,1.0,0.6000000000000001,-1.8,1.0,5.7,6.7,-2.8,22.9,-18.5,16
1025,17234.0,0.7000000000000001,0.8,-2.3000000000000003,0.6000000000000001,6.0,6.2,-13.000000000000002,16.8,-25.4,16
1026,17255.0,0.1,0.9,-2.1,0.0,6.0,6.5,-28.400000000000002,13.3,-33.0,16
1027,17269.0,-0.5,0.6000000000000001,-1.0,-0.7000000000000001,5.6000000000000005,7.6000000000000005,-41.199999999999996,8.700000000000001,-37.0,16
1028,17285.0,-1.0,0.4,0.1,-1.3,5.300000000000001,8.8,-48.10000000000001,6.0,-35.2,16
1029,17301.0,-1.3,0.4,1.8,-1.6,5.1000000000000005,10.600000000000001,-48.9,-7.699999999999999,-28.900000000000002,16
1030,17320.0,-1.0,0.0,3.6,-1.3,4.6000000000000005,12.4,-37.7,-28.3,-20.1,16
1031,17335.0,-0.4,-0.4,3.8000000000000003,-0.6000000000000001,4.1000000000000005,12.700000000000001,-16.6,-37.0,-11.1,16
1032,17356.0,0.6000000000000001,-1.0,0.6000000000000001,0.1,3.7,11.4,10.1,-9.5,-0.5,16
1033,17368.0,0.6000000000000001,-1.0,0.6000000000000001,0.5,3.6,9.5,10.1,-9.5,-0.5,16
1034,17384.0,0.8,-1.0,-0.9,0.7000000000000001,3.6,8.0,5.500000000000001,9.100000000000001,-1.3,16
1035,17402.0,0.8,-0.9,-1.7000000000000002,0.6000000000000001,3.7,7.2,-5.6,23.0,-3.1,16
1036,17418.0,1.1,-0.7000000000000001,-1.3,0.8,3.9000000000000004,7.6000000000000005,-15.6,23.3,-5.6,16
1037,17434.0,1.1,-0.6000000000000001,-0.5,0.8,3.9000000000000004,8.4,-16.6,15.6,-8.4,16
1038,17455.0,1.1,-0.7000000000000001,-0.1,0.8,3.8000000000000003,8.8,1.5,-1.0,-8.5,16
1039,17477.0,1.4000000000000001,-0.6000000000000001,-1.0,1.0,3.9000000000000004,7.9,8.0,-5.0,-8.899999999999999,16
1040,17485.0,1.4000000000000001,-0.6000000000000001,-1.0,1.0,3.9000000000000004,7.9,8.0,-5.0,-8.899999999999999,16
1041,17504.0,1.4000000000000001,-0.5,-1.8,1.1,4.0,7.1000000000000005,2.7,-11.4,-12.0,16
1042,17518.0,1.4000000000000001,-0.5,-1.8,1.1,4.0,7.1000000000000005,2.7,-11.4,-12.0,16
1043,17540.0,1.3,-0.5,-1.5,1.1,4.0,7.300000000000001,0.1,-12.7,-13.6,16
1044,17551.0,1.4000000000000001,-0.4,-1.2000000000000002,1.2000000000000002,4.1000000000000005,7.7,2.5,-11.000000000000002,-15.700000000000001,16
1045,17573.0,1.3,-0.30000000000000004,-1.7000000000000002,1.0,4.2,7.2,7.0,-2.8,-18.0,16
1046,17587.0,1.0,0.0,-2.4000000000000004,0.7000000000000001,4.5,6.4,4.0,4.7,-19.200000000000003,16
1047,17600.0,0.6000000000000001,0.1,-2.2,0.30000000000000004,4.7,6.6000000000000005,-3.6000000000000005,7.400000000000001,-19.1,16
1048,17622.0,0.4,0.30000000000000004,-1.7000000000000002,0.1,4.800000000000001,7.2,-7.400000000000001,3.5,-14.200000000000001,16
1049,17634.0,0.2,0.6000000000000001,-1.3,-0.2,5.1000000000000005,7.5,-7.400000000000001,3.5,-14.200000000000001,16
1050,17656.0,-0.1,0.8,-1.0,-0.5,5.300000000000001,7.800000000000001,-6.0,-0.9000000000000001,-11.6,16
1051,17668.0,-0.5,1.0,-0.6000000000000001,-0.9,5.5,8.3,-5.2,-4.9,-8.3,16
1052,17684.0,-1.0,1.1,0.5,-1.4000000000000001,5.6000000000000005,9.3,-4.9,-10.9,-2.6,16
1053,17700.0,-1.3,1.3,1.2000000000000002,-1.7000000000000002,5.800000000000001,10.0,-0.9000000000000001,-9.3,6.4,16
1054,17718.0,-1.4000000000000001,1.5,1.6,-1.8,6.0,10.5,3.8,-6.8,16.3,16
1055,17734.0,-1.2000000000000002,1.6,2.1,-1.4000000000000001,6.1000000000000005,11.0,9.2,-10.299999999999999,25.0,16
1056,17756.0,-1.3,1.5,2.8000000000000003,-1.5,6.1000000000000005,11.600000000000001,16.700000000000003,-10.299999999999999,33.300000000000004,16
1057,17768.0,-1.3,1.5,2.8000000000000003,-1.4000000000000001,6.2,11.700000000000001,24.900000000000002,-2.9,43.6,16
1058,17784.0,-1.0,1.8,2.1,-1.1,6.5,10.9,27.800000000000004,3.3000000000000007,53.10000000000001,16
1059,17802.0,-0.2,2.2,1.7000000000000002,-0.2,7.0,10.5,20.3,1.9,55.0,16
1060,17821.0,0.2,2.2,1.8,0.30000000000000004,7.0,10.600000000000001,5.6,-15.8,46.50000000000001,16
1061,17834.0,0.30000000000000004,1.5,2.9000000000000004,0.5,6.2,11.700000000000001,-11.2,-37.400000000000006,33.2,16
1062,17855.0,0.1,0.0,4.0,0.5,4.7,12.9,-19.700000000000003,-43.800000000000004,23.099999999999998,16
1063,17867.0,-0.4,-1.2000000000000002,3.9000000000000004,0.1,3.5,12.8,-15.700000000000001,-17.400000000000002,22.3,16
1064,17885.0,-0.5,-1.9000000000000001,2.2,-0.1,2.8000000000000003,11.100000000000001,-4.300000000000001,36.7,30.5,16
1065,17903.0,-0.4,-1.7000000000000002,-0.4,-0.2,2.9000000000000004,8.5,1.8000000000000003,81.50000000000001,38.50000000000001,16
1066,17918.0,-0.30000000000000004,-1.1,-2.4000000000000004,-0.30000000000000004,3.6,6.5,0.4,98.50000000000001,41.1,16
1067,17948.0,-1.2000000000000002,-0.7000000000000001,-4.7,-1.5,3.9000000000000004,4.2,-17.799999999999997,79.1,32.2,16
1068,17959.0,-1.2000000000000002,-0.7000000000000001,-4.7,-1.5,3.9000000000000004,4.2,-17.799999999999997,79.1,32.2,16
1069,17970.0,-0.9,-1.0,-4.2,-1.3,3.6,4.7,-31.0,57.400000000000006,32.300000000000004,16
1070,17984.0,-1.2000000000000002,-0.8,-3.0,-1.7000000000000002,3.6,5.9,-37.1,32.6,29.900000000000006,16
1071,18000.0,-1.4000000000000001,-1.0,-1.7000000000000002,-1.9000000000000001,3.3000000000000003,7.2,-34.50000000000001,6.500000000000001,32.9,16
1072,18018.0,-1.5,-1.1,-0.6000000000000001,-1.9000000000000001,3.2,8.4,-23.700000000000003,-12.299999999999999,40.4,16
1073,18034.0,-1.3,-1.1,-0.1,-1.6,3.2,8.9,-8.3,-22.4,49.199999999999996,16
1074,18056.0,-0.6000000000000001,-0.9,-0.30000000000000004,-0.8,3.3000000000000003,8.700000000000001,5.8,-26.9,55.3,16
1075,18068.0,-0.2,-0.7000000000000001,-0.7000000000000001,-0.2,3.6,8.3,13.000000000000002,-29.200000000000003,53.9,16
1076,18088.0,-0.2,-0.4,-0.9,0.0,3.9000000000000004,8.0,12.5,-18.4,44.7,16
1077,18100.0,-0.2,-0.4,-0.9,0.0,3.9000000000000004,8.0,12.5,-18.4,44.7,16
1078,18120.0,-0.1,-0.2,-0.7000000000000001,0.2,4.1000000000000005,8.200000000000001,11.900000000000002,-6.9,40.1,16
1079,18135.0,-0.1,-0.1,-0.6000000000000001,0.2,4.3,8.3,13.000000000000002,4.0,35.1,16
1080,18156.0,-0.1,-0.1,-0.6000000000000001,0.2,4.3,8.3,13.000000000000002,4.0,35.1,16
1081,18168.0,-0.30000000000000004,0.4,-1.1,0.0,4.9,7.800000000000001,15.6,19.700000000000003,27.0,16
1082,18185.0,-0.2,0.7000000000000001,-1.0,0.1,5.2,7.800000000000001,14.0,21.900000000000002,23.2,16
1083,18201.0,0.0,0.9,-0.6000000000000001,0.30000000000000004,5.5,8.200000000000001,13.000000000000002,19.300000000000004,18.1,16
1084,18218.0,0.1,1.1,-0.30000000000000004,0.30000000000000004,5.7,8.5,12.8,13.900000000000002,12.100000000000001,16
1085,18235.0,0.1,1.2000000000000002,0.2,0.30000000000000004,5.800000000000001,9.0,10.9,7.0,6.2,16
1086,18262.0,-0.1,1.1,1.7000000000000002,0.2,5.800000000000001,10.5,7.9,-1.9,-2.9,16
1087,18268.0,-0.1,1.1,1.7000000000000002,0.2,5.800000000000001,10.5,7.9,-1.9,-2.9,16
1088,18284.0,-0.30000000000000004,0.8,2.2,0.0,5.6000000000000005,11.0,12.100000000000001,0.9000000000000001,-4.2,16
1089,18300.0,-0.30000000000000004,0.6000000000000001,2.2,-0.1,5.4,11.0,16.900000000000002,10.1,-2.4000000000000004,16
1090,18318.0,-0.30000000000000004,0.6000000000000001,1.8,-0.1,5.4,10.600000000000001,18.3,17.300000000000004,0.5,16
1091,18340.0,-0.2,0.6000000000000001,1.5,-0.1,5.5,10.200000000000001,15.2,17.6,2.5,16
1092,18355.0,0.5,0.8,0.30000000000000004,0.5,5.7,9.0,5.6,30.699999999999996,8.8,16
1093,18368.0,0.5,0.8,0.30000000000000004,0.5,5.7,9.0,5.6,30.699999999999996,8.8,16
1094,18385.0,0.7000000000000001,0.9,-0.2,0.6000000000000001,5.800000000000001,8.5,-5.9,34.300000000000004,6.699999999999999,16
1095,18400.0,0.6000000000000001,1.1,-0.1,0.5,5.9,8.6,-18.6,31.0,3.3000000000000007,16
1096,18418.0,0.7000000000000001,0.9,0.4,0.5,5.6000000000000005,9.200000000000001,-27.2,28.400000000000002,0.8,16
1097,18435.0,0.6000000000000001,0.5,0.9,0.4,5.2,9.8,-28.1,28.700000000000003,-1.1,16
1098,18455.0,0.5,0.2,1.2000000000000002,0.2,4.800000000000001,10.0,-23.6,26.1,-0.5,16
1099,18467.0,0.6000000000000001,-0.1,1.2000000000000002,0.2,4.5,10.100000000000001,-16.8,21.500000000000004,3.4,16
1100,18485.0,1.0,-0.2,1.2000000000000002,0.6000000000000001,4.4,10.100000000000001,-8.3,17.0,7.300000000000001,16
1101,18501.0,1.4000000000000001,-0.5,0.8,1.0,4.1000000000000005,9.600000000000001,1.2000000000000002,17.7,8.600000000000001,16
1102,18518.0,1.6,-0.8,0.0,1.1,3.8000000000000003,8.8,8.100000000000001,21.6,6.500000000000001,16
1103,18534.0,1.6,-1.0,-0.8,1.1,3.6,8.0,9.899999999999999,26.5,2.5,16
1104,18556.0,1.6,-1.1,-1.6,1.0,3.5,7.2,7.200000000000001,28.3,-3.8,16
1105,18567.0,1.6,-1.3,-2.2,0.9,3.3000000000000003,6.6000000000000005,0.1,25.5,-10.9,16
1106,18586.0,1.5,-1.4000000000000001,-2.1,0.8,3.2,6.7,-8.600000000000001,17.9,-18.200000000000003,16
1107,18601.0,1.3,-1.5,-1.6,0.5,3.1,7.2,-13.6,6.1000000000000005,-24.7,16
1108,18617.0,1.2000000000000002,-1.6,-1.2000000000000002,0.30000000000000004,2.9000000000000004,7.7,-12.600000000000001,-5.2,-28.700000000000003,16
1109,18635.0,1.1,-1.7000000000000002,-1.2000000000000002,0.30000000000000004,2.8000000000000003,7.6000000000000005,-6.9,-11.900000000000002,-30.799999999999997,16
1110,18657.0,1.1,-1.7000000000000002,-1.7000000000000002,0.30000000000000004,2.8000000000000003,7.1000000000000005,-1.4,-13.900000000000002,-31.5,16
1111,18667.0,1.2000000000000002,-1.6,-2.3000000000000003,0.30000000000000004,2.9000000000000004,6.6000000000000005,1.0,-15.5,-32.300000000000004,16
1112,18684.0,1.2000000000000002,-1.4000000000000001,-2.5,0.4,3.0,6.4,1.0,-17.799999999999997,-33.6,16
1113,18701.0,1.1,-1.2000000000000002,-2.5,0.30000000000000004,3.2,6.300000000000001,2.0,-22.6,-36.300000000000004,16
1114,18717.0,1.0,-1.0,-2.7,0.2,3.5,6.1000000000000005,3.4,-29.400000000000002,-39.400000000000006,16
1115,18735.0,0.7000000000000001,-0.8,-2.7,0.0,3.6,6.1000000000000005,2.9,-36.9,-41.800000000000004,16
1116,18751.0,0.2,-0.5,-2.8000000000000003,-0.5,3.9000000000000004,6.0,0.8,-36.9,-41.900000000000006,16
1117,18767.0,0.1,-0.2,-2.6,-0.6000000000000001,4.2,6.2,-4.2,-29.900000000000006,-38.900000000000006,16
1118,18785.0,0.0,0.4,-2.1,-0.7000000000000001,4.7,6.800000000000001,-12.9,-26.5,-38.0,16
1119,18801.0,-0.2,1.1,-1.4000000000000001,-0.9,5.4,7.5,-23.700000000000003,-20.8,-41.900000000000006,16
1120,18817.0,-0.7000000000000001,1.6,-1.1,-1.4000000000000001,5.800000000000001,7.800000000000001,-36.400000000000006,-0.1,-46.6,16
1121,18834.0,-1.5,1.9000000000000001,-0.9,-2.4000000000000004,5.9,8.1,-52.5,28.500000000000004,-48.2,16
1122,18853.0,-2.4000000000000004,1.9000000000000001,-0.2,-3.5,5.800000000000001,8.8,-67.8,51.9,-45.099999999999994,16
1123,18868.0,-3.3000000000000003,1.9000000000000001,1.3,-4.6000000000000005,5.6000000000000005,10.4,-73.6,70.7,-34.300000000000004,16
1124,18884.0,-3.8000000000000003,1.8,2.7,-5.300000000000001,5.4,11.8,-64.4,75.4,-16.5,16
1125,18900.0,-3.8000000000000003,1.8,3.5,-5.5,5.2,12.600000000000001,-41.6,65.2,2.7,16
1126,18918.0,-3.5,1.6,3.3000000000000003,-5.300000000000001,5.0,12.5,-15.2,43.4,19.700000000000003,16
1127,18934.0,-3.2,1.3,2.9000000000000004,-5.0,4.7,12.100000000000001,6.600000000000001,22.000000000000004,36.1,16
1128,18953.0,-2.9000000000000004,1.2000000000000002,2.4000000000000004,-4.7,4.800000000000001,11.5,20.599999999999998,7.9,53.599999999999994,16
1129,18967.0,-2.3000000000000003,1.5,1.9000000000000001,-4.0,5.1000000000000005,11.0,24.900000000000002,6.500000000000001,69.80000000000001,16
1130,18984.0,-1.4000000000000001,1.7000000000000002,2.2,-3.1,5.4,11.200000000000001,24.0,7.400000000000001,78.7,16
1131,19001.0,-0.7000000000000001,1.8,2.6,-2.4000000000000004,5.7,11.700000000000001,21.8,1.7,78.9,16
1132,19017.0,-0.30000000000000004,1.6,2.8000000000000003,-1.8,5.5,11.8,19.200000000000003,-6.2,72.2,16
1133,19034.0,0.0,0.8,2.8000000000000003,-1.4000000000000001,4.800000000000001,11.9,16.5,-8.600000000000001,63.0,16
1134,19053.0,0.2,-0.2,2.2,-1.2000000000000002,3.9000000000000004,11.3,13.5,0.6000000000000001,56.300000000000004,16
1135,19067.0,0.30000000000000004,-1.1,1.2000000000000002,-1.1,3.0,10.200000000000001,8.899999999999999,19.799999999999997,55.1,16
1136,19084.0,0.30000000000000004,-1.5,-0.2,-1.1,2.7,8.8,4.1,45.6,59.80000000000001,16
1137,19100.0,0.5,-1.5,-1.7000000000000002,-1.0,2.7,7.300000000000001,-1.6,65.3,65.6,16
1138,19118.0,0.7000000000000001,-1.3,-2.8000000000000003,-0.9,2.9000000000000004,6.1000000000000005,-8.0,70.9,67.2,16
1139,19135.0,0.6000000000000001,-1.0,-3.5,-1.1,3.1,5.4,-14.700000000000001,62.6,63.30000000000001,16
1140,19156.0,0.0,-0.7000000000000001,-3.0,-1.7000000000000002,3.4000000000000004,6.0,-29.700000000000006,14.200000000000001,52.300000000000004,16
1141,19167.0,0.0,-0.7000000000000001,-3.0,-1.7000000000000002,3.4000000000000004,6.0,-29.700000000000006,14.200000000000001,52.300000000000004,16
1142,19186.0,-0.30000000000000004,-0.8,-1.8,-1.9000000000000001,3.2,7.2,-31.099999999999998,-19.700000000000003,49.50000000000001,16
1143,19201.0,-0.7000000000000001,-0.9,-0.5,-2.1,3.0,8.5,-27.400000000000002,-51.800000000000004,49.300000000000004,16
1144,19220.0,-0.9,-1.1,0.8,-2.1,2.8000000000000003,9.8,-17.7,-70.6,52.900000000000006,16
1145,19234.0,-0.8,-1.2000000000000002,1.1,-1.7000000000000002,2.7,10.200000000000001,-3.7000000000000006,-66.0,59.60000000000001,16
1146,19250.0,-0.30000000000000004,-1.2000000000000002,0.8,-1.1,2.7,9.9,9.3,-45.2,66.0,16
1147,19271.0,0.2,-1.0,0.0,-0.4,3.0,9.1,17.5,-17.6,67.9,16
1148,19285.0,0.5,-0.7000000000000001,-0.6000000000000001,-0.1,3.3000000000000003,8.4,18.700000000000003,6.4,64.7,16
1149,19301.0,0.7000000000000001,-0.5,-1.2000000000000002,0.1,3.6,7.800000000000001,17.0,24.8,57.60000000000001,16
1150,19319.0,0.7000000000000001,-0.4,-1.4000000000000001,0.1,3.7,7.6000000000000005,13.700000000000001,37.9,49.1,16
1151,19334.0,0.6000000000000001,-0.4,-1.3,-0.1,3.7,7.7,11.3,42.900000000000006,41.50000000000001,16
1152,19358.0,0.5,-0.5,-1.0,-0.2,3.7,8.0,12.200000000000001,40.4,35.0,16
1153,19368.0,0.5,-0.5,-0.6000000000000001,-0.2,3.8000000000000003,8.3,16.900000000000002,32.6,27.400000000000002,16
1154,19384.0,0.30000000000000004,-0.6000000000000001,-0.6000000000000001,-0.5,3.7,8.3,23.5,27.800000000000004,19.300000000000004,16
1155,19401.0,-0.1,-0.8,-0.7000000000000001,-0.9,3.6,8.1,27.2,28.600000000000005,13.700000000000001,16
1156,19418.0,0.0,-0.7000000000000001,-0.7000000000000001,-0.9,3.8000000000000003,8.1,27.700000000000003,37.1,12.100000000000001,16
1157,19434.0,0.7000000000000001,0.0,-0.2,-0.4,4.5,8.5,27.5,46.7,9.3,16
1158,19451.0,0.5,0.6000000000000001,0.2,-0.6000000000000001,5.2,8.9,30.000000000000004,48.10000000000001,-0.5,16
1159,19467.0,-0.8,1.0,0.9,-2.1,5.7,9.600000000000001,30.599999999999998,33.7,-12.200000000000001,16
1160,19484.0,-2.7,0.9,2.1,-4.0,5.7,10.700000000000001,30.200000000000003,16.200000000000003,-13.100000000000001,16
1161,19501.0,-3.7,0.8,2.8000000000000003,-5.1000000000000005,5.6000000000000005,11.3,29.300000000000004,15.6,5.4,16
1162,19520.0,-4.1000000000000005,1.1,3.7,-5.5,6.1000000000000005,12.3,26.6,25.300000000000004,33.300000000000004,16
1163,19534.0,-3.1,1.6,5.2,-4.5,6.6000000000000005,13.700000000000001,32.2,43.1,64.9,16
1164,19559.0,-1.6,2.2,4.800000000000001,-3.0,7.4,13.3,55.2,59.00000000000001,100.6,16
1165,19567.0,-0.30000000000000004,2.6,2.9000000000000004,-1.8,8.0,11.200000000000001,55.2,59.00000000000001,100.6,16
1166,19584.0,0.8,2.8000000000000003,1.5,-0.6000000000000001,8.3,9.700000000000001,46.0,55.400000000000006,101.50000000000001,16
1167,19600.0,2.3000000000000003,2.3000000000000003,1.4000000000000001,0.9,8.0,9.600000000000001,31.3,53.50000000000001,94.3,16
1168,19618.0,3.0,1.9000000000000001,1.4000000000000001,1.7000000000000002,7.6000000000000005,9.5,24.599999999999998,55.400000000000006,76.89999999999999,16
1169,19634.0,2.9000000000000004,1.1,1.0,1.5,6.9,9.0,22.1,57.1,56.9,16
1170,19653.0,2.8000000000000003,0.1,0.6000000000000001,1.3,6.1000000000000005,8.6,20.0,56.800000000000004,39.50000000000001,16
1171,19668.0,2.8000000000000003,-0.6000000000000001,-0.5,1.3,5.300000000000001,7.4,17.400000000000002,58.400000000000006,25.4,16
1172,19687.0,2.9000000000000004,-1.6,-2.8000000000000003,1.2000000000000002,4.4,5.0,-5.2,53.599999999999994,-1.1,16
1173,19701.0,2.9000000000000004,-1.6,-2.8000000000000003,1.2000000000000002,4.4,5.0,-5.2,53.599999999999994,-1.1,16
1174,19718.0,3.0,-2.1,-3.2,1.1,3.8000000000000003,4.7,-21.7,45.3,-14.900000000000002,16
1175,19734.0,2.9000000000000004,-2.5,-3.8000000000000003,0.9,3.3000000000000003,4.0,-38.400000000000006,36.0,-27.9,16
1176,19752.0,2.6,-2.9000000000000004,-4.1000000000000005,0.5,2.7,3.8000000000000003,-58.2,26.5,-39.1,16
1177,19768.0,1.9000000000000001,-3.2,-2.8000000000000003,-0.30000000000000004,2.2,5.2,-74.4,13.8,-45.8,16
1178,19784.0,1.5,-3.4000000000000004,-1.6,-0.7000000000000001,1.8,6.5,-77.4,2.0,-43.4,16
1179,19801.0,1.3,-3.4000000000000004,-1.2000000000000002,-1.0,1.6,7.1000000000000005,-70.6,-9.100000000000001,-33.7,16
1180,19819.0,1.6,-3.0,-1.1,-0.7000000000000001,1.8,7.2,-58.800000000000004,-19.799999999999997,-21.200000000000003,16
1181,19834.0,1.9000000000000001,-2.5,-1.0,-0.30000000000000004,2.2,7.5,-45.3,-28.800000000000004,-12.299999999999999,16
1182,19858.0,2.1,-1.7000000000000002,-0.6000000000000001,0.1,2.8000000000000003,8.0,-10.700000000000001,-42.3,-8.8,16
1183,19868.0,2.1,-1.7000000000000002,-0.6000000000000001,0.1,2.8000000000000003,8.0,-10.700000000000001,-42.3,-8.8,16
1184,19888.0,2.1,-1.4000000000000001,-1.5,0.2,3.2,7.1000000000000005,0.7,-34.2,-11.700000000000001,16
1185,19902.0,1.8,-0.8,-2.4000000000000004,0.0,3.7,6.2,0.6000000000000001,-17.799999999999997,-16.1,16
1186,19921.0,1.7000000000000002,-0.4,-2.3000000000000003,-0.2,4.1000000000000005,6.2,-9.4,-0.6000000000000001,-22.1,16
1187,19934.0,1.5,0.1,-0.9,-0.5,4.6000000000000005,7.6000000000000005,-17.200000000000003,9.5,-30.3,16
1188,19953.0,1.1,0.6000000000000001,0.1,-1.0,5.0,8.700000000000001,-15.8,13.5,-37.2,16
1189,19967.0,0.5,0.8,0.5,-1.6,5.1000000000000005,9.0,-11.5,10.4,-40.9,16
1190,19984.0,0.1,0.8,0.8,-2.0,5.1000000000000005,9.4,-9.2,3.4,-40.5,16
1191,20000.0,-0.30000000000000004,0.9,1.1,-2.5,5.2,9.700000000000001,-7.6,-1.6,-36.9,16
1192,20018.0,-0.8,1.3,1.4000000000000001,-3.1,5.5,10.100000000000001,-7.300000000000001,-5.4,-29.0,16
1193,20034.0,-1.1,1.5,2.2,-3.3000000000000003,5.7,10.8,-6.4,-12.5,-19.300000000000004,16
1194,20053.0,-1.2000000000000002,1.6,2.7,-3.4000000000000004,5.800000000000001,11.4,-2.5,-19.300000000000004,-8.600000000000001,16
1195,20068.0,-1.2000000000000002,1.7000000000000002,3.2,-3.3000000000000003,5.9,11.9,3.9,-24.5,3.5,16
1196,20084.0,-0.9,1.6,3.4000000000000004,-2.9000000000000004,5.9,12.100000000000001,13.6,-26.5,15.8,16
1197,20101.0,-0.30000000000000004,1.5,3.0,-2.3000000000000003,5.9,11.700000000000001,25.1,-21.900000000000002,25.200000000000003,16
1198,20118.0,0.2,1.3,1.4000000000000001,-2.3000000000000003,5.9,11.700000000000001,31.2,-5.8,28.600000000000005,16
1199,20134.0,-0.7000000000000001,2.1,0.6000000000000001,-2.3000000000000003,5.9,11.700000000000001,22.9,5.300000000000001,27.9,16
1200,20152.0,-0.7000000000000001,2.0,0.30000000000000004,-2.6,6.6000000000000005,8.9,8.5,3.4,29.1,16
1201,20167.0,-0.6000000000000001,1.6,0.6000000000000001,-2.5,6.2,9.200000000000001,-5.300000000000001,-1.9,25.300000000000004,16
1202,20184.0,-0.9,1.1,0.8,-2.7,5.7,9.5,-14.200000000000001,-8.0,21.200000000000003,16
1203,20200.0,-0.6000000000000001,0.2,0.6000000000000001,-2.3000000000000003,4.7,9.3,-19.400000000000002,-12.600000000000001,18.3,16
1204,20217.0,-0.4,-0.6000000000000001,-0.1,-2.1,3.9000000000000004,8.6,-23.099999999999998,-7.1000000000000005,15.6,16
1205,20239.0,-0.4,-0.9,-1.2000000000000002,-2.1,3.5,7.6000000000000005,-27.800000000000004,10.600000000000001,13.8,16
1206,20252.0,-0.8,-0.7000000000000001,-2.2,-2.6,3.6,6.6000000000000005,-34.7,26.6,14.600000000000001,16
1207,20267.0,0.0,-1.4000000000000001,-2.2,-1.8,2.8000000000000003,6.6000000000000005,-45.2,35.5,19.5,16
1208,20284.0,-1.2000000000000002,-0.5,-2.0,-3.0,3.5,6.9,-47.7,21.8,11.6,16
1209,20301.0,-0.8,-0.9,-1.2000000000000002,-2.7,3.1,7.7,-45.8,2.1,17.5,16
1210,20317.0,-0.5,-1.2000000000000002,-0.1,-2.3000000000000003,2.7,8.8,-36.5,-16.0,19.200000000000003,16
1211,20334.0,-0.8,-1.2000000000000002,0.4,-2.5,2.6,9.4,-20.3,-28.3,22.5,16
1212,20351.0,-0.4,-1.3,0.2,-2.0,2.6,9.3,-2.9,-27.099999999999998,30.000000000000004,16
1213,20374.0,0.30000000000000004,-1.1,-0.7000000000000001,-1.3,2.8000000000000003,8.3,10.1,-17.5,34.2,16
1214,20384.0,0.9,-1.0,-2.1,-0.5,2.9000000000000004,6.9,14.200000000000001,-2.7,32.0,16
1215,20400.0,1.2000000000000002,-0.8,-3.3000000000000003,-0.30000000000000004,3.2,5.7,7.300000000000001,13.900000000000002,25.300000000000004,16
1216,20418.0,1.4000000000000001,-0.6000000000000001,-3.7,-0.1,3.3000000000000003,5.300000000000001,-4.800000000000001,29.400000000000002,16.900000000000002,16
1217,20434.0,1.3,-0.30000000000000004,-3.5,-0.30000000000000004,3.6,5.4,-15.700000000000001,40.9,8.3,16
1218,20454.0,0.9,0.0,-2.8000000000000003,-0.8,3.9000000000000004,6.1000000000000005,-20.5,45.099999999999994,3.0,16
1219,20468.0,0.8,0.4,-1.9000000000000001,-1.1,4.2,6.9,-17.400000000000002,43.00000000000001,1.4,16
1220,20484.0,0.7000000000000001,0.9,-1.6,-1.2000000000000002,4.7,7.300000000000001,-10.200000000000001,35.0,0.6000000000000001,16
1221,20501.0,0.7000000000000001,1.3,-1.3,-1.3,5.1000000000000005,7.5,-3.9,18.4,-3.0,16
1222,20517.0,0.6000000000000001,1.5,-1.1,-1.3,5.300000000000001,7.800000000000001,-1.9,-5.0,-10.700000000000001,16
1223,20534.0,0.2,1.5,-0.30000000000000004,-1.7000000000000002,5.300000000000001,8.6,-3.1,-26.000000000000004,-19.200000000000003,16
1224,20551.0,-0.30000000000000004,1.4000000000000001,0.6000000000000001,-2.1,5.1000000000000005,9.5,-3.7000000000000006,-32.2,-24.1,16
1225,20570.0,-0.6000000000000001,1.2000000000000002,1.4000000000000001,-2.5,4.9,10.3,-3.6000000000000005,-25.0,-24.200000000000003,16
1226,20584.0,-0.6000000000000001,1.2000000000000002,1.8,-2.5,4.9,10.8,-3.5,-10.0,-22.2,16
1227,20601.0,-0.4,1.4000000000000001,1.8,-2.3000000000000003,5.1000000000000005,10.700000000000001,-3.7000000000000006,6.1000000000000005,-21.900000000000002,16
1228,20620.0,-0.5,1.5,1.5,-2.4000000000000004,5.2,10.5,-6.8,16.3,-25.6,16
1229,20634.0,-0.7000000000000001,1.5,1.6,-2.7,5.1000000000000005,10.5,-12.8,19.1,-29.700000000000006,16
1230,20653.0,-1.1,1.4000000000000001,2.0,-3.2,5.0,11.0,-18.700000000000003,14.300000000000002,-32.8,16
1231,20668.0,-1.6,1.4000000000000001,2.5,-3.7,4.9,11.5,-22.000000000000004,9.8,-30.5,16
1232,20689.0,-1.6,1.2000000000000002,3.0,-3.8000000000000003,4.7,12.0,-24.0,5.1000000000000005,-22.6,16
1233,20701.0,-1.3,1.1,3.7,-3.5,4.5,12.700000000000001,-23.2,3.7000000000000006,-12.0,16
1234,20719.0,-0.5,1.1,4.3,-2.8000000000000003,4.4,13.4,-16.8,7.300000000000001,-3.5,16
1235,20735.0,0.0,0.9,4.1000000000000005,-2.3000000000000003,4.2,13.200000000000001,-5.2,14.400000000000002,0.6000000000000001,16
1236,20761.0,0.5,-0.30000000000000004,2.5,-1.9000000000000001,3.1,11.600000000000001,21.300000000000004,25.4,3.5,16
1237,20773.0,0.5,-0.30000000000000004,2.5,-1.9000000000000001,3.1,11.600000000000001,21.300000000000004,25.4,3.5,16
1238,20785.0,0.8,-0.8,1.4000000000000001,-1.7000000000000002,2.6,10.4,30.200000000000003,28.700000000000003,7.6,16
1239,20800.0,1.2000000000000002,-1.2000000000000002,0.7000000000000001,-1.3,2.3000000000000003,9.700000000000001,35.3,29.400000000000002,11.8,16
1240,20818.0,1.7000000000000002,-1.5,0.5,-0.9,2.2,9.4,40.5,26.200000000000003,14.5,16
1241,20834.0,2.3000000000000003,-1.7000000000000002,-0.2,-0.30000000000000004,2.1,8.700000000000001,48.400000000000006,19.200000000000003,13.700000000000001,16
1242,20851.0,2.8000000000000003,-2.0,-1.3,0.2,2.0,7.5,52.00000000000001,8.899999999999999,8.2,16
1243,20881.0,2.9000000000000004,-2.2,-2.7,0.30000000000000004,1.9000000000000001,6.0,32.400000000000006,-17.200000000000003,-14.200000000000001,16
1244,20884.0,2.9000000000000004,-2.2,-2.7,0.30000000000000004,1.9000000000000001,6.0,32.400000000000006,-17.200000000000003,-14.200000000000001,16
1245,20901.0,2.8000000000000003,-2.1,-2.5,0.30000000000000004,2.0,6.2,16.3,-25.5,-24.0,16
1246,20918.0,2.5,-2.1,-1.8,0.1,2.0,6.800000000000001,2.8,-33.50000000000001,-33.1,16
1247,20935.0,2.1,-2.0,-1.2000000000000002,-0.30000000000000004,2.0,7.5,-5.300000000000001,-39.699999999999996,-38.7,16
1248,20952.0,1.8,-1.8,-0.7000000000000001,-0.5,2.2,8.0,-6.600000000000001,-42.7,-40.2,16
1249,20968.0,1.7000000000000002,-1.6,-0.9,-0.5,2.3000000000000003,7.9,-3.3000000000000007,-43.50000000000001,-39.50000000000001,16
1250,20984.0,1.8,-1.3,-1.4000000000000001,-0.30000000000000004,2.6,7.4,1.2000000000000002,-38.1,-37.2,16
1251,21000.0,2.2,-1.2000000000000002,-2.0,0.0,2.7,6.800000000000001,5.8,-25.300000000000004,-35.8,16
1252,21018.0,2.1,-0.9,-2.9000000000000004,0.0,3.0,5.9,7.8,-11.5,-37.2,16
1253,21034.0,2.0,-0.5,-3.9000000000000004,-0.2,3.4000000000000004,4.9,4.2,-2.1,-40.9,16
1254,21052.0,1.6,0.0,-4.2,-0.6000000000000001,3.9000000000000004,4.5,-6.0,1.7,-46.6,16
1255,21068.0,0.8,0.4,-3.8000000000000003,-1.5,4.2,4.9,-18.1,-3.0,-52.1,16
1256,21086.0,0.0,0.8,-2.9000000000000004,-2.3000000000000003,4.4,5.9,-28.1,-10.5,-52.1,16
1257,21100.0,-0.30000000000000004,1.2000000000000002,-1.9000000000000001,-2.6,4.7,7.0,-34.2,-21.8,-47.80000000000001,16
1258,21118.0,-0.30000000000000004,1.6,-0.1,-2.5,5.0,8.8,-36.400000000000006,-40.7,-46.1,16
1259,21137.0,-0.9,2.0,2.1,-3.1,5.4,11.0,-28.500000000000004,-67.00000000000001,-49.50000000000001,16
1260,21153.0,-1.7000000000000002,2.1,2.8000000000000003,-3.6,5.4,11.9,-8.8,-95.20000000000002,-49.6,16
1261,21167.0,-2.3000000000000003,1.9000000000000001,2.6,-4.0,5.2,11.700000000000001,10.0,-113.89999999999999,-44.8,16
1262,21184.0,-2.6,1.7000000000000002,2.2,-4.0,5.1000000000000005,11.4,24.7,-108.90000000000002,-32.8,16
