,ms,accelX,accelY,accelZ,accelWithGX,accelWithGY,accelWithGZ,rotRateAlpha,rotRateBeta,rotRateGamma,interval
0,74.0,0.1,0.1,0.30000000000000004,0.2,2.8000000000000003,9.700000000000001,-1.2000000000000002,-3.4,0.1,16
1,87.0,0.1,0.1,0.30000000000000004,0.2,2.8000000000000003,9.700000000000001,-1.2000000000000002,-2.1999999999999997,-0.1,16
2,102.0,0.0,0.0,0.2,0.1,2.8000000000000003,9.600000000000001,-1.0,-0.1,-0.5,16
3,118.0,-0.1,0.0,0.1,-0.1,2.7,9.600000000000001,-1.2000000000000002,-1.0999999999999999,-0.4,16
4,135.0,0.0,0.0,0.1,0.0,2.7,9.600000000000001,-0.7,-1.7,1.6,16
5,151.0,0.1,0.1,0.1,0.1,2.8000000000000003,9.5,-0.6000000000000001,-2.1999999999999997,2.3000000000000003,16
6,168.0,0.2,0.2,0.2,0.30000000000000004,2.9000000000000004,9.600000000000001,-0.4,0.1,0.7,16
7,185.0,0.0,0.1,0.0,0.2,2.8000000000000003,9.4,-1.2000000000000002,2.7,-0.6000000000000001,16
8,201.0,0.0,0.0,-0.1,0.1,2.8000000000000003,9.3,-1.4,0.6000000000000001,-1.0999999999999999,16
9,218.0,-0.1,-0.1,0.30000000000000004,0.0,2.7,9.700000000000001,-1.6,-1.3,-0.9,16
10,235.0,-0.1,-0.1,0.1,0.0,2.6,9.5,-0.7,0.0,0.7,16
11,251.0,-0.1,0.0,0.0,0.0,2.7,9.4,-0.1,-0.7,1.3,16
12,268.0,0.2,0.1,-0.1,0.30000000000000004,2.9000000000000004,9.3,0.2,-2.4000000000000004,1.0999999999999999,16
13,285.0,0.0,0.1,-0.2,0.2,2.9000000000000004,9.200000000000001,-4.800000000000001,0.6000000000000001,-0.4,16
14,301.0,-0.1,0.0,0.1,0.1,2.8000000000000003,9.5,-6.1000000000000005,-0.1,-0.7,16
15,318.0,-0.2,-0.1,0.4,-0.1,2.7,9.8,-3.0000000000000004,-1.6,0.1,16
16,335.0,0.1,0.1,0.1,0.2,2.8000000000000003,9.600000000000001,3.3000000000000003,-3.9,0.9,16
17,351.0,0.2,0.2,0.1,0.30000000000000004,2.9000000000000004,9.5,2.9,-2.8,0.1,16
18,368.0,0.0,0.1,-0.2,0.1,2.8000000000000003,9.200000000000001,-1.2000000000000002,2.4000000000000004,-0.7,16
19,385.0,0.1,0.1,0.1,0.30000000000000004,2.9000000000000004,9.5,-4.1000000000000005,0.1,-1.0,16
20,401.0,0.1,0.0,0.2,0.30000000000000004,2.8000000000000003,9.600000000000001,-3.6,1.2000000000000002,-2.6,16
21,418.0,-0.1,-0.1,0.1,0.0,2.7,9.5,-2.0,0.5,-2.7,16
22,435.0,-0.2,-0.2,0.1,-0.1,2.6,9.5,-0.9,0.9,-1.9,16
23,451.0,-0.2,-0.1,0.0,0.0,2.7,9.4,-1.3,1.2000000000000002,-0.8,16
24,468.0,0.0,0.0,0.2,0.1,2.8000000000000003,9.600000000000001,-2.8,-0.1,-0.6000000000000001,16
25,485.0,-0.1,0.0,0.30000000000000004,0.0,2.7,9.8,-1.4,-0.1,-0.6000000000000001,16
26,501.0,-0.1,0.0,0.30000000000000004,0.0,2.8000000000000003,9.700000000000001,-0.2,-0.6000000000000001,-0.30000000000000004,16
27,518.0,0.0,0.0,0.30000000000000004,0.1,2.8000000000000003,9.700000000000001,0.2,-0.4,-0.5,16
28,535.0,-0.2,0.0,0.2,0.0,2.7,9.600000000000001,-0.9,2.1999999999999997,-0.6000000000000001,16
29,551.0,-0.2,-0.1,0.2,0.0,2.7,9.600000000000001,-0.6000000000000001,1.2000000000000002,-0.5,16
30,568.0,-0.1,-0.1,0.2,0.0,2.7,9.700000000000001,0.7,1.2000000000000002,0.30000000000000004,16
31,585.0,-0.1,0.0,0.0,0.0,2.7,9.4,2.6,1.0999999999999999,0.9,16
32,601.0,0.0,-0.1,0.0,0.1,2.7,9.4,2.7,-0.1,0.9,16
33,618.0,0.0,-0.1,0.1,0.1,2.7,9.5,2.6,-0.7,0.9,16
34,635.0,0.0,-0.1,0.1,0.1,2.7,9.5,2.1,0.5,0.30000000000000004,16
35,651.0,0.0,-0.1,0.1,0.1,2.7,9.5,1.4,0.1,0.7,16
36,668.0,0.0,0.0,0.1,0.1,2.8000000000000003,9.5,0.8,1.7,1.3,16
37,685.0,0.1,0.1,0.1,0.2,2.9000000000000004,9.600000000000001,0.2,0.5,0.9,16
38,701.0,0.1,0.1,0.2,0.1,2.8000000000000003,9.600000000000001,0.30000000000000004,0.2,0.7,16
39,718.0,0.0,0.0,0.1,0.1,2.8000000000000003,9.5,1.4,1.5000000000000002,1.4,16
40,735.0,0.0,0.1,0.1,0.1,2.8000000000000003,9.5,0.9,0.7,1.0999999999999999,16
41,751.0,0.0,0.1,0.0,0.1,2.8000000000000003,9.4,0.8,1.5000000000000002,1.0999999999999999,16
42,768.0,0.0,0.1,0.1,0.1,2.9000000000000004,9.5,0.0,-0.1,0.8,16
43,785.0,0.0,0.1,0.0,0.1,2.8000000000000003,9.4,0.6000000000000001,0.5,0.1,16
44,801.0,-0.1,0.0,0.0,0.0,2.8000000000000003,9.4,0.6000000000000001,0.0,-0.1,16
45,818.0,0.0,0.0,0.1,0.0,2.8000000000000003,9.5,-0.8,-2.4000000000000004,0.0,16
46,835.0,-0.1,0.0,0.2,0.0,2.7,9.600000000000001,-1.0,-0.5,0.4,16
47,851.0,-0.1,0.0,0.2,0.0,2.8000000000000003,9.600000000000001,-0.5,0.5,0.4,16
48,868.0,-0.1,-0.1,0.2,0.0,2.7,9.600000000000001,1.3,1.0,0.8,16
49,885.0,-0.1,0.0,0.0,0.0,2.8000000000000003,9.4,1.6,0.8,0.9,16
50,901.0,-0.1,0.0,0.0,0.0,2.8000000000000003,9.4,1.0999999999999999,0.30000000000000004,1.0,16
51,918.0,0.0,0.1,0.0,0.1,2.9000000000000004,9.4,-0.6000000000000001,0.30000000000000004,1.5000000000000002,16
52,935.0,-0.1,0.0,0.2,0.0,2.8000000000000003,9.600000000000001,-1.0,0.30000000000000004,1.0,16
53,951.0,0.0,0.0,0.2,0.0,2.8000000000000003,9.600000000000001,-0.4,-0.1,1.0999999999999999,16
54,968.0,0.1,0.1,0.2,0.2,2.9000000000000004,9.600000000000001,1.9,0.0,1.0999999999999999,16
55,985.0,0.1,0.0,-0.1,0.1,2.8000000000000003,9.3,1.8,-0.2,-0.7,16
56,1001.0,0.0,-0.1,-0.1,0.1,2.7,9.3,0.7,0.4,-0.6000000000000001,16
57,1018.0,0.1,0.1,0.0,0.2,2.9000000000000004,9.4,-1.5000000000000002,0.7,-0.5,16
58,1035.0,-0.1,-0.1,0.0,0.0,2.7,9.4,-1.0999999999999999,1.0,-1.7,16
59,1052.0,-0.1,-0.1,-0.1,0.0,2.7,9.3,-0.6000000000000001,1.4,-1.4,16
60,1068.0,-0.2,-0.2,0.30000000000000004,-0.2,2.6,9.700000000000001,-1.9,-2.8,-0.2,16
61,1085.0,-0.30000000000000004,-0.2,0.2,-0.2,2.6,9.600000000000001,-0.30000000000000004,-0.30000000000000004,2.1999999999999997,16
62,1101.0,0.0,0.0,-0.1,0.1,2.8000000000000003,9.3,-0.30000000000000004,0.2,3.9,16
63,1118.0,0.2,0.2,0.30000000000000004,0.30000000000000004,3.0,9.700000000000001,-0.30000000000000004,-1.7,1.0,16
64,1135.0,-0.1,0.0,-0.1,0.0,2.7,9.3,0.5,3.1,-1.0,16
65,1151.0,-0.1,-0.1,-0.30000000000000004,0.0,2.7,9.1,-0.5,2.6,-0.5,16
66,1168.0,0.2,0.0,0.30000000000000004,0.2,2.8000000000000003,9.700000000000001,-2.7,-2.7,0.4,16
67,1185.0,0.0,0.0,0.4,0.1,2.8000000000000003,9.8,-0.7,1.0,-1.2000000000000002,16
68,1201.0,-0.1,-0.1,0.2,0.0,2.6,9.600000000000001,0.7,2.1999999999999997,-1.5000000000000002,16
69,1218.0,-0.2,-0.1,0.0,-0.1,2.7,9.4,1.5000000000000002,0.7,-0.6000000000000001,16
70,1235.0,0.0,0.0,0.30000000000000004,0.1,2.8000000000000003,9.700000000000001,-0.4,-2.1999999999999997,0.2,16
71,1252.0,0.0,0.0,0.30000000000000004,0.1,2.8000000000000003,9.700000000000001,-0.4,-0.5,0.1,16
72,1268.0,0.0,0.1,0.2,0.0,2.9000000000000004,9.600000000000001,0.1,0.7,0.0,16
73,1285.0,0.1,0.1,0.2,0.2,2.9000000000000004,9.600000000000001,1.8,-0.30000000000000004,-0.4,16
74,1301.0,0.1,0.1,0.0,0.2,2.9000000000000004,9.4,3.0000000000000004,1.4,-1.0,16
75,1318.0,-0.1,0.0,-0.2,0.0,2.8000000000000003,9.200000000000001,1.6,0.8,-1.5000000000000002,16
76,1335.0,-0.1,-0.1,-0.2,-0.1,2.6,9.3,-1.0,0.5,-0.6000000000000001,16
77,1351.0,-0.2,-0.2,0.0,-0.1,2.6,9.4,-1.5000000000000002,0.2,0.2,16
78,1368.0,0.1,0.0,0.1,0.1,2.7,9.5,-0.6000000000000001,-1.3,1.3,16
79,1385.0,0.1,0.0,0.2,0.2,2.8000000000000003,9.600000000000001,-1.2000000000000002,0.0,-0.2,16
80,1401.0,0.0,0.0,0.2,0.1,2.8000000000000003,9.600000000000001,-2.0,1.2000000000000002,-0.5,16
81,1418.0,0.0,0.0,0.4,0.0,2.8000000000000003,9.8,-1.7,0.30000000000000004,-0.7,16
82,1435.0,0.0,0.0,0.0,0.0,2.8000000000000003,9.5,3.3000000000000003,0.0,0.0,16
83,1452.0,0.1,0.1,0.0,0.1,2.9000000000000004,9.4,3.8,-1.8,0.2,16
84,1468.0,0.1,0.1,-0.2,0.1,2.9000000000000004,9.200000000000001,1.8,0.2,-0.6000000000000001,16
85,1487.0,0.0,0.0,0.0,0.0,2.8000000000000003,9.4,-2.6,-0.2,-0.5,16
86,1502.0,0.2,0.2,0.4,0.2,3.0,9.8,-0.9,0.0,-0.6000000000000001,16
87,1519.0,0.1,0.2,0.30000000000000004,0.2,2.9000000000000004,9.700000000000001,0.6000000000000001,1.4,-1.8,16
88,1535.0,-0.2,-0.1,0.0,-0.2,2.7,9.4,1.0999999999999999,2.1,-2.6,16
89,1553.0,-0.2,-0.1,0.1,-0.1,2.8000000000000003,9.700000000000001,0.2,0.8,-1.5000000000000002,16
90,1568.0,-0.1,0.0,0.30000000000000004,0.0,2.8000000000000003,9.700000000000001,1.3,-0.7,0.0,16
91,1585.0,-0.1,0.1,0.0,0.0,2.8000000000000003,9.5,3.3000000000000003,-0.2,-0.4,16
92,1601.0,-0.1,0.0,0.1,0.0,2.8000000000000003,9.5,2.1999999999999997,-0.7,-0.1,16
93,1619.0,-0.1,0.0,0.1,-0.1,2.8000000000000003,9.5,0.30000000000000004,1.9,-0.2,16
94,1635.0,-0.2,0.0,0.2,-0.1,2.7,9.600000000000001,1.5000000000000002,1.6,0.8,16
95,1652.0,-0.1,0.0,0.0,-0.1,2.8000000000000003,9.4,2.8,1.4,1.0,16
96,1668.0,0.0,0.1,-0.1,0.1,2.9000000000000004,9.3,2.7,-0.6000000000000001,0.1,16
97,1687.0,-0.1,0.0,-0.1,0.0,2.8000000000000003,9.3,-0.5,0.9,-0.8,16
98,1702.0,-0.1,0.0,0.1,-0.1,2.8000000000000003,9.5,-2.4000000000000004,0.8,-0.5,16
99,1718.0,-0.1,-0.1,0.30000000000000004,-0.1,2.7,9.600000000000001,-0.30000000000000004,0.5,0.4,16
100,1735.0,0.0,0.1,0.2,0.0,2.9000000000000004,9.5,2.5,-0.6000000000000001,1.0,16
101,1751.0,0.0,0.1,0.1,0.0,2.9000000000000004,9.5,2.9,0.0,0.8,16
102,1770.0,0.0,0.1,-0.30000000000000004,0.1,2.9000000000000004,9.1,1.3,2.0,0.1,16
103,1785.0,0.0,0.1,0.0,0.0,2.9000000000000004,9.4,-0.9,-2.0,-0.6000000000000001,16
104,1802.0,0.2,0.2,0.2,0.2,3.0,9.600000000000001,-1.0,-2.0,-0.30000000000000004,16
105,1818.0,0.1,0.2,0.2,0.2,3.0,9.600000000000001,-0.8,-0.4,-0.8,16
106,1835.0,0.0,0.0,0.1,0.0,2.8000000000000003,9.5,-0.8,1.9,-1.2000000000000002,16
107,1855.0,0.0,0.0,0.0,0.0,2.8000000000000003,9.4,-0.5,0.0,-0.8,16
108,1869.0,0.0,0.0,0.1,0.0,2.8000000000000003,9.5,-0.30000000000000004,-1.0999999999999999,-0.8,16
109,1885.0,0.0,0.0,0.0,0.0,2.8000000000000003,9.4,1.2000000000000002,-0.1,-0.9,16
110,1902.0,-0.1,0.0,-0.1,0.0,2.8000000000000003,9.4,0.4,-0.9,-0.9,16
111,1918.0,0.1,0.0,0.2,0.1,2.8000000000000003,9.600000000000001,-1.6,-2.9,0.0,16
112,1935.0,0.1,0.1,0.30000000000000004,0.2,2.9000000000000004,9.700000000000001,-0.6000000000000001,-0.9,-0.5,16
113,1951.0,0.0,0.0,0.30000000000000004,0.1,2.8000000000000003,9.700000000000001,0.5,-0.5,-1.0,16
114,1974.0,0.1,0.0,0.0,0.1,2.9000000000000004,9.5,0.0,0.7,-1.2000000000000002,16
115,1986.0,0.0,0.0,0.0,0.0,2.8000000000000003,9.4,-0.30000000000000004,2.1,-1.4,16
116,2002.0,0.0,0.0,-0.30000000000000004,0.0,2.8000000000000003,9.1,0.1,1.2000000000000002,-1.0999999999999999,16
117,2019.0,0.0,0.1,0.0,0.0,2.9000000000000004,9.4,-0.7,-3.7000000000000006,-1.4,16
118,2035.0,-0.2,-0.1,0.30000000000000004,-0.1,2.7,9.700000000000001,-1.0,-1.8,-1.2000000000000002,16
119,2051.0,-0.2,-0.1,0.2,-0.1,2.7,9.600000000000001,-1.2000000000000002,-0.9,0.30000000000000004,16
120,2068.0,0.1,0.2,0.7000000000000001,0.1,3.0,10.100000000000001,-0.8,-3.7000000000000006,1.0,16
121,2085.0,-0.1,0.1,0.2,0.0,2.9000000000000004,9.600000000000001,2.9,2.9,-0.4,16
122,2101.0,-0.1,0.1,-0.1,0.0,2.9000000000000004,9.3,2.1,-0.5,-0.1,16
123,2118.0,0.0,0.1,0.0,0.0,2.9000000000000004,9.4,1.6,-1.2000000000000002,0.1,16
124,2135.0,0.0,0.1,-0.2,0.1,3.0,9.200000000000001,0.9,-0.1,-0.30000000000000004,16
125,2153.0,-0.1,0.0,0.30000000000000004,0.0,2.8000000000000003,9.700000000000001,-1.3,-1.6,-0.5,16
126,2168.0,-0.1,-0.1,0.2,0.0,2.7,9.600000000000001,-0.9,0.2,-0.1,16
127,2185.0,0.0,-0.1,0.4,0.0,2.7,9.8,-0.1,-1.0999999999999999,0.1,16
128,2201.0,0.0,0.0,0.4,0.1,2.8000000000000003,9.8,0.9,-0.8,0.1,16
129,2218.0,-0.1,0.0,-0.1,0.0,2.8000000000000003,9.3,2.1,3.4,-0.8,16
130,2235.0,-0.2,-0.1,-0.30000000000000004,-0.1,2.7,9.1,0.8,2.1999999999999997,-0.4,16
131,2254.0,0.0,0.0,-0.5,0.0,2.8000000000000003,8.9,-1.0999999999999999,0.8,2.0,16
132,2268.0,0.1,0.1,-0.30000000000000004,0.2,3.0,9.1,-2.0,-0.7,1.6,16
133,2285.0,0.2,0.1,0.4,0.30000000000000004,2.9000000000000004,9.8,-3.0000000000000004,-2.1,-0.4,16
134,2302.0,-0.1,0.0,0.0,0.0,2.8000000000000003,9.4,-1.8,2.6,-0.7,16
135,2318.0,-0.1,0.0,0.0,0.0,2.8000000000000003,9.4,-1.8,2.6,-0.7,16
136,2335.0,0.1,0.1,0.30000000000000004,0.1,2.9000000000000004,9.700000000000001,-1.7,-3.5,0.30000000000000004,16
137,2352.0,0.1,0.1,0.30000000000000004,0.1,2.9000000000000004,9.700000000000001,-1.4,-0.7,0.0,16
138,2368.0,0.0,0.0,0.0,0.0,2.8000000000000003,9.4,-2.9,1.7,-0.5,16
139,2385.0,0.0,0.0,0.30000000000000004,0.0,2.8000000000000003,9.700000000000001,-2.1999999999999997,-0.7,-0.5,16
140,2401.0,-0.1,0.0,-0.1,-0.1,2.7,9.3,0.8,-0.1,-0.1,16
141,2418.0,-0.1,0.0,-0.2,-0.1,2.8000000000000003,9.200000000000001,0.0,-1.7,0.4,16
142,2435.0,0.1,0.1,0.1,0.2,2.8000000000000003,9.5,-2.1999999999999997,-1.3,0.8,16
143,2452.0,0.1,0.2,0.30000000000000004,0.1,2.9000000000000004,9.8,-2.3000000000000003,-1.3,-0.4,16
144,2468.0,0.0,0.1,0.4,-0.1,2.7,9.700000000000001,-0.7,0.6000000000000001,-0.8,16
145,2485.0,-0.1,0.0,0.0,0.0,2.8000000000000003,9.4,-0.6000000000000001,0.0,0.4,16
146,2502.0,0.0,0.1,0.0,0.0,2.9000000000000004,9.4,-1.0999999999999999,0.1,-0.2,16
147,2518.0,0.0,0.1,0.0,0.0,2.8000000000000003,9.3,-1.5000000000000002,1.0999999999999999,-0.6000000000000001,16
148,2535.0,-0.2,-0.1,0.2,-0.2,2.7,9.600000000000001,-3.3000000000000003,-1.6,1.0999999999999999,16
149,2551.0,-0.1,0.0,0.30000000000000004,0.0,2.7,9.700000000000001,-2.8,-1.8,1.9,16
150,2568.0,0.1,0.2,0.4,0.1,2.9000000000000004,9.8,-1.8,0.1,1.9,16
151,2585.0,0.1,0.2,0.2,0.2,2.9000000000000004,9.600000000000001,-0.1,0.8,0.8,16
152,2601.0,0.1,0.2,0.2,0.1,2.9000000000000004,9.700000000000001,0.6000000000000001,0.2,0.0,16
153,2618.0,0.0,0.1,0.1,0.1,2.8000000000000003,9.600000000000001,1.2000000000000002,1.4,-0.6000000000000001,16
154,2635.0,-0.1,-0.1,0.1,0.0,2.7,9.5,1.7,1.0999999999999999,-0.6000000000000001,16
155,2652.0,-0.1,-0.1,-0.1,0.0,2.7,9.200000000000001,2.0,1.3,0.0,16
156,2668.0,0.0,0.0,-0.1,0.1,2.8000000000000003,9.3,0.6000000000000001,-0.7,0.6000000000000001,16
157,2685.0,0.0,0.0,0.0,0.0,2.7,9.4,-0.2,0.8,0.1,16
158,2702.0,0.1,0.1,0.30000000000000004,0.1,2.9000000000000004,9.700000000000001,0.2,-1.2000000000000002,0.2,16
159,2718.0,0.1,0.1,0.2,0.1,2.8000000000000003,9.600000000000001,1.9,-0.8,-0.5,16
160,2735.0,0.0,0.0,-0.1,0.0,2.8000000000000003,9.3,3.3000000000000003,-0.30000000000000004,-1.0,16
161,2751.0,0.0,0.0,0.0,0.1,2.8000000000000003,9.5,2.5,-1.4,-0.7,16
162,2768.0,0.1,0.0,0.1,0.1,2.8000000000000003,9.5,1.0,-0.8,-0.4,16
163,2785.0,-0.1,0.0,0.30000000000000004,0.0,2.7,9.700000000000001,-0.7,-0.1,-0.7,16
164,2802.0,-0.1,0.0,0.30000000000000004,0.1,2.8000000000000003,9.600000000000001,0.8,0.6000000000000001,0.2,16
165,2818.0,0.0,0.1,0.2,0.0,2.9000000000000004,9.600000000000001,1.0999999999999999,-0.7,-0.1,16
166,2835.0,-0.1,0.0,0.1,-0.1,2.7,9.5,1.4,0.6000000000000001,-0.1,16
167,2851.0,0.0,0.0,-0.1,0.0,2.8000000000000003,9.3,1.2000000000000002,1.4,0.4,16
168,2868.0,0.1,0.1,0.2,0.1,2.9000000000000004,9.600000000000001,0.0,-0.1,-0.7,16
169,2885.0,-0.1,-0.1,0.0,-0.1,2.7,9.4,1.4,1.8,-0.8,16
170,2901.0,0.1,0.0,-0.1,0.1,2.8000000000000003,9.3,2.1,-0.6000000000000001,-0.1,16
171,2918.0,0.1,0.1,0.1,0.1,2.9000000000000004,9.5,1.6,-3.0000000000000004,-0.6000000000000001,16
172,2935.0,0.0,-0.1,0.0,0.0,2.7,9.4,-0.2,2.0,-1.9,16
173,2954.0,-0.2,-0.2,0.0,-0.1,2.6,9.4,-2.3000000000000003,1.3,-0.5,16
174,2969.0,-0.2,-0.2,0.0,0.0,2.8000000000000003,9.5,-1.9,-0.4,0.30000000000000004,16
175,2985.0,0.1,0.1,0.1,0.2,2.9000000000000004,9.5,0.5,0.1,-1.0999999999999999,16
176,3001.0,-0.1,0.0,-0.1,-0.1,2.8000000000000003,9.3,-0.1,0.8,-2.1,16
177,3018.0,-0.2,0.0,0.0,-0.1,2.8000000000000003,9.4,-1.0999999999999999,-0.4,-1.6,16
178,3035.0,-0.1,0.0,0.1,0.0,2.8000000000000003,9.600000000000001,-1.8,-1.7,0.30000000000000004,16
179,3052.0,0.1,0.1,0.5,0.2,2.9000000000000004,9.9,-0.4,-0.9,-1.0999999999999999,16
180,3068.0,0.0,0.0,0.30000000000000004,0.0,2.8000000000000003,9.700000000000001,-0.1,2.3000000000000003,-1.4,16
181,3085.0,-0.1,0.0,0.0,-0.1,2.8000000000000003,9.5,-1.0,1.8,-0.7,16
182,3102.0,0.0,0.1,0.30000000000000004,0.0,2.8000000000000003,9.700000000000001,0.6000000000000001,-2.1999999999999997,-0.6000000000000001,16
183,3119.0,0.0,0.1,0.2,0.1,2.8000000000000003,9.600000000000001,2.0,0.4,-0.9,16
184,3135.0,-0.1,0.0,0.0,0.0,2.8000000000000003,9.4,0.5,0.30000000000000004,-1.0,16
185,3151.0,0.0,0.0,0.1,0.0,2.7,9.5,0.2,-0.4,-0.8,16
186,3169.0,0.0,0.0,-0.1,0.1,2.8000000000000003,9.3,0.6000000000000001,1.0,-1.0,16
187,3186.0,-0.1,-0.1,0.2,-0.1,2.7,9.600000000000001,-1.6,-1.0999999999999999,-1.8,16
188,3203.0,-0.1,-0.1,0.1,-0.1,2.6,9.5,-1.4,1.7,-0.2,16
189,3218.0,-0.1,-0.1,0.1,-0.1,2.7,9.5,-1.0,0.5,0.4,16
190,3235.0,0.1,0.1,0.4,0.1,2.8000000000000003,9.8,0.6000000000000001,-2.1999999999999997,0.4,16
191,3256.0,-0.1,0.0,-0.2,0.0,2.8000000000000003,9.200000000000001,2.1999999999999997,2.1,-0.8,16
192,3274.0,-0.1,-0.1,-0.2,-0.1,2.7,9.200000000000001,-0.9,-0.4,0.30000000000000004,16
193,3287.0,0.0,0.1,0.0,0.0,2.8000000000000003,9.4,-1.5000000000000002,-2.1999999999999997,0.6000000000000001,16
194,3301.0,0.0,0.0,0.30000000000000004,0.0,2.8000000000000003,9.700000000000001,-1.5000000000000002,-2.5,-0.1,16
195,3318.0,-0.1,-0.1,0.30000000000000004,-0.1,2.7,9.700000000000001,-0.7,-0.5,-0.7,16
196,3335.0,0.0,0.0,0.2,0.0,2.8000000000000003,9.700000000000001,-0.9,0.30000000000000004,0.2,16
197,3351.0,0.0,0.0,0.4,0.0,2.8000000000000003,9.8,-1.0,-0.1,0.4,16
198,3368.0,0.0,0.1,0.30000000000000004,0.0,2.9000000000000004,9.700000000000001,0.2,1.0999999999999999,0.30000000000000004,16
199,3386.0,0.1,0.1,0.1,0.1,2.9000000000000004,9.5,0.9,1.0999999999999999,-0.30000000000000004,16
200,3402.0,0.0,0.0,0.1,0.0,2.8000000000000003,9.5,0.9,0.9,-0.7,16
201,3418.0,-0.1,-0.1,0.2,-0.1,2.7,9.600000000000001,0.7,0.6000000000000001,-1.2000000000000002,16
202,3435.0,0.0,0.0,0.2,0.0,2.8000000000000003,9.600000000000001,1.3,0.0,0.5,16
203,3452.0,0.2,0.2,-0.2,0.2,2.9000000000000004,9.200000000000001,2.8,1.0,0.4,16
204,3470.0,0.1,0.2,-0.30000000000000004,0.1,3.0,9.1,2.1,0.6000000000000001,-0.4,16
205,3485.0,0.1,0.1,-0.1,0.1,2.9000000000000004,9.3,-1.3,-1.0999999999999999,-1.5000000000000002,16
206,3501.0,0.0,0.1,0.30000000000000004,0.1,2.9000000000000004,9.700000000000001,-2.1,-2.5,-1.7,16
207,3518.0,0.0,0.0,0.4,0.0,2.8000000000000003,9.8,-0.8,-2.4000000000000004,-1.6,16
208,3535.0,-0.1,0.0,0.4,-0.1,2.8000000000000003,9.8,1.5000000000000002,-1.0,-0.7,16
209,3551.0,-0.1,0.0,0.1,-0.1,2.8000000000000003,9.5,2.1,1.3,0.0,16
210,3569.0,-0.1,0.1,-0.2,-0.1,2.8000000000000003,9.3,1.8,1.8,0.1,16
211,3585.0,0.0,0.1,-0.1,0.0,2.9000000000000004,9.3,-0.2,-2.0,-0.2,16
212,3601.0,-0.1,0.1,0.1,0.0,2.9000000000000004,9.5,-0.30000000000000004,-1.8,-1.2000000000000002,16
213,3618.0,-0.2,0.0,0.1,-0.2,2.8000000000000003,9.5,-0.1,-1.0999999999999999,-1.3,16
214,3635.0,-0.30000000000000004,0.0,0.0,-0.30000000000000004,2.8000000000000003,9.4,1.4,-2.6,0.8,16
215,3651.0,-0.30000000000000004,-0.1,0.30000000000000004,-0.30000000000000004,2.7,9.700000000000001,3.8,-7.699999999999999,1.7,16
216,3668.0,0.0,0.2,-0.1,0.1,3.1,9.3,3.9,-4.0,3.8,16
217,3685.0,0.0,0.4,-0.1,0.0,3.2,9.200000000000001,1.9,-7.9,-0.2,16
218,3701.0,-0.30000000000000004,0.1,0.1,-0.2,2.9000000000000004,9.5,0.8,-8.1,-2.0,16
219,3718.0,-0.30000000000000004,0.0,0.30000000000000004,-0.2,2.9000000000000004,9.700000000000001,1.6,-8.200000000000001,-1.4,16
220,3735.0,-0.2,0.2,0.1,-0.1,3.1,9.5,4.1000000000000005,-7.2,-2.6,16
221,3752.0,-0.30000000000000004,0.0,0.2,-0.2,2.9000000000000004,9.5,4.7,-8.5,-5.7,16
222,3768.0,-0.6000000000000001,-0.4,0.1,-0.5,2.4000000000000004,9.5,3.0000000000000004,-7.699999999999999,-5.4,16
223,3785.0,-0.8,-0.30000000000000004,0.30000000000000004,-0.7000000000000001,2.6,9.600000000000001,-3.9,-6.000000000000001,4.800000000000001,16
224,3801.0,-0.30000000000000004,0.2,0.9,-0.2,3.0,10.3,-0.1,-8.1,10.9,16
225,3818.0,-0.2,0.2,0.7000000000000001,-0.1,3.1,10.100000000000001,7.0,-7.2,9.700000000000001,16
226,3835.0,0.2,0.5,-0.2,0.30000000000000004,3.4000000000000004,9.200000000000001,14.200000000000001,-3.4,2.4000000000000004,16
227,3851.0,0.5,0.7000000000000001,-1.0,0.6000000000000001,3.6,8.3,5.9,-2.6,-1.4,16
228,3868.0,0.5,0.7000000000000001,-0.7000000000000001,0.6000000000000001,3.7,8.6,0.0,-8.3,-4.7,16
229,3885.0,0.0,0.1,0.5,0.2,3.0,9.9,-3.7000000000000006,-13.3,-9.600000000000001,16
230,3901.0,-0.6000000000000001,-0.7000000000000001,1.3,-0.4,2.2,10.700000000000001,8.5,-6.000000000000001,-4.9,16
231,3918.0,-0.5,-0.7000000000000001,1.1,-0.30000000000000004,2.3000000000000003,10.5,13.4,2.7,0.2,16
232,3935.0,0.1,0.0,0.30000000000000004,0.30000000000000004,3.0,9.600000000000001,15.299999999999999,10.9,8.0,16
233,3952.0,0.4,0.2,-0.1,0.6000000000000001,3.4000000000000004,9.3,10.3,8.600000000000001,10.700000000000001,16
234,3970.0,0.6000000000000001,0.4,0.1,0.7000000000000001,3.5,9.4,8.9,5.0,9.600000000000001,16
235,3985.0,0.2,0.30000000000000004,-0.2,0.30000000000000004,3.3000000000000003,9.1,8.3,4.300000000000001,5.8,16
236,4001.0,-0.2,-0.30000000000000004,0.0,-0.1,2.8000000000000003,9.3,1.9,3.1,5.2,16
237,4018.0,-0.30000000000000004,-0.5,0.2,-0.30000000000000004,2.6,9.5,-1.8,3.0000000000000004,8.3,16
238,4035.0,-0.1,-0.1,0.5,0.0,3.0,9.8,-6.1000000000000005,2.7,17.8,16
239,4053.0,0.30000000000000004,0.4,0.30000000000000004,0.4,3.5,9.600000000000001,-1.5000000000000002,-0.30000000000000004,16.5,16
240,4068.0,0.5,0.6000000000000001,0.0,0.6000000000000001,3.7,9.3,1.4,-3.9,13.700000000000001,16
241,4085.0,0.30000000000000004,0.4,0.1,0.5,3.5,9.4,4.7,-12.000000000000002,5.7,16
242,4104.0,0.2,0.0,0.1,0.4,3.1,9.4,4.1000000000000005,-5.0,1.7,16
243,4120.0,0.1,-0.1,-0.30000000000000004,0.2,2.9000000000000004,8.6,1.6,1.9,2.4000000000000004,16
244,4135.0,-0.1,-0.30000000000000004,-1.0,0.1,2.8000000000000003,8.3,-4.800000000000001,6.9,6.3,16
245,4151.0,0.1,0.0,-1.0,0.6000000000000001,3.4000000000000004,8.6,-14.0,-6.7,8.0,16
246,4168.0,0.4,0.30000000000000004,-0.7000000000000001,0.7000000000000001,3.2,9.0,-16.5,-11.000000000000002,5.0,16
247,4186.0,0.2,-0.1,0.4,0.4,2.9000000000000004,9.700000000000001,-14.800000000000002,-14.200000000000001,2.6,16
248,4201.0,-0.1,-0.2,0.8,0.2,2.8000000000000003,10.100000000000001,-8.200000000000001,-16.0,3.7000000000000006,16
249,4218.0,-0.2,-0.30000000000000004,1.1,0.1,2.6,10.5,-3.3000000000000003,-14.900000000000002,4.800000000000001,16
250,4235.0,-0.5,-1.0,1.2000000000000002,-0.1,2.0,10.5,13.100000000000001,-0.30000000000000004,13.9,16
251,4251.0,-0.4,-0.9,0.6000000000000001,-0.1,2.0,9.9,16.2,8.0,21.0,16
252,4268.0,-0.1,0.2,-0.30000000000000004,0.30000000000000004,3.3000000000000003,9.0,13.8,10.0,31.5,16
253,4285.0,0.30000000000000004,0.7000000000000001,-0.2,0.7000000000000001,3.7,9.1,12.8,-1.3,21.400000000000002,16
254,4301.0,0.2,0.4,0.0,0.6000000000000001,3.5,9.3,17.599999999999998,-3.4,8.5,16
255,4318.0,0.2,0.2,-0.30000000000000004,0.6000000000000001,3.4000000000000004,9.0,19.6,-1.5000000000000002,5.1,16
256,4335.0,0.2,0.2,-0.6000000000000001,0.5,3.4000000000000004,8.5,18.1,-4.1000000000000005,-0.4,16
257,4351.0,0.0,0.2,-1.1,0.5,3.5,8.200000000000001,10.2,-13.0,-7.400000000000001,16
258,4368.0,0.0,0.1,-1.0,0.5,3.4000000000000004,8.3,5.500000000000001,-16.2,-10.3,16
259,4386.0,0.1,-0.1,-0.5,0.6000000000000001,3.2,8.700000000000001,-3.8,-18.7,-13.8,16
260,4402.0,0.1,0.0,-0.4,0.4,3.3000000000000003,9.0,-11.3,-12.3,-14.0,16
261,4419.0,-0.1,0.0,-0.1,0.5,3.2,9.1,-11.700000000000001,-9.700000000000001,-13.200000000000001,16
262,4435.0,-0.1,-0.1,0.0,0.6000000000000001,3.1,9.3,-8.200000000000001,-5.8,-10.600000000000001,16
263,4451.0,0.30000000000000004,0.1,0.0,0.9,3.3000000000000003,9.3,-2.5,-4.300000000000001,-10.600000000000001,16
264,4468.0,0.4,0.2,-0.30000000000000004,1.0,3.4000000000000004,9.0,-0.6000000000000001,-4.0,-11.9,16
265,4485.0,0.4,0.30000000000000004,-0.8,1.0,3.5,8.4,-2.1999999999999997,-5.300000000000001,-16.5,16
266,4502.0,0.2,0.1,-1.0,0.8,3.3000000000000003,8.200000000000001,-10.600000000000001,-6.7,-17.8,16
267,4518.0,0.30000000000000004,0.2,-1.1,0.9,3.3000000000000003,8.200000000000001,-15.7,-7.400000000000001,-17.0,16
268,4535.0,0.8,0.4,-0.5,1.4000000000000001,3.5,8.700000000000001,-26.400000000000002,-13.8,-16.1,16
269,4552.0,1.2000000000000002,0.6000000000000001,0.2,1.8,3.6,9.5,-26.0,-13.9,-18.3,16
270,4569.0,1.2000000000000002,0.6000000000000001,0.4,1.9000000000000001,3.6,9.700000000000001,-23.5,-12.700000000000001,-20.8,16
271,4585.0,0.7000000000000001,0.30000000000000004,0.0,1.4000000000000001,3.3000000000000003,9.4,-16.6,-5.6,-25.8,16
272,4602.0,0.2,0.2,-1.0,0.9,3.2,8.4,-14.200000000000001,-1.7,-21.200000000000003,16
273,4618.0,0.2,0.30000000000000004,-1.0,0.9,3.3000000000000003,8.0,-17.1,-4.6000000000000005,-17.400000000000002,16
274,4635.0,0.5,0.9,-1.1,1.2000000000000002,3.8000000000000003,8.200000000000001,-26.0,-13.9,-11.3,16
275,4655.0,0.8,1.4000000000000001,0.0,1.5,4.2,9.4,-32.9,-22.6,-10.1,16
276,4671.0,0.8,1.4000000000000001,0.6000000000000001,1.5,4.1000000000000005,10.4,-27.5,-26.0,-7.699999999999999,16
277,4685.0,0.6000000000000001,1.4000000000000001,1.2000000000000002,1.5,4.0,10.600000000000001,-22.2,-23.2,-5.1,16
278,4702.0,0.6000000000000001,1.7000000000000002,0.5,1.5,4.3,9.9,-11.5,-13.3,0.7,16
279,4718.0,0.7000000000000001,2.0,0.0,1.6,4.6000000000000005,9.5,-8.700000000000001,-8.3,2.1,16
280,4736.0,0.8,2.3000000000000003,-0.5,1.9000000000000001,5.0,8.5,-10.0,-5.300000000000001,0.8,16
281,4751.0,0.9,2.4000000000000004,-0.7000000000000001,1.9000000000000001,4.9,8.8,-11.8,-14.500000000000002,-5.8,16
282,4768.0,0.7000000000000001,2.1,-0.6000000000000001,1.7000000000000002,4.6000000000000005,8.9,-9.8,-15.5,-9.1,16
283,4785.0,0.30000000000000004,1.6,-0.6000000000000001,1.4000000000000001,4.2,8.8,-5.2,-11.8,-13.700000000000001,16
284,4801.0,-0.2,1.1,-1.1,0.9,3.6,8.3,-3.8,-2.3000000000000003,-13.8,16
285,4818.0,-0.30000000000000004,1.1,-1.2000000000000002,0.7000000000000001,3.7,8.200000000000001,-5.0,-1.5000000000000002,-12.6,16
286,4835.0,-0.5,1.1,-0.7000000000000001,0.6000000000000001,3.7,8.700000000000001,-6.8,-3.4,-10.3,16
287,4855.0,-0.7000000000000001,1.2000000000000002,0.0,0.30000000000000004,3.8000000000000003,9.4,-5.1,-7.1000000000000005,-8.5,16
288,4868.0,-0.7000000000000001,1.2000000000000002,0.2,0.4,3.7,9.600000000000001,-0.9,-5.2,-5.7,16
289,4885.0,-0.4,1.5,0.4,0.7000000000000001,4.1000000000000005,9.8,2.8,2.3000000000000003,-2.1999999999999997,16
290,4901.0,-0.7000000000000001,1.7000000000000002,0.7000000000000001,0.4,4.3,10.100000000000001,4.300000000000001,10.1,-1.3,16
291,4921.0,-1.1,1.5,2.0,-0.1,4.1000000000000005,11.4,8.4,7.9,0.9,16
292,4935.0,-1.3,1.4000000000000001,2.7,-0.2,4.0,12.100000000000001,13.3,8.5,4.300000000000001,16
293,4952.0,-1.0,1.4000000000000001,3.2,0.0,4.1000000000000005,12.5,26.500000000000004,14.700000000000001,11.5,16
294,4968.0,-0.8,1.5,2.9000000000000004,0.2,4.2,12.3,34.2,21.8,13.9,16
295,4985.0,-0.7000000000000001,1.7000000000000002,0.6000000000000001,0.2,4.6000000000000005,9.9,43.7,39.8,15.399999999999999,16
296,5003.0,-0.5,1.7000000000000002,-1.8,0.30000000000000004,4.6000000000000005,7.5,33.300000000000004,39.9,14.600000000000001,16
297,5018.0,-0.1,1.6,-2.2,0.7000000000000001,4.6000000000000005,7.1000000000000005,22.8,29.700000000000003,13.3,16
298,5035.0,-0.1,1.1,0.0,0.6000000000000001,4.2,9.3,-3.1,-1.2000000000000002,4.6000000000000005,16
299,5064.0,-1.5,-1.0,3.9000000000000004,-0.7000000000000001,2.1,13.200000000000001,-10.0,-10.600000000000001,3.0000000000000004,16
300,5071.0,-1.6,-1.3,3.9000000000000004,-0.9,1.7000000000000002,13.200000000000001,-2.9,-2.7,9.0,16
301,5088.0,-1.3,-1.3,3.2,-0.6000000000000001,1.7000000000000002,12.5,5.9,6.5,16.2,16
302,5102.0,-0.4,-0.9,1.0,0.30000000000000004,2.2,10.3,17.7,20.6,23.900000000000002,16
303,5118.0,-0.5,-0.9,0.5,0.2,2.2,9.8,19.0,21.8,23.1,16
304,5135.0,-0.5,-1.1,1.0,0.1,2.1,10.3,22.2,18.6,22.8,16
305,5151.0,0.1,-0.6000000000000001,0.8,0.7000000000000001,2.6,10.100000000000001,37.4,27.0,27.5,16
306,5172.0,0.1,-0.7000000000000001,0.9,1.3,3.1,8.6,54.7,40.0,24.1,16
307,5185.0,0.8,-0.2,-1.9000000000000001,1.3,3.2,7.2,58.5,48.400000000000006,20.4,16
308,5201.0,0.4,0.1,-3.2,0.8,3.7,5.9,44.6,48.6,7.699999999999999,16
309,5219.0,0.2,0.2,-3.1,0.5,3.8000000000000003,6.0,33.0,43.900000000000006,2.0,16
310,5235.0,-0.2,-0.30000000000000004,-2.1,0.0,3.4000000000000004,7.0,9.1,34.300000000000004,-11.5,16
311,5251.0,-0.5,-0.9,-0.2,-0.4,2.9000000000000004,8.9,-8.9,28.500000000000004,-22.5,16
312,5269.0,-0.7000000000000001,-1.2000000000000002,0.5,-1.0,2.3000000000000003,9.9,-8.3,35.199999999999996,-23.3,16
313,5285.0,-1.3,-1.6,0.8,-1.4000000000000001,2.1,9.9,-5.2,38.1,-20.0,16
314,5302.0,-1.5,-1.6,0.0,-1.8,2.1,9.0,1.0999999999999999,35.4,-11.3,16
315,5318.0,-1.4000000000000001,-1.6,0.0,-1.8,2.1,8.700000000000001,2.5,30.4,-6.6000000000000005,16
316,5335.0,-1.1,-1.4000000000000001,-0.5,-1.6,2.3000000000000003,8.5,2.3000000000000003,15.2,5.2,16
317,5352.0,-0.5,-0.9,-0.4,-1.0,2.8000000000000003,8.700000000000001,0.5,11.6,9.1,16
318,5368.0,-0.30000000000000004,-0.6000000000000001,-0.4,-0.8,3.1,8.6,0.8,12.4,9.8,16
319,5385.0,0.0,-0.30000000000000004,-0.8,-0.5,3.4000000000000004,8.3,1.0999999999999999,12.9,9.200000000000001,16
320,5401.0,0.30000000000000004,0.0,-1.2000000000000002,-0.30000000000000004,3.7,7.9,-2.0,7.9,5.500000000000001,16
321,5418.0,0.4,0.0,-1.1,-0.2,3.7,8.0,-5.300000000000001,5.2,4.0,16
322,5435.0,0.7000000000000001,0.4,-0.7000000000000001,0.1,4.1000000000000005,8.4,-12.9,2.9,1.8,16
323,5451.0,0.30000000000000004,0.30000000000000004,-0.1,-0.30000000000000004,3.9000000000000004,9.0,-15.299999999999999,2.4000000000000004,-7.8,16
324,5468.0,0.0,0.2,-0.2,-0.6000000000000001,3.8000000000000003,8.9,-15.6,4.5,-11.000000000000002,16
325,5485.0,0.0,0.7000000000000001,0.30000000000000004,-0.7000000000000001,4.3,9.4,-17.599999999999998,3.2,-11.3,16
326,5501.0,0.5,1.4000000000000001,0.4,-0.2,4.9,9.600000000000001,-13.100000000000001,0.0,-13.700000000000001,16
327,5518.0,0.6000000000000001,1.4000000000000001,0.4,-0.1,4.9,9.5,-8.700000000000001,-5.7,-21.5,16
328,5535.0,0.30000000000000004,1.0,1.0,-0.30000000000000004,4.5,10.100000000000001,-5.2,-13.3,-31.8,16
329,5551.0,-0.1,0.6000000000000001,1.3,-0.8,4.1000000000000005,10.5,-2.8,-5.4,-40.3,16
330,5570.0,-1.0,0.30000000000000004,0.7000000000000001,-1.7000000000000002,3.7,9.9,-3.0000000000000004,9.600000000000001,-40.6,16
331,5586.0,-1.2000000000000002,0.5,0.7000000000000001,-2.0,3.9000000000000004,9.9,-4.1000000000000005,9.600000000000001,-33.300000000000004,16
332,5602.0,-0.7000000000000001,1.0,0.5,-1.5,4.4,9.700000000000001,2.3000000000000003,3.3000000000000003,-22.4,16
333,5618.0,0.1,1.3,0.4,-0.8,4.7,9.5,5.8,-1.0999999999999999,-20.7,16
334,5635.0,1.0,1.4000000000000001,0.0,0.2,4.800000000000001,9.200000000000001,6.3,-6.5,-27.7,16
335,5651.0,0.2,1.0,0.5,-0.7000000000000001,4.4,9.600000000000001,-9.3,-6.2,-48.00000000000001,16
336,5670.0,-1.1,0.7000000000000001,1.9000000000000001,-2.0,4.0,11.0,-21.0,-8.1,-51.900000000000006,16
337,5685.0,-1.3,0.5,2.7,-2.2,3.8000000000000003,11.9,-22.4,-10.700000000000001,-49.2,16
338,5701.0,-1.0,-0.1,3.6,-1.9000000000000001,3.1,12.9,-14.800000000000002,-11.3,-42.6,16
339,5718.0,-0.9,-0.4,3.2,-1.9000000000000001,2.4000000000000004,11.5,-3.2,-0.9,-38.7,16
340,5735.0,-0.9,-0.8,2.3000000000000003,-2.1,2.0,10.4,4.5,14.3,-32.9,16
341,5751.0,-1.1,-1.5,0.30000000000000004,-2.2,1.7000000000000002,9.5,0.0,12.6,-19.0,16
342,5770.0,-0.8,-1.6,0.5,-1.6,1.5,9.700000000000001,-0.5,6.7,-10.3,16
343,5785.0,0.2,-1.4000000000000001,0.30000000000000004,-0.9,1.8,9.5,12.100000000000001,-5.9,8.5,16
344,5801.0,1.1,-0.5,-0.4,0.0,2.7,8.8,20.7,-7.9,11.9,16
345,5818.0,1.1,-0.5,-0.30000000000000004,0.2,3.3000000000000003,8.5,20.3,-6.000000000000001,9.4,16
346,5835.0,1.3,0.5,-1.1,0.30000000000000004,3.8000000000000003,8.1,10.600000000000001,-0.2,4.7,16
347,5851.0,1.0,0.5,-0.7000000000000001,0.0,3.9000000000000004,8.5,-1.6,-1.4,-1.7,16
348,5871.0,0.6000000000000001,0.0,-0.1,-0.4,3.4000000000000004,9.0,-2.6,-9.4,-3.9,16
349,5887.0,0.5,-0.2,0.30000000000000004,-0.5,3.1,9.5,-0.6000000000000001,-15.2,-3.0000000000000004,16
350,5902.0,0.5,-0.5,1.2000000000000002,-0.4,2.9000000000000004,10.4,8.799999999999999,-23.3,-0.6000000000000001,16
351,5919.0,0.5,-0.6000000000000001,1.2000000000000002,-0.4,2.7,10.4,14.200000000000001,-20.4,1.0999999999999999,16
352,5935.0,0.5,-0.7000000000000001,0.8,-0.30000000000000004,2.8000000000000003,9.200000000000001,21.8,-10.700000000000001,7.0,16
353,5952.0,0.7000000000000001,-0.4,-0.6000000000000001,0.2,3.5,8.200000000000001,21.5,-10.5,13.0,16
354,5968.0,1.1,0.2,-1.0,0.4,3.7,8.200000000000001,20.7,-17.5,14.0,16
355,5986.0,1.4000000000000001,0.2,-0.6000000000000001,0.7000000000000001,3.7,8.5,23.700000000000003,-21.700000000000003,12.5,16
356,6001.0,1.3,0.2,-0.7000000000000001,0.7000000000000001,3.8000000000000003,8.4,27.8,-16.1,8.3,16
357,6018.0,1.4000000000000001,0.2,-0.9,0.9,3.9000000000000004,8.200000000000001,28.400000000000002,-11.8,7.2,16
358,6035.0,1.4000000000000001,0.0,-1.7000000000000002,0.9,3.8000000000000003,7.4,27.0,-3.0000000000000004,4.5,16
359,6051.0,1.3,-0.2,-1.9000000000000001,0.8,3.6,7.1000000000000005,24.7,-7.500000000000001,4.3999999999999995,16
360,6069.0,1.2000000000000002,-0.2,-2.0,0.7000000000000001,3.8000000000000003,6.7,25.8,-10.1,5.0,16
361,6085.0,0.9,0.0,-2.5,0.5,3.9000000000000004,6.5,26.6,-13.100000000000001,3.7000000000000006,16
362,6101.0,0.5,0.4,-2.2,0.1,4.4,6.7,21.1,-17.1,2.3000000000000003,16
363,6118.0,0.30000000000000004,0.6000000000000001,-1.8,-0.1,4.7,7.1000000000000005,18.400000000000002,-16.0,1.5000000000000002,16
364,6135.0,-0.30000000000000004,0.8,-1.3,-0.6000000000000001,5.0,7.6000000000000005,15.399999999999999,-12.4,0.2,16
365,6151.0,-0.5,1.1,-1.2000000000000002,-0.7000000000000001,5.300000000000001,7.7,13.6,-2.5,-0.8,16
366,6170.0,-0.5,1.4000000000000001,-1.3,-0.8,5.7,7.5,10.3,4.2,-2.7,16
367,6184.0,-0.7000000000000001,1.4000000000000001,-1.2000000000000002,-0.9,5.6000000000000005,7.6000000000000005,7.1000000000000005,5.300000000000001,-5.0,16
368,6201.0,-1.0,1.2000000000000002,0.0,-1.3,5.5,8.8,1.3,1.7,-8.200000000000001,16
369,6218.0,-1.0,0.9,0.7000000000000001,-1.3,5.2,9.600000000000001,0.7,0.30000000000000004,-9.700000000000001,16
370,6236.0,-1.3,0.5,1.7000000000000002,-1.6,4.800000000000001,10.5,6.000000000000001,9.700000000000001,-12.4,16
371,6251.0,-1.5,0.30000000000000004,1.7000000000000002,-1.9000000000000001,4.6000000000000005,10.5,9.3,23.0,-6.000000000000001,16
372,6268.0,-1.2000000000000002,0.5,1.1,-1.6,4.800000000000001,9.9,9.4,28.3,-1.5000000000000002,16
373,6285.0,-0.9,0.5,0.0,-1.4000000000000001,4.9,8.700000000000001,1.2000000000000002,21.400000000000002,5.300000000000001,16
374,6301.0,-0.1,1.0,0.4,-0.7000000000000001,5.4,9.200000000000001,-11.6,-9.5,7.0,16
375,6318.0,0.2,1.3,2.0,-0.5,5.4,12.700000000000001,-18.5,-26.700000000000003,3.5,16
376,6335.0,-0.5,0.7000000000000001,5.6000000000000005,-0.9,4.9,14.4,-23.700000000000003,-35.5,-7.400000000000001,16
377,6353.0,-1.5,-1.2000000000000002,6.2,-1.9000000000000001,3.0,15.0,-5.7,11.700000000000001,-9.700000000000001,16
378,6368.0,-2.0,-1.8,4.6000000000000005,-2.4000000000000004,2.4000000000000004,13.4,5.300000000000001,36.2,-2.1999999999999997,16
379,6385.0,-1.8,-1.8,0.2,-2.3000000000000003,2.4000000000000004,9.0,12.8,56.5,20.3,16
380,6401.0,-1.0,-1.2000000000000002,-1.7000000000000002,-1.6,3.1,7.1000000000000005,5.7,32.9,35.1,16
381,6418.0,-0.30000000000000004,-0.8,-1.3,-1.0,3.5,7.5,2.5,1.6,38.400000000000006,16
382,6435.0,0.7000000000000001,-0.30000000000000004,0.1,0.1,4.0,8.9,4.7,-18.7,32.1,16
383,6452.0,0.5,-0.8,0.7000000000000001,0.0,3.5,9.5,9.200000000000001,-11.9,22.4,16
384,6469.0,0.2,-1.0,0.1,-0.30000000000000004,3.3000000000000003,8.9,10.700000000000001,-2.4000000000000004,19.9,16
385,6485.0,-0.2,-1.1,-1.1,-0.7000000000000001,3.2,7.7,2.5,10.0,22.5,16
386,6502.0,-0.1,-1.0,-1.3,-0.5,3.3000000000000003,7.5,-3.7000000000000006,3.9,26.200000000000003,16
387,6519.0,0.4,-0.7000000000000001,-1.0,0.0,3.6,7.800000000000001,-4.1000000000000005,-0.5,27.2,16
388,6535.0,0.5,-0.8,-0.9,0.1,3.5,7.9,-0.2,-4.800000000000001,25.900000000000002,16
389,6551.0,0.5,-0.8,-1.3,0.1,3.5,7.5,5.300000000000001,-4.7,22.4,16
390,6568.0,0.4,-0.8,-1.3,0.2,3.5,7.5,5.4,-5.1,21.8,16
391,6585.0,0.6000000000000001,-0.5,-1.4000000000000001,0.4,3.9000000000000004,7.4,1.7,-7.8,26.400000000000002,16
392,6601.0,1.2000000000000002,0.0,-1.5,1.0,4.4,7.300000000000001,0.30000000000000004,-9.4,23.700000000000003,16
393,6618.0,1.2000000000000002,0.0,-1.5,1.4000000000000001,4.9,7.0,0.5,-11.1,18.5,16
394,6635.0,1.5,0.5,-1.6,1.4000000000000001,4.9,7.2,-6.8,-12.5,5.300000000000001,16
395,6651.0,1.0,0.6000000000000001,-0.7000000000000001,1.0,4.9,8.1,-16.400000000000002,-9.200000000000001,-5.6,16
396,6668.0,0.8,0.6000000000000001,0.1,0.7000000000000001,4.9,8.9,-20.4,-6.8,-10.2,16
397,6685.0,0.2,0.4,1.2000000000000002,0.1,4.7,10.100000000000001,-21.0,3.7000000000000006,-16.0,16
398,6701.0,-0.4,0.4,1.2000000000000002,-0.5,4.5,10.0,-13.100000000000001,7.0,-17.5,16
399,6719.0,-0.7000000000000001,0.30000000000000004,1.5,-0.8,4.5,10.700000000000001,-9.600000000000001,2.6,-17.5,16
400,6736.0,-0.6000000000000001,0.5,2.2,-0.7000000000000001,4.7,11.100000000000001,0.0,-10.1,-14.600000000000001,16
401,6752.0,-0.5,0.8,2.4000000000000004,-0.6000000000000001,5.0,11.3,5.7,-10.700000000000001,-15.299999999999999,16
402,6768.0,-0.6000000000000001,0.9,2.5,-0.7000000000000001,5.0,11.4,6.9,-9.8,-16.400000000000002,16
403,6786.0,-0.5,0.9,2.5,-0.6000000000000001,5.0,11.4,8.200000000000001,-7.0,-17.599999999999998,16
404,6802.0,-0.1,0.8,2.2,-0.30000000000000004,5.0,11.100000000000001,13.0,-3.4,-20.3,16
405,6818.0,-0.1,0.2,0.7000000000000001,-0.2,4.5,9.600000000000001,18.0,5.2,-27.6,16
406,6835.0,-0.30000000000000004,-0.1,-0.5,-0.4,4.2,8.3,15.000000000000002,10.2,-31.3,16
407,6852.0,-0.5,-0.1,-2.4000000000000004,-0.8,4.2,6.4,-7.500000000000001,8.5,-35.7,16
408,6869.0,-0.5,0.1,-2.1,-0.8,4.4,6.800000000000001,-23.8,-1.5000000000000002,-37.1,16
409,6885.0,-0.6000000000000001,0.30000000000000004,1.1,-0.9,4.5,10.0,-51.2,-30.9,-39.9,16
410,6901.0,-0.8,-0.2,3.9000000000000004,-1.1,3.8000000000000003,12.8,-41.2,-37.6,-36.4,16
411,6918.0,-0.6000000000000001,-0.6000000000000001,4.1000000000000005,-0.7000000000000001,2.9000000000000004,12.100000000000001,-27.2,-30.9,-32.1,16
412,6935.0,-0.2,-1.1,1.4000000000000001,-0.4,2.8000000000000003,10.4,4.6000000000000005,0.8,-16.0,16
413,6952.0,0.6000000000000001,-0.8,-0.9,0.4,3.2,8.1,7.8,8.600000000000001,-7.400000000000001,16
414,6973.0,1.2000000000000002,-0.7000000000000001,-1.7000000000000002,0.9,3.2,7.300000000000001,0.8,7.2,-7.699999999999999,16
415,6985.0,1.3,-0.7000000000000001,-1.9000000000000001,1.0,3.2,7.1000000000000005,-3.7000000000000006,5.7,-9.700000000000001,16
416,7005.0,1.1,-0.9,-1.4000000000000001,0.8,3.0,7.5,-14.700000000000001,-0.8,-16.0,16
417,7018.0,0.6000000000000001,-1.0,-0.4,0.30000000000000004,2.8000000000000003,8.6,-16.2,-4.800000000000001,-18.2,16
418,7035.0,0.5,-1.1,0.0,0.1,2.7,9.1,-12.8,-3.5,-16.8,16
419,7054.0,0.4,-0.8,-0.7000000000000001,0.1,3.0,8.4,0.30000000000000004,7.400000000000001,-10.5,16
420,7069.0,0.5,-0.5,-2.1,0.1,3.3000000000000003,6.9,8.4,15.000000000000002,-7.699999999999999,16
421,7085.0,0.4,-0.5,-2.7,0.0,3.3000000000000003,6.300000000000001,6.6000000000000005,15.9,-8.0,16
422,7101.0,0.30000000000000004,-0.4,-3.1,-0.1,3.4000000000000004,5.9,-2.0,11.8,-7.699999999999999,16
423,7118.0,0.2,-0.30000000000000004,-3.0,-0.30000000000000004,3.5,6.0,-6.7,8.3,-7.699999999999999,16
424,7135.0,0.0,-0.30000000000000004,-1.9000000000000001,-0.5,3.5,7.1000000000000005,-15.000000000000002,-1.9,-5.8,16
425,7156.0,0.5,0.30000000000000004,-0.9,0.0,4.0,8.200000000000001,-14.700000000000001,-2.5,1.9,16
426,7171.0,1.4000000000000001,1.4000000000000001,-0.8,0.9,5.1000000000000005,8.3,-9.8,4.300000000000001,5.1,16
427,7186.0,1.5,1.7000000000000002,-1.1,1.0,5.4,7.9,-9.1,9.0,2.5,16
428,7203.0,0.8,1.7000000000000002,-1.5,0.2,5.300000000000001,7.6000000000000005,-16.1,12.200000000000001,-6.9,16
429,7218.0,-0.30000000000000004,0.8,-1.0,-0.9,4.3,8.1,-19.9,7.8,-8.700000000000001,16
430,7235.0,-0.1,0.8,-0.4,-0.7000000000000001,4.4,8.700000000000001,-25.3,-5.6,-4.300000000000001,16
431,7255.0,0.0,1.4000000000000001,1.1,-0.6000000000000001,4.800000000000001,10.200000000000001,-27.1,-7.8,0.5,16
432,7268.0,0.1,1.6,1.7000000000000002,-0.5,5.1000000000000005,10.9,-23.400000000000002,-2.0,0.0,16
433,7285.0,-0.1,1.5,3.0,-0.6000000000000001,4.9,12.200000000000001,-12.6,10.2,-2.1999999999999997,16
434,7302.0,-0.8,1.4000000000000001,2.8000000000000003,-1.4000000000000001,4.800000000000001,12.0,4.6000000000000005,26.8,0.4,16
435,7319.0,-1.1,1.4000000000000001,2.3000000000000003,-2.2,4.800000000000001,11.0,23.3,23.400000000000002,7.6,16
436,7335.0,-1.1,1.4000000000000001,2.3000000000000003,-2.2,4.800000000000001,11.0,23.3,23.400000000000002,7.6,16
437,7352.0,-2.1,0.6000000000000001,2.4000000000000004,-2.8000000000000003,4.1000000000000005,11.5,29.600000000000005,5.6,20.7,16
438,7370.0,-1.8,0.6000000000000001,3.1,-2.2,4.5,12.200000000000001,37.1,16.3,31.2,16
439,7386.0,-1.0,1.4000000000000001,2.4000000000000004,-1.8,5.0,11.4,40.6,29.700000000000003,34.0,16
440,7404.0,-0.5,2.1,-0.4,-1.4000000000000001,5.9,8.6,30.5,51.6,32.5,16
441,7418.0,-0.30000000000000004,1.9000000000000001,-1.1,-1.3,5.800000000000001,7.800000000000001,8.200000000000001,32.1,21.900000000000002,16
442,7435.0,-0.30000000000000004,1.9000000000000001,-1.1,-1.8,5.7,9.4,-0.5,6.7,14.500000000000002,16
443,7451.0,-1.4000000000000001,-0.1,6.5,-2.3000000000000003,3.8000000000000003,15.4,13.200000000000001,-39.00000000000001,-4.300000000000001,16
444,7468.0,-2.5,-0.9,7.300000000000001,-3.3000000000000003,3.1,16.2,62.4,-9.5,6.7,16
445,7485.0,-2.1,-1.4000000000000001,4.800000000000001,-2.9000000000000004,2.7,13.700000000000001,80.6,14.600000000000001,24.200000000000003,16
446,7501.0,-0.9,-1.2000000000000002,0.2,-1.7000000000000002,3.1,8.9,81.0,34.50000000000001,51.900000000000006,16
447,7518.0,0.1,-1.3,-1.7000000000000002,-0.7000000000000001,3.3000000000000003,6.9,51.900000000000006,18.900000000000002,57.00000000000001,16
448,7534.0,0.7000000000000001,-0.7000000000000001,-1.5,-0.2,4.0,7.1000000000000005,42.0,6.8,48.7,16
449,7551.0,0.7000000000000001,-0.6000000000000001,-1.6,-0.1,4.2,7.0,33.2,-15.2,27.2,16
450,7568.0,0.5,-1.1,-1.3,-0.2,3.7,7.2,27.400000000000002,-25.900000000000002,17.9,16
451,7584.0,-0.30000000000000004,-2.1,0.7000000000000001,-1.0,2.9000000000000004,9.1,14.200000000000001,-16.0,13.0,16
452,7601.0,-0.1,-2.3000000000000003,0.7000000000000001,-0.7000000000000001,2.7,9.1,23.1,7.9,29.1,16
453,7618.0,0.4,-1.8,-0.8,-0.1,3.2,7.6000000000000005,30.7,17.0,39.400000000000006,16
454,7635.0,0.5,-1.9000000000000001,-1.1,0.0,3.2,7.300000000000001,29.1,18.2,40.5,16
455,7652.0,0.5,-2.2,-2.0,0.0,3.0,6.300000000000001,13.3,18.900000000000002,39.300000000000004,16
456,7668.0,0.5,-2.4000000000000004,-1.8,0.1,2.8000000000000003,6.6000000000000005,7.8,13.3,38.2,16
457,7685.0,0.8,-2.1,-1.5,0.30000000000000004,3.1,6.800000000000001,5.7,2.3000000000000003,35.9,16
458,7702.0,1.7000000000000002,-2.0,-1.0,1.3,3.3000000000000003,7.300000000000001,9.0,-7.500000000000001,31.2,16
459,7718.0,1.6,-2.2,-1.1,1.2000000000000002,3.1,7.2,16.3,-3.9,8.0,16
460,7735.0,0.7000000000000001,-1.6,-1.4000000000000001,0.30000000000000004,3.7,6.800000000000001,17.7,-5.300000000000001,4.3999999999999995,16
461,7751.0,1.1,-3.6,-3.4000000000000004,0.8,1.7000000000000002,4.9,14.3,-12.000000000000002,8.1,16
462,7768.0,1.1,-3.6,-3.3000000000000003,0.2,3.6,6.300000000000001,3.7000000000000006,-35.5,6.6000000000000005,16
463,7785.0,0.7000000000000001,-1.2000000000000002,-1.7000000000000002,0.5,4.2,6.5,-13.5,-15.7,5.300000000000001,16
464,7801.0,0.6000000000000001,-1.4000000000000001,-0.9,0.5,3.9000000000000004,7.300000000000001,-21.700000000000003,-18.1,-3.3000000000000003,16
465,7818.0,0.2,-1.4000000000000001,-0.7000000000000001,0.1,3.8000000000000003,7.6000000000000005,-23.400000000000002,-12.5,-4.6000000000000005,16
466,7835.0,-0.2,-1.1,-0.6000000000000001,-0.30000000000000004,4.1000000000000005,7.7,-22.8,-12.200000000000001,-5.6,16
467,7851.0,-0.30000000000000004,-0.8,0.30000000000000004,-0.4,4.4,8.700000000000001,-24.400000000000002,-28.6,-12.000000000000002,16
468,7872.0,0.2,-0.4,1.5,0.2,4.7,9.8,-24.200000000000003,-38.1,-14.900000000000002,16
469,7885.0,0.6000000000000001,-0.2,1.7000000000000002,0.7000000000000001,4.800000000000001,10.100000000000001,-24.5,-35.8,-17.1,16
470,7901.0,0.8,-0.30000000000000004,1.4000000000000001,1.0,4.6000000000000005,9.9,-28.1,-19.9,-25.1,16
471,7918.0,0.1,-1.0,-0.30000000000000004,0.2,3.9000000000000004,8.200000000000001,-38.300000000000004,6.9,-30.5,16
472,7935.0,-0.4,-0.9,-1.3,-0.30000000000000004,3.9000000000000004,7.300000000000001,-46.300000000000004,9.700000000000001,-29.400000000000002,16
473,7951.0,-0.2,-0.1,-0.5,-0.2,4.5,8.200000000000001,-62.4,-16.8,-26.700000000000003,16
474,7968.0,-0.1,-0.1,2.7,0.0,4.3,11.4,-59.80000000000001,-48.7,-25.5,16
475,7985.0,-0.1,-0.30000000000000004,3.7,0.1,4.1000000000000005,12.5,-50.6,-47.300000000000004,-22.3,16
476,8001.0,-0.2,-0.5,2.8000000000000003,0.0,3.7,11.600000000000001,-27.5,-22.4,-12.5,16
477,8018.0,0.0,-0.1,-0.2,0.2,4.1000000000000005,8.700000000000001,-16.8,7.9,-1.3,16
478,8034.0,0.1,0.2,-1.5,0.30000000000000004,4.3,7.4,-19.3,14.200000000000001,1.5000000000000002,16
479,8051.0,0.5,1.0,-1.9000000000000001,0.7000000000000001,5.0,7.0,-34.300000000000004,-1.2000000000000002,1.8,16
480,8068.0,1.2000000000000002,1.2000000000000002,0.0,1.4000000000000001,5.1000000000000005,9.0,-36.0,-19.400000000000002,-4.800000000000001,16
481,8086.0,1.1,0.8,0.7000000000000001,1.1,4.3,10.0,-31.6,-21.8,-10.4,16
482,8101.0,0.5,0.30000000000000004,1.0,0.9,4.1000000000000005,10.100000000000001,-20.5,-10.700000000000001,-16.400000000000002,16
483,8118.0,0.2,0.2,0.6000000000000001,0.6000000000000001,4.0,9.600000000000001,-17.5,4.9,-17.599999999999998,16
484,8136.0,0.0,0.2,0.1,0.30000000000000004,3.9000000000000004,9.200000000000001,-17.3,10.1,-18.8,16
485,8151.0,-0.5,-0.2,-0.6000000000000001,-0.30000000000000004,3.5,8.5,-16.8,14.200000000000001,-19.3,16
486,8168.0,-0.8,-0.30000000000000004,-1.0,-0.6000000000000001,3.3000000000000003,8.1,-11.6,11.8,-10.8,16
487,8185.0,-0.7000000000000001,-0.30000000000000004,-1.3,-0.5,3.3000000000000003,7.800000000000001,-8.3,9.200000000000001,-6.3,16
488,8201.0,-0.30000000000000004,0.1,-1.8,-0.2,3.7,7.4,-1.7,3.1,0.1,16
489,8218.0,0.0,0.5,-2.0,0.2,4.1000000000000005,7.2,1.5000000000000002,1.5000000000000002,1.4,16
490,8234.0,0.1,0.8,-2.1,0.2,4.4,7.0,0.5,4.800000000000001,0.6000000000000001,16
491,8251.0,0.1,1.2000000000000002,-2.0,0.2,4.800000000000001,7.1000000000000005,-6.5,13.5,-2.1999999999999997,16
492,8269.0,-0.2,1.2000000000000002,-1.7000000000000002,-0.1,4.800000000000001,7.4,-10.5,19.3,-3.5,16
493,8285.0,-0.4,1.0,-1.3,-0.4,4.6000000000000005,7.800000000000001,-11.5,18.6,-4.1000000000000005,16
494,8301.0,-0.4,1.1,-0.6000000000000001,-0.5,4.6000000000000005,8.6,-12.8,18.7,-2.1999999999999997,16
495,8318.0,-0.4,1.4000000000000001,0.5,-0.5,4.9,9.700000000000001,-13.9,15.7,-1.2000000000000002,16
496,8335.0,-0.4,1.4000000000000001,1.0,-0.6000000000000001,4.9,10.200000000000001,-14.3,15.000000000000002,-1.0999999999999999,16
497,8351.0,-1.1,1.4000000000000001,2.6,-1.3,4.800000000000001,11.8,-16.400000000000002,12.4,0.4,16
498,8369.0,-1.7000000000000002,1.3,3.7,-1.9000000000000001,4.7,12.9,-14.900000000000002,10.2,3.6,16
499,8385.0,-2.1,1.1,4.6000000000000005,-2.4000000000000004,4.5,13.8,2.1,13.4,20.4,16
500,8401.0,-1.1,1.4000000000000001,3.9000000000000004,-1.3,4.800000000000001,13.100000000000001,16.400000000000002,23.5,39.300000000000004,16
501,8418.0,-0.1,1.7000000000000002,1.6,-0.4,5.2,10.8,21.8,34.400000000000006,46.800000000000004,16
502,8434.0,0.4,1.7000000000000002,0.8,0.1,5.2,9.9,12.5,33.1,44.7,16
503,8460.0,1.9000000000000001,1.0,2.1,1.5,4.5,11.3,-22.900000000000002,7.6,18.3,16
504,8470.0,1.4000000000000001,0.1,3.4000000000000004,1.0,3.6,12.600000000000001,-32.4,1.0,5.9,16
505,8485.0,0.5,-0.8,4.5,0.2,2.6,13.600000000000001,-37.900000000000006,0.9,-4.1000000000000005,16
506,8501.0,-1.9000000000000001,-2.7,5.0,-2.3000000000000003,0.6000000000000001,14.200000000000001,-27.900000000000002,23.6,-8.0,16
507,8518.0,-2.5,-2.8000000000000003,2.9000000000000004,-3.0,0.4,12.200000000000001,-7.9,44.5,14.3,16
508,8535.0,-2.2,-2.4000000000000004,1.4000000000000001,-2.7,0.8,10.700000000000001,0.30000000000000004,52.900000000000006,25.6,16
509,8551.0,-1.1,-1.2000000000000002,-1.4000000000000001,-1.8,2.0,7.9,7.9,51.900000000000006,42.800000000000004,16
510,8569.0,-0.4,-0.7000000000000001,-1.9000000000000001,-0.30000000000000004,3.1,6.9,12.4,34.1,50.300000000000004,16
511,8585.0,1.2000000000000002,0.1,-2.5,0.4,3.4000000000000004,6.7,17.9,7.6,49.2,16
512,8601.0,1.7000000000000002,0.2,-2.7,1.1,3.6,6.300000000000001,13.0,-8.600000000000001,35.9,16
513,8620.0,1.2000000000000002,-0.4,-1.2000000000000002,0.5,3.0,8.0,-1.4,-17.599999999999998,16.700000000000003,16
514,8635.0,0.6000000000000001,-1.1,-0.1,-0.1,2.3000000000000003,9.1,-7.500000000000001,-15.299999999999999,6.1000000000000005,16
515,8652.0,-1.1,-2.3000000000000003,0.7000000000000001,-1.7000000000000002,1.1,9.8,-9.3,1.6,5.9,16
516,8675.0,-2.0,-2.5,0.2,-2.6,0.9,9.4,-13.100000000000001,27.6,23.900000000000002,16
517,8685.0,-1.7000000000000002,-1.8,-0.5,-2.3000000000000003,1.6,8.700000000000001,-13.8,37.6,36.9,16
518,8702.0,-0.4,-0.4,-1.3,-1.1,2.9000000000000004,7.9,-4.0,32.7,52.1,16
519,8718.0,0.4,0.30000000000000004,-2.0,-0.4,3.6,7.2,6.9,10.4,47.6,16
520,8736.0,0.6000000000000001,0.30000000000000004,-1.6,-0.1,3.7,7.6000000000000005,7.8,-8.9,37.300000000000004,16
521,8751.0,0.4,0.1,-1.0,-0.30000000000000004,3.4000000000000004,8.200000000000001,7.500000000000001,-13.700000000000001,32.9,16
522,8768.0,0.5,0.0,-0.30000000000000004,-0.1,3.4000000000000004,8.9,8.5,-14.500000000000002,31.8,16
523,8786.0,0.6000000000000001,0.30000000000000004,-0.30000000000000004,0.0,3.7,8.8,8.0,-12.100000000000001,31.6,16
524,8801.0,0.7000000000000001,0.7000000000000001,-0.30000000000000004,0.2,4.1000000000000005,8.8,6.1000000000000005,-10.5,27.5,16
525,8818.0,0.8,0.7000000000000001,-0.1,0.4,4.1000000000000005,9.0,7.9,-13.700000000000001,18.1,16
526,8834.0,0.8,0.6000000000000001,0.0,0.4,4.0,9.1,9.200000000000001,-13.100000000000001,13.9,16
527,8851.0,0.6000000000000001,0.4,0.5,0.30000000000000004,3.9000000000000004,9.600000000000001,11.4,-11.6,7.300000000000001,16
528,8870.0,0.4,0.30000000000000004,0.5,0.1,3.8000000000000003,9.700000000000001,16.1,-6.5,5.4,16
529,8885.0,0.5,0.4,0.4,0.30000000000000004,4.0,9.5,17.0,-4.9,4.300000000000001,16
530,8901.0,0.6000000000000001,0.4,0.0,0.4,4.0,9.1,12.4,-9.4,-3.7000000000000006,16
531,8918.0,0.5,0.1,0.5,0.30000000000000004,3.7,9.600000000000001,7.8,-24.200000000000003,-6.9,16
532,8937.0,0.2,-0.2,2.2,0.2,3.5,11.3,5.4,-33.1,-7.1000000000000005,16
533,8953.0,0.6000000000000001,-0.2,2.5,0.6000000000000001,3.5,11.600000000000001,8.600000000000001,-34.0,-3.9,16
534,8970.0,1.0,-0.30000000000000004,1.1,1.1,3.5,10.200000000000001,13.100000000000001,-18.0,-6.7,16
535,8985.0,1.0,-0.1,0.2,1.1,3.6,9.200000000000001,10.700000000000001,-16.5,-9.600000000000001,16
536,9001.0,0.8,0.2,-1.0,1.0,3.9000000000000004,8.0,1.3,-23.6,-16.2,16
537,9018.0,0.7000000000000001,-0.1,-0.8,0.8,3.7,8.3,-13.8,-47.0,-27.3,16
538,9034.0,0.6000000000000001,-0.2,0.1,0.9,3.6,9.1,-21.3,-55.300000000000004,-30.100000000000005,16
539,9051.0,0.4,-0.30000000000000004,2.9000000000000004,0.8,3.3000000000000003,12.0,-32.9,-57.5,-32.0,16
540,9069.0,0.30000000000000004,-0.8,3.6,0.9,2.8000000000000003,12.700000000000001,-27.400000000000002,-39.300000000000004,-33.300000000000004,16
541,9085.0,0.0,-1.1,2.7,0.6000000000000001,2.4000000000000004,11.8,-17.599999999999998,-26.1,-32.800000000000004,16
542,9101.0,-0.4,-1.4000000000000001,1.6,0.1,1.8,9.9,-9.0,-17.5,-26.8,16
543,9118.0,0.0,-1.2000000000000002,-0.30000000000000004,0.6000000000000001,2.3000000000000003,8.8,-3.1,-18.8,-17.599999999999998,16
544,9135.0,0.30000000000000004,-0.9,-0.7000000000000001,1.0,2.6,8.4,0.5,-23.1,-16.0,16
545,9154.0,0.7000000000000001,-0.6000000000000001,-1.0,1.4000000000000001,2.9000000000000004,8.200000000000001,3.2,-29.700000000000003,-22.900000000000002,16
546,9172.0,0.2,-0.8,-1.2000000000000002,1.0,2.6,8.0,-1.3,-21.700000000000003,-27.6,16
547,9186.0,0.0,-0.9,-1.2000000000000002,0.7000000000000001,2.7,7.9,-6.7,-8.9,-26.8,16
548,9201.0,-0.30000000000000004,-0.7000000000000001,-1.2000000000000002,0.5,2.8000000000000003,7.9,-7.0,-4.9,-25.700000000000003,16
549,9219.0,-0.6000000000000001,-0.6000000000000001,-1.6,0.0,2.8000000000000003,7.1000000000000005,-2.9,-4.5,-24.6,16
550,9235.0,-0.8,-0.7000000000000001,-2.0,-0.1,2.7,6.9,-1.4,-6.5,-22.7,16
551,9251.0,-0.6000000000000001,-0.30000000000000004,-2.5,0.2,3.2,6.6000000000000005,0.0,-5.500000000000001,-16.1,16
552,9268.0,-0.30000000000000004,0.4,-2.9000000000000004,0.4,3.8000000000000003,6.300000000000001,0.2,-2.3000000000000003,-14.900000000000002,16
553,9284.0,-0.4,0.6000000000000001,-2.6,0.30000000000000004,4.1000000000000005,7.1000000000000005,-9.4,3.6,-19.500000000000004,16
554,9301.0,-0.7000000000000001,0.5,-1.5,0.0,4.0,7.7,-12.8,8.1,-20.1,16
555,9318.0,-1.1,0.4,0.0,-0.4,3.8000000000000003,9.1,-13.9,13.9,-16.5,16
556,9335.0,-1.2000000000000002,0.2,0.6000000000000001,-0.7000000000000001,3.6,10.100000000000001,-10.3,15.299999999999999,-13.8,16
557,9354.0,-1.0,0.5,1.1,-0.4,3.8000000000000003,10.3,2.0,20.4,-0.8,16
558,9373.0,-0.6000000000000001,1.2000000000000002,1.6,-0.1,4.6000000000000005,10.8,6.1000000000000005,22.2,6.3,16
559,9384.0,-0.4,1.5,1.9000000000000001,0.1,4.9,11.100000000000001,7.400000000000001,22.900000000000002,8.0,16
560,9401.0,-0.30000000000000004,1.7000000000000002,2.2,0.1,5.1000000000000005,11.4,7.8,29.700000000000003,8.1,16
561,9423.0,-0.8,1.4000000000000001,2.2,-0.5,4.800000000000001,11.4,5.4,43.50000000000001,12.200000000000001,16
562,9435.0,-0.9,1.2000000000000002,2.6,-0.7000000000000001,4.7,11.700000000000001,5.4,45.1,16.2,16
563,9455.0,0.1,1.5,3.3000000000000003,0.2,5.0,12.4,22.2,37.800000000000004,29.1,16
564,9468.0,0.1,1.5,3.3000000000000003,0.30000000000000004,4.9,12.4,22.2,37.800000000000004,29.1,16
565,9485.0,0.5,1.1,2.4000000000000004,0.7000000000000001,4.7,10.5,40.4,36.7,29.300000000000004,16
566,9501.0,0.8,1.0,1.5,1.1,4.9,9.5,30.200000000000003,40.3,26.0,16
567,9518.0,1.8,1.2000000000000002,1.0,1.6,5.0,10.0,1.6,26.700000000000003,11.6,16
568,9539.0,1.5,0.30000000000000004,4.0,1.2000000000000002,4.0,13.100000000000001,-16.1,5.8,-16.3,16
569,9561.0,0.0,-1.3,4.5,-0.30000000000000004,2.4000000000000004,13.600000000000001,-5.1,20.0,-25.6,16
570,9569.0,-0.30000000000000004,-1.7000000000000002,3.0,-0.6000000000000001,2.0,12.100000000000001,2.1999999999999997,35.9,-23.700000000000003,16
571,9587.0,-0.2,-1.7000000000000002,3.0,-0.2,2.8000000000000003,8.9,10.0,57.00000000000001,-14.500000000000002,16
572,9602.0,0.7000000000000001,-0.5,-1.4000000000000001,0.1,3.2,7.7,14.600000000000001,53.6,-15.7,16
573,9618.0,0.7000000000000001,-0.4,-2.5,-0.1,3.4000000000000004,6.5,17.0,29.700000000000003,-26.500000000000004,16
574,9635.0,-0.1,-1.6,-2.4000000000000004,-1.0,2.2,6.6000000000000005,16.2,10.1,-35.1,16
575,9651.0,-0.6000000000000001,-2.2,-2.5,-1.5,1.7000000000000002,6.5,14.600000000000001,7.0,-35.9,16
576,9671.0,-1.2000000000000002,-2.8000000000000003,-2.6,-2.1,1.0,6.4,2.4000000000000004,5.0,-25.400000000000002,16
577,9685.0,-0.8,-2.6,-2.2,-1.8,1.2000000000000002,6.800000000000001,-9.1,1.8,-17.0,16
578,9701.0,-0.8,-2.4000000000000004,-2.1,-1.9000000000000001,1.4000000000000001,6.9,-12.100000000000001,-0.7,-15.100000000000001,16
579,9718.0,-1.5,-2.2,-1.9000000000000001,-2.5,1.6,7.1000000000000005,-14.700000000000001,-6.9,-12.000000000000002,16
580,9736.0,-1.8,-1.9000000000000001,-1.3,-2.9000000000000004,1.8,7.7,-15.399999999999999,-12.9,-2.1,16
581,9751.0,-1.7000000000000002,-1.6,-1.1,-2.7,2.1,7.9,-14.600000000000001,-14.4,2.4000000000000004,16
582,9771.0,-1.7000000000000002,-1.1,-0.5,-2.6,2.6,8.6,-12.700000000000001,-15.5,9.9,16
583,9786.0,-1.6,-0.7000000000000001,-0.4,-2.2,3.2,8.8,-10.4,-16.6,16.400000000000002,16
584,9801.0,-1.2000000000000002,-0.2,-0.1,-2.1,3.4000000000000004,9.0,-9.9,-19.1,19.0,16
585,9818.0,-1.2000000000000002,-0.4,1.3,-1.9000000000000001,3.2,10.4,-4.3999999999999995,-24.1,21.6,16
586,9835.0,-1.1,-0.30000000000000004,1.6,-1.4000000000000001,3.6,10.5,5.8,-17.3,27.3,16
587,9852.0,-0.4,0.5,0.7000000000000001,-1.1,4.0,9.9,8.799999999999999,-11.000000000000002,29.300000000000004,16
588,9868.0,-0.1,0.9,0.4,-0.8,4.5,9.5,7.699999999999999,-4.3999999999999995,29.400000000000002,16
589,9885.0,0.6000000000000001,0.9,0.30000000000000004,0.0,4.5,9.3,8.0,-0.7,24.9,16
590,9902.0,0.30000000000000004,0.9,0.1,-0.30000000000000004,4.6000000000000005,9.1,10.2,4.300000000000001,20.900000000000002,16
591,9919.0,-0.1,0.9,-0.5,-0.6000000000000001,4.6000000000000005,8.6,11.000000000000002,11.1,15.7,16
592,9935.0,-0.5,0.4,-0.9,-1.1,4.1000000000000005,8.1,8.600000000000001,8.600000000000001,12.5,16
593,9951.0,-0.5,0.30000000000000004,-0.9,-1.6,4.5,8.5,7.1000000000000005,-7.6,16.3,16
594,9971.0,-0.5,0.2,1.1,-1.0,4.0,10.100000000000001,10.2,-26.1,16.400000000000002,16
595,9985.0,0.2,0.5,2.3000000000000003,-0.2,4.3,11.3,23.700000000000003,-32.2,23.1,16
596,10001.0,0.8,0.8,2.3000000000000003,0.5,4.7,11.3,26.700000000000003,-25.400000000000002,24.3,16
597,10022.0,1.3,0.9,1.9000000000000001,1.1,4.9,10.9,27.900000000000002,-8.600000000000001,19.0,16
598,10034.0,1.4000000000000001,0.8,0.8,1.1,4.9,9.700000000000001,23.8,5.500000000000001,10.5,16
599,10051.0,1.2000000000000002,0.7000000000000001,0.0,1.0,4.800000000000001,8.9,18.6,9.4,4.3999999999999995,16
600,10068.0,0.9,0.4,-0.30000000000000004,0.6000000000000001,4.6000000000000005,8.5,-3.4,-4.7,-13.6,16
601,10085.0,0.6000000000000001,-0.4,2.3000000000000003,0.4,3.7,11.200000000000001,-15.9,-36.5,-27.3,16
602,10101.0,0.6000000000000001,-1.0,3.8000000000000003,0.4,3.1,12.700000000000001,-15.2,-46.7,-30.799999999999997,16
603,10118.0,0.1,-2.4000000000000004,5.0,0.0,1.6,13.9,-0.1,-45.0,-32.1,16
604,10136.0,-0.30000000000000004,-3.0,2.5,-0.30000000000000004,1.0,11.4,21.1,-7.500000000000001,-15.7,16
605,10151.0,0.0,-2.8000000000000003,0.5,0.0,1.3,9.4,21.5,6.3,-7.400000000000001,16
606,10168.0,0.8,-1.9000000000000001,-2.4000000000000004,0.7000000000000001,2.3000000000000003,6.5,12.9,14.700000000000001,1.4,16
607,10185.0,1.6,-1.1,-2.8000000000000003,1.5,3.1,6.0,3.1,-7.0,-0.8,16
608,10202.0,2.1,-0.7000000000000001,-2.2,2.0,3.5,6.6000000000000005,2.1,-17.599999999999998,-5.8,16
609,10218.0,1.6,-0.7000000000000001,-1.8,1.6,3.4000000000000004,7.1000000000000005,4.1000000000000005,-23.6,-19.700000000000003,16
610,10235.0,0.6000000000000001,-1.2000000000000002,-1.4000000000000001,0.6000000000000001,3.0,7.5,-2.5,-20.4,-27.3,16
611,10251.0,0.2,-1.3,-0.7000000000000001,0.2,2.9000000000000004,8.1,-5.500000000000001,-15.7,-28.6,16
612,10283.0,-0.5,-0.8,-2.1,-0.5,3.4000000000000004,6.800000000000001,-3.0000000000000004,14.700000000000001,-24.3,16
613,10284.0,-0.6000000000000001,-0.6000000000000001,-2.8000000000000003,-0.7000000000000001,3.6,6.1000000000000005,-3.6,17.7,-23.400000000000002,16
614,10301.0,-0.7000000000000001,-0.4,-3.0,-0.9,3.7,5.9,-5.0,15.8,-23.1,16
615,10318.0,-0.8,-0.2,-2.6,-1.0,4.0,6.300000000000001,-7.0,5.8,-22.3,16
616,10334.0,-0.7000000000000001,0.1,-2.0,-1.0,4.3,6.9,-6.9,-0.5,-20.8,16
617,10351.0,-0.7000000000000001,0.2,-2.1,-0.8,4.4,7.4,-8.1,-0.7,-19.8,16
618,10368.0,-0.4,0.6000000000000001,-1.2000000000000002,-0.7000000000000001,4.7,7.7,-9.4,8.3,-16.700000000000003,16
619,10384.0,-0.4,0.7000000000000001,-1.3,-0.7000000000000001,4.800000000000001,7.7,-11.4,12.9,-15.299999999999999,16
620,10401.0,-0.6000000000000001,1.1,-0.6000000000000001,-1.0,5.1000000000000005,8.3,-17.9,12.000000000000002,-11.8,16
621,10418.0,-0.4,1.4000000000000001,0.7000000000000001,-0.8,5.4,9.600000000000001,-15.299999999999999,2.9,-9.8,16
622,10434.0,-0.8,0.9,1.9000000000000001,-1.3,4.9,10.9,-4.3999999999999995,-0.8,-8.0,16
623,10451.0,-1.0,0.7000000000000001,1.7000000000000002,-1.5,4.7,10.700000000000001,4.6000000000000005,5.7,-2.6,16
624,10468.0,-1.1,0.6000000000000001,1.0,-1.5,4.6000000000000005,9.9,5.500000000000001,18.1,7.0,16
625,10484.0,-0.9,0.8,0.4,-1.4000000000000001,4.800000000000001,9.4,0.0,24.1,14.600000000000001,16
626,10501.0,-0.9,0.9,0.5,-1.5,4.9,9.4,-3.0000000000000004,21.3,16.700000000000003,16
627,10518.0,-1.1,0.7000000000000001,1.0,-1.6,4.6000000000000005,10.700000000000001,1.9,0.6000000000000001,19.9,16
628,10535.0,-0.4,0.1,2.1,-1.0,4.1000000000000005,11.0,17.3,-4.3999999999999995,22.2,16
629,10551.0,-0.4,0.1,2.1,-1.0,4.1000000000000005,11.0,19.0,4.0,23.6,16
630,10569.0,2.2,0.4,-1.4000000000000001,1.6,4.5,7.5,0.1,20.0,12.9,16
631,10584.0,1.0,0.0,-0.4,0.5,4.0,8.5,-56.1,16.1,-23.6,16
632,10601.0,-0.1,-0.9,1.5,-0.7000000000000001,3.0,10.5,-71.6,10.2,-34.900000000000006,16
633,10618.0,-2.8000000000000003,-2.6,4.800000000000001,-3.5,1.1,13.9,-70.2,3.3000000000000003,-35.0,16
634,10635.0,-2.8000000000000003,-2.7,4.800000000000001,-3.6,0.8,13.9,-37.0,6.9,-7.0,16
635,10651.0,-2.8000000000000003,-2.7,4.800000000000001,-2.7,1.4000000000000001,12.4,-14.200000000000001,19.400000000000002,18.6,16
636,10669.0,0.2,-0.2,0.0,-0.6000000000000001,3.2,9.200000000000001,-3.1,27.3,36.7,16
637,10684.0,1.0,0.1,-1.7000000000000002,0.2,3.5,7.5,-3.9,15.100000000000001,32.4,16
638,10702.0,1.0,0.0,-2.0,0.1,3.4000000000000004,7.2,-6.7,6.6000000000000005,27.5,16
639,10718.0,0.7000000000000001,-0.4,-1.6,-0.1,2.9000000000000004,7.6000000000000005,-16.6,-13.5,14.200000000000001,16
640,10735.0,0.0,-1.0,-0.2,-0.8,2.3000000000000003,9.0,-27.900000000000002,-15.5,6.6000000000000005,16
641,10751.0,-0.30000000000000004,-1.1,0.5,-1.1,2.1,9.8,-29.700000000000003,-13.100000000000001,5.6,16
642,10768.0,-0.8,-0.9,0.30000000000000004,-1.5,2.3000000000000003,9.600000000000001,-24.200000000000003,-1.7,8.799999999999999,16
643,10784.0,-1.0,-0.6000000000000001,-0.4,-1.8,2.6,8.1,-18.5,5.8,14.900000000000002,16
644,10801.0,-1.0,-0.4,-1.5,-1.7000000000000002,2.7,7.800000000000001,-19.8,4.300000000000001,18.8,16
645,10818.0,-0.9,0.0,-1.1,-1.6,3.0,8.200000000000001,-18.6,-8.5,24.7,16
646,10834.0,-0.7000000000000001,0.0,0.2,-1.3,3.0,9.600000000000001,-3.3000000000000003,-27.2,30.100000000000005,16
647,10851.0,-0.6000000000000001,0.0,0.7000000000000001,-1.2000000000000002,2.9000000000000004,10.0,4.5,-28.200000000000003,33.900000000000006,16
648,10868.0,0.0,0.8,0.1,-0.5,3.7,9.4,16.700000000000003,-19.8,44.9,16
649,10884.0,0.5,1.4000000000000001,-0.30000000000000004,0.1,4.4,9.0,19.3,-16.8,48.50000000000001,16
650,10901.0,1.2000000000000002,2.4000000000000004,-1.1,0.9,5.5,8.200000000000001,20.0,-14.200000000000001,46.4,16
651,10919.0,1.1,2.5,-0.7000000000000001,0.9,5.6000000000000005,8.6,14.0,-19.700000000000003,28.400000000000002,16
652,10935.0,-0.1,1.6,0.5,-0.2,4.9,9.8,12.6,-21.200000000000003,14.0,16
653,10951.0,-0.7000000000000001,1.1,1.0,-0.8,4.4,10.3,14.4,-19.3,11.4,16
654,10968.0,-0.8,1.1,1.8,-0.8,4.5,11.100000000000001,26.700000000000003,-18.3,17.599999999999998,16
655,10985.0,-0.30000000000000004,1.6,1.9000000000000001,-0.2,5.0,11.100000000000001,40.1,-15.299999999999999,19.400000000000002,16
656,11001.0,-0.1,1.9000000000000001,1.5,0.0,5.300000000000001,10.700000000000001,44.00000000000001,-13.4,19.3,16
657,11018.0,0.2,1.7000000000000002,0.8,0.4,5.4,9.9,40.0,-9.5,15.9,16
658,11035.0,-0.1,1.3,1.3,0.1,5.0,10.4,21.8,-8.9,7.0,16
659,11052.0,-0.2,0.4,2.2,0.1,4.2,11.3,21.700000000000003,-12.6,3.1,16
660,11069.0,-0.2,0.1,2.2,0.1,3.9000000000000004,11.200000000000001,23.900000000000002,-12.9,2.8,16
661,11085.0,0.2,-0.1,1.5,0.5,3.8000000000000003,10.5,23.8,-11.1,4.300000000000001,16
662,11101.0,0.5,-0.1,0.9,0.8,3.9000000000000004,9.9,18.5,-10.700000000000001,2.5,16
663,11120.0,0.8,-0.2,0.30000000000000004,1.2000000000000002,3.8000000000000003,9.3,4.0,-17.7,-4.5,16
664,11134.0,0.8,-0.6000000000000001,1.3,1.3,3.4000000000000004,10.3,-13.5,-30.5,-14.0,16
665,11151.0,0.5,-1.0,2.5,1.0,2.9000000000000004,11.4,-20.5,-35.1,-17.9,16
666,11169.0,0.0,-1.9000000000000001,4.1000000000000005,0.6000000000000001,2.0,13.100000000000001,-15.6,-25.0,-14.3,16
667,11185.0,-0.2,-2.7,2.8000000000000003,0.4,1.2000000000000002,11.8,4.9,-2.6,-0.8,16
668,11201.0,0.0,-2.7,1.3,0.6000000000000001,1.1,10.3,15.9,7.2,7.300000000000001,16
669,11218.0,1.0,-2.3000000000000003,-2.0,1.6,1.6,6.9,29.1,12.100000000000001,17.0,16
670,11234.0,2.0,-1.9000000000000001,-3.6,2.6,2.1,5.300000000000001,25.3,-0.7,12.100000000000001,16
671,11251.0,2.3000000000000003,-1.7000000000000002,-3.5,2.9000000000000004,2.3000000000000003,5.4,18.6,-5.6,6.1000000000000005,16
672,11268.0,1.9000000000000001,-2.0,-3.1,2.5,2.1,5.7,4.5,-8.200000000000001,-9.4,16
673,11285.0,1.0,-2.6,-2.1,1.6,1.5,6.800000000000001,-7.9,-7.0,-20.3,16
674,11301.0,0.6000000000000001,-2.8000000000000003,-1.7000000000000002,1.3,1.3,7.2,-9.9,-6.5,-22.900000000000002,16
675,11318.0,0.30000000000000004,-2.9000000000000004,-1.5,0.9,1.1,7.4,-4.2,-5.9,-19.6,16
676,11334.0,0.4,-2.7,-1.8,1.2000000000000002,1.8,6.800000000000001,-1.0,-2.9,-14.800000000000002,16
677,11354.0,0.8,-1.6,-3.1,1.4000000000000001,2.4000000000000004,5.800000000000001,-9.700000000000001,7.8,-20.8,16
678,11368.0,0.7000000000000001,-1.6,-3.5,1.3,2.5,5.4,-17.8,12.6,-25.1,16
679,11384.0,0.5,-1.6,-3.8000000000000003,0.5,2.4000000000000004,5.6000000000000005,-31.900000000000002,10.8,-30.4,16
680,11401.0,-0.4,-1.8,-2.4000000000000004,0.0,2.2,6.6000000000000005,-37.1,8.4,-30.200000000000003,16
681,11418.0,-0.4,-1.3,-1.6,0.0,2.6,7.5,-35.5,5.7,-19.3,16
682,11435.0,0.7000000000000001,0.30000000000000004,-1.4000000000000001,1.1,4.1000000000000005,7.7,-24.200000000000003,4.7,-7.699999999999999,16
683,11451.0,1.2000000000000002,1.1,-1.5,1.5,4.800000000000001,7.6000000000000005,-25.2,9.1,-9.200000000000001,16
684,11469.0,1.0,2.0,-1.6,1.3,5.6000000000000005,7.5,-37.4,18.900000000000002,-19.400000000000002,16
685,11485.0,-0.30000000000000004,2.3000000000000003,0.4,-0.1,5.800000000000001,9.600000000000001,-51.800000000000004,5.2,-31.6,16
686,11501.0,-1.2000000000000002,1.9000000000000001,2.2,-1.0,5.300000000000001,11.4,-49.5,-3.1,-31.2,16
687,11518.0,-1.9000000000000001,2.0,4.3,-1.7000000000000002,5.2,13.600000000000001,-32.0,-3.6,-16.0,16
688,11535.0,-1.7000000000000002,2.5,4.4,-1.1,6.1000000000000005,13.700000000000001,-7.400000000000001,2.9,-0.6000000000000001,16
689,11551.0,-0.9,3.4000000000000004,3.8000000000000003,-0.8,6.6000000000000005,13.100000000000001,3.2,8.4,2.9,16
690,11568.0,-1.2000000000000002,3.1,2.8000000000000003,-1.0,6.300000000000001,12.0,16.700000000000003,14.500000000000002,3.3000000000000003,16
691,11584.0,-1.3,2.7,2.6,-1.0,5.7,11.600000000000001,19.6,13.100000000000001,9.5,16
692,11601.0,-0.9,2.2,2.3000000000000003,-0.8,5.5,11.600000000000001,20.2,11.5,11.4,16
693,11618.0,-0.8,1.5,1.5,-0.7000000000000001,4.800000000000001,10.700000000000001,14.900000000000002,14.900000000000002,7.300000000000001,16
694,11635.0,-1.0,0.6000000000000001,1.2000000000000002,-1.0,4.0,10.4,-1.8,13.4,1.3,16
695,11655.0,-1.6,-0.2,3.1,-1.6,3.2,12.3,-15.2,-0.8,-5.4,16
696,11668.0,-2.0,-0.7000000000000001,4.3,-2.1,2.6,13.600000000000001,-17.5,-5.500000000000001,-6.000000000000001,16
697,11684.0,-2.5,-1.3,5.300000000000001,-2.9000000000000004,1.7000000000000002,14.5,-2.9,11.2,6.4,16
698,11704.0,-2.1,-1.1,2.0,-2.2,2.2,11.200000000000001,15.6,38.300000000000004,22.900000000000002,16
699,11719.0,-1.7000000000000002,-0.7000000000000001,0.1,-1.8,2.6,9.3,19.200000000000003,46.300000000000004,27.0,16
700,11734.0,-1.0,-0.4,-2.5,-1.2000000000000002,2.9000000000000004,6.7,17.5,42.900000000000006,26.200000000000003,16
701,11753.0,-0.7000000000000001,-0.5,-2.1,-1.1,2.9000000000000004,7.1000000000000005,4.3999999999999995,13.6,19.200000000000003,16
702,11770.0,-0.7000000000000001,-0.8,-0.8,-1.1,2.6,8.4,3.0000000000000004,-1.9,18.1,16
703,11784.0,-0.7000000000000001,-1.0,0.9,-0.5,2.5,11.3,13.700000000000001,-23.2,21.200000000000003,16
704,11802.0,0.8,-0.1,1.9000000000000001,0.6000000000000001,3.4000000000000004,11.100000000000001,27.6,-11.9,22.7,16
705,11819.0,0.9,0.1,1.1,0.7000000000000001,3.7,10.200000000000001,27.6,8.3,16.5,16
706,11835.0,0.30000000000000004,-0.30000000000000004,-0.2,0.1,3.3000000000000003,8.9,16.5,29.200000000000003,6.8,16
707,11853.0,0.0,-0.6000000000000001,-0.4,-0.5,2.8000000000000003,8.700000000000001,13.8,29.900000000000006,4.800000000000001,16
708,11868.0,-0.5,-1.1,-0.6000000000000001,-0.9,2.6,8.5,18.2,24.5,6.6000000000000005,16
709,11884.0,-0.4,-1.5,-0.6000000000000001,-0.8,2.2,8.5,36.7,5.500000000000001,20.2,16
710,11901.0,-0.2,-1.5,-0.9,-0.6000000000000001,2.3000000000000003,8.1,43.50000000000001,4.0,26.3,16
711,11918.0,0.4,-1.0,-2.7,0.0,2.9000000000000004,6.300000000000001,47.400000000000006,7.2,35.4,16
712,11934.0,1.3,-0.5,-3.5,1.0,3.5,5.4,35.6,4.3999999999999995,36.5,16
713,11953.0,1.4000000000000001,-0.30000000000000004,-3.6,1.0,3.8000000000000003,5.4,17.3,-2.9,26.400000000000002,16
714,11971.0,0.9,-0.6000000000000001,-2.8000000000000003,0.6000000000000001,3.6,6.0,12.5,-8.4,21.900000000000002,16
715,11985.0,0.1,-1.4000000000000001,-1.6,-0.1,2.8000000000000003,7.300000000000001,10.0,-12.9,18.400000000000002,16
716,12001.0,0.1,-1.5,-1.6,-0.1,2.8000000000000003,7.2,11.4,-9.1,21.200000000000003,16
717,12018.0,1.5,-0.8,-2.5,1.3,3.5,6.300000000000001,9.9,-0.30000000000000004,27.400000000000002,16
718,12034.0,-0.1,-0.4,-2.1,-0.2,3.9000000000000004,6.7,7.6,-8.200000000000001,21.6,16
719,12051.0,1.4000000000000001,0.30000000000000004,-2.7,1.4000000000000001,4.6000000000000005,6.1000000000000005,5.6,-11.6,23.5,16
720,12068.0,0.9,0.7000000000000001,-1.3,0.9,5.0,7.5,-6.2,-23.6,9.5,16
721,12084.0,0.7000000000000001,0.5,-0.30000000000000004,0.6000000000000001,4.5,9.600000000000001,-19.700000000000003,-27.2,-3.4,16
722,12101.0,0.4,0.1,2.1,0.30000000000000004,4.2,11.9,-23.3,-25.6,-5.1,16
723,12118.0,0.0,-0.2,3.6,0.2,4.0,12.5,-19.500000000000004,-18.8,-6.5,16
724,12134.0,0.1,-0.2,3.4000000000000004,0.30000000000000004,3.9000000000000004,12.3,-6.000000000000001,-6.2,-2.9,16
725,12151.0,0.2,-0.1,2.9000000000000004,0.5,4.0,11.8,0.0,-3.9,-2.1999999999999997,16
726,12170.0,0.7000000000000001,0.1,1.2000000000000002,0.9,4.2,10.0,7.0,-3.5,-4.0,16
727,12186.0,1.0,0.0,-0.1,1.3,4.2,8.8,0.1,-8.1,-9.700000000000001,16
728,12201.0,1.0,0.0,-0.1,1.3,4.2,8.8,0.1,-8.1,-9.700000000000001,16
729,12218.0,1.4000000000000001,0.0,-0.5,1.7000000000000002,4.1000000000000005,8.4,-36.6,-32.1,-28.0,16
730,12234.0,1.3,-0.30000000000000004,3.0,1.7000000000000002,3.7,11.9,-50.0,-48.50000000000001,-41.9,16
731,12251.0,0.9,-0.8,4.1000000000000005,1.3,3.1,13.100000000000001,-47.300000000000004,-47.400000000000006,-46.2,16
732,12271.0,-0.1,-1.8,4.1000000000000005,0.4,2.0,13.100000000000001,-25.8,-24.5,-41.4,16
733,12285.0,-0.5,-2.2,1.5,0.1,1.5,10.600000000000001,-6.6000000000000005,-5.500000000000001,-24.6,16
734,12303.0,-0.2,-2.0,-0.1,0.30000000000000004,1.7000000000000002,8.9,-0.6000000000000001,-2.6,-15.8,16
735,12319.0,0.9,-1.3,-1.9000000000000001,1.4000000000000001,2.4000000000000004,7.1000000000000005,4.0,-13.200000000000001,-7.8,16
736,12336.0,1.7000000000000002,-0.8,-2.1,2.2,2.9000000000000004,7.0,-2.0,-28.6,-16.900000000000002,16
737,12351.0,1.6,-0.8,-1.8,2.2,2.9000000000000004,7.300000000000001,-6.2,-30.4,-23.0,16
738,12368.0,1.6,-0.8,-1.8,2.2,2.9000000000000004,7.300000000000001,-6.2,-30.4,-23.0,16
739,12384.0,0.5,-1.1,-1.4000000000000001,1.2000000000000002,2.5,7.7,-13.4,-13.9,-32.300000000000004,16
740,12402.0,0.30000000000000004,-1.0,-1.6,1.0,2.7,7.5,-15.8,-6.4,-31.6,16
741,12418.0,0.1,-0.7000000000000001,-2.3000000000000003,0.8,2.9000000000000004,6.800000000000001,-19.6,0.1,-32.9,16
742,12434.0,0.0,-0.30000000000000004,-2.7,0.6000000000000001,3.2,6.5,-27.2,3.8,-36.9,16
743,12451.0,-0.8,-0.5,-2.6,-0.2,2.9000000000000004,6.5,-34.7,4.1000000000000005,-40.6,16
744,12471.0,-1.2000000000000002,-0.6000000000000001,-2.2,-0.6000000000000001,2.8000000000000003,6.9,-36.800000000000004,-3.1,-37.900000000000006,16
745,12484.0,-1.3,-0.30000000000000004,-0.8,-0.8,3.0,8.4,-34.50000000000001,-12.4,-28.0,16
746,12501.0,-1.2000000000000002,0.2,-0.5,-0.4,3.8000000000000003,9.1,-29.700000000000003,-11.6,-18.5,16
747,12518.0,-0.7000000000000001,1.0,-0.2,-0.2,4.2,9.1,-28.900000000000002,-8.3,-15.399999999999999,16
748,12534.0,-0.5,1.6,-0.1,0.0,4.7,9.200000000000001,-32.9,0.1,-12.6,16
749,12551.0,-0.5,1.9000000000000001,0.2,0.2,5.1000000000000005,10.4,-34.300000000000004,0.7,-12.200000000000001,16
750,12568.0,-0.30000000000000004,2.2,1.9000000000000001,0.2,5.1000000000000005,11.3,-30.599999999999998,-3.5,-12.200000000000001,16
751,12584.0,-0.9,1.8,2.8000000000000003,-0.4,4.6000000000000005,12.200000000000001,-15.2,1.3,-9.9,16
752,12601.0,-1.1,2.0,2.4000000000000004,-0.4,5.0,11.200000000000001,-4.0,14.500000000000002,-3.0000000000000004,16
753,12619.0,-0.7000000000000001,2.5,1.5,-0.30000000000000004,5.300000000000001,10.8,2.1,26.0,4.5,16
754,12634.0,-0.8,2.9000000000000004,2.3000000000000003,-0.4,5.7,11.600000000000001,3.9,22.7,4.5,16
755,12651.0,-1.6,2.2,3.0,-1.3,5.0,12.4,7.9,19.1,3.1,16
756,12668.0,-2.1,1.9000000000000001,3.8000000000000003,-1.8,4.7,13.200000000000001,20.4,9.1,8.200000000000001,16
757,12687.0,-2.0,1.4000000000000001,4.6000000000000005,-1.8,4.3,14.0,32.6,12.6,21.200000000000003,16
758,12702.0,-1.6,1.2000000000000002,3.8000000000000003,-1.4000000000000001,4.3,13.100000000000001,45.7,26.9,32.6,16
759,12718.0,-1.6,1.2000000000000002,2.7,-1.4000000000000001,4.3,12.0,49.5,34.7,36.6,16
760,12735.0,-1.2000000000000002,1.2000000000000002,-0.2,-1.1,4.5,9.0,42.5,49.5,41.9,16
761,12751.0,-0.9,1.0,-1.5,-0.9,4.4,7.7,22.900000000000002,37.0,39.400000000000006,16
762,12769.0,-0.8,1.0,-1.1,-0.8,4.5,8.1,11.9,18.1,36.1,16
763,12786.0,-0.8,0.4,3.4000000000000004,-0.8,3.8000000000000003,12.600000000000001,-3.7000000000000006,-33.7,23.400000000000002,16
764,12801.0,-1.2000000000000002,-0.30000000000000004,6.0,-1.0,2.4000000000000004,16.8,13.4,-32.6,21.6,16
765,12818.0,-1.0,-1.3,7.1000000000000005,-0.8,2.1,16.3,29.800000000000004,-9.8,24.9,16
766,12836.0,-0.30000000000000004,-1.0,1.9000000000000001,-0.1,2.6,11.0,49.9,45.0,31.0,16
767,12851.0,-0.2,-0.8,-2.1,-0.1,2.9000000000000004,7.0,48.400000000000006,59.400000000000006,28.700000000000003,16
768,12868.0,-0.5,-1.2000000000000002,-2.8000000000000003,-0.4,2.6,6.300000000000001,31.5,48.1,12.6,16
769,12885.0,-0.6000000000000001,-1.8,-1.9000000000000001,-0.7000000000000001,1.7000000000000002,7.800000000000001,20.7,20.5,8.0,16
770,12901.0,-0.5,-2.7,-0.30000000000000004,-0.7000000000000001,1.2000000000000002,8.700000000000001,23.2,3.8,11.2,16
771,12918.0,-0.4,-2.9000000000000004,0.0,-0.6000000000000001,1.0,8.9,29.600000000000005,-0.7,15.399999999999999,16
772,12934.0,0.30000000000000004,-2.7,-0.7000000000000001,0.2,1.3,8.200000000000001,34.300000000000004,8.4,23.900000000000002,16
773,12956.0,1.2000000000000002,-1.8,-2.3000000000000003,1.1,2.4000000000000004,6.6000000000000005,31.4,18.8,30.100000000000005,16
774,12975.0,1.5,-1.5,-3.0,1.5,3.0,5.300000000000001,26.1,16.700000000000003,29.1,16
775,12984.0,1.7000000000000002,-1.1,-3.6,1.6,3.2,5.300000000000001,19.400000000000002,11.5,25.3,16
776,13001.0,1.5,-1.1,-3.5,1.3,3.3000000000000003,5.300000000000001,11.1,6.2,19.9,16
777,13018.0,1.1,-1.2000000000000002,-3.2,1.0,3.1,5.6000000000000005,7.0,3.5,17.5,16
778,13034.0,0.7000000000000001,-1.5,-1.8,0.6000000000000001,2.9000000000000004,6.9,6.1000000000000005,-3.8,17.5,16
779,13054.0,0.6000000000000001,-1.4000000000000001,-2.2,0.5,3.0,6.5,16.700000000000003,-3.7000000000000006,23.2,16
780,13068.0,0.7000000000000001,-1.4000000000000001,-2.8000000000000003,0.6000000000000001,3.1,6.0,17.5,-2.7,25.1,16
781,13084.0,1.0,-1.0,-4.0,1.0,3.5,4.800000000000001,9.600000000000001,-2.5,26.1,16
782,13101.0,1.2000000000000002,-0.7000000000000001,-4.2,1.5,4.0,4.800000000000001,-5.500000000000001,-10.2,22.5,16
783,13118.0,1.6,-0.30000000000000004,-3.1,1.6,4.2,5.6000000000000005,-14.0,-21.3,14.600000000000001,16
784,13135.0,1.4000000000000001,-0.2,-2.1,1.4000000000000001,4.2,7.4,-14.700000000000001,-32.5,3.8,16
785,13151.0,0.9,-0.7000000000000001,-0.4,1.2000000000000002,3.7,8.4,-11.000000000000002,-29.200000000000003,-2.9,16
786,13168.0,0.7000000000000001,-0.5,-0.5,1.1,3.9000000000000004,8.200000000000001,-9.9,-23.3,-5.0,16
787,13184.0,0.5,-0.2,-0.8,0.9,4.1000000000000005,8.0,-21.0,-15.299999999999999,-3.5,16
788,13201.0,0.7000000000000001,0.4,1.2000000000000002,1.1,4.7,10.0,-38.2,-32.6,-3.0000000000000004,16
789,13218.0,1.2000000000000002,0.6000000000000001,2.7,1.7000000000000002,4.800000000000001,11.600000000000001,-38.800000000000004,-43.50000000000001,-4.6000000000000005,16
790,13234.0,1.4000000000000001,0.7000000000000001,3.3000000000000003,2.2,4.4,12.200000000000001,-27.2,-46.2,-11.5,16
791,13253.0,1.2000000000000002,-0.1,2.3000000000000003,1.9000000000000001,3.9000000000000004,11.200000000000001,-24.6,-23.900000000000002,-15.8,16
792,13268.0,1.0,-0.1,1.6,1.8,3.9000000000000004,10.600000000000001,-29.000000000000004,-16.0,-16.2,16
793,13285.0,1.1,0.1,0.1,1.9000000000000001,4.0,9.1,-43.50000000000001,-6.000000000000001,-21.8,16
794,13303.0,1.1,0.1,0.1,1.9000000000000001,4.0,9.1,-43.50000000000001,-6.000000000000001,-21.8,16
795,13318.0,0.2,-0.5,1.6,1.0,3.1,10.700000000000001,-75.4,-34.1,-40.5,16
796,13335.0,-0.30000000000000004,-0.9,4.2,0.5,2.5,13.4,-73.60000000000001,-52.900000000000006,-37.7,16
797,13351.0,-0.2,-1.0,5.7,0.8,2.2,15.0,-53.50000000000001,-48.9,-27.1,16
798,13370.0,-0.1,-1.0,5.1000000000000005,0.9,2.1,14.3,-40.2,-36.1,-22.1,16
799,13385.0,-0.1,-1.0,2.6,1.0,2.0,11.8,-12.8,-1.5000000000000002,-19.0,16
800,13401.0,-0.8,-0.4,-1.2000000000000002,0.2,2.6,8.0,-3.8,7.9,-8.4,16
801,13418.0,-0.30000000000000004,-0.30000000000000004,-2.1,0.7000000000000001,2.7,7.2,-7.500000000000001,2.0,-3.4,16
802,13434.0,0.30000000000000004,0.2,-1.7000000000000002,1.3,3.2,7.6000000000000005,-14.700000000000001,-20.3,-1.8,16
803,13451.0,0.5,0.4,-0.6000000000000001,1.6,3.3000000000000003,8.700000000000001,-10.3,-26.700000000000003,-9.8,16
804,13468.0,0.4,0.4,-0.7000000000000001,1.6,3.3000000000000003,8.6,-7.500000000000001,-22.3,-13.8,16
805,13484.0,0.1,0.5,-1.3,1.3,3.4000000000000004,8.0,-8.0,-9.0,-20.6,16
806,13501.0,-0.5,0.5,-1.4000000000000001,0.7000000000000001,3.4000000000000004,7.9,-11.700000000000001,0.2,-26.9,16
807,13517.0,-0.9,0.4,-1.6,0.30000000000000004,3.3000000000000003,7.7,-13.4,4.2,-28.200000000000003,16
808,13534.0,-1.6,0.1,-1.7000000000000002,-0.4,2.9000000000000004,7.7,-15.8,5.7,-25.6,16
809,13551.0,-1.5,0.4,-1.2000000000000002,-0.30000000000000004,3.2,8.1,-15.5,1.6,-17.400000000000002,16
810,13569.0,-1.1,0.8,-0.8,0.0,3.5,8.5,-13.4,-1.7,-15.100000000000001,16
811,13584.0,-0.8,0.9,-0.5,0.30000000000000004,3.7,8.9,-7.0,-4.9,-14.800000000000002,16
812,13601.0,-0.4,1.3,0.0,0.7000000000000001,4.0,9.3,-5.8,-4.2,-12.9,16
813,13617.0,-0.2,1.5,0.1,0.9,4.2,9.5,-5.0,-1.9,-12.200000000000001,16
814,13634.0,-0.1,1.6,0.1,0.9,4.4,9.5,-2.4000000000000004,5.2,-13.3,16
815,13651.0,-0.5,1.3,0.4,0.5,4.0,9.700000000000001,0.4,8.200000000000001,-12.200000000000001,16
816,13669.0,-0.5,1.5,0.7000000000000001,0.5,4.2,10.100000000000001,6.3,6.7,-6.000000000000001,16
817,13684.0,-0.1,1.8,0.8,0.9,4.6000000000000005,10.200000000000001,11.1,4.800000000000001,-2.6,16
818,13701.0,0.4,2.1,1.0,1.4000000000000001,4.9,10.4,18.400000000000002,6.4,-2.1,16
819,13718.0,0.4,2.1,1.1,1.4000000000000001,4.9,10.5,18.3,9.4,-3.5,16
820,13734.0,-0.2,1.7000000000000002,1.7000000000000002,0.7000000000000001,4.6000000000000005,11.0,15.000000000000002,11.6,-4.1000000000000005,16
821,13751.0,-0.9,1.3,3.5,-0.1,4.2,12.8,13.700000000000001,3.7000000000000006,0.5,16
822,13768.0,-1.1,1.0,4.2,-0.30000000000000004,4.0,13.5,20.7,-0.5,6.5,16
823,13784.0,-1.1,0.6000000000000001,4.800000000000001,-0.30000000000000004,3.7,14.100000000000001,33.0,5.8,17.5,16
824,13801.0,-1.1,0.6000000000000001,4.800000000000001,-0.30000000000000004,3.7,14.100000000000001,33.0,5.8,17.5,16
825,13818.0,-0.4,0.7000000000000001,2.7,0.4,3.9000000000000004,11.9,50.2,42.1,24.1,16
826,13834.0,-0.7000000000000001,0.5,-0.8,0.1,3.9000000000000004,8.4,32.9,53.7,26.700000000000003,16
827,13851.0,-0.2,0.7000000000000001,-0.2,0.4,4.2,8.9,12.5,18.6,24.1,16
828,13870.0,0.0,0.4,3.8000000000000003,0.6000000000000001,3.9000000000000004,13.0,6.5,-17.0,15.299999999999999,16
829,13884.0,-0.5,-0.2,5.4,0.2,3.3000000000000003,14.600000000000001,11.700000000000001,-17.5,10.3,16
830,13901.0,-1.6,-1.6,4.4,-0.9,2.0,13.600000000000001,37.1,24.7,7.400000000000001,16
831,13917.0,-1.8,-2.1,2.7,-1.1,1.6,11.8,42.2,45.5,12.100000000000001,16
832,13934.0,-1.2000000000000002,-1.7000000000000002,-0.8,-0.7000000000000001,2.1,8.3,43.800000000000004,62.50000000000001,21.900000000000002,16
833,13951.0,-0.8,-1.5,-2.9000000000000004,-0.4,2.4000000000000004,6.1000000000000005,43.1,45.5,21.3,16
834,13968.0,-0.5,-1.7000000000000002,-3.1,-0.2,2.3000000000000003,5.9,38.900000000000006,23.400000000000002,17.8,16
835,13984.0,-0.2,-2.2,-2.5,0.1,1.9000000000000001,6.4,31.099999999999998,3.8,11.9,16
836,14001.0,-0.1,-2.3000000000000003,-2.3000000000000003,0.4,1.9000000000000001,6.800000000000001,23.3,-1.0,7.2,16
837,14018.0,0.4,-2.3000000000000003,-1.8,0.7000000000000001,1.9000000000000001,7.0,18.1,3.0000000000000004,4.6000000000000005,16
838,14034.0,0.8,-2.2,-2.0,1.0,2.0,6.9,3.9,23.1,2.3000000000000003,16
839,14051.0,1.0,-1.8,-3.1,1.2000000000000002,2.4000000000000004,5.7,-4.300000000000001,35.1,0.8,16
840,14068.0,1.0,-1.7000000000000002,-3.7,1.1,2.6,5.1000000000000005,-8.200000000000001,35.3,-0.5,16
841,14084.0,0.6000000000000001,-1.7000000000000002,-4.2,0.6000000000000001,2.5,4.7,-15.399999999999999,24.200000000000003,-2.5,16
842,14101.0,0.2,-1.9000000000000001,-2.2,0.1,2.3000000000000003,6.7,-21.200000000000003,-3.8,4.800000000000001,16
843,14117.0,0.30000000000000004,-2.2,-0.8,0.2,1.9000000000000001,8.1,-16.8,-7.8,12.6,16
844,14135.0,0.9,-1.8,-0.4,0.9,2.3000000000000003,8.5,-5.500000000000001,3.4,34.400000000000006,16
845,14151.0,2.1,-0.1,-1.6,2.1,4.0,7.4,-1.3,14.0,46.2,16
846,14168.0,2.6,0.8,-2.0,2.6,4.9,6.9,-2.6,12.200000000000001,41.4,16
847,14184.0,2.5,1.2000000000000002,-2.4000000000000004,2.6,5.300000000000001,6.5,-12.200000000000001,5.6,20.1,16
848,14201.0,0.6000000000000001,0.4,-0.8,0.7000000000000001,4.4,8.1,-27.8,0.0,2.3000000000000003,16
849,14218.0,-0.1,0.0,0.2,-0.4,3.9000000000000004,10.200000000000001,-23.1,-7.6,4.3999999999999995,16
850,14234.0,-0.30000000000000004,0.30000000000000004,1.6,-0.30000000000000004,4.2,10.600000000000001,-13.6,-10.3,8.700000000000001,16
851,14253.0,0.6000000000000001,1.0,1.3,0.7000000000000001,4.800000000000001,10.3,-0.5,-15.000000000000002,12.8,16
852,14267.0,0.8,1.2000000000000002,1.4000000000000001,1.0,5.0,10.4,0.8,-17.5,9.9,16
853,14284.0,0.30000000000000004,0.7000000000000001,1.7000000000000002,0.6000000000000001,4.5,10.700000000000001,-3.3000000000000003,-18.6,0.6000000000000001,16
854,14301.0,-0.6000000000000001,0.0,2.1,-0.30000000000000004,3.8000000000000003,11.100000000000001,-7.300000000000001,-13.4,2.6,16
855,14317.0,-0.7000000000000001,-0.2,2.0,-0.4,3.6,11.0,-7.8,-11.1,7.6,16
856,14334.0,0.1,0.1,2.9000000000000004,0.5,3.9000000000000004,11.9,-2.1999999999999997,-18.7,18.6,16
857,14351.0,1.3,0.4,2.4000000000000004,1.8,4.2,11.4,21.6,-33.6,20.3,16
858,14367.0,1.6,0.7000000000000001,1.5,2.2,4.5,10.5,26.700000000000003,-35.0,16.8,16
859,14384.0,2.4000000000000004,0.9,-1.3,3.1,4.800000000000001,7.7,18.6,-28.900000000000002,2.4000000000000004,16
860,14401.0,1.3,0.2,-2.2,2.0,4.2,6.800000000000001,-9.600000000000001,-37.800000000000004,-21.400000000000002,16
861,14417.0,0.7000000000000001,-0.4,-1.2000000000000002,1.5,3.6,7.800000000000001,-32.0,-49.5,-32.5,16
862,14434.0,-0.1,-0.9,1.9000000000000001,0.8,3.0,10.9,-41.800000000000004,-60.1,-34.2,16
863,14452.0,0.4,-0.8,3.4000000000000004,1.5,3.0,12.4,-22.3,-67.7,-31.8,16
864,14468.0,0.7000000000000001,-0.7000000000000001,2.9000000000000004,2.0,2.9000000000000004,10.8,-8.200000000000001,-67.2,-32.0,16
865,14484.0,1.0,-1.0,0.4,2.3000000000000003,2.7,9.4,8.3,-58.9,-36.2,16
866,14501.0,-0.5,-0.8,-1.2000000000000002,0.9,3.0,7.7,-4.5,-47.800000000000004,-38.0,16
867,14517.0,-0.5,-0.9,-1.6,1.0,2.8000000000000003,7.300000000000001,-13.100000000000001,-42.6,-34.6,16
868,14534.0,-0.9,-1.1,-0.8,0.7000000000000001,2.6,8.1,-24.3,-46.5,-29.1,16
869,14551.0,-0.7000000000000001,-0.7000000000000001,0.5,1.1,2.9000000000000004,9.5,-21.200000000000003,-45.3,-17.8,16
870,14568.0,-0.30000000000000004,-0.5,0.6000000000000001,1.5,3.1,9.600000000000001,-16.1,-35.8,-14.100000000000001,16
871,14584.0,-0.5,-0.1,-1.1,1.3,3.5,7.800000000000001,-9.3,-14.600000000000001,-15.6,16
872,14601.0,-1.3,-0.4,-2.5,0.5,3.2,6.5,-16.2,1.6,-17.400000000000002,16
873,14618.0,-1.3,-0.2,-3.4000000000000004,0.5,3.3000000000000003,5.6000000000000005,-22.900000000000002,8.3,-15.2,16
874,14635.0,-1.6,-0.2,-3.7,0.2,3.3000000000000003,5.300000000000001,-24.1,3.4,-15.2,16
875,14651.0,-2.1,-0.6000000000000001,-3.1,-0.30000000000000004,2.8000000000000003,5.9,-28.8,-12.9,-12.000000000000002,16
876,14667.0,-1.8,-0.4,-1.8,0.0,3.0,7.300000000000001,-31.4,-20.7,-7.699999999999999,16
877,14684.0,-0.8,0.1,0.8,1.0,3.4000000000000004,9.8,-21.900000000000002,-23.3,-1.7,16
878,14701.0,-0.6000000000000001,0.9,0.4,1.4000000000000001,4.1000000000000005,9.5,-16.2,1.7,1.0,16
879,14717.0,-0.5,1.2000000000000002,0.0,1.5,4.4,9.1,-19.200000000000003,13.4,0.6000000000000001,16
880,14735.0,-0.6000000000000001,1.5,0.2,1.3,4.6000000000000005,9.3,-27.2,26.1,-1.8,16
881,14752.0,-0.7000000000000001,1.9000000000000001,1.2000000000000002,1.1,4.9,10.4,-24.1,17.1,-3.0000000000000004,16
882,14772.0,-1.0,1.6,2.2,0.7000000000000001,4.6000000000000005,11.4,-13.3,8.4,-1.5000000000000002,16
883,14784.0,-0.8,1.7000000000000002,2.7,0.8,4.6000000000000005,11.9,-9.1,9.700000000000001,2.0,16
884,14801.0,-0.30000000000000004,2.2,3.3000000000000003,1.4000000000000001,5.1000000000000005,12.5,0.7,20.1,10.1,16
885,14818.0,0.0,2.5,3.3000000000000003,1.6,5.4,12.5,3.8,22.7,11.8,16
886,14834.0,0.5,3.0,3.3000000000000003,2.1,6.0,12.5,8.799999999999999,19.200000000000003,10.1,16
887,14851.0,0.6000000000000001,3.0,3.3000000000000003,2.1,6.0,12.5,8.799999999999999,19.200000000000003,10.1,16
888,14868.0,0.0,1.8,3.1,1.5,4.800000000000001,12.3,18.400000000000002,10.1,3.1,16
889,14884.0,-0.6000000000000001,1.0,2.1,0.9,4.1000000000000005,11.3,14.4,2.9,2.8,16
890,14901.0,-1.3,-0.2,2.4000000000000004,0.2,2.9000000000000004,11.600000000000001,-2.6,-0.6000000000000001,3.7000000000000006,16
891,14918.0,-1.3,-0.1,2.4000000000000004,-0.1,2.8000000000000003,12.700000000000001,-12.100000000000001,-3.7000000000000006,6.2,16
892,14934.0,-1.6,-0.30000000000000004,5.1000000000000005,-0.1,2.7,14.3,-17.599999999999998,-6.1000000000000005,10.5,16
893,14951.0,-1.1,-0.6000000000000001,4.6000000000000005,0.4,2.4000000000000004,13.8,4.0,34.7,19.6,16
894,14968.0,-1.2000000000000002,-0.7000000000000001,2.8000000000000003,0.2,2.3000000000000003,12.100000000000001,9.1,50.300000000000004,19.500000000000004,16
895,14985.0,-1.7000000000000002,-1.4000000000000001,0.5,-0.4,1.6,9.700000000000001,12.9,64.9,18.400000000000002,16
896,15001.0,-1.5,-1.8,-1.2000000000000002,-0.4,1.2000000000000002,8.1,15.9,57.3,24.400000000000002,16
897,15018.0,-1.0,-1.6,-1.1,0.0,1.5,8.200000000000001,18.6,45.6,28.0,16
898,15034.0,0.30000000000000004,-0.9,-0.4,1.2000000000000002,2.2,8.8,31.8,24.400000000000002,28.700000000000003,16
899,15051.0,1.5,-0.4,-0.8,2.3000000000000003,2.8000000000000003,8.5,42.400000000000006,24.400000000000002,21.3,16
900,15069.0,1.6,-0.30000000000000004,-2.5,2.3000000000000003,3.0,6.7,29.200000000000003,52.0,3.1,16
901,15084.0,1.3,-0.5,-2.9000000000000004,2.0,2.9000000000000004,6.300000000000001,16.700000000000003,61.199999999999996,-3.9,16
902,15101.0,0.30000000000000004,-0.8,-2.6,0.8,2.6,6.6000000000000005,-1.4,64.0,-12.3,16
903,15118.0,-0.30000000000000004,-1.3,-1.9000000000000001,0.1,2.2,7.300000000000001,-3.7000000000000006,54.800000000000004,-14.200000000000001,16
904,15135.0,-0.9,-2.1,-1.1,-0.7000000000000001,1.3,8.0,12.100000000000001,28.900000000000002,-2.5,16
905,15151.0,-0.8,-2.1,-0.7000000000000001,-0.6000000000000001,1.4000000000000001,8.5,28.0,14.900000000000002,13.8,16
906,15170.0,0.0,-1.5,-2.0,0.1,2.1,7.1000000000000005,35.199999999999996,15.9,28.700000000000003,16
907,15184.0,0.6000000000000001,-1.1,-2.4000000000000004,0.7000000000000001,2.5,6.7,31.6,16.5,33.7,16
908,15201.0,1.3,-0.6000000000000001,-2.9000000000000004,1.4000000000000001,3.0,6.2,18.900000000000002,12.9,37.0,16
909,15218.0,1.3,-0.5,-2.9000000000000004,1.4000000000000001,3.2,6.2,15.9,6.4,35.9,16
910,15235.0,1.1,-0.6000000000000001,-2.3000000000000003,1.2000000000000002,3.2,6.800000000000001,14.0,-10.2,33.7,16
911,15251.0,0.9,-0.5,-1.8,1.2000000000000002,3.3000000000000003,7.2,14.500000000000002,-15.8,33.5,16
912,15269.0,1.3,0.0,-1.6,1.6,3.9000000000000004,7.4,11.3,-11.8,31.8,16
913,15284.0,1.1,0.1,-1.6,1.5,4.0,7.4,9.8,-8.5,29.300000000000004,16
914,15301.0,1.1,0.2,-1.9000000000000001,1.8,4.4,7.0,5.500000000000001,-10.0,24.1,16
915,15318.0,1.2000000000000002,0.4,-1.5,1.6,4.0,7.800000000000001,4.2,-17.8,19.0,16
916,15334.0,0.9,0.1,-0.6000000000000001,1.5,4.0,8.3,-2.3000000000000003,-34.300000000000004,9.0,16
917,15351.0,1.1,-0.2,1.3,1.8,3.7,10.3,-11.3,-42.0,3.6,16
918,15369.0,1.0,-0.7000000000000001,3.9000000000000004,1.8,3.2,12.8,-11.5,-37.6,-1.0,16
919,15384.0,0.9,-0.8,3.9000000000000004,1.8,3.0,12.8,-6.6000000000000005,-26.500000000000004,-0.5,16
920,15401.0,1.1,-0.5,1.8,2.0,3.3000000000000003,10.8,3.2,-5.0,3.9,16
921,15418.0,1.5,-0.2,0.8,2.4000000000000004,3.6,9.8,3.8,-5.7,2.6,16
922,15435.0,1.8,-0.1,0.0,2.7,3.8000000000000003,9.0,2.4000000000000004,-9.3,-1.5000000000000002,16
923,15453.0,2.0,-0.30000000000000004,-1.9000000000000001,3.0,3.5,7.1000000000000005,-29.900000000000006,-31.0,-24.1,16
924,15468.0,1.9000000000000001,-0.30000000000000004,-1.2000000000000002,2.8000000000000003,3.2,9.5,-45.0,-38.800000000000004,-32.4,16
925,15487.0,1.1,-1.0,1.9000000000000001,2.3000000000000003,2.7,11.0,-63.300000000000004,-46.4,-46.4,16
926,15503.0,-0.2,-1.9000000000000001,4.0,1.1,1.6,13.100000000000001,-58.1,-40.1,-47.2,16
927,15518.0,-0.7000000000000001,-2.2,3.9000000000000004,0.6000000000000001,0.9,11.9,-47.0,-32.7,-41.800000000000004,16
928,15534.0,-0.5,-2.1,1.0,0.9,1.2000000000000002,10.200000000000001,-16.700000000000003,-10.9,-15.399999999999999,16
929,15551.0,0.6000000000000001,-1.1,-2.1,2.0,2.1,7.1000000000000005,-7.400000000000001,-12.9,-3.0000000000000004,16
930,15568.0,0.6000000000000001,-1.1,-2.1,2.7,2.6,6.300000000000001,-8.799999999999999,-20.0,-2.5,16
931,15584.0,1.6,-0.30000000000000004,-3.2,3.1,2.9000000000000004,6.0,-19.500000000000004,-40.8,-14.100000000000001,16
932,15601.0,1.6,0.0,-1.5,3.2,3.1,7.7,-29.800000000000004,-50.1,-24.200000000000003,16
933,15618.0,1.3,0.1,-0.1,3.0,3.1,9.0,-32.1,-48.800000000000004,-31.0,16
934,15634.0,0.1,-0.4,1.2000000000000002,1.9000000000000001,2.6,10.3,-30.100000000000005,-29.000000000000004,-38.1,16
935,15651.0,-0.2,0.1,0.6000000000000001,1.6,3.0,9.8,-23.700000000000003,-1.9,-35.8,16
936,15670.0,-0.5,0.0,0.0,1.1,2.9000000000000004,8.4,-16.3,6.5,-34.7,16
937,15686.0,-0.6000000000000001,0.30000000000000004,-1.3,1.1,3.1,7.9,-14.700000000000001,6.6000000000000005,-33.1,16
938,15701.0,-0.7000000000000001,0.8,-2.1,1.0,3.6,7.2,-13.8,2.6,-33.400000000000006,16
939,15718.0,-0.9,0.8,-0.5,0.8,3.6,8.8,-17.7,-4.5,-36.2,16
940,15734.0,-1.2000000000000002,0.8,0.1,0.5,3.6,9.4,-19.500000000000004,-1.3,-37.7,16
941,15751.0,-1.7000000000000002,1.1,0.5,-0.1,3.8000000000000003,9.8,-15.5,6.1000000000000005,-32.2,16
942,15768.0,-1.6,1.3,0.8,0.0,4.0,10.100000000000001,-11.9,6.3,-28.0,16
943,15784.0,-1.4000000000000001,2.0,0.4,0.1,4.7,9.700000000000001,-0.5,8.600000000000001,-19.200000000000003,16
944,15801.0,-1.3,2.4000000000000004,0.0,0.1,5.1000000000000005,9.3,0.8,11.700000000000001,-15.8,16
945,15818.0,-1.6,2.3000000000000003,0.2,-0.5,5.0,9.600000000000001,1.6,15.000000000000002,-14.4,16
946,15834.0,-1.9000000000000001,2.3000000000000003,0.6000000000000001,-0.5,5.1000000000000005,10.0,2.6,16.400000000000002,-11.6,16
947,15851.0,-2.0,2.4000000000000004,1.1,-0.7000000000000001,5.2,10.4,10.4,16.6,-5.6,16
948,15867.0,-2.3000000000000003,2.2,1.6,-1.1,5.0,10.9,14.700000000000001,11.4,2.0,16
949,15884.0,-2.4000000000000004,2.2,2.2,-1.1,5.0,11.5,16.0,7.300000000000001,6.8,16
950,15902.0,-2.4000000000000004,1.5,4.4,-1.2000000000000002,4.4,13.700000000000001,23.6,-4.800000000000001,15.000000000000002,16
951,15918.0,-2.2,1.1,4.800000000000001,-1.0,4.1000000000000005,14.100000000000001,35.1,-3.3000000000000003,23.1,16
952,15934.0,-1.9000000000000001,1.2000000000000002,3.5,-0.6000000000000001,4.3,12.700000000000001,39.400000000000006,10.700000000000001,31.099999999999998,16
953,15952.0,-1.3,1.6,2.0,-0.1,4.7,11.200000000000001,24.200000000000003,20.0,31.0,16
954,15970.0,-1.3,1.6,4.0,-0.1,4.800000000000001,13.200000000000001,-0.4,6.1000000000000005,22.900000000000002,16
955,15984.0,-1.5,1.3,5.800000000000001,-0.30000000000000004,4.5,15.0,2.3000000000000003,-0.5,19.3,16
956,16001.0,-2.6,-0.5,7.7,-1.3,2.7,16.900000000000002,29.700000000000003,-0.8,20.5,16
957,16018.0,-1.7000000000000002,-0.9,5.1000000000000005,-0.4,2.4000000000000004,14.200000000000001,60.900000000000006,30.9,39.00000000000001,16
958,16034.0,-1.1,-0.30000000000000004,2.8000000000000003,0.2,3.1,11.9,67.2,50.0,46.6,16
959,16054.0,0.1,0.0,-0.7000000000000001,1.2000000000000002,3.6,8.4,68.9,60.7,43.800000000000004,16
960,16068.0,0.2,-0.1,-1.8,1.2000000000000002,3.6,7.2,64.60000000000001,53.400000000000006,37.900000000000006,16
961,16084.0,-0.30000000000000004,-1.0,-1.5,0.6000000000000001,2.9000000000000004,7.4,53.2,30.000000000000004,26.6,16
962,16101.0,-0.30000000000000004,-1.7000000000000002,-0.2,0.6000000000000001,2.4000000000000004,8.700000000000001,47.400000000000006,14.600000000000001,23.3,16
963,16118.0,0.0,-1.9000000000000001,0.1,0.9,2.2,9.0,46.900000000000006,14.600000000000001,23.1,16
964,16135.0,0.7000000000000001,-1.6,0.8,1.6,2.6,9.600000000000001,45.1,24.400000000000002,19.9,16
965,16151.0,0.5,-1.9000000000000001,-0.4,1.3,2.4000000000000004,8.4,41.800000000000004,43.800000000000004,12.9,16
966,16168.0,-0.1,-2.5,-1.5,0.6000000000000001,2.0,7.2,38.1,49.7,10.9,16
967,16184.0,-0.30000000000000004,-2.7,-1.9000000000000001,0.30000000000000004,1.8,6.800000000000001,30.7,51.1,12.000000000000002,16
968,16201.0,-0.5,-3.0,-2.0,0.0,1.6,6.6000000000000005,27.0,41.800000000000004,21.200000000000003,16
969,16218.0,-0.1,-2.8000000000000003,-2.1,0.30000000000000004,1.8,6.5,28.700000000000003,29.900000000000006,33.900000000000006,16
970,16234.0,0.4,-2.5,-2.2,0.8,2.2,6.4,31.900000000000002,18.1,43.1,16
971,16251.0,1.6,-1.8,-2.2,2.0,2.9000000000000004,6.4,33.5,5.9,47.2,16
972,16269.0,2.0,-1.4000000000000001,-2.4000000000000004,2.5,3.5,6.1000000000000005,32.2,2.9,43.6,16
973,16285.0,2.1,-1.2000000000000002,-2.5,2.6,3.7,5.9,29.900000000000006,3.9,40.2,16
974,16301.0,2.2,-0.9,-3.0,2.8000000000000003,4.1000000000000005,5.4,17.9,9.9,29.800000000000004,16
975,16318.0,1.7000000000000002,-0.8,-3.0,2.3000000000000003,4.3,5.4,6.4,7.1000000000000005,18.5,16
976,16334.0,1.6,-0.7000000000000001,-2.5,2.2,4.3,5.9,2.0,3.8,14.0,16
977,16351.0,1.5,-0.7000000000000001,-1.9000000000000001,2.0,4.2,6.6000000000000005,1.4,-0.6000000000000001,5.8,16
978,16368.0,1.0,-1.2000000000000002,-2.5,1.6,3.9000000000000004,5.9,-1.8,1.6,0.6000000000000001,16
979,16384.0,1.2000000000000002,-1.0,-2.4000000000000004,1.8,4.1000000000000005,6.0,-8.600000000000001,-1.5000000000000002,0.1,16
980,16401.0,1.4000000000000001,-0.7000000000000001,-1.8,2.1,4.4,7.6000000000000005,-20.2,-15.8,-5.8,16
981,16418.0,1.2000000000000002,-0.9,1.2000000000000002,1.9000000000000001,4.1000000000000005,9.700000000000001,-24.9,-30.9,-13.100000000000001,16
982,16434.0,1.2000000000000002,-1.1,2.0,2.0,3.9000000000000004,10.4,-24.400000000000002,-34.1,-16.0,16
983,16454.0,1.1,-1.1,1.3,1.9000000000000001,3.7,9.8,-26.400000000000002,-23.0,-17.7,16
984,16468.0,1.5,-0.9,0.2,2.3000000000000003,3.8000000000000003,8.700000000000001,-41.2,-18.0,-22.5,16
985,16485.0,1.3,-0.9,-0.1,2.2,3.8000000000000003,8.4,-51.900000000000006,-18.8,-27.400000000000002,16
986,16501.0,1.0,-0.9,0.1,1.8,3.4000000000000004,10.200000000000001,-76.60000000000001,-36.6,-36.5,16
987,16518.0,0.7000000000000001,-0.9,3.6,1.7000000000000002,3.4000000000000004,12.3,-69.00000000000001,-45.9,-34.800000000000004,16
988,16534.0,0.7000000000000001,-0.9,3.6,1.7000000000000002,3.4000000000000004,12.3,-69.00000000000001,-45.9,-34.800000000000004,16
989,16551.0,0.30000000000000004,-0.7000000000000001,2.3000000000000003,1.4000000000000001,3.3000000000000003,11.100000000000001,-40.4,-25.3,-29.800000000000004,16
990,16569.0,0.0,-0.7000000000000001,-0.5,1.1,3.2,8.5,-31.099999999999998,0.5,-23.900000000000002,16
991,16584.0,0.1,-0.7000000000000001,-1.7000000000000002,1.2000000000000002,3.2,7.2,-31.2,3.0000000000000004,-22.1,16
992,16601.0,0.2,-0.5,-2.5,1.3,3.3000000000000003,6.4,-33.7,-11.3,-21.6,16
993,16618.0,0.6000000000000001,-0.6000000000000001,-1.3,1.7000000000000002,3.1,7.7,-30.200000000000003,-36.3,-23.8,16
994,16635.0,0.6000000000000001,-0.5,-1.2000000000000002,1.8,3.1,7.9,-28.8,-40.0,-24.8,16
995,16653.0,0.7000000000000001,-0.4,0.2,2.0,3.1,9.200000000000001,-29.600000000000005,-38.5,-29.500000000000004,16
996,16673.0,0.7000000000000001,0.1,0.0,2.0,3.5,9.1,-28.1,-22.1,-31.8,16
997,16685.0,0.8,0.4,-0.4,2.2,3.8000000000000003,8.700000000000001,-27.7,-15.9,-34.400000000000006,16
998,16701.0,0.30000000000000004,0.1,-0.8,1.6,3.5,8.3,-27.5,-4.2,-45.2,16
999,16718.0,-0.5,-0.2,-2.0,0.8,3.1,7.1000000000000005,-26.9,0.7,-47.900000000000006,16
1000,16734.0,-0.8,-0.1,-2.3000000000000003,0.5,3.2,6.9,-28.6,-1.6,-46.6,16
1001,16752.0,-0.9,0.0,-1.2000000000000002,0.30000000000000004,3.2,7.9,-28.1,-14.600000000000001,-42.6,16
1002,16768.0,-1.0,0.4,-0.6000000000000001,0.2,3.5,8.6,-25.3,-16.5,-37.7,16
1003,16784.0,-1.2000000000000002,0.5,-0.30000000000000004,0.1,3.6,8.9,-24.000000000000004,-14.4,-34.6,16
1004,16801.0,-1.1,1.3,-0.1,0.2,4.4,9.200000000000001,-22.5,-7.699999999999999,-26.500000000000004,16
1005,16817.0,-1.0,1.7000000000000002,0.1,0.30000000000000004,5.0,9.4,-19.1,-4.6000000000000005,-21.6,16
1006,16834.0,-1.0,2.0,0.1,0.1,5.1000000000000005,9.5,-17.5,-7.0,-21.0,16
1007,16852.0,-1.6,2.2,1.2000000000000002,-0.4,5.1000000000000005,10.5,-13.9,-13.6,-18.8,16
1008,16868.0,-2.0,2.1,2.0,-0.7000000000000001,5.1000000000000005,11.3,-11.700000000000001,-13.5,-16.8,16
1009,16884.0,-2.6,2.0,2.7,-1.3,4.9,12.0,-6.1000000000000005,0.1,-5.8,16
1010,16901.0,-3.2,1.6,3.7,-1.9000000000000001,4.5,13.0,1.5000000000000002,6.2,7.6,16
1011,16917.0,-2.9000000000000004,2.2,3.6,-1.7000000000000002,5.1000000000000005,12.9,19.9,5.300000000000001,26.0,16
1012,16934.0,-2.4000000000000004,2.8000000000000003,3.5,-1.2000000000000002,5.7,12.700000000000001,27.2,3.1,32.7,16
1013,16951.0,-1.6,3.5,3.4000000000000004,-0.30000000000000004,6.5,12.700000000000001,35.1,7.699999999999999,33.2,16
1014,16969.0,-1.6,3.0,2.6,-0.4,6.1000000000000005,11.8,30.7,25.6,24.7,16
1015,16985.0,-2.1,2.4000000000000004,2.5,-0.9,5.5,11.700000000000001,25.900000000000002,32.300000000000004,21.5,16
1016,17001.0,-2.6,1.3,1.5,-1.4000000000000001,4.5,10.700000000000001,20.3,34.300000000000004,23.5,16
1017,17018.0,-1.8,1.6,2.3000000000000003,-0.7000000000000001,4.9,11.5,12.3,3.1,32.800000000000004,16
1018,17034.0,-1.3,1.7000000000000002,3.4000000000000004,-0.2,5.0,12.600000000000001,14.100000000000001,-10.2,33.6,16
1019,17051.0,-0.7000000000000001,1.3,5.4,0.5,4.6000000000000005,14.5,30.299999999999997,-19.500000000000004,30.200000000000003,16
1020,17068.0,-0.6000000000000001,0.2,3.9000000000000004,0.6000000000000001,3.6,13.0,41.1,-11.000000000000002,27.1,16
1021,17084.0,-0.6000000000000001,0.1,3.9000000000000004,0.6000000000000001,3.3000000000000003,11.4,49.8,33.5,23.900000000000002,16
1022,17101.0,-0.9,-0.7000000000000001,-0.5,0.30000000000000004,3.0,8.5,44.6,47.900000000000006,21.900000000000002,16
1023,17118.0,-0.7000000000000001,-1.2000000000000002,-1.2000000000000002,0.4,2.6,7.800000000000001,38.2,33.800000000000004,20.4,16
1024,17134.0,-0.30000000000000004,-1.4000000000000001,-0.9,0.7000000000000001,2.5,8.0,36.3,24.200000000000003,19.500000000000004,16
1025,17151.0,0.1,-1.7000000000000002,-0.4,1.1,2.2,8.5,36.9,10.1,12.700000000000001,16
1026,17168.0,0.0,-2.6,-0.1,1.0,1.4000000000000001,8.8,36.3,14.0,6.5,16
1027,17184.0,-0.2,-2.9000000000000004,-0.2,0.7000000000000001,1.1,8.700000000000001,36.3,20.6,5.500000000000001,16
1028,17201.0,-0.4,-3.2,-1.6,0.4,1.0,7.300000000000001,35.4,35.4,7.1000000000000005,16
1029,17218.0,-0.7000000000000001,-3.2,-2.4000000000000004,0.1,1.1,6.4,26.6,39.2,12.5,16
1030,17234.0,-0.7000000000000001,-3.2,-2.7,0.0,1.1,6.1000000000000005,24.400000000000002,35.8,16.3,16
1031,17251.0,-0.6000000000000001,-2.8000000000000003,-2.3000000000000003,0.0,1.6,6.4,22.6,21.0,25.2,16
1032,17270.0,-0.1,-2.3000000000000003,-1.5,0.6000000000000001,2.2,7.2,32.2,-0.5,32.800000000000004,16
1033,17286.0,0.6000000000000001,-1.8,-2.0,1.3,2.7,6.7,35.0,-2.8,34.300000000000004,16
1034,17301.0,0.9,-1.5,-2.4000000000000004,1.6,3.0,6.300000000000001,30.799999999999997,-1.2000000000000002,33.800000000000004,16
1035,17317.0,1.1,-1.3,-2.6,2.0,3.6,6.0,15.2,1.6,31.900000000000002,16
1036,17334.0,1.3,-0.9,-2.3000000000000003,2.2,3.7,6.300000000000001,6.8,1.0,30.299999999999997,16
1037,17351.0,1.2000000000000002,-0.4,-1.2000000000000002,2.1,4.2,7.4,-5.0,-6.000000000000001,21.900000000000002,16
1038,17370.0,0.8,-0.30000000000000004,0.0,1.7000000000000002,4.4,8.6,-1.9,-12.5,14.4,16
1039,17384.0,0.8,-0.30000000000000004,0.0,1.7000000000000002,4.4,8.6,-1.9,-12.5,14.4,16
1040,17401.0,0.7000000000000001,0.0,-0.1,1.7000000000000002,4.7,8.5,1.0999999999999999,-1.3,13.4,16
1041,17417.0,1.1,0.5,-0.1,2.1,5.1000000000000005,8.5,-5.1,-3.2,11.2,16
1042,17434.0,1.1,0.7000000000000001,0.5,2.2,5.300000000000001,9.1,-8.3,-8.5,8.4,16
1043,17451.0,0.9,0.6000000000000001,2.0,2.0,5.2,10.600000000000001,-8.3,-18.7,1.0,16
1044,17467.0,0.8,0.0,2.1,1.9000000000000001,4.6000000000000005,10.700000000000001,-5.1,-13.9,-0.8,16
1045,17484.0,0.7000000000000001,-0.1,1.6,1.9000000000000001,4.5,10.200000000000001,-5.6,-8.600000000000001,1.2000000000000002,16
1046,17501.0,1.2000000000000002,0.4,0.5,2.4000000000000004,5.0,9.1,-11.3,-5.9,3.8,16
1047,17518.0,1.5,0.4,-1.1,2.7,4.9,7.6000000000000005,-21.8,-8.4,-4.9,16
1048,17534.0,1.5,0.5,-1.5,2.7,5.0,7.1000000000000005,-36.6,-17.8,-15.8,16
1049,17551.0,1.3,0.6000000000000001,-1.3,2.5,4.800000000000001,8.8,-61.0,-45.3,-31.8,16
1050,17567.0,0.5,-0.2,3.7,1.9000000000000001,4.0,12.5,-69.00000000000001,-62.6,-39.6,16
1051,17584.0,0.1,-0.9,5.0,1.5,3.2,13.8,-63.800000000000004,-62.199999999999996,-39.8,16
1052,17601.0,-0.7000000000000001,-1.8,4.7,0.9,2.2,13.5,-31.5,-25.1,-26.400000000000002,16
1053,17617.0,-0.4,-1.3,0.6000000000000001,1.3,2.6,9.5,-12.5,6.2,-9.5,16
1054,17634.0,-0.1,-1.0,-0.9,1.5,2.9000000000000004,8.0,-10.2,9.700000000000001,-5.9,16
1055,17651.0,0.8,-0.4,-3.0,2.3000000000000003,3.4000000000000004,5.9,-12.9,-1.2000000000000002,-7.0,16
1056,17667.0,1.0,-0.30000000000000004,-2.9000000000000004,2.6,3.5,6.0,-24.200000000000003,-27.2,-18.2,16
1057,17684.0,1.0,-0.2,-1.7000000000000002,2.6,3.5,7.300000000000001,-33.2,-35.199999999999996,-28.6,16
1058,17701.0,0.8,-0.4,-0.8,2.5,3.2,8.1,-34.900000000000006,-33.5,-33.900000000000006,16
1059,17717.0,0.0,-0.8,-0.30000000000000004,1.8,2.7,8.6,-31.3,-18.6,-41.1,16
1060,17734.0,-0.2,-0.6000000000000001,-0.9,1.5,2.9000000000000004,8.1,-27.6,-2.1999999999999997,-40.9,16
1061,17751.0,-0.6000000000000001,-0.4,-2.3000000000000003,1.1,3.1,6.7,-27.3,8.0,-41.9,16
1062,17767.0,-0.8,-0.2,-3.1,0.8,3.2,6.0,-29.300000000000004,2.4000000000000004,-43.50000000000001,16
1063,17784.0,-0.9,-0.2,-3.0,0.7000000000000001,3.1,6.1000000000000005,-29.500000000000004,-5.0,-44.4,16
1064,17801.0,-1.1,-0.6000000000000001,-1.9000000000000001,0.4,2.7,7.2,-25.3,-21.400000000000002,-43.400000000000006,16
1065,17817.0,-1.3,-0.4,-1.7000000000000002,0.30000000000000004,2.9000000000000004,7.5,-19.400000000000002,-17.3,-34.0,16
1066,17836.0,-1.1,0.2,-1.8,0.5,3.4000000000000004,7.300000000000001,-18.7,-14.900000000000002,-28.700000000000003,16
1067,17852.0,-0.6000000000000001,1.0,-1.4000000000000001,1.1,4.2,7.7,-20.8,-11.8,-22.3,16
1068,17868.0,-0.2,1.5,-0.9,1.4000000000000001,4.7,8.200000000000001,-20.900000000000002,-19.200000000000003,-19.400000000000002,16
1069,17884.0,-0.2,1.6,-0.6000000000000001,1.4000000000000001,4.7,9.3,-19.200000000000003,-22.7,-18.6,16
1070,17901.0,-0.30000000000000004,1.6,0.8,1.4000000000000001,4.7,9.9,-18.5,-20.900000000000002,-17.400000000000002,16
1071,17917.0,-0.9,1.4000000000000001,1.6,0.8,4.4,10.8,-20.0,-6.7,-14.700000000000001,16
1072,17934.0,-1.1,1.2000000000000002,1.9000000000000001,0.6000000000000001,4.2,11.3,-19.500000000000004,-1.0999999999999999,-10.600000000000001,16
1073,17951.0,-1.3,1.3,2.3000000000000003,0.4,4.3,11.5,-13.9,3.3000000000000003,0.0,16
1074,17973.0,-1.3,1.7000000000000002,3.0,0.5,4.6000000000000005,12.200000000000001,-4.800000000000001,-2.4000000000000004,9.3,16
1075,17984.0,-1.2000000000000002,1.8,3.8000000000000003,0.6000000000000001,4.800000000000001,13.700000000000001,-0.9,-6.8,12.3,16
1076,18001.0,-1.1,1.9000000000000001,5.0,0.7000000000000001,4.800000000000001,14.200000000000001,12.200000000000001,-4.0,17.5,16
1077,18018.0,-1.1,1.8,4.4,0.7000000000000001,4.7,13.600000000000001,22.3,15.8,20.8,16
1078,18034.0,-1.7000000000000002,1.4000000000000001,3.3000000000000003,0.1,4.4,12.5,23.900000000000002,26.6,22.3,16
1079,18052.0,-1.9000000000000001,1.3,2.3000000000000003,-0.2,4.3,11.5,25.0,44.9,27.7,16
1080,18067.0,-1.7000000000000002,1.6,0.30000000000000004,-0.1,4.7,9.5,19.700000000000003,46.900000000000006,33.0,16
1081,18085.0,-1.5,1.5,0.5,0.0,4.6000000000000005,9.600000000000001,10.4,23.400000000000002,28.1,16
1082,18101.0,-1.4000000000000001,1.3,1.8,0.0,4.5,11.0,6.3,4.3999999999999995,24.8,16
1083,18117.0,-1.6,0.2,5.7,-0.2,3.3000000000000003,14.9,15.8,-20.3,20.1,16
1084,18135.0,-1.7000000000000002,-0.7000000000000001,5.2,-0.1,2.5,14.3,37.5,11.1,28.8,16
1085,18151.0,-1.7000000000000002,-0.8,3.4000000000000004,-0.1,2.4000000000000004,12.5,46.1,29.600000000000005,33.800000000000004,16
1086,18168.0,-1.3,-0.6000000000000001,-0.6000000000000001,0.2,2.8000000000000003,8.5,52.900000000000006,48.9,41.300000000000004,16
1087,18184.0,-1.3,-0.7000000000000001,-0.6000000000000001,0.30000000000000004,3.0,7.1000000000000005,52.2,46.0,42.2,16
1088,18201.0,-0.6000000000000001,-0.30000000000000004,-2.9000000000000004,0.8,3.3000000000000003,6.2,44.2,18.5,37.0,16
1089,18217.0,-0.1,-0.7000000000000001,-2.3000000000000003,1.2000000000000002,3.0,6.7,35.6,1.2000000000000002,28.0,16
1090,18234.0,0.0,-1.4000000000000001,-1.6,1.3,2.4000000000000004,7.4,31.3,-1.2000000000000002,23.1,16
1091,18251.0,-0.1,-1.6,-1.4000000000000001,1.2000000000000002,2.2,7.5,18.6,12.100000000000001,12.5,16
1092,18271.0,-0.6000000000000001,-2.1,-1.6,0.8,1.8,7.300000000000001,10.9,26.500000000000004,7.9,16
1093,18285.0,-0.9,-2.3000000000000003,-2.1,0.4,1.6,6.800000000000001,8.4,30.799999999999997,10.3,16
1094,18301.0,-0.8,-2.3000000000000003,-2.2,0.5,1.6,6.7,8.1,29.000000000000004,13.100000000000001,16
1095,18317.0,-0.7000000000000001,-2.2,-2.5,0.5,1.7000000000000002,6.4,6.9,21.8,17.5,16
1096,18334.0,-0.8,-2.1,-2.2,0.30000000000000004,1.9000000000000001,6.800000000000001,4.9,16.700000000000003,22.3,16
1097,18351.0,-0.8,-2.1,-2.2,0.30000000000000004,1.9000000000000001,7.1000000000000005,5.300000000000001,13.200000000000001,25.900000000000002,16
1098,18369.0,-0.2,-1.8,-1.8,0.9,2.2,7.1000000000000005,9.0,5.300000000000001,34.400000000000006,16
1099,18385.0,0.1,-1.4000000000000001,-1.9000000000000001,1.8,3.0,6.9,11.000000000000002,0.5,39.50000000000001,16
1100,18401.0,0.9,-0.7000000000000001,-2.3000000000000003,2.1,3.2,6.6000000000000005,9.700000000000001,-1.9,39.400000000000006,16
1101,18417.0,1.3,-0.2,-2.6,2.6,3.8000000000000003,6.300000000000001,0.2,-1.8,33.300000000000004,16
1102,18435.0,1.2000000000000002,0.2,-1.9000000000000001,2.5,4.1000000000000005,7.0,-10.9,-4.9,24.3,16
1103,18451.0,1.0,0.30000000000000004,-0.7000000000000001,2.3000000000000003,4.2,8.1,-14.0,-12.3,17.5,16
1104,18467.0,0.5,0.1,-0.1,1.9000000000000001,4.0,8.8,-6.4,-13.6,13.8,16
1105,18484.0,0.6000000000000001,0.4,-0.4,2.0,4.2,8.5,-5.8,-11.9,12.6,16
1106,18501.0,0.9,0.5,-0.4,2.4000000000000004,4.4,8.5,-8.3,-14.200000000000001,11.1,16
1107,18517.0,1.1,0.9,0.7000000000000001,2.6,4.7,9.600000000000001,-22.7,-22.4,0.4,16
1108,18535.0,0.5,0.2,3.0,2.2,4.0,11.9,-30.299999999999997,-26.700000000000003,-9.9,16
1109,18552.0,0.5,-0.2,4.0,2.2,3.5,13.0,-28.6,-25.2,-11.5,16
1110,18573.0,0.5,-0.5,3.3000000000000003,2.3000000000000003,3.1,12.3,-16.8,-12.4,-9.700000000000001,16
1111,18584.0,0.7000000000000001,-0.4,2.2,2.4000000000000004,3.2,11.200000000000001,-10.9,-6.000000000000001,-7.1000000000000005,16
1112,18603.0,1.2000000000000002,-0.1,0.1,2.9000000000000004,3.4000000000000004,9.0,-15.299999999999999,-7.8,-9.600000000000001,16
1113,18617.0,1.8,0.1,-0.8,3.5,3.6,8.200000000000001,-33.300000000000004,-17.7,-20.0,16
1114,18635.0,1.6,0.1,1.1,3.4000000000000004,3.5,10.100000000000001,-61.4,-36.4,-41.7,16
1115,18651.0,1.1,-0.4,3.0,2.9000000000000004,3.0,12.0,-64.7,-39.6,-47.5,16
1116,18669.0,-0.30000000000000004,-1.3,5.300000000000001,1.6,1.8,14.4,-50.1,-33.400000000000006,-46.0,16
1117,18684.0,-0.9,-1.7000000000000002,3.9000000000000004,1.0,1.4000000000000001,13.0,-20.5,-11.8,-28.900000000000002,16
1118,18701.0,-0.7000000000000001,-1.3,1.8,1.3,1.7000000000000002,11.0,-7.9,-2.3000000000000003,-19.1,16
1119,18717.0,0.0,-0.7000000000000001,-1.2000000000000002,2.0,2.3000000000000003,7.9,0.7,7.300000000000001,-8.1,16
1120,18734.0,0.6000000000000001,-0.30000000000000004,-3.0,2.5,2.8000000000000003,6.1000000000000005,-7.9,0.6000000000000001,-9.9,16
1121,18751.0,0.9,0.0,-2.8000000000000003,2.8000000000000003,3.0,6.4,-14.100000000000001,-9.200000000000001,-13.700000000000001,16
1122,18768.0,0.5,-0.4,-1.2000000000000002,2.4000000000000004,2.6,8.0,-23.2,-26.6,-26.9,16
1123,18784.0,-0.2,-0.7000000000000001,0.2,1.8,2.2,9.3,-24.000000000000004,-26.500000000000004,-29.400000000000002,16
1124,18801.0,-0.6000000000000001,-0.9,0.30000000000000004,1.5,2.0,9.5,-21.1,-14.500000000000002,-30.200000000000003,16
1125,18817.0,-0.8,-0.5,-0.8,1.2000000000000002,2.3000000000000003,8.4,-16.3,3.7000000000000006,-26.500000000000004,16
1126,18834.0,-0.7000000000000001,-0.1,-1.8,1.3,2.7,7.4,-12.4,12.4,-28.500000000000004,16
1127,18851.0,-2.0,-0.6000000000000001,-2.5,0.0,2.2,6.7,-8.200000000000001,14.100000000000001,-27.2,16
1128,18877.0,-1.2000000000000002,0.1,-3.6,0.6000000000000001,2.9000000000000004,5.6000000000000005,-10.9,-1.9,-20.4,16
1129,18884.0,-1.2000000000000002,0.1,-3.6,0.6000000000000001,2.9000000000000004,6.2,-10.9,-1.9,-20.4,16
1130,18901.0,-1.2000000000000002,0.1,-3.1,0.6000000000000001,2.9000000000000004,7.1000000000000005,-15.5,-16.0,-17.8,16
1131,18918.0,-1.0,0.5,-1.1,0.9,3.2,8.1,-13.5,-17.200000000000003,-12.700000000000001,16
1132,18934.0,-0.5,1.1,-0.8,1.5,3.8000000000000003,8.4,-14.500000000000002,-13.5,-7.9,16
1133,18951.0,-0.30000000000000004,1.5,-0.6000000000000001,1.7000000000000002,4.1000000000000005,8.700000000000001,-16.400000000000002,-11.4,-7.300000000000001,16
1134,18969.0,0.0,2.0,0.2,2.0,4.7,9.5,-17.599999999999998,-6.000000000000001,-11.3,16
1135,18984.0,-0.2,2.0,0.30000000000000004,1.3,4.4,10.100000000000001,-17.8,-0.30000000000000004,-15.7,16
1136,19002.0,-1.0,1.7000000000000002,1.3,0.9,4.3,10.5,-17.1,4.0,-15.8,16
1137,19019.0,-1.6,1.6,1.7000000000000002,0.30000000000000004,4.2,10.9,-12.5,13.3,-10.2,16
1138,19035.0,-1.8,1.7000000000000002,2.0,0.0,4.2,11.3,-3.5,17.8,2.8,16
1139,19055.0,-1.5,2.2,2.5,0.30000000000000004,4.7,11.8,2.8,12.6,14.800000000000002,16
1140,19068.0,-1.3,2.5,3.2,0.5,5.0,12.5,5.7,8.4,19.0,16
1141,19084.0,-0.8,2.7,5.1000000000000005,0.9,5.2,14.4,15.299999999999999,5.6,23.700000000000003,16
1142,19102.0,-0.8,2.6,5.2,1.0,5.2,14.5,26.400000000000002,13.100000000000001,26.3,16
1143,19118.0,-0.7000000000000001,2.5,4.1000000000000005,1.1,5.1000000000000005,13.4,35.0,26.6,29.1,16
1144,19134.0,-0.8,2.3000000000000003,2.4000000000000004,0.9,5.0,11.700000000000001,33.1,37.1,29.400000000000002,16
1145,19155.0,-0.9,1.7000000000000002,1.1,0.7000000000000001,4.5,10.3,22.4,32.4,26.1,16
1146,19168.0,-0.9,1.7000000000000002,1.1,0.5,4.2,10.600000000000001,11.2,16.900000000000002,23.8,16
1147,19185.0,-0.7000000000000001,1.2000000000000002,4.3,0.9,4.1000000000000005,13.600000000000001,2.6,-10.5,24.8,16
1148,19201.0,-0.5,1.2000000000000002,6.0,1.1,4.0,15.3,6.9,-17.599999999999998,26.0,16
1149,19217.0,-0.1,0.6000000000000001,6.7,1.6,3.5,16.0,34.0,-0.30000000000000004,29.500000000000004,16
1150,19234.0,0.0,0.1,2.2,1.6,3.1,11.4,60.400000000000006,48.300000000000004,31.6,16
1151,19251.0,-0.30000000000000004,-0.2,-0.2,1.3,2.9000000000000004,9.0,60.300000000000004,60.8,31.900000000000002,16
1152,19268.0,-0.5,-0.4,-2.9000000000000004,0.9,2.8000000000000003,6.300000000000001,54.800000000000004,56.5,32.5,16
1153,19284.0,-0.1,-0.5,-3.0,1.2000000000000002,2.9000000000000004,6.1000000000000005,47.5,26.400000000000002,31.6,16
1154,19301.0,0.5,-0.5,-2.2,1.8,2.9000000000000004,6.9,44.7,4.9,29.200000000000003,16
1155,19317.0,1.0,-0.7000000000000001,-1.7000000000000002,2.3000000000000003,2.9000000000000004,7.300000000000001,41.5,-0.8,19.0,16
1156,19334.0,0.5,-1.6,-1.3,1.8,2.1,7.7,33.0,10.3,6.000000000000001,16
1157,19351.0,0.1,-1.9000000000000001,-1.6,1.5,1.8,7.4,29.500000000000004,19.1,2.1,16
1158,19367.0,-0.5,-2.4000000000000004,-2.3000000000000003,0.8,1.4000000000000001,6.6000000000000005,23.0,30.7,-0.1,16
1159,19384.0,-0.5,-2.4000000000000004,-3.1,0.6000000000000001,1.5,5.800000000000001,18.400000000000002,27.1,3.9,16
1160,19401.0,-0.5,-2.3000000000000003,-3.4000000000000004,0.6000000000000001,1.6,5.6000000000000005,16.5,20.7,5.6,16
1161,19417.0,0.0,-1.9000000000000001,-2.9000000000000004,1.0,2.0,6.0,13.100000000000001,3.2,7.300000000000001,16
1162,19434.0,0.4,-1.7000000000000002,-2.0,1.4000000000000001,2.3000000000000003,6.9,8.5,-6.6000000000000005,3.2,16
1163,19457.0,0.2,-1.8,-1.4000000000000001,0.7000000000000001,1.9000000000000001,7.9,8.600000000000001,-4.9,-1.7,16
1164,19468.0,-0.7000000000000001,-2.5,-0.8,0.4,1.6,8.0,9.5,-1.0999999999999999,0.4,16
1165,19485.0,-0.30000000000000004,-2.2,-1.5,0.8,1.9000000000000001,7.300000000000001,13.5,4.3999999999999995,13.700000000000001,16
1166,19501.0,0.2,-1.8,-2.1,1.3,2.3000000000000003,6.800000000000001,14.3,2.6,17.200000000000003,16
1167,19519.0,1.3,-0.7000000000000001,-2.5,2.5,3.4000000000000004,6.4,9.700000000000001,-5.4,15.000000000000002,16
1168,19534.0,1.6,-0.2,-2.1,2.8000000000000003,4.0,6.7,-2.0,-9.200000000000001,2.1,16
1169,19552.0,1.1,-0.1,-1.2000000000000002,2.3000000000000003,4.0,7.7,-10.1,-9.3,-6.1000000000000005,16
1170,19568.0,0.0,-0.8,0.5,1.2000000000000002,3.3000000000000003,9.4,-18.7,-7.1000000000000005,-17.9,16
1171,19587.0,-0.2,-0.6000000000000001,1.2000000000000002,1.0,3.4000000000000004,10.0,-17.5,-4.300000000000001,-16.3,16
1172,19601.0,-0.1,-0.2,1.2000000000000002,1.0,3.8000000000000003,10.0,-16.400000000000002,-6.1000000000000005,-14.700000000000001,16
1173,19617.0,0.5,0.5,2.1,1.6,4.4,11.0,-17.200000000000003,-20.2,-14.500000000000002,16
1174,19635.0,0.6000000000000001,0.0,3.2,1.8,3.9000000000000004,12.100000000000001,-16.8,-23.8,-19.400000000000002,16
1175,19651.0,0.5,-0.2,3.3000000000000003,1.8,3.7,12.200000000000001,-16.1,-20.1,-21.1,16
1176,19667.0,0.30000000000000004,-0.6000000000000001,2.0,1.6,3.3000000000000003,10.9,-18.0,-11.5,-23.3,16
1177,19685.0,0.30000000000000004,-0.6000000000000001,2.0,1.5,3.1,10.3,-22.900000000000002,-11.1,-23.6,16
1178,19704.0,0.7000000000000001,0.2,3.7,2.0,3.9000000000000004,12.600000000000001,-43.300000000000004,-36.3,-26.9,16
1179,19717.0,0.5,0.0,4.7,1.9000000000000001,3.7,13.700000000000001,-40.4,-38.6,-28.0,16
1180,19735.0,0.1,-0.4,5.1000000000000005,1.6,3.1,14.200000000000001,-20.0,-26.700000000000003,-22.3,16
1181,19751.0,0.1,-0.7000000000000001,3.7,1.6,2.8000000000000003,12.8,0.2,-9.4,-14.4,16
1182,19768.0,0.1,-0.9,-0.1,1.6,2.7,8.9,10.5,10.600000000000001,-5.8,16
1183,19784.0,0.30000000000000004,-1.0,-3.0,1.8,2.6,6.0,5.9,13.8,-1.0,16
1184,19801.0,0.5,-0.8,-3.6,1.9000000000000001,2.8000000000000003,5.4,0.6000000000000001,7.400000000000001,0.0,16
1185,19818.0,1.1,-0.4,-3.2,2.6,3.2,5.800000000000001,-12.6,-18.8,-6.7,16
1186,19834.0,0.7000000000000001,-0.8,-1.9000000000000001,2.2,2.7,7.1000000000000005,-18.0,-27.3,-18.2,16
1187,19851.0,0.30000000000000004,-0.9,-1.7000000000000002,1.8,2.6,7.4,-20.5,-24.1,-21.5,16
1188,19867.0,0.1,-0.9,-1.2000000000000002,1.1,2.3000000000000003,8.3,-22.6,-14.700000000000001,-26.400000000000002,16
1189,19884.0,-0.9,-0.9,-1.5,0.7000000000000001,2.5,7.5,-16.3,2.6,-23.700000000000003,16
1190,19901.0,-0.8,-0.5,-2.1,0.8,2.8000000000000003,7.0,-14.500000000000002,4.7,-22.8,16
1191,19918.0,-0.7000000000000001,0.0,-3.1,0.8,3.4000000000000004,6.0,-13.200000000000001,3.0000000000000004,-25.2,16
1192,19934.0,-1.0,0.30000000000000004,-3.4000000000000004,0.5,3.6,5.7,-18.3,0.8,-29.700000000000003,16
1193,19951.0,-1.2000000000000002,0.30000000000000004,-3.2,0.2,3.6,6.0,-23.400000000000002,-2.3000000000000003,-32.2,16
1194,19972.0,-1.7000000000000002,0.2,-1.4000000000000001,-0.30000000000000004,3.4000000000000004,7.800000000000001,-26.3,-4.800000000000001,-30.100000000000005,16
1195,19984.0,-1.5,0.9,-0.5,-0.1,4.0,8.700000000000001,-23.700000000000003,1.2000000000000002,-24.000000000000004,16
1196,20001.0,-1.4000000000000001,1.2000000000000002,-0.4,-0.1,4.3,8.8,-22.4,6.000000000000001,-21.700000000000003,16
1197,20017.0,-1.2000000000000002,1.8,-0.4,0.1,4.9,8.9,-21.8,9.3,-16.400000000000002,16
1198,20034.0,-1.0,2.0,0.7000000000000001,0.30000000000000004,5.0,10.0,-20.4,1.5000000000000002,-13.3,16
1199,20051.0,-1.0,2.1,1.3,0.30000000000000004,5.1000000000000005,10.600000000000001,-17.3,-2.8,-11.5,16
1200,20067.0,-1.2000000000000002,1.8,2.8000000000000003,0.1,4.800000000000001,12.0,-8.200000000000001,-8.1,-8.4,16
1201,20084.0,-1.7000000000000002,1.6,3.0,-0.5,4.6000000000000005,12.3,-1.0,13.6,3.9,16
1202,20101.0,-1.8,1.8,3.1,-0.6000000000000001,4.7,12.4,-0.1,21.6,10.2,16
1203,20119.0,-1.8,2.0,2.7,-0.6000000000000001,4.9,12.0,7.9,24.5,23.2,16
1204,20135.0,-1.4000000000000001,2.3000000000000003,2.5,-0.30000000000000004,5.300000000000001,11.8,19.700000000000003,4.7,36.6,16
1205,20151.0,-0.9,2.3000000000000003,2.9000000000000004,0.2,5.300000000000001,12.100000000000001,27.3,-22.1,44.8,16
1206,20172.0,-0.7000000000000001,2.3000000000000003,3.4000000000000004,0.5,5.300000000000001,12.700000000000001,31.3,-37.7,48.9,16
1207,20185.0,0.30000000000000004,1.8,5.300000000000001,1.8,5.0,14.5,42.1,-48.1,52.400000000000006,16
1208,20203.0,0.5,1.1,4.3,2.2,4.4,13.4,40.4,-3.9,40.5,16
1209,20217.0,0.1,0.5,2.8000000000000003,1.9000000000000001,3.8000000000000003,11.8,29.500000000000004,18.8,34.6,16
1210,20234.0,-1.0,-0.5,1.5,0.7000000000000001,2.9000000000000004,10.600000000000001,2.6,37.900000000000006,29.800000000000004,16
1211,20251.0,-1.2000000000000002,-0.7000000000000001,2.1,0.4,2.7,11.200000000000001,-2.3000000000000003,32.300000000000004,31.6,16
1212,20267.0,-0.9,-0.5,3.0,0.7000000000000001,2.8000000000000003,12.0,13.4,14.4,38.7,16
