,ms,accelX,accelY,accelZ,accelWithGX,accelWithGY,accelWithGZ,rotRateAlpha,rotRateBeta,rotRateGamma,interval
0,1.0,-0.4820134456420317,0.16458295169621706,0.3230886293053627,-0.25513275373121724,-2.9505539786741135,-8.972869271850586,16.190649238813407,6.640224960608594,-18.66200121827349,0.01666666753590107
1,62.0,-0.2385568271845579,0.34282617995440956,0.3823042038619518,1.2005423488341271,-2.2752394729062915,-8.958204786682128,5.709091311156967,-2.1019392772092376,-1.3220383956995627,0.01666666753590107
2,74.0,-0.20667408071160315,0.4818669863760471,0.20910393820703027,1.2315174789428711,-2.1428101935788986,-9.12968948059082,0.25689216586405367,2.1944187579107406,1.530091934233675,0.01666666753590107
3,91.0,-0.08997764643654227,0.61006198913455,-0.18463994355797766,1.3560161114014684,-2.0126254783079025,-9.522787465667724,-1.1606493499052124,6.836996734181138,4.735780389806864,0.01666666753590107
4,108.0,-0.09179141786023974,0.5754331588238477,-0.18802023364603518,1.367837189837545,-2.0485385032102466,-9.523685291290283,1.140624729362616,8.088957175552958,6.708158875867188,0.01666666753590107
5,124.0,-0.1409922327503562,0.2841998034626245,0.12738777802884577,1.330876701708883,-2.3511057380124925,-9.203161544036865,3.299964702913229,4.10004857997688,6.718402452074914,0.01666666753590107
6,141.0,-0.21398805698677897,-0.018700608816742896,0.35570378170609473,1.2566565963745115,-2.66220260848999,-8.972719634246825,1.8763234013283185,-1.7549615052260643,4.403794776330163,0.01666666753590107
7,158.0,-0.22061478165015577,-0.08249474333524703,-0.037063948503136636,1.2277763927184044,-2.725499314880371,-9.369109646606445,-1.3084574183086386,-8.27596263238603,1.4558554619184525,0.01666666753590107
8,174.0,-0.2291691133752465,0.03383972575962543,-0.34485797804296014,1.1988964813232421,-2.6011501738950606,-9.682301151275635,-2.362286024689437,-6.792313636630914,0.030300266622910393,0.01666666753590107
9,191.0,-0.2677306069597602,0.20925299128890038,-0.8897650656998157,1.1493664344787597,-2.4144024444028735,-10.232069707489012,-1.3829006105679595,-1.259369809239109,-0.8708533346840042,0.01666666753590107
10,208.0,-0.28086846708282825,0.2458437693223357,-0.977128876376152,1.1420341918945311,-2.375646305029094,-10.319158792877197,0.6916218070651706,5.588701116185852,-1.5708797962445813,0.01666666753590107
11,224.0,-0.19543240959867833,0.23976094227731226,-0.6894622735857964,1.2571056553162634,-2.386569850103557,-10.025569814300537,2.14062141324337,10.745902470235212,-1.782189627465497,0.01666666753590107
12,241.0,-0.030171850901842115,0.14338058919161556,-0.21581074236929415,1.449838742828369,-2.4881737830564377,-9.546130931854247,1.5263950943454054,11.256342997477773,-2.2412106763672055,0.01666666753590107
13,258.0,0.06711231915578246,0.14630699803233146,0.10841595105528831,1.5822678760252893,-2.4812904532834885,-9.217377116394042,-2.6453623610669688,10.495517126772652,-3.127301149233303,0.01666666753590107
14,273.0,0.1259492696583271,0.19015081593394279,0.15739304019212721,1.6668132682800292,-2.4244281638547776,-9.16784706954956,-5.8534896210606755,10.120170057350125,-2.5964951323198777,0.01666666753590107
15,291.0,0.25953707137107845,0.2361170328170061,0.08262976789176464,1.8212392753601072,-2.3588868934080005,-9.24461116027832,-7.257603625251932,8.350333147163713,-0.9971297119766411,0.01666666753590107
16,308.0,0.20965032004341483,0.17612521319091318,-0.17233751134574413,1.7905635665893553,-2.3952488311216236,-9.502885664367675,-5.251915160383102,5.386242783242451,1.0511051751709612,0.01666666753590107
17,324.0,0.13900193571597336,0.12913140682578086,-0.215630125105381,1.7290623653136192,-2.432957507269084,-9.547178395080566,-2.059419428635204,3.4902354170563896,1.2241513261661134,0.01666666753590107
18,341.0,0.09166194626167416,0.019754209522902966,-0.26081074456870557,1.6859668815612792,-2.541295132391155,-9.591920038604735,1.016823068344492,0.9545654671730026,1.8443538471444274,0.01666666753590107
19,358.0,-0.06363280647695065,0.04080459633618593,-0.22611995493769643,1.5280992095947266,-2.5273788352414965,-9.555707738494872,3.155423385923773,-2.2591298910981457,2.245758088250553,0.01666666753590107
20,374.0,-0.11443214260488747,0.07947159612178802,-0.24213410114943978,1.4718354705810546,-2.4953563880369067,-9.570821136474608,3.1484333276384997,-3.4448876567225595,2.9460763803155894,0.01666666753590107
21,391.0,-0.2428166765861213,0.11089023221433163,-0.18060615799725055,1.3410520587645471,-2.46423205871582,-9.509619356536865,1.6793171601681731,-2.652849742501184,3.3472300388565404,0.01666666753590107
22,408.0,-0.3188957076601684,0.2632873638153076,-0.14142214860022068,1.2605471740722656,-2.309207208959758,-9.471910680389403,-0.7556293240463584,0.0034441228889789295,2.581479815203251,0.01666666753590107
23,424.0,-0.33372897352427244,0.3263601983219385,-0.13644202210009096,1.2478279777526855,-2.2414213744565843,-9.46787046508789,-2.613067946010679,1.9732497620663232,2.1079088625438285,0.01666666753590107
24,441.0,-0.3796026898182928,0.5081427066221833,-0.025539514926075934,1.2050313308164478,-2.050034879247844,-9.35908392715454,-4.2064176772424275,2.5084983901480187,1.7920646936231601,0.01666666753590107
25,458.0,-0.16045272002369165,0.573174273981154,-0.07259118895828723,1.4214075981140135,-1.9666867339536547,-9.411606726074218,-6.065114067870235,0.13887684901169411,3.4476333927689047,0.01666666753590107
26,474.0,-0.2134502968482673,0.48209553443491454,-0.1880629037439823,1.3617020480833948,-2.0430019118711353,-9.5322140501827,-6.0414769175869365,-0.43117893000848884,3.6623388952243747,0.01666666753590107
27,491.0,-0.4228717765718698,0.21325053649246692,-0.35315292817950245,1.14128585774526,-2.2943933784484862,-9.703848966217041,-4.815433202133907,0.0043526981311492975,2.2154393054116897,0.01666666753590107
28,508.0,-0.3565093990005553,0.26032413009554145,-0.27725334532558915,1.1938086566649377,-2.2278043525144455,-9.635464581298828,-2.3920186919201485,-2.576803270055908,-0.30826602067568637,0.01666666753590107
29,524.0,-0.2834758731022477,0.3280450826689601,-0.2480558924138546,1.2544118861876428,-2.149693523351848,-9.611073651885986,-1.4242693588234343,-3.44327210354044,-0.6943076188737195,0.01666666753590107
30,541.0,-0.2887729565970599,0.3842585528001189,-0.2948264114171266,1.2384008087158203,-2.07831638635844,-9.663596450805663,0.012769785705279308,-2.6051472744509914,-0.06117282839307381,0.01666666753590107
31,558.0,-0.25341727331653235,0.2031827314645052,-0.009162380620837211,1.2559084083557128,-2.2509981810972093,-9.383025943756103,0.7150364959527676,-3.244201117538541,1.5591908879754564,0.01666666753590107
32,574.0,-0.37437019599229093,0.03278612505346536,0.09754501295089721,1.1194389137268066,-2.4205375861570237,-9.279027809143066,0.5650255848203065,-5.3350616144706065,-0.018927414685457365,0.01666666753590107
33,591.0,-0.570247865140438,-0.17478139736652373,0.20970774931907651,0.8975263473510742,-2.6206032085143027,-9.172934748077392,-1.4698559623348035,-8.976037385518474,-3.817938715366904,0.01666666753590107
34,607.0,-0.6058111998222768,-0.15266966493204234,0.14444588033556938,0.8399158699035644,-2.5840914870664475,-9.245359348297118,-5.372485074706752,-8.629261851167756,-6.823379471410249,0.01666666753590107
35,624.0,-0.4555392436817288,0.17347674450874329,0.008479074531793593,0.9730931911192834,-2.2177787791930137,-9.394248764038085,-10.515717411242965,-2.1542130628048723,-7.454468460151916,0.01666666753590107
36,641.0,0.004695318209379911,0.2429002632163465,0.03833703717887401,1.4311337500974535,-2.113780498449504,-9.373448552593588,-10.659807081973554,-1.4827716366118862,-3.9718019599129586,0.01666666753590107
37,658.0,-0.1359898944184184,-0.1743316077724099,-0.2652688930213451,1.2749122379027307,-2.5073273963376876,-9.68529390335083,-5.185825396200412,-3.177736760168558,-1.971770172337369,0.01666666753590107
38,674.0,-0.3855990076236427,-0.5238185607902706,-0.40463177100419995,1.0146925910949707,-2.8537385951720178,-9.827000714111328,0.6739461312668239,-3.970323650844474,-5.305525315178532,0.01666666753590107
39,691.0,-0.4592418975919485,-0.8414737668700516,-0.2998591448873281,0.9280524185180663,-3.179050745745748,-9.722254391479492,5.787868578609778,-6.626848462005948,-10.527159685650028,0.01666666753590107
40,708.0,-0.1684609621733427,-0.6515865703083574,-0.04177694849967956,1.1979986557006834,-3.005171704046428,-9.463231699371338,7.25574752134498,-11.003509031197765,-14.729185124369314,0.01666666753590107
41,724.0,0.00248743290156126,-0.475626922942698,-0.04485036459565162,1.3521253875732422,-2.838026646777242,-9.466523726654053,4.652897324889229,-9.990350359342985,-15.194706912535288,0.01666666753590107
42,741.0,0.15438026824221013,-0.29700097897723315,-0.23059330095946787,1.4909890838623046,-2.6622023162290454,-9.65342109375,2.0361342465375727,-8.386054182749234,-14.38947200562039,0.01666666753590107
43,757.0,0.22986922446861863,-0.23172551985979079,-0.3438526003926992,1.5562310791015623,-2.5984566970273852,-9.76774422302246,2.61420431873384,-5.539111381490621,-13.31579273507742,0.01666666753590107
44,774.0,0.2747923620395362,-0.38691330509260297,-0.45644612939357754,1.59453815953359,-2.767098276464641,-9.877877499389648,6.784181869537191,-3.43987835329659,-15.545840107576474,0.01666666753590107
45,791.0,0.43200946114286776,-0.355146586214751,-0.2127846725463867,1.756446192932129,-2.7531819793149825,-9.629030164337157,9.22940239900645,-0.7062511651328388,-17.88836959664824,0.01666666753590107
46,808.0,0.7770309591844677,-0.10027882182896136,0.2746896323174238,2.107944778033346,-2.5206452892027795,-9.13492679672241,8.12740857925919,-5.861433984839047,-19.939666649699827,0.01666666753590107
47,824.0,0.8149940484844148,0.056268853580206626,0.340029827234149,2.141014688464254,-2.372204786273092,-9.068188425445555,3.7933150296353624,-7.844658384414528,-19.153838017764226,0.01666666753590107
48,841.0,0.8611224701918662,0.3738715988203883,-0.0091062665194273,2.179920465441793,-2.0522794433042404,-9.418938384136556,-0.15476096085466123,-6.80447991109,-16.798870754213873,0.01666666753590107
49,858.0,0.9283530088998376,0.5821760572127997,-0.39753158361017704,2.2411223915100096,-1.8366518024168907,-9.810091664886475,0.9882056429391964,-3.3220044427043907,-10.147331158358327,0.01666666753590107
50,874.0,0.7391296830743551,0.4278464962445199,-0.3601888181656599,2.048239520263672,-1.9949682410642504,-9.772233351135254,4.553884341359785,-5.528027692014983,-9.256887080226582,0.01666666753590107
51,891.0,0.45927740729674693,0.05147942734658718,-0.1311427466481924,1.7613842338562011,-2.3828289100095628,-9.541192890930175,7.357839212642808,-4.860593132265562,-10.048726278631792,0.01666666753590107
52,908.0,0.5601258457072079,0.08844839104264975,0.06801204447448253,1.8541595481872557,-2.368613337652385,-9.337236837005614,9.242290112196617,-5.784929462832557,-10.25657576526445,0.01666666753590107
53,924.0,0.6083765202656388,0.12316899129003285,0.0964472808420658,1.892317137145996,-2.3545474028989672,-9.304765476989745,10.225553046054252,-7.58612547904579,-9.381576452393395,0.01666666753590107
54,941.0,0.5421740094311535,0.037172377313673496,0.08035480869710444,1.8110636260434985,-2.4621365477412938,-9.317184813579916,9.65616542495354,-9.197238184431214,-8.78509176330795,0.01666666753590107
55,958.0,0.5105819164678455,0.08501812433302403,-0.03933247795701027,1.757942422839254,-2.439541269573569,-9.433004318889974,8.266050320353049,-8.869572665604545,-8.382446135320174,0.01666666753590107
56,974.0,0.6109446171879768,0.13650135107189415,-0.11045827053785323,1.8417396270751951,-2.4063217215389012,-9.501388703808187,8.95938111545375,-8.427808836692815,-6.9174115394874605,0.01666666753590107
57,990.0,0.5532484342183918,-0.06325637437999249,-0.253782453367114,1.7745524160522967,-2.6270374793455002,-9.64025298461914,11.155946046867756,-6.945875499079842,-6.5924759618946815,0.01666666753590107
58,1007.0,0.5443465311646462,-0.055631870850920674,-0.25884382840991016,1.759588582611084,-2.6472385558530687,-9.638457333374022,14.232630371709387,-6.071270202746533,-5.812244669983907,0.01666666753590107
59,1024.0,0.5116805984247476,-0.16991291454732418,-0.03680792791545391,1.725471135888621,-2.807350791876018,-9.40382557067871,16.50948929945877,-4.9869618771945525,-6.579422616617141,0.01666666753590107
60,1040.0,0.5430420244373381,-0.227491535551846,-0.03731880004703998,1.7512087306700646,-2.903567771093547,-9.394099126434325,17.924596920005985,-7.146967367302419,-6.675552833430016,0.01666666753590107
61,1058.0,0.5709622970201075,-0.03086041768789291,-0.27272973042130466,1.7555483673095702,-2.767098276464641,-9.6151138671875,20.571841638519526,-11.196298804484192,-4.558384155362354,0.01666666753590107
62,1074.0,0.5500816407505422,-0.0335033334121108,-0.45251580420732496,1.7073649858336895,-2.822015277044475,-9.782857621002197,23.43255196671077,-13.708732664254606,-4.171742941260388,0.01666666753590107
63,1091.0,0.41014315483681857,-0.045669572024047374,-0.6942033306330442,1.5345336265563965,-2.8945892226070162,-10.010306778717041,27.07098007719822,-14.147789176934074,-2.189870492253747,0.01666666753590107
64,1107.0,0.37324637959413226,-0.00900426744967699,-0.7073422136694193,1.470488805212453,-2.9272105124875902,-10.005219100189208,30.1255602023384,-9.19061546225724,-1.519759138679915,0.01666666753590107
65,1124.0,0.24090631292015313,-0.08470774320960045,-0.5566945560842752,1.3163620733398944,-3.1027354216977954,-9.82520506286621,31.19106971286039,-6.3567917468469295,-1.7963474356761697,0.01666666753590107
66,1140.0,0.2863055435702205,-0.06182254218459129,-0.3672165248453617,1.3510779243469238,-3.153312931768596,-9.612719665527344,29.601800806214314,-3.4688197858006378,-1.1584762825320905,0.01666666753590107
67,1158.0,0.18729096952341495,-0.1810433803707361,-0.2030336783826351,1.249473991394043,-3.360112100164592,-9.419088606262207,24.520444007142892,1.0191569653282264,-0.9881647685258821,0.01666666753590107
68,1174.0,0.15069156979210674,-0.17776625839620827,-0.11957213584184646,1.2214916864257306,-3.4099411299556492,-9.316137350353598,19.8962146937475,4.897396325947706,-2.010594248240191,0.01666666753590107
69,1191.0,0.18441833669655025,-0.1515738325193524,0.02416296587586403,1.2734160079956054,-3.4256530783504244,-9.1554271484375,15.658116464700436,8.546946972611702,-2.223713652704337,0.01666666753590107
70,1208.0,0.21771540694683789,-0.097362642121315,0.0772936675608158,1.3415010446410625,-3.4142809127256273,-9.082703273010253,12.080327627438004,10.812890404293757,-2.73295099943592,0.01666666753590107
71,1224.0,0.19517193203158675,-0.10728051728457212,0.09185352331101894,1.3489829248290508,-3.449595387212932,-9.055169953918456,9.907978277952632,12.031325289011393,-3.7325630582890374,0.01666666753590107
72,1241.0,0.15663688806258141,-0.11536533180177211,0.2169458838790655,1.3449428556580096,-3.4778768943235274,-8.91825154647827,8.092070888040839,13.30481405976027,-5.1417454897312656,0.01666666753590107
73,1257.0,0.2073258226186037,-0.07135609420537949,0.33194764306545255,1.43008657913208,-3.4492961120054124,-8.793004872131347,6.351900477627554,11.068052611307094,-5.478493452606759,0.01666666753590107
74,1274.0,0.33160862036943434,0.08050473856180906,0.5223743533313274,1.5875053382873534,-3.3120781370967625,-8.592640120697022,4.349311637981441,5.62276924599223,-5.188488316203071,0.01666666753590107
75,1291.0,0.29633666984960433,0.20411329031288622,0.45729427065551276,1.5664062900267541,-3.1952114608213305,-8.653243350219727,2.6046522991795773,3.425686714305184,-4.061016610191196,0.01666666753590107
76,1308.0,0.15957053036168217,0.23818507126271724,0.24873276876211164,1.4460976566039025,-3.165283940069377,-8.857947592163086,1.204227344192069,4.598491453055492,-3.6103914646050193,0.01666666753590107
77,1324.0,0.13534078285992146,0.25256401748806234,0.20256080017387865,1.4386157764159142,-3.153163294164836,-8.900893584442137,0.7840888013270975,6.266282348834151,-3.310585006742364,0.01666666753590107
78,1341.0,0.22344196790009735,0.3361176222264767,0.17291735706031322,1.5484499237060545,-3.072059712927043,-8.926481614685057,0.8942282697361976,8.028456213658632,-2.285042561592116,0.01666666753590107
79,1358.0,0.25925869282111524,0.24442425791323183,0.25778642831146714,1.6147393821716307,-3.165283940069377,-8.83654941482544,0.38244446306339,7.103806548163462,-1.7029421441770125,0.01666666753590107
80,1374.0,0.2379747895129025,0.1738023232012987,0.2824275330930948,1.6108486583434045,-3.2342662908807394,-8.809913336834311,-1.0866509737155885,5.054530804219373,-1.7260531564508084,0.01666666753590107
81,1391.0,0.2710769947782159,0.1255138008505106,0.2525204706072807,1.6545429847717283,-3.2766143172666427,-8.840439992523192,-2.5457269765494077,1.7386130205608157,-1.752755994454385,0.01666666753590107
82,1408.0,0.28612478017583487,0.13202128304839134,0.125143798494339,1.6729482639037072,-3.2576103415891526,-8.971971446228027,-4.154986779679054,-0.8966482377756448,-0.905028666443839,0.01666666753590107
83,1424.0,0.285531490457803,0.16085837821513413,0.010366495713591575,1.67115261265859,-3.217207896313071,-9.09123261642456,-4.785331704688014,-0.4816315363753896,0.26802414691155796,0.01666666753590107
84,1441.0,0.1736091387167573,0.11148264514952898,-0.22124738046526907,1.562216583251953,-3.253570126287639,-9.327211117553711,-5.057576214815552,1.247824655107672,1.105119271622774,0.01666666753590107
85,1458.0,0.08282149107158183,0.019396482126414774,-0.2736895153641701,1.4830581447325646,-3.331680663189292,-9.383025943756103,-4.0312412542781715,3.1404817067841355,0.5623956951855872,0.01666666753590107
86,1474.0,0.05110314138010144,-0.04349690416008234,-0.2503022100359201,1.4636054023742675,-3.3864483184263108,-9.360729940795897,-3.0516092062946334,3.9880654941004052,-0.3929584453931404,0.01666666753590107
87,1491.0,0.1616134343661368,0.016895897482335567,-0.0662578942835331,1.5898993938170372,-3.3189617591306564,-9.176825325775146,-2.2568857470689734,3.0147985420930845,-0.663969786210374,0.01666666753590107
88,1508.0,0.19902239691466092,-0.017915011397004126,0.10061784452497959,1.6379332107543945,-3.34215558771342,-9.012523236846924,-3.0559015533011635,0.40247172496820455,-0.48731596131213273,0.01666666753590107
89,1524.0,0.1539277021691203,-0.05748626654595136,0.12943360464274883,1.5927425082884727,-3.370437094824016,-8.987833032226561,-4.736064269544243,-1.7895941928560255,-0.4871467540476162,0.01666666753590107
90,1541.0,0.1261653966270387,0.037407647374272344,-0.11339900016486644,1.562365928594768,-3.2592560629695653,-9.236979642486572,-6.5371855805634285,-0.2349442067398639,0.2429892090867869,0.01666666753590107
91,1558.0,0.11830240816697478,0.033357202939689155,-0.3028641719222069,1.560271294403076,-3.243394769231975,-9.432705628204346,-6.088700845508405,3.0192699681219155,0.8826386126534496,0.01666666753590107
92,1573.0,0.14118380979970097,0.01407411805987358,-0.27154081289768217,1.5912462783813475,-3.251026287023723,-9.40427448348999,-4.234046219321952,3.174563710412264,1.1815215542351252,0.01666666753590107
93,1591.0,0.16560323465466498,-0.04092617688924074,-0.14032032483816145,1.6243161888122557,-3.300107421056926,-9.273790493011473,-2.073279803451864,1.870654344317208,1.0527068545313292,0.01666666753590107
94,1607.0,0.20711963252201676,-0.029370471391081808,-0.06472936954200267,1.6674116725645958,-3.286939019665122,-9.198522193798421,-0.7109370484294377,-0.5185042058879976,1.4608594292591333,0.01666666753590107
95,1624.0,0.2404158990547061,-0.03150689889788628,-0.005350713378190994,1.6968901343747973,-3.289183583721518,-9.139714615520834,-0.5560206207298795,-1.5413966443619864,1.887834617957317,0.01666666753590107
96,1641.0,0.1908043114066124,-0.01627045906037092,-0.08157412135899067,1.6439187149047851,-3.2697309874936935,-9.217975666809082,-1.3310365296008198,-0.3353067129193404,1.99733599728755,0.01666666753590107
97,1657.0,0.1714651124253869,0.018300795844197273,-0.09029577247500419,1.62805712890625,-3.2278324584409592,-9.228750158801674,-3.164097726169689,2.219336355220005,2.432633984932806,0.01666666753590107
98,1674.0,0.16809753568843006,0.04188303922265768,-0.12741057438254355,1.6319475604735314,-3.19551073602885,-9.267804988861084,-5.021528610810341,4.922218514052002,2.787269146027504,0.01666666753590107
99,1691.0,0.12729527743980287,0.06321516558676958,-0.11862287229299545,1.606509460095316,-3.160944449560344,-9.261220934295654,-7.345457787224866,7.093727323382638,2.7966533990602787,0.01666666753590107
100,1707.0,0.1716014521561563,0.12187398304343224,-0.044516602596640586,1.6792330432616174,-3.0808880392879248,-9.189993434906006,-7.641588322653586,9.751857228999066,3.5966798598462186,0.01666666753590107
101,1724.0,0.18306436480432747,0.12009499067217111,0.056115854975581164,1.7097591144286095,-3.0669714498773217,-9.091681529235839,-7.263568941718291,7.176951043985128,4.076091264576237,0.01666666753590107
102,1740.0,0.14760083723515272,0.04733516714870929,0.0988221932798624,1.684171230316162,-3.1253306998655197,-9.052326839447021,-6.612927682703815,2.8143299286322714,4.388419166734818,0.01666666753590107
103,1757.0,-0.0035588615253567693,0.01603869613111019,-0.09231295751631259,1.5345336265563965,-3.140444390106201,-9.248801013183593,-4.520396350746036,0.37800836191917253,3.542485723876753,0.01666666753590107
104,1774.0,-0.015346329952776431,0.019752455957233905,-0.16927403212189673,1.5203180541992187,-3.128922002355754,-9.328857715716957,-2.9561035249039915,-0.21705538101464517,3.1876778870621,0.01666666753590107
105,1791.0,0.016715864740312097,0.08657909003943204,-0.28752281040549277,1.5527894142150878,-3.0558985594600436,-9.44916576461792,-2.1703521594833775,0.8515633330031542,3.688791790993011,0.01666666753590107
106,1807.0,0.06583820756673812,0.14805471848249435,-0.2728904739409685,1.6080056900024413,-2.990656856481731,-9.434800554656983,-1.2676295356580642,3.098099102323737,5.060976368361749,0.01666666753590107
107,1824.0,0.0850510036893189,0.1159410858631134,-0.19070903433859346,1.6325461108885704,-3.0226793036863207,-9.351751684570312,-0.8415033181293717,3.2148398418439483,6.014165979303818,0.01666666753590107
108,1841.0,0.07981441821008921,0.005652618934214115,-0.01614332554936409,1.6276082160949705,-3.1343092483520505,-9.176675688171386,0.169068833123876,1.138298302898286,6.3932261103138925,0.01666666753590107
109,1858.0,-0.05718903716504573,-0.11234276911020279,0.018556231909990308,1.4818611900329588,-3.2544679519101973,-9.14270795211792,0.283043732896416,-0.4535216260419377,5.450314653412224,0.01666666753590107
110,1874.0,-0.0140546827070415,-0.1157014318883419,0.00376841262280941,1.5207668208800256,-3.258508167211711,-9.157970987701415,0.015541641889114444,0.5443756818035366,4.912829565264173,0.01666666753590107
111,1891.0,0.06777662828341126,-0.06852028625756501,0.11693711116313933,1.6030675029478967,-3.2074817443296313,-9.04604206008911,-0.864280131381513,2.661868366969951,4.857226275891568,0.01666666753590107
112,1908.0,0.11958236497491598,-0.10193184973299503,0.3095341512054205,1.6629226905822754,-3.2347157882139084,-8.854206652069092,-3.110652136244574,3.937776945675717,5.5163630095730705,0.01666666753590107
113,1924.0,0.1171940085336566,-0.1618558648198843,0.3390554292440414,1.6608276179991661,-3.286041486303508,-8.827571158599852,-5.798148013310647,-0.40736974433547063,5.694796152110953,0.01666666753590107
114,1941.0,-0.01982026049643755,-0.12812602917551993,0.039675007784366605,1.5161280551634728,-3.2418983931943774,-9.131784407043456,-6.439856665551216,-1.2308470459868415,5.563784586093647,0.01666666753590107
115,1958.0,-0.06840352801010012,-0.04492489113658666,-0.14437398414313793,1.4598643161498008,-3.145680829454958,-9.32152430408895,-4.709088864304101,-0.03865161362627903,4.932166257691302,0.01666666753590107
116,1974.0,-0.017581980050355196,-0.009362287107110023,-0.13693711214065551,1.5093945091247558,-3.104681002807617,-9.316137934875488,-2.345793465721383,1.2307695660284443,4.353925430765784,0.01666666753590107
117,1991.0,0.08990984189733862,0.010686229187250137,0.04609364265501499,1.6190787265501916,-3.087472386114299,-9.131783822521566,-0.18368410392638101,-0.012333454011191854,4.243039870911566,0.01666666753590107
118,2008.0,0.1904217418298125,-0.0071603931486606594,0.27265666518509385,1.7088612888060508,-3.113209761700034,-8.904335249328613,-0.07308667933755945,-5.557001781361,5.722174111625303,0.01666666753590107
119,2024.0,0.1745423279136419,-0.0676519789904356,0.22204934449791908,1.6704045707702635,-3.1754590048640963,-8.958055149078369,-1.7441276512636603,-8.474007382465135,6.901666672790111,0.01666666753590107
120,2041.0,-0.12120982004627584,-0.1723082852512598,-0.1379401517033577,1.3492821269713342,-3.2779610557004806,-9.322871042522788,-2.3562884782679308,-6.098581994803298,6.504390000376789,0.01666666753590107
121,2058.0,-0.07050795294344425,-0.17271394344270227,-0.3648638242393732,1.3813047203063964,-3.2754172164365647,-9.553762449645996,-0.23961931114417898,-4.276581222378206,3.9352566058719822,0.01666666753590107
122,2074.0,0.13461173793300985,-0.0713312520250678,-0.3383545874983072,1.5777787479124963,-3.177554223577678,-9.527425646862387,1.9024311591004575,-1.8636651398055808,3.7794202904294405,0.01666666753590107
123,2091.0,0.23908479658141732,-0.05197480964809656,-0.17481997581124303,1.6807295654296874,-3.1660318358272312,-9.361478128814698,2.460445021129217,-1.6010613349698097,3.4674234390021934,0.01666666753590107
124,2108.0,0.32934432869926095,0.038325639002025125,-0.10678279689550399,1.7642273483276367,-3.0891183997556566,-9.289951354217528,3.3732793131339114,-2.8590125992956716,3.299368128577911,0.01666666753590107
125,2124.0,0.32748262648060916,0.06655979983955622,-0.08286416116952895,1.7489641666136682,-3.07101195743978,-9.264662014660239,3.8123661347778204,-5.041141499012032,3.051382315948142,0.01666666753590107
126,2141.0,0.2169094973914325,-0.007829378451406955,-0.07754442745149136,1.615936483001709,-3.1595977111265063,-9.25792890701294,6.795679212344439,-10.264190572415368,2.2054157893612842,0.01666666753590107
127,2158.0,-0.11713745604082941,-0.07222469373345375,-0.2627864285558462,1.2355576942443847,-3.2553657775327562,-9.439289682769775,13.165390262006447,-19.830296538067707,-2.449988641840162,0.01666666753590107
128,2174.0,-0.230750683478266,-0.08110621158629655,-0.33050679660737514,1.0746972702026367,-3.2974139441892505,-9.502287113952637,15.855037648661074,-23.02674139981634,-7.293783137285489,0.01666666753590107
129,2191.0,-0.41991292676627634,-0.16933160752803086,-0.3398492099702358,0.8430582595825195,-3.419667866460979,-9.505579141235351,15.8785830182774,-21.314324182434934,-12.045598676829428,0.01666666753590107
130,2208.0,-0.43576472202315925,-0.2518567460015416,0.02077390795946121,0.7842506082396954,-3.53698404006958,-9.138368461608886,9.610943596232532,-17.425306676583467,-17.47052594398354,0.01666666753590107
131,2224.0,-0.5990837181981653,-0.8285776065483689,0.19971885474622247,0.6051343965392559,-4.120420764867961,-8.959102612304687,1.9768806479404195,-16.589576682571757,-32.757436995219415,0.01666666753590107
132,2241.0,-0.7847316697549075,-0.7952768099710344,0.4220435090541839,0.4011783426146954,-4.069244704382121,-8.7455697517395,-6.372097773890104,-24.106213524549126,-42.69274627513585,0.01666666753590107
133,2257.0,0.16358458830863237,0.4581789445355534,-0.07687807249724865,1.3275848205566405,-2.7684450148984787,-9.26406404876709,-11.928068196686432,-13.630769469973497,-31.091608498166664,0.01666666753590107
134,2273.0,0.90308946137093,0.6703995534583925,-0.5552881964176893,2.0609585704527795,-2.523787240490317,-9.7545761138916,-8.110142714811046,-9.30065578620167,-11.133029908428718,0.01666666753590107
135,2290.0,0.1258075231000781,0.42936815285384655,-1.2039859134167432,1.2788029617309569,-2.751087052862346,-10.408642079925537,-1.1291396595515337,0.2579991901181246,-1.5277752194445713,0.01666666753590107
136,2307.0,-0.2400311375208199,0.18997107545286415,-0.741455495673418,0.9310450975280254,-2.9946973640441894,-9.942371306610108,2.0473005386134857,14.77404580683796,4.564569318542624,0.01666666753590107
137,2324.0,-0.2832026091188192,0.011322773525118826,-0.37967034822702406,0.9296984321594238,-3.180696613256633,-9.572616787719726,3.11277931328421,21.099830629287144,5.033835757921057,0.01666666753590107
138,2341.0,-0.06364230495765805,-0.03315232801735401,-0.04593465270102024,1.1885714866638184,-3.237409265081584,-9.229348124694823,5.344684924124331,13.921819198433372,5.703349683385925,0.01666666753590107
139,2357.0,-0.2009846368983388,-0.17494301766902207,-0.06920213104188441,1.0702081420898437,-3.4018609916135665,-9.242067321014403,7.801870664358982,2.328411488057347,3.355650594886108,0.01666666753590107
140,2374.0,-0.24489772064387796,-0.2602528184249997,-0.1833481501817703,1.0254663524352015,-3.509450428716838,-9.348459657287597,9.745303662490437,-1.2131843902366002,1.1062069792480986,0.01666666753590107
141,2390.0,-0.09978709278926252,-0.035955110478401185,-0.10186112258434295,1.164479832458496,-3.3078888687133787,-9.259724558258057,8.90497182852543,-3.239704078300322,0.11186803987764228,0.01666666753590107
142,2407.0,-0.03147080467119813,0.3665618603289127,0.04224982670843601,1.2265794380187987,-2.9290064559936524,-9.107992028045654,4.746295892920922,0.7511405557403378,1.0978910104901964,0.01666666753590107
143,2425.0,-0.12002996261194347,0.38225247367471454,0.0995277112007141,1.1444282474242151,-2.917184793035686,-9.048436261749266,-1.8612350865649372,6.2252580982449395,1.7279887680285666,0.01666666753590107
144,2441.0,-0.3646558805771172,-1.1105915904045104e-05,-0.16626608247756958,0.9189242324277758,-3.290081409344077,-9.31494024952352,-5.844452427015103,11.208592291216569,0.9786463663089404,0.01666666753590107
145,2457.0,-0.4073389841362834,-0.22409809372127054,-0.14243980121016503,0.9157821350097656,-3.494187393133342,-9.292644831085205,-7.906689308682937,15.717580091614568,0.41013207560706477,0.01666666753590107
146,2474.0,-0.3059768971152603,-0.17410013710409403,-0.06394201855659484,1.0531494552612304,-3.4253540954038497,-9.215581465148926,-7.999275937977044,16.26289044211734,0.9418064603600073,0.01666666753590107
147,2491.0,-0.23111221026703713,-0.2179679204031825,0.11214052453637123,1.1608885299682616,-3.4473508231565355,-9.042301119995116,-6.604835616084642,13.814633039788362,1.0540958375320748,0.01666666753590107
148,2507.0,-0.2739562034763396,-0.30380729799121614,0.261841256660223,1.1463736824035644,-3.5116949927732346,-8.895805905914306,-5.023678839738426,8.334752631893268,-0.24108251909129552,0.01666666753590107
149,2525.0,-0.21399258703142404,-0.3057531713619828,0.25632804619669913,1.2176011817932129,-3.502567098943889,-8.903437423706054,-4.403283792802881,5.679229724105671,-0.6154740557211082,0.01666666753590107
150,2541.0,-0.024324147786945104,-0.0725903121754527,0.1376046361386776,1.4092869522094726,-3.265241567119956,-9.023297144317626,-2.827278686638146,5.274675912018523,-0.07190118794931266,0.01666666753590107
151,2558.0,0.1708367513939738,0.07895137163996696,0.24606559537947176,1.6096517036437987,-3.111863315527141,-8.914660243988036,-1.4905954048627241,2.117577635644216,1.8322040078280326,0.01666666753590107
152,2574.0,0.19279007839635012,0.13782237054258584,0.258320096796751,1.6316484313964843,-3.0521579116269946,-8.902689235687255,-1.5261816509338426,-0.3657421159021965,0.05320845429486871,0.01666666753590107
153,2591.0,0.26914967997744677,0.2663277544245124,0.22001170119047164,1.7000325240537524,-2.924666380962729,-8.941893703350424,-1.7674077107194142,-2.9496195409475336,0.7591105327280964,0.01666666753590107
154,2608.0,0.2747036608427763,0.3224672825366258,0.061926587080955504,1.6886602122984826,-2.8646617018550633,-9.10395122822225,-3.636155791927954,-5.369539128740361,1.728082256242831,0.01666666753590107
155,2625.0,0.201040166477859,0.29271131895929575,-0.14147592461407182,1.6017207645140588,-2.885760896246135,-9.312396994781494,-4.763763674836406,-3.656480727350619,2.1751695772823525,0.01666666753590107
156,2640.0,0.1608892117448151,0.29963848787397146,-0.42019934249222274,1.5587749183654784,-2.8678043837949634,-9.59536170349121,-5.394411262602962,0.7155070319535581,2.657282108385699,0.01666666753590107
157,2658.0,0.32814825078248977,0.4127946191936731,-0.4270663056522608,1.7329530891418456,-2.7376196685239673,-9.607033436584473,-5.429600824093692,3.280310620133106,4.7619950827281965,0.01666666753590107
158,2675.0,0.3987960505880415,0.3517778404340148,-0.40340310599207874,1.8055271808348594,-2.7902921050474045,-9.585935118976234,-2.397335140415357,0.28995889922465723,7.830221072056413,0.01666666753590107
159,2691.0,0.07531418418139219,-0.035823008531332017,-0.25688977173268795,1.4755761184141039,-3.1763571227476,-9.440935696411133,-0.2952843923844309,-0.8948250041540746,9.390905637025986,0.01666666753590107
160,2708.0,-0.2326227609604597,-0.4838604982808232,-0.0035807810962200162,1.1592425163269042,-3.6260181220456955,-9.188347421264648,-0.13251611528520074,-0.26766097294678365,6.491783605603061,0.01666666753590107
161,2725.0,-0.22924451669901608,-0.5619789262279867,0.05221826301515102,1.1572972274780273,-3.7012858367368575,-9.134328246307373,-2.372133663368714,-0.9704671080561443,3.8469640311316966,0.01666666753590107
162,2741.0,-0.12603548663705585,-0.39431495965123176,-0.1238753859937191,1.258003188677877,-3.52411462162435,-9.314042423900961,-3.293777832185667,-0.32229482902449585,2.4983243964924613,0.01666666753590107
163,2758.0,-0.06958791548907757,-0.15047785397619007,-0.2696650821536779,1.3175591011047363,-3.2724244643613694,-9.462034598541258,0.12666867294287645,2.0417689391594216,1.959563343630087,0.01666666753590107
164,2774.0,0.04522475086599588,-0.0065288172468543045,-0.16253917090892792,1.4345755611144004,-3.1332614928647873,-9.35294878540039,2.7282637821179985,0.9622436670171548,2.709027834981127,0.01666666753590107
165,2791.0,0.25992636294960975,0.02825461910367012,0.060706105375289914,1.642123063659668,-3.1082720130369066,-9.127444916534424,2.1159134173642604,-3.8599913363130267,3.996656164528989,0.01666666753590107
166,2808.0,0.19188202364072202,0.18698855251073837,-0.21166823573708532,1.5503950664244592,-2.9647695510312913,-9.39813934173584,3.626704944550772,-6.663439066050175,3.5034953755563234,0.01666666753590107
167,2824.0,0.10557751275897026,0.2547831548422575,-0.3409346671193838,1.445648743792623,-2.9104508086055514,-9.525480942535399,5.365706965729161,-4.751780961711265,3.155678877687414,0.01666666753590107
168,2841.0,-0.03413797805383801,0.22952713303267955,-0.2698363470673561,1.2994529510498045,-2.9492075325012204,-9.450662140655517,4.037256516502837,2.673993233407193,0.2962762105571108,0.01666666753590107
169,2858.0,0.6869049903184176,0.6614440935865045,0.32534429927766323,2.0642507438659665,-2.51570680988729,-8.849567886352538,-6.6473296380058775,24.675803490004,5.6656461853938085,0.01666666753590107
170,2874.0,0.7960887108758091,0.5315002013340592,0.07714519900083541,2.220472109930217,-2.6264389289304613,-9.09721753605306,-9.986071245827972,16.863470683383852,9.969598537097195,0.01666666753590107
171,2891.0,0.3296345438174903,0.8998436843827367,-0.6843155583471059,1.7741034301757812,-2.246210070037842,-9.859621711730956,-0.4744743518988625,6.842933022343526,9.757394804868653,0.01666666753590107
172,2908.0,0.7750837706394493,0.8204892848998308,-0.7717612020879984,2.202665235082805,-2.3503572577327487,-9.94117362125814,11.636466930451078,-9.597973066998678,15.88896490581582,0.01666666753590107
173,2924.0,0.5078615515932441,0.6097010468676686,-0.6622697307556867,1.8897731517516076,-2.5981574218198658,-9.82580361328125,13.62807666789322,-13.377272975343997,18.855898335979102,0.01666666753590107
174,2941.0,-0.10907017718032001,-0.34325872615277764,-0.23685294587612152,1.2322656669616698,-3.581875028936565,-9.395595502471924,8.639218559430342,-8.496269530291144,20.247385454829118,0.01666666753590107
175,2957.0,-0.7590963663041591,-1.2186559515431523,-0.15091653765439986,0.5539582629881799,-4.474612972967327,-9.307609175983071,-2.4403403593072843,6.265922056355433,17.11467821086775,0.01666666753590107
176,2974.0,-1.0591942883834242,-1.2799635299429297,-0.2629027484118938,0.2750339157104492,-4.532522433361411,-9.417741867828369,-3.1339279268320963,19.85975514395797,9.287286544675016,0.01666666753590107
177,2991.0,-0.43541050175800916,-0.7243859951898455,-0.005576923349499702,0.9428665412902831,-3.9776664908811448,-9.153631497192382,2.5006240358086402,18.10777064071468,4.131311209581675,0.01666666753590107
178,3008.0,0.04961436412706971,-0.31535452792197466,0.3118430126696825,1.451185481262207,-3.5892072715207934,-8.825326594543457,9.029860983725467,-1.157756231183183,1.1999140797312058,0.01666666753590107
179,3024.0,0.19473375981003044,-0.12568623480796814,0.3919289412975311,1.5818191093444822,-3.422660910797119,-8.739135334777831,9.08193263841035,-8.218365354662605,1.4737425534159523,0.01666666753590107
180,3041.0,0.19960867237001656,0.06844634423851967,0.6249649592339992,1.5656581020079552,-3.244592162322998,-8.5034561088562,2.803074630653737,-7.129166613664896,2.838103896142382,0.01666666753590107
181,3058.0,0.16348872671872378,0.24028116675913333,0.49894905408024787,1.5140331287108362,-3.064727470342815,-8.634688287353516,-8.620235756179584,1.3110617480948232,5.829824723133874,0.01666666753590107
182,3074.0,0.09991817182302475,0.19006839834749698,0.3378694343298673,1.4525322196960448,-3.0906144835323093,-8.80422769241333,-13.128031688567416,4.333068167474681,7.285125872512498,0.01666666753590107
183,3091.0,-0.0757712802991271,0.03533084110021591,-0.009164134186506271,1.2791022369384766,-3.215562467193603,-9.16156229019165,-13.48916171923256,2.2401880689824076,7.393707097295483,0.01666666753590107
184,3108.0,-0.1272698507376015,-0.07568973949551581,-0.17493863375484942,1.2244843654356896,-3.2930741614192724,-9.339630454143881,-9.947301384551688,-0.2036190648959078,6.063451770580984,0.01666666753590107
185,3124.0,-0.1520320976808667,-0.12866641966253517,-0.19014438619315624,1.1945568446837365,-3.328388928167522,-9.361777404022217,-6.992673820838654,-0.9177624869342699,4.974250468262335,0.01666666753590107
186,3141.0,-0.1627105819530785,-0.2903542344391346,-0.16953531340658665,1.1794435928344726,-3.4778768943235274,-9.346065455627441,-5.327289712968778,-1.8875174410477347,3.6241103264398133,0.01666666753590107
187,3158.0,-0.0856735195018351,-0.24230916545540093,-0.22125731733739376,1.2497732666015624,-3.4165257690429685,-9.403376657867431,-4.0210979964738796,-0.6638495108479583,1.6948239307399233,0.01666666753590107
188,3174.0,-0.05617708364352583,-0.17743191187530755,-0.26702888843119144,1.2779051361083984,-3.343502326147258,-9.452158516693114,-3.4631838125183196,0.4231270707919694,0.8038431491498024,0.01666666753590107
189,3191.0,0.16249240915775298,0.095915365922451,-0.24873218424022198,1.4975731384277342,-3.0635303695127365,-9.43599765548706,-2.81740116588125,2.008545831819422,2.058054671461671,0.01666666753590107
190,3208.0,0.18694398271664975,0.20787614997774362,-0.13804711920917034,1.5257050079345702,-2.9466634009763597,-9.326462929534912,-2.5742515540706736,3.314292518801212,4.847284508667792,0.01666666753590107
191,3224.0,0.12402896912023424,0.09298544995039701,-0.11246201157569885,1.4628572143554686,-3.0597894294187427,-9.30147344970703,-2.296933280606874,1.5683340566748705,5.030157701053006,0.01666666753590107
192,3241.0,-0.022802637308090925,-0.07787059066593646,-0.03565758883655071,1.3109750465393066,-3.229179196874797,-9.22590645980835,-2.420405598440956,-0.8942694109537763,3.546178294896791,0.01666666753590107
193,3258.0,-0.03051394233778119,-0.056360769647359844,-0.06813187146186828,1.294814185333252,-3.201196964971721,-9.261819484710692,-3.2578252104986007,-1.9151957154421535,2.2242899499155566,0.01666666753590107
194,3274.0,0.034157851798087356,-0.07200462124198674,-0.1134656356602907,1.355417414855957,-3.2053865256160496,-9.311648806762694,-5.68426357352397,0.45841241501363705,1.7760997667684901,0.01666666753590107
195,3291.0,-0.008002689191699027,0.13025105850547553,-0.08799743240475653,1.322197866821289,-2.9869162086486813,-9.290400267028808,-5.608595322803984,5.08777675000441,2.3297495648044344,0.01666666753590107
196,3308.0,0.17942615443244575,0.15016513476520776,0.061277183261513705,1.5215151550292967,-2.951451804296672,-9.144653240966797,-4.354259683148292,3.1027792760090764,4.155950690125672,0.01666666753590107
197,3324.0,0.09745017427429556,0.07360328861027955,0.03943827641904354,1.4408604866027832,-3.0220807532712817,-9.168295982360839,-2.812228578245435,1.4201821309354163,3.8379772097312523,0.01666666753590107
198,3341.0,0.020531769766658544,-0.16523147873282432,-0.05842588548362255,1.35990654296875,-3.25910671762675,-9.267356076049804,-1.3130180636835032,-1.2275679148550007,2.2977829988283056,0.01666666753590107
199,3358.0,0.1680545733295381,-0.020222119295597075,-0.12282441563606261,1.498470964050293,-3.115005705206096,-9.332747708892821,1.3271721366344735,-2.3224790418763677,1.3820163145138546,0.01666666753590107
200,3375.0,0.22825652857497333,0.09783493580818176,-0.15861059928834437,1.550095937347412,-3.0015804015561938,-9.368211820983886,3.023723678347587,-3.6813105994177313,2.7661239475742025,0.01666666753590107
201,3391.0,0.22650398581922052,0.13092150511294603,-0.21758827343583106,1.5388731170654295,-2.9747952704831957,-9.426420848846435,3.6788137383892683,-5.293889661040592,4.306223816489238,0.01666666753590107
202,3408.0,-0.05761836849302053,-0.030282033278048036,-0.3930658363729715,1.23855044631958,-3.150170542089641,-9.599401918792724,4.134812108418129,-2.5457440520223327,4.011711182120166,0.01666666753590107
203,3424.0,-0.11584916979596017,-0.07807721915394067,-0.42191199162900445,1.1754033775329589,-3.2104744964048266,-9.624690673828125,4.720946499590066,0.2652784108652128,2.969262311226844,0.01666666753590107
204,3441.0,-0.06474456711113452,-0.01702215421050787,-0.2934954550743103,1.2280758140563963,-3.1622911879941817,-9.491662844085694,5.236709024856538,0.8474927537012382,2.3964320613410344,0.01666666753590107
205,3458.0,0.018099428053200244,0.06736848587393761,-0.15082944389283656,1.310226566259563,-3.0924101347774267,-9.344120166778564,4.210131165716798,-1.2198344331672537,2.950705754468977,0.01666666753590107
206,3474.0,-0.01887669603601098,0.0392328169748187,-0.11684066505134105,1.27042325592041,-3.127724901525676,-9.30805750427246,1.9981263782405674,0.5780354943635941,3.188614476752038,0.01666666753590107
207,3491.0,-0.11380348931252955,-0.08961626577824354,-0.023431144469976423,1.1801917808532714,-3.257161428777873,-9.213785813903808,-0.8340421902347791,4.769197944094798,2.512741645169889,0.01666666753590107
208,3508.0,-0.0025723347060382365,-0.152309453317523,-0.008738602250814437,1.303044253540039,-3.312826617376506,-9.19986893223226,-3.4875562753544522,4.2840666828217175,1.944272684512544,0.01666666753590107
209,3524.0,0.026041326968371865,-0.10940379304885864,-0.07334405315220356,1.3388074947081505,-3.2603038184568285,-9.266757525634764,-4.48277353436349,3.633869812990115,2.5491115487265605,0.01666666753590107
210,3541.0,0.02022358060032129,-0.005893149691820144,-0.2020844148337841,1.3379098152160644,-3.1465792395994066,-9.398288979339599,-3.9185380103310834,2.6281498574717137,3.196671965538538,0.01666666753590107
211,3558.0,-0.19484291927292943,-0.13063333582133055,-0.33789924494624135,1.126920793914795,-3.263296570532024,-9.536254850006102,-1.7879088436783248,3.141790968670662,1.9656187332161263,0.01666666753590107
212,3574.0,-0.27280601052790876,-0.22694325401932,-0.3064776862442493,1.0579378585815429,-3.357568260900676,-9.504232402801513,-0.7462613994345686,5.572532777759963,-0.4775976159794095,0.01666666753590107
213,3591.0,-0.09574088613837957,-0.1545338513687253,-0.013733926320075989,1.2497732666015624,-3.28484438547343,-9.209446323394776,-1.1351774400561192,5.57727805168583,-2.3290381579136956,0.01666666753590107
214,3608.0,0.10924217274636029,-0.021148294229805468,0.14506021284162998,1.4697403979979455,-3.1426889541625975,-9.051429013824462,-4.440431911038112,2.7214884479047576,-1.5045678374704545,0.01666666753590107
215,3624.0,0.06526069993972777,0.017070377266407012,0.04567863211333752,1.433677735491842,-3.090016225378215,-9.154529322814941,-6.937888019732335,4.3879487374557335,0.14024603513601722,0.01666666753590107
216,3641.0,-0.033452626138180494,0.007577157256007194,-0.1593418361723423,1.343296768951416,-3.082983258001506,-9.363872330474853,-7.224132283224284,6.236571452831419,1.4579617215037552,0.01666666753590107
217,3657.0,-0.17700389572158454,-0.12549480388909579,-0.25938100402653214,1.2095206050597131,-3.1989524009153243,-9.46816974029541,-5.297957465578158,3.9866653053205527,1.4284746209180466,0.01666666753590107
218,3674.0,-0.26439620184004303,-0.09040916972160339,-0.33702187758982177,1.1281177486144005,-3.1566046667903658,-9.547328032684325,-2.0947312932007582,3.0764653319013675,0.6927601007790355,0.01666666753590107
219,3691.0,-0.2782346114479005,-0.027709260180592537,-0.418895274156332,1.12198260686025,-3.0945053534910083,-9.62783306350708,0.8514663763334518,2.9574010474028825,-0.13342699838425862,0.01666666753590107
220,3708.0,-0.1910278910294175,0.05284136334955692,-0.3887964884907007,1.21939683303833,-3.0213325652524827,-9.593715689849853,3.7509751138572764,3.262598872398205,-1.9441339462950282,0.01666666753590107
221,3724.0,-0.11570537741109728,0.1327533967152238,-0.27207331233918663,1.3072341064453123,-2.9504040488094088,-9.472060902515054,4.234454750011683,6.050762132876746,-2.5653780711217693,0.01666666753590107
222,3741.0,0.11930135607644915,0.26155484093427656,0.1213175182044506,1.5595228141233324,-2.830993533270061,-9.07282660664022,1.5734395163577493,4.376853522035871,-1.7096108634061777,0.01666666753590107
223,3758.0,0.28202216716259715,0.3842021464377641,0.2496323479503393,1.726668163653463,-2.7073925803035497,-8.944138851928711,-1.2725234729200843,4.03669558721725,-0.3644469412808329,0.01666666753590107
224,3774.0,0.24009689623340963,0.39078094030618665,0.23589199188947677,1.6941968036375938,-2.6931773002073167,-8.958952974700928,-4.622147386359008,6.66385613447637,1.139693475757967,0.01666666753590107
225,3791.0,0.2687321852177381,0.2821358566701412,0.31903847713172434,1.7417817077636717,-2.7799671103879806,-8.88009395751953,-8.37701015851449,7.281206197702557,2.3844762420857504,0.01666666753590107
226,3808.0,0.28953984931632876,0.13736322859823702,0.21843056947886944,1.7733550960265099,-2.9016221899837253,-8.986635346874595,-10.034069546446592,4.103990879788446,2.5770574811590796,0.01666666753590107
227,3824.0,0.24328239440172908,0.10715893673151732,0.06440846702456474,1.733102580615133,-2.9071590735837813,-9.147795630645751,-10.562294178740574,2.7775783882557255,3.0518685400396826,0.01666666753590107
228,3841.0,0.20724983477294442,0.10722674127072095,-0.161123458892107,1.7093103477478027,-2.874388438360393,-9.381978480529785,-9.688878615983317,5.84109240083028,5.415111431543155,0.01666666753590107
229,3858.0,0.23096052683666346,0.026788638204336166,-0.19026012152731417,1.7473182991027831,-2.9334949995845556,-9.415646941375732,-8.035833671735892,6.854916589242313,7.489406585303824,0.01666666753590107
230,3874.0,0.15290508112311363,-0.1309375794649124,-0.16037059469819068,1.6795324645996093,-3.076698478643596,-9.388712172698973,-5.966985166951485,4.206448839980515,7.777813030554905,0.01666666753590107
231,3891.0,-0.0822191412642598,-0.48074207399934527,-0.2558697810351848,1.4513351188659667,-3.4154780135557052,-9.486575165557861,-3.1033416993985448,-0.059952145522345596,4.268558738311203,0.01666666753590107
232,3908.0,-0.22552257356643676,-0.4371458011180162,-0.5074322202652692,1.304690121050924,-3.3680428931638597,-9.739911628723144,-0.8066957136236347,-1.9158023216178153,2.101627863271767,0.01666666753590107
233,3924.0,-0.20577347861006856,-0.2621849555313587,-0.5631242968708277,1.322197866821289,-3.1938647223874925,-9.795726454925537,1.2970435318753126,1.0062577261938344,1.3351976089092386,0.01666666753590107
234,3941.0,-0.1861199529826641,-0.00782353323251009,-0.4040022409290075,1.3530230670653283,-2.946663108715415,-9.632471244701742,3.1460064760490294,5.286566417589869,0.9586655016657144,0.01666666753590107
235,3958.0,0.03136544460058212,0.07841039663106203,0.07378770526647567,1.5834649768553672,-2.8700489478513598,-9.149441644287108,3.3523787208302607,5.206613076939346,1.2628303672707784,0.01666666753590107
236,3974.0,0.16097323676645756,0.04480126475691795,0.3172340580582618,1.7202337466917932,-2.912546027319133,-8.901941047668457,2.126984300235205,1.8597734260825545,1.7310411155356218,0.01666666753590107
237,3991.0,0.29209684032276273,-0.06918079599291085,0.5355342791557312,1.8426374526977538,-3.0321064727231857,-8.68332050857544,-0.8822959826170382,-4.104225667541166,2.58187297796735,0.01666666753590107
238,4008.0,0.25930267809331414,-0.03396452118307352,0.37147418228983875,1.7922095802307128,-2.9932006957456467,-8.851513175201415,-2.990099297393849,-6.871208724846909,3.629679065047489,0.01666666753590107
239,4024.0,0.17174100675731896,0.0012736731976270674,0.17020985166728494,1.6834230422973633,-2.9511525290891525,-9.058461981201171,-3.3643014563567526,-7.217057914791443,4.69148917436027,0.01666666753590107
240,4041.0,-0.08050240047425031,-0.019443828399479387,-0.35684359939098353,1.4025534061707556,-2.9677623031064866,-9.591471125793456,0.25444527727432303,-7.354205552004361,4.1962368533977,0.01666666753590107
241,4057.0,-0.2637301391467452,-0.06336334188580513,-0.6321364582985639,1.2026374214172362,-3.0184894507810474,-9.867253229522705,3.843132721894143,-5.162811073792055,2.6111881498850447,0.01666666753590107
242,4074.0,-0.2254417634151876,-0.018937340182065963,-0.5988555354654789,1.2318167541503906,-2.986766278783977,-9.83134020462036,5.366264906806986,-1.7738646940843092,1.4242679714412592,0.01666666753590107
243,4091.0,-0.04662643435746431,0.07165799976140261,-0.29251170473396776,1.4098855026245116,-2.9135934905454515,-9.51949543838501,4.122653091035037,0.288179581585016,0.9797827390321013,0.01666666753590107
244,4108.0,-0.05752323755547404,0.05442424862682819,-0.07413608031272888,1.4016552882872522,-2.9381337653011084,-9.298331060028076,1.6759828539144432,2.2441273805862125,0.777969965686971,0.01666666753590107
245,4124.0,-0.10985825881808996,0.0352963543087244,-0.09414952529370785,1.356015965270996,-2.9584844794124363,-9.316886122894287,-0.4480170805402892,3.308313755399923,0.23871916691676534,0.01666666753590107
246,4141.0,-0.1455038649559021,0.026101532723009586,-0.16741875964403152,1.3256392394468188,-2.964469983562827,-9.390357601818442,-0.6594353943751318,1.3860434580815175,0.05772987944285848,0.01666666753590107
247,4158.0,-0.20267682776898144,0.06525836185216903,-0.1894581574946642,1.2705727473936974,-2.9230206595823165,-9.412803826904296,0.00148679344409426,2.5277770259672026,-0.22669589954342728,0.01666666753590107
248,4174.0,-0.1977070765323937,0.03618219723254442,-0.12413842084407806,1.2841899154663086,-2.952199700054526,-9.346065455627441,0.5294191683467954,4.8199385656651765,-0.12722529333959282,0.01666666753590107
249,4191.0,-0.030886136651039123,-0.0316650120690465,0.1733627627402544,1.465849966430664,-3.0204347396299243,-9.04604206008911,0.08579160492615008,3.8070586509058972,-0.10474762102875687,0.01666666753590107
250,4208.0,0.13362827985361217,-0.1196729658678174,0.33032033412456513,1.632545964758098,-3.106924982342124,-8.889221266826986,-1.0494470400282347,-0.9739167804738239,0.2628365915565068,0.01666666753590107
251,4224.0,0.15367168158143757,-0.11625965029299258,0.21740999425947666,1.6449661781311034,-3.100191582433879,-9.004443390765786,-1.4256804332172768,-3.4694910653300033,0.7288023686989581,0.01666666753590107
252,4241.0,0.09498144607320427,-0.1355509184792638,-0.1339841075539589,1.5682020874023437,-3.114257809448242,-9.360430665588378,-0.5642295476168827,-3.5609003407659303,0.886501458155062,0.01666666753590107
253,4258.0,-0.030604835491627454,-0.1950026398792863,-0.33284956034123897,1.431732446642965,-3.1739629210874436,-9.560945054626464,1.073799225740269,-2.392965740337253,-0.18120038300794258,0.01666666753590107
254,4274.0,-0.035153584837168454,-0.16041969453692434,-0.33758477216959,1.4233528869628906,-3.144334967803955,-9.564685994720458,2.3860794155499994,-1.4111402411347889,-1.2644123031155767,0.01666666753590107
255,4291.0,0.027932839803397655,-0.04721650920510292,-0.20051380451619624,1.4890437950134277,-3.040935091345012,-9.42402664718628,1.5827516255174154,0.014757344073326573,-2.230254626051682,0.01666666753590107
256,4308.0,0.1529487741343677,0.11972907996922731,0.01855447834432125,1.6202758273802698,-2.8764833648130295,-9.203161544036865,-0.6346098445371039,0.8147450915604948,-2.0796807579212238,0.01666666753590107
257,4324.0,0.2064225901685655,0.18951573290079832,0.04619184233248234,1.6774373920165002,-2.802262821087241,-9.176375828441977,-2.8297226137005413,0.5777153826071026,-0.7223457054991804,0.01666666753590107
258,4341.0,0.07505757907181977,0.18427111024558543,-0.08475392043888569,1.5459060844421386,-2.7979236228391526,-9.310451705932616,-3.1249238165153157,0.09109036429862548,-0.07277614585416188,0.01666666753590107
259,4358.0,-0.019272271224856377,0.21381430785506964,-0.27519875088334084,1.4514847564697264,-2.7636569038391112,-9.502436751556395,-1.2111303175654247,1.065221575359791,0.5343619841500632,0.01666666753590107
260,4374.0,-0.031592385224252936,0.18542495645582674,-0.2785433851361275,1.4407107028685509,-2.7928359443113204,-9.50527986602783,1.5232382662883903,0.4900861366291018,0.7704249545316341,0.01666666753590107
261,4391.0,-0.013113164073228835,0.08819792341291904,-0.15602759705781935,1.460163737487793,-2.898030887493491,-9.380033191680907,3.3064585052666184,-0.0004897192274046252,0.6876545877353039,0.01666666753590107
262,4408.0,0.0919072993248701,0.04401157568395137,0.001699205133318901,1.5677531745910644,-2.948309414617717,-9.219920955657958,3.245652319293757,0.1951889706138857,0.7805958532577235,0.01666666753590107
263,4424.0,0.1763141598917544,0.03259177152514457,0.08679390183389186,1.6506522609435021,-2.964769843292236,-9.133430420684814,2.115007136638764,-1.5036419199510946,1.6703202002056794,0.01666666753590107
264,4441.0,0.17961407821998,-0.04930588269978761,0.15427636947631834,1.6415245132446288,-3.0463220450803634,-9.068038787841797,0.46010149945104006,-3.8844122508035843,2.4222721610750737,0.01666666753590107
265,4458.0,-0.04443623083680868,-0.2061363205730915,-0.028895255094766616,1.4059947787962852,-3.199102330780029,-9.254337604522705,-0.544512659112907,-3.3310418501933756,1.6909222918982594,0.01666666753590107
266,4474.0,-0.13918328363224863,-0.26258155363351104,-0.146488784340024,1.304989542388916,-3.2529715758726,-9.373748412322998,-0.6488357945569182,-1.0181139740976244,0.5026489889468708,0.01666666753590107
267,4491.0,-0.17313538372516632,-0.335052038821578,-0.26330197686254975,1.2741640498839317,-3.3233012496396896,-9.490765018463135,0.32514824727197444,3.0102641502578424,-0.2938655273060665,0.01666666753590107
268,4507.0,-0.1662899017445743,-0.4146849629849195,-0.119343587782979,1.295412735748291,-3.4056019317075608,-9.343671253967285,1.8507067768461856,3.980174064288102,-1.2149470059292866,0.01666666753590107
269,4524.0,-0.155658033093065,-0.4341515877380967,0.04498538915216922,1.3144167114257812,-3.431489529418945,-9.175927500152588,3.4715209121739665,0.1656557929317059,-2.3072998002196603,0.01666666753590107
270,4541.0,-0.07716273465752602,-0.2841083257868886,0.1865384706556797,1.3874397159300744,-3.2960672057554126,-9.030479749298095,4.306797125492697,-4.818228883938557,-3.200698788941083,0.01666666753590107
271,4558.0,-0.03416866545304656,-0.138183897331357,0.13697452154159545,1.4155717315673828,-3.161992205047607,-9.07851342010498,3.46214455654742,-5.892661609724345,-3.294838432497723,0.01666666753590107
272,4574.0,0.013393880710750818,-0.06650251669436692,0.03097381493449211,1.4516343940734862,-3.098246293585002,-9.183708655548095,2.5333594249532188,-4.010974802350274,-3.028772255361284,0.01666666753590107
273,4591.0,-0.05961597205102443,-0.14930501080453396,-0.047129415443539616,1.3676876983642576,-3.190273419897258,-9.260472746276855,0.953436351525835,-2.8260684624945847,-3.783738250645358,0.01666666753590107
274,4608.0,-0.1380361594237387,-0.13011106551289559,0.012045242580771446,1.284339406939596,-3.176806035558879,-9.200168207439779,-0.735848829405737,-2.5872075691525414,-4.920899433768543,0.01666666753590107
275,4624.0,-0.1112006133377552,-0.06632394525706768,0.0473608861118555,1.3084309150144458,-3.109768389074504,-9.166350693511962,-2.5003822044233392,-2.898417881608179,-5.4933994866966644,0.01666666753590107
276,4641.0,-0.08292685114219785,0.015893734702467917,-0.03134089468121529,1.3356652511596678,-3.0189383635923264,-9.248052825164795,-3.128895571517678,-1.2818567129774951,-5.213322030251591,0.01666666753590107
277,4658.0,-0.27299554175063967,-0.20158347957432268,-0.020660510712862012,1.1480198421753942,-3.2282813712522387,-9.239673703876138,-2.7030691352605256,-1.219363043392817,-6.684528128886236,0.01666666753590107
278,4674.0,-0.3622853520534932,-0.29479134010374547,0.010178279665112495,1.0606313354492187,-3.314622268621623,-9.210793061828612,-1.9035039256869726,-2.0859820343173836,-9.103849007909629,0.01666666753590107
279,4691.0,-0.473801899472624,-0.32244360940009353,0.1273123747050762,0.9466074813842773,-3.3330276938840746,-9.09706848297119,-3.141479981620015,-5.336622739582777,-12.128369470512581,0.01666666753590107
280,4708.0,-0.6978922482788562,-0.38340778118968005,0.09310849180817604,0.716315209197998,-3.379714626257121,-9.136872085571289,-5.907901896196759,-6.398961761669411,-14.298053338674356,0.01666666753590107
281,4724.0,-0.8713834597043693,-0.4491913359597325,-0.06908171953260898,0.5410892829343676,-3.422660326275229,-9.306710765838622,-8.164476869658497,-4.208666090139831,-16.566692133757627,0.01666666753590107
282,4741.0,-1.204389233520627,-0.5384595189526676,-0.31453999666869636,0.21877032282724976,-3.4760815353393553,-9.561992517852783,-8.512327305029846,-0.4562236595497653,-20.93003212652063,0.01666666753590107
283,4757.0,-1.3510324777700007,-0.5894605151325464,-0.2541062784940004,0.08813654861450194,-3.4994247092649338,-9.507823705291747,-8.545668873463262,0.5183548488607566,-24.597790776851408,0.01666666753590107
284,4774.0,-1.3031791319660841,-0.646685208132863,-0.13368132521510123,0.15786767196655271,-3.5266587531492113,-9.393350938415526,-9.042721376158953,1.5856649146418373,-27.575819849321373,0.01666666753590107
285,4791.0,-1.2951954397357999,-0.8028133429557085,0.15592238311767578,0.20006547622680662,-3.635295653478801,-9.112930068969726,-11.56884635012066,1.4670946449194142,-31.65422825557354,0.01666666753590107
286,4808.0,-1.2619985419243573,-0.9284849647164344,0.34221477005779743,0.25737667846679685,-3.717446697942912,-8.935908783721922,-13.45838830192707,-1.931373445378152,-35.30115653648307,0.01666666753590107
287,4824.0,-1.3073105326823888,-0.9387178971782326,0.29765900449454785,0.23253669011220335,-3.678540920965373,-8.991723025402425,-14.436222942941836,-2.9899987655470026,-38.714140593035914,0.01666666753590107
288,4841.0,-1.3545936773829161,-0.8689099091976881,0.032329321196675295,0.2150292366027832,-3.541323238317668,-9.271695566558837,-12.357415595460727,-3.0866275861692887,-43.355151681222026,0.01666666753590107
289,4858.0,-1.1071950798340142,-0.6577221504539251,-0.09350947382450103,0.48347909774780273,-3.2870892417907713,-9.406219772338867,-7.5004578313809045,-5.6218706492295505,-45.65436411057757,0.01666666753590107
290,4874.0,-0.9635391808323561,-0.5651058260768652,-0.05909925470054149,0.6404487979613244,-3.162889446148276,-9.37838717803955,-2.7689492980130606,-8.90644971070709,-46.14460093825524,0.01666666753590107
291,4891.0,-0.7161956744715571,-0.2599465289548039,-0.022189035454392433,0.8930372192382812,-2.8314424460813403,-9.347861106872559,2.001236035303627,-13.808707850683376,-45.273755234173194,0.01666666753590107
292,4908.0,-0.6057299512796104,-0.1683104477867484,-0.06390870080888271,0.9937433265686034,-2.728940687505901,-9.394248764038085,4.3767395432540965,-18.24025752759271,-43.790876769133824,0.01666666753590107
293,4924.0,-0.629547610849142,-0.16765958266258238,-0.07719312979578971,0.952293564196676,-2.722206995336711,-9.412205276489257,5.0811279877342255,-19.604628795437776,-41.91611278537038,0.01666666753590107
294,4941.0,-0.5452981328010559,-0.08726093482375144,-0.12419628851115704,1.0085574493408203,-2.6366142859861252,-9.465326625823973,4.808553920979234,-20.20988771628575,-38.0207227130233,0.01666666753590107
295,4958.0,-0.3147162300184369,0.0737473732560873,-0.25214813016355037,1.2135608203612267,-2.4724618346616625,-9.598354455566406,4.873286611951207,-19.830165056926184,-34.18142898432952,0.01666666753590107
296,4974.0,-0.22706103518009185,0.08046820594370364,-0.303964242118597,1.2764086139403283,-2.465279229681194,-9.654318919372558,5.374152494637881,-17.523540164773884,-30.746765907351058,0.01666666753590107
297,4991.0,-0.08397796763032675,-0.11526567081958054,-0.23969898295700548,1.391479931231588,-2.6650454307004807,-9.593416414642334,6.397891129517012,-16.608853183956825,-29.341276900702518,0.01666666753590107
298,5008.0,0.11009849731475115,-0.34847236914783714,-0.057660161808133124,1.564760422515869,-2.902221032659709,-9.413552014923095,5.693316562381999,-16.1927461068886,-29.044891086953566,0.01666666753590107
299,5024.0,0.16916618783324955,-0.3929220439881086,-0.028549218136072158,1.606060255023092,-2.947112021526694,-9.387065574535727,3.519229143196271,-13.764112691818717,-29.021285953182005,0.01666666753590107
300,5041.0,0.22281112265065312,-0.4280439185127616,-0.028479075509309767,1.6472107421875,-2.971952448272705,-9.391704924774169,-0.8863310235909291,-9.261782618314188,-28.838595468357088,0.01666666753590107
301,5058.0,0.2710886852160096,-0.2729384047359228,-0.1263631111562252,1.6964415138244628,-2.8009166671752928,-9.493757770538329,-3.369557927253312,-5.0971400855828515,-27.63377741952352,0.01666666753590107
302,5074.0,0.3070283058643341,-0.277350668220222,-0.16993921803236006,1.7425297496519982,-2.7852041342586276,-9.541192306408286,-4.545431555375071,-1.5653011325182675,-26.463410844863493,0.01666666753590107
303,5091.0,0.23768369761183855,-0.41456776634603737,-0.14774083022773266,1.6937478908263146,-2.893991256713867,-9.523386016082764,-4.885721825108861,-0.13083857013223535,-25.811646873504195,0.01666666753590107
304,5108.0,0.14580460146814583,-0.5334504586189985,-0.10033084427714348,1.6165350334167479,-2.990058306066692,-9.479691835784912,-5.79514529139678,-1.5851993945612186,-26.452941872413156,0.01666666753590107
305,5124.0,0.09028846595138311,-0.4792923135824501,-0.18304945949614046,1.5732897659301757,-2.909403637640178,-9.567379471588135,-7.2471790490312,-1.7524494897153804,-26.220220251917898,0.01666666753590107
306,5141.0,-0.010760901858657598,-0.3028900370158255,-0.5716343510627746,1.4935329231262207,-2.694075125829875,-9.962572383117676,-8.292836614730547,3.457834066850907,-23.168787136437803,0.01666666753590107
307,5158.0,-0.17596037801802158,-0.2640529413603246,-0.786295923396945,1.3593078464232384,-2.626887695611268,-10.179396686443686,-7.589300663236199,10.798476997597739,-19.896699637178568,0.01666666753590107
308,5174.0,-0.20937603314667938,-0.31561741664186116,-0.6571738689213991,1.3699322624206542,-2.6547205821715294,-10.04891328048706,-5.498097803071987,15.12275428472379,-16.666370206957502,0.01666666753590107
309,5191.0,-0.18143471777588127,-0.4384120216615498,-0.08996259499788284,1.4564227973937987,-2.7554265433713794,-9.477147996520996,-3.2918124452519955,12.561942195062175,-11.429224476880906,0.01666666753590107
310,5208.0,-0.3434488418973982,-0.6999738768585025,0.2400555413097143,1.3256393855772912,-3.005919892065227,-9.144353965759278,-2.117892891563095,8.095328034501287,-9.016138279909264,0.01666666753590107
311,5224.0,-0.47144773756191133,-0.7852351622976362,0.2515098322600126,1.2201450210571287,-3.0841803588315844,-9.130587306213378,-0.47599620342330595,6.147389245951739,-7.896711256079194,0.01666666753590107
312,5241.0,-0.43258331550806756,-0.7697678363136947,0.2566132928788662,1.2792518745422363,-3.068318772833049,-9.121908325195312,2.9587798918415786,3.0070712502642727,-5.862475588687474,0.01666666753590107
313,5258.0,-0.2535293553888798,-0.6064040511488914,0.35521044523119927,1.4643535903930662,-2.912695811053365,-9.020304392242432,5.172931279707898,-0.804096293035916,-3.9408509576890456,0.01666666753590107
314,5274.0,-0.125381552772969,-0.5143994289293885,0.3886562032371759,1.5882535263061524,-2.8332380973264573,-8.984541004943846,5.827335546068228,-3.284842664090821,-0.7566526784830967,0.01666666753590107
315,5291.0,-0.05769347955584526,-0.42424730270877475,0.5070762464344502,1.6415245132446288,-2.7636567577086386,-8.863633821105957,6.272415431822,-5.150398058749203,4.266146400873719,0.01666666753590107
316,5308.0,-0.030787790843099353,-0.445500518617779,0.5252250665873289,1.6458638576231897,-2.8080989798948166,-8.843731435284019,7.427551538406543,-8.41440544422031,7.19809218701361,0.01666666753590107
317,5324.0,-0.06854892783015966,-0.4673594453349709,0.4858166007846594,1.577928385516256,-2.856581563512981,-8.881739971160888,8.733294169963512,-10.669666460040467,8.403229547190877,0.01666666753590107
318,5340.0,-0.1361525376342237,-0.44699704078584906,0.4641185637176037,1.460163737487793,-2.877530828039348,-8.901492134857177,8.56140136044274,-14.606321974031832,8.733543471868218,0.01666666753590107
319,5358.0,-0.011950111643224954,-0.17848492805957794,0.2111678849995136,1.539920580291748,-2.6361653731748462,-9.15482859802246,7.164560227057079,-16.969943087260596,10.226650998963331,0.01666666753590107
320,5374.0,0.023126900826394556,-0.047804245965182776,0.03050678194463253,1.5257050079345702,-2.527079852294922,-9.337835387420654,5.4295419137121,-17.570492592675844,12.15125828819494,0.01666666753590107
321,5391.0,0.04058788484558463,0.027867373351752756,-0.32269875320494174,1.4761749610900878,-2.4765020499631762,-9.694870709991454,3.8314355960536726,-17.76299805933807,13.062350028187634,0.01666666753590107
322,5409.0,0.22513649685829876,0.1304980190038681,-0.699996527081728,1.6105493831358848,-2.391657236370444,-10.07494963901937,5.111968426270949,-16.692700586207902,14.496463503874056,0.01666666753590107
323,5424.0,0.29633447789251804,0.1439937526538968,-0.8376765665441751,1.6323964732848106,-2.3997376669734716,-10.21396355743408,7.955295496137686,-14.756314635752606,16.55108685905144,0.01666666753590107
324,5441.0,0.14821297778412698,-0.016824001289904116,-0.9807587573111056,1.4229036818906664,-2.6017484320491553,-10.354323045238852,12.899686511782841,-12.992851145835463,17.157693034713198,0.01666666753590107
325,5458.0,0.10524170493334531,-0.012854220876097678,-1.195125730612874,1.3429974937438964,-2.6417019645139574,-10.561422073364257,18.458507684784003,-7.098604932223674,17.094699907545465,0.01666666753590107
326,5474.0,0.13343553376048803,0.004725567217171192,-1.217360358774662,1.3524246627807617,-2.6831515807554123,-10.569352866363525,25.38201943697393,1.2147995165318966,16.102240977744053,0.01666666753590107
327,5491.0,0.2844146883223206,0.05688450126051903,-0.5942535946279763,1.5002665422301737,-2.731334596905112,-9.917231604656576,31.237750640742842,2.995507313112618,13.797993845196565,0.01666666753590107
328,5508.0,0.5036943489111959,0.11272533868700266,0.49202188516557216,1.7081132469177245,-2.755576180975139,-8.808118270111084,30.096101596448136,-5.505453916808091,12.119176035889744,0.01666666753590107
329,5524.0,0.4602183414086699,0.07380845579355955,0.896144537603855,1.6277578536987303,-2.8624174300596117,-8.387486965942383,22.123430099061935,-18.29113219162555,8.268037905401522,0.01666666753590107
330,5541.0,0.2735361514333635,0.02287234154343605,0.7167202828675509,1.3608042955260724,-2.9575869460508226,-8.562562962341309,3.653578323840187,-22.812944525963893,3.161508230700608,0.01666666753590107
331,5558.0,0.2659804022915661,0.6609682927682995,-0.7093786879330873,1.3115735969543456,-2.316389813940227,-9.994445192718505,-5.513002556501425,-7.9677511998628505,4.536646224555143,0.01666666753590107
332,5574.0,0.41063685663789506,0.8568748957499861,-1.2457424036502838,1.4508861329894511,-2.108992095129192,-10.535085855102539,-3.9539043029665866,7.412974207170443,9.421695276030757,0.01666666753590107
333,5591.0,0.49897594208717344,0.7274711017236113,-1.2019658057659863,1.564012161431834,-2.2503993384212255,-10.484657398113608,9.220071506826566,12.076086933737072,16.120298290362275,0.01666666753590107
334,5608.0,0.2623544668793678,0.023598025469481945,-0.22032091327011583,1.3386580763000995,-2.99140504450053,-9.489717555236815,17.21593576531319,6.34754068250297,14.320782500684865,0.01666666753590107
335,5624.0,0.01991882550008595,-0.37597061692625283,0.19439853650629518,1.0940005941528825,-3.4403175635188816,-9.059060531616211,20.02956389200824,-0.8401981116676647,7.392989073658986,0.01666666753590107
336,5641.0,0.06953472399711609,-0.6588982084959745,0.7005857251465321,1.1327565873961896,-3.782987676128745,-8.534131817626953,15.22442165051943,-2.2917201387228614,-1.5387916742455672,0.01666666753590107
337,5658.0,0.4718221238322556,-0.4362465141907334,0.8946107521653175,1.534832901763916,-3.5878602408260103,-8.330773729595542,8.15162074609324,-1.1177761457633366,-5.505114968670529,0.01666666753590107
338,5674.0,0.6187948192317039,-0.3767322489485144,0.8727057943493127,1.682076230798289,-3.538479831585288,-8.349179739379883,2.163731358300108,-3.150635423315594,-8.112412045162783,0.01666666753590107
339,5691.0,0.7526204482883214,-0.25226795715093614,0.6247223826497793,1.8145055831909178,-3.4093422872796655,-8.59892490005493,-2.5938330660908653,-3.5938261214336227,-10.915102477675706,0.01666666753590107
340,5708.0,0.7011302803520113,-0.3366191420078277,0.44909342854321,1.7664719123840331,-3.4801214583799243,-8.77878929977417,-5.858725814833137,-1.6177976463138681,-13.962298314549454,0.01666666753590107
341,5724.0,0.5850635222826153,-0.39315293013453484,0.3937017961889505,1.6654663837157189,-3.5134903517574068,-8.840290354919434,-9.598256519849233,3.545917253604449,-18.22175966777302,0.01666666753590107
342,5741.0,0.606691562853381,-0.2869403343424201,0.24599077657759189,1.7323544656615704,-3.36130920099467,-8.998008389282226,-13.629235238731182,10.30073806089046,-21.622637214022017,0.01666666753590107
343,5758.0,0.6679140933182091,-0.2385351998746395,0.02773030296862125,1.8384475997924803,-3.2713772933959957,-9.224410083770751,-14.89301404180124,11.608065296334873,-23.047319052238297,0.01666666753590107
344,5774.0,0.6200896082825958,-0.1902595370054245,-0.12071429161429405,1.8414402788024395,-3.1803976303100585,-9.380182829284667,-13.867400519994941,15.225927707231417,-23.637997226755584,0.01666666753590107
345,5791.0,0.5797999757312238,-0.0834396229699254,-0.23150164797604084,1.8828898219786583,-3.0244749549314376,-9.495553421783447,-9.632667866661404,19.54036013044254,-23.64928411435903,0.01666666753590107
346,5808.0,0.5698809315241873,-0.13425386440604925,0.13358838623464106,1.9396024738036095,-3.0482673339292403,-9.1293902053833,-5.626426812292772,19.618393334162644,-24.132972498169945,0.01666666753590107
347,5824.0,0.5931451949946582,-0.1748486173838377,0.3950093716561794,2.024297503662109,-3.0711618873044846,-8.864232371520995,-1.75769710271036,15.259337577556535,-24.06224247421988,0.01666666753590107
348,5841.0,0.7088591941036284,-0.28697335982918737,0.8447697396755218,2.1983258907042442,-3.1717180647701024,-8.408884558758139,1.7141603030019352,5.302065397477097,-23.333662780360033,0.01666666753590107
349,5858.0,0.7117600301116704,-0.4052198000252247,1.0439888282060623,2.22017298085317,-3.2861911239072676,-8.207772203826904,2.5725448605518166,-3.9395301698582945,-22.861420086050767,0.01666666753590107
350,5874.0,0.621484277511388,-0.47219314910173416,1.0005413161456584,2.1302409271240235,-3.349787397766113,-8.252214572143554,1.9681836826928778,-9.070894198937964,-22.894536258241573,0.01666666753590107
351,5891.0,0.3295926043719053,-0.6218053261592984,0.7326707161933184,1.8320131828308104,-3.4888004393979903,-8.524405373382567,-1.06475509478382,-8.483106901986885,-24.572691539198903,0.01666666753590107
352,5908.0,0.19550927422717213,-0.6984691713839769,0.41208676318526266,1.701828321429342,-3.5514985953733325,-8.84866947620809,-2.1406218401301933,-3.4722421374616377,-25.90141263467109,0.01666666753590107
353,5924.0,0.13510478214696048,-0.6145420571580529,0.4171446310967207,1.6582839248657226,-3.453336327306926,-8.845228395843506,-0.6717847499204851,0.2356670595335481,-27.20695206810025,0.01666666753590107
354,5941.0,0.627339579410851,-0.42673897339403627,0.7932996646791696,2.1669018477842212,-3.2558143980830905,-8.469338150677084,3.0690217063665233,-8.089022916123719,-21.07666092007517,0.01666666753590107
355,5958.0,0.8701638547815382,-0.1450549521446228,0.9343056336939334,2.3937527473449705,-2.9767405593320726,-8.330175763702393,5.650554028649019,-15.904749472987719,-15.48518802774676,0.01666666753590107
356,5974.0,0.4471494548685849,-0.8031991274029016,0.8139560837388038,1.933467332049459,-3.646967386572063,-8.4528785987854,9.058557169749628,-25.645249804944346,-17.28940298757314,0.01666666753590107
357,5991.0,-0.08877104712575673,-1.5981939055621623,0.46413609937429423,1.3202524318419395,-4.45920029978007,-8.80946500854492,6.932150233942702,-29.912280715315582,-24.685119868031897,0.01666666753590107
358,6008.0,-0.4382062699563801,-1.0333461458995938,0.20743629725575446,0.934037922668457,-3.8959646514892574,-9.071181177520751,2.8803161727603532,-17.740572840745624,-32.23997844860466,0.01666666753590107
359,6024.0,0.08352715512290597,-0.7424386614918709,0.10706862809956073,1.4454991061888633,-3.5962399466365573,-9.175777278026938,-0.17902666196437278,-11.957550708238793,-31.66049153904244,0.01666666753590107
360,6041.0,0.7271615973830222,-0.24905951649844646,-0.19623627332746982,2.0820576187133786,-3.083731446020305,-9.485976615142821,-2.6700560562375037,-8.508557894381644,-24.259382224233956,0.01666666753590107
361,6058.0,0.8270343226291239,-0.5446536974176764,-0.4231137686342001,2.1803692321226,-3.3663965872615575,-9.7170170753479,-1.469393323740241,-6.879094605130511,-19.5129693643235,0.01666666753590107
362,6074.0,0.818897924055159,-0.7463043970093131,-0.4562263491630554,2.169445979309082,-3.5621228652402754,-9.752331549835205,2.540000289817175,-6.827740547195301,-18.64138941490568,0.01666666753590107
363,6091.0,0.8818332497872412,-1.067249584545195,-0.4146516452372074,2.223614791870117,-3.895216171209514,-9.708338094329834,10.303948249800365,-11.730807210814588,-19.903114892356502,0.01666666753590107
364,6108.0,1.1284862896658479,-0.8756447704106569,-0.3698305067360401,2.450315761566162,-3.728370243017375,-9.658808047485351,15.507333208583235,-16.611086655815416,-20.00261879573254,0.01666666753590107
365,6123.0,1.2036949676461517,-0.7334399470001459,-0.43508068528175353,2.4946084922790526,-3.621080373382568,-9.717615625762939,18.185887514252116,-20.710718167366103,-19.17613346276244,0.01666666753590107
366,6141.0,1.1384743074558674,-0.6308282983094453,-0.5457657503128052,2.3726538452148436,-3.5667613386958834,-9.820865572357176,15.757847471866377,-26.36243674326861,-19.62890670284259,0.01666666753590107
367,6158.0,1.0394161865282803,-0.2940665329605341,-0.9087649497240782,2.221819140625,-3.254916864721477,-10.18268929824829,9.634351508291813,-28.453727969005207,-19.806906555254997,0.01666666753590107
368,6174.0,0.9852909208480268,-0.07627659947276115,-1.2581786913752555,2.1184195564270016,-3.047967766460776,-10.53478657989502,4.0280413106520205,-23.02207467306593,-18.58461346742995,0.01666666753590107
369,6191.0,0.7774350099407136,0.28895576581805943,-1.6432050136774778,1.874210914025828,-2.679111365453899,-10.925340725708008,-1.4089661065446093,-10.84602792082572,-17.01760073219436,0.01666666753590107
370,6208.0,0.6505337002545595,0.5046756150335073,-1.6840473116755486,1.7419312723021954,-2.4531585837766525,-10.970082369232177,-2.698104868394396,-4.384099072084785,-14.772316061430653,0.01666666753590107
371,6224.0,0.5109414704952389,0.4774667055904865,-1.5760148069798945,1.6053122131347655,-2.470815821020305,-10.864737496185302,-1.7553443159847022,-3.938894108491837,-13.693074455582353,0.01666666753590107
372,6241.0,0.2527454384695738,0.44981268272846936,-1.2735574622929096,1.333719962310791,-2.4910168975278735,-10.566210476684569,0.4373878654487213,-13.667070217864822,-14.115008537786244,0.01666666753590107
373,6258.0,-0.20527254335060716,0.35685382852405306,-1.3200596857488154,0.8467991996765136,-2.583941849462688,-10.61603979873657,3.1291440196487375,-18.733907742308087,-15.63308382139234,0.01666666753590107
374,6274.0,-0.3751165573801845,0.3502846792668104,-1.4005407511740922,0.6420948116026819,-2.5989056098386643,-10.697741345867515,7.670252919052837,-19.914318110142617,-17.476855821796846,0.01666666753590107
375,6291.0,-0.6365596085030585,0.36006928343921896,-1.339734692555666,0.341024172033742,-2.6173110351011157,-10.632200659942626,13.639811786660948,-15.969929968237151,-20.253619709994048,0.01666666753590107
376,6308.0,-0.8290515807356685,0.3003253010943532,-0.9530296233862638,0.13198036651611328,-2.708290698187053,-10.237157386016845,16.127529753146025,-12.236149855615382,-23.419070880836458,0.01666666753590107
377,6324.0,-0.78134655736126,0.25806232264339923,-0.6816045458227395,0.17073650588989256,-2.782361312048137,-9.956287603759765,14.53092180823677,-11.378313954354923,-25.875626963006997,0.01666666753590107
378,6341.0,-0.762297938824445,0.28846330612599846,-0.27428981934487817,0.18345570220947263,-2.7807152984067796,-9.540145427703857,8.261639725696513,-10.405357775954839,-27.732442917178936,0.01666666753590107
379,6358.0,-0.581850697715953,0.4768564647376537,-0.12110533675849437,0.3634698125977069,-2.5989056098386643,-9.38482159500122,2.912862451042287,-7.496469854679264,-26.252716584441526,0.01666666753590107
380,6374.0,-0.5169358886044472,0.5280182044371963,-0.07834346887469291,0.4364928901672363,-2.5435394041866064,-9.342623790740966,-0.8708388738928707,-2.520717812016583,-25.122470540966155,0.01666666753590107
381,6391.0,-0.4720177925348282,0.2069412072151899,0.14803776734769344,0.5032312614440918,-2.8528406234189867,-9.117868109893799,-0.748934191195012,-2.9566883598516736,-25.23611976611329,0.01666666753590107
382,6408.0,-0.31929442465417085,0.07298018827587366,0.68630351729393,0.6627448739867657,-2.9800322943538426,-8.58111744068563,0.7447639338198961,-9.238243225113385,-26.89682562128853,0.01666666753590107
383,6424.0,-0.20173698963560163,-0.051557461018860336,0.919352979233861,0.7668926462035626,-3.1013886832639574,-8.35052647781372,2.191922750655924,-20.456016998121743,-28.772373369259228,0.01666666753590107
384,6441.0,-0.06485116929076612,0.1300815471574664,1.047907462954521,0.8544306444030254,-2.9140421110957857,-8.228871105957031,-1.34653166750664,-23.702831089904638,-25.233570398005583,0.01666666753590107
385,6458.0,-0.4087343109522015,-0.2681611073315143,0.8327554767549037,0.4891653266906738,-3.2975632895320652,-8.450933309936524,-6.272709556843133,-12.178158134467388,-26.899875300752942,0.01666666753590107
386,6474.0,-0.4538597661621868,-0.4224199411511421,0.8382049743324518,0.4342483261108398,-3.420864675030112,-8.456469901275634,-13.56894515892748,-14.763720268360192,-32.12727691220487,0.01666666753590107
387,6491.0,-0.5013031429257243,-0.24744623608291147,0.6969324633359909,0.395192911529541,-3.1786016868039964,-8.6183777885437,-20.73794500894507,1.6052199596789956,-36.28352898442767,0.01666666753590107
388,6508.0,-0.13588643404394388,0.19669103135764598,1.0401175397306681,0.8101379867553711,-2.6708812972471114,-8.290072885894775,-23.816420550896535,13.959437319060864,-37.36778736422134,0.01666666753590107
389,6524.0,0.2388762683972716,0.4227162937492132,1.2113538118362426,1.2490250055175274,-2.375196807695925,-8.133252677154541,-25.26083309807769,16.546194736058418,-33.624358755623284,0.01666666753590107
390,6541.0,0.10681472640372812,-0.17142419589310884,1.4004764537662266,1.1929109771728514,-2.8727424247190356,-7.964012547302246,-26.64979816957668,7.833372350584727,-36.86771847923344,0.01666666753590107
391,6558.0,-0.021394816336780784,-0.029282500846683976,1.4067027809351682,1.1074679784912616,-2.6545707984372973,-7.9743375419616696,-25.958547167078247,6.419064715944051,-39.05212567392483,0.01666666753590107
392,6574.0,-0.07414630944579839,0.004929273095726967,1.438203250092268,1.0981903009276837,-2.547579911749065,-7.9575781303405755,-23.483197819406413,6.8175767988235,-39.47798113848595,0.01666666753590107
393,6591.0,-0.053868222179263826,0.006924538566172122,1.196584112727642,1.1649287452697754,-2.460490826360881,-8.216002272033691,-18.19262378832104,0.12173670273295867,-38.49648978494429,0.01666666753590107
394,6608.0,-0.28754356093257666,-0.1216800679065287,0.8902817830502986,0.9527424770079552,-2.537853175243735,-8.532784494671224,-13.644756843620037,-1.824262418814012,-38.025083788808345,0.01666666753590107
395,6624.0,-0.4154145924337208,-0.28208412648290393,0.7904992203056812,0.8445544894896447,-2.6572644214354453,-8.640374516296387,-9.703659145347224,-1.0432053143439008,-38.03265163840872,0.01666666753590107
396,6641.0,-0.5787535354182124,-0.33915465183481575,0.6061386782109737,0.7152677459716796,-2.674323108264059,-8.830114997863769,-4.267553419842742,2.458300982060068,-36.622931329569354,0.01666666753590107
397,6658.0,-0.24460925909131764,-0.19733692804574965,0.8356067745327949,1.0749965454101562,-2.515407826940715,-8.601319101715088,0.13124029731322318,0.13592659415643205,-33.968149497306705,0.01666666753590107
398,6674.0,-0.18621946783438323,-0.32221155420988795,0.9522703294515609,1.1462240447998047,-2.6343698680602015,-8.484302495574951,3.910986382429988,-5.175006376555112,-31.138992935533626,0.01666666753590107
399,6691.0,-0.23553689484149215,-0.6418285618819296,1.0483844328165053,1.1067197174072265,-2.957886221258342,-8.385840952301026,6.497599511681327,-3.3743343639172667,-29.88851507209852,0.01666666753590107
400,6708.0,-0.0991293595328927,-0.572476647105813,1.4021967016875743,1.2578536972045897,-2.8942902396604415,-8.028506354522705,6.771158833224093,0.2448977933925559,-29.579127993264454,0.01666666753590107
401,6724.0,0.18839067439362406,-0.5897425469443202,1.5368407344549893,1.560271294403076,-2.9162869674131273,-7.890540483856201,4.957389292522513,-2.822842478772223,-26.61542011993671,0.01666666753590107
402,6741.0,0.4448145821802318,-0.5997220891669393,1.4560907889604568,1.8110639183044432,-2.9251155860349534,-7.972392253112792,1.82780750043666,-13.606409600298646,-21.623269006520243,0.01666666753590107
403,6758.0,0.3588170914210379,-0.4950507314674556,0.47149406092166896,1.6955433959409594,-2.819321654046327,-8.961496229442954,4.123529489682914,-19.952191509090337,-20.077172018070524,0.01666666753590107
404,6774.0,0.498885341194272,-0.47701121690794823,0.2799941684663296,1.786972264099121,-2.8091465892516077,-9.157821350097656,7.49535909516549,-30.116141371472953,-19.241308835369995,0.01666666753590107
405,6791.0,0.5106809198629111,-0.7243688979245722,0.07173077273666859,1.6995838304381816,-3.076249419701844,-9.374196740612387,8.982512404851645,-39.88470182808729,-21.780911480111428,0.01666666753590107
406,6808.0,0.5705321619745344,-0.6333147082976996,-0.2816980497747659,1.664419066619873,-2.9993359836302695,-9.735572138214112,7.726271569304343,-47.125484404960766,-21.6963469079975,0.01666666753590107
407,6824.0,0.6435619615457951,-0.41673181251212954,-0.8639987562805413,1.6367361099243163,-2.7956792049132284,-10.325742847442626,7.530538838259287,-43.10577805953028,-20.444794997315412,0.01666666753590107
408,6841.0,0.7806378976352513,-0.4302338297724724,-1.6951199098318814,1.6744447860717773,-2.824858537646383,-11.162815602874755,5.284277450444269,-26.199739929691614,-18.126937859073028,0.01666666753590107
409,6858.0,0.7676960715409368,-0.7799160131014883,-1.5704700323343277,1.621173872198537,-3.1780031363889574,-11.041010593414306,0.5081849106300191,-16.951113963266163,-19.648208817437045,0.01666666753590107
410,6874.0,0.9347904946014285,-0.809200852035731,-1.320002987125516,1.757493656158447,-3.1950616770870983,-10.79635311126709,-7.303329180424228,-19.349312909168116,-19.129696714142817,0.01666666753590107
411,6891.0,1.272665189628303,-0.6066814067855477,-1.4216618651360273,2.0320785859923807,-2.9454663001462817,-10.915015146526693,-17.618194633839213,-26.47222178889281,-15.057736006467145,0.01666666753590107
412,6908.0,1.0121019170146435,-0.5733148514956236,-2.4362509958565233,1.7140987510681152,-2.8597240993224085,-11.946767008972166,-21.773437545612143,-25.350899387568063,-13.636395838302295,0.01666666753590107
413,6924.0,0.7470092573430389,-0.5134153863281011,-2.970322216722369,1.4052467369079589,-2.7424080718442796,-12.497583028411864,-21.49874782776174,-15.023805334217815,-15.460491771255288,0.01666666753590107
414,6941.0,1.5130126996219158,-0.20048019450753926,-3.6770840001553293,2.1589714201111345,-2.3650220351621507,-13.220033379364013,-13.894697371012898,-5.722285102199316,-8.699018573161096,0.01666666753590107
415,6957.0,0.181766287817806,-1.0832362582281232,-3.392055929175019,0.7989151664733887,-3.2218469542905686,-12.942754899597167,-5.753982302590052,-21.46323425917226,-10.398602718865694,0.01666666753590107
416,6974.0,0.17854721617344765,-0.7217021629333495,-3.5192706887245175,0.7401075881958007,-2.854336999456584,-13.074735266113281,2.4522193389344062,-25.62782428482435,-12.929858872441374,0.01666666753590107
417,6991.0,-0.4620943278810009,-0.3662950260862708,-3.7566234008163213,0.03845690069887787,-2.523488403674215,-13.309965579223633,14.047873754660543,-14.81734920617584,-14.64357211821779,0.01666666753590107
418,7008.0,-0.5656774154197425,0.53769993275702,-3.5886411620706316,-0.06658869714047759,-1.6653165999814867,-13.131597555541992,24.10097476945573,8.787875065394731,-13.116914701919574,0.01666666753590107
419,7024.0,-0.4071441922165453,0.7449976983249187,-3.1052152558147905,0.1523311171600595,-1.5280989173337816,-12.6283662940979,32.930247611409904,32.69468804731451,-10.023777305141028,0.01666666753590107
420,7041.0,-0.19697233251705765,0.7803181641615927,-1.5251070420414208,0.49545010604858397,-1.6145894523069262,-11.009586696624755,41.408513616822546,40.13625086502968,-5.74455322644085,0.01666666753590107
421,7058.0,-0.19001878705210984,0.8635305542469024,-0.5505798725962638,0.60648120803833,-1.6410753081724048,-9.998485408020018,47.769335602166606,41.24032703870015,-4.362485365343103,0.01666666753590107
422,7074.0,-0.1842406420420855,0.9302876302242279,0.10567512791454792,0.7121252832274884,-1.6955433959409594,-9.300276348876952,50.67653390539625,35.64062035332729,-4.091508282193425,0.01666666753590107
423,7091.0,-0.11151143285259604,0.8888719162523746,1.0979536426275969,0.8800186015807092,-1.8986013319820165,-8.251765074810384,48.15339030900725,18.443488098799147,-5.059191981441083,0.01666666753590107
424,7108.0,-0.3829507581371814,0.8436661623477936,1.009488592711091,0.6432919854979962,-2.0543743697568773,-8.302792082214355,43.906778249159764,7.862921456481495,-7.048693751750629,0.01666666753590107
425,7124.0,-0.5853676197957247,0.935817207300663,0.7954694099336862,0.46238012255243954,-2.060958132061362,-8.483105394744873,38.992463971524764,5.201094284089976,-10.237486240307911,0.01666666753590107
426,7140.0,-0.7374525436423719,1.0082216415151952,0.8486614864170551,0.3338414209228009,-2.097320069774985,-8.391377543640136,30.550247704551452,0.030125669912251945,-13.868131350236133,0.01666666753590107
427,7158.0,-0.8367225537549704,1.0156067833304405,1.2652344551056622,0.23792371691279113,-2.1474489592954513,-7.9548846534729,20.083800716660022,-7.509248284842712,-16.754834817087506,0.01666666753590107
428,7174.0,-0.8900677749734371,1.0558122447296976,1.3540402812838555,0.1771709228515625,-2.134280850164592,-7.857620211029052,6.025261621610503,-10.01786833773532,-19.01468145116168,0.01666666753590107
429,7191.0,-0.8137677946250885,1.3476356749385594,1.4409277066200972,0.2558803024291992,-1.8222864463254809,-7.777414455413818,-13.554411370147339,-0.25914148589595637,-18.898633122068578,0.01666666753590107
430,7208.0,-0.24341310810931024,1.706398551954329,1.5501082123070955,0.8535328187804668,-1.4121297744199632,-7.682544214630126,-24.100570080747406,10.77894521789244,-15.194286855901334,0.01666666753590107
431,7224.0,0.06221804430820047,1.7059464242726563,1.731926668703556,1.2033855363707988,-1.3431465468257664,-7.518540816387533,-29.550823689343922,16.864903315562263,-8.529630735518426,0.01666666753590107
432,7241.0,0.4052692651901394,1.3831468410417436,2.066405876073241,1.609352355371043,-1.567304261779785,-7.20804337310791,-29.381298394144206,17.843794074577442,-1.7842539454204276,0.01666666753590107
433,7257.0,0.5077352948650717,0.8332625494942069,2.467353990128636,1.7503110511779785,-2.0479399527952076,-6.823774006652831,-27.366966324880725,11.921795521707422,0.2091356699503096,0.01666666753590107
434,7273.0,0.6705537211067975,0.6147831724375487,2.699398074418306,1.9271826988220213,-2.2032637854978443,-6.609193682861328,-24.7973415836425,0.328118419065578,2.4459921274020586,0.01666666753590107
435,7291.0,0.9224148510225116,0.2863219101831317,2.7563334290832278,2.1513396831236777,-2.455552785436809,-6.5786676116943354,-23.280066285942944,-16.127541705977073,2.9659648239616088,0.01666666753590107
436,7308.0,0.9705759476013481,0.17216069347411392,1.9286632927685974,2.149394467340037,-2.515258189336955,-7.428609201049804,-22.143118119344496,-20.569970166686943,4.7822491549382224,0.01666666753590107
437,7324.0,0.9628704147253185,0.1254126785635948,1.4312100302040576,2.0904372514586895,-2.5112182662963867,-7.946804222869873,-20.486401094644545,-16.8647581740424,6.746231630961308,0.01666666753590107
438,7341.0,0.8295432367101311,-0.2527633394524455,0.6002677403509616,1.909525388513133,-2.829795847918093,-8.799887617382407,-17.617009596018217,-8.361437327206863,6.510952104621879,0.01666666753590107
439,7358.0,0.6240474059976637,-0.8134595323935151,-0.11993570845723152,1.6880617349486797,-3.350385655920207,-9.532813185119629,-16.174248247068913,-1.971591520201891,2.7398667794139695,0.01666666753590107
440,7374.0,0.6341407838582992,-0.9471727140516042,-0.4504442586302757,1.7022773073058575,-3.4452558967038986,-9.873238149151206,-15.477905338544234,6.153703328952593,-1.7631044780988945,0.01666666753590107
441,7391.0,1.017992728618905,-0.7666869675636291,-0.8567150290131569,2.1335329544067383,-3.2136167399533093,-10.287435620880126,-14.941660356617364,21.57935089015706,-3.3208473659703084,0.01666666753590107
442,7408.0,1.5183657510876654,-0.5415526626624166,-0.7903893301904201,2.701706935882568,-2.9516015880309046,-10.222343263244628,-14.199930841057952,31.44019061755285,-1.4816902255672026,0.01666666753590107
443,7424.0,1.6440891030356286,-0.6495331449098884,-0.6950853741645813,2.91134921875,-3.024923867742717,-10.12492918319702,-13.703786753521872,35.12009846686979,-0.41585142522202484,0.01666666753590107
444,7441.0,1.8373080743685364,-0.8229026296518742,-0.5330968228757381,3.21780703125,-3.155258220617473,-9.957783979797362,-12.416211571383489,32.45176212419925,0.7379008743645027,0.01666666753590107
445,7458.0,2.0284087383732197,-0.7160888530962168,-0.7446843945920467,3.4801214583799243,-3.019536767876893,-10.165779664501548,-11.344956164222227,25.930299212218365,3.062106139831885,0.01666666753590107
446,7474.0,2.037564250861853,-0.5967293370917439,-1.0945242527008057,3.5434183109007775,-2.8787280749998985,-10.512340939331054,-7.124724002496626,21.528317424226017,7.9953169895793765,0.01666666753590107
447,7491.0,1.8336697178661823,-0.4467170548006892,-1.8561065906018017,3.399766211291402,-2.7298383669979867,-11.263820400890708,5.13345364007887,19.65836189363827,13.420274992584751,0.01666666753590107
448,7508.0,1.4616726807460187,-0.5839170556612312,-2.1886171282470226,3.0626326900206506,-2.899377772057801,-11.582549081420897,16.235610666572306,15.740256319659009,15.77701127513014,0.01666666753590107
449,7524.0,1.2583769904263318,-0.5977770925790071,-2.284973808196187,2.8847134330198165,-2.9712038218624888,-11.660060775646567,25.21577092502853,13.920218372846652,16.20540244742063,0.01666666753590107
450,7541.0,1.018598512492329,-0.5468275343254209,-2.44873404533267,2.687491217394918,-3.0271681395381687,-11.788600061798094,33.70129742152889,21.86478791066648,17.560027035320093,0.01666666753590107
451,7558.0,0.7550941449254751,-0.7924100223630667,-2.1119547443270683,2.474407269641012,-3.3677433256953955,-11.416899669536948,37.406449650018196,27.933803724100084,17.06056262207374,0.01666666753590107
452,7573.0,0.45319896416589617,-0.949964975118637,-1.6352052470952272,2.2239139209471643,-3.6234742827817796,-10.902745447540283,36.65892984158991,21.023527170974347,13.483058945209155,0.01666666753590107
453,7590.0,-0.12130436646193266,-1.1126873936399817,-0.8091752792030572,1.6793828269958495,-3.8973110976621506,-10.038139373016357,25.645692059693104,0.7969465790787935,7.45031314381561,0.01666666753590107
454,7607.0,-0.43359073898494244,-0.6003694471597671,-0.8382382920801639,1.3486834304258226,-3.4322368406549093,-10.056394576153158,10.270325789837331,-9.120273905316218,7.303432487035424,0.01666666753590107
455,7624.0,-0.5681418327718973,-0.2574056123003364,-1.2331523866683245,1.1914146011352538,-3.099144119207561,-10.452635535430908,-4.848895152651445,-3.1169760376423596,9.093662634536201,0.01666666753590107
456,7641.0,-1.21841746661216,0.20133359646648166,-2.0538345637917517,0.5512647861205041,-2.6108766181394456,-11.280430759429931,-14.638927589582181,16.79116117818822,9.829508795899294,0.01666666753590107
457,7658.0,-1.3254318803064524,0.5764265537753701,-2.390419219008088,0.496796552221477,-2.2071540709346533,-11.615469354248047,-11.633495798162123,31.656219255716596,8.56741448823329,0.01666666753590107
458,7674.0,-1.3647018144212661,0.6636129620581865,-2.119403891289234,0.5401917495727538,-2.1046526046201586,-11.33235500793457,-3.7446234648159877,40.572057915211516,5.3769217094594985,0.01666666753590107
459,7690.0,-1.3890683400452135,0.9030039019793271,-1.08009942150712,0.6494269080564379,-1.8737614897578954,-10.261847590637206,8.230808251783076,38.78515748493112,-1.4582513642132462,0.01666666753590107
460,7707.0,-1.23108113335222,0.98960958776474,0.17794307626783848,0.8892961330138146,-1.814505290929973,-8.9769094871521,15.604786347660976,26.11306995176603,-5.990722208751395,0.01666666753590107
461,7724.0,-1.3111615090221165,1.114809208099544,0.9268097249805927,0.8574234695434569,-1.7256202620357275,-8.205527639770507,17.632413380143888,8.923664348736462,-10.69837630644297,0.01666666753590107
462,7741.0,-1.262049687589705,1.3293237731784582,2.0842349627524612,0.9136870624266564,-1.5491978194639087,-7.034463752746581,10.914322128563033,-11.274879277111543,-15.820980617912097,0.01666666753590107
463,7758.0,-1.188916208448261,1.4004931126400828,2.435433249732852,0.9599249358579516,-1.4830579986020922,-6.688052700042724,1.08332093633009,-22.198493878040377,-17.684348431045372,0.01666666753590107
464,7774.0,-0.9727940620422363,1.3981737297818064,2.298067683047056,1.1270702853880823,-1.4668971373960376,-6.842628344726562,-8.369909323098616,-28.461854186570232,-16.504170289642623,0.01666666753590107
465,7791.0,-0.4815142274156213,1.3781117694839835,1.9626064789026973,1.5337852924071251,-1.434724760326743,-7.213280689239501,-17.40967920376248,-32.68403636730387,-10.461501077158696,0.01666666753590107
466,7807.0,-0.1790849397793412,1.3390151461094617,1.6151269201844929,1.757643001501262,-1.4249983160823583,-7.592462377166748,-19.16799529236637,-37.46084527656818,-4.835799545578415,0.01666666753590107
467,7824.0,-0.08330912845805287,1.1026067291304469,1.4361808043539523,1.7670703166685997,-1.617282929174602,-7.802254297637939,-17.511561720516973,-35.97396090558059,2.0321962155942375,0.01666666753590107
468,7841.0,-0.2706090850055218,0.6375307185575365,1.47950907394886,1.4589666366577148,-2.0254943122312423,-7.798812632751464,-19.005337752377102,-33.83000892134319,5.782059929607506,0.01666666753590107
469,7858.0,-0.5099716756150127,0.3116533353164792,1.3346031748861074,1.1358989040099083,-2.3012764159604906,-7.973140441131592,-24.2052546826089,-31.679964408366146,3.3288864986234135,0.01666666753590107
470,7874.0,0.022139497224241494,0.6352908306762576,0.8784539826124906,1.5813700504027306,-1.8939625662654638,-8.467243224224447,-27.107533542088838,-18.492269309851377,4.00507181136009,0.01666666753590107
471,7891.0,0.1371221133187413,0.7184551438361406,0.6648270140230655,1.6561888522826134,-1.7473180068418384,-8.704419410705565,-25.963538327814234,-11.415285768332202,6.4410621939397235,0.01666666753590107
472,7908.0,0.1616411991558969,0.5997235504716635,0.2541805127739906,1.660528488922119,-1.8113630473814903,-9.132532595062255,-20.690618628186048,-1.6463499714786372,8.741644929997499,0.01666666753590107
473,7924.0,0.005361965424567461,0.37068887713104487,0.32360359309017656,1.5032590751096606,-1.9999062819883227,-9.073574794659018,-15.215535574409243,5.87866527145452,8.050817399227608,0.01666666753590107
474,7941.0,0.36292248091325163,0.4625147817827761,0.8153069138258695,1.8897731517516076,-1.8673273650571702,-8.587402804565428,-13.368043682228018,16.212946391358912,6.929446759691846,0.01666666753590107
475,7958.0,0.46390185222700236,0.36925723689273,1.4041910903751849,2.025793879699707,-1.9259853057309984,-8.001272310638427,-16.99601050422795,15.50941812382738,4.820219457194793,0.01666666753590107
476,7974.0,0.9997057421043515,0.5035669231392443,1.2934721230745314,2.6179098777770995,-1.7290622191831468,-8.117540728759765,-23.025190946874748,21.284419906701324,7.461579540851546,0.01666666753590107
477,7991.0,1.0767233692027627,0.38814328527897596,1.2896224619090557,2.7392659744262695,-1.786373421423137,-8.12726717300415,-26.89258919645583,17.553975487715462,10.185342868636742,0.01666666753590107
478,8008.0,1.3845521777950227,0.09634308981522917,1.047290207839012,3.0743045692443847,-2.01442112955302,-8.379256897735596,-28.877558282477427,9.876683204949279,14.08870889438711,0.01666666753590107
479,8024.0,1.137184559906274,-0.27389453641697764,0.5388824205398559,2.8315922298155725,-2.2951412742063404,-8.90643017578125,-30.756017398581843,0.9890963422956484,15.58727715772365,0.01666666753590107
480,8041.0,1.0421524065591394,-0.3275732273735106,0.12681436205506325,2.729389892578125,-2.2792796882078052,-9.334393722534179,-30.325059782710717,0.3812206585827677,16.457415937226592,0.01666666753590107
481,8058.0,1.1545137342393397,0.11028466753661632,-0.9410293889909982,2.8380267929077148,-1.7829317565366625,-10.414777221679687,-22.80075946848459,4.131817070467078,22.784971486218105,0.01666666753590107
482,8074.0,0.5996285656645893,-0.15415902670696377,-1.3972002085745334,2.279579109545797,-2.0169651149474084,-10.877606330108643,-4.361636287451906,4.161664570253211,29.210284117705427,0.01666666753590107
483,8091.0,0.2565162622451782,-0.42873964569196105,-1.4417612348347901,1.931821464538574,-2.3107035849973556,-10.919205583953858,9.073222439671293,3.097025268520164,27.569040886570136,0.01666666753590107
484,8108.0,-0.12375643578916787,-0.7974982854127883,-1.2318471492886542,1.5445593460083007,-2.723703371374309,-10.701633092609047,16.66270068782591,1.645609216118808,23.67527298415093,0.01666666753590107
485,8124.0,-0.0685167791262269,-0.8685346461445093,-1.1319091037213802,1.5864577289305626,-2.866756920568645,-10.589105030059814,18.510538358333868,-0.6125362739652095,20.31888899770269,0.01666666753590107
486,8141.0,-0.22263649673610925,-1.036522876239568,-1.1789648694068193,1.420210351153463,-3.0868739818297324,-10.627112981414795,16.81878758583363,-0.4159802650013295,18.10453825368997,0.01666666753590107
487,8158.0,-0.6413141826190054,-1.2197476923026145,-1.4658452902555466,0.9977832496091723,-3.3161184985287484,-10.90454051426351,14.932183469143972,4.506592111546617,13.503079937213755,0.01666666753590107
488,8174.0,-0.7026463109381497,-1.2792097889661789,-1.5689222183704374,0.9512461009703576,-3.42520445780009,-10.99387474822998,11.12762210615336,7.9447001651877045,7.828098590771831,0.01666666753590107
489,8191.0,-0.41009018254056573,-1.1112591144025326,-1.6128788489967583,1.261295215960592,-3.2821509086057543,-11.029039585113525,6.311659991245601,10.303269499751597,8.223330048415558,0.01666666753590107
490,8208.0,0.2879367980338633,-1.0999411631830036,-1.6997282804101705,1.9841943335935472,-3.2848442393429576,-11.10819729298055,1.5709070102795555,14.149262790247505,12.381792540608503,0.01666666753590107
491,8224.0,0.47184974249154327,-1.6359242090195416,-1.8085253397375345,2.2004209632873533,-3.8232404838010665,-11.21055058299601,-5.243520431006333,10.21185083280556,13.286007133880641,0.01666666753590107
492,8241.0,0.40822921097427606,-1.9316503457553684,-2.077571997731924,2.149095265197754,-4.1053073668882245,-11.480496235656737,-9.883490342230843,6.091201975405099,9.024244006906777,0.01666666753590107
493,8257.0,0.3018298604384064,-1.5672171680182219,-2.6131629755109547,2.055571616717428,-3.7156511928282674,-12.019490884399413,-11.88779227869816,6.979245242043586,2.503612670457344,0.01666666753590107
494,8274.0,0.794392866743356,-0.7900881552867591,-2.8269617935359475,2.566135120745748,-2.905662697546184,-12.237363235473632,-7.5881156254152025,4.080095462977157,1.260208748568257,0.01666666753590107
495,8290.0,0.6487184675261378,-0.502020424349606,-2.8988989024996754,2.430563597869873,-2.6075845908567308,-12.3096381980896,-0.8424472716170086,5.608186792114253,2.083230108412103,0.01666666753590107
496,8307.0,-0.05921762038320302,0.004778320317715406,-2.724761063733697,1.7422304744444785,-2.110338979693502,-12.129624160766602,8.50552955925839,11.06512672902139,-0.15044297395831735,0.01666666753590107
497,8324.0,-0.3374386416971683,0.3338606370799243,-2.4021973350852726,1.4957771949216723,-1.815103841345012,-11.793238827514648,19.504718495806124,13.777473395608908,-1.623417718062025,0.01666666753590107
498,8341.0,-0.6350358330018818,0.9535996783591806,-1.344354169049859,1.2496233367368579,-1.2795510036192834,-10.705523085784911,32.17140676443232,16.92564760294577,-0.8384570003986932,0.01666666753590107
499,8357.0,-0.696129476390034,1.2216978034570813,-0.2514671621620655,1.2300211029052734,-1.101033342333883,-9.58234323196411,40.94303280979159,16.41827041554596,1.3555975696910683,0.01666666753590107
500,8374.0,-0.8512165777273476,1.3162966799534856,0.2701549114972353,1.108066309710592,-1.1159971027098596,-9.025840983581542,47.67115846303684,11.448319978252968,2.1345372087967696,0.01666666753590107
501,8391.0,-1.1674382438726723,1.3295377081900834,1.135122805070877,0.8153753028869628,-1.2645868048518896,-8.112004137420653,50.46296755042829,3.367887946001244,1.033754466966719,0.01666666753590107
502,8407.0,-1.1515684745676815,1.4010519155666232,1.8061393213838337,0.8315360179625451,-1.3129200431272388,-7.406462835693359,47.90054353612255,-2.4174818505893674,0.48910723178282145,0.01666666753590107
503,8424.0,-1.0646820721447467,1.487636850824952,2.067090351206064,0.9059060531616211,-1.3347668410152196,-7.115567333984375,41.47936999927226,-7.486674509635819,0.33832656366698516,0.01666666753590107
504,8441.0,-0.9184208129502832,1.4931249268472193,2.430864042121172,1.0179844722472131,-1.4420572951719164,-6.723666449737548,28.10240694376185,-14.586944727356506,0.46055570703084586,0.01666666753590107
505,8457.0,-0.9024743251472711,1.1698112566143273,2.6016747822910546,0.985513112231344,-1.8163009421750902,-6.546495526885986,13.74354443090687,-25.103330643364487,0.794299187084326,0.01666666753590107
506,8474.0,-0.9950000486314297,1.1657751329660415,2.5262878251343963,0.824802471923828,-1.8341081092834473,-6.631190410614013,-2.728376693682715,-30.733406057334516,0.12602392709761104,0.01666666753590107
507,8491.0,-1.1806010923065244,1.0118731497600675,1.945091280478239,0.5409397914610803,-1.9436425429746507,-7.24575263377726,-23.813258173310818,-30.187878848325596,-2.231909666264941,0.01666666753590107
508,8507.0,-1.168504850190878,0.9843000831797718,0.8966957417458296,0.48647170369252557,-1.8989008994504808,-8.329277938079834,-33.84255256375393,-26.86074514699794,-3.7023074546999966,0.01666666753590107
509,8524.0,-1.0146814851790666,0.97597619920969,0.3899859905362129,0.5829881042480468,-1.8188447814390063,-8.873210627746582,-36.73997345118669,-22.53974208180526,-2.912854553636059,0.01666666753590107
510,8541.0,-0.8386164777427911,0.9284124840021133,-0.18468962791860102,0.6971614497862756,-1.753901769146323,-9.491512621960043,-29.890956864726803,-16.969936257071424,-2.466707023937649,0.01666666753590107
511,8557.0,-0.7586983068972826,0.7312301619961857,-0.2670896787077188,0.741603818102926,-1.889174455206096,-9.597306992340087,-19.5692740287465,-14.399958053543653,-3.642169346605327,0.01666666753590107
512,8574.0,-0.6111541682854295,0.45039808140099047,0.022273791128396985,0.8456019527159631,-2.1276967955991624,-9.326612567138671,-5.041936362276693,-14.69311660290977,-7.046406065265498,0.01666666753590107
513,8591.0,-0.48228579631000756,0.3952452262386679,0.25777824500501156,0.9463080600462853,-2.1775258253902194,-9.096918260845541,2.684444703497782,-12.648140889935027,-9.378931461637308,0.01666666753590107
514,8607.0,-0.07144450314119458,0.3081538027629256,0.783781894749403,1.3362636554442344,-2.2732938917964693,-8.571690856170655,7.062343457920076,-9.789177382624015,-10.727762341573303,0.01666666753590107
515,8624.0,0.2608642283216119,0.11691869872361421,1.315353115493059,1.6475100173950195,-2.485929511260986,-8.037334973144532,8.883535279815344,-10.688364102893377,-13.384140730554446,0.01666666753590107
516,8641.0,0.38167218956872817,0.054932198148965834,1.5536919160127638,1.748665037536621,-2.562693601989746,-7.797765169525146,7.367704567125244,-13.761220106705217,-16.28466508519134,0.01666666753590107
517,8658.0,0.5895493624597787,0.01156184297800064,1.731594660270214,1.930923492785543,-2.6140187155574557,-7.621342434692382,4.116362913696278,-16.75936664760181,-18.516996302194116,0.01666666753590107
518,8674.0,0.8444387541554867,-0.1098038982823491,1.190873333865404,2.15792388381958,-2.7353751044675705,-8.166023312377929,0.8178780139554149,-12.55993411944619,-20.650209521508962,0.01666666753590107
519,8691.0,0.9033706894651055,-0.09879501301199198,0.9902554844528436,2.204311394854635,-2.7144258399412036,-8.371176467132567,-2.0057147184084516,-8.607941415673562,-23.62827274492478,0.01666666753590107
520,8708.0,1.2861363733589648,-0.03451777115166187,0.7899883481740951,2.5932196731567383,-2.63706290653646,-8.57423469543457,-2.03339427346334,-0.5550387276758372,-24.362434410883814,0.01666666753590107
521,8724.0,1.4444330843925475,-0.37366204772293565,1.0531471171736717,2.776226316424459,-2.957886221258342,-8.312668164062499,-2.4266601307299838,-1.2574801947165426,-26.924836227074753,0.01666666753590107
522,8741.0,1.5570396190054714,-0.3688359427407384,1.0403700531870126,2.902670091601461,-2.935739563640952,-8.328229890331626,-4.420798105382087,-3.031436029137589,-28.72158066749643,0.01666666753590107
523,8758.0,1.8574116818509996,-0.13807751434743404,0.8725421282202005,3.212719352722168,-2.6798592612117527,-8.501510820007324,-7.865151513245505,-4.602804717516356,-28.212789630938424,0.01666666753590107
524,8775.0,1.9530172511719166,0.26486118900328876,0.26968320233225823,3.315520240374654,-2.2316946379512546,-9.115473908233643,-11.898298817188932,-4.567262120622901,-23.891110377017917,0.01666666753590107
525,8791.0,1.8873516236931085,0.30160481951087714,-0.06458090098202228,3.251924258776754,-2.156277285656333,-9.459640396881102,-13.428138247866729,-6.066568044389801,-18.539023662267407,0.01666666753590107
526,8808.0,1.4600164379715919,0.4834741293117404,-0.6784340990930795,2.818274483080953,-1.934814070483297,-10.084676667785644,-14.037940952060051,-6.160668841245537,-12.636040356046703,0.01666666753590107
527,8824.0,1.0941853761352598,0.3740267893821001,-1.2006161447227,2.448220688983053,-1.9928733146116135,-10.620528926849365,-14.138810893270092,-1.0014850247895821,-6.351345097870667,0.01666666753590107
528,8841.0,1.0169834785111247,0.19397724235430358,-1.5835358501344918,2.37819014429301,-2.1393683825619516,-11.010783797454833,-11.09884139653822,5.547038669796067,-3.1220461724406245,0.01666666753590107
529,8858.0,1.1238777729570866,0.03200315798223018,-2.2027041057884693,2.5142108722411094,-2.2809257018491627,-11.630732389831543,-4.576035498611783,16.67707311338691,-0.9390681948330668,0.01666666753590107
530,8874.0,1.6468818024940788,-0.39925679996758695,-2.0540122584462166,3.109469259997457,-2.7129294639036057,-11.470919429016112,4.61398488341402,26.45551002354108,1.089845261091333,0.01666666753590107
531,8891.0,1.7363954846806824,-0.7521852717414498,-1.6896049458026885,3.262997587585449,-3.0802897811338306,-11.092785204315184,6.125735411848684,23.440645740877237,-1.9167779714520692,0.01666666753590107
532,8908.0,1.5838541223034261,-0.9657016195632516,-0.8607406312674284,3.153313224029541,-3.3014543056212364,-10.254964260864257,0.3553651375622431,7.617708273767929,-4.5655357903101805,0.01666666753590107
533,8924.0,1.427062701266259,-0.5022869663313031,-1.0792343291103839,2.9664158569335934,-2.8140844840452073,-10.484358707427978,-14.455356010354334,-25.754952888298504,-0.06150329215502607,0.01666666753590107
534,8941.0,1.048325688366592,-0.359614233148098,-1.7863240293234586,2.5195979721069333,-2.624044727270305,-11.213842025756835,-23.920825115002057,-25.034111798768286,4.389470162093354,0.01666666753590107
535,8958.0,0.17266835073530673,-0.4558975556001067,-3.2251801903665065,1.5957354064941405,-2.6577133342467247,-12.674903588867187,-26.769213781930596,-10.505975000165588,4.63655567041315,0.01666666753590107
536,8974.0,0.022678280276060104,-0.15537132510617374,-3.8780139842569827,1.4514847564697264,-2.2879586692258713,-13.34273621444702,-13.848590179020727,14.36749928706046,5.094609073608538,0.01666666753590107
537,8991.0,0.020717063205689192,-0.10478124781474471,-3.5781273668408393,1.4890435027524829,-2.225709426061809,-13.039420207104087,3.1878808717464966,16.99208314545519,4.303286835146133,0.01666666753590107
538,9008.0,-0.034310265880823136,-0.08643076760992408,-2.1747528535455465,1.4651017784118652,-2.235136595098674,-11.624896523284912,17.049407215611815,9.009110015253322,4.01159976465933,0.01666666753590107
539,9024.0,-0.4901328565485775,-0.2566305362746119,-0.9795154792517423,1.0114004176817835,-2.4772502379819747,-10.41268171070516,23.39177915246038,-5.286864384592411,1.8910576134719168,0.01666666753590107
540,9041.0,-0.854709826670587,-0.4383008163720369,-0.6623036330252885,0.6280290229797363,-2.7135280143186447,-10.085424855804442,20.049258742479974,-8.96315991761206,-2.31984493673427,0.01666666753590107
541,9058.0,-1.9404962077729402,-0.593985591341555,-0.4565069196701049,-0.47135859797373414,-2.9097029128476977,-9.871891995239258,14.784856288746797,-4.390836199927357,-10.826331362806696,0.01666666753590107
542,9074.0,-2.1778065420277417,-0.5145050812609493,-0.3871498903274536,-0.7049428974427282,-2.854187215722352,-9.796025730133056,9.68287829479746,-0.7325848527561172,-20.070830187426168,0.01666666753590107
543,9091.0,-2.245445369275659,-0.07465192088037728,0.11720248410105705,-0.7550713485717773,-2.4203880946837364,-9.287407514953612,1.612599552190371,-1.1057014385278119,-28.53014241789202,0.01666666753590107
544,9108.0,-1.888362408170849,0.49010757597684856,0.7992758164793252,-0.3868133518494665,-1.8393449870236216,-8.607603881072997,-5.593454927848182,-5.090915648814854,-29.847329031403344,0.01666666753590107
545,9124.0,-1.3923821407683192,0.7548259955085813,1.3227566697478295,0.10669161148071288,-1.5234601516172288,-8.097040377044678,-16.51761210192921,-9.731773911518289,-26.596263146862118,0.01666666753590107
546,9141.0,-1.183659749224782,0.7971525407150387,1.4458318452745675,0.30211817586049433,-1.4212578143797814,-7.990348765563964,-24.050021558247433,-13.11293184785981,-21.906168611753,0.01666666753590107
547,9158.0,-0.6042256841965019,0.9885416662722826,1.2465443676829338,0.853532891845703,-1.157297081347555,-8.2107649559021,-28.38093010528392,-17.788952778184118,-13.688971219438468,0.01666666753590107
548,9174.0,-0.5334517737932503,0.6461304968595505,0.5334019433021545,0.8628102771483361,-1.4049471694394946,-8.954164571380614,-24.59400002186205,-23.403038719307144,-4.064247289668612,0.01666666753590107
549,9191.0,-0.6681175800010561,0.15271628055274486,0.11883972991406917,0.6667851623535156,-1.847425709887594,-9.388412897491454,-14.993831049045214,-27.106794174111183,-3.149795096604271,0.01666666753590107
550,9208.0,-0.7950473851293325,-0.4926566759377718,-0.28153263007998464,0.4740519287109375,-2.4690201697751877,-9.802759422302245,-2.9157987920551576,-26.421657898467206,-6.3602747164368125,0.01666666753590107
551,9224.0,-0.6354226403623819,-0.5815588020972907,-0.32157822474241254,0.5795462932310999,-2.562094759313762,-9.848997441864013,8.057854201620012,-19.926108724197352,-9.665727689791558,0.01666666753590107
552,9241.0,-0.19013225736394523,-0.5531413936473429,0.0823398450344801,0.983717534051463,-2.572270116369426,-9.44213279724121,16.732105655076996,-9.933109105230047,-11.751958599126825,0.01666666753590107
553,9258.0,0.2187416081894189,-0.5874050439074635,0.8752344360440969,1.381903124590963,-2.6484356566831466,-8.641571617126464,19.278900489014454,-3.8752883987329163,-11.6562778941387,0.01666666753590107
554,9274.0,0.28580175876654684,-0.7052266828201711,1.5003192222654818,1.4553753341674804,-2.8257563632689413,-8.002619049072266,19.293529046669327,2.2071047670769817,-13.341904548274378,0.01666666753590107
555,9291.0,0.2569313458520919,-0.7203665304154158,1.6401438725411892,1.4468459176879376,-2.8838157535277307,-7.850587243652344,18.883091026612213,7.585774578077181,-16.019322481220097,0.01666666753590107
556,9308.0,0.325491525728628,-0.6097644674926996,1.985703276851773,1.5493476762633769,-2.814683180590719,-7.491157719421386,19.05347009545818,11.378529959087425,-17.821035884262958,0.01666666753590107
557,9324.0,0.6854967309556901,-0.21661109896674752,2.429538930997252,1.9578582614623008,-2.4756042243406173,-7.0281789733886715,17.768288040850244,6.9072879184770315,-17.382418211237667,0.01666666753590107
558,9342.0,0.8065212575629354,-0.0847094967752695,2.5030396360158917,2.100762173052877,-2.3790878237850963,-6.943184814453125,15.286981060674869,4.495276195639199,-13.625003082766714,0.01666666753590107
559,9357.0,0.8178653661370276,0.1089398287989199,2.3720798447191713,2.1339818672180173,-2.214785880987346,-7.063942360687255,11.453247105965486,7.697517326672235,-9.494488870883815,0.01666666753590107
560,9374.0,0.7926746646486222,-0.0008015256412327289,2.166569547089934,2.1456534541808066,-2.3496092158444224,-7.258022332763671,5.76691227757571,9.752550493199822,-4.934515842765786,0.01666666753590107
561,9391.0,0.8646104584380984,-0.11754355262368917,1.8494979861170053,2.2390274650573727,-2.475454440606385,-7.569717461395263,2.8546344480376935,6.182506236682537,-1.0704101712514733,0.01666666753590107
562,9408.0,0.7389398595906793,-0.25693375700488685,0.8290805876344441,2.1279962169371545,-2.621351250402629,-8.586355341339111,2.667424298972933,6.725200624733192,1.128304989090617,0.01666666753590107
563,9424.0,0.5699864377252757,-0.5559940065994858,0.1106032319664955,1.9843441173277794,-2.9330465251646936,-9.297882147216797,4.684019935616038,8.123850904475262,1.7268406559177698,0.01666666753590107
564,9440.0,0.49542029543220995,-0.740285136719793,-0.13295476450622082,1.9250876262389123,-3.1316153330929577,-9.535506077465415,6.562856846558922,4.8562282144991,-0.1903699119686847,0.01666666753590107
565,9458.0,0.3620116496786475,-0.9575275193274021,-0.676043989086151,1.803881167193502,-3.3657983291074633,-10.072406384277343,7.6523569696537574,5.0139569192285585,-2.883266814481799,0.01666666753590107
566,9474.0,0.14747896442115305,-0.9049809011407196,-0.9670143095970153,1.6150385112486778,-3.3352721118099984,-10.353725079345702,6.923443023411404,7.584662111016114,-6.742884411381179,0.01666666753590107
567,9490.0,-0.06927388110384344,-0.8247614092610775,-0.8879454490572214,1.4205096263609827,-3.265541280718893,-10.268431645202636,3.730310376523403,5.633105456640575,-9.088341917172762,0.01666666753590107
568,9508.0,-0.5897668046027421,-0.5583787097789347,-0.9238894536197185,0.9154828598022461,-2.997839315331727,-10.302249743652343,-1.7793178530846239,2.248553770055204,-11.162179448259039,0.01666666753590107
569,9524.0,-0.8377389642558991,-0.21828341609314084,-1.441261468619108,0.6904279037475586,-2.6327237082883714,-10.82239005432129,-9.453688735876744,7.563325453822641,-12.53108937680758,0.01666666753590107
570,9540.0,-0.4793097031086683,-0.02201309436559677,-1.8254612769693135,1.0892119716368616,-2.4072198394224045,-11.207407608795165,-10.492931900171802,20.588809535965133,-8.479735349857837,0.01666666753590107
571,9558.0,0.5072840439662337,0.18139730837494134,-2.1712591662108895,2.1432592525206506,-2.1830625628598033,-11.546935331726074,-4.849718190446432,29.708071719510542,-1.7354087013447275,0.01666666753590107
572,9574.0,0.6391783396340907,-0.44849137099683284,-1.3842156393170355,2.342427049255371,-2.8172268737241626,-10.746823064422607,5.823168276900874,4.910530352834817,3.3035994307687337,0.01666666753590107
573,9591.0,0.527250142674148,-0.7239955345675348,-1.182173310059309,2.2007200923644006,-3.110217448016256,-10.545710124969482,6.0282020180481934,-26.269233689401908,2.113418690769913,0.01666666753590107
574,9608.0,-0.22273425802215932,-0.7632778897725045,-2.0735382121711967,1.3688847991943358,-3.15720350946635,-11.449371614074707,-0.5686453716370017,-36.812492984699304,-1.5941924058205983,0.01666666753590107
575,9624.0,-0.3983564901269972,-0.07932415047511458,-3.371481343179941,1.102679209844768,-2.4530088000424204,-12.767379043468832,-9.099486224577284,-15.185685940188995,-3.537229252980193,0.01666666753590107
576,9641.0,-0.2215088078804314,0.3363393021531403,-3.801510590291023,1.2807481044493614,-2.0162167807981373,-13.20252577972412,-6.170009551822353,15.488212094001785,-0.10470567939838477,0.01666666753590107
577,9660.0,0.14623568636178969,0.8150864029429853,-3.105702747070789,1.710357810974121,-1.5336353625424206,-12.497583028411864,3.240414631417415,31.254559736290243,4.152592371488142,0.01666666753590107
578,9674.0,-0.17071268662288783,0.5320331391669809,-1.3521493529707194,1.4716856868468224,-1.853411067907512,-10.721384671783447,15.813043938096543,16.850541135285017,7.999257154956827,0.01666666753590107
579,9691.0,-0.5142417541496456,0.46785102824419733,-0.7507365342378616,1.1481691875182092,-1.963693835747987,-10.104578469085693,18.290012040601667,4.586067338955239,6.997523682036186,0.01666666753590107
580,9708.0,-0.9233319658674299,0.24482319410294293,-0.12015958034098148,0.7402569335386157,-2.230946742193401,-9.46218365162313,15.286289504021404,0.503731040321789,4.021754548407847,0.01666666753590107
