,ms,accelX,accelY,accelZ,accelWithGX,accelWithGY,accelWithGZ,rotRateAlpha,rotRateBeta,rotRateGamma,interval
0,0.0,0.10648200558433309,0.023444588473439214,-0.007519289588928222,-0.19348191485172136,-1.7730575743846595,-9.643545011901855,11.495217764641568,3.538667861574127,-0.9494656637405303,0.01666666753590107
1,41.0,-0.4281028090931475,0.18717530725449322,-0.33621289929449555,0.4198829700194299,-2.4838342925474044,-9.733926124572754,-3.266692290145158,-1.0168447328507657,-18.822275022242422,0.01666666753590107
2,41.0,-0.4281028090931475,0.18717530725449322,-0.33621289929449555,0.4198829700194299,-2.4838342925474044,-9.733926124572754,-3.266692290145158,-1.0168447328507657,-18.822275022242422,0.01666666753590107
3,54.0,-0.19818397332914173,0.12624386869072912,-0.24414018027484416,0.6613980624876916,-2.527678110449016,-9.645639938354492,-3.803451457250484,-2.484059973297713,-17.593071490524615,0.01666666753590107
4,71.0,-0.16934359022676942,0.16830109543651342,-0.1827998686492443,0.6950665233336388,-2.4718629919856787,-9.587730185699462,-4.250064720472924,-3.041891554652998,-16.4223377931967,0.01666666753590107
5,87.0,-0.2521179542209953,0.14563801272958515,-0.2054085908204317,0.6157585933409631,-2.481140815679729,-9.613767128753661,-3.8008807448016206,-3.653307250707502,-16.12688600781675,0.01666666753590107
6,104.0,-0.19402692671492694,0.19760873072445392,-0.3415396472752094,0.6724712451659143,-2.4133546889156103,-9.754426476287842,-2.730509847137875,-5.551942745620137,-15.063311148377169,0.01666666753590107
7,122.0,-0.09779409234113991,0.34298341634273527,-0.45360067683458327,0.7644982984129339,-2.26012578266561,-9.869048296245932,-1.1119550103214875,-5.754340033747832,-13.823422639476522,0.01666666753590107
8,138.0,-0.06544146333411335,0.3970499375730753,-0.3616320027112961,0.7918820529662072,-2.200869291576743,-9.778967043304442,-0.5068676979764115,-5.52733485470105,-13.009579986660116,0.01666666753590107
9,154.0,-0.12790654120594264,0.4319710288286209,-0.24706103615760802,0.7239465808592737,-2.1619635145992038,-9.665990652465819,-0.01898868628478914,-5.060532406065699,-13.319813155177618,0.01666666753590107
10,170.0,-0.1319819008860737,0.3155696319773793,0.0802653768479824,0.7158661502562463,-2.273443821661174,-9.34037922668457,-1.682916136252241,-5.830799732637893,-13.622103667464042,0.01666666753590107
11,186.0,-0.10073862136043607,0.2757528776347637,0.14784136799275874,0.7411549052916466,-2.3039698928281664,-9.27588541946411,-3.2741901303065397,-6.4212111028907275,-13.631510545498443,0.01666666753590107
12,204.0,-0.12294248905777931,0.1811822043195367,0.0965478186070919,0.7104791234556586,-2.380883621160686,-9.332747708892821,-4.9313769439553425,-5.633724869420931,-13.606803189949568,0.01666666753590107
13,220.0,-0.14517156426161526,0.08072919496744871,-0.007592354825139046,0.6851904414854944,-2.465727850231528,-9.441384609222412,-5.282675771083901,-4.132146200207709,-13.229273021313576,0.01666666753590107
14,236.0,-0.10640395364575088,0.04435790490359068,-0.11157646091282367,0.7237969432555139,-2.4865274771541355,-9.549572596740722,-5.006598244171516,-2.949086145862038,-12.46880573553988,0.01666666753590107
15,253.0,-0.07250935589373111,0.011350830575823784,-0.14894436079859733,0.7588120694700629,-2.4993963110774753,-9.592219313812254,-5.224382667838781,-2.8740170307983086,-10.955665263609118,0.01666666753590107
16,270.0,-0.003932151817157864,-0.005419686961174011,-0.26705051574110983,0.8240541377745568,-2.49311182398051,-9.71671780014038,-4.267512011820899,-2.164171051727928,-9.356325243031858,0.01666666753590107
17,287.0,-0.017268749382719398,-0.004226093262434005,-0.3301888166993856,0.8081924787107855,-2.479045889227092,-9.783456171417235,-2.681846243405415,-1.379268337311688,-8.676645434761072,0.01666666753590107
18,304.0,0.028857115041464567,0.019636428362131118,-0.28830197808444497,0.8472479663573205,-2.446125616399944,-9.744550394439697,-1.0728415051525864,-1.2135854504069268,-7.773469030242777,0.01666666753590107
19,320.0,0.10438369986452162,0.062091129992902276,-0.18430150538384912,0.9172783649168909,-2.3997376669734716,-9.642048635864258,-0.7346541332703665,-2.0922670890142645,-6.938924927825708,0.01666666753590107
20,337.0,0.15791786778382957,0.06296469795703888,-0.10949965463876724,0.9666587741576135,-2.3956977439329026,-9.568426934814452,-1.1560560476883788,-3.0262269426783965,-5.85812945394123,0.01666666753590107
21,354.0,0.07917078654430806,0.013473814079165458,-0.05211304907500743,0.8810660648070275,-2.4384940986081958,-9.513360296630859,-1.7232884239408341,-2.893162691372089,-4.297434216801078,0.01666666753590107
22,370.0,0.004071487222611904,0.024523177490383387,-0.14936930821239947,0.800860236126557,-2.4209862067073584,-9.612719665527344,-1.2724506887167413,-2.693534618066011,-3.2771407720279853,0.01666666753590107
23,386.0,0.03890051628053188,0.03926438115686178,-0.21476152557730674,0.8313863072935491,-2.4024312899716196,-9.679457452282309,-0.4004741614402403,-2.526622510554059,-2.1763398875079516,0.01666666753590107
24,403.0,0.036246421575173736,0.045607758834213016,-0.27834698578119277,0.8231561660215259,-2.3949494097836315,-9.743802206420899,1.0930268485840895,-3.2191259989915433,-0.7297868230739392,0.01666666753590107
25,420.0,-0.030156214941293,0.01395253750681877,-0.15629004738628863,0.7532754781309515,-2.4290666373103855,-9.62139864654541,1.705889370803873,-3.5087337037629,-0.4955906287698974,0.01666666753590107
26,437.0,-0.12468509494140743,-0.007342325586825609,-0.13862287327051162,0.6593030629698187,-2.458246116174012,-9.601646482849121,4.933901125740485,4.061167301239759,-0.15126078238972057,0.01666666753590107
27,454.0,-0.23531148858778178,0.01642915675342083,0.04362871384620666,0.5629365192137659,-2.4512132949277756,-9.413851290130614,5.627135444419161,1.7135923300837663,-1.7390730978344393,0.01666666753590107
28,470.0,-0.17542254481427372,-0.06867021612226963,-0.06945932067334651,0.6209959094725549,-2.539050568334758,-9.526378768157958,0.9223866317240743,-3.3895223567538477,-2.000070634276494,0.01666666753590107
29,487.0,-0.3063539137341082,-0.07755027267038822,-0.09790800104439258,0.4840775020323693,-2.5453350554317233,-9.556007013702391,-0.06322538027994198,-2.7573223950549948,-3.622836496159606,0.01666666753590107
30,504.0,-0.1871590137068182,-0.0974497358828783,0.12102467273771762,0.5957071544371545,-2.5561092551633715,-9.34007995147705,-2.392577059884797,-3.2645290411689682,-1.2836604165269074,0.01666666753590107
31,520.0,0.4970708391182124,-0.3507417753845453,-0.2898614824861288,1.2659339816771447,-2.8051062278196213,-9.753229375457764,0.07496297365722294,-2.7349191611339414,2.5602144481092397,0.01666666753590107
32,537.0,0.31243688690960403,-0.22465514308214185,-0.7163783375620841,1.0724525600157677,-2.685994695226848,-10.178649082946777,4.7347528732236,-0.511896638196245,3.1049075202657703,0.01666666753590107
33,553.0,-0.15227927737496794,0.06802081230282783,-0.4884253219783306,0.5995977321349084,-2.413354981176555,-9.9461122467041,5.038432475232476,-0.7294284515859251,2.4701481586188665,0.01666666753590107
34,570.0,-0.26640176950879396,0.031815818716585634,0.049018005669116974,0.47450069539174433,-2.459892275945842,-9.406818322753905,2.102630833862701,-1.546258458390566,0.9736033388239438,0.01666666753590107
35,587.0,-0.2709085063435137,0.0660357759654522,0.03323240751624107,0.46267925162948664,-2.4298151175901292,-9.422081358337401,0.784767284571603,-2.463035156928533,-0.09050363504066553,0.01666666753590107
36,604.0,-0.11151325948350131,0.07813216421157121,-0.22207330989539623,0.62413829915151,-2.426822365514934,-9.674819271087646,2.271786231630179,-2.4763740894907444,-1.4971127927130914,0.01666666753590107
37,620.0,-0.03923522812761366,0.09925064782500266,-0.2901578350841999,0.6938693494383246,-2.410960487255454,-9.741707279968262,3.8901286922520617,-2.0719472762334767,-1.888619876268457,0.01666666753590107
38,637.0,-0.024831001330539584,0.08401186989992857,-0.2348234858751297,0.7028476787291467,-2.435201779064536,-9.68439666225016,5.06728319428661,-2.2506429541675814,-2.857049346796116,0.01666666753590107
39,653.0,0.008388254443183541,0.030315935547649858,-0.21896949866116044,0.7296328098021447,-2.506429570715129,-9.664344638824462,6.347853590544321,-1.0445773285934272,-3.5181254273150793,0.01666666753590107
40,670.0,0.11101838863864541,-0.059085518436133855,0.004970774149894714,0.8291418163023888,-2.6086317618221044,-9.437195340839027,5.537914390838576,-1.1755013828119936,-3.0295835537686346,0.01666666753590107
41,687.0,0.098815471278131,0.014214987835288047,0.06970248177945614,0.8150758084837347,-2.5454846930354833,-9.369857250103355,4.550139690147326,-1.407058882940589,-2.831358230563348,0.01666666753590107
42,704.0,0.13483729031719266,0.02565904965251684,-0.07080839719474315,0.8466493428770452,-2.541893390545249,-9.508571893310547,4.5392297436087,-1.2165070638243998,-2.051603557790594,0.01666666753590107
43,720.0,0.17522088476233183,-0.028548049092292783,0.04656067564487457,0.8854055553160607,-2.599653797857463,-9.39035818634033,3.851579531463333,0.0010869072125311698,-0.7553252205457341,0.01666666753590107
44,737.0,0.14964944032803176,-0.08763385978937148,0.15716858378648757,0.8608649152342229,-2.6638477453485128,-9.278279621124266,2.1442887979408436,0.7405583515601666,0.4289246740976937,0.01666666753590107
45,753.0,0.09129187084026634,-0.12513532292693852,0.1746779369920492,0.8054990749083459,-2.70380157007426,-9.259874195861816,-0.2407123548547926,-0.5724102999735597,1.0533033221449417,0.01666666753590107
46,770.0,0.04531242914944887,-0.12063538115918636,0.045773909181356424,0.7618048215452581,-2.6961697600215673,-9.389460360717774,-1.2404094175465652,-0.4194141426065534,1.536336968290888,0.01666666753590107
47,786.0,0.05035714531838894,-0.14350333878844976,-0.0721966366827488,0.7674910504881293,-2.7157725783750415,-9.508272618103026,-0.971744246709231,0.3020224273615013,1.9506411955833463,0.01666666753590107
48,803.0,-0.07676672107726334,-0.10021101728975772,-0.08720482072234154,0.6471824901305139,-2.6690856460019945,-9.523685291290283,-1.2626965382517283,1.425927387244455,1.7621937150617557,0.01666666753590107
49,819.0,-0.029685309493914246,-0.023712591759860513,-0.1714671582520008,0.7009023168150336,-2.5951646697446704,-9.606734161376952,-1.076330130992876,1.1797348194369321,1.5711565256276725,0.01666666753590107
50,836.0,-0.03066043813638389,0.027745500537753105,-0.18553484657108782,0.7040446334287523,-2.5447365050166844,-9.620200961193442,-0.7783107280935311,1.6453110356728546,1.0133714749361085,0.01666666753590107
51,853.0,-0.07617803446911275,0.07053571773320436,-0.0797077429652214,0.665587915392965,-2.504185006658733,-9.513210659027099,-0.572072258970497,1.9465563155728556,-0.18447444485875877,0.01666666753590107
52,870.0,-0.0379298446174711,0.09843553204983473,-0.15347732805311678,0.708234559399262,-2.478297701208293,-9.586084172058104,-0.12833942792731148,1.2286664013726092,-1.0065101230280074,0.01666666753590107
53,886.0,-0.0075428896602243185,0.06107406190484762,-0.1617722781896591,0.7399578044615686,-2.5166046355098484,-9.594014965057372,0.3748897135524006,0.7711691249860481,-1.6365171671164633,0.01666666753590107
54,903.0,-0.06730016987808049,-0.03324585151970386,-0.1452419991493225,0.6820480518065393,-2.6117741515010593,-9.577105915832519,0.5722941867576695,0.69226325787777,-2.5597662169449573,0.01666666753590107
55,920.0,0.004780585340037942,-0.030508243249356744,-0.23096739496886728,0.7558193173948675,-2.6084821242183445,-9.662848262786865,1.2134747799980314,0.8243592231475224,-2.6133797868349724,0.01666666753590107
56,936.0,0.02075776054225862,-0.06613689825236797,-0.2388876665741205,0.7752722789488732,-2.64634073023051,-9.669881230163574,1.8176770492370617,1.1543305711493044,-2.8197091294904797,0.01666666753590107
57,953.0,0.07620105001851916,-0.06751578539013862,-0.14388824645280837,0.8352769580565392,-2.650829858343303,-9.573664250946045,1.7957397622834501,0.9140526269978951,-2.4540297659512826,0.01666666753590107
58,970.0,0.1466442671626806,-0.11190350091010332,-0.09962298826873302,0.9077014852110296,-2.696918240301311,-9.528772969818114,1.273825477730618,0.25235668013132717,-1.4910973170450144,0.01666666753590107
59,986.0,0.19591266739629207,-0.13287117787599562,-0.10088906268179416,0.9563337794981897,-2.719962431280315,-9.529521157836914,0.6260448940396137,-0.610674086921029,-1.0190672123736644,0.01666666753590107
60,1003.0,0.09106967945694923,-0.1563829863667488,-0.14035130449831484,0.8482954295836389,-2.744802273504436,-9.568875847625732,0.8842058209028502,-1.2247485408316665,-0.7548998811873422,0.01666666753590107
61,1020.0,0.16410101339817046,-0.06907119813859462,-0.29718787985146045,0.9172782918516545,-2.6614541282102464,-9.724947868347167,2.970382889137549,-3.4088073958753786,-0.18792625171055397,0.01666666753590107
62,1037.0,0.1763906591940671,-0.006327157194912433,-0.3521399517446756,0.9223660434447228,-2.607434953252971,-9.778069217681884,3.9518586613101676,-1.8114408730814286,0.043702164991533225,0.01666666753590107
63,1053.0,-0.01347578684054315,0.003585165010392666,-0.20178221701681612,0.727537883349508,-2.61147487629354,-9.624241761016846,4.560205254549809,-3.194685447707122,-0.7202405664917885,0.01666666753590107
64,1070.0,0.00649286915063858,0.034037878680229186,-0.2014829418092966,0.7402570066038519,-2.5938173467889425,-9.62094973373413,4.995766417921522,-4.8020434700397425,-1.4802950527075218,0.01666666753590107
65,1087.0,-0.03935856224633753,0.03896452142745256,-0.17697101636528967,0.6850408038817346,-2.6017484320491553,-9.593566052246093,5.298511137787752,-4.503024618365755,-2.5682896526988985,0.01666666753590107
66,1103.0,-0.19645773405842482,0.06451864940077066,-0.13595160823464392,0.5189430637083947,-2.5918726424619556,-9.548824408721924,5.125920795197993,-4.61837285306893,-3.8651144050773594,0.01666666753590107
67,1120.0,-0.24810886471010743,0.05462503189593553,-0.14602467395961283,0.4610333110533654,-2.6120737189695236,-9.55645592651367,5.692972064715737,-4.54788017819252,-5.031382866235377,0.01666666753590107
68,1137.0,-0.23445823275931177,0.062249243164062495,-0.2089467018187046,0.4668691045347601,-2.618358206066489,-9.616011692810059,7.231134934670839,-5.156446618146072,-6.687251239930955,0.01666666753590107
69,1153.0,-0.23065606399737298,0.032551731775701045,-0.16327449944615363,0.4643253383360803,-2.6689360083982345,-9.564835632324218,7.335261168567684,-2.5872165337758273,-8.36403450663876,0.01666666753590107
70,1170.0,-0.21816753462851046,0.0026256723284721374,-0.08710720556676388,0.47719409919418393,-2.7127795340389014,-9.484629876708984,7.134469828668588,-1.5004561703118127,-9.474055506208076,0.01666666753590107
71,1186.0,-0.10963745567426085,0.015154022251069545,-0.09695172323286533,0.5873273755613714,-2.71367735966146,-9.490465743255614,6.316285309974169,-1.2953061025051906,-9.375884343493835,0.01666666753590107
72,1203.0,0.07039952413290738,0.017733809611201284,2.922609448432922e-06,0.7658449637815355,-2.723852716717124,-9.389908689007163,4.904863430257822,-1.7858394030815168,-8.602950254937575,0.01666666753590107
73,1220.0,0.06813143307045101,-0.05470306556820869,0.03032031946182251,0.75821359212026,-2.800916374914348,-9.35863501434326,4.148327772125115,-1.950916324140851,-9.188732891367255,0.01666666753590107
74,1237.0,0.14502974463813006,-0.062248074120283124,-0.006506897675991058,0.8337805820189416,-2.814982017406821,-9.393650213623046,3.8429384883896205,-1.9202308455209223,-9.23594401268403,0.01666666753590107
75,1254.0,0.26848566311076283,-0.1068213753402233,-0.035436639562249184,0.9531913167539984,-2.867355470983684,-9.420584982299804,3.169971261969077,-1.8578978988251513,-8.077292066224222,0.01666666753590107
76,1270.0,0.4493216112758964,-0.10327683460116385,-0.020268296524882316,1.1332054271422325,-2.8684029342100024,-9.40412484588623,2.5834338896361095,-1.611059878141062,-6.782117444860555,0.01666666753590107
77,1287.0,0.4008920730192214,-0.11786737775057554,-0.04190495879352092,1.085770306750387,-2.887107634679973,-9.424475559997559,2.1026873963667656,-1.9806528333529707,-6.401317750046243,0.01666666753590107
78,1304.0,0.4316539257034659,-0.11251491080671548,-0.0058270987182855605,1.1167452907286584,-2.8862098090574144,-9.387066159057616,1.0817303560271232,-2.2704893494615233,-4.776542104999854,0.01666666753590107
79,1320.0,0.36177374926954503,-0.15241320595294236,0.03136895173192024,1.0482111951414494,-2.9275097876951097,-9.349357482910156,-0.01784921863216061,-3.0560180934038765,-3.700217416813973,0.01666666753590107
80,1337.0,0.3133197341587394,-0.15388327850550412,-0.02927987049818039,0.9982322354856878,-2.9290058714717624,-9.410109765514731,-0.16999459056067717,-3.084231470431084,-2.6112126958773745,0.01666666753590107
81,1353.0,0.2906898230690509,-0.1491495279818773,-0.13567629842460155,0.9747392047606408,-2.926013411657512,-9.516054358020424,0.5873861300590474,-5.12220303785539,-1.0698280043464354,0.01666666753590107
82,1370.0,0.19463373350165783,-0.1771709228515625,-0.11919161209166049,0.8791207028929143,-2.957886221258342,-9.498396536254882,0.928636254814636,-3.7712821200333706,-0.5377155003108337,0.01666666753590107
83,1387.0,0.24283706178702413,-0.1550692734196782,-0.04947042561173439,0.9222164058409631,-2.9385826781123874,-9.428216500091553,0.5705271421141931,-4.777087239472985,0.2098393395173796,0.01666666753590107
84,1404.0,0.12791523596905172,-0.17866174593120812,-0.0668067603379488,0.802207047625631,-2.966864477483928,-9.444526998901367,0.4133258827351333,-3.052735547177451,0.790119271394837,0.01666666753590107
85,1438.0,0.09856668414883316,-0.18726707719117403,-0.1071791027367115,0.7695860500060021,-2.980182224218547,-9.483732051086426,1.1136823011295602,-2.192043986513692,1.3973927778828457,0.01666666753590107
86,1438.0,0.15569412731975316,-0.1738075838983059,-0.14004209241867063,0.8254008762083948,-2.9698572295591235,-9.515754498291015,1.6558118111915145,-1.7118652527191052,1.9317403546026284,0.01666666753590107
87,1453.0,0.23320889028534292,-0.1614624815881252,-0.0439016855686903,0.901715981060639,-2.9650688262388107,-9.41744259262085,1.5543687744214274,-0.5060084281623122,3.0867005838160435,0.01666666753590107
88,1470.0,0.2349917551141232,-0.11415800183862447,0.19352935245633124,0.9036612699095159,-2.922871021978557,-9.178471339416504,0.14162161122247396,-0.7645587291690923,3.9000986340061647,0.01666666753590107
89,1486.0,0.18280914793424308,-0.09594576106071472,0.21014730978012083,0.8475472415648401,-2.905064147131145,-9.162011787524818,-1.4020390140657468,-0.9754640317642433,4.168534886784598,0.01666666753590107
90,1504.0,0.08639613468796015,-0.08272446043789386,0.12518529954850674,0.7468411342345178,-2.8887536483213303,-9.248202462768553,-2.9223566274320163,-0.9380272313148746,4.177115311929426,0.01666666753590107
91,1520.0,-0.0036343379143625497,-0.12482640310823917,0.06738894414007664,0.6560110356871038,-2.926162757000327,-9.307458369335532,-3.7297972585620056,-0.8513732616451575,3.7098706085453164,0.01666666753590107
92,1537.0,-0.0782920309484005,-0.13432692964226006,-0.028536358654499053,0.5801448436461388,-2.9294550765439866,-9.405321946716308,-3.151183759439899,-0.31051019138528513,3.4287423701851187,0.01666666753590107
93,1554.0,-0.12018990241400897,-0.09933949515223503,-0.2578063020557165,0.5418376170836389,-2.892195313207805,-9.635016253009438,-0.9522426692466694,0.1670341971433659,2.6524992684193975,0.01666666753590107
94,1570.0,-0.04707205923311412,-0.07344371413439511,-0.34614860237538814,0.6171051856443286,-2.8704972761407492,-9.721955116271973,1.1145854869255887,-0.48846647466130966,2.611120701766991,0.01666666753590107
95,1587.0,0.008219254551827907,-0.06061550448238849,-0.3424450716823339,0.6696280576292425,-2.864960684801638,-9.7162688873291,2.968815360723031,-1.3120695211625175,2.4535757718148883,0.01666666753590107
96,1604.0,0.0391571944553405,-0.04339315152466297,-0.2248673245280981,0.6944678998533635,-2.857778664343059,-9.59610989151001,-8.171936290005798,5.386989408296097,4.104869412870439,0.01666666753590107
97,1620.0,1.0358145818397402,-1.2715490450799465,4.881221304741501,1.6701051494322716,-4.015524512371421,-4.512321941375732,-47.46846235413296,-21.223967609904836,7.86782638607921,0.01666666753590107
98,1637.0,-0.9308101927936077,-1.3694798424780368,1.7545967656731605,-0.3377322178162634,-3.9779654738277195,-7.68015001296997,-55.79939434895925,-8.104414747418344,-10.508088943713707,0.01666666753590107
99,1654.0,-0.3512703293032944,0.3607642799660563,-1.9352391640275715,0.2392703457487747,-2.1196160727351905,-11.404629970550536,-12.59671212680577,-3.6988082634108346,-8.539111038086403,0.01666666753590107
100,1670.0,0.9808856716264038,0.7128247367337346,-3.010742489916086,1.5845124035490676,-1.7868223342344163,-12.474240146747231,24.123070431420718,13.892511710478495,4.541707821616945,0.01666666753590107
101,1687.0,0.34701486381590363,0.5189446711435913,-2.6953356472849843,0.9703996411863713,-2.0765207351133226,-12.131719087219238,49.21404355502936,7.834553119537493,7.272466116885879,0.01666666753590107
102,1704.0,-0.05109992650970816,-0.07853869918584823,-0.014156535646319388,0.6052839610777795,-2.8254569419309497,-9.405321946716308,33.62271609512789,10.70607051454299,5.851600219981521,0.01666666753590107
103,1720.0,-0.12058584292903542,-0.36686902658194304,1.6196283232569693,0.5412389936033636,-3.158998868450522,-7.757811929321289,5.991066279530834,-2.7074197523184123,1.5729790121973024,0.01666666753590107
104,1737.0,0.14211502623520791,-0.3029752310812473,1.3047557336330413,0.7974186443053185,-3.1037828849241134,-8.070554521179199,1.7273942214056581,-1.2349925439262162,2.5167656938080842,0.01666666753590107
105,1754.0,0.16604703289940953,-0.024465455953776836,0.1611672980338335,0.8152254460874945,-2.830394398333132,-9.21303762588501,0.9061575686475951,-0.50968456403966,3.4920462709600892,0.01666666753590107
106,1770.0,0.10409808785617351,-0.16385434516072273,0.16531681892871855,0.7507317119322717,-2.971503243200481,-9.208548497772217,-0.28522597833623503,0.8086463729619081,3.8921576853223785,0.01666666753590107
107,1787.0,-0.07805018501654266,-0.21744097391963005,0.2785118209540844,0.5713161519590765,-3.022230390875041,-9.096021019744873,-2.9730419671588,2.8160084476208023,2.7090035024322088,0.01666666753590107
108,1804.0,-0.23960903965122995,-0.22372750684320925,0.29701310780644413,0.4174887683592736,-3.0138506850644946,-9.081356534576415,-6.151901012785356,2.9153505608908756,1.5499125028748173,0.01666666753590107
109,1820.0,-0.2786536405775696,-0.17740180899798869,0.11660802533924579,0.38471798700541254,-2.9507033240169287,-9.266308612823487,-7.510935341567705,3.0807476470675543,0.6354503846918387,0.01666666753590107
110,1837.0,-0.2717855083737522,-0.17509937727451325,0.04322597826421261,0.3990832700315863,-2.929006163732707,-9.344868354797363,-8.209559533275167,3.1732617056017305,-0.10608094865993742,0.01666666753590107
111,1854.0,-0.18937427860349415,-0.12504618333876133,-0.2314209839552641,0.49245720784291624,-2.8549355498716236,-9.625738137054443,-6.1091461630151915,2.6465106866211774,-0.7515453511703668,0.01666666753590107
112,1870.0,-0.06521313447095453,-0.047449733439087864,-0.508628152051568,0.6229411983214318,-2.7672479140684008,-9.905410818481444,-3.4370828849353505,2.577249580229486,-1.2749403993909167,0.01666666753590107
113,1887.0,-0.07301109487079084,-0.0769344788596034,-0.43118718497455116,0.6218937350951135,-2.7916388434812425,-9.828946002960205,-1.5546344047471174,2.650769949898915,-1.7174162755236215,0.01666666753590107
114,1904.0,-0.0330807240858674,-0.09360591993629931,-0.2781318817257881,0.6684310298644006,-2.8082486174985766,-9.675417821502686,-0.15456946209384964,2.407470073926598,-2.171133148926286,0.01666666753590107
115,1920.0,0.03560717382356524,-0.05976999356895685,-0.23042437413334846,0.7410051946226507,-2.7771237036556005,-9.626635962677002,0.6656901934684238,2.3754808829488434,-1.7767138434635565,0.01666666753590107
116,1937.0,0.10917151866294443,-0.06716945617049933,-0.15774492236971854,0.8198642118040472,-2.786401235088706,-9.553013677105307,0.5857036623674028,2.14228072232486,-0.8182177625057703,0.01666666753590107
117,1954.0,0.16867738140299915,-0.0565893177062273,-0.0488075777888298,0.8834602664671838,-2.7757772574827073,-9.443778810882568,0.19981336886774134,1.3375395100209067,0.2166305752647821,0.01666666753590107
118,1970.0,0.15938048768229782,-0.037942192642390724,0.03863748143017292,0.8747812123838812,-2.756772989544272,-9.356390450286865,-0.3169329971239036,0.7671334436819226,0.6490083101943139,0.01666666753590107
119,1986.0,0.10675393612720072,-0.0560141481667757,0.10751169569194316,0.8224081241331994,-2.7730837806150315,-9.288006065368652,-0.9979942645151767,0.46296943185050493,0.5578470560026232,0.01666666753590107
120,2003.0,-0.00012881401143968103,-0.001960194157063961,-0.010240238985419273,0.7173624532286077,-2.714874460491538,-9.406818907275795,-1.6862504425059706,1.1512130166800167,0.30831577967100693,0.01666666753590107
121,2020.0,-0.06363353712931274,-0.0566764114677906,0.0449210917443037,0.6593031360350549,-2.764704074804485,-9.35264951019287,-2.625541152095592,1.5921214711199092,-0.20205113627499321,0.01666666753590107
122,2036.0,-0.11979461948610841,-0.0622425211623311,-0.022490064227581024,0.6099227267943322,-2.7635066817134617,-9.421482807922363,-3.034858167355177,1.902775229879897,-0.8042697158078108,0.01666666753590107
123,2053.0,-0.05091463307067751,-0.08934475536048411,-0.11201543685197829,0.6893802213255316,-2.7826602949947117,-9.5124624710083,-2.5701594169841897,1.5786306735703706,-0.8910874499350495,0.01666666753590107
124,2070.0,-0.031945436445623636,-0.10525544119775294,-0.10100304445028305,0.7139207883421331,-2.794631303295493,-9.502137476348876,-2.3788829574857444,1.209522661789533,-1.0219973635275998,0.01666666753590107
125,2086.0,-0.04480827901959419,-0.10166150835901498,-0.10871113460958004,0.7038950688902288,-2.785802684673667,-9.511115732574462,-1.7165150107182972,0.7326638801792483,-0.8787321713350253,0.01666666753590107
126,2103.0,0.0008288520395755767,-0.0658867228835821,-0.2856055786073208,0.7492352628294378,-2.749141764013469,-9.688286655426024,0.1810260664417618,-0.3916636976585999,-0.5054281822479785,0.01666666753590107
127,2120.0,-0.03338452933803201,-0.06362783804088831,-0.17820085042119024,0.7086834722105413,-2.7503382803216576,-9.580397943115234,1.0382938747221329,-1.8084701676792962,-0.49116039731949784,0.01666666753590107
128,2137.0,-0.07398695416562259,-0.09805471603870392,-0.1093009171962738,0.6645404521666467,-2.7875986281797287,-9.510966679492592,0.7235508603617175,-1.0182021262266,-0.8170422762774404,0.01666666753590107
129,2153.0,-0.08430603054091333,-0.060762511737644666,-0.08874678946733475,0.6495766917906701,-2.7534809622615573,-9.489867192840576,0.4003491369619173,-2.288967785930758,-0.9731363246394442,0.01666666753590107
130,2170.0,0.04033610204160213,-0.03692921620756388,-0.09360825802385807,0.768388949175924,-2.7314845267698167,-9.494655596160888,0.49091605797411125,-2.768104275546683,-0.8695025580539283,0.01666666753590107
131,2187.0,0.04042684906497598,-0.039485330431163305,-0.0630810178130865,0.7604581561766565,-2.734626916448772,-9.464578437805175,0.25036752093769316,-4.07091440807219,-0.8286947924448937,0.01666666753590107
132,2203.0,0.03353197498470545,-0.10599807625859975,0.04984393509924411,0.7410051946226507,-2.8004674621030685,-9.352799147796631,-0.586715864385887,-3.9995769241728154,-0.9593700783672835,0.01666666753590107
133,2220.0,-0.023968320086598396,-0.03721475515067577,0.06764438020586967,0.6729201579771935,-2.730287133678794,-9.336189373779296,-1.626205609182154,-3.7848400455358457,-1.3581432025390732,0.01666666753590107
134,2237.0,-0.0353564139328897,-0.018425299006700514,-0.006420388436317443,0.6533175588194281,-2.7078414931148287,-9.411905416759849,-1.5016176226358322,-2.914875222413325,-1.551426456993033,0.01666666753590107
135,2253.0,-0.005804667690768837,-0.025630408079922198,-0.09269932648539543,0.6774092860899865,-2.7099367118284103,-9.50004254989624,-2.0111276433256866,-2.326985686068107,-2.0152148712137046,0.01666666753590107
136,2270.0,0.05557356479242444,-0.16172727000415324,0.040565234622359274,0.7354686032835394,-2.8402710647031664,-9.368660733795165,-3.6558536306074476,-2.901493387725389,-1.7248120897342758,0.01666666753590107
137,2286.0,0.10462671484015881,-0.20296090540736914,0.06911328371465206,0.7776664075437932,-2.872293511907756,-9.343222341156006,-4.909363244260391,-3.787338187224778,-1.2473434469363034,0.01666666753590107
138,2303.0,0.07565474124737083,-0.16740619242340327,0.02334288166463375,0.737713240405172,-2.8203692634031174,-9.394398401641846,-6.310708887403676,-3.9796139887761606,-0.740639246613149,0.01666666753590107
139,2320.0,-0.015501520514488219,-0.07943564802557229,-0.037602877685427666,0.6379049586974084,-2.7171193168088794,-9.460238947296142,-6.659004565731545,-3.4120961319607397,-0.9357237500172878,0.01666666753590107
140,2337.0,-0.08366802489832043,-0.0839127934396267,-0.0831190127134323,0.5626372440062463,-2.7057465666621923,-9.510666819763182,-6.601143045064605,-3.2757894617893806,-1.6370023239909457,0.01666666753590107
141,2353.0,-0.17505853380747138,-0.053770168632268904,-0.126063251426816,0.4658216413084417,-2.6596581847041842,-9.558401215362549,-5.584351993231847,-2.474199101126919,-3.173526161988657,0.01666666753590107
142,2370.0,-0.2217645362071693,-0.01718815842717886,-0.263094471591711,0.4189850713316351,-2.617011467632651,-9.697115274047851,-3.8611614330952144,-1.814066867373887,-4.004505332545802,0.01666666753590107
143,2387.0,-0.19954247526600954,0.01478957285284996,-0.30943653604984284,0.44172998710311945,-2.57930279148519,-9.744998722729086,-2.3531916278095646,-1.0300019183480316,-4.471365837789099,0.01666666753590107
144,2403.0,-0.12385858098939061,0.04471621682196855,-0.14772797074615954,0.5184941508971155,-2.5438389716550707,-9.584737433624268,-2.5212913344634527,-1.3953884375265644,-4.640274708416222,0.01666666753590107
145,2421.0,-0.06769779089353978,0.019257365916669367,-0.02531564304232597,0.5713161519590765,-2.5629925849363207,-9.464279162597656,-3.4956895365520566,-1.7971213814864968,-4.751443294234173,0.01666666753590107
146,2437.0,-0.0738837129868567,0.005019873988628387,-0.0454395626604557,0.5612905055724084,-2.5674817130491134,-9.48732335357666,-4.053886746471349,-2.7535267308671716,-5.451714842192077,0.01666666753590107
147,2453.0,-0.01976195443794131,-0.01646042867451906,-0.10816460664272308,0.6063314243040978,-2.5742151129573583,-9.554660275268555,-4.444171439608693,-2.632853083045502,-5.787029746002336,0.01666666753590107
148,2470.0,-0.04279635467529297,-0.01853138972967863,-0.11060498553216457,0.5776010043822228,-2.5634414977476,-9.560945054626464,-4.259382806048114,-2.497245013160188,-6.529546013976769,0.01666666753590107
149,2487.0,-0.011250365876033902,-0.022739655074477193,-0.12087561965584755,0.6076780896726995,-2.5561089629024267,-9.574411854442953,-3.9909410037409807,-1.7069622441120937,-7.035166988986242,0.01666666753590107
150,2503.0,0.06373524393811822,0.013307225340604781,-0.20682488735914228,0.6827962398253381,-2.507925946752727,-9.663596450805663,-2.69816826108763,-1.4127885578805834,-7.206790432921622,0.01666666753590107
151,2520.0,0.10186053806245327,-0.012737901020050048,-0.20181962641775608,0.7209537557188421,-2.527528472845256,-9.660304423522948,-2.0484076695892623,-1.5126495520841663,-6.838546333349084,0.01666666753590107
152,2537.0,0.09574972703196108,-0.015270049846172333,-0.20208558387756345,0.7148186139646917,-2.5254335463926196,-9.661800799560547,-1.2354195374710477,-1.9173278016802553,-6.177627347181032,0.01666666753590107
153,2553.0,0.07824731502383947,-0.004235153351724147,-0.1760585776954889,0.6932707259580493,-2.510918406566977,-9.636960957336425,-0.6645807146151199,-3.5441569857892903,-5.897770591223515,0.01666666753590107
154,2570.0,0.007098214632645249,0.030802257759869098,-0.08179623967707157,0.6144117818418889,-2.4744068312495946,-9.543587092590332,0.13081417088225106,-6.027784095848354,-5.964756817734768,0.01666666753590107
155,2586.0,0.04216086978334933,0.04255114774256944,-0.08113572994172573,0.6402991238249466,-2.46123901437968,-9.543886367797851,-0.13772151984554382,-5.234890486990023,-5.946815191445614,0.01666666753590107
156,2603.0,-0.012224836931377648,0.07642536029368638,-0.11770049675107001,0.5738600277556106,-2.4253256972163912,-9.581744681549072,0.07080988513652463,-6.3482907226512015,-6.3972170752232955,0.01666666753590107
157,2620.0,0.004608516708761453,0.03215454915165901,-0.10556874493062496,0.5822397335661574,-2.468122344152629,-9.570521861267089,-0.11944896288697464,-5.418913712476737,-6.649614763170069,0.01666666753590107
158,2648.0,-0.13327146577257662,-0.09007394641786813,-0.09504501282870768,0.43439778105150906,-2.583941849462688,-9.562291793060302,-1.1111742343219904,-3.2188636770387324,-8.00391192887619,0.01666666753590107
159,2665.0,-0.13253062081001699,-0.09146189364492893,-0.09463526298403739,0.43439778105150906,-2.583941849462688,-9.562291793060302,-1.292463890036819,-2.7808906031163585,-7.96651237430214,0.01666666753590107
160,2670.0,-0.0006768763482570648,-0.1251844227656722,-0.21976854008436203,0.5656299595488236,-2.6128219069883225,-9.688735568237304,-0.5985559439512511,-2.853574488055872,-7.888676392294321,0.01666666753590107
161,2686.0,0.10001892878375947,-0.08709580738991499,-0.2788824078321457,0.6640915028227493,-2.572419461712241,-9.74859060974121,0.2747075403752683,-2.822039718101335,-7.918844484084621,0.01666666753590107
162,2703.0,0.1046016169315204,-0.060359191633760925,-0.17906769638359546,0.6643907780302688,-2.545484985296428,-9.649082187762856,1.3359197946922616,-4.43688234710382,-7.712923672118845,0.01666666753590107
163,2720.0,0.15957732542864977,-0.009896832375228405,-0.22185060705542564,0.712723687512055,-2.4976003675714136,-9.69157809818685,1.5186627865964222,-3.40552442276213,-7.049459159824494,0.01666666753590107
164,2737.0,0.10323339731823652,0.002920271360874176,-0.23755437214374542,0.6524197697294876,-2.488473058263957,-9.706542443084716,1.9784407058355329,-2.8355018075120184,-6.682698491962319,0.01666666753590107
165,2753.0,0.04074599801674485,-0.01630874524414539,-0.19912848763763905,0.5879259259764105,-2.514509709057212,-9.66643898075521,2.491898896030772,-1.40488346768994,-6.268529054184262,0.01666666753590107
166,2770.0,0.08285550293903797,-0.009011866234242915,-0.13035305757522583,0.6319194180143997,-2.5121155073970556,-9.59625952911377,2.280779242889559,-1.1503344835980238,-5.884624611505355,0.01666666753590107
167,2786.0,0.06738518128041178,-0.0003182721689343452,-0.07624269720315932,0.6189009464873001,-2.507626671545207,-9.540893615722656,1.854665298357031,-0.6234690589488727,-5.858594760578437,0.01666666753590107
168,2803.0,0.08326952710002661,-0.005474924279749393,0.041380058136582375,0.6389523488584905,-2.5146590544000267,-9.42253027114868,0.3525426152485882,-0.6801026396690912,-5.066931866431178,0.01666666753590107
169,2820.0,0.034466917747259136,-0.03172609460651874,0.037765374770760536,0.5919661778105423,-2.5389009307309984,-9.426570486450196,-0.4554832243550536,-1.1220524845139992,-4.968596352290034,0.01666666753590107
170,2837.0,0.0296573255084455,-0.029973697981238362,-0.008105565044283867,0.5874770131651311,-2.5345611479610204,-9.473107781219483,-0.6176536331182828,-1.2300694716385179,-4.777999069727183,0.01666666753590107
171,2853.0,-0.010361198483966291,-0.010873568452894687,-0.12778466839194297,0.5485712727202102,-2.51226543726176,-9.593566052246093,-0.24359776293357918,-1.270711018190798,-4.4176276169467315,0.01666666753590107
172,2870.0,0.01281582509446889,0.04795446809083223,-0.19389643220305441,0.5726629269255324,-2.4525597411006688,-9.659855510711669,0.13786672806647268,-1.1083252983861545,-4.337836493288997,0.01666666753590107
173,2887.0,0.0009883534502238035,0.05824672952443361,-0.1650917780011892,0.5615897442473098,-2.4423846763059496,-9.630975453186034,0.049583411434163775,-1.1801974580314947,-3.929168346000562,0.01666666753590107
174,2903.0,-0.007601159186102449,0.04878711952269077,-0.13883856184780596,0.553210038436763,-2.452111120550334,-9.604639234924315,0.10354373348647601,-1.4047472907933627,-4.109988212766541,0.01666666753590107
175,2920.0,0.043842246999032795,-0.018730419433116912,-0.16378654062151907,0.6040868237150833,-2.5195976798459885,-9.629628714752197,0.17644423680829974,-1.2913640161370354,-4.22976582514647,0.01666666753590107
176,2937.0,0.09326254985872656,-0.01656856522411108,-0.18385200805068014,0.6521204579893499,-2.5178014440789815,-9.649679569134115,0.92814992400139,-1.5490754845363732,-3.5656804059678815,0.01666666753590107
177,2954.0,0.12099365654494612,-0.00514262358546257,-0.1446539701282978,0.678905625594966,-2.5071774664729833,-9.610325463867188,1.012927726083469,-0.9810975504473287,-3.424552049129316,0.01666666753590107
178,2970.0,0.10883658762015401,0.03747136026024818,-0.11950783843398094,0.6666353420866653,-2.465129592077434,-9.585036708831787,1.0323865081420123,-0.7737295921511567,-3.168008222912933,0.01666666753590107
179,2987.0,0.14849493653066456,-0.009383622156083583,-0.04813420857191086,0.7073367703093215,-2.5134625380918383,-9.513210659027099,0.23895096646172265,-0.272538821911657,-2.318622119429426,0.01666666753590107
180,3004.0,0.15440079957358538,-0.045131227363646026,0.02436930210292339,0.713322237927094,-2.5483280997678635,-9.440935696411133,-0.4175193787616831,-0.8245213334186045,-1.4651937178960353,0.01666666753590107
181,3020.0,0.06348828343972564,-0.08207914827167988,-0.06708207014799118,0.622791524185054,-2.58244547342509,-9.533112460327148,-1.1524772420067038,-0.5689925373459088,-1.2102326812980968,0.01666666753590107
182,3037.0,-0.021147928903624415,-0.05902268233299255,-0.05817220298349857,0.5395930164946243,-2.552517952673137,-9.525929855346678,-2.142391072568638,-0.30832666528499664,-1.3435792115161962,0.01666666753590107
183,3054.0,-0.009466112807765603,-0.01940145056247711,-0.13052724509835242,0.5527610890928656,-2.507177758733928,-9.599701194000243,-1.797145714035415,-0.1505660507655098,-1.4073456441640237,0.01666666753590107
184,3070.0,0.027486776536330578,-0.006956979531049728,-0.13709610209465026,0.5928640034331009,-2.489969434301555,-9.607332711791992,-1.5944695620905127,0.057533004576118145,-1.2629879952302174,0.01666666753590107
185,3086.0,0.04927479344177991,0.01339139649271965,-0.09060849168598652,0.6174045704497024,-2.466326400646567,-9.561543605041503,-1.3133408968434919,0.3424361497523643,-1.26954977931019,0.01666666753590107
186,3104.0,0.07945639855265617,0.04182371025085449,-0.18712416158914566,0.6521204945219681,-2.4368480849668384,-9.658059859466553,-0.36334696065934347,0.80388242273753,-1.0992141461984748,0.01666666753590107
187,3120.0,0.040136889675073326,-0.02002016698271036,-0.02602934426963329,0.6147110935820266,-2.4984987777158616,-9.496900160217285,-0.9633087496408537,0.7802338532317128,-1.1970066603006018,0.01666666753590107
188,3137.0,0.06676935093700885,-0.004342997640371322,-0.0348825128108263,0.6441897015227005,-2.4771006003782152,-9.507075517272948,-1.8191305988698052,0.8060022893403198,-1.3082265792590333,0.01666666753590107
189,3154.0,0.05196841643992811,-0.005031272165477276,-0.11994856793880462,0.632966881240718,-2.4732100226804614,-9.593117139434813,-1.5470817096289642,1.2133813985054727,-1.196303364259502,0.01666666753590107
190,3170.0,0.13030874350946395,-0.014278700721263885,-0.18356851493418216,0.71586607719101,-2.4785969764158127,-9.657461309051513,-0.8944718620296438,1.4762862652732531,-0.5163301780195237,0.01666666753590107
191,3187.0,0.159866444568336,-0.04471095612496137,-0.13074001106619834,0.7514798268858343,-2.5058307280391454,-9.605087563213706,-0.5832852951535422,1.2796137428870864,0.2505106347451461,0.01666666753590107
192,3204.0,0.06560523906107991,-0.0005406827479600906,-0.061768766170740126,0.6610987142149358,-2.4601915511533616,-9.536254850006102,-1.1235405052577099,1.5530825644233495,0.09091091175035397,0.01666666753590107
193,3220.0,0.04524857013300061,-0.004361994601786137,-0.06733692169189452,0.6455364399565383,-2.46123901437968,-9.542240354156494,-1.2588682172219363,1.7561304280694885,0.011054447728254075,0.01666666753590107
194,3237.0,0.060478287968784565,-0.026629355989396572,-0.10644552776515483,0.666784979690425,-2.4793451644346116,-9.582043956756591,-1.3875526097229731,1.737279212681959,0.4617176396025414,0.01666666753590107
195,3254.0,0.03522770951930433,-0.05810615200996399,-0.0645762248069048,0.6467335407866165,-2.5073272502072155,-9.540743978118895,-1.398630536226499,1.9171651578006443,0.44383431004517043,0.01666666753590107
196,3270.0,-0.0020140432361513377,-0.06482113947868347,-0.1117319437354803,0.6165067813597619,-2.5106194236204025,-9.588328736114502,-1.5615251051243082,2.266950884584633,0.6930813864742906,0.01666666753590107
197,3286.0,-0.010186170710623263,-0.06929170902147888,-0.07686345945000649,0.6132147540770471,-2.5115171031124888,-9.554061724853515,-1.5167680494319784,1.9456718060753388,0.8850197873528453,0.01666666753590107
198,3304.0,-0.013587868912890553,-0.05768982629403471,-0.05321779544651508,0.6162074330870062,-2.495356241906434,-9.531167171478272,-1.6118463103909657,2.3306295919903084,0.5923109098940381,0.01666666753590107
199,3320.0,-0.0072918375086039305,-0.048827743794023985,-0.031635493713617326,0.6295251798216254,-2.482786683190614,-9.510068269348144,-1.395328566649621,3.0204261910823518,0.26835445059095153,0.01666666753590107
200,3337.0,-0.02998480389714241,-0.06380319460779428,-0.05281272177696228,0.6162075061522424,-2.4932613154537973,-9.53176572189331,-1.822155305455063,3.192318573716301,0.14141178300869442,0.01666666753590107
201,3354.0,-0.040300738467276095,-0.08194514662846922,-0.07381400875151158,0.6142621442381292,-2.507027974999696,-9.553312952312826,-2.10488543661904,3.769756853414342,0.17768192845088687,0.01666666753590107
202,3370.0,-0.04445749282054603,-0.08563055714294314,-0.13211772916018963,0.619649171038717,-2.5067288459226487,-9.611971477508545,-1.9573657302646355,4.604256132714983,0.47957853092127184,0.01666666753590107
203,3387.0,-0.013813786623254418,-0.050263621816039085,-0.06297288126349448,0.6645403791014105,-2.4667753134578465,-9.542987957653402,-1.9404945226844692,4.665384618239305,1.079862619454242,0.01666666753590107
204,3404.0,0.04036700863651931,-0.018064941261708736,-0.02479074238538742,0.7263407094541937,-2.430563305608928,-9.50527986602783,-2.25076973955405,2.86639389935434,1.7970274663854091,0.01666666753590107
205,3420.0,-0.007862111677229404,-0.032533465466648336,0.14470014735758305,0.6824969646178185,-2.4404392413266,-9.336638286590576,-2.963578740063747,2.4280989527673293,1.7231565159124882,0.01666666753590107
206,3437.0,-0.09438779102899134,-0.05097469269484281,0.16279109984338283,0.5988495441161096,-2.4480709052488208,-9.32107597579956,-4.808065135566755,1.74889864512062,2.2107382142720167,0.01666666753590107
207,3454.0,-0.131928636328876,-0.09398907403498888,0.08986088818907738,0.5636847072325647,-2.4787464678891,-9.39694224090576,-6.00716162030997,1.9967929972485339,1.9733724920279718,0.01666666753590107
208,3470.0,-0.28296061705648895,-0.04209858166947961,-0.04298632428944111,0.41703978248275814,-2.4135046187803146,-9.532813185119629,-6.236573587265535,3.291929412241532,1.8157771894307404,0.01666666753590107
209,3487.0,-0.13063706214837728,0.028467385071516034,-0.017341595423221588,0.5805936103269458,-2.3237217642635106,-9.511115148052573,-6.6529982681301645,3.727379371595821,1.8018137214462957,0.01666666753590107
210,3504.0,-0.09872107099294662,0.018784633838385342,0.10876315705776214,0.6200980107847601,-2.316090392602235,-9.388712172698973,-8.771084752867546,3.1257381031304283,1.288522230555487,0.01666666753590107
211,3520.0,-0.1866392276164144,-0.016423165404051542,0.2489396895110607,0.5361513881407678,-2.3294082854673266,-9.253589416503905,-11.443724114715197,2.1079489899052026,0.1830239367946302,0.01666666753590107
212,3537.0,-0.08186645536907017,-0.08059124780148268,0.012279635858535766,0.643142201763764,-2.3566421832211315,-9.498994502148031,-12.571839139169523,1.93373583705733,0.19361494551552832,0.01666666753590107
213,3554.0,-0.05636259627826511,-0.08914923278838395,-0.10597849477529525,0.6706755208555608,-2.337039657128602,-9.623792848205566,-11.322983445662295,2.281636218186984,0.8874625938373297,0.01666666753590107
214,3570.0,0.08426913259662687,-0.1217947803273797,-0.1734317363232374,0.8114845059935003,-2.3452698714658617,-9.69696563644409,-10.32999261487927,1.588186748549453,2.1198725792053406,0.01666666753590107
215,3587.0,-0.006770517048239708,-0.21184929139241576,0.05994155074357986,0.720355205303803,-2.4033291155941785,-9.471012854766846,-11.3414889894448,0.9443201834179835,2.3681888022362085,0.01666666753590107
216,3604.0,-0.07125365674421191,-0.243233148432523,0.0684101038813591,0.6552629207335412,-2.4076686061032113,-9.468768290710448,-12.535857702621895,1.0133339088956732,2.247319213362724,0.01666666753590107
217,3620.0,-0.04697648990415036,-0.30543811406344173,0.0234235456854105,0.6777084882322698,-2.441037791741639,-9.520392679485678,-14.716424623452438,0.4278068709513388,2.609010173313457,0.01666666753590107
218,3637.0,0.01614062213562429,-0.44888796909898515,0.35385610801279543,0.7356182408872991,-2.5291744864866135,-9.202562993621825,-21.40294076427397,-1.2207676077626068,3.6854928096238946,0.01666666753590107
219,3654.0,-0.05502871732600033,-0.5063233822405337,0.25177812780737874,0.6591534253660589,-2.5363570914670825,-9.315838659667968,-20.875429886748254,-0.1397893195961255,3.4424812957005995,0.01666666753590107
220,3670.0,0.021395035532489417,-0.47058512938320635,-0.36437399489581584,0.7417533826414495,-2.457498074285686,-9.94057623988688,-18.94398387061017,4.349169057782516,3.707453575352778,0.01666666753590107
221,3687.0,0.15388123267889023,-0.40561449843123554,-0.3147574388116598,0.8892960599485784,-2.3374885699398815,-9.901071327972412,-17.128080749566607,6.980452904866208,5.305154777416059,0.01666666753590107
222,3704.0,0.10642002799771726,-0.36956484153717756,-0.28224808487296105,0.8580218007627874,-2.261173392022401,-9.875333660125731,-16.010904273068057,7.9731009455302635,6.408142816574378,0.01666666753590107
223,3720.0,0.08157543653324247,-0.3006039719052613,-0.054370472612977026,0.849193109075725,-2.152835766900331,-9.653869422039389,-16.83801286079992,7.166464996061866,7.789449111579668,0.01666666753590107
224,3737.0,-0.08202997536770999,-0.34814679045528174,0.13629296901822088,0.6988073903623968,-2.143408743993938,-9.472958143615722,-19.393290789686535,4.052009725110064,9.292987191311038,0.01666666753590107
225,3754.0,-0.18930450130291282,-0.29520868873298167,0.11915712530016899,0.5963057048521936,-2.0383631461545826,-9.49929436187744,-23.354701470550964,2.922218529544735,9.060351801954049,0.01666666753590107
226,3770.0,-0.35087190457023676,-0.13236702774614095,-0.08862462439239024,0.43709122138656675,-1.8177971720822155,-9.71716671295166,-23.249670236589093,2.470181669234482,9.335981524588975,0.01666666753590107
227,3786.0,-0.35939123804718254,-0.019691519550234078,-0.23285189354121683,0.4303575292173773,-1.651998707116395,-9.870395619201659,-19.84343099184164,2.0402643765513147,8.652137008471774,0.01666666753590107
228,3804.0,-0.4859073478080332,0.11927446806952356,-0.43919981103837485,0.30555984074696896,-1.466448224584758,-10.084377392578125,-9.154609266273871,1.1817057558993038,7.638483147902169,0.01666666753590107
229,3820.0,-0.5319628504097461,0.43373818463161584,-0.34538463226556776,0.2588729083739221,-1.136796437371522,-9.993098454284667,-4.4397659675940355,0.5853970509066927,6.794861297191329,0.01666666753590107
230,3837.0,-0.4594827936757356,0.44716085304543374,0.12288520591259001,0.3236659177366644,-1.1158471728451549,-9.526678043365479,-1.6186383999120144,-3.3921568887827687,5.228887604483227,0.01666666753590107
231,3854.0,-0.5593767078403383,0.34884763220101594,0.413837406244874,0.21158735252059996,-1.2087721247799694,-9.23757819290161,-3.894303645382232,-4.448355357362149,2.94530350172232,0.01666666753590107
232,3871.0,-0.691286493338272,0.15556787059158086,0.5773521441876888,0.06808496358022094,-1.3856439185544847,-9.077615594482422,-9.570448258417173,-3.915671465313794,1.2099861541577417,0.01666666753590107
233,3887.0,-0.5467691552016883,-0.010245061291009187,0.31793080815076824,0.2005141698423773,-1.5067005938656628,-9.345017407879233,-16.61349600504514,-2.5716283345425657,1.1134104809449348,0.01666666753590107
234,3904.0,-0.5166945541292428,-0.07379632696434855,0.22385785522460935,0.2265511128965765,-1.5228616012021898,-9.446621925354004,-21.039028285295693,-0.48667136220921275,1.2931548063600482,0.01666666753590107
235,3920.0,-0.4993456521824002,-0.16814795070141553,0.10903437521457672,0.2404674100462347,-1.5560811492368578,-9.57067149887085,-25.199328952149017,0.7739510396906532,-0.1003131207101261,0.01666666753590107
236,3937.0,-0.44929443100802596,-0.39991877100765705,-0.24622224724590777,0.291493905993551,-1.6967404967710376,-9.938480728912353,-27.323609991576777,1.4646086695049412,-2.849954060908942,0.01666666753590107
237,3954.0,-0.37111915830709036,-0.44091976669877764,-0.49232232941687104,0.3733456021849066,-1.6708530451901256,-10.193014292907714,-24.5486629336988,0.25292353247158533,-4.636209038312772,0.01666666753590107
238,3970.0,-0.3378602281101048,-0.470877171132341,-0.5907166526734828,0.40566732459701593,-1.6403270470883697,-10.298957131847738,-22.66149191130803,-2.3278783064152626,-5.698439631146332,0.01666666753590107
239,3987.0,-0.5778767525836825,-0.4633211297295987,-0.5698994900941848,0.1599623792234808,-1.5580264380857347,-10.287285983276366,-20.012257900198723,-3.075939193891865,-8.895188436313033,0.01666666753590107
240,4003.0,-0.5926978165533393,-0.4684408838961273,-0.48807811597585676,0.13631963782943785,-1.513733707372844,-10.211569355773925,-17.499745493252853,-6.243997149119692,-10.992355332283134,0.01666666753590107
241,4020.0,-0.4354678579684347,-0.41333639792017635,-0.03531155187785625,0.27593152213729916,-1.4130275269772856,-9.764901108551024,-17.13890830694837,-10.053360561983645,-11.393691271497561,0.01666666753590107
242,4037.0,-0.5142061713796109,-0.21502456042766568,0.2970809123456478,0.1605610027037561,-1.1532567199155688,-9.441234971618652,-17.19486292417641,-13.674756742002025,-11.39463639892396,0.01666666753590107
243,4054.0,-0.5521322896700352,-0.26914763415083287,0.4857406129390001,0.08723850379623473,-1.1598407014157623,-9.259425283050536,-19.052911727493534,-15.74961538636922,-10.624159470921612,0.01666666753590107
244,4070.0,-0.9157176914714277,-0.3405195104472339,0.5671007992863655,-0.3094507472382858,-1.1761512002255767,-9.185054809460043,-22.617433776066864,-11.352008334540265,-10.604576464797539,0.01666666753590107
245,4087.0,-1.0015908251985908,-0.32678098101727665,0.04093114532530308,-0.4206314868317917,-1.0788868308469652,-9.719560914611815,-24.02467643378481,-5.836683940607859,-9.297792229392142,0.01666666753590107
246,4104.0,-0.8460412209160626,-0.34011275627724824,-0.23414017978608606,-0.27653051094375547,-1.0330976510312408,-9.999682508850096,-20.959142392763223,-4.567466599411179,-8.090461524717654,0.01666666753590107
247,4120.0,-0.8865471265666186,-0.35588987886272366,-0.3447030797421932,-0.32426490654312073,-0.9977831765439361,-10.114155275726318,-18.427730852383927,-1.8464887081468797,-8.363919247196515,0.01666666753590107
248,4137.0,-0.8430323944889009,-0.43576874061115084,-0.2991886982798576,-0.2804211251741275,-1.0146922623014076,-10.072555437359213,-17.670221892294492,0.47418529615875343,-9.777335542150505,0.01666666753590107
249,4154.0,-0.8475039869450032,-0.38664628818687047,-0.35071488737761974,-0.28027145103774964,-0.9196724204465746,-10.126425559234619,-16.673731443335484,2.118777614504023,-10.765525603720658,0.01666666753590107
250,4170.0,-0.7288051268063486,-0.13689692626073954,-0.580080107846856,-0.15233129982315002,-0.6305725334500893,-10.357316381835936,-12.046257790084333,3.7831295100355806,-10.525312973253186,0.01666666753590107
251,4187.0,-0.6588241203464568,-0.11162234588116407,-0.7553320453345775,-0.06539177897349,-0.5759548080777749,-10.532990928649902,-4.143430953377039,5.628101489299894,-11.041851151877278,0.01666666753590107
252,4204.0,-0.6690954120572656,-0.08618563374243676,-0.7111369297772645,-0.05850852226577699,-0.5428848976468668,-10.488099063000082,-0.4347104846549292,6.332439988021718,-11.935493466087882,0.01666666753590107
253,4220.0,-0.6057173840589821,-0.13282255296129733,-0.5174041637033224,0.021248320538178087,-0.5907689308499917,-10.293271487426757,2.935935256945413,5.367174602627067,-13.674696124073142,0.01666666753590107
254,4237.0,-0.659862888809666,-0.11586560947410762,-0.27991642705500125,-0.013617168072611093,-0.5849330643033609,-10.054000959014893,4.85391875678599,4.590628624660338,-15.1632265706507,0.01666666753590107
255,4254.0,-0.7374392457693815,-0.08363331891112029,-0.1906201870113611,-0.07736286033950746,-0.5621881485318765,-9.963320571136475,4.516745187747841,4.8108437418984815,-16.009586046558244,0.01666666753590107
256,4270.0,-0.7497375863283872,-0.07380019942186772,-0.22479601285755632,-0.07511822321787476,-0.560691809026897,-9.996091206359862,4.482368418768344,4.973702772468265,-16.961866388567056,0.01666666753590107
257,4287.0,-0.6590807985212653,-0.015351663715019821,-0.3227975374042988,0.033069691235199566,-0.5162494407102466,-10.092158547973632,6.6577170750729975,3.5249016153019666,-17.592764132011965,0.01666666753590107
258,4303.0,-0.670919924070686,-0.004885908878035843,-0.31814883481562134,0.032022301074117424,-0.5223845459317789,-10.085873768615722,8.985803702257945,3.1812105516917444,-18.03077733329571,0.01666666753590107
259,4320.0,-0.6728217391040175,-0.0654356546478346,-0.29794074404537674,0.04040193381942808,-0.6049845032071695,-10.063726818737386,10.838828047666881,3.0141562908676915,-17.792845986011024,0.01666666753590107
260,4337.0,-0.6585385083381087,-0.03137695237528532,-0.40079263123273845,0.06748634009994565,-0.6076780166074633,-10.16353568496704,13.292075756958196,2.4966104458976113,-16.447274813856417,0.01666666753590107
261,4354.0,-0.6050212915536016,-0.025602862485870716,-0.4426046510457992,0.12868812003768978,-0.6353609367704018,-10.20274015263021,15.105841028791545,1.4830453777872155,-14.786034496378623,0.01666666753590107
262,4370.0,-0.5239593575004488,-0.003966711673885584,-0.42347091150879856,0.21383191657699643,-0.6510729216977954,-10.180893647003174,16.10387510050298,-0.1570346134354821,-12.972671351932659,0.01666666753590107
263,4387.0,-0.43919374662376937,-0.014274097611382602,-0.3650806818604469,0.2965814383909106,-0.7151177430417388,-10.11894309452474,16.97742897459093,-2.7019338297544224,-11.063188662844398,0.01666666753590107
264,4404.0,-0.4226996348753571,0.0017513006467372177,-0.3566016073286533,0.3061583180967718,-0.7411547591611742,-10.107870496368408,17.41074300572571,-4.1166617344724665,-9.980366330323719,0.01666666753590107
265,4419.0,-0.33285284827686845,0.03532733396887779,-0.28743220951259135,0.3862144361082464,-0.7507315658017992,-10.03604444656372,17.573419328735195,-5.248101780392119,-9.019623383933263,0.01666666753590107
266,4437.0,-0.2491684567656368,0.15023936904519797,-0.20582067875266075,0.45489809623397887,-0.6929714507505297,-9.950751012420653,17.10419216294449,-4.036097091891227,-7.732465697107898,0.01666666753590107
267,4454.0,-0.34215485656410455,0.2508686117470264,-0.17895546818077562,0.3561372777525335,-0.633265973785147,-9.92067385406494,15.749089461803129,-2.432566323371341,-6.224210517980988,0.01666666753590107
268,4470.0,-0.00029576807618141173,0.1640222490735352,-0.14670447291731833,0.6896794234678149,-0.7547717080380767,-9.885807707867025,12.113787016634603,-5.218785327813955,-5.319316747773257,0.01666666753590107
269,4487.0,-0.038274274140968914,0.2763841612756252,-0.32701544736027716,0.632817134039104,-0.6763616036679595,-10.064176316070556,9.814368827830315,-7.351697165031673,-5.267516166221057,0.01666666753590107
270,4504.0,-0.04467866129055619,0.3517017795231193,-0.39192660320997236,0.6049846128050238,-0.6289265563413501,-10.127772297668457,13.120375900281477,-10.34466556876375,-5.341318067750338,0.01666666753590107
271,4520.0,-0.35650954513102767,0.39292379755377765,-0.1842073973596096,0.2650079770628363,-0.6257840935971588,-9.917980377197265,17.412332732255027,-12.910819720129963,-7.444037907515661,0.01666666753590107
272,4537.0,-0.4968288105232641,0.2518745008539408,0.06683423286676407,0.08230046287216246,-0.8303387710019946,-9.662698625183104,20.850175262292133,-12.970745238586716,-10.225841621546685,0.01666666753590107
273,4554.0,-0.4907259270709008,0.10349040428660809,0.1506277838408947,0.06808489051498472,-1.0350430129453538,-9.573664250946045,24.26396357361974,-8.178646097091688,-10.07888327136469,0.01666666753590107
274,4570.0,-0.19710191371347754,0.019398308757320046,-0.06162205117642879,0.33862964158002284,-1.176600113036856,-9.78031378173828,21.16845695497285,-12.456126343119397,-12.711871677533123,0.01666666753590107
275,4587.0,0.01345485365036875,0.3693874391436577,-0.4862210899323225,0.5153516881529242,-0.8819637442991137,-10.199747985076904,13.359567417468032,-7.946481137013785,-7.983673224591797,0.01666666753590107
276,4604.0,0.09826770120225846,0.47680634198561306,-0.7232447162002325,0.5868784627500921,-0.8060973330624401,-10.433332284545898,12.689813581608567,-4.93797149159899,-2.0069795840653732,0.01666666753590107
277,4620.0,-0.05121588103957474,0.43822015235126016,-0.8693792802751064,0.4263173139158636,-0.8785219332821667,-10.575487423595785,13.562695535836918,-4.056201326826336,0.0911478339371888,0.01666666753590107
278,4637.0,-0.2966929359413683,0.44512467104271053,-0.2895464251875877,0.16759386048261074,-0.9111429309017955,-9.99085330570638,9.028489823249586,-3.8106799318264732,-1.0552020080124995,0.01666666753590107
279,4653.0,-0.32381128102410583,0.39202772549688814,-0.14374913024306296,0.13198014732040464,-0.9805749251767992,-9.843161575317382,4.431962903354119,-4.294063091558854,-2.9818988015216026,0.01666666753590107
280,4669.0,-0.1369485468501225,0.4543909504294395,-0.08420096273124217,0.3049611807340756,-0.92595690754354,-9.783156311687826,2.4309958067490607,-7.742589745005149,-3.8414016958263675,0.01666666753590107
281,4687.0,-0.2020588420011103,0.5234811455294489,-0.1279880820095539,0.2130837650908157,-0.8626604934141039,-9.827299989318847,1.214615741754541,-7.974138280510459,-6.1816055054857415,0.01666666753590107
282,4704.0,-0.21566585400588809,0.45739875394329427,-0.21308803940713406,0.18555037293378263,-0.9283512553341686,-9.913041751751303,-1.1965267327897027,-5.15842523857126,-7.914417667728807,0.01666666753590107
283,4720.0,-0.003748538878560066,0.36151086054965853,-0.18815818081200122,0.39190066505111754,-1.0136448356077075,-9.889848507690429,-2.3897327129823096,-3.089510139442446,-9.800251680589545,0.01666666753590107
284,4737.0,0.6420923273846507,0.20294351588115095,-0.001893266400694847,1.0197800869597122,-1.1541545455381275,-9.706841718292235,-5.740029933663009,-8.492874072500003,-10.350559168243825,0.01666666753590107
285,4754.0,0.5295540357023477,0.15575228724777698,0.22720424304306505,0.8900442479673772,-1.181238951818645,-9.48118821182251,-5.957559505896867,-7.36914061439824,-13.484272157560477,0.01666666753590107
286,4770.0,0.3105688280154019,0.0770066673129797,-0.03194762840270996,0.6560110356871038,-1.2397472548887132,-9.743652568817138,-1.8701841284815348,-7.268689876048509,-16.067663145070863,0.01666666753590107
287,4787.0,0.17800960216540843,-0.10667071482315658,0.15822539936304092,0.5093661840025335,-1.4172174529477952,-9.554809912872313,2.7364845551143437,-4.357399008845559,-18.83578172132612,0.01666666753590107
288,4803.0,0.04836323155481368,-0.16294599814414978,0.22855039695501325,0.3803785695616156,-1.4755761184141039,-9.484180963897705,2.523962792202574,-1.1383294656363743,-20.583941318634206,0.01666666753590107
289,4820.0,-0.08110975525025278,-0.1983485893063247,0.16609247947633266,0.2708438436094671,-1.5095437083370982,-9.546130931854247,1.6858164053285576,1.083076757067262,-21.509131422847453,0.01666666753590107
290,4837.0,-0.1774309254946187,-0.1644888436719775,0.07464753696620464,0.19198482642807066,-1.4809630721494556,-9.636212769317627,3.2927569323481616,2.520588038422353,-21.95601874741034,0.01666666753590107
291,4854.0,-0.23969474517330525,-0.15211612270250915,0.1373164668470621,0.1421555043760687,-1.477371769659221,-9.571868599700927,5.109956508673557,1.0795480038655982,-22.75950171080313,0.01666666753590107
292,4870.0,-0.3570377337235957,-0.13802724546492098,0.39978550001680846,0.032770416027680035,-1.4751272056028246,-9.307458953857422,5.9401041036992535,-1.7054363371628307,-24.387489252306715,0.01666666753590107
293,4887.0,-0.4790870733339339,-0.16662044887319205,0.5863742395550012,-0.09322448287066072,-1.5189708773739634,-9.118914988598227,5.04578730830811,-6.731003724206764,-26.002127189077513,0.01666666753590107
294,4904.0,-0.5764780282342806,-0.21479279749840496,0.5406172815084457,-0.19782116789873688,-1.576431863348186,-9.163657216644287,4.669064382654649,-5.7908512368429585,-26.256357075269143,0.01666666753590107
295,4920.0,-0.7863268299918621,-0.2677031344309449,0.23156419181823729,-0.4121022164827212,-1.6394291484005747,-9.471461767578125,4.946618511088226,-5.314640629512737,-25.705770403632535,0.01666666753590107
296,4937.0,-0.9114416215874254,-0.2451302142255008,0.004797171148657798,-0.5424366424227133,-1.6250639384396373,-9.697264327129721,-1.0404196643795935,-9.434846805277617,-32.38989085560269,0.01666666753590107
297,4953.0,-0.7011673244267702,-0.6248793267771602,0.2038701292067766,-0.34686014817822725,-1.9828475951597093,-9.501838201141357,-11.615920867654035,-8.667696179401064,-34.1639641906218,0.01666666753590107
298,4970.0,-0.34866116971820593,-0.20793314086198805,0.04254559478461742,-0.00673394789751619,-1.5269018165037036,-9.668983404541015,-15.12786497377025,-10.073921138932677,-30.513911098166986,0.01666666753590107
299,4987.0,-0.13141984655652195,-0.016688246081024406,-0.5095850143849849,0.1843532721037045,-1.296160631506145,-10.2272813041687,-4.1628137495810655,-11.647865662402184,-25.18925613067054,0.01666666753590107
300,5004.0,-0.24718995976690203,0.030792467018216845,-0.5952256545305252,0.048482346156146376,-1.2515686255857348,-10.313173288726807,7.775491620010747,-9.938051600868198,-22.185424311063557,0.01666666753590107
301,5020.0,-0.5244635076303035,-0.04014189464375376,-0.33770343011319637,-0.2436102563829161,-1.3527236457273364,-10.052055670166014,16.846849418038627,-7.139685958760362,-20.226263094820855,0.01666666753590107
302,5037.0,-0.7311890993334352,-0.04760404721796512,-0.19098902032375334,-0.45863947471939026,-1.4303855620786547,-9.89583401184082,25.333000876848043,-3.2824909445822206,-19.847981605376162,0.01666666753590107
303,5053.0,-0.748804543261975,0.003723696698248386,-0.16570961763858794,-0.4759974915544502,-1.4466960608884691,-9.860669174957275,27.90219873126314,-3.878452910752748,-19.175984906147995,0.01666666753590107
304,5070.0,-0.6592195494048297,-0.10878463823720812,0.432258029076457,-0.3884595116212964,-1.6240166213437914,-9.252841228485106,23.59180636494608,-2.8568645048017025,-21.180624936979225,0.01666666753590107
305,5087.0,-0.9176583772104233,-0.16183686785846949,0.7486731719672679,-0.6435915712327696,-1.7405843146726487,-8.926182339477538,15.026120768346448,-3.893726067510543,-26.39548632111501,0.01666666753590107
306,5104.0,-0.8249274134777486,-0.1223011224143207,0.7224445057332515,-0.5511155503755435,-1.7286133063718676,-8.947879792022704,8.405441674708316,-4.8482842776075525,-27.94466713997499,0.01666666753590107
307,5120.0,-0.8848882534436882,-0.08963117108643054,0.6328811391860246,-0.609474161042925,-1.7087115050718187,-9.035268152618407,4.05734623728596,-2.6219708841503793,-29.270823499413833,0.01666666753590107
308,5137.0,-0.8829603541210294,-0.26712708810865876,0.1953875475436449,-0.597353569937311,-1.8948606841489672,-9.471012854766846,3.184175280678353,-2.5514790630476165,-31.333936779729544,0.01666666753590107
309,5154.0,-0.813404075879231,-0.2670449627831578,0.044750995874404904,-0.5177464012697339,-1.899798578942567,-9.62050023640096,3.039521692454415,-0.15505583292773537,-31.311718174359495,0.01666666753590107
310,5170.0,-0.7594803971856832,-0.12392828522473573,-0.06704641431272029,-0.44996053023394195,-1.764825606481731,-9.730484459686279,5.566140574470477,0.4497590455829069,-29.3492750522206,0.01666666753590107
311,5187.0,-0.650717897715047,-0.22852117086052892,-0.17180968807935715,-0.32650950713213533,-1.8938132209226488,-9.830592016601562,10.85785866224183,-1.5281662477745543,-27.897390278087453,0.01666666753590107
312,5204.0,-0.6973793303206562,-0.30155571967214345,-0.14206629172265528,-0.36840803618486967,-1.9945191821224986,-9.795875508007407,12.293487586150347,-4.411516732073686,-29.66465220695677,0.01666666753590107
313,5220.0,-0.6485192916922271,-0.49536169711276884,-0.11828151150941849,-0.31842911306172605,-2.215234647668153,-9.767294725689291,11.024785070462356,-4.262711669494849,-31.287030455604484,0.01666666753590107
314,5237.0,-0.6572855126023293,-0.5176886797331274,-0.18961714744865893,-0.32650954366475343,-2.268804909814149,-9.832986218261718,9.652961212459159,-8.863257301943223,-33.007476560355244,0.01666666753590107
315,5254.0,-0.5039077724661678,-0.5896325106985867,-0.2858195136189461,-0.1851019715791568,-2.3600839942380785,-9.926060807800292,7.732825989586616,-13.07742937832773,-32.18415872761273,0.01666666753590107
316,5270.0,-0.4587379666578024,-0.5327347115650772,-0.35572774710357186,-0.1640030511827208,-2.318035827581584,-9.993996279907225,6.122476130954118,-17.673826524628968,-30.04059264906344,0.01666666753590107
317,5287.0,-0.8262037900891155,-0.5481245883986353,-0.3770587044239044,-0.5846344101503491,-2.3506568252012134,-10.013598805999756,6.437271012063543,-24.552788367957486,-29.625648411701412,0.01666666753590107
318,5304.0,-0.9535806813977659,-0.6279046659477054,-0.35013854879438877,-0.7622542092805727,-2.44687365828827,-9.98471816395223,7.876761127287233,-25.8156783926618,-28.65856534221389,0.01666666753590107
319,5320.0,-1.4811109561875462,-0.5857029161646962,-0.3633113341003656,-1.3415013277688528,-2.42278215021342,-9.995343018341064,7.156052372672182,-24.872149230527064,-28.692026438957782,0.01666666753590107
320,5337.0,-1.6930299518153071,-0.44455432380884885,-1.0783113690465689,-1.6056117897363844,-2.2982836638852953,-10.707767649841308,3.0802010184905417,-17.44996878212909,-28.96737185496851,0.01666666753590107
321,5353.0,-1.4177325628630817,-0.23129721144512294,-1.1985884382873773,-1.3549687395066954,-2.088192322076112,-10.82762737045288,-0.14901646493777637,-13.057894183527846,-27.35303786161578,0.01666666753590107
322,5370.0,-1.0651190022572874,-0.06459098398461938,-1.5803513748794793,-1.0170871032823807,-1.9135653846189378,-11.2109989112854,-6.38532528899148,-8.824326931221442,-27.689679102785487,0.01666666753590107
323,5387.0,-0.2530583768762648,0.48962125376462934,-1.7306652704656122,-0.21143820354060736,-1.326088152258098,-11.367669482421874,-10.919790548767272,-7.985600191711387,-28.512197803395104,0.01666666753590107
324,5404.0,0.03936913843927905,0.5180436306506395,-1.5275637875437735,0.0644935195260914,-1.2753610045835375,-11.168801107025146,-5.88957308355903,-17.81188855341702,-32.82239550932082,0.01666666753590107
325,5420.0,0.17789817768018693,0.5109766148738563,-0.2607867791712284,0.16130905829181427,-1.274762308038026,-9.903464945110677,-0.6346080836289586,-27.78180469431062,-39.45944400507854,0.01666666753590107
326,5437.0,-0.27693854375537486,0.3149452164687216,0.6123948159962892,-0.3718497102044988,-1.4680943843565881,-9.030330111694335,-3.5118915990369732,-32.92752578102566,-46.40408665501319,0.01666666753590107
327,5454.0,-0.4435345888396725,0.3363580068536103,0.5514806208282709,-0.5949593956766184,-1.4330790389463304,-9.093028267669677,-7.774677973725869,-28.985587969484932,-50.89435205312254,0.01666666753590107
328,5470.0,-0.7261695176057517,0.5217426312990486,-0.12859949190616607,-0.9177277343858964,-1.2330137088499962,-9.77507646560669,-4.767042165638013,-21.273068132300764,-51.860239839505304,0.01666666753590107
329,5487.0,-0.5110916195556521,0.8397460662946105,-0.7462947523981333,-0.7227499001543037,-0.9208696674071252,-10.391284117889404,6.649097376340441,-8.34491766092554,-46.15669037308616,0.01666666753590107
330,5504.0,-0.15724506482249126,0.8247320370361209,-0.6635036564648151,-0.3658642151872627,-0.9596258067809045,-10.30419503250122,9.059473268872056,-3.595838892804661,-37.03417018930665,0.01666666753590107
331,5520.0,-0.30875805226638914,0.8157930899076163,-0.1735579930514097,-0.5038301223863847,-0.9900020942136645,-9.810540577697754,4.908833050826069,-2.756894014127988,-41.34509531037897,0.01666666753590107
332,5537.0,0.21302392466235906,1.30009534060657,-0.19221768533587455,0.04339463109569624,-0.5008366213925183,-9.830592016601562,-10.4033505541125,4.640531267396921,-33.94892251479312,0.01666666753590107
333,5554.0,0.8523570529993623,1.093441718161106,-0.31203532037138937,0.7148185134999919,-0.6670841453000903,-9.958382530212402,-21.558103879196445,10.493085579428127,-23.701395042631642,0.01666666753590107
334,5570.0,0.6522402119114995,0.975553736013919,-0.41644788100421426,0.5548558876813389,-0.7206545535765588,-10.0748005859375,-29.99414394761277,12.521629564807112,-19.568290481506015,0.01666666753590107
335,5587.0,0.6657181176438928,0.9360431250110268,-0.18894027110040187,0.6097729293603682,-0.6388026381894946,-9.868151055145264,-42.186540465178695,4.34776972277631,-19.112161910996104,0.01666666753590107
336,5603.0,0.6502304795242846,0.8419121582873165,0.11816811426281928,0.6015428702867357,-0.6192001120969652,-9.578901567077637,-46.98162013047279,-5.9923725532095995,-24.27531876311489,0.01666666753590107
337,5620.0,0.33163382787592705,0.70605392742455,0.5477238986432552,0.265007885731291,-0.6355106109067797,-9.166500331115722,-46.462010074269486,-14.830328273146156,-31.223301375553678,0.01666666753590107
338,5636.0,0.01770527763646096,0.19804960635975002,0.44576399185955523,-0.08499446032964623,-0.9994292632505297,-9.286958017620444,-37.84945230449064,-13.368980271917955,-36.14047067226175,0.01666666753590107
339,5654.0,-0.11815549224326387,0.11181114645153284,0.45916064904928205,-0.2347817016931716,-1.0030206388060003,-9.283217662048338,-27.80384571476225,-6.186836149729502,-34.03760910607115,0.01666666753590107
340,5670.0,-0.24242784166531636,0.06468151181228458,0.46779169927239417,-0.36152477034400216,-0.981472823864594,-9.28217019882202,-13.808975935608299,-2.876377928373606,-31.195522996199237,0.01666666753590107
341,5687.0,-0.3060101052651182,0.14593180804438888,0.8920178130626678,-0.42063161469595506,-0.8795695426389575,-8.860191571697593,-3.044493643283361,-0.41478202036924183,-30.448785244430912,0.01666666753590107
342,5704.0,-0.4394047590259462,0.12716332162320612,1.0443804578721523,-0.5469257522691973,-0.9030627925597131,-8.707412162780761,5.073592581532409,-0.28109718234381526,-28.94910451403331,0.01666666753590107
343,5720.0,-0.5908606642540544,0.09510616843141614,1.3242922087520361,-0.6875850815370679,-0.9605235593382269,-8.424896366882324,8.304544412741595,-0.1704391264858966,-31.093937592673637,0.01666666753590107
344,5737.0,-0.7723346180617808,-0.1199997136041522,1.419543557807803,-0.8599676193346268,-1.1975495236936955,-8.327332649230957,7.670440749255012,0.021384121672119883,-34.78605099003739,0.01666666753590107
345,5753.0,-0.7245121057875454,-0.25190891458019615,1.334965578457713,-0.8028061003641691,-1.3452419116698204,-8.410231881713866,3.5764770140549675,-0.7286006113141783,-36.160865617123406,0.01666666753590107
346,5770.0,-0.5533838241010904,-0.3857260680694133,1.0108604655861855,-0.6239891227720538,-1.482160319110006,-8.734047656249999,-1.3768778778238893,-1.3139454753067439,-35.91670001467379,0.01666666753590107
347,5787.0,-0.6441404920861125,-0.25463125221617516,0.44499651461839673,-0.7061401900690514,-1.3429972745481877,-9.300874314770102,-2.608885095474281,-1.510722905129694,-32.5384167341992,0.01666666753590107
348,5804.0,-0.638779549574852,-0.17140205712653694,0.1567529887229204,-0.6962640899545979,-1.2577038404051213,-9.58937561481893,0.13766566437278044,-3.045076770683751,-29.784986479754053,0.01666666753590107
349,5820.0,-0.8803607660818844,0.2241559613883495,0.38874563508629795,-0.9328411460653645,-0.8605657130919396,-9.357587551116943,-2.6056667957147357,2.5746677687232213,-23.272715294848716,0.01666666753590107
350,5837.0,-0.7581506829518825,-0.02741224999539554,-0.648054158398509,-0.772579270155367,-1.0871170451842247,-10.397269622039794,-12.139088598641269,12.792819664481529,-19.629975627447696,0.01666666753590107
351,5854.0,-0.2201168785979971,0.1719782495792955,-1.0410586199730634,-0.21009152218898525,-0.8575729610167443,-10.793509996795654,-9.508671758695346,0.39451965054659077,-20.13272365413753,0.01666666753590107
352,5870.0,0.7623806486718356,0.14156769455075263,-0.9066682697057723,0.745643839324906,-0.8777740375243127,-10.660182891845702,3.058181128936655,-17.912184758736778,-18.333535713540282,0.01666666753590107
353,5886.0,0.05230508734865579,0.2370001723270863,-0.6471569172978401,-0.011372786679305136,-0.7957725575987249,-10.399064688763021,6.294053897999423,-21.813030444683413,-18.38183027361415,0.01666666753590107
354,5904.0,-0.3087175741255283,0.007061462818831205,-0.8232336151719093,-0.42482146760122846,-1.0375869983397423,-10.573393081665039,1.243058143562355,-22.633288352677756,-19.405069450910222,0.01666666753590107
355,5920.0,-0.236366879392229,-0.4658232487436384,-1.773678482761979,-0.40701459275381635,-1.4911386484008282,-11.525088241577148,-12.922313220955802,-13.032535398686882,-21.11595329082296,0.01666666753590107
356,5937.0,-0.04934614164493978,-0.3034156683251262,-3.4307892721951005,-0.23104078899864106,-1.2907738239012658,-13.185916005706787,-15.650792794362891,1.8503586506419265,-17.822179940948935,0.01666666753590107
357,5954.0,0.25374402105286714,-0.054787675111740826,-4.217961978426575,0.09352319182259962,-1.0106522296629845,-13.976601103973389,-8.982411659561388,10.481050786110565,-11.586950620289425,0.01666666753590107
358,5970.0,1.8471468929462134,0.46238881731554865,-4.018673916313052,1.7197847060163505,-0.4864716306272894,-13.778480332073569,3.9251218858041526,13.003698340011088,0.9348373195290671,0.01666666753590107
359,5987.0,1.517158859515935,0.12752126821540297,-2.5450164910018445,1.4211080580450128,-0.8608649152342229,-12.301257907757162,16.371710723521275,5.16797555057823,4.869334920629532,0.01666666753590107
360,6003.0,1.3483170813314616,-0.07512706411145627,-1.5499199962586163,1.25530954741342,-1.102828993579,-11.302128211975097,13.144256802940781,-2.0576958730868338,2.57477278288171,0.01666666753590107
361,6020.0,1.1997966450333595,-0.46246802003160115,-0.16215221741795538,1.0901096419957932,-1.5149309543333946,-9.911545960235594,1.9150734123673279,-5.516578587418749,1.8128081915759005,0.01666666753590107
362,6037.0,1.1423865124635397,-0.29329722908847033,-0.2073351749688387,1.0169368080914951,-1.348085026141256,-9.956287603759765,1.4359124834807788,-6.503204108782145,2.6440180944609457,0.01666666753590107
363,6054.0,1.2532299829266964,-0.18796477713175117,-0.441678183850646,1.1082158194501883,-1.254112537914887,-10.18912313068807,8.211425028692226,-8.368408389028506,5.189275495504915,0.01666666753590107
364,6070.0,1.7678293183423577,-0.049906186680495734,-0.4732476265907287,1.589899302485492,-1.1646293239317833,-10.21471116093099,20.113517162191453,-8.423726091116439,9.336893354843172,0.01666666753590107
365,6087.0,1.5285682884112,-0.0847621037453413,0.4423527221113443,1.3235442033963276,-1.2551600011412054,-9.292045696148275,23.210166129977033,-8.87444344425641,11.050929327057872,0.01666666753590107
366,6104.0,1.838781946313381,-0.08133519803658128,0.6695043581843376,1.6090528609678147,-1.307982148333639,-9.057414517974854,20.997256555879186,-7.383616346570435,15.302991024089378,0.01666666753590107
367,6120.0,1.7751643374055623,-0.12901800957918166,1.2184727039307355,1.5194198997830972,-1.41587086064443,-8.500014443969727,14.820567932822208,-2.7172251292022,19.30611537776237,0.01666666753590107
368,6137.0,1.4930677898325024,-0.0805346953086555,1.0720271742105483,1.230918599734269,-1.3970165225706994,-8.642319805145263,9.809463898232599,3.642366141430788,22.085768435978487,0.01666666753590107
369,6154.0,1.4553341253742575,-0.05668824803605675,0.8435860828489065,1.2005422027036547,-1.392826669665426,-8.86827258682251,7.41967803784081,8.292939921341743,24.6476289596777,0.01666666753590107
370,6170.0,1.419862706759572,-0.05983253741115331,0.5768319197058678,1.1845309791013598,-1.4185643375121055,-9.132382957458496,7.336032979943895,9.797115769986862,26.614651723655086,0.01666666753590107
371,6186.0,1.1942337502092122,-0.09965615988597273,0.6452519604593515,0.9744397103574126,-1.4734811919614672,-9.062202921295166,5.4147959621808655,10.306653858485337,27.765369551620278,0.01666666753590107
372,6204.0,1.081003311544284,-0.07343538469746709,0.7024141096174716,0.8788213363538495,-1.4552255504332483,-9.004293168640137,1.9791715360767241,11.528208432106377,29.243653006895524,0.01666666753590107
373,6220.0,0.9653291329890489,-0.13139555236548184,0.8512199387282132,0.7893380310392006,-1.5099929134093224,-8.856451216125487,-2.8146989722908637,12.745847599785705,31.965958089292922,0.01666666753590107
374,6237.0,0.9685558399505912,-0.09531213933229446,0.7241612465232611,0.8143275839323177,-1.4607621417723595,-8.985738105773926,-6.498856693375433,13.786325320773244,34.47621653381269,0.01666666753590107
375,6254.0,0.9345189111184328,-0.0643102673470974,0.6271048938721419,0.8034039657926186,-1.410334123174846,-9.08584566268921,-7.2225656085834125,14.157525611595927,36.14388235175217,0.01666666753590107
376,6270.0,0.7616198934324085,-0.19050781267806888,0.4634755896389484,0.6558613250181079,-1.518671894427389,-9.252242678070068,-1.4994877775535518,9.025248898488416,35.22242153082575,0.01666666753590107
377,6286.0,0.8076645093139261,-0.4573503847569227,0.7008639575660228,0.704194234499894,-1.7874208846494555,-9.01461816329956,3.2165079021053127,2.328946590690135,33.6255403783497,0.01666666753590107
378,6304.0,0.6995761097125709,-0.5583148507624864,0.9126818309068679,0.5832870323956943,-1.8954592345640062,-8.801683853149413,2.2984559859049636,-2.856565897468926,32.15122355543493,0.01666666753590107
379,6320.0,0.414441838411428,-0.6228655027367175,1.1525479871243238,0.2680006560727954,-1.9581573905393481,-8.56166513671875,-2.6045867720522273,-4.951755240230899,31.04016692843271,0.01666666753590107
380,6337.0,0.2146360543004237,-0.677182783857733,0.7437707868784665,0.04713555292338133,-2.0031983092710375,-8.971372311291098,-2.8799838413685497,-3.1489255281455635,30.658273976464375,0.01666666753590107
381,6354.0,0.168201142193377,-0.679582830736786,0.5533943454951048,-0.016759703882038592,-2.002450267382711,-9.16186156539917,2.3100948416940765,-2.4694211703590834,30.71215392373202,0.01666666753590107
382,6370.0,0.25443160145822913,-0.595063741967082,0.27843934023976324,0.04294570001810789,-1.940649937029928,-9.433154541015625,12.198914225581412,-4.641661236817734,30.847716103283847,0.01666666753590107
383,6387.0,0.28465516428099946,-0.47126682803705333,0.13109598489701746,0.048631910694669926,-1.8540097644530236,-9.574711714172363,17.804245571735777,-6.365282098872078,30.292619799247742,0.01666666753590107
384,6404.0,0.37426293622553347,-0.3629601825751364,-0.012765373548865318,0.10908550261361524,-1.7935561725340783,-9.710881933593749,21.18807667336371,-7.722260540714252,28.902567020123428,0.01666666753590107
385,6420.0,0.589277413650602,-0.18235519362166522,-0.5538777450978756,0.28176731561869384,-1.6868645610533655,-10.239551587677001,23.41438537106583,-9.235158540929477,27.631701042015834,0.01666666753590107
386,6437.0,0.8901128562241792,0.08905015632808208,-1.0865981358766554,0.546027360391058,-1.4710869903013108,-10.762235737609863,22.206141982363498,-10.44026089638725,28.568907156526425,0.01666666753590107
387,6453.0,0.9565785480394959,0.2759716349519789,-1.3498363998532295,0.5731117301389574,-1.3355153212949633,-11.015572200775146,20.88016833048495,-10.563643141101652,30.223535850887647,0.01666666753590107
388,6470.0,0.761820384440571,0.38419966221973295,-1.7936755611300468,0.3348887745512649,-1.2922699076779185,-11.446527915081381,20.286781985961753,-3.2128012438201115,33.52933716389006,0.01666666753590107
389,6487.0,0.9149740334972739,0.5546694799974561,-2.3361931233018636,0.47390196231361476,-1.1679213512144981,-11.980285832214355,19.812264838658873,3.457921578649648,37.38701434673493,0.01666666753590107
390,6504.0,1.1553495274763554,0.6955828022927045,-2.301127070617676,0.7025482573911547,-1.0757444411680102,-11.935843463897704,22.96017779125998,0.7184245899462114,40.57754938730421,0.01666666753590107
391,6520.0,1.0517784591689705,0.6733443747386336,-1.2652899846851824,0.5665276755735278,-1.1783958373472094,-10.883292559051513,28.392158936279422,-4.45235144491343,42.71061063491002,0.01666666753590107
392,6537.0,0.4943169007675722,0.6507815375357866,-0.1975473559260368,-0.025139409692585466,-1.2662331107541918,-9.800963771057129,27.0692998506624,-4.984229801526547,44.30878610823379,0.01666666753590107
393,6554.0,0.3151579459039494,0.684363050750643,-0.028426468539237974,-0.23807364677749573,-1.285985274450481,-9.619153497967124,19.965158623229605,-2.647254536910474,46.0097456832825,0.01666666753590107
394,6570.0,0.2646059721332043,0.7443737212076783,-0.019933950003981588,-0.3143888977602124,-1.266382894488424,-9.600748657226562,10.426138626504601,6.969138269619259,46.60636270728312,0.01666666753590107
395,6587.0,0.2807816290495917,0.7890756172433495,-0.28813772743344307,-0.2955345231538638,-1.2369041404172778,-9.865906491088866,7.857510239111552,14.468394841479888,44.87695880943589,0.01666666753590107
396,6604.0,0.3132231784490868,0.7285719025723636,-0.27768939865529535,-0.24375991225298493,-1.3106756252013145,-9.853785845184326,8.181469526539843,18.493251149544566,42.895452629323486,0.01666666753590107
397,6620.0,0.7083526328209787,0.7801166502401232,-0.06494681168496608,0.18644819855634123,-1.2783537566587329,-9.638906246185302,7.547478561174565,20.746928415250927,41.544792966237225,0.01666666753590107
398,6637.0,0.601735255620256,0.6284006327711046,0.14329086508154867,0.11641779999677092,-1.4399623687192797,-9.430461064147948,4.177718503010503,26.615783827510015,40.43056371636553,0.01666666753590107
399,6653.0,0.4530838864188641,0.517709722521156,0.06416472139656543,0.02214610962811857,-1.5480007186338305,-9.51276174621582,-2.9535833985436684,33.5456374103443,36.73860741335269,0.01666666753590107
400,6670.0,0.32878822918646033,0.4230667146220803,-0.1888520082950592,-0.004638984912261367,-1.6145893061764538,-9.775674431499839,-10.014322615782438,38.116225833093,31.352029950840908,0.01666666753590107
401,6687.0,0.41392369628883896,0.18611556906849144,-0.5314952328979968,0.15726888408949596,-1.8228849967405198,-10.126724834442138,-10.256789208676013,34.89811390374979,29.80386512261997,0.01666666753590107
402,6703.0,0.4397041803639382,0.21140461636483668,-0.47140053741931914,0.2475003408903256,-1.772756253350526,-10.073303625378012,-7.783243030945065,28.7696242181183,29.39826458404252,0.01666666753590107
403,6720.0,0.29457747815735635,0.2901465830378234,-0.19314122992157934,0.16579820923749355,-1.674743769018352,-9.80006594543457,-2.823327422203294,21.651937018014078,30.150432336201,0.01666666753590107
404,6737.0,0.081335106705036,0.3011241963870823,0.06886544643342495,-0.01286908965166658,-1.6591814582273363,-9.539397239685059,-0.408691679424559,18.488948130367458,31.522569529132372,0.01666666753590107
405,6754.0,0.04216001583340112,0.32944968876987696,0.17489947078824042,-0.026186845519440248,-1.6307503135129808,-9.433603453826903,0.9302670692006823,14.911906345045496,33.19647472487866,0.01666666753590107
406,6770.0,-0.008683634360297583,0.41608167804032564,0.41120238156616684,-0.05985529266565572,-1.5496465861447155,-9.196278214263916,2.9592799897548705,10.027831876187077,35.42308907354614,0.01666666753590107
407,6787.0,-0.16957812963500618,0.504800264326483,0.46759529991745946,-0.21547840057581197,-1.4706380774900316,-9.137920133319497,5.153049025920814,9.5750543672387,37.08096040021582,0.01666666753590107
408,6804.0,-0.3066461746789515,0.5751140098720788,0.5025415256142616,-0.34581273518425876,-1.4160203521177173,-9.099761959838867,7.681358806643278,11.75464286347064,38.37487143658304,0.01666666753590107
409,6819.0,-0.430658265729621,0.6857073049664497,0.503708231306076,-0.45624529132554303,-1.3280332949765026,-9.093925508770345,10.547531578623238,15.55944584440314,39.481095704747474,0.01666666753590107
410,6837.0,-0.5593042636586353,0.7423316939860581,0.5252987163454294,-0.5488709988772345,-1.3115733046934008,-9.063848934936523,13.20502584976003,22.78794091095977,40.66151290277117,0.01666666753590107
411,6854.0,-0.5744630716826766,0.7833568012051284,0.5450725073516368,-0.5235822267171694,-1.303792149297893,-9.036764528656006,12.780083923000396,27.253714958252743,40.66812111079316,0.01666666753590107
412,6870.0,-0.6267704012207687,0.888247208482772,0.6144096629500388,-0.5054760629625059,-1.239298342077434,-8.957905511474609,10.194726694782693,31.827995098247833,40.544566403802214,0.01666666753590107
413,6886.0,-0.5707507731612771,1.0255499390654266,0.6334224064558744,-0.39100329608628526,-1.126621080315858,-8.932466534313559,7.927619569620795,33.00825178682604,41.1756519774493,0.01666666753590107
414,6904.0,-0.6363854209799319,1.052165704920888,0.5852554646581412,-0.3971384378404356,-1.1206357222959398,-8.974664923095702,6.7615602830061095,32.43188627371451,40.876014993655424,0.01666666753590107
415,6920.0,-0.7779048924747854,0.8871260954983532,0.6285545081585645,-0.4743514048478566,-1.3108251166746019,-8.923788137817382,5.523913356813697,23.648423510523607,39.45470043869996,0.01666666753590107
416,6937.0,-0.7149348607555032,0.8091027984887361,0.7867997812658548,-0.3832221589570865,-1.4019544173642993,-8.761580975341797,1.8139917352930168,17.635288889784462,39.409078190138864,0.01666666753590107
417,6954.0,-0.7304054016098379,0.8878536791205406,0.7243564768344164,-0.3812767970429733,-1.324591630090028,-8.82308203048706,-3.507862000870077,15.000661238215226,40.668448959873324,0.01666666753590107
418,6970.0,-0.7869814945083111,0.8469149350106716,0.4140069175928831,-0.42152934898696837,-1.3512272696897387,-9.13612389755249,-7.688460495832798,14.411145903404133,42.35330636395373,0.01666666753590107
419,6987.0,-0.5508005296096206,0.8490263742066919,-0.408124873816967,-0.17627335295733063,-1.3326720606930553,-9.961673972973227,-8.399846896004428,11.650108525770886,42.776405847184755,0.01666666753590107
420,7004.0,-0.3857071807058528,0.7977274179935455,-0.61910746537745,-0.013467640066705644,-1.370530374444276,-10.17580538395345,-5.304690324552498,5.822261996175378,41.76080794402263,0.01666666753590107
421,7020.0,-0.5888770892214029,0.5979354980111122,-0.7574339860498904,-0.23882187132891267,-1.5683512866146863,-10.315417268261314,0.9997009580340337,0.2894401783737065,38.53032312699794,0.01666666753590107
422,7037.0,-1.0105195431940257,0.5302578000575304,-0.693866061502695,-0.6778585276948288,-1.6448162482663988,-10.250475132751465,2.6785342419881935,2.6216039749259026,36.96672890144195,0.01666666753590107
423,7054.0,-1.0033763934411108,0.5235118329286576,-0.7242249594092368,-0.6826470040803775,-1.659181312096864,-10.279504827880858,0.49486422747949593,3.979056474585158,35.40779969508907,0.01666666753590107
424,7070.0,-0.8639179461292922,0.4955409992024302,-0.8036410259515047,-0.5556046419557183,-1.6841709380552172,-10.360009858703613,-4.364668891443391,5.01283036490233,33.50316387899058,0.01666666753590107
425,7087.0,-0.8979433306541293,0.3987606870137155,-1.0235305620670319,-0.5918169237992726,-1.7684167628414929,-10.582819666180013,-7.674516664642217,7.995791687726692,31.870885271140928,0.01666666753590107
426,7104.0,-0.8747248790867627,0.34903175659626723,-1.0788409458786248,-0.5657800355440006,-1.7975962417051194,-10.64267529220581,-10.506684486065623,7.179330511137231,28.493857037926325,0.01666666753590107
427,7120.0,-0.6843531138785183,0.2585975985638797,-1.0093296027570962,-0.3829227924180217,-1.8531117926999925,-10.581174237060546,-11.41449346638848,-0.8009589950510587,23.019096710587803,0.01666666753590107
428,7137.0,-0.8633804782517254,0.11461159082502126,-0.6289993293166161,-0.5829882869111374,-1.9708765868589282,-10.207229865264893,-10.567847122535795,-7.017918626897844,17.845713357734216,0.01666666753590107
429,7154.0,-0.9688310766953975,0.07634352722913026,-0.4557938029646873,-0.7218519832001998,-1.9853914344236254,-10.040084661865233,-9.087698171843488,-13.067692943665877,12.333032673897428,0.01666666753590107
430,7170.0,-1.0196433453701437,0.0014632044203579425,-0.23715046751797197,-0.8295910761735401,-2.0340236556455493,-9.828347452545165,-7.179315996985245,-15.674910192322205,6.981166659634475,0.01666666753590107
431,7187.0,-1.0299350222818553,-0.007732640078663825,-0.17023907776176928,-0.8806174899224657,-2.0266914130613207,-9.765649296569825,-6.206845615789877,-13.74277688839889,5.084684381857687,0.01666666753590107
432,7204.0,-0.9763409408688545,-0.04610986313745379,-0.20929332329928874,-0.8587703815072308,-2.050034733117372,-9.808296013641357,-5.892461826691123,-9.892566809864144,1.7734559499511662,0.01666666753590107
433,7220.0,-1.0175312485869974,-0.09485241286605596,-0.2765606868863106,-0.9202714640519581,-2.079363703454286,-9.879822788238524,-5.84746069845767,-2.1063116654951033,-3.8765340544827978,0.01666666753590107
434,7237.0,-0.9145825499616563,-0.20925226063653826,-0.2694143222630024,-0.812083449134184,-2.1776756091244516,-9.875932210540771,-7.009774906973073,3.1558077975079977,-10.038455381667385,0.01666666753590107
435,7254.0,-0.8624011848907918,-0.22083003183603286,-0.23267829053997993,-0.7431005412003956,-2.1688469905026255,-9.843160990795493,-8.841669635297752,4.138290809139781,-17.287830336516745,0.01666666753590107
436,7270.0,-0.7755749882224947,-0.3591944003008306,-0.08858020072877407,-0.6287773936616257,-2.272545849908143,-9.705644032940269,-11.391180323203935,3.023493586349922,-26.791524594854444,0.01666666753590107
437,7287.0,-0.7866667294707149,-0.42674584152624007,-0.18969781146943568,-0.617704247516021,-2.3077108329221603,-9.81278514175415,-13.369227012501723,3.0068208811425094,-34.32285146618922,0.01666666753590107
438,7304.0,-0.748369220584631,-0.4629873677305877,-0.35458792941868306,-0.5527614726853557,-2.3072617739804087,-9.984269835662841,-13.956706950940152,3.2958298771444325,-40.084071634865374,0.01666666753590107
439,7320.0,-0.5934881632134318,-0.40722222588881846,-0.6837064865380525,-0.3672109170884825,-2.2071542170651255,-10.321104081726073,-9.282424303759612,-1.3117305730249558,-45.088783466165495,0.01666666753590107
440,7337.0,-0.5243931458078325,-0.29027912337630984,-0.5945230592191219,-0.28625695518814026,-2.0733783454343677,-10.234763184356689,-1.4700941651821078,-6.582952970644391,-46.15116133495303,0.01666666753590107
441,7354.0,-0.6005153584364802,-0.21527035188227892,-0.3993307419866323,-0.3664626742707565,-2.0025997588559985,-10.038887561035155,6.729841738274216,-13.627843587687792,-47.131173952539385,0.01666666753590107
442,7370.0,-0.8155704601328819,-0.16714418048635124,0.012633271601796149,-0.6030397988801822,-1.9826978114254772,-9.622146250042318,10.71097202904612,-15.419177664513173,-47.08218442071747,0.01666666753590107
443,7387.0,-0.8819247274629771,-0.07248071432113647,0.27881986398994923,-0.6838441049104556,-1.9102732112057506,-9.352050375255942,8.737387160823642,-13.471428840599916,-46.293707382931196,0.01666666753590107
444,7404.0,-0.7863410777129233,-0.05339125231727957,0.3381464977055788,-0.5989995287797414,-1.9083279223568737,-9.289651494488119,6.829325151082744,-12.874763151501465,-45.05116619931165,0.01666666753590107
445,7420.0,-0.5822649776052683,0.06933730172887444,0.42620881204009053,-0.40910946440752594,-1.8035815997250377,-9.198373140716551,5.797825713759187,-12.449067342612189,-42.854580777330135,0.01666666753590107
446,7437.0,-0.5074281651446596,0.1537980844400823,0.5237146620243788,-0.34386743263565,-1.7310075080320237,-9.098714496612548,5.018718414853703,-11.633611911378013,-42.694409426198746,0.01666666753590107
447,7454.0,-0.5396003595508635,0.13050488713607192,0.5832727664083243,-0.3820250581270084,-1.7631795928403735,-9.037512716674804,3.206905296462509,-10.110968084990827,-44.00033476531602,0.01666666753590107
448,7470.0,-0.49550125171393156,0.03325549613088369,0.6419581796109676,-0.3393783227891661,-1.8626885993406175,-8.978405863189696,-0.25830438751623314,-8.660989787409758,-46.96422705375135,0.01666666753590107
449,7487.0,-0.359850964513421,-0.054421033756434915,0.6298229206591844,-0.2018613649339415,-1.9464855113156139,-8.991274697113036,-1.0818837151183311,-8.885444317688362,-48.762930050917525,0.01666666753590107
450,7504.0,-0.3529549213893711,-0.07109905070438981,0.6347042629599571,-0.19363131499346345,-1.9580076068051158,-8.987383534893393,-1.4644528558145002,-9.227139898843884,-49.492315707099436,0.01666666753590107
451,7520.0,-0.38219091621320694,-0.028559593399614093,0.6543067890524864,-0.22026679019639267,-1.9068316924497484,-8.96942760696411,-2.293600361735319,-8.368025044661339,-49.160648551192786,0.01666666753590107
452,7537.0,-0.5210917661748826,-0.1311203886859119,0.654298021224141,-0.3537435692827217,-2.0005048324033616,-8.971073620605468,-3.067056746319675,-6.2725520356054,-49.51363272749904,0.01666666753590107
453,7554.0,-0.7619732369147241,-0.12544599631130696,0.6600356880933046,-0.5846343370851129,-1.9835956370480357,-8.967332095989585,-4.162301912280138,-5.9708860587412085,-52.29265228566964,0.01666666753590107
454,7570.0,-0.7921192227229475,-0.22270970810279248,0.44619770710170265,-0.6007952165574766,-2.0646992182858286,-9.184007346233725,-2.8445018624039795,-5.347214655438174,-53.51281093937906,0.01666666753590107
455,7587.0,-0.9489040678888558,-0.31976606075391173,0.2707978855758905,-0.7413049812868238,-2.154631418145448,-9.36043008106649,-0.38385849898456775,-2.1994754457740773,-53.734040766595776,0.01666666753590107
456,7604.0,-1.018654699658975,-0.3259706144824624,0.1690524983257055,-0.788291152334772,-2.161215764971822,-9.46158568572998,3.2701421760062495,-0.692411707770512,-53.82835543374989,0.01666666753590107
457,7620.0,-0.8572698864169418,-0.3294036576710641,0.021716157245635984,-0.5976528816774487,-2.1815664790831506,-9.604938510131836,9.58221325926252,-2.8650267943032794,-52.68680542719815,0.01666666753590107
458,7637.0,-0.7299963824175297,-0.3330468364790082,0.17449790425002573,-0.4568439148058183,-2.210296752874553,-9.446921200561523,12.731058532685335,-6.399030917334757,-50.940906622505345,0.01666666753590107
459,7654.0,-0.7284707802854478,-0.28619463054165245,0.25883739866912364,-0.44906277767661956,-2.1924897318966687,-9.356689140972495,12.883905359705528,-8.026425939927845,-49.29727624025514,0.01666666753590107
460,7670.0,-0.9050584964215755,-0.38665669998303054,0.22811960432231426,-0.6208466737275943,-2.3261162581846118,-9.380631742095947,9.264933896842502,-8.065308499325436,-47.21577950578833,0.01666666753590107
461,7687.0,-0.8915649547286331,-0.4137621490515768,-0.16182605420351026,-0.603937715834286,-2.3689126128599045,-9.767295310211182,6.087535871368095,-8.011389278470062,-46.0987362179786,0.01666666753590107
462,7704.0,-0.9255180777348577,-0.47551644830554723,-0.32664895213544365,-0.6370075349336489,-2.4396911994382737,-9.930250660705566,3.8607575981605375,-10.318799642376913,-44.72891787427045,0.01666666753590107
463,7720.0,-0.9571601473197341,-0.4077743068136275,-0.6458300526082515,-0.6769608116701245,-2.376095071709901,-10.248829119110107,1.2699771997418445,-11.645022596160166,-43.16801474324743,0.01666666753590107
464,7737.0,-1.2525007918693125,-0.4557828431792557,-0.9794950209856033,-0.9760863267869688,-2.4215851955138143,-10.583119525909423,-1.053097135809372,-7.896228020195416,-42.7209788620701,0.01666666753590107
465,7754.0,-1.2657619861111045,-0.4263017510205507,-1.1931833643734455,-0.9793783723359927,-2.3804347083494064,-10.798896950531006,-6.065273723542084,-1.6426884564749813,-42.28294517021884,0.01666666753590107
466,7770.0,-0.572543867123127,-0.05093114581406116,-1.6317606595993042,-0.256628819241561,-1.9692305732175706,-11.243769546508789,-11.744332692918505,0.16106321108638635,-40.324695784230336,0.01666666753590107
467,7787.0,0.04603274278063327,0.15948782051429153,-1.6734768178224562,0.37559009317606684,-1.7260694671079515,-11.291503942108154,-11.170650590377148,-4.985847275699371,-39.157252530535075,0.01666666753590107
468,7804.0,-0.005874043132551014,0.16964491126090286,-1.5349831238895655,0.32785573410931973,-1.6855176764890551,-11.158775387573241,-10.724576058325493,-6.594751695548765,-40.95352398035673,0.01666666753590107
469,7820.0,-0.1278246716087684,0.09163140499293804,-1.4235060316979884,0.2178720588132739,-1.7164926604673265,-11.055824716186523,-13.583346612792452,-2.6450688763760697,-43.180886234738324,0.01666666753590107
470,7837.0,0.41010932563245295,0.15565335691794752,-1.7382511955499649,0.7655456885740161,-1.616235612078756,-11.37694701385498,-11.46011144608135,-6.169724391424504,-43.27859550590994,0.01666666753590107
471,7854.0,0.7169777647599578,0.16189400487318634,-1.6537515421330928,1.069459625277482,-1.5821182384215295,-11.297639083862304,-7.382169200240039,-12.201309914432793,-42.2969846240578,0.01666666753590107
472,7870.0,0.8379789104916154,0.364605903955549,-0.8846867395222187,1.163282439367473,-1.363497699328512,-10.532392378234862,1.7994419382570086,-17.722979980990964,-42.08288892942917,0.01666666753590107
473,7887.0,0.48970432893820104,0.3372204689018428,-0.5612731160461902,0.7869438293790444,-1.4031516643248498,-10.207678778076172,10.075021653162695,-19.563917452889914,-42.619861326502644,0.01666666753590107
474,7904.0,0.525839947082661,0.37204116852283475,-0.42775428791642184,0.7915826133619062,-1.3953703627988696,-10.070161820220946,12.557300227747504,-19.817812659812216,-42.801178943304386,0.01666666753590107
475,7920.0,0.6575026624843477,0.5439065323121846,-0.5413643004834652,0.9006683899701572,-1.2520176845274864,-10.179097995758056,5.215640452587987,-8.561496129317474,-41.78029105863009,0.01666666753590107
476,7938.0,0.7923892718359827,0.7486071209937334,-0.7464221781700849,1.0440211961057035,-1.0504558322630821,-10.383353324890136,0.3378110711476343,-0.6754453044287888,-42.421171123546976,0.01666666753590107
477,7953.0,0.8539655841745436,0.7606960565857589,-0.9043775284200907,1.1311103362928143,-1.0366891727171839,-10.54092172164917,1.419308186886772,4.332596030648304,-43.30936892321543,0.01666666753590107
478,7970.0,1.1382915713001043,1.0168569295220076,-1.1301923629313706,1.4655503624295816,-0.7897871265135705,-10.763432838439941,6.921963433682451,9.448772707221627,-41.73421460248919,0.01666666753590107
479,7987.0,1.2030246671691536,1.1251556839384138,-0.93192487603724,1.5758332764005287,-0.6997052890501916,-10.560075334930419,9.889999512509865,11.14040907405327,-39.67415783182705,0.01666666753590107
480,8004.0,1.194762157997489,1.1129277782671152,-0.7350631642878055,1.6142901405667884,-0.7327751994810998,-10.357316381835936,9.203380232042347,10.98834771878763,-37.21686750432074,0.01666666753590107
481,8020.0,1.0642121896106749,1.054595562416315,-0.27037819885909553,1.5384238754605875,-0.8078932765685022,-9.886855755615233,4.14946884060333,7.1901042807792805,-34.82449812487539,0.01666666753590107
482,8037.0,0.6511605269160121,0.8347666704468428,0.21413667167723177,1.1546034218167887,-1.0286087421141563,-9.400683180999755,0.1885797754161199,2.708928797238162,-34.11389890400561,0.01666666753590107
483,8054.0,0.3979607688076794,0.7307949854493141,0.4760153377383947,0.9201212967252358,-1.1234789828978478,-9.139565562438964,-3.6077614148877415,-0.6741431928965493,-33.85341597962883,0.01666666753590107
484,8070.0,-0.09664382632747293,0.6101175187140703,0.8537591018170118,0.4441240791654214,-1.2189477740965784,-8.76562119064331,-7.292649325883267,-0.48495074150775136,-34.06739556104157,0.01666666753590107
485,8087.0,-0.5339326526453718,0.5275524866215885,1.0565864439725876,0.02379201367162168,-1.277007018224895,-8.566452955517173,-8.111022955440331,1.2489182324268144,-34.38055631939207,0.01666666753590107
486,8104.0,-0.6827988701738417,0.4466318607352674,1.0879635790109634,-0.10250208736900239,-1.3325227153502404,-8.538471308135986,-7.8357466950949535,3.8700449478844625,-33.43897034607621,0.01666666753590107
487,8120.0,-0.7979230866961181,0.39448987782672046,1.0700532437890768,-0.18031367785669863,-1.3554172687254846,-8.559420572662352,-4.687874296742041,5.666623756218766,-32.964972293150254,0.01666666753590107
488,8137.0,-0.8061535202290863,0.25544717170894143,0.9231558786481618,-0.15801760183125732,-1.4839559703551233,-8.706215061950683,0.7006874424453345,4.024955772694467,-33.137356022517615,0.01666666753590107
489,8154.0,-0.8841391886420548,0.2699618731431663,0.9325210883647203,-0.21458068911768494,-1.4724338748656212,-8.694842604064942,6.2205392913021065,3.105308580436097,-32.37478247715862,0.01666666753590107
490,8170.0,-0.6105196697741746,0.1790329173311591,0.7769494183808565,0.08559241708964109,-1.588851930590719,-8.843881657409668,12.527306305781039,1.460423897977839,-27.36933640052272,0.01666666753590107
491,8187.0,-0.6087030488062649,0.134271107801795,0.8837526735424995,0.10190284283421933,-1.6644189204894004,-8.730306716156006,15.366938670193623,-0.19635996119035942,-23.88182814993587,0.01666666753590107
492,8204.0,-0.5822451769262552,0.07098302310928702,0.951363736000657,0.13407492764256893,-1.7643768398009239,-8.655338276672362,16.858438541512843,-3.2759841221807258,-19.949788990049786,0.01666666753590107
493,8220.0,-0.5468807988826185,-0.01711713901758194,1.096149808076024,0.16325426037572324,-1.9053353164121507,-8.500762631988525,17.246828710929158,-7.144641687890029,-15.556611315897584,0.01666666753590107
494,8237.0,-0.7276165015436709,-0.13007701711282132,1.326959382134676,-0.03217245013453066,-2.058714006396383,-8.262988479614258,16.73940712729974,-10.176828184062673,-13.023384652746358,0.01666666753590107
495,8254.0,-0.7918697049412876,-0.16130729102641342,1.325855220285058,-0.11791487015411257,-2.1272480289183555,-8.258050438690185,14.687495357222849,-11.282968782409776,-11.073479196602669,0.01666666753590107
496,8270.0,-0.9489822476916014,-0.21386253091096877,1.2561848872095345,-0.3054107145998627,-2.2206218936644495,-8.321347145080566,10.74167287559168,-10.97109636849147,-8.912020583748882,0.01666666753590107
497,8287.0,-1.0870110275264828,-0.18274755394011735,0.8583119428157806,-0.46462512500025327,-2.2102968990050256,-8.716240781402588,6.883642230457271,-8.420943642803305,-7.680697985841078,0.01666666753590107
498,8304.0,-1.1026276988532393,-0.16188918256759643,0.5536287387728691,-0.48871670614033935,-2.2005704547606406,-9.019107291412354,3.0621005903031846,-0.9946477919869878,-5.554237689181261,0.01666666753590107
499,8320.0,-1.0767998685050755,-0.03805032919198274,-0.22800036185681818,-0.44786571337915954,-2.0795136333189905,-9.79916811981201,-0.3174739160896569,6.979478322249012,-3.5599524385751793,0.01666666753590107
500,8337.0,-0.6234387725800276,0.09244418268054723,-0.758719934207201,0.025587664916738865,-1.948131817217916,-10.328735599517822,0.18871337765154503,7.242161421312179,-1.777440725001634,0.01666666753590107
501,8354.0,-0.32938626814484595,0.12401508672535419,-0.9348802187114953,0.3348885188229382,-1.921645815221965,-10.50276354816854,4.38085217090809,4.341480399211198,0.1881813165873716,0.01666666753590107
502,8370.0,0.02401566635966301,0.13196926060020922,-1.2186772865921258,0.6854894244320691,-1.9448396438047288,-10.780042027935385,14.628168334092118,-4.436140417805228,1.902001710956393,0.01666666753590107
503,8387.0,0.08623100725412368,-0.11465265348777175,-1.0169552753299473,0.72708875134252,-2.240673332568258,-10.568903953552246,23.58439731724391,-10.064393878814155,4.162388570305232,0.01666666753590107
504,8404.0,-0.05164437211733311,-0.15446531617715953,-0.8785597810745239,0.5568011582639069,-2.3422772655211386,-10.41866779937744,23.651005322029874,-10.799278691051569,6.65832795011689,0.01666666753590107
505,8420.0,-0.0818099394088611,-0.18476941515654324,-1.4344891980051993,0.5020337952878325,-2.4320598277769983,-10.96230121383667,10.310477056873252,1.9023656319731077,9.225733733648507,0.01666666753590107
506,8437.0,0.4006581911981106,-0.32029198432415723,-2.2887995039641855,0.9906006080960854,-2.5775075786314905,-11.813888816833495,-1.3960353845070115,7.411414362718741,12.871913255070277,0.01666666753590107
507,8454.0,0.9691928226798773,-0.18323489906564353,-2.4373843838006257,1.5650593323972075,-2.4319101901732383,-11.9641249710083,-5.2719203575752465,3.9902716452023195,18.538463586755466,0.01666666753590107
508,8470.0,1.1464205902852118,-0.045147740107029675,-1.8994594101160764,1.730857797363028,-2.2867617145262655,-11.428571987152099,-1.6111333026746397,0.0467125441877899,22.896904626336276,0.01666666753590107
509,8487.0,0.6749276984073221,-0.046347909677028655,-1.1420552346825599,1.2442363464688881,-2.285115700884908,-10.672752450561523,-4.7975218848091945,-1.8038467699414322,21.125177461297064,0.01666666753590107
510,8504.0,0.7696624762430787,-0.09490165883526205,-0.8870487924784421,1.3226463777737691,-2.313995758410543,-10.423306565093993,-13.87914246895184,-1.453853255996287,17.62041615286676,0.01666666753590107
511,8520.0,0.8676269567150622,-0.16771671967729926,-0.9558727378576993,1.4134764763211831,-2.3232732898436486,-10.507103623199463,-24.67909564118395,4.09759440763073,13.047829046012188,0.01666666753590107
512,8537.0,1.3449670402511953,0.19367402162402866,-1.4787474419265985,1.8984520231718196,-1.89949944986552,-11.043404210552573,-25.634533238136594,7.208748135892477,12.165606808093845,0.01666666753590107
513,8554.0,1.677586006706953,0.4151538956709206,-1.6135504646480083,2.244863039343059,-1.6214727820798753,-11.189600149425864,-20.105235557822812,8.651237131048626,11.85257240824299,0.01666666753590107
514,8570.0,2.024603062479943,0.5038387258179485,-1.343434716117382,2.6123729576444252,-1.4869487224303186,-10.927884564971924,-10.418170357064135,6.9951898917741575,7.974815323011937,0.01666666753590107
515,8587.0,2.1067459236375985,0.3686236151643097,-0.6174743112176656,2.7142762023374436,-1.5999251132689416,-10.205284576416014,-8.64212992756406,10.916016015477195,6.24895842777806,0.01666666753590107
516,8604.0,2.1342127533644435,0.363845879368484,-0.40808629537224766,2.769192983721569,-1.5833151931211351,-9.99848482349813,-9.283025360406574,14.14651705420116,5.451730210117709,0.01666666753590107
517,8620.0,1.8901839245095848,0.1931651953190565,-0.18004677054882048,2.573616854803264,-1.719635196276754,-9.77402900238037,-12.202885126810127,16.01695069803081,2.60764349514922,0.01666666753590107
518,8637.0,1.6155217647209763,-0.07224763621762395,0.4171083907395601,2.34003255533427,-1.951872611181438,-9.18041604374349,-14.272916534981416,17.552493336665567,1.3147625366862066,0.01666666753590107
519,8654.0,1.4509937580823897,-0.28824732528775926,0.6397083548575639,2.2167310967709866,-2.13083933140859,-8.961796089172363,-14.835691679191909,14.86290315284524,0.20383117428614844,0.01666666753590107
520,8670.0,1.0342063429255037,-0.47494493202790616,1.1720850467652082,1.8414400596067309,-2.273743242999166,-8.434323535919189,-10.762514344070329,9.090609539977207,0.26396845528759844,0.01666666753590107
521,8687.0,0.5740059755649417,-0.5753188847944141,1.856076195463538,1.3967170281674712,-2.3526021140500903,-7.753023526000976,-6.385310774839494,4.052950583668234,0.6018036989015922,0.01666666753590107
522,8704.0,0.23957995968721807,-0.59744537640661,2.008242440918088,1.0697589370176195,-2.3615805164061485,-7.602637734222411,-4.929134080586639,2.181678961004786,1.4401731341406918,0.01666666753590107
523,8720.0,-0.029016104995459317,-0.33335575629770753,2.177005016386509,0.806396754400432,-2.077119431658834,-7.437138544464111,-8.016796226971774,2.4209520135745572,5.634539796366278,0.01666666753590107
524,8737.0,-0.24578539019860327,-0.41123423800915476,2.382294949263334,0.5895717934872955,-2.135178821917623,-7.235427054595947,-8.861596712201264,-0.20848941666095003,7.474528725744244,0.01666666753590107
525,8754.0,-0.43502435198463496,-0.48862172133326526,2.422722821241617,0.39294798214696347,-2.1924900241576135,-7.199214754486084,-8.612252118813485,-2.8292780110742557,7.893977472863897,0.01666666753590107
526,8770.0,-0.638196269794181,-0.5525162474863231,2.4134417826771735,0.16789302609227597,-2.230348337908834,-7.214926702880859,-8.523218895435077,-7.123048044829034,8.594972593986999,0.01666666753590107
527,8787.0,-0.6478544711079448,-0.6942917395688593,2.180906700000167,0.13362601483128964,-2.3518540721617636,-7.453000130462646,-8.990137457286318,-9.168609446525105,8.555248213774204,0.01666666753590107
528,8804.0,-0.6818056213527918,-0.769664668200165,2.001171479618549,0.07317242291234433,-2.404676146288961,-7.638700396728515,-10.555857579221485,-8.343725792915373,8.919124834259343,0.01666666753590107
529,8820.0,-0.6349691244412213,-0.8619567290589213,1.5674053840667008,0.08828582089208066,-2.4540565555296836,-8.0820766166687,-16.548286481491736,-7.148365848534978,9.524912240994345,0.01666666753590107
530,8837.0,-0.2804232805985957,-0.8948401770070195,0.9226987825304269,0.42033173670023677,-2.4432826480589807,-8.735544032287597,-18.7591879799736,-8.23729180885271,10.70266737278903,0.01666666753590107
531,8854.0,0.0021148732621222733,-0.9809485807947814,0.5887012211978435,0.6705257371213287,-2.487126465960592,-9.07851342010498,-15.60830901772541,-13.97658024010395,12.979446899589313,0.01666666753590107
532,8870.0,0.10378854698296636,-1.0618009637504815,0.2286234621912241,0.7037453582212329,-2.532317022296041,-9.44856721420288,-7.742856976156426,-22.66679896829313,12.254291691824582,0.01666666753590107
533,8887.0,-0.2266002127353102,-1.2620586015485227,0.09533493568599223,0.3082530984189361,-2.7169696792051194,-9.588029460906982,-6.178066613722028,-24.225559127464052,8.50730626221624,0.01666666753590107
534,8903.0,-0.22548684466592966,-1.397121444249898,0.04765373157858848,0.2457046165799722,-2.8347346194945273,-9.641599723052979,-8.520369852777534,-23.084770687004767,7.169576147228807,0.01666666753590107
535,8920.0,0.12940605904869734,-1.348784114321321,-0.7451298002719878,0.5228334587430581,-2.7549777766905725,-10.442460178375244,-10.301552560948984,-20.91354575741151,10.376002476675769,0.01666666753590107
536,8937.0,0.523959795891866,-0.9623692602701485,-1.3151485328316688,0.86116404431127,-2.3440727706357833,-11.018116040039061,-9.85642059500279,-19.71776404884987,16.36156447750922,0.01666666753590107
537,8954.0,0.5888924329210072,-0.876162949065864,-1.235575814422965,0.8686459610318764,-2.233939494268596,-10.943745566448568,-10.196630610013834,-20.26912594695727,21.578971814658125,0.01666666753590107
538,8970.0,0.4699961505141109,-0.7057993681415915,-1.06176647695899,0.6699272415052168,-2.031779237719625,-10.77630167236328,-9.337018005795525,-20.203745668674614,24.699155906776276,0.01666666753590107
539,8987.0,0.3466271431399509,-0.8291060143366455,-1.198756780591607,0.4870700897107832,-2.134580271502584,-10.91711065750122,-8.243193946069248,-19.656288931225166,25.314549120805253,0.01666666753590107
540,9004.0,0.30606696828519925,-0.875545693950355,-1.2405728920578956,0.3905538078862708,-2.1594201137267053,-10.96245085144043,-9.596941708434006,-17.265399995282422,26.00907007636883,0.01666666753590107
541,9020.0,0.22221156758861615,-0.9442898520916699,-1.3724053745359182,0.23567892110259853,-2.195333138629049,-11.098920346069335,-8.951604945083691,-19.254965798615437,26.407707237087454,0.01666666753590107
542,9037.0,0.05803829723841045,-1.1755661668792365,-1.5819377672880888,0.008678665924235246,-2.4096141872130334,-11.310507917785644,-3.6102885848806463,-22.20159990656544,25.413586863770437,0.01666666753590107
543,9054.0,-0.2256848879886791,-1.386851394648105,-1.661729681405425,-0.3348892768747639,-2.6185082820616663,-11.39011512298584,1.3142871982086561,-17.774155173347285,23.278592672629514,0.01666666753590107
544,9070.0,-0.8497923170778899,-1.787593026345968,-2.198219653850794,-0.9989809897600672,-3.01654416193217,-11.92641629486084,-5.2453509217038965,-0.8961102536568005,23.666496191067463,0.01666666753590107
545,9087.0,0.3022908107473515,-1.2851802416779101,-3.056434566032886,0.14739272917611523,-2.4886228419981897,-12.78773034210205,-12.495199294040102,1.784013394695596,29.737694249940887,0.01666666753590107
546,9104.0,0.6245166309446096,-1.0968260268371552,-3.3060897103369236,0.4607338714490644,-2.270151940508932,-13.040917167663574,-8.990706924308368,-2.3364433636344586,33.15550725023693,0.01666666753590107
547,9120.0,0.5976206964408979,-0.5454688862580805,-2.891657845330238,0.3938458625684492,-1.7030253491941838,-12.627618106079101,1.0821199969749313,-13.525134618043726,35.10781095655294,0.01666666753590107
548,9137.0,0.9400222577750682,-0.03648534489758312,-2.016170895829797,0.6811501165861263,-1.2047322017394007,-11.749544647216796,8.901592592433566,-21.04174328549077,35.71958075522722,0.01666666753590107
549,9154.0,1.0110394023496656,0.0012343641005456447,-1.356163264787197,0.678157327978313,-1.1932100331846625,-11.084106223297118,12.13346479163341,-29.59375825846662,30.41451135517579,0.01666666753590107
550,9170.0,0.5123438481064513,-0.1303172556094825,-0.27218144888877865,0.07272361969891936,-1.3567637148983775,-9.9919007689327,9.333011246073665,-24.845195596514902,23.381480934739294,0.01666666753590107
551,9187.0,0.3544621841471642,0.10875511988177895,-0.5294108278393745,-0.14978753362447023,-1.1388915099546313,-10.243292527770995,9.932869194835451,-18.482295526115866,21.256342706570695,0.01666666753590107
552,9204.0,0.3214505797747522,0.24610680417269468,-0.6815145294517279,-0.2216135834291577,-1.0286087421141563,-10.389787741851807,14.068293458957942,-7.505356784563096,19.847008303419432,0.01666666753590107
553,9220.0,0.4721455836329609,0.5109516265630721,-0.689412589225173,-0.08768792806416749,-0.8177693584166467,-10.389488466644286,19.399292818419685,3.1387611394435266,22.56528186665923,0.01666666753590107
554,9237.0,0.5276349772732705,0.7585419472917914,-0.1850479398369789,-0.023942308862507342,-0.6169556941710412,-9.879074600219726,19.485476145366903,8.911297437470507,23.019849738943797,0.01666666753590107
555,9254.0,0.47319081836957483,0.8610805307462811,0.11843933241963386,-0.060154572439752516,-0.5566515937253832,-9.5705212767452,15.995715639901242,12.386272290930384,21.636563969739672,0.01666666753590107
556,9270.0,0.44631855700239537,0.9367039270073175,0.4630348601341247,-0.04399378429893404,-0.5166984996519982,-9.222913707733154,6.652218345904314,19.031773999559636,18.24401071654163,0.01666666753590107
557,9287.0,0.6270874312806874,1.2556889203861354,0.3059434332370758,0.1839043227598071,-0.20664938466176389,-9.380931017303466,3.064816017385088,22.304199593182787,15.870134074274095,0.01666666753590107
558,9304.0,0.6806134158935397,1.3671744881451129,0.2540034026414156,0.2858075309202075,-0.10414762608632444,-9.433603453826903,6.269609931620417,19.545496432698393,13.46866261398606,0.01666666753590107
559,9320.0,0.6088899131478741,1.5511537758372722,0.5224392352610826,0.2596209867948666,0.04115077942535281,-9.160963155254722,18.250063971693557,10.58272839718996,8.17436612980303,0.01666666753590107
560,9337.0,0.2501817619940266,1.4089322935529052,1.2607897506564856,-0.08304912581499665,-0.15711933781728146,-8.414272097015381,25.74305811385893,3.6047685113708066,2.387877889735828,0.01666666753590107
561,9354.0,0.0928881270557642,1.442561445301771,1.5010644876748322,-0.23971973348408937,-0.1925833037778735,-8.162581647491455,28.28900258924472,-3.0855851285472156,-4.734787877943097,0.01666666753590107
562,9370.0,-0.20871738657485692,1.3178269582606852,1.813845073455572,-0.5491702980592846,-0.41255058130472894,-7.832930006408691,26.71268542881228,-3.004625615654585,-12.729282683501133,0.01666666753590107
563,9387.0,-0.6642674804441631,1.3434034441962837,1.980548962828517,-0.9992801736360415,-0.4510072993405163,-7.65471103580892,22.72494436869745,2.39779169587269,-17.457092669433415,0.01666666753590107
564,9404.0,-0.8205603043094277,1.3775469752080738,1.9797586892336605,-1.1342533287599683,-0.4715077971860766,-7.645883001708984,19.780395175991593,6.574748205903913,-21.699799568622943,0.01666666753590107
565,9420.0,-0.8820635514117777,1.3307409465000033,1.75213592851758,-1.151611290796101,-0.5886740409299731,-7.861061875915527,21.87461313778754,9.140382836006381,-26.610905364895334,0.01666666753590107
566,9437.0,-0.7808297669455408,1.2678762017861007,1.5945523341894148,-1.0148425209596752,-0.7158660041257738,-8.006509626770018,28.205182507750322,8.013253920113476,-29.162530850123282,0.01666666753590107
567,9454.0,-0.8801153399534523,1.1927722993545233,1.5844143865346907,-1.0790370712389237,-0.8725365752622485,-8.00022484741211,35.18943854732376,6.857522306410672,-31.398400105116128,0.01666666753590107
568,9470.0,-1.1755953199084848,0.8986635346874594,1.3517390186041593,-1.3260887733126059,-1.291072952978313,-8.206126190185547,35.09894878610484,6.922111563410075,-37.71701493648409,0.01666666753590107
569,9487.0,-1.2449996224589646,0.5903210774846375,0.9541349542796611,-1.346888445900986,-1.6810285483762621,-8.585307878112792,29.310663992842517,14.49615956045599,-36.4124385597279,0.01666666753590107
570,9504.0,-1.1912222203683107,0.41448841749951243,0.4434562994390726,-1.2325652344301343,-1.9241896544858812,-9.080159433746337,24.71847851193824,16.83269897362565,-30.804795194539487,0.01666666753590107
571,9520.0,-0.847027747735381,0.15370178445875643,-0.4396083918392658,-0.8177698219242389,-2.2679070841915903,-9.942520359691978,26.72042915578378,10.251085146945407,-28.146377994091097,0.01666666753590107
572,9537.0,-1.0566359091375022,-0.12537380785793065,-0.7602969742655754,-0.9968860222082352,-2.6204534247800706,-10.244040715789794,33.996802140874905,0.09228036467894153,-28.12083991678442,0.01666666753590107
573,9554.0,-0.9262905234120785,-0.43252223297059533,-0.5739858826249837,-0.8569748992254724,-3.022080461010337,-10.032302921947837,41.83803689296796,-6.445194885274404,-27.60422319098487,0.01666666753590107
574,9570.0,-1.26232455900833,-0.6760965960562229,-0.7351677937060594,-1.1988968329496914,-3.4070983077451586,-10.153659603118896,42.20909716491266,-8.988330018477203,-25.094377972909893,0.01666666753590107
575,9587.0,-2.008508398377895,-1.1134826356709002,-1.686409364631772,-1.940051774773956,-3.942052448925376,-11.076025792694091,37.2077423715896,-0.6922934601205062,-25.3513228592966,0.01666666753590107
576,9603.0,-2.22632741182968,-1.268485565856099,-2.064867414459586,-2.137124640489463,-4.186410948126018,-11.426925973510741,37.34293230583167,-2.0201437064735153,-28.63643552930305,0.01666666753590107
