,ms,accelX,accelY,accelZ,accelWithGX,accelWithGY,accelWithGZ,rotRateAlpha,rotRateBeta,rotRateGamma,interval
0,215.0,0.8,0.30000000000000004,0.8,0.7000000000000001,1.6,10.600000000000001,-14.5,-7.500000000000001,-5.8,16
1,232.0,0.7000000000000001,0.30000000000000004,1.0,0.6000000000000001,1.7000000000000002,10.8,-9.5,-6.699999999999999,-5.1000000000000005,16
2,257.0,0.30000000000000004,0.5,0.4,0.5,1.8,10.4,-2.5,-6.600000000000001,-4.800000000000001,16
3,265.0,0.2,0.5,0.1,0.30000000000000004,1.9000000000000001,9.9,2.9,-5.6,-4.6,16
4,288.0,0.1,0.4,-0.7000000000000001,0.30000000000000004,1.9000000000000001,9.1,5.7,-4.6,-3.7000000000000006,16
5,299.0,0.2,0.4,-1.0,0.30000000000000004,2.0,8.8,5.7,-4.6,-3.7000000000000006,16
6,315.0,0.2,0.5,-1.1,0.4,2.1,8.700000000000001,5.6,-3.9,-2.9,16
7,332.0,0.2,0.7000000000000001,-0.9,0.4,2.3000000000000003,8.8,3.3000000000000007,-0.1,-3.3000000000000007,16
8,348.0,0.30000000000000004,0.7000000000000001,-0.8,0.5,2.4000000000000004,8.8,3.3000000000000007,-0.1,-3.3000000000000007,16
9,365.0,0.2,0.7000000000000001,-0.9,0.5,2.5,8.700000000000001,3.9,2.2,-4.800000000000001,16
10,382.0,0.4,0.8,-0.8,0.5,2.5,8.700000000000001,4.800000000000001,1.9,-5.9,16
11,400.0,0.4,0.9,-0.6000000000000001,0.6000000000000001,2.7,8.9,5.7,-1.5,-10.600000000000001,16
12,417.0,0.30000000000000004,0.8,0.1,0.5,2.7,9.5,2.1,-0.6000000000000001,-12.8,16
13,432.0,0.30000000000000004,0.8,0.6000000000000001,0.5,2.7,10.3,2.1,-0.6000000000000001,-12.8,16
14,451.0,0.2,0.8,0.7000000000000001,0.4,2.7,10.3,1.6,13.200000000000003,-16.200000000000003,16
15,467.0,-0.2,0.6000000000000001,0.6000000000000001,0.0,2.6,10.200000000000001,5.6,15.899999999999999,-15.8,16
16,482.0,-0.30000000000000004,0.5,0.5,-0.30000000000000004,2.5,9.8,5.6,15.899999999999999,-15.8,16
17,499.0,-0.5,0.4,-0.5,-0.5,2.5,9.0,12.9,17.0,-8.600000000000001,16
18,521.0,-0.30000000000000004,0.6000000000000001,-0.8,-0.4,2.7,8.8,11.1,15.5,-5.4,16
19,536.0,-0.30000000000000004,0.7000000000000001,-0.8,-0.4,2.8000000000000003,8.700000000000001,7.1000000000000005,14.600000000000001,-4.0,16
20,549.0,-0.4,0.6000000000000001,-0.4,-0.6000000000000001,2.8000000000000003,9.3,1.2000000000000002,14.600000000000001,-2.3,16
21,565.0,-0.6000000000000001,0.4,0.5,-0.8,2.7,10.100000000000001,-1.9,16.0,1.9,16
22,612.0,-0.6000000000000001,0.2,1.5,-1.0,2.5,11.0,12.9,7.6,16.5,16
23,615.0,-0.6000000000000001,0.2,1.5,-1.0,2.5,11.0,12.9,7.6,16.5,16
24,634.0,-0.6000000000000001,0.2,1.1,-1.0,2.6,10.700000000000001,15.899999999999999,-0.30000000000000004,22.700000000000003,16
25,648.0,-0.30000000000000004,0.2,1.0,-0.4,2.7,10.600000000000001,15.899999999999999,-0.30000000000000004,22.700000000000003,16
26,665.0,0.30000000000000004,0.30000000000000004,0.8,0.2,2.8000000000000003,10.4,9.100000000000001,-9.100000000000001,25.1,16
27,682.0,0.9,0.5,0.8,0.7000000000000001,2.9000000000000004,10.700000000000001,-8.899999999999999,-10.4,20.7,16
28,701.0,1.2000000000000002,0.6000000000000001,1.6,1.2000000000000002,2.9000000000000004,12.5,-8.899999999999999,-10.4,20.7,16
29,715.0,1.3,0.4,4.2,0.9,2.5,14.8,-29.300000000000004,-8.4,13.200000000000003,16
30,732.0,0.30000000000000004,-0.5,5.5,0.0,1.6,15.5,-19.9,1.8000000000000003,1.5,16
31,748.0,-0.7000000000000001,-1.2000000000000002,4.4,-0.8,0.9,14.600000000000001,2.4000000000000004,-0.7,7.0,16
32,766.0,-0.8,-1.4000000000000001,3.4000000000000004,-0.9,0.9,12.8,2.4000000000000004,-0.7,7.0,16
33,782.0,-0.6000000000000001,-1.2000000000000002,1.4000000000000001,-0.7000000000000001,1.1,11.3,25.8,-5.6,19.9,16
34,798.0,-0.5,-1.0,-0.1,-0.6000000000000001,1.3,10.0,25.200000000000003,-1.0,19.9,16
35,815.0,-0.7000000000000001,-1.1,-0.9,-0.8,1.3,8.8,25.200000000000003,-1.0,19.9,16
36,832.0,-0.7000000000000001,-1.1,-1.6,-0.7000000000000001,1.3,8.8,19.0,-1.1,19.200000000000003,16
37,849.0,-0.5,-1.0,-0.8,-0.5,1.4000000000000001,9.5,8.899999999999999,-13.6,16.900000000000002,16
38,865.0,-0.4,-0.9,-0.4,-0.5,1.4000000000000001,9.5,8.899999999999999,-13.6,16.900000000000002,16
39,882.0,-0.5,-1.0,-0.4,-0.5,1.3,9.700000000000001,8.5,-11.700000000000001,13.399999999999999,16
40,899.0,-0.7000000000000001,-1.2000000000000002,-0.5,-0.7000000000000001,1.1,9.5,10.4,-8.3,8.899999999999999,16
41,916.0,-0.9,-1.3,-0.6000000000000001,-0.7000000000000001,1.1,9.5,10.4,-8.3,8.899999999999999,16
42,932.0,-1.1,-1.5,-1.0,-1.0,1.0,8.9,12.5,-7.400000000000001,10.4,16
43,949.0,-0.9,-1.4000000000000001,-1.4000000000000001,-0.7000000000000001,1.2000000000000002,8.4,14.5,-7.300000000000001,14.100000000000001,16
44,965.0,-0.7000000000000001,-1.2000000000000002,-2.0,-0.6000000000000001,1.3,7.9,21.400000000000002,-9.4,19.400000000000002,16
45,982.0,-0.6000000000000001,-1.2000000000000002,-2.3000000000000003,-0.5,1.3,7.6000000000000005,23.3,-7.6,21.6,16
46,998.0,-0.5,-1.2000000000000002,-2.5,-0.2,1.5,7.1000000000000005,23.3,-7.6,21.6,16
47,1015.0,-0.30000000000000004,-1.0,-3.0,-0.1,1.6,6.7,21.1,0.30000000000000004,22.8,16
48,1032.0,-0.30000000000000004,-1.0,-3.0,-0.1,1.6,6.7,20.599999999999998,1.1,22.3,16
49,1048.0,-0.30000000000000004,-1.0,-2.7,0.0,1.7000000000000002,6.9,20.599999999999998,1.1,22.3,16
50,1066.0,-0.2,-1.0,-2.8000000000000003,0.1,1.8,6.7,23.6,-1.6,22.1,16
51,1083.0,-0.2,-1.0,-2.7,0.1,1.8,6.800000000000001,23.400000000000002,-14.900000000000002,19.5,16
52,1098.0,-0.2,-1.0,-2.2,0.1,1.8,7.2,13.3,-16.1,18.1,16
53,1118.0,-0.2,-1.0,-1.0,0.2,1.8,8.200000000000001,0.4,-17.0,17.300000000000004,16
54,1134.0,-0.1,-1.0,-0.30000000000000004,0.5,1.8,9.5,-8.600000000000001,-20.0,15.899999999999999,16
55,1150.0,0.30000000000000004,-1.1,1.2000000000000002,0.9,1.6,10.700000000000001,-9.2,-27.0,13.100000000000001,16
56,1165.0,0.30000000000000004,-1.2000000000000002,1.8,1.1,1.4000000000000001,12.0,-9.2,-27.0,13.100000000000001,16
57,1182.0,0.7000000000000001,-1.2000000000000002,3.2,1.6,1.5,12.700000000000001,-4.800000000000001,-35.1,11.000000000000002,16
58,1198.0,0.9,-1.0,3.0,1.8,1.7000000000000002,12.5,4.6,-22.8,4.9,16
59,1215.0,0.9,-0.9,2.6,1.6,1.8,11.600000000000001,4.6,-22.8,4.9,16
60,1232.0,0.4,-0.9,1.4000000000000001,1.2000000000000002,1.9000000000000001,10.4,6.4,-10.5,-0.30000000000000004,16
61,1248.0,0.1,-0.6000000000000001,-0.1,1.0,2.1,9.200000000000001,5.300000000000001,0.4,-4.7,16
62,1265.0,-0.1,-0.5,-0.8,0.9,2.2,8.8,1.6,-12.7,-5.2,16
63,1284.0,0.5,-0.4,0.7000000000000001,1.5,2.3000000000000003,10.100000000000001,-3.1,-20.1,-8.5,16
64,1298.0,0.8,-0.4,1.2000000000000002,1.9000000000000001,2.2,11.0,-3.1,-20.1,-8.5,16
65,1315.0,0.7000000000000001,-0.8,2.0,1.7000000000000002,1.7000000000000002,11.600000000000001,-16.200000000000003,-1.7,-22.1,16
66,1332.0,0.4,-1.1,2.3000000000000003,1.0,1.1,12.200000000000001,-16.200000000000003,-1.7,-22.1,16
67,1349.0,-0.30000000000000004,-1.7000000000000002,2.8000000000000003,0.9,0.7000000000000001,12.5,-13.6,-1.7,-21.400000000000002,16
68,1365.0,0.30000000000000004,-1.6,2.1,1.5,1.2000000000000002,11.4,10.200000000000001,-7.1000000000000005,-5.0,16
69,1382.0,1.2000000000000002,-0.5,0.2,2.3000000000000003,2.1,9.8,10.8,-5.8,-5.9,16
70,1399.0,1.5,0.0,-0.5,2.4000000000000004,2.7,8.8,10.8,-5.8,-5.9,16
71,1416.0,1.1,0.2,-1.4000000000000001,2.0,2.8000000000000003,8.1,2.9,-0.5,-14.200000000000001,16
72,1432.0,0.6000000000000001,0.1,-1.8,1.6,2.6,7.9,-8.700000000000001,2.4000000000000004,-26.200000000000003,16
73,1448.0,0.2,-0.2,-1.4000000000000001,1.2000000000000002,2.3000000000000003,8.3,-3.0,-5.4,-24.7,16
74,1465.0,0.2,-0.4,-1.1,1.4000000000000001,2.2,8.6,-3.0,-5.4,-24.7,16
75,1482.0,0.7000000000000001,-0.4,-1.1,1.9000000000000001,2.3000000000000003,8.4,21.200000000000003,-10.9,-17.0,16
76,1499.0,1.2000000000000002,-0.2,-1.9000000000000001,2.3000000000000003,2.5,7.6000000000000005,29.200000000000003,-5.8,-18.8,16
77,1517.0,1.3,-0.1,-3.1,2.4000000000000004,2.7,6.5,29.200000000000003,1.2000000000000002,-24.1,16
78,1532.0,1.1,-0.2,-3.6,1.9000000000000001,2.6,5.7,29.200000000000003,1.2000000000000002,-24.1,16
79,1550.0,0.2,-0.5,-3.8000000000000003,1.1,2.4000000000000004,5.7,11.8,8.5,-31.400000000000002,16
80,1565.0,-0.30000000000000004,-0.6000000000000001,-3.4000000000000004,0.2,2.2,6.5,11.8,8.5,-31.400000000000002,16
81,1582.0,-1.1,-0.7000000000000001,-2.2,-0.30000000000000004,2.2,7.5,5.500000000000001,8.2,-27.0,16
82,1600.0,-1.1,-0.6000000000000001,-1.3,-0.2,2.4000000000000004,8.0,12.8,11.700000000000001,-9.2,16
83,1615.0,-0.9,-0.2,-1.5,-0.1,2.8000000000000003,7.7,18.0,16.8,-3.1,16
84,1632.0,-0.9,-0.2,-2.1,-0.2,2.9000000000000004,7.0,18.0,16.8,-3.1,16
85,1648.0,-0.9,-0.1,-2.0,-0.2,3.0,7.5,14.300000000000002,16.3,1.8000000000000003,16
86,1665.0,-0.8,0.1,-0.7000000000000001,0.0,3.2,8.8,-8.5,2.5,15.299999999999999,16
87,1682.0,0.0,0.5,1.4000000000000001,0.7000000000000001,3.5,10.5,-13.399999999999999,-10.0,18.900000000000002,16
88,1699.0,0.5,0.6000000000000001,2.5,1.5,3.5,12.200000000000001,-13.399999999999999,-10.0,18.900000000000002,16
89,1715.0,1.2000000000000002,0.6000000000000001,3.7,2.2,3.6,13.100000000000001,-4.5,-23.700000000000003,13.6,16
90,1732.0,1.6,0.8,4.2,2.5,3.8000000000000003,13.5,-3.0,-18.3,5.8,16
91,1748.0,1.4000000000000001,0.8,4.3,2.2,3.7,13.4,-3.0,-18.3,5.8,16
92,1765.0,0.5,0.30000000000000004,3.1,1.1,3.1,11.9,-8.3,11.1,-10.9,16
93,1782.0,-0.30000000000000004,0.0,1.9000000000000001,-0.1,2.5,10.700000000000001,-8.3,11.1,-10.9,16
94,1798.0,-1.3,-0.6000000000000001,1.3,-0.5,1.9000000000000001,11.4,-18.4,6.1000000000000005,-9.100000000000001,16
95,1815.0,-1.4000000000000001,-1.1,3.2,-0.4,1.5,13.5,-27.400000000000002,-5.6,-2.3,16
96,1832.0,-1.1,-1.4000000000000001,5.1000000000000005,-0.1,1.2000000000000002,14.8,-6.4,-14.400000000000002,13.700000000000001,16
97,1849.0,-0.8,-1.8,4.800000000000001,0.2,0.9,14.3,20.3,-7.500000000000001,20.400000000000002,16
98,1866.0,-0.7000000000000001,-1.8,3.4000000000000004,0.4,1.0,11.600000000000001,20.3,-7.500000000000001,20.400000000000002,16
99,1884.0,-0.6000000000000001,-1.7000000000000002,-0.2,0.5,1.4000000000000001,8.8,47.900000000000006,-7.500000000000001,29.0,16
100,1899.0,-0.30000000000000004,-1.2000000000000002,-2.3000000000000003,0.9,1.9000000000000001,7.1000000000000005,34.800000000000004,-15.299999999999999,28.1,16
101,1915.0,-0.1,-0.9,-2.7,1.2000000000000002,2.3000000000000003,7.0,34.800000000000004,-15.299999999999999,28.1,16
102,1932.0,0.1,-0.6000000000000001,-1.6,1.4000000000000001,2.4000000000000004,8.4,11.4,-18.200000000000003,22.8,16
103,1948.0,0.1,-0.6000000000000001,-0.7000000000000001,1.4000000000000001,2.4000000000000004,8.4,-8.5,-15.5,16.0,16
104,1965.0,0.4,-1.5,0.30000000000000004,1.5,1.9000000000000001,9.600000000000001,-12.8,-12.200000000000001,9.3,16
105,1982.0,-1.1,-1.1,0.9,0.7000000000000001,1.7000000000000002,9.700000000000001,-3.5,-11.6,6.699999999999999,16
106,1998.0,-0.2,-1.2000000000000002,-0.9,1.2000000000000002,1.8,8.4,24.7,-10.0,14.400000000000002,16
107,2015.0,0.1,-1.0,-1.4000000000000001,1.6,2.0,8.0,25.6,-10.8,14.600000000000001,16
108,2032.0,0.4,-0.9,-1.5,2.2,2.3000000000000003,7.7,25.6,-10.8,14.600000000000001,16
109,2051.0,0.9,-0.6000000000000001,-2.0,2.3000000000000003,2.5,7.0,24.3,-3.1,10.4,16
110,2067.0,0.6000000000000001,-0.7000000000000001,-3.2,1.9000000000000001,2.5,5.9,22.5,9.100000000000001,-8.100000000000001,16
111,2084.0,-0.2,-0.9,-3.6,1.2000000000000002,2.4000000000000004,5.6000000000000005,17.0,0.8,-13.100000000000001,16
112,2100.0,-0.4,-1.0,-3.2,0.9,2.2,6.6000000000000005,17.0,0.8,-13.100000000000001,16
113,2116.0,-0.4,-1.1,-1.8,1.1,2.2,7.6000000000000005,11.2,-15.5,-11.5,16
114,2132.0,-0.2,-1.1,-1.2000000000000002,1.1,2.2,7.6000000000000005,11.2,-15.5,-11.5,16
115,2150.0,0.30000000000000004,-0.9,-0.30000000000000004,1.9000000000000001,2.7,8.6,14.200000000000001,-4.4,-10.9,16
116,2166.0,0.7000000000000001,-0.6000000000000001,-0.9,2.1,2.9000000000000004,8.1,17.200000000000003,9.8,-13.200000000000003,16
117,2183.0,0.7000000000000001,-0.6000000000000001,-1.1,1.9000000000000001,2.8000000000000003,8.1,10.8,14.800000000000002,-24.5,16
118,2198.0,0.4,-1.0,-0.8,1.7000000000000002,2.5,8.3,6.300000000000001,11.000000000000002,-27.400000000000002,16
119,2215.0,0.2,-1.3,-0.5,1.3,2.1,9.1,6.300000000000001,11.000000000000002,-27.400000000000002,16
120,2232.0,-0.1,-1.6,0.8,1.1,1.8,10.100000000000001,-2.0,-1.2000000000000002,-24.200000000000003,16
121,2249.0,-0.1,-1.7000000000000002,1.3,1.1,1.8,10.100000000000001,-2.0,-1.2000000000000002,-24.200000000000003,16
122,2265.0,0.1,-1.5,1.8,1.6,2.2,10.700000000000001,-0.8,-5.0,-17.5,16
123,2282.0,0.4,-1.1,1.2000000000000002,1.6,2.3000000000000003,9.9,0.9000000000000001,-5.500000000000001,-11.6,16
124,2298.0,0.4,-1.3,-0.4,1.8,2.2,8.6,-6.2,-20.1,-1.4,16
125,2315.0,0.7000000000000001,-1.2000000000000002,-0.9,1.8,2.2,8.6,-6.2,-20.1,-1.4,16
126,2332.0,1.2000000000000002,-1.1,1.8,3.0,1.9000000000000001,13.200000000000001,-25.300000000000004,-51.4,-1.8000000000000003,16
127,2348.0,1.8,-1.7000000000000002,7.800000000000001,3.6,1.3,17.5,-39.400000000000006,-38.800000000000004,-4.2,16
128,2365.0,1.9000000000000001,-2.1,7.5,3.5,1.0,16.400000000000002,-6.1000000000000005,16.5,-1.7,16
129,2382.0,1.7000000000000002,-1.9000000000000001,4.7,3.1,1.4000000000000001,11.3,-6.1000000000000005,16.5,-1.7,16
130,2399.0,1.4000000000000001,-1.5,-0.8,3.1,1.9000000000000001,7.7,23.800000000000004,29.400000000000002,1.9,16
131,2415.0,1.8,-0.9,-2.3000000000000003,3.5,2.5,7.2,16.1,-35.699999999999996,3.9,16
132,2434.0,1.7000000000000002,-0.4,-0.5,3.6,2.8000000000000003,8.700000000000001,-8.0,-34.60000000000001,-0.1,16
133,2448.0,1.5,-0.4,0.30000000000000004,3.2,2.8000000000000003,9.5,-8.0,-34.60000000000001,-0.1,16
134,2466.0,0.9,-0.30000000000000004,-0.2,2.5,2.7,8.8,-22.000000000000004,14.600000000000001,-11.000000000000002,16
135,2485.0,-0.30000000000000004,-0.7000000000000001,-1.7000000000000002,1.4000000000000001,2.4000000000000004,7.5,-13.100000000000001,18.900000000000002,-11.900000000000002,16
136,2498.0,-0.9,-0.9,-2.4000000000000004,0.5,2.1,6.4,-13.100000000000001,18.900000000000002,-11.900000000000002,16
137,2516.0,-0.9,-0.9,-2.4000000000000004,0.5,2.1,6.4,-13.100000000000001,18.900000000000002,-11.900000000000002,16
138,2532.0,-1.0,-0.4,-3.2,0.9,2.7,6.0,3.4,-7.8,3.8,16
139,2548.0,-0.6000000000000001,-0.1,-3.3000000000000003,1.2000000000000002,3.0,5.800000000000001,1.9,-3.5,3.1,16
140,2565.0,-0.5,0.0,-3.4000000000000004,1.2000000000000002,3.2,5.800000000000001,1.9,-3.5,3.1,16
141,2582.0,-0.6000000000000001,0.2,-3.0,1.1,3.2,6.300000000000001,-4.1,-0.30000000000000004,0.6000000000000001,16
142,2599.0,-0.7000000000000001,0.1,-1.8,1.1,3.2,7.4,-1.7,-1.7,2.4000000000000004,16
143,2615.0,-0.6000000000000001,0.1,-1.2000000000000002,1.4000000000000001,3.2,8.4,-1.7,-1.7,2.4000000000000004,16
144,2632.0,0.0,0.30000000000000004,-0.2,1.9000000000000001,3.5,8.8,6.500000000000001,-2.7,5.9,16
145,2648.0,0.30000000000000004,0.5,-0.6000000000000001,2.0,3.7,8.4,27.6,12.0,5.6,16
146,2665.0,0.4,0.6000000000000001,-0.9,2.1,4.0,8.0,27.6,12.0,5.6,16
147,2682.0,0.5,0.8,-1.3,2.1,4.2,7.6000000000000005,28.700000000000003,18.900000000000002,2.2,16
148,2698.0,0.30000000000000004,0.9,-1.6,1.7000000000000002,4.3,7.5,10.5,24.200000000000003,-6.1000000000000005,16
149,2715.0,-0.30000000000000004,0.7000000000000001,-0.8,1.2000000000000002,4.0,8.3,2.0,17.300000000000004,-5.1000000000000005,16
150,2732.0,-0.5,0.5,-0.1,0.9,3.8000000000000003,9.4,2.0,17.300000000000004,-5.1000000000000005,16
151,2749.0,-0.5,0.30000000000000004,1.0,1.1,3.8000000000000003,10.200000000000001,-0.5,9.4,0.7,16
152,2765.0,0.1,0.7000000000000001,1.8,1.6,4.1000000000000005,10.9,5.6,-3.6000000000000005,10.299999999999999,16
153,2782.0,0.5,0.9,2.8000000000000003,2.0,4.4,11.8,8.0,-7.300000000000001,8.700000000000001,16
154,2798.0,0.5,1.0,3.5,2.0,4.5,12.8,8.0,-7.300000000000001,8.700000000000001,16
155,2815.0,0.4,1.0,3.1,1.7000000000000002,4.4,11.700000000000001,7.300000000000001,26.700000000000003,2.6,16
156,2834.0,-0.2,0.4,0.6000000000000001,1.1,3.9000000000000004,9.600000000000001,2.7,26.200000000000003,0.0,16
157,2849.0,-0.7000000000000001,0.2,0.0,0.4,3.4000000000000004,9.200000000000001,2.7,26.200000000000003,0.0,16
158,2865.0,-1.0,-0.2,1.4000000000000001,0.5,3.1,11.5,-4.6,-4.1,2.9,16
159,2882.0,-0.7000000000000001,-0.8,5.1000000000000005,1.0,2.6,14.5,-10.600000000000001,-49.199999999999996,16.200000000000003,16
160,2899.0,-0.1,-0.9,6.300000000000001,1.6,2.4000000000000004,15.4,4.5,-23.099999999999998,17.0,16
161,2915.0,-0.1,-0.9,4.9,1.5,2.6,12.8,4.5,-23.099999999999998,17.0,16
162,2932.0,-0.6000000000000001,-0.9,1.2000000000000002,1.0,2.5,10.0,20.900000000000002,2.9,6.600000000000001,16
163,2948.0,-0.9,-1.1,0.30000000000000004,1.0,2.5,10.0,20.900000000000002,2.9,6.600000000000001,16
164,2965.0,-1.6,-1.4000000000000001,0.2,0.1,2.0,9.700000000000001,11.6,-7.699999999999999,6.0,16
165,2982.0,-1.6,-1.5,1.3,0.5,2.0,10.600000000000001,2.6,-16.3,10.700000000000001,16
166,2998.0,-0.9,-1.5,1.7000000000000002,1.0,2.0,10.700000000000001,12.0,-8.2,18.700000000000003,16
167,3016.0,-0.4,-1.5,0.8,1.4000000000000001,2.0,9.9,25.0,3.7000000000000006,18.700000000000003,16
168,3032.0,-0.2,-1.5,0.0,1.7000000000000002,2.1,8.4,25.0,3.7000000000000006,18.700000000000003,16
169,3048.0,0.0,-1.5,-2.0,1.8,2.2,6.800000000000001,36.0,21.7,13.100000000000001,16
170,3065.0,0.0,-1.6,-3.4000000000000004,1.7000000000000002,2.2,5.5,30.200000000000003,22.1,9.2,16
171,3082.0,-0.30000000000000004,-1.7000000000000002,-3.7,1.3,2.0,5.2,30.200000000000003,22.1,9.2,16
172,3099.0,-0.5,-1.9000000000000001,-3.5,1.2000000000000002,1.9000000000000001,5.6000000000000005,14.5,14.200000000000001,10.600000000000001,16
173,3115.0,-0.30000000000000004,-1.8,-3.0,1.4000000000000001,2.0,5.9,13.6,12.7,12.5,16
174,3132.0,-0.30000000000000004,-1.7000000000000002,-2.8000000000000003,1.4000000000000001,2.3000000000000003,6.300000000000001,13.6,12.7,12.5,16
175,3148.0,-0.1,-1.4000000000000001,-2.2,1.7000000000000002,2.6,6.800000000000001,16.900000000000002,8.0,13.6,16
176,3165.0,0.1,-1.0,-1.7000000000000002,1.8,3.0,7.1000000000000005,23.900000000000006,5.6,13.399999999999999,16
177,3182.0,0.1,-0.6000000000000001,-1.9000000000000001,1.7000000000000002,3.3000000000000003,6.9,21.7,14.300000000000002,11.3,16
178,3198.0,0.1,-0.5,-2.1,1.7000000000000002,3.7,6.4,21.7,14.300000000000002,11.3,16
179,3215.0,-0.2,0.2,-2.3000000000000003,1.3,4.3,6.5,10.0,16.5,1.1,16
180,3232.0,-0.1,0.4,-1.7000000000000002,1.4000000000000001,4.4,7.2,4.0,6.600000000000001,-2.2,16
181,3248.0,-0.2,0.4,0.1,1.4000000000000001,4.5,8.700000000000001,0.9000000000000001,0.1,-5.2,16
182,3265.0,-0.2,0.4,1.2000000000000002,1.4000000000000001,4.4,10.4,0.9000000000000001,0.1,-5.2,16
183,3282.0,-0.1,0.1,2.1,1.2000000000000002,4.1000000000000005,10.600000000000001,17.300000000000004,24.599999999999998,-10.4,16
184,3298.0,-0.7000000000000001,-0.30000000000000004,0.7000000000000001,0.7000000000000001,3.9000000000000004,9.3,27.400000000000002,31.9,-8.100000000000001,16
185,3315.0,-0.6000000000000001,-0.30000000000000004,0.0,0.7000000000000001,4.0,8.200000000000001,27.400000000000002,31.9,-8.100000000000001,16
186,3332.0,-0.6000000000000001,-0.2,-1.1,0.7000000000000001,4.1000000000000005,7.4,24.599999999999998,3.2,-2.6,16
187,3349.0,-0.4,-0.2,-1.3,0.9,4.2,7.300000000000001,7.699999999999999,-12.5,-0.30000000000000004,16
188,3365.0,-0.1,0.0,-1.2000000000000002,1.5,4.3,7.5,7.699999999999999,-12.5,-0.30000000000000004,16
189,3384.0,0.4,0.1,-0.8,1.8,4.2,8.1,-17.5,-18.3,0.5,16
190,3399.0,0.4,0.0,0.9,2.0,3.9000000000000004,10.3,-67.5,-48.800000000000004,2.3,16
191,3415.0,0.5,-0.5,5.7,2.2,3.3000000000000003,14.5,-70.2,-63.900000000000006,7.500000000000001,16
192,3432.0,0.7000000000000001,-0.8,7.7,2.6,2.5,17.2,-70.2,-63.900000000000006,7.500000000000001,16
193,3448.0,0.4,-1.4000000000000001,8.3,2.2,2.4000000000000004,16.6,-22.2,-4.300000000000001,15.399999999999999,16
194,3469.0,0.5,-0.9,4.5,2.3000000000000003,2.7,13.100000000000001,6.4,39.300000000000004,20.1,16
195,3482.0,0.4,-0.7000000000000001,-0.2,2.2,3.0,9.1,26.700000000000003,43.70000000000001,18.8,16
196,3498.0,0.1,-0.4,-1.8,1.8,3.4000000000000004,6.6000000000000005,26.700000000000003,43.70000000000001,18.8,16
197,3515.0,0.4,0.0,-2.7,2.3000000000000003,3.8000000000000003,6.5,24.900000000000002,-28.500000000000004,18.8,16
198,3532.0,0.9,0.5,-0.8,2.9000000000000004,4.3,8.1,5.9,-47.400000000000006,18.4,16
199,3548.0,1.3,0.7000000000000001,0.4,3.7,4.5,10.0,5.9,-47.400000000000006,18.4,16
200,3565.0,1.9000000000000001,0.7000000000000001,2.0,4.0,4.4,10.700000000000001,-11.3,-11.6,1.8000000000000003,16
201,3582.0,1.6,0.4,0.5,3.6,4.1000000000000005,9.200000000000001,-1.7,18.4,-12.7,16
202,3599.0,1.1,0.1,-1.0,2.4000000000000004,3.6,6.7,-1.7,18.4,-12.7,16
203,3615.0,-0.1,-0.5,-3.3000000000000003,1.5,3.2,5.2,7.300000000000001,29.400000000000002,-24.200000000000003,16
204,3632.0,-1.0,-0.9,-3.8000000000000003,0.8,2.9000000000000004,5.2,2.9,4.1,-23.400000000000002,16
205,3648.0,-1.0,-1.1,-3.3000000000000003,0.9,2.8000000000000003,6.0,2.9,4.1,-23.400000000000002,16
206,3666.0,-0.7000000000000001,-1.0,-2.6,1.2000000000000002,3.0,6.300000000000001,-1.7,1.9,-16.700000000000003,16
207,3683.0,-0.30000000000000004,-0.7000000000000001,-2.5,1.4000000000000001,3.2,6.2,3.5,14.700000000000001,-8.600000000000001,16
208,3701.0,-0.30000000000000004,-0.4,-2.6,1.4000000000000001,3.5,6.2,9.600000000000001,13.6,-5.6,16
209,3716.0,-0.2,-0.2,-2.3000000000000003,1.5,3.9000000000000004,6.7,9.600000000000001,13.6,-5.6,16
210,3734.0,0.0,0.0,-1.6,1.5,4.0,7.2,17.6,10.299999999999999,-2.9,16
211,3748.0,-1.1,-1.1,-1.3,0.6000000000000001,3.2,7.5,32.5,16.700000000000003,8.8,16
212,3765.0,-0.6000000000000001,-0.1,-0.9,1.8,5.1000000000000005,7.5,32.5,16.700000000000003,8.8,16
213,3782.0,0.30000000000000004,1.2000000000000002,-1.5,1.5,5.5,7.0,28.1,31.2,10.1,16
214,3798.0,0.0,1.4000000000000001,-1.3,1.4000000000000001,5.6000000000000005,7.6000000000000005,6.699999999999999,28.400000000000002,-13.8,16
215,3815.0,0.1,1.2000000000000002,-0.4,1.3,5.4,8.200000000000001,-2.5,29.300000000000004,-23.400000000000002,16
216,3832.0,-0.1,1.0,-0.30000000000000004,0.8,5.1000000000000005,8.4,-2.5,29.300000000000004,-23.400000000000002,16
217,3849.0,-0.5,0.8,0.1,0.30000000000000004,4.9,8.700000000000001,-9.3,28.700000000000003,-29.500000000000004,16
218,3865.0,-1.3,0.4,0.30000000000000004,-0.5,4.5,9.1,-20.2,13.399999999999999,-24.7,16
219,3883.0,-1.9000000000000001,-0.1,1.5,-0.9,4.0,10.200000000000001,-24.1,2.1,-9.700000000000001,16
220,3900.0,-2.0,-0.30000000000000004,2.0,-0.8,3.6,11.200000000000001,-24.1,2.1,-9.700000000000001,16
221,3915.0,-0.9,0.1,2.9000000000000004,0.30000000000000004,4.4,11.8,-17.300000000000004,-13.000000000000002,26.1,16
222,3934.0,-0.2,1.3,3.3000000000000003,0.9,5.2,12.200000000000001,-17.300000000000004,-19.6,28.3,16
223,3953.0,0.7000000000000001,1.2000000000000002,5.0,1.8,5.1000000000000005,13.700000000000001,-19.9,-27.0,23.2,16
224,3970.0,0.30000000000000004,0.6000000000000001,6.7,1.7000000000000002,4.6000000000000005,15.5,-16.1,-16.1,17.799999999999997,16
225,3984.0,0.2,0.1,6.6000000000000005,1.5,3.9000000000000004,15.5,0.8,1.0,18.700000000000003,16
226,3998.0,0.1,-0.6000000000000001,4.3,1.3,3.3000000000000003,13.4,21.200000000000003,16.700000000000003,19.9,16
227,4015.0,-0.2,-0.8,2.1,1.0,3.2,9.8,21.200000000000003,16.700000000000003,19.9,16
228,4035.0,-0.30000000000000004,-0.7000000000000001,-0.9,1.0,3.3000000000000003,7.800000000000001,27.099999999999998,1.0,23.099999999999998,16
229,4051.0,-0.30000000000000004,-0.5,-1.4000000000000001,1.0,3.5,7.5,13.6,-11.700000000000001,22.4,16
230,4066.0,-0.4,-0.5,-1.0,0.9,3.6,8.5,13.6,-11.700000000000001,22.4,16
231,4082.0,-0.5,-0.5,0.5,0.9,3.4000000000000004,9.8,0.8,-21.1,20.599999999999998,16
232,4099.0,-0.6000000000000001,-1.0,1.3,0.9,2.9000000000000004,10.200000000000001,-0.6000000000000001,-14.800000000000002,16.3,16
233,4115.0,-0.7000000000000001,-1.3,1.1,0.7000000000000001,2.3000000000000003,9.5,-0.6000000000000001,-14.800000000000002,16.3,16
234,4133.0,-1.0,-1.8,0.0,0.7000000000000001,2.2,8.8,7.8,-8.0,19.300000000000004,16
235,4148.0,-0.7000000000000001,-1.6,0.0,1.2000000000000002,2.5,9.0,21.500000000000004,-16.3,36.1,16
236,4165.0,0.2,-1.1,0.6000000000000001,2.0,3.0,9.4,30.000000000000004,-10.200000000000001,37.2,16
237,4182.0,0.4,-0.9,0.4,2.2,3.2,8.5,30.000000000000004,-10.200000000000001,37.2,16
238,4199.0,0.2,-1.1,-1.4000000000000001,1.8,3.0,6.7,39.0,5.1000000000000005,30.799999999999997,16
239,4215.0,-0.30000000000000004,-1.7000000000000002,-3.5,1.4000000000000001,2.6,5.0,43.900000000000006,23.400000000000002,16.4,16
240,4232.0,-0.5,-2.0,-4.2,0.8,2.2,3.9000000000000004,43.900000000000006,23.400000000000002,16.4,16
241,4249.0,-1.1,-2.4000000000000004,-5.0,0.6000000000000001,2.0,3.4000000000000004,39.50000000000001,22.1,15.8,16
242,4271.0,-1.1,-2.1,-4.3,0.5,2.3000000000000003,3.8000000000000003,27.0,7.6,27.6,16
243,4282.0,-0.8,-1.9000000000000001,-3.8000000000000003,0.9,2.7,4.6000000000000005,23.6,-1.8000000000000003,32.0,16
244,4299.0,-0.6000000000000001,-1.6,-3.2,1.4000000000000001,3.3000000000000003,5.9,23.6,-1.8000000000000003,32.0,16
245,4316.0,0.0,-0.8,-1.4000000000000001,1.9000000000000001,3.9000000000000004,7.300000000000001,20.7,-9.899999999999999,32.400000000000006,16
246,4332.0,0.4,-0.5,-0.1,2.2,4.1000000000000005,8.1,18.3,3.5,21.300000000000004,16
247,4348.0,0.30000000000000004,-0.4,-0.2,2.1,4.2,7.7,14.100000000000001,14.300000000000002,14.0,16
248,4365.0,0.2,-0.5,-1.0,1.9000000000000001,4.1000000000000005,7.300000000000001,14.100000000000001,14.300000000000002,14.0,16
249,4382.0,0.0,-0.6000000000000001,-0.9,1.9000000000000001,4.0,7.4,-6.699999999999999,9.3,10.700000000000001,16
250,4400.0,0.30000000000000004,-0.4,-0.5,2.2,4.2,7.800000000000001,-17.0,-2.7,11.700000000000001,16
251,4415.0,0.5,-0.2,0.2,2.6,4.4,9.200000000000001,-17.0,-2.7,11.700000000000001,16
252,4435.0,0.9,0.0,1.5,2.9000000000000004,4.4,10.0,-33.2,-9.600000000000001,7.8,16
253,4449.0,1.1,0.1,1.6,3.0,4.4,10.0,-42.900000000000006,-2.5,4.4,16
254,4465.0,0.9,0.0,1.3,2.7,4.0,9.8,-42.900000000000006,-2.5,4.4,16
255,4481.0,0.5,-0.30000000000000004,2.2,2.5,3.6,12.0,-58.5,-5.300000000000001,3.9,16
256,4498.0,0.6000000000000001,-0.7000000000000001,5.9,2.8000000000000003,3.1,15.0,-69.10000000000001,-23.2,13.900000000000002,16
257,4515.0,1.1,-0.9,7.4,3.3000000000000003,2.7,16.1,-47.400000000000006,-5.6,16.5,16
258,4532.0,1.2000000000000002,-1.0,6.4,3.7,2.8000000000000003,14.200000000000001,-47.400000000000006,-5.6,16.5,16
259,4549.0,1.9000000000000001,-0.6000000000000001,2.5,3.9000000000000004,3.0,10.4,-4.800000000000001,36.400000000000006,11.1,16
260,4565.0,1.5,-0.6000000000000001,-1.2000000000000002,3.5,2.9000000000000004,7.5,-7.1000000000000005,28.400000000000002,8.100000000000001,16
261,4584.0,1.0,-0.4,-2.2,3.0,3.0,6.800000000000001,-17.799999999999997,12.4,9.8,16
262,4600.0,1.0,-0.1,-1.8,3.2,3.6,7.4,-17.799999999999997,12.4,9.8,16
263,4616.0,1.6,0.8,-0.7000000000000001,3.7,4.2,8.5,-31.799999999999997,-7.1000000000000005,4.800000000000001,16
264,4633.0,2.2,0.9,-0.1,4.3,4.1000000000000005,9.0,-33.9,0.1,-9.3,16
265,4649.0,1.9000000000000001,1.1,0.1,3.8000000000000003,4.3,9.200000000000001,-33.9,0.1,-9.3,16
266,4665.0,1.7000000000000002,1.0,-0.30000000000000004,3.7,4.1000000000000005,8.4,-22.000000000000004,22.9,-32.6,16
267,4685.0,1.5,0.4,-2.2,3.3000000000000003,3.5,6.800000000000001,-14.200000000000001,22.4,-43.800000000000004,16
268,4704.0,1.1,-0.30000000000000004,-3.3000000000000003,2.9000000000000004,2.9000000000000004,5.800000000000001,-11.1,17.799999999999997,-50.60000000000001,16
269,4720.0,0.4,-0.5,-3.5,2.2,2.6,5.6000000000000005,-11.8,17.5,-52.80000000000001,16
270,4732.0,0.4,-0.5,-3.3000000000000003,2.0,2.6,5.9,-14.100000000000001,19.300000000000004,-52.5,16
271,4749.0,0.4,-0.4,-2.7,1.9000000000000001,2.7,6.4,-14.300000000000002,25.300000000000004,-53.9,16
272,4765.0,0.30000000000000004,-0.30000000000000004,-2.6,1.7000000000000002,2.8000000000000003,6.4,-14.300000000000002,25.300000000000004,-53.9,16
273,4785.0,0.5,-0.30000000000000004,-2.7,1.7000000000000002,2.9000000000000004,6.4,-15.000000000000002,45.7,-57.60000000000001,16
274,4801.0,0.7000000000000001,0.1,-2.8000000000000003,1.7000000000000002,3.1,6.2,-16.1,54.4,-58.400000000000006,16
275,4817.0,0.6000000000000001,0.2,-3.0,1.1,3.1,6.300000000000001,-16.6,52.2,-56.400000000000006,16
276,4832.0,0.1,-0.1,-2.7,0.6000000000000001,2.8000000000000003,6.5,-16.6,52.2,-56.400000000000006,16
277,4848.0,-0.1,-0.2,-2.5,0.30000000000000004,2.8000000000000003,6.7,-17.200000000000003,42.900000000000006,-39.599999999999994,16
278,4865.0,-0.1,0.0,-2.2,0.30000000000000004,2.8000000000000003,6.7,-17.6,36.9,-34.400000000000006,16
279,4882.0,0.1,0.4,-1.1,0.4,3.3000000000000003,8.3,-17.6,36.9,-34.400000000000006,16
280,4903.0,0.2,0.7000000000000001,-0.5,0.30000000000000004,3.5,8.9,-17.0,36.400000000000006,-32.0,16
281,4915.0,0.1,0.9,0.4,0.1,3.6,9.600000000000001,-18.200000000000003,32.2,-31.7,16
282,4933.0,-0.2,0.5,0.6000000000000001,-0.30000000000000004,3.3000000000000003,9.8,-20.5,25.7,-29.900000000000006,16
283,4949.0,-0.4,0.30000000000000004,0.7000000000000001,-0.6000000000000001,3.0,10.100000000000001,-20.5,25.7,-29.900000000000006,16
284,4965.0,-0.4,0.5,1.4000000000000001,-0.6000000000000001,3.0,10.8,-35.1,6.8,-21.1,16
285,4982.0,-0.8,0.4,3.1,-1.0,2.9000000000000004,12.4,-45.2,-1.8000000000000003,-16.0,16
286,5002.0,-1.5,-0.30000000000000004,4.3,-1.6,2.2,13.600000000000001,-45.3,-3.3000000000000007,-7.1000000000000005,16
287,5026.0,-1.6,-0.9,3.6,-1.8,1.4000000000000001,13.3,-34.60000000000001,-6.9,6.2,16
288,5037.0,-1.9000000000000001,-1.1,3.5,-2.1,1.1,13.0,-19.799999999999997,-25.4,21.900000000000002,16
289,5052.0,-2.0,-1.0,4.3,-2.1,1.2000000000000002,13.700000000000001,-3.1,-42.3,38.2,16
290,5070.0,-0.7000000000000001,-0.4,4.7,-0.9,1.7000000000000002,14.200000000000001,12.0,-41.199999999999996,47.900000000000006,16
291,5082.0,0.0,-0.1,4.0,0.30000000000000004,2.2,13.3,15.299999999999999,-25.0,43.70000000000001,16
292,5098.0,0.7000000000000001,0.1,2.1,0.9,2.4000000000000004,11.600000000000001,6.1000000000000005,-6.300000000000001,31.7,16
293,5119.0,0.6000000000000001,-0.1,0.6000000000000001,0.9,2.1,10.3,-9.3,8.5,17.1,16
294,5132.0,0.30000000000000004,-0.30000000000000004,0.4,0.2,1.7000000000000002,10.0,-21.8,12.100000000000001,5.500000000000001,16
295,5148.0,-1.4000000000000001,-0.9,0.7000000000000001,-1.3,1.1,10.4,-23.6,2.8,4.6,16
296,5166.0,-2.1,-1.3,1.1,-2.2,0.6000000000000001,11.200000000000001,-23.6,2.8,4.6,16
297,5184.0,-2.4000000000000004,-1.3,2.2,-1.8,0.8,12.0,-16.5,-10.600000000000001,15.2,16
298,5198.0,-1.0,-0.9,2.5,-0.6000000000000001,1.2000000000000002,12.0,12.299999999999999,-13.700000000000001,39.300000000000004,16
299,5215.0,-0.2,-0.30000000000000004,1.3,0.1,1.8,10.9,23.2,-3.0,39.1,16
300,5235.0,-0.1,-0.30000000000000004,-0.4,0.30000000000000004,1.9000000000000001,9.5,27.2,11.6,34.1,16
301,5248.0,-0.2,-0.4,-1.2000000000000002,0.0,1.8,8.1,26.300000000000004,25.0,29.900000000000006,16
302,5265.0,-0.30000000000000004,-0.6000000000000001,-2.9000000000000004,-0.1,1.7000000000000002,6.7,24.8,27.700000000000003,28.400000000000002,16
303,5284.0,-0.6000000000000001,-0.8,-3.2,-0.30000000000000004,1.6,6.300000000000001,25.200000000000003,18.200000000000003,29.200000000000003,16
304,5298.0,-0.5,-0.9,-3.1,-0.2,1.5,6.6000000000000005,25.200000000000003,18.200000000000003,29.200000000000003,16
305,5316.0,-0.30000000000000004,-1.0,-2.4000000000000004,-0.1,1.5,7.1000000000000005,34.900000000000006,3.1,35.599999999999994,16
306,5331.0,-0.30000000000000004,-0.9,-2.2,0.1,1.8,7.300000000000001,34.900000000000006,3.1,35.599999999999994,16
307,5348.0,0.1,-0.5,-2.1,0.4,2.4000000000000004,7.2,37.9,5.4,38.1,16
308,5365.0,0.30000000000000004,-0.1,-2.3000000000000003,0.5,2.8000000000000003,7.0,35.0,11.6,31.400000000000002,16
309,5383.0,0.2,0.2,-2.3000000000000003,0.4,3.1,7.0,28.1,13.000000000000002,24.3,16
310,5399.0,0.1,0.2,-2.0,0.30000000000000004,3.2,7.7,28.1,13.000000000000002,24.3,16
311,5418.0,0.1,0.2,-0.9,0.2,3.0,8.5,20.3,13.6,16.900000000000002,16
312,5434.0,-0.1,-0.1,-0.7000000000000001,0.0,2.8000000000000003,8.6,8.2,22.8,6.9,16
313,5449.0,-0.4,-0.5,-0.2,-0.4,2.4000000000000004,9.0,5.4,17.1,6.300000000000001,16
314,5466.0,-0.4,-0.7000000000000001,0.30000000000000004,-0.2,2.3000000000000003,9.600000000000001,5.4,17.1,6.300000000000001,16
315,5484.0,-0.2,-0.7000000000000001,0.4,-0.2,2.3000000000000003,9.700000000000001,-0.2,-3.9,11.000000000000002,16
316,5498.0,-0.30000000000000004,-0.6000000000000001,0.7000000000000001,0.1,2.5,10.700000000000001,-7.300000000000001,-14.800000000000002,12.8,16
317,5517.0,0.4,-0.4,2.1,0.8,2.6,11.5,-7.300000000000001,-14.800000000000002,12.8,16
318,5532.0,1.0,-0.30000000000000004,2.3000000000000003,1.2000000000000002,2.6,11.4,-14.300000000000002,-14.0,9.899999999999999,16
319,5548.0,0.8,-0.2,1.7000000000000002,0.9,2.6,11.100000000000001,-36.9,8.899999999999999,-2.2,16
320,5565.0,0.5,-0.1,1.6,0.2,2.4000000000000004,11.100000000000001,-36.9,8.899999999999999,-2.2,16
321,5582.0,-0.2,-0.4,2.5,-0.1,2.0,12.4,-40.7,5.1000000000000005,-5.8,16
322,5598.0,-0.4,-1.0,3.9000000000000004,-0.2,1.4000000000000001,13.5,-14.100000000000001,-12.5,1.0,16
323,5615.0,-0.1,-1.3,4.2,0.1,1.2000000000000002,13.600000000000001,5.9,-6.300000000000001,10.8,16
324,5631.0,0.2,-1.3,3.3000000000000003,0.8,1.3,11.8,5.9,-6.300000000000001,10.8,16
325,5648.0,1.2000000000000002,-0.9,0.9,1.6,1.8,10.0,17.9,1.1,18.700000000000003,16
326,5665.0,2.1,-0.2,-0.4,2.4000000000000004,2.5,9.1,13.8,-5.7,20.7,16
327,5682.0,2.4000000000000004,0.2,-0.6000000000000001,2.9000000000000004,3.2,8.700000000000001,13.8,-5.7,20.7,16
328,5698.0,2.5,0.8,-0.8,2.8000000000000003,3.4000000000000004,8.8,7.9,-13.3,12.600000000000001,16
329,5715.0,2.0,0.7000000000000001,-0.30000000000000004,2.4000000000000004,3.2,9.200000000000001,-3.1,-15.299999999999999,-9.3,16
330,5732.0,1.7000000000000002,0.4,-0.5,2.1,3.1,8.9,-3.7000000000000006,-6.9,-15.6,16
331,5748.0,1.6,0.4,-0.8,2.0,3.1,8.3,-3.7000000000000006,-6.9,-15.6,16
332,5765.0,1.5,0.4,-1.7000000000000002,1.9000000000000001,3.1,7.5,1.4,6.300000000000001,-26.6,16
333,5782.0,1.4000000000000001,0.5,-2.6,1.8,3.2,6.800000000000001,0.30000000000000004,10.0,-32.0,16
334,5799.0,1.1,0.30000000000000004,-3.0,1.5,3.0,6.4,0.30000000000000004,8.8,-36.400000000000006,16
335,5815.0,1.0,0.1,-3.1,1.2000000000000002,2.6,6.300000000000001,0.30000000000000004,8.8,-36.400000000000006,16
336,5832.0,0.8,-0.4,-3.0,1.1,2.3000000000000003,6.300000000000001,6.1000000000000005,0.9000000000000001,-35.1,16
337,5848.0,0.8,-0.5,-3.0,1.1,2.3000000000000003,6.2,8.2,0.1,-31.400000000000002,16
338,5865.0,0.8,-0.2,-3.1,1.1,2.6,6.300000000000001,8.2,0.1,-31.400000000000002,16
339,5882.0,0.8,0.0,-2.6,1.1,2.8000000000000003,6.9,4.800000000000001,-0.2,-30.9,16
340,5898.0,0.7000000000000001,0.0,-1.5,0.9,2.8000000000000003,7.800000000000001,6.0,0.6000000000000001,-31.5,16
341,5915.0,0.6000000000000001,0.0,-1.2000000000000002,0.6000000000000001,2.7,8.1,6.0,0.6000000000000001,-31.5,16
342,5932.0,0.2,0.0,-1.1,0.2,2.8000000000000003,8.3,7.6,4.0,-31.099999999999998,16
343,5948.0,0.0,0.2,-0.30000000000000004,0.1,3.0,9.0,5.9,6.4,-25.200000000000003,16
344,5965.0,-0.2,0.0,0.4,-0.2,2.8000000000000003,9.700000000000001,7.6,6.2,-20.8,16
345,5981.0,-0.4,-0.2,0.7000000000000001,-0.5,2.5,10.4,7.6,6.2,-20.8,16
346,5998.0,-0.5,-0.4,2.0,-0.4,2.6,11.4,7.400000000000001,6.699999999999999,-2.8,16
347,6015.0,-0.1,0.1,2.5,0.0,3.1,11.8,9.4,2.5,3.6000000000000005,16
348,6031.0,0.30000000000000004,0.5,2.8000000000000003,0.8,3.8000000000000003,12.3,9.4,2.5,3.6000000000000005,16
349,6048.0,1.1,1.0,3.4000000000000004,1.0,4.0,12.8,9.600000000000001,0.1,3.0,16
350,6065.0,0.6000000000000001,0.7000000000000001,3.0,0.4,3.6,12.0,1.3,30.699999999999996,-14.700000000000001,16
351,6081.0,0.1,0.30000000000000004,2.0,0.4,3.6,12.0,1.3,30.699999999999996,-14.700000000000001,16
352,6098.0,-1.3,-0.2,0.1,-1.9000000000000001,2.7,9.4,-12.0,45.7,-15.700000000000001,16
353,6115.0,-1.7000000000000002,-0.7000000000000001,0.7000000000000001,-2.7,2.1,10.700000000000001,-23.0,12.0,6.4,16
354,6131.0,-2.2,-0.5,3.3000000000000003,-2.5,2.3000000000000003,12.5,-6.9,4.2,25.300000000000004,16
355,6148.0,-1.3,-0.4,2.1,-1.7000000000000002,2.4000000000000004,11.5,11.3,0.0,36.400000000000006,16
356,6165.0,-0.9,-0.30000000000000004,1.0,-1.1,2.7,9.700000000000001,11.3,0.0,36.400000000000006,16
357,6182.0,-0.6000000000000001,0.1,-1.0,-0.8,3.1,8.200000000000001,16.6,-5.300000000000001,37.6,16
358,6199.0,-0.4,0.2,-1.6,-0.8,3.1,8.200000000000001,16.6,-5.300000000000001,37.6,16
359,6215.0,-0.1,0.30000000000000004,-1.3,-0.2,3.2,8.3,3.4,-16.900000000000002,31.2,16
360,6232.0,-0.1,0.2,0.0,-0.2,3.0,9.8,-18.8,-40.4,17.200000000000003,16
361,6248.0,-0.4,-0.2,1.7000000000000002,-0.30000000000000004,2.6,11.200000000000001,-15.299999999999999,-45.2,15.399999999999999,16
362,6265.0,-0.6000000000000001,-0.30000000000000004,2.5,-0.4,2.4000000000000004,12.200000000000001,-15.299999999999999,-45.2,15.399999999999999,16
363,6281.0,-0.5,-0.7000000000000001,2.6,-0.1,2.1,11.600000000000001,-3.0,-38.60000000000001,17.1,16
364,6298.0,-0.2,-0.9,0.5,0.1,2.1,9.4,27.700000000000003,-4.6,19.0,16
365,6315.0,0.0,-0.7000000000000001,-2.5,0.30000000000000004,2.3000000000000003,6.9,29.500000000000004,5.2,16.6,16
366,6332.0,-0.1,-0.6000000000000001,-3.6,0.2,2.5,5.4,29.500000000000004,5.2,16.6,16
367,6348.0,-0.30000000000000004,-0.5,-4.0,0.0,2.6,5.4,15.899999999999999,-6.4,11.5,16
368,6367.0,-0.7000000000000001,-0.7000000000000001,-3.0,-0.30000000000000004,2.4000000000000004,6.300000000000001,16.3,-18.8,11.000000000000002,16
369,6382.0,-0.9,-1.0,-2.3000000000000003,-0.4,2.0,7.300000000000001,16.3,-18.8,11.000000000000002,16
370,6398.0,-0.8,-1.2000000000000002,-1.6,-0.2,2.1,7.7,22.2,-23.3,14.600000000000001,16
371,6415.0,-0.6000000000000001,-1.0,-1.2000000000000002,0.0,2.4000000000000004,7.9,32.0,-14.700000000000001,23.0,16
372,6432.0,-0.5,-0.8,-1.2000000000000002,0.2,2.8000000000000003,7.800000000000001,32.0,-14.700000000000001,23.0,16
373,6448.0,-0.4,-0.5,-1.1,0.4,3.1,8.0,31.9,-10.0,24.1,16
374,6465.0,0.0,-0.30000000000000004,-0.7000000000000001,0.8,3.3000000000000003,8.3,28.200000000000003,-5.9,19.300000000000004,16
375,6482.0,0.1,-0.2,-0.30000000000000004,0.9,3.4000000000000004,8.6,25.0,-3.2,13.6,16
376,6501.0,0.0,-0.30000000000000004,-0.30000000000000004,0.8,3.3000000000000003,8.6,18.0,-2.8,8.2,16
377,6516.0,-0.1,-0.4,-0.2,0.7000000000000001,3.2,8.9,18.0,-2.8,8.2,16
378,6532.0,0.1,-0.4,0.8,1.0,3.2,9.8,-4.300000000000001,-9.4,3.6000000000000005,16
379,6553.0,0.30000000000000004,-0.5,1.7000000000000002,1.2000000000000002,3.1,10.600000000000001,-12.100000000000001,-12.9,1.2000000000000002,16
380,6566.0,0.4,-0.5,2.2,1.3,3.0,11.4,-12.100000000000001,-12.9,1.2000000000000002,16
381,6582.0,0.5,-0.6000000000000001,2.6,1.4000000000000001,2.9000000000000004,11.5,-21.400000000000002,-8.8,-2.4000000000000004,16
382,6598.0,0.4,-0.6000000000000001,1.8,1.4000000000000001,2.8000000000000003,10.8,-27.400000000000002,-5.4,-3.3000000000000007,16
383,6615.0,0.4,-0.4,1.4000000000000001,1.3,3.1,10.4,-27.400000000000002,-5.4,-3.3000000000000007,16
384,6632.0,0.1,0.1,1.7000000000000002,1.0,3.3000000000000003,11.4,-36.7,-6.699999999999999,-4.4,16
385,6648.0,-0.1,0.2,3.9000000000000004,0.9,3.2,13.3,-38.50000000000001,-16.900000000000002,-6.8,16
386,6665.0,0.0,0.0,4.7,1.1,2.8000000000000003,14.3,-38.50000000000001,-16.900000000000002,-6.8,16
387,6681.0,0.2,-0.5,4.7,1.4000000000000001,2.5,13.200000000000001,-23.700000000000003,-6.1000000000000005,-6.4,16
388,6698.0,0.8,-0.4,1.9000000000000001,1.8,2.7,10.600000000000001,0.1,28.700000000000003,-4.4,16
389,6717.0,1.4000000000000001,-0.30000000000000004,-1.3,2.3000000000000003,2.7,7.9,0.4,21.900000000000002,-7.200000000000001,16
390,6732.0,1.5,-0.2,-2.4000000000000004,2.4000000000000004,3.0,6.5,0.4,21.900000000000002,-7.200000000000001,16
391,6748.0,1.7000000000000002,0.5,-2.6,2.7,3.7,7.2,-8.8,2.1,-10.5,16
392,6765.0,1.9000000000000001,1.2000000000000002,-0.30000000000000004,2.9000000000000004,4.1000000000000005,9.3,-33.2,-27.099999999999998,-24.5,16
393,6782.0,2.0,1.2000000000000002,1.0,3.1,3.8000000000000003,11.200000000000001,-33.2,-27.099999999999998,-24.5,16
394,6798.0,2.0,0.5,2.0,2.5,3.0,10.9,-29.900000000000006,-17.799999999999997,-36.400000000000006,16
395,6815.0,0.8,-0.2,0.30000000000000004,1.5,2.5,9.200000000000001,-10.600000000000001,30.699999999999996,-46.199999999999996,16
396,6832.0,0.2,-0.5,-2.3000000000000003,0.8,2.2,7.0,-4.4,41.0,-42.2,16
397,6850.0,-0.1,-0.4,-3.8000000000000003,0.5,2.3000000000000003,5.6000000000000005,-0.6000000000000001,34.900000000000006,-35.599999999999994,16
398,6866.0,0.0,-0.30000000000000004,-4.0,0.6000000000000001,2.5,5.300000000000001,-0.6000000000000001,34.900000000000006,-35.599999999999994,16
399,6883.0,0.5,-0.1,-3.8000000000000003,1.0,2.7,5.5,12.5,2.9,-23.6,16
400,6898.0,0.8,0.0,-3.5,1.2000000000000002,2.9000000000000004,5.800000000000001,16.1,-4.5,-22.000000000000004,16
401,6915.0,1.0,0.1,-3.2,1.7000000000000002,3.1,6.4,16.1,-4.5,-22.000000000000004,16
402,6934.0,1.6,0.4,-2.4000000000000004,2.0,3.3000000000000003,6.9,10.5,9.700000000000001,-29.300000000000004,16
403,6950.0,1.6,0.30000000000000004,-2.3000000000000003,1.9000000000000001,3.3000000000000003,6.9,5.0,22.8,-36.2,16
404,6966.0,1.1,0.30000000000000004,-2.6,1.0,3.2,6.6000000000000005,5.0,22.8,-36.2,16
405,6985.0,0.30000000000000004,0.2,-2.2,0.30000000000000004,3.1,7.300000000000001,-6.300000000000001,19.700000000000003,-35.3,16
406,6999.0,-0.2,0.1,-0.6000000000000001,-0.1,3.0,8.8,-4.2,13.100000000000001,-27.9,16
407,7015.0,-0.30000000000000004,0.1,0.1,-0.5,3.0,9.600000000000001,-4.2,13.100000000000001,-27.9,16
408,7035.0,-0.9,0.0,0.6000000000000001,-0.8,2.9000000000000004,9.8,9.600000000000001,7.0,-10.1,16
409,7048.0,-0.9,0.0,0.6000000000000001,-0.8,3.0,9.8,10.600000000000001,5.4,-0.30000000000000004,16
410,7065.0,-0.6000000000000001,0.0,0.5,-0.6000000000000001,3.0,9.700000000000001,8.899999999999999,1.8000000000000003,8.5,16
411,7082.0,-0.5,-0.1,0.4,-0.30000000000000004,2.9000000000000004,9.600000000000001,8.899999999999999,1.8000000000000003,8.5,16
412,7098.0,-0.1,0.1,0.7000000000000001,0.2,3.2,10.200000000000001,-1.6,-12.0,24.5,16
413,7115.0,0.8,0.8,2.4000000000000004,1.1,3.8000000000000003,11.600000000000001,-3.3000000000000007,-13.399999999999999,25.8,16
414,7132.0,1.3,1.0,2.7,1.4000000000000001,4.2,11.8,-3.3000000000000007,-13.399999999999999,25.8,16
415,7148.0,0.7000000000000001,1.2000000000000002,2.3000000000000003,0.6000000000000001,4.2,11.700000000000001,-4.6,-10.5,19.6,16
416,7165.0,-0.30000000000000004,1.1,3.6,-0.1,3.9000000000000004,13.3,-23.400000000000002,-16.200000000000003,14.100000000000001,16
417,7181.0,-1.2000000000000002,0.4,5.7,-0.8,3.3000000000000003,15.100000000000001,-18.1,-13.700000000000001,19.5,16
418,7198.0,-1.5,0.0,6.300000000000001,-1.1,2.7,15.600000000000001,-18.1,-13.700000000000001,19.5,16
419,7215.0,-1.2000000000000002,-0.5,5.4,-0.8,2.4000000000000004,14.0,19.9,9.700000000000001,41.6,16
420,7232.0,-1.0,-0.5,1.6,-0.5,2.6,10.8,29.300000000000004,10.299999999999999,47.80000000000001,16
421,7248.0,-0.7000000000000001,-0.30000000000000004,0.2,0.0,3.0,8.9,29.300000000000004,10.299999999999999,47.80000000000001,16
422,7267.0,-0.1,0.2,-0.8,0.5,3.3000000000000003,8.6,24.200000000000003,-0.8,47.60000000000001,16
423,7282.0,-0.1,0.30000000000000004,-0.4,0.4,3.4000000000000004,9.200000000000001,2.8,-24.200000000000003,27.800000000000004,16
424,7298.0,-0.6000000000000001,-0.2,0.9,0.0,2.8000000000000003,10.200000000000001,-5.300000000000001,-21.6,18.900000000000002,16
425,7315.0,-0.8,-0.5,1.2000000000000002,-0.30000000000000004,2.3000000000000003,10.700000000000001,-5.300000000000001,-21.6,18.900000000000002,16
426,7331.0,-1.3,-1.1,1.3,-0.6000000000000001,1.8,10.5,-1.5,0.5,16.1,16
427,7348.0,-1.2000000000000002,-1.4000000000000001,0.2,-0.5,1.6,9.4,6.2,8.700000000000001,20.599999999999998,16
428,7365.0,-1.1,-1.3,-0.5,-0.4,1.8,8.200000000000001,6.2,8.700000000000001,20.599999999999998,16
429,7381.0,-1.0,-1.2000000000000002,-1.6,-0.2,1.9000000000000001,7.5,13.8,9.4,24.3,16
430,7398.0,-0.9,-1.2000000000000002,-2.0,-0.2,1.9000000000000001,7.5,21.1,6.0,26.6,16
431,7415.0,-0.6000000000000001,-1.5,-3.3000000000000003,0.1,1.7000000000000002,5.9,28.800000000000004,5.9,26.799999999999997,16
432,7431.0,-0.5,-1.5,-3.8000000000000003,0.30000000000000004,1.8,5.2,28.800000000000004,5.9,26.799999999999997,16
433,7448.0,-0.30000000000000004,-1.4000000000000001,-4.2,0.5,2.0,4.9,23.400000000000002,3.6000000000000005,24.900000000000002,16
434,7465.0,0.0,-1.0,-3.9000000000000004,0.8,2.3000000000000003,5.2,20.0,0.6000000000000001,21.7,16
435,7483.0,0.2,-0.8,-3.2,0.9,2.6,5.800000000000001,17.9,-0.1,16.900000000000002,16
436,7498.0,0.30000000000000004,-0.7000000000000001,-3.0,1.1,2.8000000000000003,6.1000000000000005,17.9,-0.1,16.900000000000002,16
437,7515.0,0.4,-0.5,-2.6,1.1,3.0,6.4,11.000000000000002,5.6,5.8,16
438,7532.0,0.30000000000000004,-0.2,-2.0,1.1,3.2,7.0,6.600000000000001,9.3,-0.2,16
439,7548.0,0.2,-0.2,-1.6,0.8,3.3000000000000003,7.6000000000000005,6.600000000000001,9.3,-0.2,16
440,7565.0,-0.1,-0.30000000000000004,-1.0,0.5,3.1,8.1,-2.0,15.000000000000002,-9.8,16
441,7581.0,-0.2,-0.6000000000000001,-0.6000000000000001,0.4,2.9000000000000004,8.4,-10.700000000000001,19.1,-10.700000000000001,16
442,7599.0,-0.2,-0.5,0.2,0.30000000000000004,2.9000000000000004,9.1,-18.6,20.400000000000002,-9.8,16
443,7615.0,0.0,-0.5,0.30000000000000004,0.6000000000000001,2.7,9.3,-18.6,20.400000000000002,-9.8,16
444,7631.0,0.4,-0.8,0.2,0.8,2.4000000000000004,9.200000000000001,-30.9,9.600000000000001,-10.1,16
445,7650.0,0.4,-0.8,0.4,0.8,2.3000000000000003,9.5,-39.8,-1.9,-8.700000000000001,16
446,7665.0,0.30000000000000004,-0.6000000000000001,0.7000000000000001,0.9,2.6,10.200000000000001,-39.8,-1.9,-8.700000000000001,16
447,7681.0,0.8,-0.1,1.6,1.4000000000000001,2.7,10.700000000000001,-55.900000000000006,-14.300000000000002,-10.9,16
448,7699.0,0.8,0.1,1.7000000000000002,1.3,2.8000000000000003,11.0,-64.7,-18.1,-16.3,16
449,7715.0,0.6000000000000001,0.30000000000000004,2.1,1.1,2.8000000000000003,12.100000000000001,-64.7,-18.1,-16.3,16
450,7731.0,0.30000000000000004,0.5,4.3,0.9,2.8000000000000003,14.3,-69.20000000000002,-27.9,-19.400000000000002,16
451,7750.0,0.0,0.2,6.0,0.7000000000000001,2.3000000000000003,15.5,-43.2,-30.4,-20.1,16
452,7765.0,-0.1,-0.2,5.6000000000000005,0.6000000000000001,2.0,15.100000000000001,-25.1,-12.8,-15.8,16
453,7782.0,0.0,-0.30000000000000004,4.7,0.9,1.8,13.3,-25.1,-12.8,-15.8,16
454,7798.0,0.4,-0.30000000000000004,1.9000000000000001,1.2000000000000002,1.9000000000000001,11.0,-10.299999999999999,15.5,-3.7000000000000006,16
455,7815.0,0.9,0.4,0.0,1.6,2.5,9.5,-10.200000000000001,5.6,-0.1,16
456,7831.0,1.2000000000000002,0.8,-0.4,2.2,3.2,9.3,-10.200000000000001,5.6,-0.1,16
457,7849.0,1.7000000000000002,1.5,0.1,2.5,3.6,9.8,-10.200000000000001,-12.299999999999999,-3.2,16
458,7865.0,1.4000000000000001,1.6,0.5,2.1,3.6,10.100000000000001,-9.899999999999999,-18.200000000000003,-25.5,16
459,7883.0,0.6000000000000001,1.1,0.30000000000000004,1.4000000000000001,3.1,9.9,-9.2,-3.6000000000000005,-34.0,16
460,7898.0,0.2,0.7000000000000001,0.0,0.8,2.6,9.1,-9.2,-3.6000000000000005,-34.0,16
461,7915.0,-0.2,0.30000000000000004,-1.5,0.5,2.3000000000000003,7.7,1.3,23.0,-31.799999999999997,16
462,7931.0,-0.1,0.30000000000000004,-3.0,0.5,2.4000000000000004,6.5,7.400000000000001,18.900000000000002,-27.9,16
463,7948.0,0.0,0.4,-3.3000000000000003,0.8,2.5,6.300000000000001,7.400000000000001,18.900000000000002,-27.9,16
464,7965.0,0.4,0.4,-3.1,1.1,2.5,6.5,13.900000000000002,8.2,-25.7,16
465,7981.0,0.6000000000000001,0.0,-2.9000000000000004,1.2000000000000002,2.2,6.5,30.599999999999998,-6.8,-26.400000000000006,16
466,7998.0,0.7000000000000001,-0.2,-2.8000000000000003,1.3,2.1,6.6000000000000005,33.6,-6.300000000000001,-26.799999999999997,16
467,8015.0,0.7000000000000001,-0.2,-2.7,1.2000000000000002,2.2,6.800000000000001,33.6,-6.300000000000001,-26.799999999999997,16
468,8031.0,0.7000000000000001,-0.30000000000000004,-2.2,1.4000000000000001,2.3000000000000003,7.300000000000001,24.200000000000003,10.200000000000001,-25.200000000000003,16
469,8049.0,1.1,0.1,-1.4000000000000001,1.5,2.7,7.9,21.900000000000002,17.300000000000004,-25.5,16
470,8068.0,0.8,0.4,-1.6,1.3,3.0,7.7,21.900000000000002,17.300000000000004,-25.5,16
471,8084.0,0.6000000000000001,0.4,-1.4000000000000001,0.9,3.2,8.1,19.6,20.2,-27.700000000000003,16
472,8098.0,0.5,0.6000000000000001,-0.30000000000000004,0.7000000000000001,3.3000000000000003,9.0,10.600000000000001,19.799999999999997,-28.900000000000002,16
473,8115.0,-0.1,0.4,0.4,0.1,3.2,9.700000000000001,10.299999999999999,19.400000000000002,-28.1,16
474,8131.0,-0.4,0.2,0.7000000000000001,-0.5,2.9000000000000004,10.100000000000001,10.299999999999999,19.400000000000002,-28.1,16
475,8151.0,-0.8,0.2,1.3,-0.7000000000000001,3.0,10.700000000000001,3.3000000000000007,20.900000000000002,-14.300000000000002,16
476,8165.0,-0.8,0.30000000000000004,2.1,-0.8,3.1,11.3,2.9,18.700000000000003,-5.8,16
477,8182.0,-1.1,0.30000000000000004,2.1,-1.4000000000000001,3.1,11.5,2.9,18.700000000000003,-5.8,16
478,8198.0,-1.4000000000000001,0.4,2.4000000000000004,-1.3,3.3000000000000003,11.700000000000001,2.0,15.8,3.4,16
479,8216.0,-0.9,0.7000000000000001,2.1,-1.0,3.5,11.4,-3.7000000000000006,17.799999999999997,18.3,16
480,8232.0,-0.7000000000000001,0.7000000000000001,1.8,-0.9,3.6,10.5,-9.0,13.700000000000001,20.3,16
481,8249.0,-0.8,0.9,0.8,-0.9,3.7,10.3,-9.0,13.700000000000001,20.3,16
482,8265.0,-0.5,1.1,1.6,-0.6000000000000001,3.8000000000000003,11.3,-25.7,-23.6,21.200000000000003,16
483,8281.0,-0.5,1.2000000000000002,2.5,-0.6000000000000001,3.8000000000000003,11.3,-25.7,-23.6,21.200000000000003,16
484,8298.0,-0.4,0.7000000000000001,5.2,-0.2,2.9000000000000004,15.3,-25.6,-39.8,19.9,16
485,8316.0,-0.4,-0.2,5.9,-0.2,2.1,15.0,2.8,-17.6,24.7,16
486,8332.0,-0.5,-0.9,3.7,-0.30000000000000004,1.7000000000000002,12.9,15.899999999999999,4.1,30.9,16
487,8348.0,-0.5,-0.9,1.9000000000000001,-0.1,1.9000000000000001,9.8,15.899999999999999,4.1,30.9,16
488,8365.0,-0.1,-0.5,-0.9,0.2,2.2,8.200000000000001,20.5,14.600000000000001,34.0,16
489,8382.0,-0.30000000000000004,-0.4,-1.9000000000000001,-0.1,2.3000000000000003,7.6000000000000005,14.800000000000002,-0.8,26.6,16
490,8398.0,-0.5,-0.6000000000000001,-2.0,-0.2,2.0,7.800000000000001,10.9,-9.2,25.1,16
491,8415.0,-0.4,-1.0,-1.4000000000000001,0.1,1.7000000000000002,8.200000000000001,10.9,-9.2,25.1,16
492,8432.0,0.1,-1.1,-1.1,0.5,1.7000000000000002,8.3,16.5,-13.900000000000002,27.0,16
493,8449.0,0.4,-1.1,-1.1,0.9,1.8,8.3,22.700000000000003,-15.000000000000002,26.6,16
494,8465.0,0.5,-1.0,-1.1,1.0,2.0,8.3,22.700000000000003,-15.000000000000002,26.6,16
495,8482.0,0.6000000000000001,-0.9,-1.2000000000000002,1.1,2.0,7.800000000000001,28.700000000000003,-13.000000000000002,24.200000000000003,16
496,8498.0,0.4,-1.2000000000000002,-2.3000000000000003,0.8,1.8,6.800000000000001,35.5,3.4,13.700000000000001,16
497,8515.0,0.0,-1.7000000000000002,-3.3000000000000003,0.5,1.5,5.9,34.0,7.1000000000000005,11.3,16
498,8531.0,-0.1,-1.8,-3.7,0.4,1.5,5.4,34.0,7.1000000000000005,11.3,16
499,8548.0,0.0,-1.6,-3.6,0.6000000000000001,1.8,5.6000000000000005,29.500000000000004,0.6000000000000001,11.1,16
500,8565.0,0.30000000000000004,-1.3,-3.1,0.9,2.1,6.1000000000000005,27.800000000000004,-2.0,7.6,16
501,8581.0,0.4,-1.2000000000000002,-2.8000000000000003,1.0,2.4000000000000004,6.300000000000001,27.800000000000004,-2.0,7.6,16
502,8598.0,0.30000000000000004,-1.0,-2.6,0.8,2.5,6.5,23.099999999999998,1.4,2.4000000000000004,16
503,8615.0,0.0,-1.0,-2.2,0.4,2.5,6.9,5.2,5.2,-8.100000000000001,16
504,8632.0,-0.4,-1.1,-1.1,0.0,2.4000000000000004,7.9,-3.9,6.699999999999999,-9.100000000000001,16
505,8648.0,-0.4,-1.1,-0.5,-0.1,2.2,8.8,-3.9,6.699999999999999,-9.100000000000001,16
506,8665.0,-0.7000000000000001,-1.4000000000000001,0.30000000000000004,-0.30000000000000004,1.9000000000000001,9.4,-11.4,-0.1,-6.2,16
507,8681.0,-0.7000000000000001,-1.5,1.1,-0.30000000000000004,1.8,10.100000000000001,-16.200000000000003,-1.0,-0.30000000000000004,16
508,8699.0,-0.30000000000000004,-1.4000000000000001,1.3,0.1,1.8,10.3,-21.7,-0.30000000000000004,4.6,16
509,8715.0,-0.1,-1.4000000000000001,1.3,0.4,1.9000000000000001,10.5,-21.7,-0.30000000000000004,4.6,16
510,8731.0,0.1,-1.1,1.5,0.6000000000000001,2.0,10.600000000000001,-33.0,0.5,8.4,16
511,8748.0,0.30000000000000004,-1.0,1.3,0.6000000000000001,2.0,10.600000000000001,-33.0,0.5,8.4,16
512,8765.0,0.4,-0.8,0.9,0.8,2.1,9.9,-38.900000000000006,0.6000000000000001,7.699999999999999,16
513,8781.0,0.30000000000000004,-0.5,0.30000000000000004,0.8,2.3000000000000003,9.5,-53.0,-14.900000000000002,4.9,16
514,8798.0,0.0,0.1,0.7000000000000001,0.7000000000000001,2.6,10.200000000000001,-62.6,-40.1,2.9,16
515,8815.0,0.1,0.30000000000000004,2.4000000000000004,1.2000000000000002,2.8000000000000003,13.8,-62.6,-40.1,2.9,16
516,8832.0,0.8,0.4,7.0,1.7000000000000002,2.5,17.3,-70.0,-52.7,0.9000000000000001,16
517,8848.0,0.8,-0.1,8.6,1.7000000000000002,1.8,17.6,-38.50000000000001,1.7,0.0,16
518,8865.0,0.8,-0.5,3.8000000000000003,1.6,1.5,13.4,-20.3,29.800000000000004,6.1000000000000005,16
519,8882.0,0.9,-0.30000000000000004,1.1,2.0,1.9000000000000001,9.5,-20.3,29.800000000000004,6.1000000000000005,16
520,8898.0,1.9000000000000001,0.5,-1.7000000000000002,2.8000000000000003,2.7,7.7,-15.000000000000002,4.300000000000001,8.8,16
521,8915.0,2.3000000000000003,1.3,-2.1,3.1,3.2,7.5,-20.3,-15.700000000000001,-2.8,16
522,8933.0,1.9000000000000001,1.3,-0.8,2.8000000000000003,3.2,8.6,-26.700000000000003,-20.5,-15.8,16
523,8948.0,1.6,1.1,-0.1,2.4000000000000004,2.7,9.5,-26.700000000000003,-20.5,-15.8,16
524,8965.0,1.1,0.8,-0.30000000000000004,1.9000000000000001,2.5,9.0,-21.200000000000003,7.200000000000001,-30.599999999999998,16
525,8982.0,0.8,0.8,-1.2000000000000002,1.5,2.5,7.6000000000000005,-21.200000000000003,7.200000000000001,-30.599999999999998,16
526,8998.0,0.6000000000000001,1.0,-2.4000000000000004,1.5,2.7,7.300000000000001,-16.900000000000002,14.300000000000002,-33.2,16
527,9016.0,0.7000000000000001,1.1,-1.8,1.5,2.7,8.0,-5.1000000000000005,8.700000000000001,-36.9,16
528,9031.0,0.8,0.8,-1.4000000000000001,1.5,2.5,8.0,9.899999999999999,11.700000000000001,-38.900000000000006,16
529,9048.0,0.5,0.5,-2.1,0.9,2.1,7.0,9.899999999999999,11.700000000000001,-38.900000000000006,16
530,9065.0,0.0,0.1,-3.1,0.7000000000000001,2.0,6.300000000000001,20.1,13.399999999999999,-38.1,16
531,9082.0,0.1,0.30000000000000004,-3.2,0.7000000000000001,2.2,6.4,23.2,7.6,-28.700000000000003,16
532,9098.0,0.2,0.4,-2.7,0.9,2.5,7.2,23.2,7.6,-28.700000000000003,16
533,9116.0,0.6000000000000001,0.6000000000000001,-1.7000000000000002,1.1,2.7,8.0,24.3,2.7,-25.900000000000002,16
534,9131.0,0.7000000000000001,0.6000000000000001,-1.0,1.2000000000000002,2.8000000000000003,8.5,27.0,2.1,-26.300000000000004,16
535,9148.0,0.4,0.6000000000000001,-0.6000000000000001,0.8,2.8000000000000003,8.8,22.700000000000003,10.200000000000001,-27.400000000000002,16
536,9165.0,0.1,0.5,-0.5,0.2,2.7,8.8,22.700000000000003,10.200000000000001,-27.400000000000002,16
537,9181.0,-0.5,0.4,-0.5,-0.30000000000000004,2.7,9.200000000000001,17.1,16.200000000000003,-26.700000000000003,16
538,9198.0,-0.8,0.4,0.7000000000000001,-0.5,2.7,10.200000000000001,9.899999999999999,12.200000000000001,-16.0,16
539,9215.0,-0.9,0.5,1.5,-0.6000000000000001,2.9000000000000004,10.9,11.4,9.8,-8.600000000000001,16
540,9231.0,-0.9,0.5,1.6,-0.7000000000000001,3.0,10.8,11.4,9.8,-8.600000000000001,16
541,9248.0,-1.0,0.7000000000000001,1.5,-0.7000000000000001,3.2,11.100000000000001,2.4000000000000004,-0.5,4.5,16
542,9265.0,-0.7000000000000001,1.0,2.8000000000000003,-0.4,3.5,12.200000000000001,-5.1000000000000005,0.5,8.5,16
543,9282.0,-0.4,1.1,3.1,-0.1,3.4000000000000004,12.4,-5.1000000000000005,0.5,8.5,16
544,9298.0,-0.2,1.0,2.4000000000000004,-0.1,3.3000000000000003,11.600000000000001,-10.1,7.0,8.8,16
545,9315.0,-0.6000000000000001,0.9,2.1,-0.4,3.2,11.9,-22.3,-6.4,9.700000000000001,16
546,9332.0,-0.9,0.5,4.5,-0.6000000000000001,2.8000000000000003,14.0,-16.0,-13.900000000000002,15.8,16
547,9348.0,-1.1,0.2,5.0,-1.0,2.3000000000000003,14.4,-16.0,-13.900000000000002,15.8,16
548,9365.0,-1.5,-0.30000000000000004,3.8000000000000003,-1.2000000000000002,2.0,12.9,22.1,-1.4,37.9,16
549,9381.0,-1.2000000000000002,-0.2,1.2000000000000002,-0.8,2.2,10.600000000000001,33.50000000000001,2.4000000000000004,48.300000000000004,16
550,9398.0,-0.8,-0.1,-0.1,-0.1,2.4000000000000004,8.5,33.50000000000001,2.4000000000000004,48.300000000000004,16
551,9415.0,-0.1,0.0,-2.0,0.6000000000000001,2.7,7.300000000000001,37.400000000000006,-5.300000000000001,53.2,16
552,9431.0,0.7000000000000001,0.5,-1.9000000000000001,1.4000000000000001,3.2,7.800000000000001,22.1,-39.2,47.400000000000006,16
553,9448.0,0.9,0.7000000000000001,-1.0,1.7000000000000002,3.5,9.3,22.1,-39.2,47.400000000000006,16
554,9465.0,0.9,0.7000000000000001,0.5,1.7000000000000002,3.3000000000000003,10.100000000000001,11.700000000000001,-39.1,36.1,16
555,9482.0,0.5,0.30000000000000004,0.4,1.3,3.0,9.700000000000001,-0.5,-0.7,11.6,16
556,9498.0,0.1,-0.2,-0.4,1.0,2.5,9.0,-0.6000000000000001,10.200000000000001,5.4,16
557,9515.0,0.0,-0.5,-0.8,0.7000000000000001,2.0,8.4,-0.6000000000000001,10.200000000000001,5.4,16
558,9531.0,-0.4,-1.0,-1.0,0.4,1.7000000000000002,8.6,3.7000000000000006,5.7,5.0,16
559,9548.0,-0.4,-1.2000000000000002,0.0,0.6000000000000001,1.6,9.5,25.5,-26.5,18.5,16
560,9565.0,-0.30000000000000004,-1.1,0.6000000000000001,0.9,1.8,10.3,25.5,-26.5,18.5,16
561,9582.0,0.1,-1.1,0.8,1.2000000000000002,1.8,9.600000000000001,40.1,-25.900000000000002,23.2,16
562,9599.0,0.0,-1.5,-0.9,1.1,1.6,7.9,56.800000000000004,10.1,20.1,16
563,9616.0,0.2,-1.7000000000000002,-2.9000000000000004,1.3,1.6,6.2,54.4,22.700000000000003,17.5,16
564,9634.0,0.2,-1.5,-4.5,1.2000000000000002,1.8,4.7,46.7,23.099999999999998,14.100000000000001,16
565,9649.0,0.2,-1.5,-4.7,1.3,2.0,4.4,37.300000000000004,13.000000000000002,10.9,16
566,9665.0,0.30000000000000004,-1.4000000000000001,-3.9000000000000004,1.2000000000000002,2.1,5.300000000000001,29.700000000000006,-0.1,7.400000000000001,16
567,9681.0,0.2,-1.4000000000000001,-2.8000000000000003,1.2000000000000002,2.2,7.0,29.700000000000006,-0.1,7.400000000000001,16
568,9698.0,0.2,-1.3,-1.4000000000000001,1.2000000000000002,2.3000000000000003,7.5,26.000000000000004,-3.0,4.4,16
569,9715.0,0.0,-1.4000000000000001,-1.5,1.0,2.2,7.4,13.000000000000002,5.6,-2.8,16
570,9732.0,-0.2,-1.7000000000000002,-0.8,0.7000000000000001,2.0,8.1,1.2000000000000002,2.9,-1.5,16
571,9748.0,-0.2,-1.7000000000000002,-0.2,0.8,1.9000000000000001,9.0,1.2000000000000002,2.9,-1.5,16
572,9765.0,0.0,-1.5,0.5,1.2000000000000002,2.1,9.5,-8.100000000000001,-13.8,5.0,16
573,9781.0,0.7000000000000001,-1.2000000000000002,1.1,1.8,2.4000000000000004,10.0,-15.399999999999999,-19.9,4.1,16
574,9798.0,1.1,-1.0,1.4000000000000001,2.4000000000000004,2.4000000000000004,10.3,-15.399999999999999,-19.9,4.1,16
575,9815.0,1.3,-0.9,1.3,2.3000000000000003,2.5,10.100000000000001,-27.099999999999998,-17.400000000000002,-2.1,16
576,9832.0,0.9,-0.6000000000000001,0.6000000000000001,1.9000000000000001,2.5,9.700000000000001,-67.5,-2.3,-22.9,16
577,9848.0,0.2,-0.6000000000000001,1.5,1.4000000000000001,2.3000000000000003,10.700000000000001,-88.3,-3.7000000000000006,-33.0,16
578,9869.0,-0.7000000000000001,-1.1,4.7,0.5,1.7000000000000002,13.600000000000001,-94.5,-6.2,-34.800000000000004,16
579,9881.0,-1.2000000000000002,-1.4000000000000001,6.2,-0.30000000000000004,1.0,15.9,-78.5,-2.1,-25.5,16
580,9901.0,-1.6,-2.0,6.9,-0.5,0.4,16.1,-44.8,9.5,-7.300000000000001,16
581,9916.0,-0.9,-1.8,3.7,0.1,0.4,13.4,-15.5,18.700000000000003,12.200000000000001,16
582,9932.0,-0.2,-1.3,1.7000000000000002,1.2000000000000002,1.2000000000000002,10.100000000000001,-15.5,18.700000000000003,12.200000000000001,16
583,9950.0,1.1,-0.30000000000000004,-1.5,2.3000000000000003,2.2,7.800000000000001,-7.0,1.7,26.000000000000004,16
584,9965.0,2.2,1.2000000000000002,-2.0,3.3000000000000003,3.3000000000000003,7.5,-24.3,-7.200000000000001,15.899999999999999,16
585,9982.0,2.5,1.6,-1.2000000000000002,3.6,3.8000000000000003,8.9,-24.3,-7.200000000000001,15.899999999999999,16
586,9998.0,2.3000000000000003,1.7000000000000002,0.1,3.1,3.5,9.5,-44.2,13.200000000000003,-21.900000000000002,16
587,10017.0,1.1,0.9,-0.7000000000000001,1.9000000000000001,2.7,8.700000000000001,-39.400000000000006,24.599999999999998,-32.5,16
588,10035.0,0.4,0.2,-2.0,1.2000000000000002,2.0,7.6000000000000005,-30.3,24.400000000000002,-32.5,16
589,10049.0,0.1,0.2,-2.3000000000000003,0.9,2.0,7.300000000000001,-30.3,24.400000000000002,-32.5,16
590,10065.0,0.0,0.6000000000000001,-2.2,0.9,2.4000000000000004,7.5,-5.300000000000001,-4.800000000000001,-21.400000000000002,16
591,10082.0,0.5,1.0,-1.5,1.4000000000000001,2.8000000000000003,8.0,5.0,-8.8,-21.6,16
592,10098.0,0.7000000000000001,1.0,-1.5,1.5,2.7,7.9,5.0,-8.8,-21.6,16
593,10115.0,0.8,0.7000000000000001,-2.3000000000000003,1.6,2.5,6.9,11.6,16.8,-31.2,16
594,10132.0,0.8,0.5,-3.5,1.4000000000000001,2.4000000000000004,5.9,11.000000000000002,24.200000000000003,-35.2,16
595,10148.0,0.7000000000000001,0.30000000000000004,-3.9000000000000004,1.3,2.1,5.4,11.000000000000002,24.200000000000003,-35.2,16
596,10165.0,0.8,0.1,-4.1000000000000005,1.4000000000000001,2.1,5.300000000000001,11.1,22.6,-36.1,16
597,10181.0,0.9,0.1,-4.1000000000000005,1.4000000000000001,2.1,5.300000000000001,13.6,5.7,-33.9,16
598,10198.0,1.0,0.2,-3.5,1.5,2.3000000000000003,5.800000000000001,11.8,-4.1,-34.60000000000001,16
599,10215.0,0.9,0.30000000000000004,-3.0,1.4000000000000001,2.5,6.9,11.8,-4.1,-34.60000000000001,16
600,10231.0,0.6000000000000001,0.6000000000000001,-1.5,1.0,2.8000000000000003,8.1,-2.1,-8.8,-39.300000000000004,16
601,10248.0,-0.1,0.8,-0.1,0.4,2.8000000000000003,9.3,-11.000000000000002,-7.300000000000001,-40.5,16
602,10265.0,-0.5,0.7000000000000001,0.7000000000000001,-0.30000000000000004,2.7,10.9,-11.000000000000002,-7.300000000000001,-40.5,16
603,10282.0,-1.0,0.6000000000000001,2.7,-0.5,2.6,12.5,-18.900000000000002,-6.2,-37.400000000000006,16
604,10298.0,-1.1,0.5,4.1000000000000005,-0.6000000000000001,2.4000000000000004,13.5,-20.8,0.7,-23.099999999999998,16
605,10315.0,-1.2000000000000002,0.4,4.800000000000001,-0.8,2.3000000000000003,14.200000000000001,-18.6,2.4000000000000004,-13.399999999999999,16
606,10332.0,-1.0,0.6000000000000001,5.2,-0.30000000000000004,2.5,14.8,-18.6,2.4000000000000004,-13.399999999999999,16
607,10349.0,-0.1,0.8,4.800000000000001,0.30000000000000004,2.7,13.9,-16.900000000000002,20.1,-2.8,16
608,10365.0,0.0,1.0,3.7,0.2,2.9000000000000004,12.4,-30.1,22.1,-4.9,16
609,10381.0,-0.30000000000000004,1.2000000000000002,2.7,-0.2,2.7,13.0,-30.1,22.1,-4.9,16
610,10399.0,-0.6000000000000001,0.8,4.5,-0.5,2.0,14.600000000000001,-43.50000000000001,13.8,-5.9,16
611,10415.0,-1.3,-0.4,5.800000000000001,-1.1,0.9,15.600000000000001,-21.6,-3.9,6.2,16
612,10432.0,-1.8,-1.4000000000000001,5.4,-1.5,0.0,15.200000000000001,-0.30000000000000004,1.6,24.200000000000003,16
613,10448.0,-1.6,-1.5,4.4,-1.1,0.1,13.200000000000001,-0.30000000000000004,1.6,24.200000000000003,16
614,10465.0,-0.9,-1.0,1.5,-0.6000000000000001,0.6000000000000001,10.9,23.5,13.900000000000002,49.1,16
615,10481.0,-0.2,-0.8,-0.4,0.0,0.8,9.200000000000001,22.2,10.9,48.50000000000001,16
616,10499.0,0.0,-0.7000000000000001,-1.2000000000000002,0.30000000000000004,1.0,8.1,22.2,10.9,48.50000000000001,16
617,10516.0,0.2,-0.4,-1.8,0.30000000000000004,1.3,8.0,15.2,6.1000000000000005,44.00000000000001,16
618,10533.0,-0.1,-0.4,-1.3,0.1,1.2000000000000002,8.4,3.1,-2.8,32.400000000000006,16
619,10548.0,-0.30000000000000004,-0.5,-1.1,-0.2,1.0,8.700000000000001,3.1,-2.8,32.400000000000006,16
620,10565.0,-0.5,-0.7000000000000001,-1.0,-0.30000000000000004,1.0,8.6,2.4000000000000004,1.4,30.599999999999998,16
621,10581.0,-0.30000000000000004,-0.6000000000000001,-1.6,-0.1,1.1,7.9,11.700000000000001,15.8,34.50000000000001,16
622,10598.0,0.1,-0.30000000000000004,-2.7,0.30000000000000004,1.5,6.9,18.0,15.299999999999999,34.900000000000006,16
623,10615.0,0.2,-0.1,-3.2,0.30000000000000004,1.7000000000000002,6.2,18.0,15.299999999999999,34.900000000000006,16
624,10632.0,0.1,0.0,-3.6,0.30000000000000004,1.9000000000000001,6.0,21.200000000000003,9.0,33.300000000000004,16
625,10648.0,0.1,0.0,-3.5,0.30000000000000004,1.9000000000000001,6.1000000000000005,21.0,-1.1,27.700000000000003,16
626,10665.0,0.1,0.0,-3.3000000000000003,0.30000000000000004,1.9000000000000001,6.2,17.799999999999997,-0.30000000000000004,23.700000000000003,16
627,10681.0,0.0,-0.1,-3.1,0.1,1.8,6.6000000000000005,17.799999999999997,-0.30000000000000004,23.700000000000003,16
628,10698.0,-0.2,-0.2,-2.5,0.0,1.9000000000000001,7.1000000000000005,15.2,-1.8000000000000003,22.4,16
629,10718.0,-0.2,0.0,-1.9000000000000001,0.1,2.1,7.6000000000000005,19.300000000000004,-8.700000000000001,23.400000000000002,16
630,10732.0,-0.1,0.2,-1.6,0.2,2.4000000000000004,8.0,19.300000000000004,-8.700000000000001,23.400000000000002,16
631,10749.0,-0.1,0.4,-1.4000000000000001,0.30000000000000004,2.6,8.1,22.8,-15.2,22.4,16
632,10765.0,0.0,0.6000000000000001,-0.5,0.5,2.8000000000000003,9.0,11.4,-13.200000000000003,13.5,16
633,10785.0,0.4,0.4,0.6000000000000001,0.8,2.7,10.0,5.7,-5.2,6.600000000000001,16
634,10798.0,0.4,0.2,0.9,0.8,2.4000000000000004,10.4,5.7,-5.2,6.600000000000001,16
635,10815.0,0.2,0.0,1.1,0.7000000000000001,2.2,10.600000000000001,-0.1,1.6,-1.4,16
636,10831.0,0.4,-0.2,1.3,0.9,2.0,10.700000000000001,-2.1,-4.0,-3.0,16
637,10848.0,0.5,-0.30000000000000004,1.5,1.1,1.9000000000000001,11.200000000000001,-2.1,-4.0,-3.0,16
638,10865.0,0.8,-0.4,2.1,1.4000000000000001,1.8,11.700000000000001,-7.699999999999999,-15.700000000000001,-7.400000000000001,16
639,10881.0,1.1,-0.5,2.1,1.7000000000000002,1.6,11.4,-14.800000000000002,-8.3,-11.4,16
640,10898.0,1.2000000000000002,-0.6000000000000001,1.6,1.7000000000000002,1.5,10.600000000000001,-14.800000000000002,-8.3,-11.4,16
641,10915.0,1.1,-0.30000000000000004,0.7000000000000001,1.6,1.8,10.3,-27.3,-0.5,-15.899999999999999,16
642,10933.0,0.7000000000000001,-0.1,1.5,1.1,1.6,11.5,-47.7,-14.400000000000002,-28.900000000000002,16
643,10948.0,-0.1,-0.6000000000000001,4.1000000000000005,0.5,1.1,13.700000000000001,-43.300000000000004,-18.200000000000003,-28.700000000000003,16
644,10966.0,-0.30000000000000004,-0.8,4.800000000000001,0.1,0.7000000000000001,14.700000000000001,-43.300000000000004,-18.200000000000003,-28.700000000000003,16
645,10982.0,-0.7000000000000001,-1.1,4.9,0.0,0.4,14.200000000000001,-9.600000000000001,-2.9,-14.400000000000002,16
646,10998.0,-0.4,-1.3,3.0,0.30000000000000004,0.30000000000000004,12.5,3.2,3.2,-2.8,16
647,11016.0,0.2,-0.9,1.0,0.8,0.7000000000000001,10.700000000000001,9.8,1.3,7.200000000000001,16
648,11032.0,0.7000000000000001,-0.5,0.30000000000000004,1.6,1.5,9.600000000000001,9.8,1.3,7.200000000000001,16
649,11048.0,1.3,0.2,-0.8,2.1,2.0,8.8,7.9,-12.299999999999999,5.8,16
650,11069.0,1.5,0.6000000000000001,-1.4000000000000001,2.2,2.3000000000000003,8.3,-1.6,-12.100000000000001,-3.7000000000000006,16
651,11083.0,1.3,0.6000000000000001,-1.5,2.0,2.3000000000000003,8.1,-1.6,-12.100000000000001,-3.7000000000000006,16
652,11098.0,1.0,0.6000000000000001,-1.7000000000000002,1.6,2.1,7.9,-18.0,-5.4,-21.900000000000002,16
653,11115.0,0.4,0.4,-1.6,1.2000000000000002,1.9000000000000001,8.1,-17.799999999999997,-4.1,-25.4,16
654,11131.0,0.30000000000000004,0.30000000000000004,-1.3,0.9,1.8,8.4,-17.799999999999997,-4.1,-25.4,16
655,11148.0,-0.2,0.2,-1.2000000000000002,0.4,1.7000000000000002,8.200000000000001,-10.200000000000001,-2.3,-25.6,16
656,11165.0,-0.5,-0.1,-2.0,0.2,1.5,7.5,11.000000000000002,6.4,-19.799999999999997,16
657,11181.0,-0.5,-0.2,-2.8000000000000003,0.2,1.5,6.800000000000001,18.3,10.8,-15.8,16
658,11198.0,-0.4,-0.2,-3.1,0.30000000000000004,1.6,6.1000000000000005,18.3,10.8,-15.8,16
659,11216.0,-0.4,-0.1,-4.0,0.2,1.7000000000000002,5.5,22.6,9.3,-13.000000000000002,16
660,11231.0,-0.4,0.0,-3.7,0.2,1.9000000000000001,5.9,14.800000000000002,8.700000000000001,-11.6,16
661,11248.0,-0.2,0.2,-3.1,0.4,2.1,6.800000000000001,14.800000000000002,8.700000000000001,-11.6,16
662,11268.0,0.0,0.4,-2.3000000000000003,0.4,2.3000000000000003,7.5,7.6,12.5,-12.0,16
663,11282.0,-0.2,0.4,-1.4000000000000001,0.2,2.2,8.200000000000001,-1.3,19.400000000000002,-15.2,16
664,11299.0,-0.4,0.2,-0.30000000000000004,-0.1,2.1,9.1,-0.4,20.0,-11.8,16
665,11316.0,-0.6000000000000001,0.2,0.2,-0.30000000000000004,2.1,9.9,-0.4,20.0,-11.8,16
666,11331.0,-0.6000000000000001,0.1,0.9,-0.4,2.0,10.4,16.3,12.100000000000001,1.3,16
667,11351.0,-0.7000000000000001,0.1,1.2000000000000002,-0.4,2.1,10.700000000000001,20.8,12.5,7.0,16
668,11366.0,-0.30000000000000004,0.1,1.1,-0.2,2.2,10.600000000000001,16.900000000000002,18.200000000000003,11.5,16
669,11381.0,-0.1,0.30000000000000004,0.9,0.2,2.5,10.3,16.900000000000002,18.200000000000003,11.5,16
670,11398.0,0.30000000000000004,0.9,1.3,0.5,3.0,11.0,-4.9,17.5,10.1,16
671,11417.0,0.6000000000000001,1.3,2.5,0.7000000000000001,3.3000000000000003,12.0,-14.0,16.1,3.0,16
672,11432.0,0.6000000000000001,1.0,2.6,0.4,2.7,12.0,-14.0,16.1,3.0,16
673,11448.0,-0.1,0.30000000000000004,2.4000000000000004,-0.2,2.1,12.100000000000001,-31.3,2.4000000000000004,-3.3000000000000007,16
674,11465.0,-0.8,-0.1,3.6,-0.8,1.7000000000000002,13.3,-35.1,-16.8,3.7000000000000006,16
675,11482.0,-1.0,-0.2,4.5,-1.0,1.4000000000000001,15.200000000000001,-35.1,-16.8,3.7000000000000006,16
676,11498.0,-1.1,-0.4,6.7,-0.7000000000000001,1.2000000000000002,16.400000000000002,-28.800000000000004,-27.0,14.0,16
677,11516.0,-0.4,-0.7000000000000001,5.5,-0.2,1.0,14.5,11.8,10.0,29.0,16
678,11535.0,-0.30000000000000004,-0.6000000000000001,0.1,-0.2,1.1,9.9,18.1,24.200000000000003,31.0,16
679,11554.0,0.0,-0.30000000000000004,-3.1,0.0,1.4000000000000001,7.0,10.1,15.299999999999999,29.300000000000004,16
680,11565.0,0.1,-0.2,-3.2,0.30000000000000004,1.5,6.7,-1.6,-5.1000000000000005,24.8,16
681,11582.0,0.30000000000000004,-0.2,-1.9000000000000001,0.5,1.5,7.9,-8.5,-17.1,19.5,16
682,11598.0,0.30000000000000004,-0.1,-1.2000000000000002,0.5,1.6,8.8,-8.5,-17.1,19.5,16
683,11615.0,0.1,0.0,-0.6000000000000001,0.30000000000000004,1.6,9.1,-11.6,-18.1,14.700000000000001,16
684,11631.0,-0.2,-0.1,-0.6000000000000001,0.1,1.5,9.0,-9.700000000000001,-4.0,8.700000000000001,16
685,11648.0,-0.30000000000000004,-0.2,-0.9,-0.2,1.3,8.5,-9.700000000000001,-4.0,8.700000000000001,16
686,11665.0,-0.7000000000000001,-0.4,-1.5,-0.5,1.2000000000000002,7.9,-5.300000000000001,0.0,9.3,16
687,11682.0,-0.8,-0.6000000000000001,-2.0,-0.5,1.1,7.6000000000000005,5.6,-4.800000000000001,18.5,16
688,11698.0,-0.7000000000000001,-0.5,-2.1,-0.4,1.2000000000000002,7.5,13.100000000000001,-8.3,24.3,16
689,11715.0,-0.7000000000000001,-0.4,-2.3000000000000003,-0.2,1.3,7.2,13.100000000000001,-8.3,24.3,16
690,11732.0,-0.4,-0.30000000000000004,-2.5,0.1,1.5,7.2,20.0,-10.4,28.1,16
691,11749.0,0.0,-0.1,-2.2,0.5,1.8,7.4,25.5,-4.800000000000001,28.500000000000004,16
692,11766.0,0.4,0.1,-2.2,0.8,2.0,7.300000000000001,27.2,1.5,24.8,16
693,11785.0,0.4,0.2,-2.5,0.9,2.2,6.9,27.2,1.5,24.8,16
694,11799.0,0.30000000000000004,0.30000000000000004,-2.4000000000000004,0.8,2.4000000000000004,7.2,24.400000000000002,-5.1000000000000005,16.1,16
695,11814.0,0.1,0.30000000000000004,-1.3,0.6000000000000001,2.4000000000000004,8.1,22.4,-8.2,12.299999999999999,16
696,11831.0,0.1,0.4,-0.8,0.7000000000000001,2.6,8.9,22.4,-8.2,12.299999999999999,16
697,11848.0,0.2,0.5,-0.4,0.8,2.7,9.0,20.1,-5.0,7.699999999999999,16
698,11865.0,0.2,0.4,-0.2,0.7000000000000001,2.6,9.3,9.0,-4.4,-4.800000000000001,16
699,11881.0,0.1,0.2,0.30000000000000004,0.6000000000000001,2.3000000000000003,10.5,9.0,-4.4,-4.800000000000001,16
700,11898.0,0.2,-0.2,1.9000000000000001,0.9,1.9000000000000001,11.700000000000001,0.9000000000000001,-9.2,-9.100000000000001,16
701,11915.0,0.4,-0.5,3.0,1.0,1.7000000000000002,12.5,-5.1000000000000005,-8.8,-13.200000000000003,16
702,11931.0,0.4,-0.6000000000000001,3.3000000000000003,1.0,1.6,12.700000000000001,-6.2,-4.300000000000001,-15.000000000000002,16
703,11950.0,0.4,-0.7000000000000001,2.3000000000000003,1.1,1.5,11.9,-11.3,1.6,-17.5,16
704,11965.0,0.30000000000000004,-0.7000000000000001,1.7000000000000002,0.9,1.4000000000000001,11.0,-11.3,1.6,-17.5,16
705,11982.0,0.5,-0.5,1.3,1.1,1.5,10.9,-30.599999999999998,-6.1000000000000005,-22.3,16
706,11998.0,0.5,-0.30000000000000004,1.6,0.9,1.6,11.9,-30.599999999999998,-6.1000000000000005,-22.3,16
707,12015.0,0.1,-0.5,3.6,0.6000000000000001,1.1,13.9,-35.699999999999996,-17.7,-26.400000000000006,16
708,12031.0,-0.4,-1.1,5.0,0.30000000000000004,0.6000000000000001,14.5,-19.6,-3.7000000000000006,-22.6,16
709,12048.0,-0.5,-1.4000000000000001,3.4000000000000004,0.1,0.30000000000000004,13.0,-4.800000000000001,10.700000000000001,-14.300000000000002,16
710,12065.0,-0.30000000000000004,-1.3,1.9000000000000001,0.6000000000000001,0.6000000000000001,10.600000000000001,-4.800000000000001,10.700000000000001,-14.300000000000002,16
711,12081.0,0.30000000000000004,-0.9,-0.30000000000000004,1.2000000000000002,1.0,9.1,2.9,11.900000000000002,-5.7,16
712,12098.0,1.2000000000000002,-0.2,-0.9,2.0,1.6,9.0,-3.0,-20.1,-1.1,16
713,12115.0,1.9000000000000001,0.6000000000000001,0.5,2.6,2.3000000000000003,10.100000000000001,-10.200000000000001,-23.400000000000002,-9.700000000000001,16
714,12132.0,1.7000000000000002,0.8,0.6000000000000001,2.3000000000000003,2.3000000000000003,10.200000000000001,-10.200000000000001,-23.400000000000002,-9.700000000000001,16
715,12148.0,1.0,0.30000000000000004,-0.1,1.6,1.8,9.5,-20.0,7.1000000000000005,-33.800000000000004,16
716,12164.0,0.6000000000000001,0.0,-0.5,1.6,1.8,9.5,-20.0,7.1000000000000005,-33.800000000000004,16
717,12181.0,-0.2,-0.6000000000000001,-2.1,0.4,1.0,7.1000000000000005,-19.5,20.0,-34.50000000000001,16
718,12199.0,-0.1,-0.5,-3.1,0.6000000000000001,1.2000000000000002,6.6000000000000005,-5.6,3.7000000000000006,-19.300000000000004,16
719,12217.0,0.4,0.1,-2.4000000000000004,1.1,1.7000000000000002,7.300000000000001,3.8,-8.2,-15.5,16
720,12232.0,0.9,0.7000000000000001,-1.6,1.5,2.3000000000000003,8.0,13.000000000000002,-5.7,-18.200000000000003,16
721,12249.0,0.9,0.6000000000000001,-1.6,1.4000000000000001,2.2,7.7,13.000000000000002,-5.7,-18.200000000000003,16
722,12265.0,0.6000000000000001,0.30000000000000004,-2.8000000000000003,1.0,2.0,6.6000000000000005,20.5,22.8,-28.400000000000002,16
723,12281.0,0.30000000000000004,0.2,-4.0,0.7000000000000001,1.9000000000000001,5.5,16.0,27.099999999999998,-30.000000000000004,16
724,12299.0,0.1,0.1,-4.2,0.30000000000000004,1.8,5.5,16.0,27.099999999999998,-30.000000000000004,16
725,12316.0,-0.1,0.0,-3.7,0.2,1.9000000000000001,6.1000000000000005,7.8,14.900000000000002,-23.900000000000006,16
726,12332.0,-0.2,0.2,-2.4000000000000004,0.0,2.1,7.2,8.4,5.8,-18.8,16
727,12348.0,-0.30000000000000004,0.30000000000000004,-1.7000000000000002,0.0,2.4000000000000004,8.4,8.4,5.8,-18.8,16
728,12366.0,-0.2,0.5,-0.5,0.1,2.4000000000000004,9.1,11.000000000000002,2.9,-15.299999999999999,16
729,12381.0,-0.1,0.5,-0.4,0.1,2.5,8.9,14.600000000000001,15.5,-10.0,16
730,12398.0,-0.1,0.6000000000000001,-0.7000000000000001,0.0,2.6,8.5,14.600000000000001,15.5,-10.0,16
731,12416.0,-0.2,0.7000000000000001,-0.8,-0.2,2.8000000000000003,9.1,9.3,16.900000000000002,-7.8,16
732,12434.0,-0.30000000000000004,0.8,0.6000000000000001,-0.2,2.8000000000000003,10.3,-5.500000000000001,12.200000000000001,-5.0,16
733,12454.0,-0.4,0.7000000000000001,1.7000000000000002,-0.4,2.6,11.200000000000001,-7.400000000000001,14.900000000000002,-2.6,16
734,12465.0,-0.7000000000000001,0.4,2.2,-0.7000000000000001,2.4000000000000004,11.600000000000001,-7.6,15.899999999999999,3.8,16
735,12482.0,-0.7000000000000001,0.4,2.4000000000000004,-0.8,2.5,12.0,-7.6,15.899999999999999,3.8,16
736,12498.0,-0.4,0.7000000000000001,2.2,-0.5,2.7,11.4,-6.4,19.300000000000004,16.8,16
737,12515.0,-0.2,0.7000000000000001,0.8,-0.30000000000000004,2.6,10.3,-15.5,14.700000000000001,15.899999999999999,16
738,12531.0,-0.2,0.8,0.8,-0.4,2.7,10.9,-15.5,14.700000000000001,15.899999999999999,16
739,12549.0,-0.5,0.6000000000000001,3.3000000000000003,-0.7000000000000001,2.1,13.600000000000001,-35.9,-13.3,13.100000000000001,16
740,12565.0,-0.9,-0.30000000000000004,5.4,-1.0,1.3,15.0,-27.700000000000003,-16.200000000000003,18.8,16
741,12582.0,-1.1,-0.8,5.4,-1.0,0.5,14.700000000000001,-27.700000000000003,-16.200000000000003,18.8,16
742,12598.0,-0.5,-1.3,4.1000000000000005,-0.30000000000000004,0.30000000000000004,13.200000000000001,-15.6,-9.700000000000001,30.5,16
743,12617.0,0.4,-1.0,2.0,0.5,0.7000000000000001,11.4,10.0,8.2,39.50000000000001,16
744,12632.0,1.1,-0.6000000000000001,0.1,1.1,1.1,9.8,12.8,2.6,32.1,16
745,12648.0,1.4000000000000001,-0.4,-0.4,1.3,1.3,9.200000000000001,12.8,2.6,32.1,16
746,12665.0,0.8,-0.4,-0.6000000000000001,0.6000000000000001,1.2000000000000002,9.200000000000001,-5.300000000000001,-12.299999999999999,11.2,16
747,12681.0,-0.1,-0.7000000000000001,-0.1,-0.1,0.9,9.600000000000001,-14.200000000000001,-15.100000000000001,8.100000000000001,16
748,12698.0,-0.4,-0.8,0.1,-0.4,0.6000000000000001,10.0,-14.200000000000001,-15.100000000000001,8.100000000000001,16
749,12715.0,-0.5,-1.1,0.2,-0.30000000000000004,0.5,9.700000000000001,-15.2,-14.300000000000002,10.5,16
750,12733.0,0.1,-0.8,-0.6000000000000001,0.4,0.8,8.9,0.2,-0.5,19.799999999999997,16
751,12748.0,0.4,-0.4,-1.1,0.4,0.8,8.9,0.2,-0.5,19.799999999999997,16
752,12765.0,0.5,0.0,-1.8,0.7000000000000001,1.5,7.7,7.1000000000000005,2.9,16.5,16
753,12781.0,0.5,-0.1,-2.4000000000000004,0.7000000000000001,1.5,7.1000000000000005,14.400000000000002,6.600000000000001,7.400000000000001,16
754,12798.0,0.6000000000000001,-0.1,-3.0,0.7000000000000001,1.5,6.7,16.700000000000003,5.500000000000001,4.7,16
755,12815.0,0.6000000000000001,-0.1,-3.1,0.7000000000000001,1.6,6.5,16.700000000000003,5.500000000000001,4.7,16
756,12831.0,0.7000000000000001,0.0,-3.1,1.0,1.7000000000000002,6.6000000000000005,20.2,-0.1,2.8,16
757,12848.0,0.9,-0.1,-2.3000000000000003,1.1,1.7000000000000002,7.5,29.1,-8.899999999999999,-1.6,16
758,12865.0,0.8,-0.2,-1.4000000000000001,0.9,1.7000000000000002,9.0,29.1,-8.899999999999999,-1.6,16
759,12882.0,0.9,-0.2,0.2,1.5,2.2,10.200000000000001,37.0,-5.9,-2.2,16
760,12899.0,1.9000000000000001,0.8,1.6,2.1,3.2,11.3,68.1,29.1,-15.899999999999999,16
761,12915.0,2.9000000000000004,1.1,1.8,2.9000000000000004,3.6,10.9,88.50000000000001,64.9,-35.0,16
762,12933.0,3.5,0.1,-4.800000000000001,3.3000000000000003,3.0,5.300000000000001,78.9,63.8,-61.599999999999994,16
763,12948.0,0.8,0.8,-4.9,-0.30000000000000004,3.9000000000000004,5.4,78.9,63.8,-61.599999999999994,16
764,12965.0,0.0,0.6000000000000001,-2.7,-0.8,2.8000000000000003,6.7,-20.5,35.5,-72.2,16
765,12981.0,-1.3,-1.1,0.4,-1.9000000000000001,1.5,9.700000000000001,-44.7,20.900000000000002,-60.5,16
766,12998.0,-0.6000000000000001,0.5,3.4000000000000004,-0.7000000000000001,3.1,14.100000000000001,-44.7,20.900000000000002,-60.5,16
767,13014.0,1.5,-0.1,6.0,1.2000000000000002,2.4000000000000004,15.200000000000001,19.5,-8.0,-45.2,16
768,13031.0,2.3000000000000003,-0.30000000000000004,3.7,1.6,2.4000000000000004,12.9,45.5,-12.7,-55.8,16
769,13048.0,1.8,0.0,1.9000000000000001,0.5,2.6,10.100000000000001,45.5,-12.7,-55.8,16
770,13065.0,0.0,-0.30000000000000004,0.1,-0.9,2.3000000000000003,9.9,36.0,-18.6,-69.7,16
771,13081.0,-1.0,-0.9,3.3000000000000003,-1.6,1.8,13.200000000000001,-20.3,-33.800000000000004,-62.7,16
772,13098.0,-1.0,-0.9,5.5,-1.3,1.5,16.2,-20.3,-33.800000000000004,-62.7,16
773,13115.0,-0.2,-1.8,5.800000000000001,-1.0,0.6000000000000001,13.8,-34.1,11.5,-48.800000000000004,16
774,13132.0,-0.30000000000000004,-1.9000000000000001,2.1,-1.3,0.5,11.3,-22.5,59.300000000000004,-33.9,16
775,13148.0,-0.2,-2.0,1.3,-1.3,0.5,11.3,-22.5,59.300000000000004,-33.9,16
776,13165.0,0.6000000000000001,-2.0,-0.1,-0.30000000000000004,0.7000000000000001,8.700000000000001,5.7,28.200000000000003,-23.2,16
777,13183.0,1.0,-1.1,-1.8,0.2,1.7000000000000002,7.6000000000000005,26.200000000000003,1.5,-14.700000000000001,16
778,13198.0,2.1,-0.1,-2.5,1.1,2.4000000000000004,6.9,1.2000000000000002,-18.1,-19.700000000000003,16
779,13216.0,2.8000000000000003,0.1,-2.2,1.8,2.5,7.2,-24.400000000000002,-14.100000000000001,-36.0,16
780,13231.0,2.5,-1.0,-1.5,1.0,0.2,7.9,-24.400000000000002,-14.100000000000001,-36.0,16
781,13248.0,2.9000000000000004,-0.5,-0.2,1.8,2.2,9.3,-29.900000000000006,2.3,-52.2,16
782,13265.0,2.8000000000000003,0.8,-0.30000000000000004,1.8,2.2,9.3,-29.900000000000006,2.3,-52.2,16
783,13281.0,0.5,0.0,-4.4,-1.4000000000000001,1.8,4.7,-14.600000000000001,3.4,-66.60000000000001,16
784,13298.0,-1.0,-0.5,-5.0,-1.8,1.5,4.5,-9.600000000000001,-29.600000000000005,-74.10000000000001,16
785,13315.0,-0.8,-0.2,-4.3,-1.5,1.8,5.4,-11.000000000000002,-74.30000000000001,-57.60000000000001,16
786,13331.0,-0.6000000000000001,0.30000000000000004,-2.3000000000000003,-1.3,2.2,7.1000000000000005,-14.0,-52.300000000000004,-48.10000000000001,16
787,13348.0,-0.6000000000000001,0.5,-1.5,-1.1,2.4000000000000004,7.6000000000000005,-14.0,-52.300000000000004,-48.10000000000001,16
788,13365.0,0.0,0.1,-3.2,-0.8,1.9000000000000001,6.0,-6.600000000000001,-0.5,-28.200000000000003,16
789,13381.0,-1.6,-0.2,-4.6000000000000005,-2.3000000000000003,1.7000000000000002,4.800000000000001,-7.300000000000001,-9.4,-10.9,16
790,13398.0,-1.9000000000000001,0.1,-4.4,-1.8,2.4000000000000004,4.9,-7.300000000000001,-9.4,-10.9,16
791,13415.0,1.3,0.6000000000000001,-3.1,1.2000000000000002,3.0,7.4,18.3,-103.89999999999999,11.700000000000001,16
792,13431.0,0.8,1.9000000000000001,-0.2,1.0,3.9000000000000004,9.8,47.7,-118.10000000000001,1.3,16
793,13448.0,0.9,1.4000000000000001,2.6,1.9000000000000001,3.0,9.8,47.7,-118.10000000000001,1.3,16
794,13464.0,1.1,0.7000000000000001,1.1,1.0,3.4000000000000004,10.700000000000001,55.0,-84.4,1.3,16
795,13482.0,0.2,1.1,0.9,1.3,3.7,9.9,73.0,-82.60000000000001,-0.8,16
796,13498.0,1.0,1.1,0.30000000000000004,1.3,3.7,9.9,73.0,-82.60000000000001,-0.8,16
797,13515.0,1.6,1.7000000000000002,-0.2,3.2,4.9,8.6,86.7,-124.3,-15.8,16
798,13531.0,1.7000000000000002,1.7000000000000002,-0.7000000000000001,3.6,4.800000000000001,8.0,85.30000000000001,-212.2,-66.1,16
799,13548.0,1.2000000000000002,0.5,-0.8,3.6,4.1000000000000005,8.0,48.2,-225.90000000000003,-83.2,16
800,13565.0,-0.9,0.9,1.9000000000000001,2.1,4.5,10.100000000000001,0.1,-194.3,-89.8,16
801,13581.0,-4.800000000000001,1.3,3.8000000000000003,-4.5,4.800000000000001,14.0,0.1,-194.3,-89.8,16
802,13598.0,-10.8,0.9,8.3,-7.0,4.5,17.1,-5.7,-101.20000000000002,13.100000000000001,16
803,13615.0,-5.6000000000000005,0.4,9.5,-1.8,4.0,17.6,54.300000000000004,-78.10000000000001,85.1,16
804,13631.0,-0.8,-0.7000000000000001,8.0,3.8000000000000003,3.0,15.3,54.300000000000004,-78.10000000000001,85.1,16
805,13648.0,-1.0,-0.30000000000000004,5.300000000000001,2.6,3.8000000000000003,12.4,162.9,-71.39999999999999,92.2,16
806,13664.0,-2.3000000000000003,-0.4,1.7000000000000002,2.1,3.9000000000000004,8.9,185.80000000000004,-88.00000000000001,105.3,16
807,13682.0,-2.3000000000000003,-1.0,-0.2,3.1,4.5,6.9,185.80000000000004,-88.00000000000001,105.3,16
808,13698.0,-0.4,1.1,1.0,5.4,5.800000000000001,8.200000000000001,186.8,-120.4,116.1,16
809,13715.0,0.8,0.2,2.3000000000000003,6.300000000000001,5.0,8.5,153.10000000000002,-82.39999999999999,101.4,16
810,13731.0,0.30000000000000004,-0.1,0.9,6.0,5.0,7.0,136.8,-44.7,86.8,16
811,13748.0,-0.30000000000000004,-0.2,-0.2,5.0,4.7,4.9,136.8,-44.7,86.8,16
812,13764.0,-1.6,-1.1,-2.3000000000000003,4.1000000000000005,3.8000000000000003,3.3000000000000003,84.1,6.0,65.0,16
813,13785.0,-2.5,-2.0,-3.4000000000000004,3.5,3.1,2.6,55.3,21.300000000000004,65.0,16
814,13798.0,-2.2,-2.2,-2.1,4.0,2.7,2.4000000000000004,55.3,21.300000000000004,65.0,16
815,13815.0,-1.9000000000000001,-2.7,-2.8000000000000003,4.2,2.2,3.3000000000000003,27.9,41.300000000000004,68.4,16
816,13831.0,-1.7000000000000002,-2.8000000000000003,-1.6,4.3,2.0,4.3,37.7,8.899999999999999,79.1,16
817,13848.0,-2.0,-2.8000000000000003,-0.6000000000000001,4.2,2.0,4.9,64.2,-13.200000000000003,83.70000000000002,16
818,13864.0,-2.2,-2.8000000000000003,-0.6000000000000001,4.3,1.8,4.7,64.2,-13.200000000000003,83.70000000000002,16
819,13881.0,-2.0,-3.2,-1.3,4.4,1.4000000000000001,3.4000000000000004,111.9,-37.0,82.9,16
820,13898.0,-2.5,-3.4000000000000004,-3.3000000000000003,4.2,1.3,1.6,113.8,-48.400000000000006,79.19999999999999,16
821,13915.0,-2.6,-3.2,-3.5,4.4,1.4000000000000001,0.8,113.8,-48.400000000000006,79.19999999999999,16
822,13931.0,-2.4000000000000004,-3.7,-3.9000000000000004,4.7,0.8,0.7000000000000001,99.39999999999999,-52.400000000000006,75.5,16
823,13948.0,-2.2,-3.8000000000000003,-3.1,5.1000000000000005,0.7000000000000001,1.3,57.699999999999996,-58.900000000000006,83.2,16
824,13965.0,-2.0,-3.7,-2.3000000000000003,5.1000000000000005,0.7000000000000001,1.3,57.699999999999996,-58.900000000000006,83.2,16
825,13981.0,-0.8,-3.8000000000000003,0.5,7.5,0.30000000000000004,4.6000000000000005,45.099999999999994,-65.2,91.7,16
826,13998.0,1.3,-3.5,0.7000000000000001,9.3,0.4,4.4,31.7,-41.0,94.7,16
827,14014.0,2.2,-3.4000000000000004,-0.1,10.0,0.30000000000000004,3.3000000000000003,17.9,-33.7,81.4,16
828,14031.0,2.0,-3.5,-0.9,10.100000000000001,-0.2,2.1,17.9,-33.7,81.4,16
829,14048.0,2.2,-4.2,-1.8,10.4,-1.2000000000000002,1.7000000000000002,-9.3,-38.2,71.6,16
830,14067.0,2.6,-5.0,-1.0,10.9,-2.1,2.6,-85.69999999999999,-58.400000000000006,74.0,16
831,14082.0,3.3000000000000003,-5.2,1.0,11.700000000000001,-2.6,4.3,-118.80000000000003,-61.10000000000001,80.30000000000001,16
832,14098.0,3.9000000000000004,-5.1000000000000005,2.2,13.0,-2.9000000000000004,6.300000000000001,-118.80000000000003,-61.10000000000001,80.30000000000001,16
833,14115.0,5.6000000000000005,-5.0,4.2,14.5,-3.2,7.7,-162.4,-25.7,80.50000000000001,16
834,14131.0,5.9,-5.1000000000000005,4.4,14.600000000000001,-3.7,7.9,-175.00000000000003,-1.9,75.4,16
835,14148.0,5.300000000000001,-4.800000000000001,4.2,13.5,-3.5,7.7,-175.00000000000003,-1.9,75.4,16
836,14164.0,3.8000000000000003,-3.9000000000000004,4.0,12.200000000000001,-3.0,7.9,-186.8,18.3,75.3,16
837,14181.0,2.3000000000000003,-2.4000000000000004,4.5,11.0,-2.1,8.4,-184.3,23.6,90.80000000000001,16
838,14198.0,1.9000000000000001,-1.7000000000000002,4.6000000000000005,10.8,-1.5,8.5,-184.3,23.6,90.80000000000001,16
839,14220.0,3.0,-0.7000000000000001,4.5,11.600000000000001,-1.6,8.4,-137.1,-16.1,114.10000000000001,16
840,14232.0,3.7,-0.30000000000000004,4.5,12.8,-1.5,8.200000000000001,-112.0,-36.5,123.7,16
841,14252.0,5.0,0.1,4.2,13.9,-1.6,7.9,-94.7,-47.400000000000006,129.20000000000002,16
842,14266.0,5.4,0.8,4.3,14.3,-1.4000000000000001,7.800000000000001,-87.10000000000001,-41.1,131.5,16
843,14281.0,5.1000000000000005,1.2000000000000002,4.2,13.700000000000001,-1.0,7.5,-87.10000000000001,-41.1,131.5,16
844,14298.0,3.6,2.0,2.5,12.0,-0.9,5.6000000000000005,-102.10000000000001,-8.100000000000001,132.0,16
845,14314.0,2.1,2.2,1.3,10.200000000000001,-0.6000000000000001,4.1000000000000005,-102.10000000000001,-8.100000000000001,132.0,16
846,14331.0,1.2000000000000002,3.8000000000000003,0.6000000000000001,9.700000000000001,0.7000000000000001,3.8000000000000003,-122.0,-11.900000000000002,147.2,16
847,14348.0,1.5,6.2,2.0,10.5,2.4000000000000004,5.6000000000000005,-92.10000000000001,-41.50000000000001,141.1,16
848,14365.0,3.9000000000000004,7.9,5.300000000000001,12.3,3.4000000000000004,8.1,-41.800000000000004,-24.5,93.8,16
849,14381.0,3.9000000000000004,7.7,5.4,11.600000000000001,2.8000000000000003,7.2,-41.800000000000004,-24.5,93.8,16
850,14398.0,1.2000000000000002,6.5,1.8,8.3,1.6,3.7,0.9000000000000001,12.4,33.1,16
851,14416.0,-2.5,5.2,-2.0,5.6000000000000005,0.8,0.8,3.3000000000000007,62.800000000000004,-5.6,16
852,14432.0,-2.9000000000000004,5.2,-4.3,5.2,0.8,-1.0,-18.0,56.9,-0.6000000000000001,16
853,14449.0,-2.2,5.2,-4.4,6.7,1.0,-0.4,-18.0,56.9,-0.6000000000000001,16
854,14465.0,0.2,5.5,-1.7000000000000002,8.5,1.1,1.8,-46.6,30.799999999999997,-17.6,16
855,14483.0,0.6000000000000001,4.4,-0.8,8.700000000000001,0.1,2.4000000000000004,-44.00000000000001,35.699999999999996,-35.8,16
856,14499.0,0.4,3.7,-1.2000000000000002,8.3,-1.0,1.9000000000000001,-44.00000000000001,35.699999999999996,-35.8,16
857,14516.0,-0.2,2.6,-1.3,7.9,-1.7000000000000002,2.2,-44.2,43.6,-45.6,16
858,14531.0,-0.2,1.9000000000000001,-0.9,8.0,-2.1,2.6,-49.800000000000004,52.300000000000004,-44.8,16
859,14548.0,0.2,1.8,-0.6000000000000001,8.9,-2.1,3.2,-49.800000000000004,52.300000000000004,-44.8,16
860,14564.0,1.4000000000000001,1.7000000000000002,0.0,9.9,-2.2,3.9000000000000004,-51.0,56.7,-43.2,16
861,14582.0,2.2,1.4000000000000001,0.8,10.5,-2.6,4.6000000000000005,-42.900000000000006,61.39999999999999,-48.6,16
862,14598.0,2.6,0.30000000000000004,1.4000000000000001,10.8,-3.5,5.2,-35.2,60.900000000000006,-46.7,16
863,14614.0,2.7,-0.30000000000000004,1.5,10.8,-4.1000000000000005,5.300000000000001,-35.2,60.900000000000006,-46.7,16
864,14633.0,2.5,-0.4,1.4000000000000001,10.600000000000001,-3.6,5.5,-26.799999999999997,56.7,-36.6,16
865,14648.0,3.0,1.0,1.9000000000000001,11.4,-2.6,6.1000000000000005,-2.7,21.8,-11.700000000000001,16
866,14664.0,4.1000000000000005,1.2000000000000002,2.3000000000000003,13.100000000000001,-2.5,6.5,-2.7,21.8,-11.700000000000001,16
867,14682.0,5.300000000000001,0.8,2.3000000000000003,13.5,-2.6,6.5,12.4,2.6,-11.8,16
868,14699.0,4.9,1.2000000000000002,2.3000000000000003,13.0,-1.9000000000000001,6.5,27.6,-9.4,-10.299999999999999,16
869,14720.0,4.4,2.5,2.7,12.8,-0.8,6.9,35.5,-9.700000000000001,-6.8,16
870,14733.0,4.5,3.2,3.2,13.100000000000001,0.4,7.5,35.5,-9.700000000000001,-6.8,16
871,14750.0,5.0,3.8000000000000003,3.0,13.5,0.6000000000000001,7.1000000000000005,57.20000000000001,-4.300000000000001,-26.9,16
872,14766.0,5.1000000000000005,3.0,2.6,13.600000000000001,0.1,7.0,60.2,-1.5,-49.1,16
873,14787.0,4.7,1.7000000000000002,3.8000000000000003,13.3,-0.7000000000000001,8.200000000000001,67.8,14.700000000000001,-73.10000000000001,16
874,14798.0,3.9000000000000004,0.4,2.8000000000000003,11.8,-2.4000000000000004,6.9,67.8,14.700000000000001,-73.10000000000001,16
875,14815.0,1.1,-1.4000000000000001,1.3,9.4,-3.4000000000000004,6.0,83.60000000000001,5.6,-92.90000000000002,16
876,14831.0,-0.8,-2.0,1.3,8.0,-3.5,6.1000000000000005,81.2,2.7,-74.0,16
877,14848.0,-1.2000000000000002,-1.8,1.5,7.300000000000001,-2.8000000000000003,6.5,81.2,2.7,-74.0,16
878,14864.0,-1.9000000000000001,-1.2000000000000002,1.6,6.7,-2.2,6.300000000000001,87.40000000000002,1.1,-30.1,16
879,14882.0,-2.4000000000000004,-0.6000000000000001,0.9,6.4,-1.5,5.7,91.8,2.5,-9.8,16
880,14898.0,-2.4000000000000004,-0.2,0.6000000000000001,6.6000000000000005,-0.7000000000000001,5.5,91.8,2.5,-9.8,16
881,14914.0,-2.0,0.4,0.2,6.5,-0.30000000000000004,4.9,98.3,6.500000000000001,1.0,16
882,14931.0,-2.8000000000000003,0.0,-0.4,5.9,-0.7000000000000001,4.5,131.29999999999998,-19.400000000000002,-7.0,16
883,14949.0,-2.8000000000000003,-0.9,-0.30000000000000004,6.0,-1.2000000000000002,4.5,149.4,-36.8,-7.6,16
884,14964.0,-2.4000000000000004,-1.2000000000000002,-0.1,6.7,-1.3,4.7,149.4,-36.8,-7.6,16
885,14981.0,-1.9000000000000001,-1.7000000000000002,-0.1,6.9,-1.5,4.2,172.5,-38.900000000000006,-14.800000000000002,16
886,15001.0,-2.1,-2.2,-1.6,6.7,-1.7000000000000002,2.8000000000000003,163.7,-28.200000000000003,-21.300000000000004,16
887,15015.0,-2.7,-2.4000000000000004,-3.0,6.2,-1.6,1.5,141.1,-19.1,-27.5,16
888,15031.0,-2.9000000000000004,-2.6,-3.5,5.9,-1.8,0.7000000000000001,141.1,-19.1,-27.5,16
889,15048.0,-3.0,-3.2,-3.4000000000000004,5.9,-2.2,1.0,82.7,-23.099999999999998,-30.699999999999996,16
890,15067.0,-2.9000000000000004,-3.5,-2.9000000000000004,5.9,-2.2,1.0,82.7,-23.099999999999998,-30.699999999999996,16
891,15081.0,-2.4000000000000004,-4.0,-1.7000000000000002,6.9,-2.8000000000000003,3.0,60.900000000000006,-29.0,-27.099999999999998,16
892,15098.0,-1.2000000000000002,-4.3,0.0,7.9,-3.1,4.2,40.1,-34.800000000000004,-21.1,16
893,15114.0,-0.4,-5.0,0.9,8.5,-3.7,4.7,33.2,-28.600000000000005,-23.2,16
894,15134.0,-0.5,-6.0,0.4,8.5,-4.4,4.2,19.9,-18.5,-23.2,16
895,15149.0,-0.6000000000000001,-6.5,0.0,8.3,-5.2,3.6,19.9,-18.5,-23.2,16
896,15166.0,-0.6000000000000001,-7.0,-0.2,8.3,-5.6000000000000005,3.6,-30.3,-3.5,-6.500000000000001,16
897,15181.0,-0.5,-6.9,0.2,8.4,-5.7,3.9000000000000004,-55.5,2.3,4.0,16
898,15198.0,-0.30000000000000004,-7.0,0.2,8.9,-6.0,4.1000000000000005,-55.5,2.3,4.0,16
899,15214.0,0.5,-7.1000000000000005,0.6000000000000001,9.600000000000001,-6.1000000000000005,4.7,-93.60000000000001,-4.0,26.200000000000003,16
900,15231.0,1.0,-6.5,1.5,9.9,-5.800000000000001,5.4,-105.0,-2.5,35.0,16
901,15248.0,0.7000000000000001,-6.0,1.9000000000000001,9.4,-5.1000000000000005,6.1000000000000005,-105.0,-2.5,35.0,16
902,15266.0,0.1,-4.6000000000000005,2.5,8.9,-4.1000000000000005,6.5,-110.6,3.0,44.300000000000004,16
903,15281.0,-0.2,-3.0,2.7,8.9,-3.1,6.7,-99.2,16.5,70.8,16
904,15300.0,1.2000000000000002,-2.0,2.7,10.200000000000001,-2.6,6.800000000000001,-78.4,11.8,81.4,16
905,15318.0,3.2,-1.4000000000000001,2.2,11.9,-2.4000000000000004,6.300000000000001,-52.60000000000001,0.5,84.9,16
906,15332.0,3.8000000000000003,-1.2000000000000002,1.7000000000000002,12.9,-2.2,5.5,-28.200000000000003,-12.7,81.7,16
907,15349.0,4.1000000000000005,-0.8,0.7000000000000001,13.0,-2.1,4.6000000000000005,-13.000000000000002,-25.200000000000003,74.0,16
908,15368.0,3.1,-0.4,-0.30000000000000004,12.200000000000001,-2.0,3.6,-14.100000000000001,-28.1,66.5,16
909,15385.0,2.7,0.0,-0.5,11.4,-1.4000000000000001,3.3000000000000003,-14.100000000000001,-28.1,66.5,16
910,15399.0,1.6,1.2000000000000002,-0.2,10.4,-0.5,3.7,-52.00000000000001,1.1,50.2,16
911,15414.0,0.5,2.3000000000000003,0.2,9.5,0.30000000000000004,4.0,-67.60000000000001,22.9,38.50000000000001,16
912,15431.0,0.0,2.8000000000000003,0.1,8.4,0.9,3.9000000000000004,-67.60000000000001,22.9,38.50000000000001,16
913,15448.0,-1.3,3.5,-0.2,7.300000000000001,1.3,3.6,-67.00000000000001,44.7,17.400000000000002,16
914,15464.0,-2.3000000000000003,3.8000000000000003,-1.0,6.4,1.4000000000000001,2.9000000000000004,-53.0,36.0,9.700000000000001,16
915,15482.0,-2.6,3.7,-1.3,5.9,1.2000000000000002,2.6,-53.0,36.0,9.700000000000001,16
916,15498.0,-2.9000000000000004,3.4000000000000004,-1.6,5.800000000000001,0.9,2.3000000000000003,-38.2,22.8,3.5,16
917,15515.0,-3.0,3.0,-2.0,5.6000000000000005,0.5,1.9000000000000001,-27.2,14.0,-5.0,16
918,15531.0,-3.0,2.5,-2.6,5.6000000000000005,0.1,1.4000000000000001,-32.7,18.8,-6.600000000000001,16
919,15552.0,-2.9000000000000004,2.2,-2.8000000000000003,5.6000000000000005,-0.1,1.3,-39.2,19.9,-6.2,16
920,15564.0,-2.7,2.1,-2.7,6.0,-0.4,1.4000000000000001,-43.50000000000001,15.899999999999999,-5.2,16
921,15582.0,-2.0,1.8,-2.1,6.6000000000000005,-0.7000000000000001,1.9000000000000001,-44.9,11.4,-4.300000000000001,16
922,15598.0,-1.6,1.6,-1.9000000000000001,7.1000000000000005,-1.0,2.1,-44.9,11.4,-4.300000000000001,16
923,15614.0,-1.1,1.1,-1.6,7.6000000000000005,-1.5,2.6,-45.9,7.500000000000001,-4.2,16
924,15631.0,-0.2,0.9,-0.5,8.3,-1.7000000000000002,3.5,-52.2,12.0,0.7,16
925,15648.0,0.1,0.9,-0.2,9.0,-1.6,4.0,-52.2,12.0,0.7,16
926,15665.0,1.2000000000000002,1.2000000000000002,0.30000000000000004,10.0,-1.4000000000000001,4.4,-52.300000000000004,18.1,1.8000000000000003,16
927,15681.0,2.4000000000000004,1.3,0.8,11.0,-1.5,4.800000000000001,-44.5,12.5,-0.4,16
928,15698.0,3.1,0.9,1.1,11.600000000000001,-1.9000000000000001,5.0,-42.5,7.9,-0.30000000000000004,16
929,15715.0,3.1,0.6000000000000001,1.0,11.3,-2.3000000000000003,5.1000000000000005,-42.5,7.9,-0.30000000000000004,16
930,15731.0,2.8000000000000003,0.6000000000000001,1.6,11.5,-2.3000000000000003,5.6000000000000005,-45.8,6.300000000000001,5.2,16
931,15748.0,4.1000000000000005,0.4,2.2,12.700000000000001,-2.7,6.1000000000000005,-48.6,-4.7,25.200000000000003,16
932,15765.0,4.7,0.2,2.6,13.5,-2.9000000000000004,6.800000000000001,-48.6,-4.7,25.200000000000003,16
933,15781.0,5.2,0.6000000000000001,3.7,13.700000000000001,-2.4000000000000004,7.9,-46.7,-8.3,34.900000000000006,16
934,15798.0,5.300000000000001,1.6,5.0,13.8,-1.6,8.8,-12.9,-11.000000000000002,57.800000000000004,16
935,15815.0,5.800000000000001,3.2,5.1000000000000005,14.3,-0.30000000000000004,8.8,21.300000000000004,-17.0,66.4,16
936,15831.0,6.2,4.2,4.6000000000000005,14.9,1.2000000000000002,7.9,21.300000000000004,-17.0,66.4,16
937,15848.0,6.9,5.5,3.3000000000000003,15.5,1.9000000000000001,6.7,57.49999999999999,-29.0,61.9,16
938,15870.0,6.7,5.300000000000001,1.9000000000000001,15.200000000000001,1.7000000000000002,5.6000000000000005,95.80000000000001,-53.9,17.400000000000002,16
939,15882.0,5.4,4.5,1.0,14.200000000000001,1.2000000000000002,4.800000000000001,90.6,-52.2,-6.2,16
940,15899.0,4.9,4.1000000000000005,0.9,13.4,0.6000000000000001,4.800000000000001,90.6,-52.2,-6.2,16
941,15917.0,3.7,2.9000000000000004,1.3,12.3,-0.30000000000000004,5.1000000000000005,63.30000000000001,-29.800000000000004,-45.0,16
942,15932.0,2.1,1.8,1.5,11.0,-0.9,5.2,55.2,-15.100000000000001,-53.9,16
943,15949.0,1.2000000000000002,1.6,1.5,9.600000000000001,-1.0,5.2,55.2,-15.100000000000001,-53.9,16
944,15965.0,-0.30000000000000004,1.5,1.4000000000000001,8.6,-0.7000000000000001,5.1000000000000005,56.10000000000001,-5.4,-56.300000000000004,16
945,15983.0,-0.9,1.7000000000000002,1.0,8.200000000000001,-0.30000000000000004,4.800000000000001,84.69999999999999,-10.700000000000001,-55.5,16
946,15998.0,-1.2000000000000002,1.8,0.8,7.800000000000001,0.1,4.4,84.69999999999999,-10.700000000000001,-55.5,16
947,16017.0,-1.5,1.6,0.1,7.800000000000001,0.0,3.8000000000000003,104.4,-22.5,-60.1,16
948,16035.0,-1.6,0.9,-0.2,7.7,-0.4,3.6,125.4,-36.0,-74.60000000000001,16
949,16049.0,-1.9000000000000001,-0.1,-0.6000000000000001,7.5,-0.9,3.1,123.5,-30.799999999999997,-80.8,16
950,16067.0,-2.1,-1.2000000000000002,-1.3,7.300000000000001,-1.4000000000000001,2.4000000000000004,115.9,-26.5,-84.1,16
951,16081.0,-2.2,-1.6,-1.5,7.300000000000001,-1.8,2.0,104.50000000000001,-24.1,-85.1,16
952,16099.0,-2.0,-2.3000000000000003,-1.7000000000000002,7.4,-2.1,1.8,91.8,-24.5,-85.60000000000001,16
953,16117.0,-1.9000000000000001,-2.8000000000000003,-1.6,7.5,-2.3000000000000003,1.8,77.80000000000001,-25.200000000000003,-86.2,16
954,16131.0,-1.7000000000000002,-3.1,-1.6,7.7,-2.5,1.7000000000000002,77.80000000000001,-25.200000000000003,-86.2,16
955,16148.0,-1.5,-3.8000000000000003,-1.5,7.9,-2.8000000000000003,1.8,45.0,-25.300000000000004,-87.89999999999999,16
956,16169.0,-1.4000000000000001,-4.5,-1.2000000000000002,8.0,-3.2,1.9000000000000001,27.700000000000003,-25.6,-86.89999999999999,16
957,16183.0,-1.3,-4.9,-1.0,8.1,-3.7,2.2,27.700000000000003,-25.6,-86.89999999999999,16
958,16198.0,-1.1,-5.800000000000001,-0.4,8.3,-4.3,2.8000000000000003,-7.500000000000001,-24.599999999999998,-77.20000000000002,16
959,16214.0,-0.7000000000000001,-6.6000000000000005,0.5,8.6,-4.800000000000001,3.5,-22.5,-20.7,-69.20000000000002,16
960,16235.0,-0.4,-7.300000000000001,1.2000000000000002,8.9,-5.300000000000001,4.1000000000000005,-34.50000000000001,-16.900000000000002,-61.0,16
961,16248.0,-0.4,-7.7,1.5,8.700000000000001,-5.9,4.6000000000000005,-34.50000000000001,-16.900000000000002,-61.0,16
962,16264.0,-1.2000000000000002,-7.9,2.2,7.800000000000001,-6.0,5.2,-51.4,-3.9,-37.2,16
963,16281.0,-1.8,-7.9,2.3000000000000003,7.5,-6.0,5.300000000000001,-51.800000000000004,2.6,-17.300000000000004,16
964,16298.0,-1.3,-8.1,1.8,8.200000000000001,-6.4,4.4,-51.800000000000004,2.6,-17.300000000000004,16
965,16314.0,-0.30000000000000004,-8.0,0.7000000000000001,9.0,-6.2,3.4000000000000004,-48.2,-1.9,26.5,16
966,16331.0,0.0,-7.5,0.0,9.0,-6.2,3.4000000000000004,-48.2,-1.9,26.5,16
967,16348.0,-0.5,-6.2,-0.7000000000000001,8.4,-4.3,2.7,-53.50000000000001,-9.8,42.900000000000006,16
968,16365.0,-1.1,-4.3,0.4,8.4,-2.9000000000000004,4.0,-64.9,-13.3,58.400000000000006,16
969,16381.0,0.0,-2.9000000000000004,1.9000000000000001,9.5,-2.3000000000000003,5.1000000000000005,-74.30000000000001,-5.1000000000000005,77.9,16
970,16401.0,1.6,-2.9000000000000004,2.4000000000000004,10.9,-2.7,5.5,-67.5,-0.7,79.6,16
971,16415.0,2.2,-3.1,2.4000000000000004,11.8,-3.2,5.4,-67.5,-0.7,79.6,16
972,16433.0,2.6,-3.1,2.1,11.9,-3.4000000000000004,5.1000000000000005,-47.5,2.1,83.80000000000001,16
973,16448.0,2.3000000000000003,-2.4000000000000004,1.6,11.600000000000001,-2.9000000000000004,4.7,-40.5,0.4,86.7,16
974,16464.0,1.9000000000000001,-1.8,1.4000000000000001,10.9,-2.2,4.4,-40.5,0.4,86.7,16
975,16481.0,1.3,-0.4,1.1,10.5,-1.2000000000000002,4.1000000000000005,-38.1,2.0,88.60000000000001,16
976,16498.0,0.7000000000000001,1.0,0.8,9.9,-0.30000000000000004,4.0,-38.2,10.0,80.9,16
977,16515.0,0.4,1.6,0.8,9.9,-0.30000000000000004,4.0,-38.2,10.0,80.9,16
978,16532.0,-0.5,2.7,0.6000000000000001,8.200000000000001,1.1,3.6,-36.1,16.8,71.5,16
979,16549.0,-1.6,3.4000000000000004,-0.2,7.4,1.6,3.0,-25.4,28.0,52.5,16
980,16564.0,-2.1,3.9000000000000004,-1.0,6.9,1.9000000000000001,2.3000000000000003,-20.8,26.200000000000003,43.00000000000001,16
981,16585.0,-2.5,4.0,-1.7000000000000002,6.6000000000000005,1.8,1.8,-20.0,22.5,32.5,16
982,16600.0,-2.6,3.9000000000000004,-1.9000000000000001,6.2,1.6,1.4000000000000001,-20.0,22.5,32.5,16
983,16614.0,-2.9000000000000004,3.5,-2.2,5.9,1.2000000000000002,1.3,-33.300000000000004,18.5,15.000000000000002,16
984,16631.0,-2.9000000000000004,2.9000000000000004,-2.0,5.9,0.6000000000000001,1.5,-41.0,15.899999999999999,9.5,16
985,16648.0,-2.9000000000000004,2.5,-1.7000000000000002,6.0,-0.1,1.9000000000000001,-41.0,15.899999999999999,9.5,16
986,16664.0,-2.5,1.9000000000000001,-1.2000000000000002,6.4,-0.7000000000000001,2.3000000000000003,-49.9,12.0,6.699999999999999,16
987,16681.0,-1.9000000000000001,1.4000000000000001,-0.8,6.9,-1.1,2.6,-50.7,10.1,6.2,16
988,16698.0,-1.6,1.1,-0.6000000000000001,7.300000000000001,-1.7000000000000002,3.0,-50.7,10.1,6.2,16
989,16714.0,-1.3,0.5,-0.2,7.4,-2.2,3.3000000000000003,-50.7,9.600000000000001,5.6,16
990,16731.0,-1.1,0.1,0.1,7.6000000000000005,-2.6,3.5,-53.2,22.1,14.700000000000001,16
991,16748.0,-0.8,-0.1,0.0,8.200000000000001,-3.1,3.3000000000000003,-54.199999999999996,24.3,23.700000000000003,16
992,16765.0,0.30000000000000004,-0.30000000000000004,0.0,9.4,-3.2,3.6,-54.199999999999996,24.3,23.700000000000003,16
993,16781.0,2.1,-0.1,0.8,11.0,-3.2,4.5,-48.6,10.200000000000001,41.1,16
994,16798.0,3.7,0.1,2.1,12.3,-3.1,5.5,-38.7,4.300000000000001,45.6,16
995,16814.0,4.0,0.30000000000000004,2.5,12.5,-2.8000000000000003,6.0,-38.7,4.300000000000001,45.6,16
996,16831.0,4.3,1.0,2.5,13.200000000000001,-2.4000000000000004,5.800000000000001,-28.800000000000004,5.6,51.300000000000004,16
997,16848.0,5.9,1.3,2.2,14.5,-2.4000000000000004,5.7,-19.6,1.9,61.599999999999994,16
998,16865.0,6.5,1.5,2.4000000000000004,15.200000000000001,-2.3000000000000003,6.2,-19.6,1.9,61.599999999999994,16
999,16881.0,6.800000000000001,2.0,3.5,14.9,-1.6,7.300000000000001,-17.400000000000002,0.8,62.4,16
1000,16898.0,6.1000000000000005,3.5,4.2,14.4,-0.30000000000000004,7.5,18.900000000000002,3.0,65.5,16
1001,16915.0,6.1000000000000005,4.7,3.1,14.4,0.5,6.6000000000000005,48.70000000000001,-9.700000000000001,61.39999999999999,16
1002,16931.0,6.4,4.9,2.4000000000000004,15.0,0.7000000000000001,5.5,48.70000000000001,-9.700000000000001,61.39999999999999,16
1003,16948.0,7.0,4.7,1.5,15.5,0.4,5.0,69.7,-25.8,50.1,16
1004,16964.0,7.1000000000000005,4.0,1.2000000000000002,15.4,-0.2,4.800000000000001,81.0,-41.0,9.700000000000001,16
1005,16981.0,5.9,3.0,1.5,14.5,-1.0,5.1000000000000005,76.80000000000001,-37.0,-10.0,16
1006,16998.0,5.1000000000000005,2.5,1.7000000000000002,13.100000000000001,-1.4000000000000001,5.4,76.80000000000001,-37.0,-10.0,16
1007,17015.0,3.2,2.1,1.7000000000000002,11.600000000000001,-1.5,5.4,73.2,-14.100000000000001,-28.400000000000002,16
1008,17031.0,1.8,2.3000000000000003,1.4000000000000001,10.5,-1.2000000000000002,5.2,79.6,-9.0,-30.799999999999997,16
1009,17048.0,1.4000000000000001,2.4000000000000004,1.4000000000000001,10.0,-0.7000000000000001,5.0,79.6,-9.0,-30.799999999999997,16
1010,17066.0,0.8,2.7,0.7000000000000001,9.600000000000001,-0.2,4.4,93.49999999999999,-11.900000000000002,-34.60000000000001,16
1011,17083.0,0.1,2.7,-0.2,9.0,0.0,3.6,122.69999999999999,-30.4,-54.0,16
1012,17100.0,-0.7000000000000001,2.3000000000000003,-1.0,8.4,0.0,3.0,127.00000000000003,-37.400000000000006,-66.1,16
1013,17114.0,-1.0,1.9000000000000001,-1.2000000000000002,8.0,-0.4,2.6,127.00000000000003,-37.400000000000006,-66.1,16
1014,17131.0,-1.3,0.8,-1.5,7.9,-1.0,2.3000000000000003,118.2,-40.9,-84.9,16
1015,17148.0,-1.5,-0.1,-1.6,7.800000000000001,-1.4000000000000001,2.1,109.30000000000001,-39.2,-91.10000000000001,16
1016,17164.0,-1.6,-0.5,-1.7000000000000002,7.7,-1.6,1.8,109.30000000000001,-39.2,-91.10000000000001,16
1017,17181.0,-1.7000000000000002,-1.2000000000000002,-2.0,7.7,-1.9000000000000001,1.5,98.50000000000001,-38.2,-96.9,16
1018,17198.0,-1.9000000000000001,-2.1,-2.0,7.5,-2.3000000000000003,1.5,67.3,-36.8,-106.4,16
1019,17214.0,-2.2,-2.5,-1.9000000000000001,7.1000000000000005,-2.7,1.7000000000000002,67.3,-36.8,-106.4,16
1020,17232.0,-2.4000000000000004,-3.1,-1.4000000000000001,7.0,-2.8000000000000003,2.0,48.300000000000004,-31.400000000000002,-107.10000000000001,16
1021,17248.0,-2.5,-3.7,-1.0,7.0,-3.1,2.3000000000000003,18.4,-24.900000000000002,-103.7,16
1022,17264.0,-2.2,-4.6000000000000005,-0.6000000000000001,7.300000000000001,-3.7,2.6,9.0,-29.400000000000002,-99.9,16
1023,17281.0,-2.0,-5.2,-0.2,7.6000000000000005,-4.3,3.2,9.0,-29.400000000000002,-99.9,16
1024,17298.0,-1.5,-6.1000000000000005,0.8,8.0,-4.9,3.9000000000000004,-4.0,-37.300000000000004,-86.00000000000001,16
1025,17314.0,-1.3,-6.800000000000001,1.5,8.1,-5.4,4.3,-9.600000000000001,-34.7,-76.60000000000001,16
1026,17331.0,-1.1,-7.7,1.5,8.200000000000001,-6.0,4.2,-18.900000000000002,-29.500000000000004,-64.10000000000001,16
1027,17348.0,-1.2000000000000002,-8.0,1.5,8.0,-6.4,4.2,-18.900000000000002,-29.500000000000004,-64.10000000000001,16
1028,17364.0,-1.9000000000000001,-8.0,1.4000000000000001,7.4,-6.300000000000001,4.1000000000000005,-49.699999999999996,-9.100000000000001,-31.6,16
1029,17381.0,-1.7000000000000002,-8.0,1.2000000000000002,7.7,-6.4,4.0,-63.30000000000001,-4.9,-13.000000000000002,16
1030,17398.0,-1.3,-8.200000000000001,1.2000000000000002,8.200000000000001,-6.800000000000001,3.9000000000000004,-63.30000000000001,-4.9,-13.000000000000002,16
1031,17414.0,-0.9,-8.0,1.0,8.4,-6.6000000000000005,3.9000000000000004,-85.20000000000002,-1.1,25.6,16
1032,17431.0,-0.8,-7.2,1.3,8.6,-6.1000000000000005,4.3,-91.7,-1.6,44.5,16
1033,17448.0,-0.9,-6.6000000000000005,1.8,8.3,-5.2,5.2,-91.7,-1.6,44.5,16
1034,17464.0,-0.9,-5.0,2.7,8.700000000000001,-4.2,5.800000000000001,-92.39999999999999,1.9,62.900000000000006,16
1035,17481.0,0.2,-3.9000000000000004,3.1,9.9,-3.8000000000000003,6.1000000000000005,-67.60000000000001,-0.30000000000000004,92.0,16
1036,17498.0,2.0,-3.6,3.2,11.4,-3.9000000000000004,6.2,-45.5,-4.0,98.3,16
1037,17514.0,2.7,-3.6,3.0,12.4,-4.2,5.7,-45.5,-4.0,98.3,16
1038,17531.0,3.3000000000000003,-3.2,1.9000000000000001,12.600000000000001,-3.8000000000000003,4.5,-3.2,-7.9,103.7,16
1039,17548.0,2.8000000000000003,-1.8,0.30000000000000004,12.100000000000001,-2.9000000000000004,3.2,1.0,-9.0,101.20000000000002,16
1040,17564.0,2.3000000000000003,-1.1,-0.2,11.100000000000001,-2.0,2.4000000000000004,1.0,-9.0,101.20000000000002,16
1041,17581.0,1.1,0.30000000000000004,-0.7000000000000001,10.200000000000001,-1.0,2.2,-9.5,-2.8,96.1,16
1042,17598.0,0.5,1.7000000000000002,-0.6000000000000001,9.600000000000001,-0.1,2.5,-44.4,23.800000000000004,80.10000000000001,16
1043,17615.0,0.0,2.2,-0.4,9.600000000000001,-0.1,2.5,-52.5,38.2,69.00000000000001,16
1044,17633.0,-1.1,3.0,-0.5,7.800000000000001,1.0,2.6,-52.5,38.2,69.00000000000001,16
1045,17653.0,-1.7000000000000002,3.8000000000000003,-0.6000000000000001,7.2,1.4000000000000001,2.6,-42.1,43.4,50.400000000000006,16
1046,17668.0,-2.3000000000000003,4.1000000000000005,-1.2000000000000002,6.6000000000000005,1.5,2.0,-30.3,33.50000000000001,41.199999999999996,16
1047,17682.0,-2.4000000000000004,4.0,-1.9000000000000001,6.4,1.3,1.5,-22.5,20.8,32.9,16
1048,17698.0,-2.5,3.9000000000000004,-2.0,6.300000000000001,0.9,1.4000000000000001,-22.5,20.8,32.9,16
1049,17714.0,-2.5,3.3000000000000003,-1.8,6.300000000000001,0.4,1.6,-21.300000000000004,5.4,22.000000000000004,16
1050,17731.0,-2.3000000000000003,3.0,-1.6,6.7,-0.1,2.0,-25.7,7.500000000000001,20.7,16
1051,17748.0,-1.6,2.7,-1.0,7.300000000000001,-0.30000000000000004,2.4000000000000004,-25.7,7.500000000000001,20.7,16
1052,17765.0,-1.1,2.3000000000000003,-1.0,7.7,-0.8,2.3000000000000003,-36.5,17.5,14.200000000000001,16
1053,17781.0,-0.8,2.0,-1.1,7.9,-1.3,2.2,-36.5,17.5,14.200000000000001,16
1054,17798.0,-0.6000000000000001,1.5,-1.0,8.200000000000001,-1.8,2.6,-45.5,21.900000000000002,12.299999999999999,16
1055,17814.0,-0.1,1.0,-0.4,8.6,-2.3000000000000003,3.1,-53.2,23.0,13.100000000000001,16
1056,17831.0,0.6000000000000001,0.6000000000000001,0.2,9.200000000000001,-2.8000000000000003,3.6,-56.10000000000001,16.200000000000003,21.6,16
1057,17848.0,1.6,0.1,0.8,10.100000000000001,-3.4000000000000004,4.1000000000000005,-54.50000000000001,13.200000000000003,28.400000000000002,16
1058,17865.0,2.2,0.0,1.2000000000000002,11.4,-3.6,4.7,-54.50000000000001,13.200000000000003,28.400000000000002,16
1059,17881.0,4.4,0.2,1.8,13.3,-3.4000000000000004,5.300000000000001,-48.2,9.0,35.0,16
1060,17898.0,5.7,0.7000000000000001,3.0,14.100000000000001,-3.0,6.300000000000001,-41.6,12.5,29.600000000000005,16
1061,17914.0,5.4,1.1,3.2,13.3,-2.4000000000000004,6.300000000000001,-41.6,12.5,29.600000000000005,16
1062,17931.0,4.6000000000000005,1.8,2.2,13.200000000000001,-2.3000000000000003,5.300000000000001,-35.2,21.7,27.0,16
1063,17948.0,5.300000000000001,1.5,1.9000000000000001,13.700000000000001,-2.5,5.4,-40.1,21.7,32.7,16
1064,17966.0,5.1000000000000005,2.3000000000000003,2.7,13.5,-1.9000000000000001,6.1000000000000005,-41.800000000000004,26.000000000000004,40.2,16
1065,17981.0,5.2,3.0,3.2,13.600000000000001,-0.8,7.0,-41.800000000000004,26.000000000000004,40.2,16
1066,18000.0,5.800000000000001,4.6000000000000005,4.1000000000000005,14.200000000000001,0.4,7.7,-0.5,16.1,50.0,16
1067,18018.0,6.6000000000000005,5.7,3.8000000000000003,14.9,1.3,7.2,38.900000000000006,-2.3,41.800000000000004,16
1068,18038.0,7.0,5.6000000000000005,2.3000000000000003,15.3,1.3,6.0,72.30000000000001,-27.099999999999998,24.200000000000003,16
1069,18048.0,6.7,5.2,1.7000000000000002,14.700000000000001,0.6000000000000001,5.2,72.30000000000001,-27.099999999999998,24.200000000000003,16
1070,18064.0,5.4,4.0,1.2000000000000002,13.700000000000001,-0.2,4.800000000000001,97.00000000000001,-62.800000000000004,-12.200000000000001,16
1071,18081.0,4.3,2.8000000000000003,1.5,13.0,-1.1,5.1000000000000005,94.4,-64.80000000000001,-20.599999999999998,16
1072,18098.0,4.0,2.4000000000000004,1.9000000000000001,12.5,-1.5,5.6000000000000005,94.4,-64.80000000000001,-20.599999999999998,16
1073,18114.0,3.2,2.3000000000000003,2.2,11.8,-1.2000000000000002,5.7,92.60000000000001,-40.7,-28.0,16
1074,18132.0,2.0,2.8000000000000003,1.7000000000000002,10.8,-0.5,5.300000000000001,99.8,-31.2,-35.1,16
1075,18148.0,1.2000000000000002,3.0,1.3,9.600000000000001,0.0,4.5,99.8,-31.2,-35.1,16
1076,18167.0,-0.1,3.1,0.4,8.700000000000001,0.2,3.8000000000000003,109.8,-29.900000000000006,-44.10000000000001,16
1077,18181.0,-1.0,2.7,-0.4,8.200000000000001,0.2,3.1,125.50000000000001,-44.00000000000001,-63.599999999999994,16
1078,18198.0,-1.3,2.1,-0.9,8.0,0.0,2.7,127.5,-53.10000000000001,-73.30000000000001,16
1079,18214.0,-1.4000000000000001,1.6,-1.1,8.0,-0.6000000000000001,2.3000000000000003,127.5,-53.10000000000001,-73.30000000000001,16
1080,18236.0,-1.5,0.4,-1.2000000000000002,8.0,-1.2000000000000002,2.1,118.50000000000001,-67.9,-90.30000000000001,16
1081,18254.0,-1.5,-0.7000000000000001,-1.2000000000000002,8.1,-1.8,1.9000000000000001,106.5,-70.4,-96.20000000000002,16
1082,18265.0,-1.5,-1.3,-1.1,8.1,-2.4000000000000004,1.8,106.5,-70.4,-96.20000000000002,16
1083,18281.0,-1.5,-2.3000000000000003,-0.8,8.1,-2.9000000000000004,2.0,90.6,-70.8,-100.4,16
1084,18298.0,-1.8,-3.3000000000000003,-0.1,7.9,-3.4000000000000004,2.5,60.400000000000006,-71.39999999999999,-105.4,16
1085,18316.0,-2.4000000000000004,-4.0,0.8,7.4,-3.7,3.2,51.2,-67.5,-104.10000000000001,16
1086,18331.0,-2.9000000000000004,-4.1000000000000005,1.1,6.7,-3.6,3.3000000000000003,51.2,-67.5,-104.10000000000001,16
1087,18348.0,-3.2,-4.4,1.0,6.7,-3.7,3.0,36.7,-55.5,-92.60000000000001,16
1088,18364.0,-2.2,-5.2,1.1,7.6000000000000005,-4.3,3.0,23.700000000000003,-51.1,-87.10000000000001,16
1089,18382.0,-1.6,-5.9,1.2000000000000002,8.6,-5.2,3.2,23.700000000000003,-51.1,-87.10000000000001,16
1090,18401.0,-0.8,-7.0,1.5,9.0,-5.9,3.2,7.300000000000001,-41.7,-82.39999999999999,16
1091,18417.0,-0.5,-8.0,1.5,9.3,-6.5,3.2,-28.3,-19.700000000000003,-68.5,16
1092,18433.0,-0.6000000000000001,-8.4,1.7000000000000002,9.1,-6.800000000000001,3.3000000000000003,-47.1,-8.899999999999999,-58.0,16
1093,18449.0,-1.1,-8.200000000000001,1.7000000000000002,8.4,-6.6000000000000005,3.5,-47.1,-8.899999999999999,-58.0,16
1094,18468.0,-1.4000000000000001,-8.3,1.7000000000000002,8.3,-6.800000000000001,3.6,-79.1,10.0,-34.2,16
1095,18482.0,-0.8,-8.9,2.1,8.8,-7.4,4.0,-89.9,18.3,-20.900000000000002,16
1096,18499.0,-0.8,-9.1,2.0,8.6,-7.7,3.7,-89.9,18.3,-20.900000000000002,16
1097,18514.0,-1.4000000000000001,-8.8,1.2000000000000002,8.1,-7.300000000000001,3.3000000000000003,-97.2,29.400000000000002,-5.8,16
1098,18532.0,-1.9000000000000001,-7.6000000000000005,0.9,7.6000000000000005,-6.300000000000001,3.2,-102.10000000000001,32.0,35.2,16
1099,18548.0,-2.1,-6.800000000000001,0.9,7.6000000000000005,-5.4,3.5,-102.10000000000001,32.0,35.2,16
1100,18564.0,-1.1,-5.7,1.3,9.1,-5.1000000000000005,3.9000000000000004,-92.10000000000001,18.3,59.00000000000001,16
1101,18581.0,1.0,-5.300000000000001,1.5,10.9,-5.1000000000000005,3.9000000000000004,-51.9,-11.1,96.7,16
1102,18598.0,2.8000000000000003,-4.7,1.3,12.4,-4.9,3.6,-29.500000000000004,-17.7,106.70000000000002,16
1103,18615.0,3.5,-4.2,0.9,13.200000000000001,-4.2,2.8000000000000003,-29.500000000000004,-17.7,106.70000000000002,16
1104,18631.0,3.3000000000000003,-2.7,-0.4,12.600000000000001,-3.3000000000000003,1.6,-9.3,-15.5,99.2,16
1105,18648.0,1.5,-1.6,-1.6,10.9,-2.6,0.6000000000000001,-23.0,-7.500000000000001,92.2,16
1106,18664.0,0.6000000000000001,-1.1,-1.8,9.4,-2.1,0.5,-23.0,-7.500000000000001,92.2,16
1107,18681.0,-0.8,-0.1,-1.5,8.5,-1.6,1.0,-47.0,5.1000000000000005,90.1,16
1108,18698.0,-1.3,0.9,-0.7000000000000001,8.1,-1.0,1.8,-86.8,32.8,89.0,16
1109,18715.0,-1.4000000000000001,1.4000000000000001,-0.2,8.1,-1.0,1.8,-86.8,32.8,89.0,16
1110,18731.0,-1.6,2.4000000000000004,0.4,7.6000000000000005,0.2,2.8000000000000003,-88.8,42.400000000000006,85.4,16
1111,18748.0,-1.8,3.3000000000000003,0.1,7.300000000000001,0.7000000000000001,2.4000000000000004,-58.7,32.7,70.6,16
1112,18765.0,-2.1,3.7,-0.5,7.0,0.7000000000000001,1.9000000000000001,-41.1,15.399999999999999,61.39999999999999,16
1113,18788.0,-2.4000000000000004,3.5,-0.8,6.6000000000000005,0.5,1.7000000000000002,-29.500000000000004,2.2,55.400000000000006,16
1114,18798.0,-2.5,3.5,-0.8,6.5,0.30000000000000004,1.6,-29.500000000000004,2.2,55.400000000000006,16
1115,18814.0,-2.2,3.6,-0.8,6.800000000000001,0.2,1.5,-27.2,-1.5,49.199999999999996,16
1116,18831.0,-1.8,3.5,-1.0,7.0,0.0,1.4000000000000001,-35.9,0.8,44.2,16
1117,18848.0,-1.6,3.3000000000000003,-0.8,7.4,-0.6000000000000001,1.8,-35.9,0.8,44.2,16
1118,18864.0,-1.0,2.5,0.1,7.9,-1.3,2.6,-57.1,10.9,38.800000000000004,16
1119,18887.0,-0.2,2.1,1.0,8.6,-1.8,3.3000000000000003,-60.00000000000001,19.200000000000003,39.50000000000001,16
1120,18901.0,0.6000000000000001,1.7000000000000002,1.2000000000000002,9.200000000000001,-2.2,3.4000000000000004,-59.9,23.2,40.300000000000004,16
1121,18916.0,1.2000000000000002,1.5,1.2000000000000002,10.100000000000001,-2.8000000000000003,3.5,-59.9,23.2,40.300000000000004,16
1122,18931.0,2.4000000000000004,0.8,1.5,11.100000000000001,-3.5,3.9000000000000004,-56.400000000000006,20.599999999999998,46.6,16
1123,18948.0,3.7,0.4,2.1,12.200000000000001,-3.9000000000000004,4.3,-50.7,17.0,51.9,16
1124,18964.0,4.3,0.30000000000000004,2.1,13.100000000000001,-4.2,4.4,-50.7,17.0,51.9,16
1125,18981.0,5.2,0.4,2.5,13.600000000000001,-4.1000000000000005,5.0,-40.4,6.8,61.8,16
1126,18998.0,5.6000000000000005,1.4000000000000001,3.4000000000000004,14.0,-3.5,5.6000000000000005,-33.800000000000004,8.4,64.2,16
1127,19015.0,6.300000000000001,1.5,3.4000000000000004,15.3,-3.7,5.7,-33.800000000000004,8.4,64.2,16
1128,19031.0,7.6000000000000005,1.1,3.9000000000000004,15.9,-3.9000000000000004,6.5,-26.6,5.1000000000000005,62.900000000000006,16
1129,19048.0,7.6000000000000005,1.8,5.0,15.700000000000001,-3.3000000000000003,7.4,-1.3,10.1,64.2,16
1130,19065.0,7.4,2.5,5.4,15.700000000000001,-3.3000000000000003,7.4,-1.3,10.1,64.2,16
1131,19081.0,7.300000000000001,4.6000000000000005,5.2,15.600000000000001,-0.1,7.4,29.400000000000002,10.9,67.9,16
1132,19098.0,8.3,6.4,4.0,16.6,1.1,6.4,102.7,-8.2,44.7,16
1133,19114.0,9.0,6.5,2.3000000000000003,17.1,1.0,5.0,127.1,-25.6,6.2,16
1134,19131.0,8.6,5.6000000000000005,1.4000000000000001,16.0,-0.7000000000000001,3.9000000000000004,127.1,-25.6,6.2,16
1135,19148.0,6.5,3.2,0.5,14.3,-2.1,3.5,135.0,-37.7,-31.099999999999998,16
1136,19164.0,4.4,1.8,0.0,12.700000000000001,-2.8000000000000003,3.2,118.40000000000002,-32.0,-60.8,16
1137,19181.0,3.0,1.5,-0.30000000000000004,12.700000000000001,-2.8000000000000003,3.2,103.8,-26.400000000000006,-63.70000000000001,16
1138,19198.0,2.6,1.6,-0.2,11.200000000000001,-2.3000000000000003,3.4000000000000004,103.8,-26.400000000000006,-63.70000000000001,16
1139,19214.0,2.0,1.9000000000000001,0.6000000000000001,10.700000000000001,-1.8,4.0,86.4,-12.8,-75.2,16
1140,19231.0,1.6,2.0,0.7000000000000001,10.700000000000001,-1.8,4.0,86.4,-12.8,-75.2,16
1141,19248.0,0.5,1.9000000000000001,0.5,9.200000000000001,-1.2000000000000002,3.8000000000000003,89.70000000000002,-6.4,-85.60000000000001,16
1142,19264.0,-0.5,1.6,0.0,8.6,-1.1,3.5,96.60000000000001,-6.1000000000000005,-94.80000000000001,16
1143,19281.0,-1.1,1.1,-0.5,8.200000000000001,-1.2000000000000002,3.0,108.3,-15.700000000000001,-108.60000000000001,16
1144,19299.0,-1.3,0.4,-0.9,8.1,-1.4000000000000001,2.7,109.10000000000001,-22.000000000000004,-114.9,16
1145,19314.0,-1.4000000000000001,-0.1,-0.9,8.1,-1.8,2.6,109.10000000000001,-22.000000000000004,-114.9,16
1146,19331.0,-1.5,-1.1,-1.0,8.1,-2.2,2.6,102.5,-29.700000000000006,-127.6,16
