,ms,accelX,accelY,accelZ,accelWithGX,accelWithGY,accelWithGZ,rotRateAlpha,rotRateBeta,rotRateGamma,interval
0,160.0,0.2,0.1,0.1,-0.4,2.3000000000000003,9.600000000000001,-3.8,-10.4,2.2,16
1,176.0,0.30000000000000004,0.2,0.2,-0.1,2.5,9.700000000000001,2.8,0.7,0.4,16
2,192.0,0.2,0.1,0.0,-0.2,2.3000000000000003,9.5,2.8,0.7,0.4,16
3,209.0,-0.1,-0.1,-0.1,-0.5,2.2,9.4,1.6,0.9000000000000001,-2.5,16
4,227.0,-0.1,-0.2,0.0,-0.5,2.1,9.5,1.6,-0.1,-1.8000000000000003,16
5,247.0,-0.1,-0.1,-0.1,-0.5,2.1,9.4,1.2000000000000002,0.2,-0.2,16
6,259.0,-0.1,-0.1,-0.1,-0.5,2.1,9.5,1.1,-1.9,0.6000000000000001,16
7,276.0,0.1,-0.1,0.4,-0.4,2.1,9.9,3.6000000000000005,-0.4,-0.2,16
8,292.0,0.0,-0.2,0.0,-0.4,2.1,9.600000000000001,5.6,2.3,-0.6000000000000001,16
9,309.0,-0.1,-0.2,-0.1,-0.6000000000000001,2.1,9.4,5.500000000000001,0.7,0.2,16
10,334.0,0.0,-0.2,-0.1,-0.4,2.1,9.3,4.2,-0.9000000000000001,1.0,16
11,342.0,0.0,-0.2,-0.2,-0.4,2.1,9.3,2.1,-1.3,1.8000000000000003,16
12,359.0,0.0,-0.2,-0.30000000000000004,-0.4,2.0,9.3,2.1,-1.3,1.8000000000000003,16
13,377.0,0.0,-0.2,0.1,-0.4,1.9000000000000001,9.700000000000001,1.0,-5.1000000000000005,3.2,16
14,392.0,0.2,-0.2,0.30000000000000004,-0.2,1.9000000000000001,9.8,2.9,-2.9,4.5,16
15,409.0,0.2,-0.2,0.2,-0.2,2.0,9.700000000000001,2.9,-2.9,4.5,16
16,462.0,0.30000000000000004,0.0,-0.2,0.1,2.2,9.4,5.6,-2.8,5.500000000000001,16
17,476.0,0.4,0.0,-0.1,0.2,2.2,9.4,4.6,-5.300000000000001,4.5,16
18,496.0,0.30000000000000004,-0.1,0.0,0.1,2.2,9.5,3.3000000000000007,-6.0,4.2,16
19,509.0,0.4,-0.1,0.0,0.2,2.2,9.5,2.5,-5.9,4.4,16
20,526.0,0.5,-0.1,0.1,0.30000000000000004,2.2,9.600000000000001,2.6,-4.300000000000001,4.0,16
21,543.0,0.30000000000000004,-0.1,-0.30000000000000004,0.30000000000000004,2.2,9.3,2.3,-4.0,3.9,16
22,559.0,0.30000000000000004,0.0,-0.30000000000000004,0.30000000000000004,2.2,9.200000000000001,2.0,-6.699999999999999,4.2,16
23,579.0,0.30000000000000004,0.0,-0.1,0.30000000000000004,2.2,9.4,2.2,-7.9,3.9,16
24,592.0,0.30000000000000004,0.0,-0.1,0.30000000000000004,2.2,9.3,2.5,-7.200000000000001,4.0,16
25,609.0,0.2,0.0,-0.2,0.2,2.3000000000000003,9.3,2.3,-6.500000000000001,3.7000000000000006,16
26,626.0,0.2,0.0,-0.2,0.30000000000000004,2.2,9.3,0.6000000000000001,-6.4,4.0,16
27,642.0,0.1,0.0,0.1,0.2,2.3000000000000003,9.5,-1.2000000000000002,-8.600000000000001,5.300000000000001,16
28,659.0,0.2,0.1,0.30000000000000004,0.4,2.4000000000000004,9.9,-1.2000000000000002,-8.600000000000001,5.300000000000001,16
29,679.0,0.30000000000000004,0.1,0.6000000000000001,0.5,2.4000000000000004,10.100000000000001,1.2000000000000002,-9.4,5.300000000000001,16
30,692.0,0.30000000000000004,0.1,0.6000000000000001,0.5,2.4000000000000004,10.100000000000001,3.7000000000000006,-7.300000000000001,4.7,16
31,710.0,0.2,0.0,0.2,0.5,2.3000000000000003,9.8,5.500000000000001,-3.7000000000000006,4.5,16
32,727.0,0.2,0.0,-0.2,0.5,2.4000000000000004,9.200000000000001,5.500000000000001,-1.8000000000000003,4.800000000000001,16
33,744.0,0.2,0.1,-0.7000000000000001,0.5,2.4000000000000004,8.8,4.0,-2.9,3.8,16
34,759.0,0.1,0.1,-0.7000000000000001,0.4,2.5,8.8,2.0,-4.4,2.1,16
35,775.0,0.0,0.0,-0.6000000000000001,0.30000000000000004,2.4000000000000004,8.8,2.0,-4.4,2.1,16
36,792.0,0.0,0.0,-0.4,0.30000000000000004,2.4000000000000004,9.1,-1.1,-7.300000000000001,0.4,16
37,809.0,-0.1,-0.1,-0.1,0.30000000000000004,2.3000000000000003,9.3,-1.5,-7.0,0.1,16
38,825.0,0.0,-0.1,0.0,0.30000000000000004,2.3000000000000003,9.3,-1.6,-6.300000000000001,0.7,16
39,842.0,0.0,0.0,0.0,0.4,2.3000000000000003,9.4,-1.4,-6.300000000000001,0.5,16
40,859.0,0.0,0.0,0.0,0.4,2.3000000000000003,9.4,-1.4,-6.1000000000000005,0.1,16
41,875.0,-0.1,0.0,0.30000000000000004,0.30000000000000004,2.3000000000000003,9.600000000000001,-1.3,-6.2,0.5,16
42,892.0,-0.1,0.0,0.30000000000000004,0.30000000000000004,2.3000000000000003,9.700000000000001,-1.3,-6.2,0.5,16
43,909.0,-0.1,0.0,0.30000000000000004,0.30000000000000004,2.3000000000000003,9.700000000000001,1.6,-5.300000000000001,2.3,16
44,925.0,-0.1,0.0,0.2,0.4,2.3000000000000003,9.700000000000001,3.6000000000000005,-6.0,3.7000000000000006,16
45,942.0,0.0,0.1,0.1,0.5,2.4000000000000004,9.5,5.300000000000001,-6.9,4.6,16
46,959.0,0.2,0.30000000000000004,0.1,0.8,2.7,9.5,6.4,-7.6,4.0,16
47,976.0,0.30000000000000004,0.30000000000000004,0.0,0.8,2.7,9.4,6.9,-7.9,0.0,16
48,994.0,0.0,0.0,-0.2,0.6000000000000001,2.5,9.200000000000001,6.2,-8.4,-0.6000000000000001,16
49,1013.0,0.2,0.1,-0.1,0.8,2.5,9.200000000000001,4.5,-9.2,2.8,16
50,1033.0,0.4,0.30000000000000004,-0.1,1.2000000000000002,2.8000000000000003,9.3,3.4,-9.600000000000001,4.0,16
51,1043.0,0.5,0.30000000000000004,-0.1,1.2000000000000002,2.8000000000000003,9.3,3.6000000000000005,-9.899999999999999,2.8,16
52,1060.0,0.5,0.30000000000000004,-0.1,1.2000000000000002,2.8000000000000003,9.3,3.6000000000000005,-9.899999999999999,2.8,16
53,1078.0,0.4,0.30000000000000004,-0.1,1.2000000000000002,2.8000000000000003,9.3,3.4,-8.5,-0.30000000000000004,16
54,1092.0,0.4,0.30000000000000004,-0.1,1.2000000000000002,2.8000000000000003,9.3,2.2,-7.699999999999999,-1.6,16
55,1109.0,0.4,0.30000000000000004,-0.1,1.2000000000000002,2.8000000000000003,9.200000000000001,0.30000000000000004,-6.2,-3.0,16
56,1126.0,0.30000000000000004,0.2,-0.1,1.2000000000000002,2.8000000000000003,9.3,-1.8000000000000003,-3.8,-3.4,16
57,1143.0,0.1,0.2,-0.2,1.0,2.8000000000000003,9.1,-3.7000000000000006,-0.5,-3.1,16
58,1159.0,0.0,0.30000000000000004,-0.6000000000000001,0.9,2.9000000000000004,8.8,-6.1000000000000005,0.2,-2.4000000000000004,16
59,1179.0,0.0,0.4,-0.6000000000000001,0.9,3.0,8.700000000000001,-6.1000000000000005,0.2,-2.4000000000000004,16
60,1192.0,-0.1,0.4,-0.5,0.8,3.0,8.8,-9.5,-1.9,-3.1,16
61,1212.0,-0.30000000000000004,0.4,-0.4,0.6000000000000001,3.0,8.9,-9.899999999999999,-2.3,-2.9,16
62,1226.0,-0.4,0.4,-0.4,0.5,2.9000000000000004,8.9,-10.200000000000001,-1.4,-2.2,16
63,1242.0,-0.4,0.30000000000000004,-0.4,0.4,2.8000000000000003,8.9,-10.299999999999999,-1.0,-0.7,16
64,1260.0,-0.5,0.2,-0.1,0.30000000000000004,2.8000000000000003,9.200000000000001,-9.0,-0.5,2.6,16
65,1275.0,-0.30000000000000004,0.30000000000000004,0.1,0.5,2.8000000000000003,9.3,-6.2,0.8,5.9,16
66,1292.0,-0.1,0.6000000000000001,-0.1,0.7000000000000001,3.1,9.200000000000001,-3.3000000000000007,1.2000000000000002,7.400000000000001,16
67,1310.0,0.0,0.6000000000000001,-0.2,0.8,3.2,9.0,-2.0,0.9000000000000001,6.699999999999999,16
68,1325.0,-0.1,0.6000000000000001,-0.2,0.7000000000000001,3.1,9.1,-3.1,1.2000000000000002,5.7,16
69,1342.0,-0.1,0.5,0.0,0.6000000000000001,3.0,9.4,-3.1,1.2000000000000002,5.7,16
70,1359.0,-0.2,0.30000000000000004,0.2,0.6000000000000001,2.9000000000000004,9.5,-5.8,7.0,7.699999999999999,16
71,1376.0,-0.1,0.30000000000000004,0.2,0.6000000000000001,2.9000000000000004,9.5,-4.9,7.8,9.3,16
72,1392.0,-0.1,0.2,0.4,0.7000000000000001,2.8000000000000003,9.700000000000001,-2.0,7.6,11.5,16
73,1409.0,0.1,0.30000000000000004,0.30000000000000004,0.8,2.9000000000000004,9.700000000000001,2.5,8.3,13.3,16
74,1425.0,0.30000000000000004,0.4,0.2,1.0,3.0,9.5,6.2,9.2,13.200000000000003,16
75,1444.0,0.4,0.4,0.0,1.1,3.1,9.3,7.1000000000000005,10.5,12.200000000000001,16
76,1459.0,0.4,0.30000000000000004,-0.30000000000000004,1.1,3.0,9.0,6.0,10.299999999999999,11.4,16
77,1476.0,0.4,0.30000000000000004,-0.2,1.1,3.0,9.200000000000001,4.6,9.2,11.2,16
78,1492.0,0.4,0.2,0.2,1.1,3.0,9.5,4.300000000000001,11.2,10.9,16
79,1509.0,0.5,0.2,-0.2,1.2000000000000002,3.0,9.200000000000001,4.300000000000001,13.5,9.5,16
80,1527.0,0.4,0.1,-0.4,1.1,2.9000000000000004,8.9,2.6,11.5,7.400000000000001,16
81,1542.0,0.30000000000000004,0.1,-0.4,1.0,2.8000000000000003,8.9,-1.5,8.100000000000001,5.8,16
82,1560.0,0.1,0.0,0.0,0.9,2.7,9.3,-6.1000000000000005,3.1,5.2,16
83,1578.0,0.0,-0.2,1.1,0.7000000000000001,2.6,10.200000000000001,-9.0,-1.7,5.8,16
84,1595.0,-0.1,-0.30000000000000004,2.0,0.6000000000000001,2.5,11.100000000000001,-8.2,-3.2,7.9,16
85,1609.0,-0.2,-0.30000000000000004,2.3000000000000003,0.6000000000000001,2.4000000000000004,11.700000000000001,-3.0,0.6000000000000001,10.4,16
86,1626.0,-0.2,-0.30000000000000004,2.1,0.6000000000000001,2.4000000000000004,11.600000000000001,4.300000000000001,9.3,11.700000000000001,16
87,1642.0,-0.2,-0.4,1.5,0.4,2.2,10.5,4.300000000000001,9.3,11.700000000000001,16
88,1660.0,-0.5,-0.6000000000000001,0.1,0.2,2.2,9.4,11.900000000000002,13.6,14.300000000000002,16
89,1676.0,-0.5,-0.4,-0.30000000000000004,0.2,2.4000000000000004,9.1,9.700000000000001,5.1000000000000005,16.1,16
90,1694.0,-0.2,-0.30000000000000004,0.5,0.4,2.4000000000000004,9.8,7.0,-0.7,16.700000000000003,16
91,1710.0,-0.2,-0.30000000000000004,0.9,0.5,2.4000000000000004,10.4,6.699999999999999,0.2,15.8,16
92,1726.0,-0.2,-0.4,1.0,0.5,2.4000000000000004,10.4,7.9,4.9,15.299999999999999,16
93,1743.0,-0.30000000000000004,-0.6000000000000001,0.6000000000000001,0.4,2.2,10.0,9.5,9.3,15.700000000000001,16
94,1759.0,-0.5,-0.8,-0.1,0.2,2.1,9.5,11.8,12.9,17.200000000000003,16
95,1777.0,-0.6000000000000001,-0.8,-0.6000000000000001,0.0,2.0,8.700000000000001,14.600000000000001,14.300000000000002,19.6,16
96,1794.0,-0.6000000000000001,-0.9,-1.5,-0.1,2.0,7.9,16.6,12.200000000000001,22.000000000000004,16
97,1809.0,-0.7000000000000001,-0.8,-1.9000000000000001,-0.1,2.1,7.5,17.400000000000002,6.2,23.400000000000002,16
98,1827.0,-0.7000000000000001,-0.8,-1.9000000000000001,0.0,2.2,7.5,16.700000000000003,-1.7,24.5,16
99,1848.0,-0.30000000000000004,-0.6000000000000001,-1.3,0.5,2.5,8.3,14.300000000000002,-9.5,24.599999999999998,16
100,1859.0,-0.1,-0.4,-0.9,0.5,2.5,8.3,9.700000000000001,-14.0,23.6,16
101,1876.0,0.1,-0.1,-0.1,0.8,2.8000000000000003,9.0,4.300000000000001,-14.600000000000001,20.900000000000002,16
102,1893.0,0.2,-0.1,0.1,1.0,2.9000000000000004,9.4,0.8,-12.200000000000001,15.6,16
103,1909.0,-0.1,0.0,0.5,0.7000000000000001,3.0,9.8,-1.2000000000000002,-12.4,9.899999999999999,16
104,1925.0,-0.5,0.0,1.1,0.4,2.9000000000000004,10.3,-1.8000000000000003,-12.100000000000001,5.500000000000001,16
105,1942.0,-0.6000000000000001,-0.1,1.2000000000000002,0.30000000000000004,2.9000000000000004,10.5,-1.1,-9.8,1.8000000000000003,16
106,1959.0,-0.8,-0.1,1.3,0.1,2.8000000000000003,10.600000000000001,-0.2,-4.7,-0.8,16
107,1975.0,-1.0,-0.2,0.9,-0.1,2.8000000000000003,10.3,0.4,2.1,-2.1,16
108,1992.0,-1.0,-0.2,0.4,-0.2,2.7,9.5,0.4,2.1,-2.1,16
109,2009.0,-1.2000000000000002,-0.30000000000000004,-0.30000000000000004,-0.4,2.7,9.0,-0.6000000000000001,1.7,-2.6,16
110,2025.0,-1.3,-0.30000000000000004,-0.2,-0.4,2.7,9.1,-0.4,-1.5,-1.3,16
111,2043.0,-1.2000000000000002,-0.4,0.0,-0.30000000000000004,2.6,9.3,0.9000000000000001,-2.0,0.7,16
112,2063.0,-0.9,-0.30000000000000004,-0.1,-0.2,2.7,9.3,2.7,0.4,3.3000000000000007,16
113,2077.0,-0.8,-0.2,-0.2,0.0,2.8000000000000003,9.1,3.6000000000000005,2.2,4.7,16
114,2093.0,-0.7000000000000001,-0.1,-0.5,0.1,2.9000000000000004,8.8,3.3000000000000007,3.1,4.5,16
115,2111.0,-0.7000000000000001,0.0,-0.6000000000000001,0.1,3.0,8.700000000000001,1.8000000000000003,2.9,4.0,16
116,2127.0,-0.8,0.0,-0.6000000000000001,0.0,3.0,8.700000000000001,-0.4,0.8,4.2,16
117,2144.0,-0.8,-0.1,-0.4,0.0,2.9000000000000004,8.9,-2.6,-0.6000000000000001,5.6,16
118,2161.0,-0.7000000000000001,0.0,-0.1,0.1,3.0,9.1,-3.5,0.4,6.500000000000001,16
119,2176.0,-0.7000000000000001,0.1,-0.1,0.1,3.1,9.200000000000001,-2.7,4.6,7.1000000000000005,16
120,2192.0,-0.6000000000000001,0.2,-0.2,0.1,3.1,9.0,-1.4,8.8,7.6,16
121,2210.0,-0.7000000000000001,0.2,-0.5,0.0,3.2,8.8,-0.30000000000000004,11.3,7.9,16
122,2227.0,-1.0,0.0,-0.6000000000000001,-0.2,3.0,8.700000000000001,0.5,12.5,10.5,16
123,2242.0,-0.7000000000000001,0.1,-0.8,0.0,3.1,8.4,0.8,14.0,14.100000000000001,16
124,2259.0,-0.7000000000000001,0.5,-1.1,-0.1,3.4000000000000004,8.1,-0.5,11.4,13.8,16
125,2276.0,-0.6000000000000001,0.7000000000000001,-1.1,0.0,3.7,8.0,-2.6,5.0,10.299999999999999,16
126,2292.0,-0.6000000000000001,0.6000000000000001,-0.8,-0.1,3.6,8.5,-4.5,-1.3,5.6,16
127,2309.0,-0.7000000000000001,0.4,-0.2,-0.2,3.4000000000000004,8.9,-5.4,-0.1,3.7000000000000006,16
128,2326.0,-0.9,0.2,0.0,-0.4,3.2,9.1,-6.500000000000001,5.4,4.2,16
129,2342.0,-1.0,0.1,-0.1,-0.7000000000000001,3.1,9.0,-6.500000000000001,5.4,4.2,16
130,2359.0,-1.1,0.1,-0.30000000000000004,-0.8,3.1,8.9,-11.6,12.9,9.5,16
131,2376.0,-1.1,0.30000000000000004,-0.1,-0.8,3.2,9.0,-15.2,9.3,12.600000000000001,16
132,2392.0,-0.9,0.30000000000000004,0.1,-0.6000000000000001,3.2,9.5,-15.2,9.3,12.600000000000001,16
133,2410.0,-0.5,0.2,1.0,-0.2,3.1,10.4,-17.200000000000003,-7.300000000000001,15.100000000000001,16
134,2425.0,0.1,0.2,2.3000000000000003,0.4,3.0,11.600000000000001,-13.3,-10.5,15.700000000000001,16
135,2442.0,0.6000000000000001,0.2,3.1,0.8,3.0,12.3,-6.600000000000001,-6.1000000000000005,15.2,16
136,2459.0,0.9,0.1,2.6,1.1,2.9000000000000004,12.100000000000001,0.9000000000000001,3.6000000000000005,13.000000000000002,16
137,2476.0,1.0,0.0,1.9000000000000001,1.2000000000000002,2.9000000000000004,11.100000000000001,5.0,9.0,9.4,16
138,2492.0,0.9,-0.1,0.8,1.2000000000000002,2.8000000000000003,10.200000000000001,4.1,6.1000000000000005,6.300000000000001,16
139,2509.0,0.9,-0.1,0.8,1.2000000000000002,2.7,10.0,-1.0,-1.6,4.0,16
140,2526.0,1.1,-0.2,1.3,1.5,2.6,10.700000000000001,-6.4,-5.6,0.9000000000000001,16
141,2542.0,1.2000000000000002,-0.4,2.1,1.5,2.3000000000000003,11.4,-7.500000000000001,-1.3,-2.7,16
142,2559.0,0.9,-0.8,2.1,1.3,2.0,11.5,-3.8,6.2,-4.7,16
143,2576.0,0.8,-1.0,1.9000000000000001,1.0,1.7000000000000002,11.0,4.6,14.400000000000002,-3.8,16
144,2592.0,0.6000000000000001,-1.3,0.7000000000000001,0.8,1.6,9.9,14.100000000000001,17.0,-0.8,16
145,2609.0,0.7000000000000001,-1.3,-0.30000000000000004,0.9,1.5,9.0,21.7,11.4,1.9,16
146,2625.0,1.0,-1.4000000000000001,-0.7000000000000001,1.2000000000000002,1.5,8.700000000000001,26.5,1.1,4.7,16
147,2642.0,1.3,-1.4000000000000001,-0.7000000000000001,1.7000000000000002,1.7000000000000002,8.6,28.1,-9.100000000000001,5.7,16
148,2659.0,1.8,-1.1,-0.2,2.1,2.0,9.1,26.6,-17.0,2.9,16
149,2675.0,2.1,-1.0,0.4,2.5,2.2,9.600000000000001,22.9,-17.0,-2.4000000000000004,16
150,2692.0,2.3000000000000003,-0.9,0.5,2.6,2.3000000000000003,9.700000000000001,17.200000000000003,-9.899999999999999,-10.299999999999999,16
151,2709.0,2.0,-0.9,0.4,2.4000000000000004,2.2,9.600000000000001,9.600000000000001,-0.9000000000000001,-19.6,16
152,2725.0,1.5,-1.3,-0.1,1.9000000000000001,1.9000000000000001,9.200000000000001,1.5,7.300000000000001,-25.8,16
153,2743.0,1.1,-1.4000000000000001,-0.4,1.3,1.7000000000000002,8.700000000000001,-5.2,10.299999999999999,-27.6,16
154,2760.0,0.6000000000000001,-1.4000000000000001,-0.6000000000000001,0.9,1.7000000000000002,8.6,-8.100000000000001,8.3,-26.200000000000003,16
155,2777.0,0.4,-1.5,-0.5,0.6000000000000001,1.6,8.700000000000001,-6.2,7.6,-22.9,16
156,2792.0,0.30000000000000004,-1.4000000000000001,-0.7000000000000001,0.5,1.7000000000000002,8.6,-1.7,7.200000000000001,-19.0,16
157,2809.0,0.30000000000000004,-1.1,-1.2000000000000002,0.5,1.9000000000000001,8.200000000000001,2.5,5.500000000000001,-15.000000000000002,16
158,2825.0,0.30000000000000004,-1.0,-1.3,0.5,2.2,7.9,4.300000000000001,0.2,-11.3,16
159,2843.0,0.4,-0.6000000000000001,-1.2000000000000002,0.5,2.5,8.0,3.3000000000000007,-5.2,-8.2,16
160,2862.0,0.6000000000000001,-0.30000000000000004,-0.8,0.7000000000000001,2.8000000000000003,8.3,0.8,-7.400000000000001,-6.9,16
161,2878.0,0.7000000000000001,-0.2,-0.6000000000000001,0.9,2.9000000000000004,8.5,-2.4000000000000004,-3.9,-8.3,16
162,2895.0,0.6000000000000001,-0.2,-0.7000000000000001,0.8,2.8000000000000003,8.4,-5.9,0.8,-9.100000000000001,16
163,2909.0,0.2,-0.30000000000000004,-0.9,0.5,2.8000000000000003,8.3,-8.899999999999999,1.8000000000000003,-8.100000000000001,16
164,2926.0,0.2,-0.30000000000000004,-0.8,0.4,2.8000000000000003,8.4,-10.600000000000001,-0.6000000000000001,-5.9,16
165,2943.0,0.30000000000000004,-0.2,-0.5,0.5,2.8000000000000003,8.700000000000001,-10.8,-3.6000000000000005,-3.3000000000000007,16
166,2959.0,0.30000000000000004,0.0,0.2,0.5,2.9000000000000004,9.3,-8.8,-3.5,-1.6,16
167,2975.0,0.30000000000000004,0.0,0.2,0.6000000000000001,2.9000000000000004,9.4,-5.1000000000000005,1.1,-0.7,16
168,2992.0,0.2,0.0,0.0,0.4,3.0,9.1,-2.6,3.9,0.6000000000000001,16
169,3009.0,0.1,0.0,-0.30000000000000004,0.30000000000000004,2.9000000000000004,8.9,-2.3,4.2,2.9,16
170,3025.0,-0.1,0.0,-0.2,0.2,2.9000000000000004,9.0,-3.2,3.0,5.8,16
171,3042.0,0.0,0.0,-0.1,0.2,2.9000000000000004,9.200000000000001,-3.7000000000000006,2.9,9.0,16
172,3061.0,0.1,0.0,0.2,0.30000000000000004,2.9000000000000004,9.4,-3.1,4.800000000000001,10.700000000000001,16
173,3078.0,0.2,0.0,0.30000000000000004,0.4,2.9000000000000004,9.5,-1.8000000000000003,5.7,12.200000000000001,16
174,3097.0,0.2,0.0,0.5,0.4,2.9000000000000004,9.600000000000001,-0.2,4.9,14.0,16
175,3109.0,0.2,0.0,0.5,0.4,2.9000000000000004,9.8,2.0,3.2,16.200000000000003,16
176,3126.0,0.30000000000000004,0.1,0.8,0.5,3.0,10.0,4.5,2.8,17.9,16
177,3142.0,0.4,0.1,0.8,0.6000000000000001,3.0,10.0,6.4,4.7,18.8,16
178,3159.0,0.6000000000000001,0.1,0.6000000000000001,0.8,3.1,9.8,6.1000000000000005,7.0,18.3,16
179,3176.0,0.7000000000000001,0.4,0.30000000000000004,1.0,3.4000000000000004,9.5,2.4000000000000004,7.200000000000001,15.2,16
180,3194.0,0.5,0.5,0.2,0.8,3.4000000000000004,9.4,-4.0,3.4,10.700000000000001,16
181,3209.0,0.1,0.30000000000000004,0.8,0.5,3.3000000000000003,9.9,-10.700000000000001,-4.4,6.699999999999999,16
182,3225.0,-0.1,0.1,1.4000000000000001,0.2,3.0,11.0,-14.5,-10.9,6.300000000000001,16
183,3242.0,-0.4,-0.2,2.6,0.0,2.7,12.0,-13.6,-10.9,9.5,16
184,3259.0,-0.4,-0.30000000000000004,3.1,0.0,2.6,12.5,-8.0,-6.300000000000001,13.5,16
185,3277.0,-0.30000000000000004,-0.4,3.0,0.2,2.5,12.3,0.8,0.9000000000000001,16.8,16
186,3292.0,-0.2,-0.4,2.2,0.30000000000000004,2.5,11.600000000000001,9.5,6.9,18.700000000000003,16
187,3309.0,-0.30000000000000004,-0.5,0.9,0.1,2.5,10.5,15.899999999999999,11.4,20.0,16
188,3326.0,-0.30000000000000004,-0.7000000000000001,0.30000000000000004,0.0,2.2,9.3,15.899999999999999,11.4,20.0,16
189,3343.0,-0.5,-0.9,-1.0,-0.2,2.1,8.3,19.700000000000003,14.900000000000002,22.6,16
190,3360.0,-0.8,-1.1,-1.7000000000000002,-0.5,1.9000000000000001,7.7,17.7,8.600000000000001,26.200000000000003,16
191,3378.0,-0.7000000000000001,-1.2000000000000002,-1.7000000000000002,-0.4,1.9000000000000001,7.6000000000000005,15.100000000000001,-2.6,30.9,16
192,3394.0,-0.5,-1.1,-1.3,0.1,2.1,8.200000000000001,13.399999999999999,-13.5,34.0,16
193,3409.0,0.0,-0.9,-0.2,0.6000000000000001,2.3000000000000003,9.200000000000001,12.7,-18.4,33.9,16
194,3426.0,0.5,-0.7000000000000001,0.6000000000000001,1.1,2.4000000000000004,9.8,12.4,-18.4,30.9,16
195,3442.0,0.6000000000000001,-0.6000000000000001,0.8,1.4000000000000001,2.6,10.200000000000001,12.4,-18.4,30.9,16
196,3460.0,0.8,-0.4,1.4000000000000001,1.5,2.8000000000000003,10.700000000000001,9.0,-15.100000000000001,17.0,16
197,3476.0,0.6000000000000001,-0.5,1.9000000000000001,1.4000000000000001,2.7,11.200000000000001,6.500000000000001,-4.5,8.5,16
198,3492.0,0.30000000000000004,-0.9,1.4000000000000001,1.1,2.4000000000000004,10.8,5.6,11.3,0.5,16
199,3510.0,0.0,-1.2000000000000002,0.7000000000000001,0.6000000000000001,2.0,9.700000000000001,6.500000000000001,22.9,-4.1,16
200,3529.0,-0.30000000000000004,-1.4000000000000001,-0.5,0.30000000000000004,1.9000000000000001,8.700000000000001,7.9,21.8,-5.1000000000000005,16
201,3542.0,-0.5,-1.3,-1.1,0.1,2.0,8.3,8.600000000000001,13.100000000000001,-5.0,16
202,3560.0,-0.5,-1.3,-0.7000000000000001,0.0,2.0,8.5,8.700000000000001,4.300000000000001,-3.3000000000000007,16
203,3576.0,-0.4,-1.3,-0.4,0.1,2.0,8.8,8.700000000000001,3.5,-3.8,16
204,3594.0,-0.2,-0.9,-0.5,0.30000000000000004,2.4000000000000004,8.700000000000001,7.500000000000001,7.6,-7.1000000000000005,16
205,3609.0,-0.1,-0.7000000000000001,-1.2000000000000002,0.4,2.6,8.200000000000001,4.1,10.1,-13.200000000000003,16
206,3626.0,-0.1,-0.6000000000000001,-1.4000000000000001,0.30000000000000004,2.7,7.800000000000001,-0.5,9.5,-18.5,16
207,3642.0,-0.30000000000000004,-0.7000000000000001,-1.4000000000000001,0.0,2.6,7.800000000000001,-5.6,8.4,-21.7,16
208,3659.0,-0.1,-1.0,-1.1,0.1,2.3000000000000003,8.1,-10.200000000000001,10.0,-22.1,16
209,3677.0,-0.6000000000000001,-0.7000000000000001,-0.8,-0.2,2.4000000000000004,8.4,-12.8,16.1,-23.6,16
210,3695.0,-0.8,-0.5,-0.9,-0.6000000000000001,2.7,8.4,-13.5,21.400000000000002,-18.700000000000003,16
211,3709.0,-0.8,-0.30000000000000004,-1.0,-0.7000000000000001,2.8000000000000003,8.3,-12.4,23.5,-11.5,16
212,3726.0,-1.5,-1.4000000000000001,-1.2000000000000002,-1.3,2.0,8.1,-8.899999999999999,23.5,0.1,16
213,3743.0,-1.5,-1.4000000000000001,-1.3,-1.3,1.8,8.0,-4.7,18.0,17.799999999999997,16
214,3759.0,-1.2000000000000002,-0.1,-1.3,-1.2000000000000002,3.0,7.9,-2.1,8.4,25.8,16
215,3775.0,-0.6000000000000001,1.1,-1.2000000000000002,-0.7000000000000001,4.1000000000000005,8.0,-0.9000000000000001,-3.0,25.0,16
216,3792.0,-0.1,1.2000000000000002,-1.0,0.1,4.3,8.3,-1.6,-12.7,16.200000000000003,16
217,3809.0,0.4,1.1,-0.7000000000000001,0.6000000000000001,4.1000000000000005,8.6,-6.4,-14.700000000000001,4.6,16
218,3825.0,0.2,0.8,-0.2,0.4,3.9000000000000004,9.1,-13.900000000000002,-8.600000000000001,-4.5,16
219,3842.0,0.0,0.6000000000000001,-0.1,0.1,3.5,9.3,-13.900000000000002,-8.600000000000001,-4.5,16
220,3860.0,-0.30000000000000004,0.2,0.4,-0.2,3.1,9.8,-21.7,-0.4,-9.0,16
221,3881.0,-0.5,0.0,0.9,-0.4,2.9000000000000004,10.200000000000001,-18.900000000000002,-1.4,-6.2,16
222,3894.0,-0.30000000000000004,-0.2,0.9,-0.30000000000000004,2.6,10.3,-14.400000000000002,-1.5,-1.4,16
223,3910.0,-0.1,-0.30000000000000004,0.7000000000000001,-0.1,2.5,10.100000000000001,-10.600000000000001,-3.3000000000000007,3.5,16
224,3928.0,0.1,-0.30000000000000004,0.6000000000000001,0.30000000000000004,2.5,10.0,-7.500000000000001,-8.4,7.6,16
225,3943.0,0.6000000000000001,-0.2,0.9,0.8,2.6,10.200000000000001,-4.7,-14.700000000000001,9.3,16
226,3961.0,1.1,0.0,0.9,1.3,2.7,10.3,-3.8,-18.4,8.3,16
227,3975.0,1.3,0.1,0.9,1.6,2.9000000000000004,10.3,-8.899999999999999,-18.200000000000003,3.5,16
228,3992.0,1.2000000000000002,0.4,1.3,1.6,3.1,10.700000000000001,-18.200000000000003,-14.600000000000001,-4.2,16
229,4009.0,1.0,0.30000000000000004,2.1,1.4000000000000001,2.9000000000000004,11.4,-24.8,-9.899999999999999,-11.5,16
230,4025.0,0.9,0.2,2.5,1.2000000000000002,2.7,12.0,-23.900000000000006,-5.6,-16.4,16
231,4043.0,0.5,-0.1,2.7,0.8,2.4000000000000004,12.200000000000001,-15.5,-4.4,-17.300000000000004,16
232,4064.0,0.0,-0.5,2.5,0.4,2.1,12.0,-3.6000000000000005,-1.5,-14.100000000000001,16
233,4078.0,0.0,-0.7000000000000001,1.1,0.30000000000000004,1.9000000000000001,11.0,7.699999999999999,3.3000000000000007,-8.8,16
234,4098.0,0.4,-0.6000000000000001,0.0,0.6000000000000001,1.9000000000000001,9.9,14.700000000000001,6.600000000000001,-4.6,16
235,4109.0,0.6000000000000001,-0.6000000000000001,-0.5,0.9,2.0,9.0,18.1,8.3,-2.9,16
236,4127.0,0.8,-0.6000000000000001,-1.5,1.1,2.1,8.1,17.799999999999997,4.5,-3.6000000000000005,16
237,4142.0,0.9,-0.6000000000000001,-1.7000000000000002,1.3,2.2,7.7,13.000000000000002,-4.6,-5.2,16
238,4160.0,1.2000000000000002,-0.30000000000000004,-1.2000000000000002,1.6,2.4000000000000004,8.3,7.1000000000000005,-15.2,-8.3,16
239,4175.0,1.4000000000000001,-0.30000000000000004,0.0,1.8,2.5,9.4,4.800000000000001,-19.700000000000003,-14.0,16
240,4192.0,1.2000000000000002,-0.30000000000000004,0.5,1.7000000000000002,2.4000000000000004,9.9,4.1,-16.700000000000003,-20.400000000000002,16
241,4209.0,0.9,-0.30000000000000004,0.5,1.4000000000000001,2.4000000000000004,9.9,1.8000000000000003,-9.100000000000001,-26.000000000000004,16
242,4225.0,0.4,-0.4,0.4,0.8,2.3000000000000003,9.8,-1.4,0.0,-30.200000000000003,16
243,4242.0,-0.2,-0.7000000000000001,0.2,0.30000000000000004,2.1,9.700000000000001,-2.6,8.899999999999999,-31.0,16
244,4259.0,-0.4,-0.7000000000000001,0.0,-0.1,2.0,9.4,0.1,13.6,-28.0,16
245,4276.0,-0.5,-0.8,-0.5,-0.2,1.9000000000000001,8.9,5.6,14.600000000000001,-21.8,16
246,4292.0,-0.4,-0.8,-1.3,-0.2,2.0,8.200000000000001,10.600000000000001,12.5,-15.299999999999999,16
247,4309.0,-0.2,-0.5,-1.8,0.0,2.3000000000000003,7.7,13.200000000000003,8.5,-9.8,16
248,4325.0,0.0,-0.4,-1.9000000000000001,0.2,2.5,7.5,14.600000000000001,3.2,-6.4,16
249,4342.0,0.30000000000000004,-0.1,-2.0,0.5,2.8000000000000003,7.4,14.100000000000001,-0.5,-5.4,16
250,4359.0,0.30000000000000004,-0.1,-2.0,0.6000000000000001,2.9000000000000004,7.4,14.100000000000001,-0.5,-5.4,16
251,4376.0,0.5,0.1,-1.8,0.7000000000000001,3.0,7.5,7.300000000000001,0.6000000000000001,-8.4,16
252,4392.0,0.4,0.2,-1.6,0.6000000000000001,3.1,7.7,2.8,4.1,-11.000000000000002,16
253,4409.0,0.30000000000000004,0.1,-1.4000000000000001,0.5,3.1,7.800000000000001,-1.6,6.699999999999999,-12.299999999999999,16
254,4427.0,0.2,0.1,-1.0,0.30000000000000004,3.0,8.200000000000001,-3.4,7.300000000000001,-11.5,16
255,4442.0,0.1,0.1,-0.8,0.2,3.0,8.5,-1.5,6.4,-9.4,16
256,4459.0,0.1,0.1,-0.4,0.2,3.0,8.8,1.5,6.1000000000000005,-6.4,16
257,4475.0,0.1,0.2,-0.4,0.1,3.1,8.9,4.1,7.500000000000001,-3.3000000000000007,16
258,4492.0,0.0,0.2,-0.4,0.0,3.1,8.9,5.300000000000001,8.3,-0.4,16
259,4509.0,0.0,0.0,-0.4,0.0,3.0,8.9,5.7,7.400000000000001,3.2,16
260,4525.0,0.0,0.0,-0.4,0.0,3.0,8.8,5.7,7.400000000000001,3.2,16
261,4542.0,0.0,-0.1,-0.2,0.2,2.9000000000000004,9.200000000000001,5.300000000000001,1.9,7.400000000000001,16
262,4559.0,0.4,0.0,0.6000000000000001,0.6000000000000001,3.1,10.0,3.8,-15.100000000000001,15.299999999999999,16
263,4575.0,0.9,0.2,1.6,1.0,3.2,10.8,5.4,-20.900000000000002,15.8,16
264,4592.0,1.2000000000000002,0.4,2.3000000000000003,1.5,3.4000000000000004,11.5,7.699999999999999,-20.599999999999998,13.8,16
265,4609.0,1.3,0.5,2.3000000000000003,1.6,3.7,11.5,7.0,-13.399999999999999,8.4,16
266,4626.0,1.3,0.7000000000000001,1.7000000000000002,1.6,3.8000000000000003,11.0,-0.8,-3.9,0.4,16
267,4642.0,0.8,0.6000000000000001,1.3,1.2000000000000002,3.6,10.600000000000001,-12.600000000000001,-0.6000000000000001,-6.4,16
268,4659.0,0.2,0.4,2.1,0.7000000000000001,3.5,11.200000000000001,-22.1,-4.9,-9.899999999999999,16
269,4676.0,0.0,0.30000000000000004,2.8000000000000003,0.30000000000000004,3.3000000000000003,12.4,-22.8,-10.0,-9.899999999999999,16
270,4692.0,-0.6000000000000001,0.1,4.3,-0.2,3.0,13.700000000000001,-12.600000000000001,-5.8,-7.400000000000001,16
271,4709.0,-1.3,-0.7000000000000001,3.4000000000000004,-0.9,2.4000000000000004,13.100000000000001,3.8,8.600000000000001,-2.0,16
272,4725.0,-1.6,-1.2000000000000002,1.9000000000000001,-1.4000000000000001,1.7000000000000002,10.700000000000001,15.100000000000001,23.6,8.600000000000001,16
273,4742.0,-1.7000000000000002,-1.3,-0.7000000000000001,-1.4000000000000001,1.7000000000000002,8.700000000000001,18.200000000000003,25.8,22.4,16
274,4761.0,-1.3,-1.0,-2.0,-1.2000000000000002,2.0,7.4,19.200000000000003,13.8,33.400000000000006,16
275,4776.0,-0.9,-0.5,-2.2,-0.8,2.5,7.1000000000000005,18.0,-9.0,39.8,16
276,4792.0,-0.6000000000000001,-0.30000000000000004,-1.6,-0.2,2.9000000000000004,8.0,14.900000000000002,-31.0,41.1,16
277,4809.0,-0.1,-0.30000000000000004,0.5,0.4,2.9000000000000004,9.700000000000001,12.8,-39.699999999999996,39.50000000000001,16
278,4825.0,0.2,-0.30000000000000004,2.0,0.8,2.9000000000000004,11.100000000000001,13.700000000000001,-34.50000000000001,37.300000000000004,16
279,4842.0,0.30000000000000004,-0.2,2.3000000000000003,0.9,3.0,11.600000000000001,17.1,-22.700000000000003,33.6,16
280,4859.0,0.1,-0.30000000000000004,2.1,0.9,2.9000000000000004,11.3,20.0,-10.8,29.0,16
281,4875.0,-0.1,-0.5,1.3,0.8,2.8000000000000003,10.700000000000001,21.900000000000002,-0.5,24.8,16
282,4892.0,-0.2,-0.6000000000000001,0.9,0.6000000000000001,2.7,10.0,21.900000000000002,-0.5,24.8,16
283,4910.0,-0.2,-0.8,0.0,0.5,2.6,9.1,25.5,11.2,19.200000000000003,16
284,4928.0,-0.4,-1.0,-1.0,0.4,2.4000000000000004,8.3,26.700000000000003,11.6,17.400000000000002,16
285,4944.0,-0.4,-1.2000000000000002,-1.7000000000000002,0.30000000000000004,2.4000000000000004,7.6000000000000005,26.300000000000004,9.700000000000001,15.8,16
286,4960.0,-0.5,-1.2000000000000002,-1.8,0.30000000000000004,2.4000000000000004,7.2,24.400000000000002,7.1000000000000005,14.600000000000001,16
287,4975.0,-0.4,-1.1,-2.1,0.30000000000000004,2.5,7.1000000000000005,21.300000000000004,4.0,13.200000000000003,16
288,4992.0,-0.30000000000000004,-0.9,-1.8,0.5,2.7,7.2,18.3,1.5,11.1,16
289,5009.0,-0.1,-0.8,-1.6,0.6000000000000001,2.8000000000000003,7.4,16.0,0.9000000000000001,8.0,16
290,5026.0,-0.1,-0.8,-1.5,0.7000000000000001,3.0,7.5,13.6,1.4,4.5,16
291,5044.0,-0.1,-0.7000000000000001,-1.6,0.7000000000000001,3.1,7.4,10.4,1.6,0.6000000000000001,16
292,5059.0,0.0,-0.6000000000000001,-1.6,0.7000000000000001,3.2,7.4,5.9,1.7,-3.6000000000000005,16
293,5076.0,-0.1,-0.4,-1.4000000000000001,0.7000000000000001,3.4000000000000004,7.7,1.3,2.3,-8.3,16
294,5094.0,-0.5,-0.5,-0.9,0.2,3.3000000000000003,8.0,-0.6000000000000001,3.7000000000000006,-12.299999999999999,16
295,5109.0,-0.6000000000000001,-0.7000000000000001,-0.8,0.0,3.1,8.1,-0.6000000000000001,5.4,-12.8,16
296,5126.0,-0.7000000000000001,-0.7000000000000001,-0.8,-0.1,3.0,8.1,-0.6000000000000001,5.4,-12.8,16
297,5142.0,-0.9,-0.7000000000000001,-1.2000000000000002,-0.30000000000000004,3.1,7.7,3.0,7.1000000000000005,-9.600000000000001,16
298,5161.0,-1.0,-0.6000000000000001,-1.8,-0.5,3.1,7.2,1.7,2.9,-6.9,16
299,5176.0,-0.9,-0.5,-1.6,-0.30000000000000004,3.3000000000000003,7.2,-1.8000000000000003,-4.6,-3.7000000000000006,16
300,5192.0,-0.7000000000000001,-0.4,-1.4000000000000001,0.0,3.3000000000000003,7.6000000000000005,-5.8,-11.900000000000002,-2.4000000000000004,16
301,5211.0,-0.2,-0.4,-0.9,0.4,3.3000000000000003,8.0,-12.100000000000001,-16.4,-3.2,16
302,5226.0,0.0,-0.30000000000000004,-0.5,0.9,3.4000000000000004,8.700000000000001,-20.2,-14.900000000000002,-6.4,16
303,5242.0,0.6000000000000001,-0.2,0.2,1.4000000000000001,3.4000000000000004,9.3,-28.400000000000002,-8.5,-12.5,16
304,5259.0,0.9,0.0,0.7000000000000001,1.6,3.4000000000000004,9.700000000000001,-35.2,-1.2000000000000002,-20.3,16
305,5275.0,0.8,-0.1,0.7000000000000001,1.4000000000000001,3.2,9.8,-39.699999999999996,1.4,-27.700000000000003,16
306,5292.0,0.2,-0.4,0.7000000000000001,1.0,2.9000000000000004,9.8,-42.60000000000001,-4.1,-31.7,16
307,5309.0,0.1,-0.5,0.8,0.7000000000000001,2.7,10.100000000000001,-46.6,-13.399999999999999,-32.7,16
308,5326.0,0.0,-0.5,1.8,0.6000000000000001,2.5,11.0,-51.300000000000004,-18.4,-32.6,16
309,5347.0,-0.4,-0.5,3.1,0.30000000000000004,2.4000000000000004,12.200000000000001,-52.300000000000004,-17.300000000000004,-31.6,16
310,5362.0,-0.9,-0.8,4.1000000000000005,-0.1,2.0,13.200000000000001,-46.800000000000004,-11.5,-27.800000000000004,16
311,5377.0,-1.3,-1.0,4.4,-0.7000000000000001,1.7000000000000002,13.8,-35.3,0.8,-18.3,16
312,5392.0,-1.5,-1.4000000000000001,4.0,-0.9,1.3,13.5,-18.0,15.100000000000001,-3.3000000000000007,16
313,5412.0,-1.3,-1.4000000000000001,2.0,-0.8,1.2000000000000002,11.9,-0.9000000000000001,23.400000000000002,13.700000000000001,16
314,5428.0,-0.5,-1.0,0.30000000000000004,-0.30000000000000004,1.5,10.200000000000001,11.1,19.5,28.500000000000004,16
315,5444.0,0.0,-0.8,-0.2,0.5,1.9000000000000001,9.200000000000001,17.200000000000003,4.9,37.800000000000004,16
316,5459.0,1.1,-0.2,-0.2,1.5,2.4000000000000004,9.200000000000001,18.200000000000003,-10.299999999999999,41.4,16
317,5475.0,1.5,0.1,0.1,2.3000000000000003,3.0,9.700000000000001,16.4,-18.8,38.400000000000006,16
318,5495.0,2.1,0.7000000000000001,0.8,2.8000000000000003,3.4000000000000004,10.200000000000001,13.399999999999999,-18.1,28.400000000000002,16
319,5511.0,2.0,0.8,1.0,2.8000000000000003,3.6,10.4,9.3,-9.0,15.299999999999999,16
320,5526.0,1.3,0.5,0.5,2.3000000000000003,3.4000000000000004,10.0,4.1,5.4,2.8,16
321,5542.0,1.0,0.2,0.0,1.6,3.0,9.3,-0.7,19.400000000000002,-5.6,16
322,5559.0,0.4,-0.1,-0.8,1.0,2.7,8.5,-2.8,28.0,-9.3,16
323,5575.0,-0.1,-0.4,-1.6,0.5,2.5,7.9,-0.9000000000000001,30.000000000000004,-9.0,16
324,5592.0,-0.2,-0.4,-2.1,0.30000000000000004,2.5,7.1000000000000005,2.7,25.8,-5.7,16
325,5610.0,-0.1,-0.1,-2.6,0.30000000000000004,2.7,6.7,5.300000000000001,17.300000000000004,-2.4000000000000004,16
326,5628.0,0.1,0.1,-2.7,0.5,3.0,6.6000000000000005,5.9,9.700000000000001,-0.4,16
327,5643.0,0.5,0.30000000000000004,-2.3000000000000003,0.9,3.2,6.9,4.9,5.7,-0.5,16
328,5659.0,0.7000000000000001,0.4,-2.2,1.2000000000000002,3.3000000000000003,7.1000000000000005,3.4,5.8,-2.7,16
329,5675.0,0.9,0.6000000000000001,-2.0,1.3,3.5,7.300000000000001,1.1,6.300000000000001,-5.8,16
330,5692.0,0.8,0.7000000000000001,-1.8,1.2000000000000002,3.5,7.5,-0.6000000000000001,4.5,-9.3,16
331,5709.0,0.7000000000000001,0.7000000000000001,-1.6,1.1,3.5,7.800000000000001,-1.7,1.0,-12.0,16
332,5726.0,0.6000000000000001,0.6000000000000001,-0.9,0.9,3.5,8.4,-1.5,-0.8,-13.5,16
333,5743.0,0.4,0.6000000000000001,-0.30000000000000004,0.7000000000000001,3.4000000000000004,8.9,0.8,0.6000000000000001,-14.400000000000002,16
334,5759.0,0.2,0.4,-0.2,0.5,3.3000000000000003,9.1,0.8,0.6000000000000001,-14.400000000000002,16
335,5776.0,0.2,0.30000000000000004,0.0,0.4,3.2,9.1,7.200000000000001,13.3,-13.399999999999999,16
336,5792.0,0.1,0.30000000000000004,-0.8,0.30000000000000004,3.3000000000000003,8.4,8.600000000000001,19.6,-13.3,16
337,5809.0,-0.30000000000000004,0.30000000000000004,-1.7000000000000002,-0.1,3.2,7.6000000000000005,5.7,19.400000000000002,-13.100000000000001,16
338,5826.0,-0.5,0.2,-1.8,-0.5,3.1,7.6000000000000005,-0.6000000000000001,12.200000000000001,-10.200000000000001,16
339,5842.0,-0.7000000000000001,-0.1,-0.9,-0.6000000000000001,2.8000000000000003,8.5,-3.9,0.6000000000000001,-3.5,16
340,5859.0,-0.5,-0.1,0.6000000000000001,-0.4,2.9000000000000004,9.700000000000001,-2.8,-10.4,3.7000000000000006,16
341,5876.0,0.1,0.1,1.9000000000000001,0.2,3.0,10.8,1.0,-17.6,9.2,16
342,5892.0,0.6000000000000001,0.2,2.6,0.9,3.2,11.9,4.4,-14.300000000000002,9.899999999999999,16
343,5909.0,1.1,0.6000000000000001,3.0,1.4000000000000001,3.6,12.200000000000001,5.6,-1.0,5.2,16
344,5925.0,0.9,0.8,1.9000000000000001,1.1,3.8000000000000003,11.3,1.7,12.9,-3.1,16
345,5942.0,0.5,0.7000000000000001,1.2000000000000002,0.5,3.6,10.4,-7.400000000000001,16.900000000000002,-9.600000000000001,16
346,5959.0,-0.2,0.4,1.0,-0.1,3.3000000000000003,10.4,-16.200000000000003,7.699999999999999,-10.0,16
347,5975.0,-0.5,0.2,2.4000000000000004,-0.30000000000000004,3.1,11.600000000000001,-18.200000000000003,-5.4,-6.2,16
348,5992.0,-0.5,0.1,3.2,-0.30000000000000004,2.9000000000000004,12.9,-18.200000000000003,-5.4,-6.2,16
349,6014.0,-0.5,-0.4,4.3,-0.30000000000000004,2.2,13.5,-2.0,-11.4,4.9,16
350,6025.0,-0.5,-0.7000000000000001,4.0,-0.30000000000000004,2.2,13.5,10.600000000000001,3.0,11.000000000000002,16
351,6042.0,-0.6000000000000001,-1.0,3.1,-0.5,1.8,11.5,10.600000000000001,3.0,11.000000000000002,16
352,6059.0,-0.8,-1.2000000000000002,0.1,-0.8,1.8,9.0,24.8,27.5,24.1,16
353,6075.0,-0.9,-1.0,-1.9000000000000001,-0.8,2.0,7.4,22.6,17.799999999999997,30.1,16
354,6092.0,-0.7000000000000001,-0.8,-2.6,-0.6000000000000001,2.2,6.800000000000001,18.0,-3.5,34.60000000000001,16
355,6109.0,-0.5,-0.7000000000000001,-2.1,-0.1,2.4000000000000004,7.800000000000001,13.5,-27.3,37.800000000000004,16
356,6125.0,0.1,-0.6000000000000001,-0.2,0.6000000000000001,2.5,9.3,12.100000000000001,-37.400000000000006,37.7,16
357,6142.0,0.5,-0.6000000000000001,1.2000000000000002,1.0,2.6,10.5,12.100000000000001,-36.1,34.400000000000006,16
358,6160.0,0.7000000000000001,-0.5,2.2,1.3,2.7,11.4,14.200000000000001,-26.700000000000003,29.700000000000006,16
359,6176.0,0.6000000000000001,-0.5,2.1,1.2000000000000002,2.7,11.200000000000001,18.1,-13.200000000000003,23.6,16
360,6197.0,0.2,-0.7000000000000001,1.1,0.5,2.3000000000000003,8.9,20.900000000000002,-0.8,18.3,16
361,6211.0,-0.1,-1.1,-0.4,0.5,2.3000000000000003,8.9,21.400000000000002,7.200000000000001,14.900000000000002,16
362,6226.0,-0.4,-1.1,-1.7000000000000002,0.30000000000000004,2.2,7.800000000000001,20.7,9.600000000000001,13.900000000000002,16
363,6244.0,-0.5,-1.1,-2.1,0.2,2.3000000000000003,7.0,19.400000000000002,5.300000000000001,13.3,16
364,6260.0,-0.5,-1.0,-2.5,0.1,2.5,6.7,17.300000000000004,-0.6000000000000001,12.200000000000001,16
365,6276.0,-0.5,-0.9,-2.7,0.1,2.6,6.4,13.399999999999999,-4.2,10.600000000000001,16
366,6293.0,-0.6000000000000001,-0.7000000000000001,-2.6,0.1,2.8000000000000003,6.6000000000000005,7.6,-5.6,8.0,16
367,6310.0,-0.6000000000000001,-0.6000000000000001,-2.3000000000000003,0.1,2.9000000000000004,6.800000000000001,3.2,-6.699999999999999,5.8,16
368,6326.0,-0.6000000000000001,-0.4,-2.1,0.1,3.1,7.0,-0.1,-8.5,3.9,16
369,6344.0,-0.6000000000000001,-0.2,-1.5,0.2,3.3000000000000003,7.300000000000001,-4.1,-11.000000000000002,2.2,16
370,6359.0,-0.5,-0.1,-0.9,0.30000000000000004,3.4000000000000004,8.3,-4.800000000000001,-13.100000000000001,1.0,16
371,6376.0,-0.5,0.0,0.0,0.30000000000000004,3.4000000000000004,9.0,-1.3,-11.4,-0.7,16
372,6392.0,-0.6000000000000001,0.0,0.0,0.2,3.5,9.0,2.6,-6.1000000000000005,-2.5,16
373,6409.0,-0.6000000000000001,0.0,-0.30000000000000004,0.2,3.5,8.700000000000001,4.5,-0.7,-4.7,16
374,6427.0,-0.7000000000000001,0.0,-0.8,0.1,3.5,8.1,4.2,1.9,-7.200000000000001,16
375,6443.0,-1.0,-0.2,-1.1,-0.2,3.3000000000000003,7.9,2.3,-0.4,-7.8,16
376,6459.0,-1.0,-0.5,-1.0,-0.2,3.1,8.0,0.1,-5.7,-5.8,16
377,6475.0,-0.8,-0.6000000000000001,-0.6000000000000001,0.1,2.9000000000000004,8.5,-1.6,-13.100000000000001,-1.7,16
378,6492.0,0.0,-0.4,0.2,0.8,3.0,9.1,-2.3,-17.6,-0.5,16
379,6509.0,0.8,-0.1,0.5,1.6,3.3000000000000003,9.4,-5.9,-16.900000000000002,-4.4,16
380,6525.0,1.1,-0.1,0.5,2.1,3.3000000000000003,9.600000000000001,-14.300000000000002,-10.4,-12.9,16
381,6543.0,1.2000000000000002,-0.1,0.6000000000000001,2.1,3.2,9.600000000000001,-24.8,-2.0,-23.2,16
382,6559.0,0.8,-0.4,0.4,1.7000000000000002,2.9000000000000004,9.5,-33.50000000000001,4.2,-31.799999999999997,16
383,6575.0,0.4,-0.7000000000000001,0.2,1.0,2.4000000000000004,9.3,-33.50000000000001,4.2,-31.799999999999997,16
384,6592.0,-0.2,-0.9,0.2,0.6000000000000001,2.1,9.4,-48.70000000000001,0.7,-36.400000000000006,16
385,6608.0,-0.2,-0.7000000000000001,1.5,0.6000000000000001,2.2,10.600000000000001,-53.400000000000006,-9.2,-34.800000000000004,16
386,6625.0,-0.30000000000000004,-0.5,3.2,0.5,2.2,12.200000000000001,-53.50000000000001,-15.2,-33.400000000000006,16
387,6644.0,-0.6000000000000001,-0.6000000000000001,4.7,0.30000000000000004,2.1,13.600000000000001,-48.2,-12.0,-31.3,16
388,6658.0,-0.8,-0.8,5.0,0.0,1.8,14.3,-36.0,2.0,-26.9,16
389,6675.0,-1.1,-1.4000000000000001,3.9000000000000004,-0.4,1.2000000000000002,13.600000000000001,-20.8,21.0,-16.700000000000003,16
390,6692.0,-1.1,-1.5,2.9000000000000004,-0.4,1.0,11.8,-6.300000000000001,33.2,-1.9,16
391,6709.0,-0.6000000000000001,-1.1,0.7000000000000001,0.0,1.5,10.100000000000001,5.8,25.4,10.8,16
392,6725.0,0.2,-0.5,-0.4,0.7000000000000001,2.0,9.1,13.8,6.2,17.9,16
393,6742.0,0.6000000000000001,-0.30000000000000004,-0.6000000000000001,1.5,2.4000000000000004,9.0,15.100000000000001,-11.2,19.9,16
394,6759.0,1.4000000000000001,0.1,-0.2,2.1,2.8000000000000003,9.4,11.3,-17.1,15.700000000000001,16
395,6775.0,1.6,0.5,0.4,2.3000000000000003,3.1,9.9,6.699999999999999,-13.000000000000002,7.0,16
396,6792.0,1.5,0.30000000000000004,0.8,2.2,2.9000000000000004,10.200000000000001,4.800000000000001,-2.1,-1.4,16
397,6809.0,1.1,0.1,0.0,1.9000000000000001,2.7,9.700000000000001,5.2,11.4,-7.400000000000001,16
398,6825.0,0.9,0.1,-0.4,1.5,2.7,8.9,5.300000000000001,20.5,-10.600000000000001,16
399,6843.0,0.7000000000000001,0.1,-1.3,1.2000000000000002,2.7,8.200000000000001,6.500000000000001,23.700000000000003,-12.7,16
400,6860.0,0.6000000000000001,0.1,-1.6,1.0,2.7,7.6000000000000005,6.500000000000001,23.700000000000003,-12.7,16
401,6875.0,0.4,0.0,-2.1,0.9,2.7,7.300000000000001,8.700000000000001,16.700000000000003,-13.700000000000001,16
402,6892.0,0.4,0.0,-2.3000000000000003,0.8,2.8000000000000003,7.1000000000000005,7.9,11.5,-12.8,16
403,6909.0,0.4,0.2,-1.7000000000000002,0.8,2.9000000000000004,7.5,6.300000000000001,8.3,-11.900000000000002,16
404,6925.0,0.5,0.2,-1.5,0.9,3.0,7.9,6.500000000000001,9.0,-11.000000000000002,16
405,6942.0,0.6000000000000001,0.2,-1.2000000000000002,0.9,3.0,8.1,8.600000000000001,11.1,-9.899999999999999,16
406,6959.0,0.7000000000000001,0.30000000000000004,-1.4000000000000001,1.0,3.1,7.9,10.8,12.100000000000001,-8.700000000000001,16
407,6977.0,0.7000000000000001,0.5,-1.5,1.0,3.4000000000000004,7.800000000000001,11.700000000000001,9.100000000000001,-8.5,16
408,6993.0,0.7000000000000001,0.6000000000000001,-1.3,0.9,3.5,8.0,13.200000000000003,4.1,-8.3,16
409,7011.0,0.6000000000000001,0.5,-0.8,0.8,3.5,8.5,15.5,0.0,-7.6,16
410,7027.0,0.4,0.5,-0.5,0.7000000000000001,3.5,8.700000000000001,17.5,0.5,-5.9,16
411,7043.0,0.5,0.5,-0.4,0.7000000000000001,3.6,8.9,17.5,5.6,-4.4,16
412,7059.0,0.6000000000000001,0.7000000000000001,-0.30000000000000004,0.8,3.8000000000000003,8.9,16.3,11.8,-5.1000000000000005,16
413,7075.0,0.4,0.6000000000000001,-0.2,0.6000000000000001,3.8000000000000003,8.9,14.900000000000002,14.900000000000002,-6.0,16
414,7092.0,0.30000000000000004,0.5,-0.2,0.30000000000000004,3.6,9.1,14.900000000000002,14.900000000000002,-6.0,16
415,7111.0,0.1,0.1,0.30000000000000004,0.2,3.3000000000000003,9.5,15.299999999999999,8.5,-0.4,16
416,7125.0,0.0,0.1,0.5,0.1,3.3000000000000003,9.600000000000001,17.6,2.8,4.5,16
417,7142.0,0.4,0.2,0.8,0.4,3.5,9.9,18.5,-1.4,8.5,16
418,7162.0,0.8,0.30000000000000004,1.0,0.8,3.6,10.100000000000001,18.1,-1.2000000000000002,9.4,16
419,7177.0,1.0,0.4,0.8,1.1,3.8000000000000003,9.9,15.299999999999999,3.7000000000000006,6.500000000000001,16
420,7192.0,1.0,0.6000000000000001,0.2,1.1,4.1000000000000005,9.4,8.5,8.2,0.4,16
421,7209.0,0.6000000000000001,0.5,-0.4,0.7000000000000001,4.0,8.8,-1.1,8.3,-6.600000000000001,16
422,7225.0,0.30000000000000004,0.5,-0.30000000000000004,0.30000000000000004,3.8000000000000003,9.0,-13.100000000000001,0.30000000000000004,-10.700000000000001,16
423,7242.0,0.0,0.30000000000000004,1.4000000000000001,0.1,3.7,10.5,-21.6,-9.4,-11.1,16
424,7259.0,-0.30000000000000004,0.1,3.2,-0.1,3.4000000000000004,12.200000000000001,-20.0,-14.900000000000002,-9.8,16
425,7277.0,-0.6000000000000001,-0.2,3.9000000000000004,-0.6000000000000001,2.9000000000000004,13.200000000000001,-10.200000000000001,-11.8,-5.9,16
426,7292.0,-1.0,-0.9,3.7,-0.9,2.3000000000000003,12.9,3.0,-0.30000000000000004,1.7,16
427,7309.0,-1.1,-1.3,1.8,-1.1,2.0,11.200000000000001,11.8,11.6,12.0,16
428,7325.0,-0.9,-1.0,-0.1,-0.9,2.3000000000000003,9.5,14.5,13.3,21.500000000000004,16
429,7342.0,-0.7000000000000001,-0.7000000000000001,-0.6000000000000001,-0.6000000000000001,2.7,8.5,14.0,1.9,26.200000000000003,16
430,7359.0,-0.4,-0.5,-0.8,-0.2,2.9000000000000004,8.4,12.299999999999999,-12.8,26.700000000000003,16
431,7375.0,-0.2,-0.6000000000000001,-0.1,0.0,2.8000000000000003,9.0,9.4,-21.7,25.7,16
432,7392.0,-0.1,-0.7000000000000001,0.4,0.2,2.7,9.600000000000001,6.9,-19.5,24.200000000000003,16
433,7409.0,-0.1,-0.7000000000000001,0.6000000000000001,0.2,2.7,9.8,6.2,-12.200000000000001,22.000000000000004,16
434,7425.0,-0.30000000000000004,-0.8,0.30000000000000004,0.1,2.6,9.5,7.699999999999999,-6.8,20.2,16
435,7442.0,-0.30000000000000004,-0.8,0.1,0.0,2.6,9.1,7.699999999999999,-6.8,20.2,16
436,7459.0,-0.5,-0.9,-0.6000000000000001,0.0,2.5,8.5,14.100000000000001,-5.2,18.200000000000003,16
437,7475.0,-0.5,-1.0,-1.2000000000000002,-0.1,2.5,7.9,16.1,-5.7,17.799999999999997,16
438,7492.0,-0.5,-1.0,-1.6,0.0,2.5,7.5,16.200000000000003,-5.0,17.0,16
439,7509.0,-0.5,-1.0,-1.8,0.0,2.6,7.2,14.400000000000002,-3.3000000000000007,15.700000000000001,16
440,7525.0,-0.6000000000000001,-1.0,-2.1,0.0,2.6,6.9,11.3,-3.4,14.700000000000001,16
441,7542.0,-0.6000000000000001,-0.9,-2.1,0.0,2.7,6.9,7.500000000000001,-4.9,13.700000000000001,16
442,7559.0,-0.6000000000000001,-0.9,-2.1,0.0,2.8000000000000003,6.9,7.500000000000001,-4.9,13.700000000000001,16
443,7576.0,-0.5,-0.7000000000000001,-1.9000000000000001,0.2,2.9000000000000004,7.1000000000000005,0.30000000000000004,-10.8,10.700000000000001,16
444,7592.0,-0.30000000000000004,-0.5,-1.4000000000000001,0.30000000000000004,3.0,7.6000000000000005,-3.7000000000000006,-12.7,8.2,16
445,7610.0,-0.2,-0.4,-0.9,0.5,3.2,8.0,-7.200000000000001,-13.200000000000003,4.9,16
446,7625.0,-0.1,-0.30000000000000004,-0.6000000000000001,0.6000000000000001,3.3000000000000003,8.4,-10.600000000000001,-12.299999999999999,1.3,16
447,7642.0,-0.1,-0.1,0.0,0.6000000000000001,3.4000000000000004,9.0,-12.100000000000001,-8.5,-2.3,16
448,7659.0,-0.2,-0.2,0.5,0.6000000000000001,3.3000000000000003,9.5,-8.899999999999999,-1.7,-4.800000000000001,16
449,7675.0,-0.30000000000000004,-0.30000000000000004,0.4,0.4,3.2,9.1,-2.8,5.8,-5.9,16
450,7692.0,-0.6000000000000001,-0.4,-0.7000000000000001,0.1,3.1,8.1,2.0,8.100000000000001,-5.0,16
451,7709.0,-0.8,-0.30000000000000004,-1.8,-0.1,3.2,7.2,1.8000000000000003,2.6,-2.7,16
452,7726.0,-0.6000000000000001,-0.1,-1.7000000000000002,0.1,3.4000000000000004,7.2,-1.0,-8.3,0.1,16
453,7745.0,0.1,0.2,-0.6000000000000001,0.7000000000000001,3.6,8.0,-5.2,-19.200000000000003,0.5,16
454,7758.0,0.4,0.30000000000000004,0.1,1.3,3.8000000000000003,9.1,-10.9,-22.1,-2.6,16
455,7777.0,0.8,0.6000000000000001,1.0,1.6,4.0,9.9,-17.300000000000004,-16.8,-9.100000000000001,16
456,7795.0,1.1,0.6000000000000001,1.6,1.8,3.9000000000000004,10.5,-23.700000000000003,-6.600000000000001,-17.400000000000002,16
457,7810.0,1.0,0.5,1.6,1.8,3.7,10.600000000000001,-27.6,7.699999999999999,-26.000000000000004,16
458,7826.0,0.4,0.2,0.6000000000000001,1.2000000000000002,3.4000000000000004,9.700000000000001,-31.400000000000002,16.200000000000003,-32.400000000000006,16
459,7844.0,-0.30000000000000004,-0.1,-0.5,0.5,3.0,8.8,-37.9,12.9,-35.0,16
460,7861.0,-0.5,-0.2,-0.7000000000000001,0.2,2.8000000000000003,8.700000000000001,-47.400000000000006,-3.7000000000000006,-33.0,16
461,7877.0,-0.2,0.0,1.1,0.5,2.8000000000000003,10.5,-55.0,-25.8,-30.000000000000004,16
462,7894.0,0.0,0.2,4.1000000000000005,0.8,2.8000000000000003,13.100000000000001,-53.0,-41.300000000000004,-28.0,16
463,7909.0,-0.1,0.2,5.5,0.8,2.7,15.200000000000001,-53.0,-41.300000000000004,-28.0,16
464,7925.0,-0.30000000000000004,-0.4,6.4,0.5,2.1,15.600000000000001,-17.7,-22.2,-24.200000000000003,16
465,7943.0,-1.0,-1.3,4.5,-0.1,1.3,14.0,-1.3,10.4,-14.0,16
466,7958.0,-1.2000000000000002,-1.5,2.9000000000000004,-0.30000000000000004,1.2000000000000002,11.4,-1.3,10.4,-14.0,16
467,7975.0,-0.8,-1.1,0.4,0.0,1.6,9.5,16.3,32.5,16.6,16
468,7993.0,-0.1,-0.5,-1.1,0.7000000000000001,2.2,8.3,24.0,12.200000000000001,25.4,16
469,8008.0,0.9,0.1,-1.4000000000000001,1.5,2.8000000000000003,8.0,28.3,-11.700000000000001,27.400000000000002,16
470,8027.0,1.7000000000000002,0.5,-1.0,2.4000000000000004,3.2,8.3,27.400000000000002,-24.5,22.9,16
471,8048.0,1.8,0.5,-0.7000000000000001,2.5,3.4000000000000004,8.6,20.400000000000002,-20.3,12.0,16
472,8060.0,1.5,0.5,-0.7000000000000001,2.5,3.4000000000000004,8.6,11.2,-7.400000000000001,0.4,16
473,8077.0,0.8,0.30000000000000004,-0.9,1.8,3.3000000000000003,8.4,3.3000000000000007,5.1000000000000005,-9.2,16
474,8093.0,0.5,0.2,-1.0,1.2000000000000002,3.0,8.3,-0.6000000000000001,12.8,-14.300000000000002,16
475,8109.0,0.0,-0.1,-1.2000000000000002,0.8,2.8000000000000003,8.1,0.4,15.6,-14.5,16
476,8125.0,-0.1,-0.1,-1.4000000000000001,0.6000000000000001,2.8000000000000003,7.9,4.300000000000001,14.100000000000001,-12.600000000000001,16
477,8144.0,0.1,0.0,-1.4000000000000001,0.7000000000000001,3.0,7.800000000000001,9.5,11.000000000000002,-11.000000000000002,16
478,8159.0,0.2,0.0,-1.7000000000000002,1.0,3.1,7.5,12.8,10.700000000000001,-11.4,16
479,8176.0,0.2,0.0,-2.2,0.9,3.1,7.0,11.000000000000002,11.4,-12.100000000000001,16
480,8192.0,0.2,0.2,-2.5,0.9,3.2,6.800000000000001,6.2,10.200000000000001,-12.600000000000001,16
481,8214.0,0.2,0.30000000000000004,-2.0,0.8,3.3000000000000003,7.0,0.4,6.9,-13.200000000000003,16
482,8225.0,0.2,0.30000000000000004,-1.6,0.8,3.3000000000000003,7.6000000000000005,-3.5,4.300000000000001,-13.6,16
483,8243.0,0.2,0.2,-0.7000000000000001,0.8,3.3000000000000003,8.4,-4.4,3.4,-13.100000000000001,16
484,8262.0,0.30000000000000004,0.2,0.0,0.8,3.3000000000000003,9.0,-2.4000000000000004,5.4,-12.299999999999999,16
485,8276.0,0.30000000000000004,0.2,0.1,0.8,3.3000000000000003,9.3,0.7,8.4,-11.1,16
486,8292.0,0.30000000000000004,0.30000000000000004,0.5,0.7000000000000001,3.4000000000000004,9.700000000000001,4.6,11.3,-9.4,16
487,8309.0,0.30000000000000004,0.30000000000000004,0.4,0.7000000000000001,3.4000000000000004,9.600000000000001,9.3,16.900000000000002,-8.2,16
488,8325.0,0.2,0.30000000000000004,0.0,0.5,3.4000000000000004,9.0,12.200000000000001,21.900000000000002,-7.6,16
489,8347.0,-0.2,0.1,-0.8,0.1,3.2,8.3,11.2,21.200000000000003,-5.1000000000000005,16
490,8360.0,-0.4,0.0,-0.5,-0.1,3.2,8.5,8.8,14.0,0.30000000000000004,16
491,8377.0,-0.4,-0.1,0.2,-0.2,3.2,9.1,9.100000000000001,4.1,7.200000000000001,16
492,8392.0,-0.2,0.0,0.7000000000000001,0.1,3.3000000000000003,9.9,11.1,-4.5,14.0,16
493,8409.0,0.4,0.2,1.4000000000000001,0.7000000000000001,3.5,10.5,13.399999999999999,-6.699999999999999,17.400000000000002,16
494,8432.0,1.0,0.5,1.5,1.3,3.7,10.600000000000001,12.9,-2.0,16.5,16
495,8442.0,1.2000000000000002,0.7000000000000001,1.3,1.5,4.1000000000000005,10.4,8.8,6.9,10.8,16
496,8459.0,1.1,0.9,0.5,1.4000000000000001,4.2,9.700000000000001,1.6,15.299999999999999,1.9,16
497,8476.0,0.5,0.6000000000000001,-0.6000000000000001,0.8,3.9000000000000004,8.700000000000001,-9.700000000000001,17.9,-5.7,16
498,8492.0,0.1,0.4,-1.0,0.30000000000000004,3.7,8.4,-25.5,8.4,-8.600000000000001,16
499,8515.0,-0.1,0.4,2.5,0.0,3.2,12.8,-34.2,-8.3,-8.5,16
500,8525.0,-0.30000000000000004,0.1,3.7,0.0,3.2,12.8,-27.700000000000003,-15.399999999999999,-7.400000000000001,16
501,8543.0,-1.0,-0.7000000000000001,4.3,-0.6000000000000001,2.5,13.600000000000001,-10.9,-5.500000000000001,-2.7,16
502,8559.0,-1.3,-1.2000000000000002,3.4000000000000004,-1.2000000000000002,1.8,12.3,4.6,15.899999999999999,7.8,16
503,8575.0,-1.5,-1.3,0.4,-1.4000000000000001,1.8,9.600000000000001,10.700000000000001,27.2,20.400000000000002,16
504,8592.0,-1.2000000000000002,-0.6000000000000001,-1.5,-1.1,2.4000000000000004,8.0,10.600000000000001,20.2,30.1,16
505,8610.0,-0.6000000000000001,-0.1,-1.9000000000000001,-0.6000000000000001,2.9000000000000004,7.300000000000001,7.500000000000001,-3.1,33.800000000000004,16
506,8626.0,-0.30000000000000004,0.0,-1.1,0.0,3.1,8.4,3.4,-27.700000000000003,32.400000000000006,16
507,8642.0,0.30000000000000004,-0.2,1.1,0.7000000000000001,2.9000000000000004,10.200000000000001,2.9,-36.6,29.700000000000006,16
508,8667.0,0.5,-0.30000000000000004,2.2,1.0,2.8000000000000003,11.3,5.8,-30.699999999999996,25.6,16
509,8675.0,0.6000000000000001,-0.4,2.1,1.1,2.8000000000000003,11.3,8.8,-17.5,21.200000000000003,16
510,8695.0,0.4,-0.5,1.5,1.0,2.7,10.8,11.3,-6.699999999999999,16.5,16
511,8709.0,0.1,-0.7000000000000001,0.4,0.8,2.6,9.8,13.200000000000003,-2.0,12.0,16
512,8729.0,-0.2,-1.0,-0.2,0.5,2.4000000000000004,9.1,14.700000000000001,-3.1,9.2,16
513,8742.0,-0.4,-1.1,-0.5,0.30000000000000004,2.1,8.6,16.4,-4.0,8.700000000000001,16
514,8759.0,-0.5,-1.2000000000000002,-1.1,0.2,2.1,8.1,17.400000000000002,-4.4,9.0,16
515,8775.0,-0.4,-1.2000000000000002,-1.7000000000000002,0.30000000000000004,2.2,7.6000000000000005,16.8,-3.4,8.700000000000001,16
516,8792.0,-0.4,-1.2000000000000002,-1.9000000000000001,0.30000000000000004,2.2,7.1000000000000005,14.900000000000002,-2.4000000000000004,7.699999999999999,16
517,8809.0,-0.4,-1.1,-2.5,0.30000000000000004,2.3000000000000003,6.6000000000000005,11.5,-3.2,6.300000000000001,16
518,8826.0,-0.4,-0.9,-2.8000000000000003,0.30000000000000004,2.5,6.300000000000001,7.300000000000001,-6.8,4.6,16
519,8842.0,-0.4,-0.8,-2.7,0.4,2.7,6.4,2.8,-12.299999999999999,2.3,16
520,8859.0,-0.4,-0.6000000000000001,-2.3000000000000003,0.4,2.9000000000000004,6.800000000000001,-1.9,-15.700000000000001,-0.5,16
521,8875.0,-0.30000000000000004,-0.4,-1.6,0.5,3.0,7.4,-6.600000000000001,-16.1,-3.5,16
522,8892.0,-0.4,-0.30000000000000004,-1.2000000000000002,0.5,3.1,8.0,-6.600000000000001,-16.1,-3.5,16
523,8908.0,-0.6000000000000001,-0.30000000000000004,-0.6000000000000001,0.30000000000000004,3.0,8.5,-10.1,-11.5,-8.899999999999999,16
524,8927.0,-0.9,-0.4,-0.4,0.0,2.9000000000000004,8.6,-9.600000000000001,-7.699999999999999,-9.4,16
525,8944.0,-1.0,-0.30000000000000004,-0.4,-0.1,2.9000000000000004,8.6,-9.0,-4.300000000000001,-8.5,16
526,8960.0,-1.0,-0.30000000000000004,-0.5,-0.1,3.0,8.4,-8.899999999999999,-2.8,-7.200000000000001,16
527,8975.0,-1.0,-0.30000000000000004,-0.7000000000000001,-0.1,3.0,8.3,-9.600000000000001,-5.300000000000001,-5.4,16
528,8992.0,-0.7000000000000001,-0.30000000000000004,-0.6000000000000001,0.2,3.0,8.5,-12.100000000000001,-8.600000000000001,-3.9,16
529,9008.0,-0.5,-0.2,-0.4,0.5,3.0,8.8,-12.100000000000001,-8.600000000000001,-3.9,16
530,9025.0,0.0,0.0,0.1,1.0,3.2,9.3,-20.7,-8.600000000000001,-5.4,16
531,9043.0,0.4,0.2,0.4,1.4000000000000001,3.2,9.5,-26.200000000000003,-4.6,-9.5,16
532,9059.0,0.5,0.1,0.8,1.4000000000000001,3.1,9.9,-30.000000000000004,-0.9000000000000001,-13.900000000000002,16
533,9075.0,0.30000000000000004,0.1,0.9,1.2000000000000002,3.0,10.0,-29.800000000000004,1.5,-16.900000000000002,16
534,9092.0,-0.1,0.0,0.4,0.8,2.8000000000000003,9.5,-28.700000000000003,1.0,-18.0,16
535,9109.0,-0.4,-0.1,0.1,0.5,2.6,9.3,-30.599999999999998,-3.0,-16.3,16
536,9125.0,-0.4,-0.1,0.1,0.6000000000000001,2.6,9.5,-35.3,-9.899999999999999,-13.000000000000002,16
537,9142.0,0.1,0.2,1.1,1.1,2.8000000000000003,10.700000000000001,-41.300000000000004,-17.400000000000002,-11.5,16
538,9158.0,0.8,0.6000000000000001,3.4000000000000004,1.8,3.0,12.700000000000001,-41.7,-19.700000000000003,-12.9,16
539,9175.0,0.7000000000000001,0.6000000000000001,5.1000000000000005,1.8,3.0,14.200000000000001,-33.7,-13.6,-16.4,16
540,9194.0,0.5,0.30000000000000004,5.4,1.4000000000000001,2.5,14.600000000000001,-17.6,2.6,-17.1,16
541,9209.0,0.1,-0.30000000000000004,3.7,1.0,2.0,13.100000000000001,-1.9,18.3,-13.000000000000002,16
542,9225.0,0.0,-0.30000000000000004,1.3,0.8,2.0,10.9,6.1000000000000005,23.800000000000004,-7.699999999999999,16
543,9242.0,0.2,-0.2,0.5,1.1,2.1,9.9,6.1000000000000005,23.800000000000004,-7.699999999999999,16
544,9259.0,0.5,-0.4,0.0,1.4000000000000001,2.0,9.4,12.0,1.3,-2.0,16
545,9277.0,0.9,-0.30000000000000004,0.2,1.7000000000000002,2.2,9.600000000000001,11.2,-9.4,-0.8,16
546,9294.0,1.1,0.0,0.6000000000000001,1.9000000000000001,2.4000000000000004,10.0,9.0,-10.1,-3.0,16
547,9309.0,1.0,0.0,0.7000000000000001,1.9000000000000001,2.5,10.100000000000001,7.300000000000001,-2.6,-8.3,16
548,9328.0,0.8,-0.1,0.2,1.6,2.4000000000000004,9.700000000000001,5.7,9.8,-13.6,16
549,9343.0,0.30000000000000004,-0.4,-0.9,1.2000000000000002,2.2,8.700000000000001,3.6000000000000005,20.2,-17.5,16
550,9358.0,0.1,-0.5,-1.5,0.6000000000000001,2.0,7.800000000000001,3.6000000000000005,20.2,-17.5,16
551,9375.0,-0.5,-0.6000000000000001,-2.0,0.1,1.9000000000000001,7.4,-0.7,20.1,-16.0,16
552,9392.0,-0.6000000000000001,-0.5,-2.0,0.0,2.0,7.4,0.30000000000000004,11.1,-10.9,16
553,9409.0,-0.4,-0.2,-1.5,0.2,2.3000000000000003,7.800000000000001,3.6000000000000005,3.7000000000000006,-5.8,16
554,9426.0,-0.2,-0.2,-1.2000000000000002,0.5,2.4000000000000004,8.1,7.9,3.2,-2.9,16
555,9443.0,0.1,0.0,-1.7000000000000002,0.7000000000000001,2.5,7.6000000000000005,8.700000000000001,9.0,-2.2,16
556,9459.0,0.2,0.2,-2.5,0.7000000000000001,2.8000000000000003,7.0,5.500000000000001,12.200000000000001,-2.9,16
557,9476.0,0.2,0.5,-2.9000000000000004,0.7000000000000001,3.0,6.5,-0.5,10.600000000000001,-4.300000000000001,16
558,9493.0,0.2,0.7000000000000001,-2.6,0.7000000000000001,3.3000000000000003,6.800000000000001,-6.600000000000001,2.1,-5.9,16
559,9510.0,0.4,0.8,-1.3,0.9,3.3000000000000003,8.0,-8.8,-4.9,-8.0,16
560,9525.0,0.30000000000000004,0.7000000000000001,-0.4,0.8,3.2,8.8,-8.5,-5.500000000000001,-10.4,16
561,9545.0,0.2,0.6000000000000001,0.0,0.7000000000000001,3.1,9.4,-6.9,-0.7,-10.9,16
562,9560.0,0.2,0.5,0.4,0.6000000000000001,3.0,9.8,-3.0,8.0,-9.4,16
563,9577.0,0.1,0.6000000000000001,0.2,0.5,3.1,9.600000000000001,2.9,15.8,-7.300000000000001,16
564,9592.0,0.0,0.6000000000000001,-0.30000000000000004,0.4,3.2,8.700000000000001,7.6,18.6,-6.2,16
565,9609.0,-0.2,0.4,-1.4000000000000001,0.2,2.9000000000000004,7.9,7.0,15.100000000000001,-4.300000000000001,16
566,9625.0,-0.30000000000000004,0.2,-1.4000000000000001,0.1,2.8000000000000003,7.9,3.6000000000000005,8.100000000000001,-0.1,16
567,9642.0,0.1,0.30000000000000004,-0.4,0.30000000000000004,2.8000000000000003,8.700000000000001,1.3,-2.9,4.7,16
568,9658.0,0.4,0.4,0.4,0.9,3.1,9.8,2.3,-12.100000000000001,7.400000000000001,16
569,9677.0,1.0,0.6000000000000001,1.2000000000000002,1.4000000000000001,3.2,10.5,2.7,-18.1,6.300000000000001,16
570,9692.0,1.2000000000000002,0.6000000000000001,2.1,1.7000000000000002,3.2,11.3,0.9000000000000001,-19.200000000000003,3.5,16
571,9708.0,1.4000000000000001,0.6000000000000001,2.7,2.0,3.2,12.0,0.1,-10.0,0.1,16
572,9727.0,1.4000000000000001,0.5,2.3000000000000003,1.8,3.1,11.5,-0.9000000000000001,2.5,-5.6,16
573,9745.0,0.9,0.6000000000000001,1.1,1.4000000000000001,3.2,10.5,-7.300000000000001,7.6,-10.8,16
574,9764.0,0.4,0.4,1.1,1.0,3.1,10.4,-14.400000000000002,4.4,-14.5,16
575,9777.0,0.1,0.30000000000000004,1.4000000000000001,0.5,2.7,10.9,-16.0,-1.0,-15.399999999999999,16
576,9793.0,-0.2,-0.1,1.7000000000000002,0.2,2.4000000000000004,11.200000000000001,-12.5,-3.3000000000000007,-12.9,16
577,9808.0,-0.4,-0.30000000000000004,1.4000000000000001,0.1,2.2,10.9,-6.1000000000000005,-3.7000000000000006,-9.700000000000001,16
578,9825.0,-0.5,-0.5,1.0,-0.1,1.9000000000000001,10.200000000000001,-1.6,-1.9,-5.2,16
579,9842.0,-0.6000000000000001,-0.7000000000000001,0.2,-0.2,1.8,9.600000000000001,-1.6,-1.4,0.5,16
580,9859.0,-0.6000000000000001,-0.6000000000000001,-0.30000000000000004,-0.1,1.9000000000000001,9.200000000000001,-3.5,-5.0,4.9,16
581,9877.0,-0.30000000000000004,-0.4,-0.1,0.2,2.0,9.3,-6.500000000000001,-12.100000000000001,7.1000000000000005,16
582,9892.0,-0.1,-0.30000000000000004,0.30000000000000004,0.5,2.0,9.8,-8.4,-15.5,6.500000000000001,16
583,9910.0,-0.1,-0.5,0.7000000000000001,0.5,1.9000000000000001,10.100000000000001,-9.100000000000001,-12.8,4.9,16
584,9925.0,-0.2,-0.8,0.5,0.4,1.6,10.0,-9.700000000000001,-6.4,4.800000000000001,16
585,9943.0,-0.30000000000000004,-0.9,0.2,0.30000000000000004,1.4000000000000001,9.600000000000001,-10.200000000000001,-0.9000000000000001,6.4,16
586,9959.0,-0.4,-0.8,-0.2,0.30000000000000004,1.5,9.200000000000001,-10.0,-1.7,8.899999999999999,16
587,9976.0,-0.1,-0.6000000000000001,-0.2,0.5,1.7000000000000002,9.200000000000001,-9.4,-5.2,9.600000000000001,16
588,9992.0,0.0,-0.5,-0.1,0.6000000000000001,1.8,9.600000000000001,-9.4,-5.2,9.600000000000001,16
589,10011.0,-0.1,-0.6000000000000001,0.30000000000000004,0.6000000000000001,1.7000000000000002,9.8,-7.300000000000001,-1.6,7.1000000000000005,16
590,10025.0,-0.1,-0.7000000000000001,0.1,0.5,1.4000000000000001,9.600000000000001,-3.5,4.9,6.8,16
591,10042.0,-0.30000000000000004,-1.0,-0.8,0.4,1.2000000000000002,8.9,1.1,10.700000000000001,7.8,16
592,10059.0,-0.30000000000000004,-0.9,-1.4000000000000001,0.30000000000000004,1.3,7.800000000000001,4.1,11.6,9.5,16
593,10075.0,-0.30000000000000004,-0.8,-2.5,0.30000000000000004,1.4000000000000001,7.0,2.8,4.5,10.5,16
594,10092.0,-0.1,-0.6000000000000001,-2.5,0.5,1.6,7.0,-0.30000000000000004,-4.800000000000001,10.600000000000001,16
595,10109.0,0.0,-0.4,-2.2,0.8,1.8,7.4,-0.30000000000000004,-4.800000000000001,10.600000000000001,16
596,10125.0,0.1,-0.30000000000000004,-1.6,0.8,1.8,7.9,-5.7,-13.5,4.4,16
597,10143.0,0.1,-0.30000000000000004,-1.1,0.9,1.8,8.3,-8.700000000000001,-10.200000000000001,0.1,16
598,10160.0,0.0,-0.4,-0.9,0.7000000000000001,1.7000000000000002,8.5,-12.8,-4.300000000000001,-2.5,16
599,10176.0,-0.1,-0.4,-0.8,0.6000000000000001,1.7000000000000002,8.6,-16.3,1.1,-2.9,16
600,10192.0,-0.2,-0.2,-0.8,0.5,1.8,8.6,-16.700000000000003,1.4,-2.9,16
601,10211.0,-0.2,-0.1,-0.7000000000000001,0.5,1.8,8.700000000000001,-13.8,-1.1,-2.3,16
602,10226.0,-0.30000000000000004,-0.1,-0.9,0.5,1.8,8.6,-9.700000000000001,-4.7,-1.9,16
603,10242.0,-0.30000000000000004,-0.1,-1.0,0.5,1.8,8.5,-9.4,-7.500000000000001,-0.6000000000000001,16
604,10258.0,0.0,0.0,-0.8,0.8,1.8,8.6,-12.5,-9.0,0.4,16
605,10276.0,0.30000000000000004,0.0,-0.30000000000000004,1.1,1.8,9.0,-16.200000000000003,-9.3,0.5,16
606,10292.0,0.6000000000000001,0.0,-0.1,1.5,1.8,9.4,-19.5,-8.600000000000001,-0.9000000000000001,16
607,10309.0,1.0,0.1,0.1,1.8,1.8,9.5,-23.6,-8.5,-4.0,16
608,10325.0,1.3,0.2,0.30000000000000004,2.2,1.8,9.700000000000001,-29.300000000000004,-11.1,-8.8,16
609,10344.0,1.5,0.1,0.8,2.5,1.6,10.100000000000001,-35.2,-13.5,-14.5,16
610,10362.0,1.5,0.1,0.9,2.4000000000000004,1.4000000000000001,10.4,-39.599999999999994,-17.0,-19.799999999999997,16
611,10375.0,1.0,-0.1,1.3,2.1,1.2000000000000002,10.8,-43.1,-23.6,-23.2,16
612,10392.0,0.9,-0.1,1.7000000000000002,1.9000000000000001,1.0,11.5,-43.1,-23.6,-23.2,16
613,10411.0,0.4,0.0,3.2,1.7000000000000002,0.9,12.4,-51.2,-29.400000000000002,-25.1,16
614,10426.0,0.1,-0.1,3.8000000000000003,1.4000000000000001,0.8,13.5,-49.0,-26.9,-23.099999999999998,16
615,10442.0,-0.30000000000000004,-0.2,5.2,1.1,0.6000000000000001,14.8,-37.6,-17.300000000000004,-18.1,16
616,10470.0,-0.5,-0.7000000000000001,3.6,0.8,0.1,12.9,3.9,12.299999999999999,0.30000000000000004,16
617,10475.0,-0.5,-0.7000000000000001,3.6,0.8,0.1,12.9,3.9,12.299999999999999,0.30000000000000004,16
618,10492.0,-0.2,-0.6000000000000001,0.7000000000000001,1.0,0.30000000000000004,10.4,15.899999999999999,11.8,10.200000000000001,16
619,10510.0,0.8,-0.1,-0.6000000000000001,1.9000000000000001,0.7000000000000001,9.200000000000001,19.799999999999997,0.0,16.5,16
620,10526.0,1.4000000000000001,0.30000000000000004,-0.6000000000000001,2.9000000000000004,1.3,9.1,19.9,-15.000000000000002,15.700000000000001,16
621,10542.0,2.1,0.8,-0.1,3.5,1.8,9.600000000000001,19.700000000000003,-24.5,7.6,16
622,10558.0,2.1,1.0,0.30000000000000004,3.6,2.0,9.9,18.8,-24.3,-4.4,16
623,10575.0,1.9000000000000001,0.9,0.2,3.2,2.0,9.700000000000001,18.8,-24.3,-4.4,16
624,10593.0,1.2000000000000002,0.7000000000000001,-0.30000000000000004,2.6,1.8,9.3,7.699999999999999,-0.6000000000000001,-27.2,16
625,10608.0,0.6000000000000001,0.6000000000000001,-0.8,2.1,1.7000000000000002,8.9,2.2,10.600000000000001,-34.0,16
626,10625.0,0.1,0.4,-1.0,1.6,1.6,8.700000000000001,0.0,16.8,-37.400000000000006,16
627,10644.0,-0.1,0.30000000000000004,-1.1,1.2000000000000002,1.4000000000000001,8.6,2.3,16.700000000000003,-37.2,16
628,10659.0,-0.30000000000000004,0.2,-1.2000000000000002,1.0,1.4000000000000001,8.4,7.9,12.8,-34.60000000000001,16
629,10675.0,-0.30000000000000004,0.2,-1.5,1.0,1.5,8.200000000000001,13.5,9.100000000000001,-31.6,16
630,10692.0,-0.30000000000000004,0.2,-1.6,1.0,1.6,7.9,13.5,9.100000000000001,-31.6,16
631,10708.0,-0.30000000000000004,0.4,-1.8,1.0,1.8,7.800000000000001,17.0,5.8,-25.7,16
632,10725.0,-0.1,0.5,-1.7000000000000002,1.1,1.9000000000000001,7.800000000000001,16.6,7.0,-23.700000000000003,16
633,10742.0,0.0,0.5,-1.7000000000000002,1.1,2.1,7.800000000000001,16.3,7.9,-22.4,16
634,10759.0,0.0,0.6000000000000001,-1.7000000000000002,1.1,2.2,7.800000000000001,16.1,7.9,-21.200000000000003,16
635,10776.0,-0.1,0.6000000000000001,-1.7000000000000002,1.0,2.3000000000000003,7.9,15.299999999999999,6.699999999999999,-19.799999999999997,16
636,10792.0,0.0,0.7000000000000001,-1.2000000000000002,1.0,2.4000000000000004,8.200000000000001,14.0,6.699999999999999,-19.1,16
637,10809.0,-0.1,0.6000000000000001,-1.0,0.9,2.3000000000000003,8.6,14.0,6.699999999999999,-19.1,16
638,10825.0,-0.2,0.5,-0.6000000000000001,0.8,2.3000000000000003,9.0,11.8,9.0,-16.1,16
639,10842.0,-0.2,0.30000000000000004,0.0,0.8,2.1,9.5,13.399999999999999,9.5,-12.5,16
640,10858.0,-0.30000000000000004,0.2,0.30000000000000004,0.7000000000000001,2.0,9.700000000000001,16.3,9.4,-8.0,16
641,10878.0,-0.30000000000000004,0.0,0.4,0.6000000000000001,2.0,9.8,19.200000000000003,7.200000000000001,-2.5,16
642,10893.0,-0.30000000000000004,0.0,0.4,0.6000000000000001,2.0,9.8,21.6,3.9,3.5,16
643,10911.0,-0.1,-0.1,0.5,0.8,1.9000000000000001,10.0,22.2,1.9,8.899999999999999,16
644,10925.0,0.0,-0.1,0.4,1.0,2.0,9.700000000000001,19.0,0.8,13.100000000000001,16
645,10942.0,0.4,0.0,0.2,1.3,2.2,9.600000000000001,11.4,-1.7,15.000000000000002,16
646,10958.0,0.7000000000000001,0.4,0.30000000000000004,1.7000000000000002,2.5,9.700000000000001,1.4,-8.899999999999999,14.400000000000002,16
647,10978.0,0.8,0.8,1.5,1.8,2.8000000000000003,10.600000000000001,-10.200000000000001,-21.400000000000002,12.0,16
648,10992.0,0.8,0.9,2.4000000000000004,1.9000000000000001,3.0,12.3,-19.300000000000004,-32.5,8.899999999999999,16
649,11009.0,0.4,0.9,4.7,1.6,2.8000000000000003,14.3,-19.9,-34.7,5.7,16
650,11026.0,-0.4,0.2,6.2,1.0,2.2,15.600000000000001,-10.9,-21.0,6.699999999999999,16
651,11045.0,-1.1,-0.6000000000000001,5.0,0.4,1.6,15.100000000000001,4.1,5.9,13.000000000000002,16
652,11058.0,-1.3,-0.8,3.3000000000000003,-0.1,1.2000000000000002,12.5,17.6,26.9,23.3,16
653,11075.0,-1.6,-0.8,0.0,-0.5,1.2000000000000002,9.700000000000001,25.300000000000004,28.700000000000003,33.800000000000004,16
654,11092.0,-1.5,-0.7000000000000001,-1.8,-0.4,1.3,8.0,27.2,16.5,43.4,16
655,11109.0,-1.3,-0.6000000000000001,-2.0,-0.1,1.7000000000000002,7.6000000000000005,26.300000000000004,-1.9,50.2,16
656,11125.0,-0.9,-0.2,-1.8,0.4,2.0,7.7,25.300000000000004,-20.3,52.2,16
657,11142.0,-0.6000000000000001,-0.1,-0.9,0.8,2.1,8.4,23.400000000000002,-32.9,50.900000000000006,16
658,11159.0,-0.4,-0.2,-0.30000000000000004,1.1,2.1,9.3,22.2,-35.4,48.10000000000001,16
659,11175.0,-0.4,-0.2,0.4,1.2000000000000002,2.1,9.8,23.0,-30.000000000000004,44.7,16
660,11192.0,-0.5,-0.30000000000000004,0.30000000000000004,1.2000000000000002,2.0,9.700000000000001,24.5,-22.5,40.9,16
661,11210.0,-0.7000000000000001,-0.6000000000000001,-0.1,1.0,1.9000000000000001,9.3,26.200000000000003,-13.399999999999999,38.0,16
662,11225.0,-0.8,-0.8,-0.5,0.9,1.6,8.700000000000001,28.500000000000004,-5.7,36.0,16
663,11242.0,-0.9,-1.0,-1.4000000000000001,0.9,1.5,7.9,29.0,-2.5,35.699999999999996,16
664,11258.0,-0.9,-1.1,-1.6,0.9,1.5,7.4,29.0,-2.5,35.699999999999996,16
665,11275.0,-0.8,-1.0,-2.2,1.1,1.6,7.0,29.0,-5.2,33.800000000000004,16
666,11293.0,-0.7000000000000001,-1.0,-2.5,1.2000000000000002,1.7000000000000002,6.7,26.200000000000003,-8.5,30.5,16
667,11308.0,-0.6000000000000001,-0.9,-2.4000000000000004,1.3,1.8,6.7,21.0,-9.4,25.900000000000002,16
668,11325.0,-0.5,-0.9,-2.3000000000000003,1.5,1.8,6.800000000000001,14.5,-7.699999999999999,20.2,16
669,11342.0,-0.5,-0.9,-2.2,1.5,1.9000000000000001,6.9,7.200000000000001,-4.9,13.700000000000001,16
670,11359.0,-0.6000000000000001,-0.9,-2.0,1.4000000000000001,1.9000000000000001,7.0,0.7,-2.8,7.400000000000001,16
671,11375.0,-0.9,-1.0,-1.9000000000000001,1.2000000000000002,1.8,7.1000000000000005,-5.2,-2.8,2.2,16
672,11392.0,-1.1,-0.9,-1.5,0.9,1.7000000000000002,7.800000000000001,-9.2,-4.4,-0.2,16
673,11409.0,-1.2000000000000002,-1.0,-0.6000000000000001,0.8,1.6,8.5,-8.700000000000001,-3.1,-0.7,16
674,11425.0,-1.2000000000000002,-1.1,-0.5,0.8,1.5,8.6,-6.300000000000001,0.1,-0.1,16
675,11442.0,-1.1,-1.2000000000000002,-1.0,0.8,1.4000000000000001,8.200000000000001,-7.0,1.9,1.1,16
676,11459.0,-1.0,-1.1,-1.1,1.1,1.5,8.0,-12.7,-1.7,2.5,16
677,11475.0,-0.4,-0.7000000000000001,-0.5,1.7000000000000002,1.8,8.5,-19.1,-9.8,2.4000000000000004,16
678,11492.0,0.6000000000000001,-0.4,0.8,2.5,2.0,9.600000000000001,-24.5,-16.200000000000003,-0.8,16
679,11508.0,1.0,-0.2,1.4000000000000001,3.2,2.2,10.700000000000001,-29.500000000000004,-14.100000000000001,-7.400000000000001,16
680,11525.0,1.6,0.1,2.0,3.8000000000000003,2.4000000000000004,11.100000000000001,-35.4,-2.4000000000000004,-18.3,16
681,11542.0,2.0,0.30000000000000004,1.6,4.1000000000000005,2.4000000000000004,10.9,-43.300000000000004,12.0,-32.300000000000004,16
682,11559.0,1.9000000000000001,0.2,1.1,3.6,2.2,10.0,-43.300000000000004,12.0,-32.300000000000004,16
683,11578.0,1.1,-0.1,0.2,2.9000000000000004,1.9000000000000001,9.5,-61.599999999999994,15.2,-53.0,16
684,11593.0,0.30000000000000004,0.1,0.5,2.2,1.9000000000000001,9.8,-70.2,-2.2,-56.0,16
685,11610.0,0.2,0.30000000000000004,3.2,2.1,1.9000000000000001,12.100000000000001,-74.80000000000001,-17.300000000000004,-56.6,16
686,11626.0,-0.1,0.4,4.6000000000000005,1.7000000000000002,1.7000000000000002,14.5,-68.60000000000001,-17.5,-56.6,16
687,11642.0,-0.7000000000000001,0.0,6.4,1.1,1.2000000000000002,15.9,-52.400000000000006,-1.9,-53.10000000000001,16
688,11661.0,-1.7000000000000002,-0.8,5.9,0.2,0.6000000000000001,15.5,-32.0,20.3,-42.0,16
689,11677.0,-2.1,-1.1,3.2,-0.4,0.2,13.5,-12.600000000000001,35.699999999999996,-23.400000000000002,16
690,11693.0,-2.0,-1.0,2.0,-0.30000000000000004,0.30000000000000004,11.4,2.6,30.200000000000003,-2.3,16
691,11710.0,-1.1,-0.7000000000000001,0.8,0.5,0.5,10.4,14.900000000000002,12.4,15.100000000000001,16
692,11725.0,-0.1,-0.4,0.7000000000000001,1.4000000000000001,0.9,10.3,24.200000000000003,-3.8,26.300000000000004,16
693,11742.0,0.30000000000000004,-0.2,0.7000000000000001,2.0,1.3,10.4,30.1,-9.4,31.400000000000002,16
694,11759.0,0.7000000000000001,0.2,0.5,2.4000000000000004,1.7000000000000002,10.100000000000001,33.2,-5.6,30.699999999999996,16
695,11775.0,0.9,0.4,-0.4,2.6,2.0,9.3,32.8,1.7,26.400000000000006,16
696,11792.0,0.8,0.4,-0.9,2.5,2.0,8.5,32.8,1.7,26.400000000000006,16
697,11808.0,0.7000000000000001,0.30000000000000004,-1.5,2.3000000000000003,1.9000000000000001,8.0,24.0,12.9,16.1,16
698,11825.0,0.6000000000000001,0.30000000000000004,-1.9000000000000001,2.2,2.0,7.7,19.799999999999997,13.399999999999999,12.5,16
699,11842.0,0.6000000000000001,0.4,-1.7000000000000002,2.2,2.2,7.800000000000001,17.9,12.8,9.3,16
700,11858.0,0.8,0.4,-1.6,2.3000000000000003,2.2,8.0,18.1,13.3,5.500000000000001,16
701,11876.0,0.8,0.4,-1.6,2.3000000000000003,2.3000000000000003,7.9,19.0,15.5,1.1,16
702,11892.0,0.8,0.4,-1.8,2.2,2.3000000000000003,7.5,19.0,15.5,1.1,16
703,11909.0,0.5,0.30000000000000004,-2.2,2.0,2.3000000000000003,7.300000000000001,16.200000000000003,17.5,-6.1000000000000005,16
704,11927.0,0.4,0.4,-2.0,1.8,2.4000000000000004,7.4,14.300000000000002,15.899999999999999,-7.6,16
705,11943.0,0.5,0.5,-1.8,1.8,2.6,7.6000000000000005,14.5,13.8,-9.2,16
706,11966.0,0.4,0.5,-1.6,1.7000000000000002,2.7,7.800000000000001,14.800000000000002,12.4,-11.2,16
707,11975.0,0.30000000000000004,0.6000000000000001,-1.5,1.5,2.7,8.0,14.5,13.100000000000001,-12.7,16
708,11992.0,0.1,0.6000000000000001,-1.2000000000000002,1.3,2.8000000000000003,8.3,14.300000000000002,16.0,-13.6,16
709,12009.0,0.0,0.8,-0.8,1.2000000000000002,3.0,8.5,15.2,20.1,-14.5,16
710,12027.0,-0.4,0.7000000000000001,-0.8,0.8,3.1,8.6,18.1,23.400000000000002,-16.0,16
711,12043.0,-0.6000000000000001,0.5,-1.1,0.30000000000000004,2.9000000000000004,8.200000000000001,19.400000000000002,25.7,-15.100000000000001,16
712,12058.0,-1.2000000000000002,0.2,-1.4000000000000001,-0.30000000000000004,2.7,8.0,17.300000000000004,23.5,-10.700000000000001,16
713,12075.0,-1.4000000000000001,-0.2,-0.9,-0.6000000000000001,2.4000000000000004,8.3,14.400000000000002,18.8,-0.8,16
714,12092.0,-1.3,-0.30000000000000004,-0.7000000000000001,-0.4,2.2,8.6,13.8,10.8,12.0,16
715,12109.0,-0.7000000000000001,-0.30000000000000004,-0.5,0.2,2.3000000000000003,8.9,12.299999999999999,-1.5,24.3,16
716,12125.0,0.4,0.2,0.4,1.2000000000000002,2.7,9.600000000000001,9.5,-16.6,32.9,16
717,12142.0,0.9,0.5,0.7000000000000001,2.2,3.3000000000000003,10.5,9.5,-16.6,32.9,16
718,12159.0,1.8,1.2000000000000002,3.0,3.1,3.8000000000000003,12.600000000000001,-5.2,-44.6,30.599999999999998,16
719,12175.0,2.3000000000000003,1.4000000000000001,5.1000000000000005,3.6,3.9000000000000004,14.3,-8.600000000000001,-37.800000000000004,19.6,16
720,12192.0,1.3,0.9,5.6000000000000005,2.9000000000000004,3.5,14.9,-8.100000000000001,-20.1,8.700000000000001,16
721,12211.0,0.8,0.5,5.4,2.0,2.9000000000000004,14.700000000000001,-4.800000000000001,1.6,5.1000000000000005,16
722,12226.0,-0.1,-0.2,4.5,1.2000000000000002,2.3000000000000003,13.8,3.7000000000000006,18.6,8.100000000000001,16
723,12242.0,-0.6000000000000001,-0.7000000000000001,2.5,0.7000000000000001,1.9000000000000001,12.200000000000001,16.3,25.300000000000004,15.5,16
724,12258.0,-0.7000000000000001,-0.9,1.5,0.5,1.7000000000000002,10.4,29.200000000000003,21.6,24.400000000000002,16
725,12275.0,-0.9,-1.1,-0.6000000000000001,0.30000000000000004,1.6,8.700000000000001,35.5,10.8,33.1,16
726,12292.0,-0.8,-0.9,-1.4000000000000001,0.5,1.8,8.0,35.599999999999994,-1.0,40.4,16
727,12309.0,-0.4,-0.8,-1.6,0.8,2.0,7.800000000000001,33.1,-8.899999999999999,43.800000000000004,16
728,12325.0,-0.30000000000000004,-0.7000000000000001,-1.6,1.1,2.2,7.7,28.400000000000002,-12.7,43.1,16
729,12342.0,-0.4,-0.7000000000000001,-1.5,1.1,2.2,7.800000000000001,22.9,-15.6,41.800000000000004,16
730,12359.0,-0.7000000000000001,-0.8,-0.9,0.9,2.2,8.3,19.9,-20.3,41.6,16
731,12376.0,-0.8,-1.0,-0.1,0.9,2.1,8.9,21.8,-26.200000000000003,43.2,16
732,12392.0,-0.8,-1.0,0.30000000000000004,1.0,2.1,9.5,26.700000000000003,-28.1,45.400000000000006,16
733,12408.0,-0.5,-0.9,0.4,1.4000000000000001,2.2,9.5,31.400000000000002,-23.700000000000003,44.9,16
734,12425.0,-0.4,-0.9,0.0,1.6,2.3000000000000003,8.8,31.400000000000002,-23.700000000000003,44.9,16
735,12442.0,-0.2,-0.8,-1.0,1.8,2.4000000000000004,7.9,29.200000000000003,-8.700000000000001,34.50000000000001,16
736,12459.0,-0.30000000000000004,-0.8,-1.5,1.8,2.4000000000000004,7.5,24.400000000000002,-3.9,26.9,16
737,12475.0,-0.5,-1.0,-1.9000000000000001,1.6,2.2,7.2,19.9,-1.7,20.900000000000002,16
738,12492.0,-0.6000000000000001,-1.0,-1.8,1.4000000000000001,2.2,7.1000000000000005,16.900000000000002,-2.2,15.5,16
739,12508.0,-0.9,-1.2000000000000002,-1.8,1.2000000000000002,2.1,7.1000000000000005,15.5,-3.1,12.200000000000001,16
740,12526.0,-0.9,-1.3,-1.9000000000000001,1.2000000000000002,2.0,7.0,13.900000000000002,-3.3000000000000007,10.1,16
741,12545.0,-0.8,-1.2000000000000002,-2.0,1.3,2.1,6.9,11.1,-3.8,7.9,16
742,12559.0,-0.7000000000000001,-1.1,-1.9000000000000001,1.4000000000000001,2.3000000000000003,7.0,6.500000000000001,-3.7000000000000006,4.1,16
743,12575.0,-0.7000000000000001,-0.8,-1.5,1.4000000000000001,2.6,7.4,1.2000000000000002,-2.7,-0.7,16
744,12592.0,-0.6000000000000001,-0.7000000000000001,-0.7000000000000001,1.4000000000000001,2.6,8.0,-1.9,1.5,-5.6,16
745,12609.0,-0.7000000000000001,-0.7000000000000001,-0.5,1.3,2.6,8.3,-1.7,7.200000000000001,-10.5,16
746,12627.0,-0.9,-0.9,-0.8,1.1,2.4000000000000004,7.9,-1.3,12.8,-12.8,16
747,12644.0,-1.0,-1.1,-1.6,0.9,2.3000000000000003,7.300000000000001,-3.8,14.600000000000001,-13.6,16
748,12664.0,-0.9,-0.9,-2.1,0.9,2.4000000000000004,6.800000000000001,-10.8,12.4,-12.4,16
749,12675.0,-0.8,-0.6000000000000001,-1.9000000000000001,1.2000000000000002,2.8000000000000003,7.0,-20.0,5.300000000000001,-12.9,16
750,12692.0,-0.2,0.0,-1.0,1.7000000000000002,3.2,7.9,-28.500000000000004,1.1,-17.300000000000004,16
751,12708.0,0.2,0.30000000000000004,0.1,2.0,3.4000000000000004,8.9,-36.2,4.300000000000001,-25.4,16
752,12726.0,0.2,0.4,0.30000000000000004,1.8,3.4000000000000004,9.3,-44.10000000000001,15.399999999999999,-34.800000000000004,16
753,12742.0,-0.2,0.4,0.1,1.4000000000000001,3.3000000000000003,9.1,-54.300000000000004,25.8,-42.7,16
754,12759.0,-0.5,0.6000000000000001,0.1,1.1,3.3000000000000003,9.200000000000001,-66.5,27.2,-47.7,16
755,12775.0,-0.6000000000000001,0.6000000000000001,0.6000000000000001,0.8,3.2,10.4,-66.5,27.2,-47.7,16
756,12793.0,-0.8,0.5,2.8000000000000003,0.6000000000000001,2.9000000000000004,12.3,-72.0,3.3000000000000007,-45.3,16
757,12811.0,-1.2000000000000002,0.1,4.4,0.1,2.4000000000000004,13.700000000000001,-58.1,-8.0,-36.9,16
758,12827.0,-1.4000000000000001,-0.1,5.4,0.0,2.1,14.600000000000001,-41.300000000000004,-8.5,-23.400000000000002,16
759,12842.0,-1.2000000000000002,0.0,5.4,0.30000000000000004,2.2,14.700000000000001,-26.1,3.3000000000000007,-9.5,16
760,12861.0,-0.7000000000000001,0.4,4.5,0.6000000000000001,2.5,13.8,-14.100000000000001,17.200000000000003,0.2,16
761,12878.0,-0.30000000000000004,0.30000000000000004,3.0,0.9,2.4000000000000004,12.600000000000001,-4.5,23.6,5.9,16
762,12892.0,0.0,-0.2,1.6,1.1,1.9000000000000001,11.4,2.2,22.4,12.299999999999999,16
763,12908.0,0.2,-0.4,1.2000000000000002,1.4000000000000001,1.6,10.700000000000001,7.300000000000001,13.900000000000002,20.3,16
764,12925.0,0.7000000000000001,-0.6000000000000001,1.0,1.8,1.5,10.5,12.4,2.0,27.800000000000004,16
765,12942.0,1.4000000000000001,-0.5,1.2000000000000002,2.5,1.6,10.700000000000001,16.200000000000003,-7.699999999999999,33.400000000000006,16
766,12958.0,1.6,-0.4,1.4000000000000001,3.0,1.9000000000000001,11.0,19.799999999999997,-10.200000000000001,34.7,16
767,12975.0,2.0,-0.2,1.4000000000000001,3.3000000000000003,2.1,10.9,24.599999999999998,-4.2,30.699999999999996,16
768,12992.0,1.6,-0.30000000000000004,0.30000000000000004,2.9000000000000004,2.0,9.9,27.5,6.0,24.900000000000002,16
769,13013.0,1.1,-0.6000000000000001,-1.3,2.5,1.8,8.5,26.300000000000004,16.1,20.5,16
770,13025.0,1.0,-0.6000000000000001,-1.9000000000000001,2.3000000000000003,1.8,7.5,21.7,22.8,18.1,16
771,13042.0,1.0,-0.6000000000000001,-2.6,2.2,1.8,6.9,17.400000000000002,23.400000000000002,16.200000000000003,16
772,13058.0,1.1,-0.5,-2.8000000000000003,2.3000000000000003,1.9000000000000001,6.6000000000000005,14.800000000000002,19.6,14.600000000000001,16
773,13075.0,1.1,-0.5,-2.7,2.4000000000000004,2.0,6.7,14.300000000000002,14.100000000000001,12.600000000000001,16
774,13103.0,1.4000000000000001,-0.30000000000000004,-2.7,2.5,2.3000000000000003,6.5,15.299999999999999,10.299999999999999,9.5,16
775,13110.0,1.4000000000000001,-0.30000000000000004,-2.9000000000000004,2.5,2.3000000000000003,6.5,14.400000000000002,8.8,5.0,16
776,13125.0,1.3,-0.1,-3.1,2.5,2.4000000000000004,6.2,9.600000000000001,9.0,-0.1,16
777,13146.0,1.2000000000000002,0.2,-3.0,2.2,2.9000000000000004,6.7,1.8000000000000003,8.899999999999999,-4.5,16
778,13159.0,1.1,0.4,-2.6,2.2,2.9000000000000004,6.7,-4.4,4.300000000000001,-8.899999999999999,16
779,13176.0,1.0,0.4,-1.5,2.2,3.0,7.6000000000000005,-6.2,-1.0,-12.600000000000001,16
780,13192.0,0.9,0.4,-1.1,2.0,3.0,8.200000000000001,-4.9,-2.7,-14.700000000000001,16
781,13210.0,0.7000000000000001,0.5,-0.7000000000000001,1.8,3.1,8.6,-4.6,-1.6,-15.899999999999999,16
782,13227.0,0.6000000000000001,0.7000000000000001,0.2,1.7000000000000002,3.3000000000000003,9.4,-2.4000000000000004,3.6000000000000005,-16.900000000000002,16
783,13242.0,0.7000000000000001,0.7000000000000001,0.1,1.7000000000000002,3.3000000000000003,9.5,2.9,11.4,-19.300000000000004,16
784,13258.0,0.5,0.7000000000000001,-0.4,1.4000000000000001,3.2,8.700000000000001,4.5,16.0,-21.1,16
785,13275.0,0.0,0.6000000000000001,-1.2000000000000002,1.0,3.2,8.1,-0.2,12.600000000000001,-19.5,16
786,13292.0,-0.4,0.5,-0.7000000000000001,0.6000000000000001,3.1,8.5,-5.6,2.1,-14.0,16
787,13309.0,-0.4,0.6000000000000001,0.1,0.6000000000000001,3.2,9.600000000000001,-6.9,-10.700000000000001,-6.2,16
788,13325.0,0.1,0.8,1.4000000000000001,1.1,3.4000000000000004,10.700000000000001,-5.0,-18.0,-1.0,16
789,13342.0,0.6000000000000001,1.2000000000000002,2.3000000000000003,1.6,3.7,11.5,-3.9,-17.9,1.0,16
790,13359.0,0.9,1.4000000000000001,2.6,2.1,4.1000000000000005,11.9,-3.9,-17.9,1.0,16
791,13375.0,1.3,1.8,2.0,2.3000000000000003,4.4,11.200000000000001,-6.2,-1.3,-9.0,16
792,13395.0,0.9,1.9000000000000001,1.1,2.0,4.4,10.4,-17.1,0.4,-17.0,16
793,13411.0,0.2,1.5,2.3000000000000003,1.4000000000000001,4.1000000000000005,11.3,-28.3,-4.9,-20.400000000000002,16
794,13425.0,0.0,1.3,3.3000000000000003,1.0,3.7,13.100000000000001,-27.3,-11.3,-18.1,16
795,13442.0,-0.4,0.9,5.0,0.7000000000000001,3.3000000000000003,14.5,-11.6,-13.399999999999999,-12.600000000000001,16
796,13458.0,-0.9,0.0,4.5,0.30000000000000004,2.5,14.100000000000001,10.700000000000001,-5.6,-5.300000000000001,16
797,13475.0,-1.3,-0.4,3.1,-0.30000000000000004,2.0,11.700000000000001,10.700000000000001,-5.6,-5.300000000000001,16
798,13492.0,-1.6,-0.6000000000000001,0.2,-0.4,2.0,9.5,27.099999999999998,5.9,16.900000000000002,16
799,13510.0,-1.2000000000000002,-0.30000000000000004,-0.8,0.0,2.3000000000000003,8.700000000000001,25.6,-4.300000000000001,26.400000000000006,16
800,13529.0,-0.6000000000000001,-0.1,-0.30000000000000004,0.5,2.6,9.0,26.300000000000004,-20.1,32.0,16
801,13547.0,-0.2,-0.2,0.6000000000000001,1.0,2.6,9.700000000000001,30.5,-31.0,34.1,16
802,13561.0,-0.1,-0.30000000000000004,0.8,1.3,2.5,10.100000000000001,35.1,-33.400000000000006,34.0,16
803,13575.0,0.0,-0.5,0.6000000000000001,1.5,2.5,9.9,37.300000000000004,-30.699999999999996,32.5,16
804,13592.0,0.0,-0.5,0.4,1.7000000000000002,2.6,9.600000000000001,37.300000000000004,-30.699999999999996,32.5,16
805,13608.0,0.2,-0.4,0.2,1.9000000000000001,2.7,9.4,33.7,-23.5,24.0,16
806,13628.0,0.0,-0.6000000000000001,0.30000000000000004,1.8,2.6,9.4,33.7,-21.0,17.7,16
807,13646.0,-0.1,-1.0,0.0,1.7000000000000002,2.4000000000000004,9.200000000000001,35.3,-16.4,12.299999999999999,16
808,13659.0,-0.2,-1.0,-0.2,1.7000000000000002,2.2,8.8,35.599999999999994,-10.5,7.699999999999999,16
809,13675.0,-0.4,-1.3,-0.8,1.5,2.1,8.200000000000001,35.2,-4.9,3.3000000000000007,16
810,13693.0,-0.5,-1.6,-1.4000000000000001,1.4000000000000001,1.9000000000000001,7.7,34.1,-0.30000000000000004,0.1,16
811,13708.0,-0.6000000000000001,-1.7000000000000002,-1.9000000000000001,1.2000000000000002,1.9000000000000001,6.9,31.3,0.9000000000000001,-2.9,16
812,13726.0,-0.7000000000000001,-1.7000000000000002,-2.3000000000000003,1.2000000000000002,1.9000000000000001,6.5,27.2,-1.5,-4.7,16
813,13742.0,-0.6000000000000001,-1.7000000000000002,-2.4000000000000004,1.3,2.0,6.4,22.8,-5.500000000000001,-6.600000000000001,16
814,13758.0,-0.5,-1.6,-2.3000000000000003,1.5,2.1,6.6000000000000005,22.8,-5.500000000000001,-6.600000000000001,16
815,13775.0,-0.30000000000000004,-1.5,-2.1,1.6,2.3000000000000003,6.800000000000001,12.600000000000001,-7.400000000000001,-12.9,16
816,13793.0,-0.2,-1.3,-1.8,1.7000000000000002,2.4000000000000004,7.0,7.300000000000001,-4.2,-17.799999999999997,16
817,13814.0,-0.4,-1.4000000000000001,-1.7000000000000002,1.5,2.4000000000000004,7.1000000000000005,2.1,-0.4,-23.0,16
818,13825.0,-0.5,-1.4000000000000001,-1.6,1.2000000000000002,2.4000000000000004,7.2,-2.2,2.5,-26.000000000000004,16
819,13842.0,-0.8,-1.4000000000000001,-1.4000000000000001,0.9,2.4000000000000004,7.300000000000001,-4.6,3.7000000000000006,-25.8,16
820,13859.0,-1.0,-1.3,-1.4000000000000001,0.7000000000000001,2.4000000000000004,7.300000000000001,-5.2,3.9,-24.5,16
821,13875.0,-1.2000000000000002,-1.3,-1.6,0.5,2.4000000000000004,7.2,-5.8,0.9000000000000001,-21.900000000000002,16
822,13896.0,-1.0,-1.4000000000000001,-1.8,0.6000000000000001,2.3000000000000003,7.0,-8.899999999999999,-4.300000000000001,-17.5,16
823,13909.0,-0.8,-1.3,-1.7000000000000002,0.9,2.4000000000000004,7.1000000000000005,-15.100000000000001,-11.2,-12.600000000000001,16
824,13925.0,-0.1,-0.9,-1.1,1.6,2.6,7.6000000000000005,-23.800000000000004,-18.1,-10.0,16
825,13941.0,0.30000000000000004,-0.6000000000000001,-0.6000000000000001,2.2,3.0,8.4,-34.300000000000004,-22.1,-11.000000000000002,16
826,13959.0,0.9,0.0,0.6000000000000001,2.8000000000000003,3.4000000000000004,9.5,-43.70000000000001,-20.3,-17.300000000000004,16
827,13975.0,1.4000000000000001,0.30000000000000004,1.6,3.2,3.5,10.4,-50.5,-10.5,-28.3,16
828,13992.0,0.9,-0.2,1.1,2.8000000000000003,3.1,10.200000000000001,-55.7,2.3,-39.2,16
829,14016.0,-0.2,-0.6000000000000001,0.0,1.9000000000000001,2.6,9.3,-62.1,4.300000000000001,-43.00000000000001,16
830,14025.0,-0.30000000000000004,-0.4,0.30000000000000004,1.4000000000000001,2.4000000000000004,9.4,-70.10000000000001,-9.5,-39.599999999999994,16
831,14043.0,0.0,0.2,2.8000000000000003,1.7000000000000002,2.8000000000000003,11.5,-73.4,-24.400000000000002,-35.699999999999996,16
832,14061.0,-0.2,0.4,5.4,1.7000000000000002,2.9000000000000004,13.9,-67.00000000000001,-27.700000000000003,-35.3,16
833,14075.0,-0.4,0.2,6.2,1.3,2.5,15.4,-50.1,-11.900000000000002,-33.6,16
834,14093.0,-1.3,-0.6000000000000001,5.5,0.5,1.8,14.9,-30.599999999999998,13.6,-25.5,16
835,14109.0,-1.8,-1.0,2.7,-0.1,1.3,12.700000000000001,-14.5,32.2,-8.8,16
836,14126.0,-1.6,-0.9,1.6,0.1,1.4000000000000001,10.8,-2.7,28.400000000000002,11.6,16
837,14143.0,-0.6000000000000001,-0.6000000000000001,0.7000000000000001,1.0,1.7000000000000002,10.100000000000001,11.1,7.9,28.3,16
838,14161.0,0.8,-0.2,0.4,2.2,2.0,9.8,23.700000000000003,-14.600000000000001,39.2,16
839,14178.0,1.9000000000000001,0.4,0.4,3.4000000000000004,2.6,9.700000000000001,30.699999999999996,-28.600000000000005,41.7,16
840,14192.0,2.2,0.7000000000000001,0.2,4.1000000000000005,3.2,9.5,31.3,-31.0,34.7,16
841,14209.0,2.3000000000000003,0.9,-0.2,4.3,3.5,9.1,26.200000000000003,-25.200000000000003,22.2,16
842,14225.0,2.2,0.9,-0.5,4.1000000000000005,3.5,8.700000000000001,26.200000000000003,-25.200000000000003,22.2,16
843,14242.0,1.7000000000000002,0.8,-0.7000000000000001,3.7,3.4000000000000004,8.5,9.3,-2.6,-3.7000000000000006,16
844,14258.0,1.3,0.5,-0.9,3.3000000000000003,3.2,8.3,4.4,9.3,-13.399999999999999,16
845,14275.0,0.8,0.30000000000000004,-1.4000000000000001,2.9000000000000004,3.0,7.9,2.5,18.4,-20.2,16
846,14292.0,0.7000000000000001,0.2,-1.7000000000000002,2.5,2.9000000000000004,7.300000000000001,2.7,23.900000000000006,-24.200000000000003,16
847,14309.0,0.30000000000000004,0.1,-2.5,2.0,2.8000000000000003,6.7,2.8,23.400000000000002,-25.8,16
848,14325.0,-0.1,0.1,-3.0,1.6,2.9000000000000004,6.2,1.7,18.200000000000003,-24.7,16
849,14342.0,-0.2,0.2,-3.0,1.5,3.0,6.300000000000001,1.7,18.200000000000003,-24.7,16
850,14359.0,-0.1,0.4,-2.7,1.5,3.1,6.6000000000000005,0.7,2.6,-20.0,16
851,14375.0,-0.1,0.5,-2.1,1.6,3.2,7.0,0.4,-0.5,-18.6,16
852,14392.0,-0.1,0.5,-1.9000000000000001,1.6,3.4000000000000004,7.4,0.4,-0.5,-18.6,16
853,14409.0,-0.1,0.7000000000000001,-1.5,1.5,3.5,7.7,-0.6000000000000001,3.1,-17.6,16
854,14429.0,-0.2,0.6000000000000001,-1.2000000000000002,1.4000000000000001,3.5,7.9,-1.8000000000000003,6.699999999999999,-15.899999999999999,16
855,14442.0,-0.1,0.8,-0.7000000000000001,1.4000000000000001,3.6,8.4,-1.8000000000000003,10.700000000000001,-13.8,16
856,14458.0,-0.1,0.9,-0.4,1.4000000000000001,3.7,8.700000000000001,-1.8000000000000003,10.700000000000001,-13.8,16
857,14475.0,-0.2,0.7000000000000001,-0.5,1.1,3.5,8.700000000000001,4.7,15.2,-11.3,16
858,14492.0,-0.7000000000000001,0.30000000000000004,-0.5,0.7000000000000001,3.2,8.6,4.9,16.4,-7.300000000000001,16
859,14508.0,-1.0,0.0,-0.30000000000000004,0.4,2.9000000000000004,8.8,3.5,17.1,-0.5,16
860,14528.0,-0.9,-0.2,-0.2,0.30000000000000004,2.7,8.9,3.2,15.899999999999999,7.8,16
861,14542.0,-0.8,-0.30000000000000004,-0.1,0.5,2.6,9.0,1.6,11.900000000000002,16.0,16
862,14558.0,-0.2,-0.30000000000000004,0.1,1.0,2.6,9.200000000000001,-1.7,4.300000000000001,23.2,16
863,14575.0,0.2,0.0,0.5,1.7000000000000002,3.1,10.0,-1.7,4.300000000000001,23.2,16
864,14592.0,0.7000000000000001,0.7000000000000001,2.1,2.2,3.5,11.4,-8.8,-21.400000000000002,27.800000000000004,16
865,14608.0,1.0,0.9,3.4000000000000004,2.5,3.6,12.5,-9.899999999999999,-25.0,24.1,16
866,14625.0,0.9,0.7000000000000001,4.2,2.5,3.5,13.4,-9.700000000000001,-15.899999999999999,18.4,16
867,14642.0,0.6000000000000001,0.5,4.1000000000000005,2.0,3.1,13.200000000000001,-8.4,0.4,14.100000000000001,16
868,14658.0,-0.1,0.2,3.2,1.5,2.9000000000000004,12.5,-6.2,12.100000000000001,14.0,16
869,14676.0,-0.4,0.0,2.4000000000000004,1.1,2.7,11.700000000000001,-0.7,16.6,16.3,16
870,14692.0,-0.6000000000000001,-0.1,1.8,0.8,2.5,10.8,-0.7,16.6,16.3,16
871,14708.0,-0.8,-0.4,0.5,0.6000000000000001,2.3000000000000003,9.600000000000001,13.3,15.899999999999999,24.200000000000003,16
872,14725.0,-1.0,-0.5,-0.9,0.5,2.3000000000000003,8.4,14.400000000000002,11.900000000000002,28.700000000000003,16
873,14742.0,-0.9,-0.4,-1.4000000000000001,0.6000000000000001,2.3000000000000003,7.9,11.1,4.7,32.400000000000006,16
874,14758.0,-0.8,-0.30000000000000004,-1.5,0.7000000000000001,2.4000000000000004,7.9,6.500000000000001,-6.300000000000001,35.4,16
875,14775.0,-0.6000000000000001,-0.2,-0.4,0.9,2.6,8.9,3.9,-18.0,38.1,16
876,14792.0,-0.30000000000000004,-0.1,1.2000000000000002,1.4000000000000001,2.7,10.3,6.699999999999999,-23.400000000000002,39.400000000000006,16
877,14808.0,-0.1,0.0,1.7000000000000002,1.7000000000000002,2.8000000000000003,11.0,6.699999999999999,-23.400000000000002,39.400000000000006,16
878,14825.0,0.1,0.0,1.6,1.9000000000000001,2.8000000000000003,10.8,17.5,-13.000000000000002,34.1,16
879,14842.0,0.0,0.0,0.9,1.9000000000000001,2.8000000000000003,10.100000000000001,18.3,-6.0,29.0,16
880,14858.0,-0.1,-0.2,0.5,1.8,2.7,9.700000000000001,18.900000000000002,-2.8,24.1,16
881,14875.0,-0.2,-0.30000000000000004,0.4,1.6,2.6,9.5,21.300000000000004,-0.8,20.3,16
882,14892.0,-0.5,-0.6000000000000001,-0.1,1.4000000000000001,2.3000000000000003,9.0,24.900000000000002,2.3,18.4,16
883,14908.0,-0.5,-0.8,-1.0,1.3,2.2,8.200000000000001,26.5,6.0,17.300000000000004,16
884,14925.0,-0.4,-0.9,-1.7000000000000002,1.4000000000000001,2.2,7.5,26.200000000000003,8.2,16.1,16
885,14942.0,-0.4,-0.9,-2.0,1.4000000000000001,2.2,7.0,25.6,8.4,14.300000000000002,16
886,14958.0,-0.4,-0.9,-2.5,1.4000000000000001,2.3000000000000003,6.6000000000000005,23.0,6.8,12.9,16
887,14975.0,-0.30000000000000004,-0.8,-2.8000000000000003,1.5,2.4000000000000004,6.300000000000001,19.0,4.2,11.5,16
888,14992.0,-0.2,-0.7000000000000001,-2.8000000000000003,1.7000000000000002,2.5,6.2,13.5,1.1,8.899999999999999,16
889,15008.0,0.0,-0.5,-2.5,1.9000000000000001,2.8000000000000003,6.5,8.2,-0.9000000000000001,5.2,16
890,15026.0,0.0,-0.30000000000000004,-1.9000000000000001,1.9000000000000001,2.9000000000000004,7.0,5.300000000000001,-2.1,0.4,16
891,15042.0,-0.1,-0.4,-1.7000000000000002,1.8,2.9000000000000004,7.2,3.7000000000000006,-1.0,-3.9,16
892,15058.0,-0.2,-0.4,-1.8,1.7000000000000002,2.9000000000000004,7.1000000000000005,0.7,1.5,-7.300000000000001,16
893,15075.0,-0.4,-0.4,-2.1,1.4000000000000001,2.9000000000000004,6.800000000000001,-3.9,1.5,-9.600000000000001,16
894,15092.0,-0.6000000000000001,-0.5,-2.0,1.2000000000000002,2.8000000000000003,6.800000000000001,-9.899999999999999,-4.1,-9.899999999999999,16
895,15108.0,-0.6000000000000001,-0.5,-1.5,1.4000000000000001,2.7,7.6000000000000005,-15.899999999999999,-12.600000000000001,-7.500000000000001,16
896,15125.0,0.0,-0.4,-0.2,1.9000000000000001,2.8000000000000003,8.700000000000001,-19.200000000000003,-17.5,-5.9,16
897,15141.0,0.30000000000000004,-0.2,0.30000000000000004,2.5,3.1,9.5,-19.200000000000003,-17.5,-5.9,16
898,15159.0,1.0,0.2,0.9,3.1,3.3000000000000003,10.0,-28.600000000000005,-13.8,-14.0,16
899,15175.0,1.3,0.4,1.6,3.3000000000000003,3.4000000000000004,10.600000000000001,-36.2,-5.7,-22.5,16
900,15193.0,1.2000000000000002,0.5,1.9000000000000001,3.2,3.4000000000000004,10.9,-40.800000000000004,4.300000000000001,-32.6,16
901,15209.0,0.30000000000000004,0.1,0.9,2.4000000000000004,2.9000000000000004,10.200000000000001,-45.2,11.700000000000001,-40.800000000000004,16
902,15228.0,-0.1,-0.2,0.5,1.6,2.4000000000000004,9.600000000000001,-52.300000000000004,10.700000000000001,-41.199999999999996,16
903,15250.0,-0.5,-0.1,1.7000000000000002,1.3,2.3000000000000003,11.700000000000001,-58.3,0.2,-36.300000000000004,16
904,15260.0,-0.4,0.0,2.8000000000000003,1.3,2.3000000000000003,11.700000000000001,-58.5,-11.6,-30.200000000000003,16
905,15276.0,-0.5,0.0,3.8000000000000003,1.3,2.3000000000000003,13.600000000000001,-49.6,-18.4,-23.800000000000004,16
906,15292.0,-0.7000000000000001,-0.1,5.6000000000000005,1.2000000000000002,2.1,15.0,-30.599999999999998,-13.200000000000003,-16.0,16
907,15311.0,-0.9,-0.5,5.300000000000001,0.9,1.7000000000000002,14.700000000000001,-7.699999999999999,4.4,-6.2,16
908,15327.0,-1.0,-0.7000000000000001,2.3000000000000003,0.8,1.5,12.3,9.8,21.900000000000002,6.2,16
909,15343.0,-0.7000000000000001,-0.6000000000000001,1.0,1.1,1.6,10.0,18.3,22.9,18.0,16
910,15359.0,0.1,-0.4,-0.6000000000000001,1.8,1.9000000000000001,8.8,22.8,6.699999999999999,26.300000000000004,16
911,15376.0,1.2000000000000002,-0.2,-0.4,2.8000000000000003,2.1,8.9,26.6,-14.400000000000002,30.9,16
912,15392.0,1.8,0.0,0.0,3.8000000000000003,2.6,9.5,30.599999999999998,-27.2,29.400000000000002,16
913,15410.0,2.4000000000000004,0.5,0.1,4.4,3.0,9.3,31.5,-27.700000000000003,19.200000000000003,16
914,15427.0,2.1,0.7000000000000001,-0.7000000000000001,4.2,3.3000000000000003,8.6,26.1,-21.200000000000003,4.6,16
915,15442.0,1.7000000000000002,0.7000000000000001,-1.4000000000000001,3.8000000000000003,3.3000000000000003,8.0,14.200000000000001,-10.1,-10.600000000000001,16
916,15461.0,1.0,0.5,-1.3,3.3000000000000003,3.2,7.800000000000001,0.7,2.8,-24.400000000000002,16
917,15475.0,0.7000000000000001,0.30000000000000004,-1.2000000000000002,2.7,2.9000000000000004,8.0,-7.0,13.900000000000002,-34.900000000000006,16
918,15492.0,-0.1,-0.1,-1.4000000000000001,2.0,2.6,7.9,-8.100000000000001,20.400000000000002,-40.800000000000004,16
919,15508.0,-0.4,-0.30000000000000004,-1.6,1.4000000000000001,2.3000000000000003,7.6000000000000005,-5.8,22.6,-40.9,16
920,15530.0,-0.7000000000000001,-0.5,-1.8,1.0,2.1,7.4,-1.9,21.400000000000002,-37.6,16
921,15549.0,-0.9,-0.6000000000000001,-2.4000000000000004,0.8,2.1,7.0,1.8000000000000003,17.7,-33.0,16
922,15558.0,-0.9,-0.6000000000000001,-2.4000000000000004,0.7000000000000001,2.1,6.6000000000000005,1.8000000000000003,17.7,-33.0,16
923,15575.0,-0.9,-0.5,-2.7,0.7000000000000001,2.2,6.6000000000000005,-0.4,6.9,-20.7,16
924,15592.0,-0.5,-0.2,-1.9000000000000001,1.0,2.5,7.300000000000001,-1.6,1.1,-15.299999999999999,16
925,15608.0,0.1,0.2,-0.9,1.5,2.8000000000000003,8.1,-0.2,-0.7,-13.000000000000002,16
926,15625.0,0.2,0.30000000000000004,-0.7000000000000001,1.8,3.1,8.5,1.2000000000000002,2.9,-13.8,16
927,15642.0,0.4,0.5,-0.6000000000000001,1.8,3.2,8.6,0.8,8.5,-16.0,16
928,15659.0,0.30000000000000004,0.4,-0.6000000000000001,1.7000000000000002,3.1,8.6,-0.1,12.7,-17.200000000000003,16
929,15675.0,0.2,0.4,-0.5,1.5,3.2,8.8,-0.1,12.7,-17.200000000000003,16
930,15693.0,0.0,0.4,-0.30000000000000004,1.3,3.1,8.9,3.1,17.5,-16.4,16
931,15710.0,-0.2,0.2,-0.5,1.0,3.0,8.6,2.9,19.9,-14.900000000000002,16
932,15726.0,-0.6000000000000001,0.0,-0.6000000000000001,0.6000000000000001,2.8000000000000003,8.5,0.1,19.799999999999997,-11.1,16
933,15743.0,-0.9,-0.2,-0.2,0.30000000000000004,2.6,8.9,-2.0,15.5,-4.2,16
934,15759.0,-0.9,-0.30000000000000004,0.1,0.2,2.5,9.3,-1.7,8.4,5.4,16
935,15775.0,-0.5,-0.2,0.7000000000000001,0.6000000000000001,2.6,9.9,-0.8,0.2,15.399999999999999,16
936,15792.0,0.1,0.2,1.1,1.2000000000000002,2.8000000000000003,10.200000000000001,-0.7,-7.0,23.6,16
937,15809.0,0.6000000000000001,0.6000000000000001,1.5,1.9000000000000001,3.4000000000000004,10.8,-3.2,-12.8,26.6,16
938,15825.0,1.3,1.3,2.1,2.5,4.0,11.3,-7.8,-16.1,22.700000000000003,16
939,15842.0,1.1,1.2000000000000002,2.8000000000000003,2.5,3.9000000000000004,11.9,-15.299999999999999,-16.4,16.5,16
940,15858.0,0.8,1.1,3.1,2.1,3.7,12.700000000000001,-21.200000000000003,-13.5,12.7,16
941,15877.0,0.30000000000000004,0.9,4.4,1.7000000000000002,3.4000000000000004,13.8,-18.0,-9.8,12.8,16
942,15892.0,0.1,0.6000000000000001,4.7,1.4000000000000001,2.9000000000000004,14.100000000000001,-18.0,-9.8,12.8,16
943,15910.0,-0.6000000000000001,-0.1,3.2,1.0,2.5,13.0,11.1,8.2,23.5,16
944,15925.0,-0.7000000000000001,-0.2,1.8,0.7000000000000001,2.4000000000000004,10.8,22.4,13.399999999999999,30.200000000000003,16
945,15941.0,-0.8,-0.30000000000000004,-0.5,0.6000000000000001,2.3000000000000003,8.9,25.5,12.100000000000001,35.599999999999994,16
946,15958.0,-0.6000000000000001,-0.30000000000000004,-1.6,0.8,2.4000000000000004,7.9,22.8,3.8,39.1,16
947,15975.0,-0.6000000000000001,-0.30000000000000004,-1.7000000000000002,0.9,2.4000000000000004,7.7,18.900000000000002,-10.200000000000001,41.4,16
948,15992.0,-0.4,-0.30000000000000004,-0.9,1.2000000000000002,2.5,8.5,16.900000000000002,-23.3,43.4,16
949,16008.0,-0.2,-0.2,0.4,1.5,2.5,9.600000000000001,19.1,-29.600000000000005,44.00000000000001,16
950,16025.0,-0.1,-0.2,0.8,1.8,2.6,10.100000000000001,19.1,-29.600000000000005,44.00000000000001,16
951,16042.0,0.0,-0.1,1.0,2.0,2.8000000000000003,10.200000000000001,25.4,-26.799999999999997,39.1,16
952,16058.0,0.2,0.0,0.9,2.2,2.9000000000000004,10.100000000000001,26.700000000000003,-21.200000000000003,33.300000000000004,16
953,16077.0,0.1,-0.1,0.5,2.2,2.9000000000000004,9.700000000000001,26.5,-14.400000000000002,25.8,16
954,16094.0,-0.2,-0.4,0.0,2.0,2.8000000000000003,9.3,25.8,-7.699999999999999,18.700000000000003,16
955,16110.0,-0.4,-0.6000000000000001,-0.4,1.7000000000000002,2.5,8.700000000000001,25.7,-2.3,13.5,16
956,16128.0,-0.6000000000000001,-0.8,-1.1,1.6,2.4000000000000004,8.1,25.6,0.1,10.1,16
957,16142.0,-0.5,-0.9,-1.3,1.6,2.4000000000000004,7.800000000000001,26.5,1.0,6.600000000000001,16
958,16159.0,-0.7000000000000001,-1.1,-1.8,1.4000000000000001,2.2,7.1000000000000005,26.300000000000004,2.2,3.4,16
959,16175.0,-0.8,-1.2000000000000002,-2.4000000000000004,1.3,2.2,6.5,22.2,1.7,1.5,16
960,16193.0,-0.8,-1.1,-2.6,1.3,2.3000000000000003,6.300000000000001,16.700000000000003,-1.0,-0.1,16
961,16208.0,-0.7000000000000001,-1.0,-2.5,1.5,2.4000000000000004,6.4,11.8,-4.800000000000001,-2.3,16
962,16225.0,-0.4,-0.9,-2.2,1.8,2.5,6.7,7.200000000000001,-7.6,-5.9,16
963,16242.0,-0.30000000000000004,-0.7000000000000001,-1.6,1.8,2.7,7.2,3.3000000000000007,-7.300000000000001,-10.4,16
964,16258.0,-0.30000000000000004,-0.6000000000000001,-1.4000000000000001,1.7000000000000002,2.8000000000000003,7.5,3.3000000000000007,-7.300000000000001,-10.4,16
965,16275.0,-0.5,-0.6000000000000001,-1.2000000000000002,1.5,2.8000000000000003,7.6000000000000005,-1.8000000000000003,1.0,-19.200000000000003,16
966,16292.0,-0.7000000000000001,-0.6000000000000001,-1.2000000000000002,1.3,2.8000000000000003,7.6000000000000005,-3.0,6.300000000000001,-21.900000000000002,16
967,16308.0,-1.0,-0.6000000000000001,-1.8,1.0,2.8000000000000003,7.2,-3.1,8.700000000000001,-23.400000000000002,16
968,16326.0,-1.2000000000000002,-0.7000000000000001,-2.2,0.7000000000000001,2.7,6.5,-6.1000000000000005,6.600000000000001,-22.700000000000003,16
969,16341.0,-1.3,-0.8,-2.4000000000000004,0.6000000000000001,2.6,6.5,-14.100000000000001,2.4000000000000004,-19.400000000000002,16
970,16361.0,-0.9,-0.5,-1.9000000000000001,1.0,2.8000000000000003,6.9,-22.8,-2.8,-16.8,16
971,16377.0,-0.30000000000000004,-0.2,-0.8,1.5,3.0,7.7,-31.400000000000002,-10.0,-16.700000000000003,16
972,16392.0,0.1,-0.1,-0.2,2.1,3.1,8.8,-40.7,-12.200000000000001,-18.8,16
973,16408.0,0.7000000000000001,0.2,1.1,2.6,3.2,9.9,-50.1,-10.4,-23.5,16
974,16425.0,0.9,0.4,2.2,2.8000000000000003,3.3000000000000003,11.0,-56.0,-5.1000000000000005,-30.799999999999997,16
975,16442.0,0.7000000000000001,0.30000000000000004,2.4000000000000004,2.5,3.0,11.5,-56.9,-0.6000000000000001,-37.50000000000001,16
976,16460.0,0.0,-0.2,2.3000000000000003,1.9000000000000001,2.5,11.3,-56.50000000000001,1.6,-39.1,16
977,16477.0,-0.5,-0.30000000000000004,1.9000000000000001,1.4000000000000001,2.3000000000000003,11.100000000000001,-59.60000000000001,-0.5,-36.300000000000004,16
978,16491.0,-0.5,-0.2,2.3000000000000003,1.4000000000000001,2.2,11.8,-63.4,-3.5,-31.799999999999997,16
979,16508.0,-0.30000000000000004,-0.1,3.6,1.5,2.1,13.0,-63.500000000000014,-1.6,-28.600000000000005,16
980,16526.0,-0.8,-0.2,4.9,1.0,1.9000000000000001,14.200000000000001,-55.8,3.2,-22.5,16
981,16541.0,-1.4000000000000001,-0.7000000000000001,5.5,0.5,1.4000000000000001,14.9,-36.2,10.9,-10.5,16
982,16558.0,-1.7000000000000002,-1.0,5.0,0.0,0.9,14.100000000000001,-8.899999999999999,19.6,7.8,16
983,16575.0,-1.5,-1.1,2.6,0.2,0.8,12.0,15.6,21.900000000000002,28.800000000000004,16
984,16591.0,-0.4,-0.9,0.4,1.0,1.1,10.100000000000001,31.7,13.700000000000001,45.9,16
985,16608.0,0.30000000000000004,-0.7000000000000001,-0.4,2.3000000000000003,1.5,8.9,39.400000000000006,-0.6000000000000001,56.0,16
986,16627.0,1.6,-0.2,-0.9,3.4000000000000004,2.1,8.5,39.599999999999994,-14.900000000000002,58.0,16
987,16643.0,2.2,0.2,-1.0,4.4,2.8000000000000003,8.6,36.9,-24.8,51.300000000000004,16
988,16658.0,2.9000000000000004,1.1,-0.6000000000000001,4.800000000000001,3.4000000000000004,8.700000000000001,33.6,-27.2,36.6,16
989,16676.0,2.7,1.2000000000000002,-0.8,4.7,3.6,8.4,26.9,-20.8,17.5,16
990,16692.0,2.1,1.0,-1.3,4.1000000000000005,3.5,8.0,15.100000000000001,-7.300000000000001,-1.1,16
991,16708.0,1.3,0.5,-1.5,3.4000000000000004,3.1,7.800000000000001,2.2,9.3,-16.4,16
992,16725.0,0.9,0.30000000000000004,-1.5,2.7,2.7,7.7,-6.600000000000001,23.6,-26.700000000000003,16
993,16742.0,0.30000000000000004,-0.1,-1.7000000000000002,2.1,2.4000000000000004,7.6000000000000005,-8.5,30.1,-31.3,16
994,16762.0,-0.2,-0.30000000000000004,-2.0,1.5,2.2,7.4,-5.4,29.300000000000004,-30.9,16
995,16775.0,-0.4,-0.30000000000000004,-2.1,1.2000000000000002,2.1,7.1000000000000005,-5.4,29.300000000000004,-30.9,16
996,16792.0,-0.5,-0.4,-2.5,1.1,2.1,6.7,4.5,14.700000000000001,-23.400000000000002,16
997,16811.0,-0.4,-0.4,-2.7,1.2000000000000002,2.1,6.5,2.5,9.5,-18.900000000000002,16
998,16827.0,0.0,0.0,-2.3000000000000003,1.5,2.4000000000000004,6.9,-1.1,6.300000000000001,-15.5,16
999,16844.0,0.4,0.4,-1.8,1.8,2.8000000000000003,7.300000000000001,-3.0,4.4,-15.2,16
1000,16861.0,0.5,0.5,-1.6,2.0,3.1,7.7,-5.2,4.2,-17.400000000000002,16
1001,16879.0,0.6000000000000001,0.7000000000000001,-1.0,2.1,3.2,8.200000000000001,-7.9,6.699999999999999,-20.5,16
1002,16892.0,0.6000000000000001,0.7000000000000001,-0.7000000000000001,2.0,3.2,8.700000000000001,-8.8,10.9,-23.3,16
1003,16908.0,0.4,0.6000000000000001,-0.1,1.7000000000000002,3.1,9.200000000000001,-6.600000000000001,15.2,-23.900000000000006,16
1004,16925.0,0.1,0.5,0.1,1.4000000000000001,3.0,9.3,-2.7,20.400000000000002,-22.2,16
1005,16941.0,0.1,0.5,-0.30000000000000004,1.3,3.0,9.0,1.3,25.0,-19.700000000000003,16
1006,16958.0,0.1,0.5,-0.8,1.2000000000000002,3.0,8.3,2.9,25.8,-17.7,16
1007,16976.0,-0.1,0.30000000000000004,-1.3,1.0,2.8000000000000003,8.0,-0.1,21.0,-14.400000000000002,16
1008,16991.0,-0.1,0.1,-0.8,0.9,2.6,8.4,-3.1,13.6,-9.100000000000001,16
1009,17008.0,-0.2,0.0,-0.6000000000000001,0.8,2.5,9.0,-3.1,13.6,-9.100000000000001,16
1010,17026.0,0.0,0.0,0.4,1.1,2.5,9.9,-11.2,-3.1,4.9,16
1011,17042.0,0.8,0.4,1.8,1.9000000000000001,2.8000000000000003,11.100000000000001,-15.5,-9.5,10.299999999999999,16
1012,17058.0,1.4000000000000001,1.1,3.1,2.5,3.4000000000000004,12.200000000000001,-19.200000000000003,-12.600000000000001,10.4,16
1013,17075.0,1.5,1.3,3.6,2.6,3.7,13.0,-22.8,-8.600000000000001,5.500000000000001,16
1014,17092.0,0.9,1.2000000000000002,3.8000000000000003,2.0,3.4000000000000004,13.200000000000001,-25.900000000000002,0.1,0.9000000000000001,16
1015,17108.0,0.0,0.8,3.6,1.2000000000000002,3.0,13.100000000000001,-26.799999999999997,6.1000000000000005,3.4,16
1016,17125.0,-0.1,0.6000000000000001,3.7,1.2000000000000002,2.7,13.3,-26.799999999999997,6.1000000000000005,3.4,16
1017,17141.0,0.5,0.7000000000000001,4.0,1.7000000000000002,2.8000000000000003,13.5,-3.4,1.6,18.8,16
1018,17158.0,0.5,0.5,3.1,1.7000000000000002,2.7,12.600000000000001,18.200000000000003,-3.6000000000000005,19.5,16
1019,17175.0,-0.6000000000000001,-0.4,0.9,0.8,2.1,10.700000000000001,29.800000000000004,-5.500000000000001,19.799999999999997,16
1020,17192.0,-1.0,-0.7000000000000001,0.2,0.1,1.5,9.4,27.9,-0.7,25.200000000000003,16
1021,17210.0,-1.1,-0.9,-0.6000000000000001,0.2,1.5,8.8,23.2,3.7000000000000006,33.300000000000004,16
1022,17226.0,-0.5,-0.7000000000000001,-1.1,0.7000000000000001,1.7000000000000002,8.4,21.200000000000003,2.5,38.2,16
1023,17246.0,-0.1,-0.5,-1.2000000000000002,1.1,1.9000000000000001,8.200000000000001,21.300000000000004,-4.0,40.2,16
1024,17258.0,0.1,-0.5,-1.2000000000000002,1.5,2.0,8.200000000000001,22.5,-13.900000000000002,39.699999999999996,16
1025,17275.0,0.0,-0.4,-1.1,1.5,2.1,8.3,22.700000000000003,-24.7,37.1,16
1026,17292.0,-0.1,-0.4,-0.5,1.4000000000000001,2.2,8.700000000000001,20.8,-32.0,34.900000000000006,16
1027,17308.0,-0.1,-0.4,0.1,1.7000000000000002,2.2,9.600000000000001,19.5,-31.3,32.6,16
1028,17325.0,0.4,-0.30000000000000004,0.6000000000000001,2.1,2.3000000000000003,9.9,21.200000000000003,-23.0,27.099999999999998,16
1029,17341.0,0.5,-0.4,0.30000000000000004,2.3000000000000003,2.3000000000000003,9.600000000000001,24.0,-11.6,18.8,16
1030,17358.0,0.4,-0.5,-0.4,2.2,2.2,8.5,24.0,-11.6,18.8,16
1031,17379.0,-0.1,-0.7000000000000001,-1.7000000000000002,1.5,2.0,7.1000000000000005,22.3,4.6,2.1,16
1032,17392.0,-0.30000000000000004,-0.8,-2.1,1.5,2.0,7.1000000000000005,19.700000000000003,7.1000000000000005,-4.1,16
1033,17408.0,-0.6000000000000001,-1.0,-2.7,1.2000000000000002,1.9000000000000001,6.5,15.000000000000002,7.699999999999999,-8.4,16
1034,17425.0,-0.7000000000000001,-1.0,-2.9000000000000004,1.0,1.9000000000000001,6.2,8.899999999999999,6.8,-11.000000000000002,16
1035,17442.0,-0.9,-1.0,-3.0,0.9,1.9000000000000001,6.1000000000000005,2.9,3.8,-12.4,16
1036,17458.0,-0.6000000000000001,-0.9,-2.7,1.0,2.0,6.300000000000001,-2.3,-0.5,-14.100000000000001,16
1037,17475.0,-0.6000000000000001,-0.8,-2.5,1.0,2.2,6.6000000000000005,-2.3,-0.5,-14.100000000000001,16
1038,17492.0,-0.6000000000000001,-0.7000000000000001,-2.3000000000000003,1.2000000000000002,2.2,6.9,-11.4,-6.2,-22.000000000000004,16
1039,17508.0,-0.5,-0.6000000000000001,-1.7000000000000002,1.2000000000000002,2.3000000000000003,7.4,-17.400000000000002,-5.500000000000001,-27.9,16
1040,17525.0,-0.8,-0.5,-1.2000000000000002,0.9,2.3000000000000003,7.800000000000001,-23.5,-1.6,-31.799999999999997,16
1041,17541.0,-0.8,-0.5,-0.7000000000000001,1.0,2.3000000000000003,8.5,-26.799999999999997,4.2,-34.50000000000001,16
1042,17560.0,-0.7000000000000001,-0.6000000000000001,-0.2,0.8,2.1,8.9,-26.000000000000004,7.200000000000001,-40.300000000000004,16
1043,17575.0,-1.4000000000000001,-0.9,-0.7000000000000001,0.1,1.8,8.5,-26.5,10.299999999999999,-39.300000000000004,16
1044,17591.0,-1.3,-1.0,-0.8,0.30000000000000004,1.5,8.4,-26.5,10.299999999999999,-39.300000000000004,16
1045,17610.0,-0.7000000000000001,-0.9,-0.4,0.7000000000000001,1.6,8.9,-38.7,3.8,-25.8,16
1046,17626.0,-0.4,-0.4,0.5,1.0,1.9000000000000001,9.700000000000001,-39.50000000000001,-6.8,-22.2,16
1047,17642.0,-0.2,-0.30000000000000004,0.9,1.4000000000000001,2.0,10.5,-39.50000000000001,-6.8,-22.2,16
1048,17658.0,0.2,-0.30000000000000004,1.8,1.6,1.9000000000000001,11.200000000000001,-38.60000000000001,-16.1,-22.4,16
1049,17675.0,0.30000000000000004,-0.2,2.1,1.7000000000000002,1.8,11.4,-40.7,-8.3,-23.099999999999998,16
1050,17692.0,0.2,0.1,1.7000000000000002,1.6,2.0,11.100000000000001,-44.6,-0.9000000000000001,-23.5,16
1051,17708.0,0.0,0.2,1.5,1.3,2.1,10.9,-44.6,-0.9000000000000001,-23.5,16
1052,17725.0,-0.2,0.4,1.8,1.3,2.1,11.3,-49.50000000000001,-15.299999999999999,-23.900000000000006,16
1053,17742.0,-0.2,0.5,3.0,1.3,2.1,12.4,-50.2,-26.9,-22.4,16
1054,17759.0,-0.5,0.7000000000000001,5.300000000000001,1.1,2.1,14.4,-45.5,-31.3,-18.4,16
1055,17775.0,-0.5,0.6000000000000001,6.2,1.1,2.0,15.9,-30.1,-21.1,-13.000000000000002,16
1056,17792.0,-0.6000000000000001,0.30000000000000004,6.5,1.0,1.6,16.0,-9.600000000000001,1.2000000000000002,-6.2,16
1057,17808.0,-0.7000000000000001,-0.2,3.9000000000000004,0.8,1.2000000000000002,13.9,9.3,20.1,3.9,16
1058,17825.0,-0.6000000000000001,-0.30000000000000004,2.4000000000000004,1.0,1.2000000000000002,11.4,9.3,20.1,3.9,16
1059,17841.0,-0.1,0.0,0.6000000000000001,1.5,1.5,10.200000000000001,29.1,5.2,25.6,16
1060,17859.0,0.8,0.1,0.5,2.3000000000000003,1.7000000000000002,10.200000000000001,37.300000000000004,-11.3,30.699999999999996,16
1061,17877.0,1.4000000000000001,0.30000000000000004,0.30000000000000004,3.0,2.0,10.0,45.7,-20.900000000000002,30.3,16
1062,17892.0,1.5,0.4,-0.1,3.3000000000000003,2.3000000000000003,9.3,49.699999999999996,-22.9,24.0,16
1063,17908.0,1.5,0.4,-1.0,3.3000000000000003,2.4000000000000004,8.5,46.300000000000004,-18.700000000000003,14.200000000000001,16
1064,17925.0,1.5,0.4,-1.7000000000000002,3.3000000000000003,2.5,7.800000000000001,36.400000000000006,-10.600000000000001,2.8,16
1065,17944.0,1.3,0.30000000000000004,-1.9000000000000001,3.2,2.5,7.6000000000000005,24.400000000000002,-1.1,-9.3,16
1066,17958.0,1.1,0.30000000000000004,-1.8,2.9000000000000004,2.5,7.6000000000000005,16.1,7.400000000000001,-20.8,16
1067,17977.0,0.8,0.0,-1.7000000000000002,2.5,2.3000000000000003,7.7,11.6,14.300000000000002,-30.4,16
1068,17995.0,0.30000000000000004,-0.30000000000000004,-1.8,2.1,2.1,7.6000000000000005,9.2,20.2,-37.1,16
1069,18010.0,0.1,-0.5,-1.8,1.6,1.8,7.6000000000000005,8.600000000000001,21.900000000000002,-39.699999999999996,16
1070,18028.0,-0.30000000000000004,-0.8,-1.9000000000000001,1.2000000000000002,1.6,7.4,9.4,21.6,-37.9,16
1071,18041.0,-0.6000000000000001,-0.7000000000000001,-2.0,0.9,1.7000000000000002,7.4,9.4,19.300000000000004,-32.9,16
1072,18058.0,-0.5,-0.6000000000000001,-1.9000000000000001,0.9,1.9000000000000001,7.5,9.600000000000001,15.5,-27.6,16
1073,18075.0,-0.2,-0.30000000000000004,-1.7000000000000002,1.1,2.2,7.7,10.200000000000001,12.200000000000001,-24.599999999999998,16
1074,18092.0,0.1,0.0,-1.5,1.3,2.5,7.800000000000001,9.8,10.600000000000001,-23.700000000000003,16
1075,18108.0,0.2,0.1,-1.5,1.4000000000000001,2.7,7.9,9.8,10.600000000000001,-23.700000000000003,16
1076,18125.0,0.2,0.30000000000000004,-1.1,1.4000000000000001,2.8000000000000003,8.3,5.9,11.4,-25.4,16
1077,18141.0,0.1,0.30000000000000004,-0.5,1.2000000000000002,2.9000000000000004,8.8,6.0,15.6,-26.000000000000004,16
1078,18158.0,0.0,0.2,-0.2,1.0,2.8000000000000003,9.0,8.600000000000001,21.900000000000002,-25.6,16
1079,18175.0,-0.2,0.0,-0.5,0.6000000000000001,2.6,8.6,12.0,27.0,-23.5,16
1080,18191.0,-0.7000000000000001,-0.30000000000000004,-1.3,0.1,2.4000000000000004,8.0,11.6,25.4,-17.7,16
1081,18208.0,-1.0,-0.4,-1.3,-0.2,2.4000000000000004,8.0,9.700000000000001,17.799999999999997,-8.0,16
1082,18225.0,-0.9,-0.5,-0.5,-0.1,2.3000000000000003,8.6,9.8,5.8,3.4,16
1083,18242.0,-0.6000000000000001,-0.4,0.0,0.30000000000000004,2.4000000000000004,9.3,11.1,-3.6000000000000005,14.700000000000001,16
1084,18258.0,0.1,-0.2,0.4,1.0,2.6,9.600000000000001,10.299999999999999,-8.2,22.2,16
1085,18275.0,0.9,0.2,0.9,1.7000000000000002,3.0,10.100000000000001,7.200000000000001,-9.600000000000001,24.900000000000002,16
1086,18291.0,1.2000000000000002,0.4,1.1,2.3000000000000003,3.4000000000000004,10.4,5.2,-7.500000000000001,22.4,16
1087,18308.0,1.5,0.8,0.8,2.4000000000000004,3.6,10.0,0.8,-4.9,15.299999999999999,16
1088,18325.0,1.0,0.9,0.4,2.0,3.7,9.700000000000001,-9.700000000000001,-5.4,7.9,16
1089,18341.0,0.30000000000000004,0.4,1.0,1.5,3.3000000000000003,10.200000000000001,-21.200000000000003,-6.600000000000001,3.7000000000000006,16
1090,18358.0,0.1,0.30000000000000004,1.5,1.1,2.9000000000000004,10.9,-26.1,-9.4,3.8,16
1091,18376.0,-0.5,0.1,2.5,0.6000000000000001,2.7,11.8,-22.8,-12.100000000000001,8.4,16
1092,18391.0,-0.6000000000000001,0.0,2.9000000000000004,0.6000000000000001,2.4000000000000004,12.4,-22.8,-12.100000000000001,8.4,16
1093,18408.0,-0.5,-0.30000000000000004,2.9000000000000004,0.6000000000000001,2.3000000000000003,11.9,0.8,-1.5,21.0,16
1094,18425.0,-0.7000000000000001,-0.30000000000000004,0.9,0.4,2.3000000000000003,10.200000000000001,6.4,6.0,25.5,16
1095,18441.0,-1.0,-0.2,-0.7000000000000001,0.2,2.3000000000000003,8.8,3.8,4.9,29.200000000000003,16
1096,18458.0,-1.0,-0.30000000000000004,-0.5,0.2,2.3000000000000003,8.8,-0.1,-2.8,33.0,16
1097,18475.0,-0.8,-0.4,0.0,0.4,2.1,9.5,1.5,-11.1,37.800000000000004,16
1098,18491.0,-0.6000000000000001,-0.6000000000000001,0.5,0.6000000000000001,2.0,9.8,6.1000000000000005,-16.200000000000003,42.5,16
1099,18508.0,-0.5,-0.4,0.5,0.9,2.1,9.8,9.5,-20.1,47.0,16
1100,18525.0,-0.30000000000000004,-0.30000000000000004,0.5,1.2000000000000002,2.3000000000000003,9.9,11.6,-23.2,49.6,16
1101,18541.0,0.1,0.0,0.9,1.7000000000000002,2.6,10.200000000000001,14.0,-23.800000000000004,48.9,16
1102,18560.0,0.5,0.2,1.1,2.2,2.8000000000000003,10.4,18.1,-20.400000000000002,44.2,16
1103,18575.0,0.5,0.2,1.0,2.2,2.8000000000000003,10.100000000000001,18.1,-20.400000000000002,44.2,16
1104,18592.0,0.30000000000000004,-0.1,0.0,2.0,2.6,9.1,25.5,-6.1000000000000005,29.800000000000004,16
1105,18609.0,0.0,-0.5,-1.0,1.8,2.3000000000000003,8.200000000000001,24.7,-0.1,25.300000000000004,16
1106,18630.0,-0.1,-0.6000000000000001,-1.8,1.8,2.3000000000000003,7.5,23.0,2.3,21.900000000000002,16
1107,18646.0,-0.1,-0.5,-2.0,1.8,2.3000000000000003,7.2,21.0,1.1,17.9,16
1108,18658.0,-0.1,-0.5,-2.2,1.7000000000000002,2.4000000000000004,6.9,19.1,-0.9000000000000001,13.700000000000001,16
1109,18676.0,-0.2,-0.5,-2.3000000000000003,1.6,2.4000000000000004,6.800000000000001,15.100000000000001,-3.0,9.600000000000001,16
1110,18693.0,-0.1,-0.5,-1.9000000000000001,1.7000000000000002,2.4000000000000004,7.1000000000000005,10.1,-3.2,5.6,16
1111,18709.0,-0.1,-0.5,-1.7000000000000002,1.8,2.5,7.300000000000001,6.500000000000001,-2.2,0.9000000000000001,16
1112,18725.0,-0.1,-0.5,-1.8,1.7000000000000002,2.5,7.300000000000001,2.8,-1.7,-3.4,16
1113,18742.0,-0.30000000000000004,-0.30000000000000004,-1.7000000000000002,1.6,2.6,7.4,-1.9,-2.8,-6.600000000000001,16
1114,18758.0,-0.4,-0.2,-1.4000000000000001,1.5,2.7,7.9,-5.9,-4.9,-9.5,16
1115,18775.0,-0.4,-0.1,-0.4,1.4000000000000001,2.9000000000000004,8.700000000000001,-7.1000000000000005,-3.6000000000000005,-11.700000000000001,16
1116,18792.0,-0.4,0.0,0.2,1.4000000000000001,2.9000000000000004,9.200000000000001,-5.500000000000001,1.8000000000000003,-13.900000000000002,16
1117,18808.0,-0.4,-0.1,0.0,1.4000000000000001,2.8000000000000003,8.9,-5.500000000000001,1.8000000000000003,-13.900000000000002,16
1118,18825.0,-0.6000000000000001,-0.30000000000000004,-0.7000000000000001,1.2000000000000002,2.6,8.3,-4.800000000000001,6.500000000000001,-15.299999999999999,16
1119,18841.0,-0.5,-0.5,-1.0,1.2000000000000002,2.4000000000000004,8.1,-8.600000000000001,1.2000000000000002,-12.100000000000001,16
1120,18858.0,0.0,-0.30000000000000004,-0.4,1.6,2.5,8.6,-12.600000000000001,-5.1000000000000005,-9.100000000000001,16
1121,18875.0,0.30000000000000004,-0.1,0.0,2.2,2.8000000000000003,9.1,-16.1,-8.4,-8.8,16
1122,18892.0,0.9,0.1,0.30000000000000004,2.7,2.9000000000000004,9.3,-20.8,-8.5,-12.5,16
1123,18908.0,1.4000000000000001,0.30000000000000004,0.4,3.2,3.0,9.5,-28.1,-4.4,-19.400000000000002,16
1124,18925.0,1.5,0.4,0.4,3.2,3.0,9.5,-28.1,-4.4,-19.400000000000002,16
1125,18943.0,1.1,0.2,-0.1,2.7,2.6,9.0,-44.300000000000004,4.5,-38.0,16
1126,18960.0,0.2,-0.4,-0.7000000000000001,2.0,2.0,8.5,-53.50000000000001,-2.9,-40.800000000000004,16
1127,18975.0,-0.2,-0.4,0.8,1.6,1.8,9.700000000000001,-62.800000000000004,-20.900000000000002,-36.7,16
1128,18991.0,0.0,-0.1,2.4000000000000004,1.9000000000000001,2.1,12.4,-63.10000000000001,-38.7,-30.9,16
1129,19008.0,0.0,0.2,5.800000000000001,2.0,2.1,15.200000000000001,-48.800000000000004,-41.300000000000004,-27.0,16
1130,19025.0,-0.2,-0.4,7.1000000000000005,1.8,1.6,16.400000000000002,-27.3,-22.1,-23.2,16
1131,19046.0,-0.8,-1.2000000000000002,5.0,1.3,0.9,15.100000000000001,-7.8,9.8,-15.299999999999999,16
1132,19061.0,-0.8,-1.1,1.6,1.4000000000000001,1.0,10.200000000000001,2.8,27.800000000000004,-1.5,16
1133,19076.0,-0.30000000000000004,-0.9,0.7000000000000001,1.4000000000000001,1.0,10.200000000000001,9.700000000000001,23.2,11.700000000000001,16
1134,19093.0,0.6000000000000001,-0.7000000000000001,-0.30000000000000004,2.3000000000000003,1.2000000000000002,9.3,17.5,6.699999999999999,19.300000000000004,16
1135,19108.0,1.0,-0.5,-0.7000000000000001,3.0,1.6,8.6,21.900000000000002,-8.5,20.900000000000002,16
1136,19133.0,2.0,0.30000000000000004,-0.9,4.0,2.5,8.4,18.8,-13.900000000000002,15.899999999999999,16
1137,19146.0,2.1,0.4,-1.0,4.0,2.5,8.4,11.900000000000002,-7.9,4.2,16
1138,19159.0,1.9000000000000001,0.4,-1.2000000000000002,3.7,2.6,8.1,11.900000000000002,-7.9,4.2,16
1139,19175.0,1.3,0.4,-1.7000000000000002,3.1,2.4000000000000004,7.7,-4.7,12.4,-23.2,16
1140,19191.0,0.5,-0.1,-1.9000000000000001,2.4000000000000004,2.0,7.5,-10.1,16.700000000000003,-30.200000000000003,16
1141,19208.0,0.0,-0.4,-1.8,1.8,1.7000000000000002,7.5,-10.5,16.900000000000002,-31.0,16
1142,19228.0,-0.2,-0.4,-1.9000000000000001,1.5,1.7000000000000002,7.5,-6.9,14.400000000000002,-28.1,16
1143,19244.0,-0.2,-0.2,-2.0,1.5,1.9000000000000001,7.4,-3.2,9.899999999999999,-24.599999999999998,16
1144,19259.0,0.0,0.0,-2.0,1.6,2.0,7.300000000000001,-0.30000000000000004,6.2,-21.400000000000002,16
1145,19277.0,0.30000000000000004,0.2,-2.3000000000000003,1.9000000000000001,2.2,7.1000000000000005,1.6,4.0,-20.0,16
1146,19292.0,0.4,0.30000000000000004,-2.4000000000000004,2.0,2.5,6.9,-0.4,2.9,-21.200000000000003,16
1147,19309.0,0.5,0.7000000000000001,-2.4000000000000004,2.1,2.8000000000000003,6.9,-5.6,2.4000000000000004,-24.5,16
1148,19327.0,0.4,0.6000000000000001,-1.6,2.0,2.7,7.6000000000000005,-10.4,2.3,-28.1,16
1149,19342.0,0.4,0.6000000000000001,-1.1,1.9000000000000001,2.7,8.3,-12.200000000000001,4.4,-29.800000000000004,16
1150,19358.0,0.1,0.7000000000000001,-0.8,1.6,2.8000000000000003,8.6,-12.4,6.699999999999999,-30.1,16
1151,19375.0,0.2,1.0,-0.5,1.6,3.0,8.8,-11.4,6.9,-29.600000000000005,16
1152,19391.0,0.5,1.2000000000000002,-0.30000000000000004,2.1,3.3000000000000003,9.3,-6.1000000000000005,0.7,-31.5,16
1153,19408.0,0.7000000000000001,1.1,0.8,2.0,3.1,10.200000000000001,6.8,-5.500000000000001,-35.599999999999994,16
1154,19425.0,-0.1,0.30000000000000004,0.30000000000000004,1.4000000000000001,2.5,9.700000000000001,13.900000000000002,0.30000000000000004,-34.300000000000004,16
1155,19442.0,-0.5,-0.1,0.0,0.7000000000000001,2.1,9.3,13.900000000000002,0.30000000000000004,-34.300000000000004,16
1156,19460.0,-0.8,-0.2,-0.2,0.5,2.0,9.1,-0.30000000000000004,24.200000000000003,-19.5,16
1157,19475.0,-0.7000000000000001,-0.30000000000000004,-0.2,0.5,1.9000000000000001,9.200000000000001,-7.9,30.599999999999998,-12.7,16
1158,19491.0,-0.1,-0.1,-0.6000000000000001,0.9,2.0,8.9,-13.200000000000003,28.800000000000004,-8.600000000000001,16
1159,19508.0,0.1,0.2,-0.6000000000000001,1.4000000000000001,2.5,9.0,-18.8,14.700000000000001,-9.0,16
1160,19525.0,1.1,1.1,0.30000000000000004,2.2,3.2,9.700000000000001,-22.9,-4.1,-14.900000000000002,16
1161,19541.0,0.8,1.5,0.7000000000000001,1.9000000000000001,3.5,10.100000000000001,-31.9,-20.1,-25.8,16
1162,19558.0,-0.1,0.6000000000000001,3.0,1.3,2.7,11.9,-44.2,-25.300000000000004,-35.5,16
