,ms,accelX,accelY,accelZ,accelWithGX,accelWithGY,accelWithGZ,rotRateAlpha,rotRateBeta,rotRateGamma,interval
0,468.0,-0.04853618144989014,0.36112773418426514,-0.02088451385498047,1.2470855712890625,1.551116943359375,9.620010375976562,5.06723538296242,10.238508207362473,1.2991566216497854,16
1,495.0,-0.4407006502151489,0.028458714485168457,0.19611549377441406,0.4801788330078125,1.3836212158203125,9.334060668945312,6.507148543027828,11.187959143507607,-2.5257493135573554,16
2,512.0,-0.5599343776702881,0.16410279273986816,0.0259552001953125,0.4801788330078125,1.3836212158203125,9.334060668945312,6.400488308948908,10.768312320902023,0.24654250828078025,16
3,528.0,-0.5070079565048218,0.14183318614959717,0.023761749267578125,0.66802978515625,1.316619873046875,9.107940673828125,4.856537707445867,8.94547143520902,3.305592992232731,16
4,545.0,-0.2849934697151184,0.06301641464233398,-0.19360923767089844,0.852264404296875,1.295074462890625,9.503952026367188,2.259972992573819,6.615557305534271,3.8799845806741233,16
5,563.0,-0.07821393013000488,0.035217881202697754,0.1919698715209961,0.798431396484375,1.2508087158203125,9.4644775390625,1.8009842803489622,8.12016601741804,2.966378477293218,16
6,580.0,-0.10564810037612915,-0.01541447639465332,0.14474105834960938,0.5986328125,1.2747344970703125,9.354400634765625,3.833648577344757,8.326492371865784,1.5649329426333216,16
7,597.0,-0.27540433406829834,-0.0027496814727783203,0.033043861389160156,0.5986328125,1.2747344970703125,9.354400634765625,4.732392189091715,5.230722790935845,0.7920833776680387,16
8,614.0,-0.25501638650894165,-0.01496279239654541,0.03254413604736328,0.5017242431640625,1.211334228515625,9.373550415039062,4.806704647261453,2.1200907183719577,0.6644408024588404,16
9,631.0,-0.3343590497970581,-0.0873098373413086,0.05100059509277344,0.5962371826171875,1.2603912353515625,9.233566284179688,4.589887122248569,1.3813374577433788,2.4514368553876165,16
10,648.0,-0.22889328002929688,-0.04630422592163086,-0.0845499038696289,0.5675201416015625,1.32379150390625,9.057693481445312,3.1211232431290266,0.9844215046955977,3.2312805340629924,16
11,666.0,-0.2475672960281372,0.012198209762573242,-0.2505950927734375,0.8008270263671875,1.394378662109375,9.263473510742188,0.7807179428891375,0.67493197302398,4.037352139151217,16
12,685.0,-0.014912009239196777,0.08072519302368164,-0.04328155517578125,0.8690185546875,1.3848114013671875,9.472854614257812,-0.6810518225203114,-0.413526973109252,3.9848962863255193,16
13,705.0,0.048798441886901855,0.0714576244354248,0.16042327880859375,0.8690185546875,1.3848114013671875,9.472854614257812,-0.7632326586139049,-0.701159899436829,2.6630087951179315,16
14,722.0,0.04415172338485718,0.07117319107055664,0.15523433685302734,0.67041015625,1.3154144287109375,9.625991821289062,-0.34446010022208307,-0.9494509361451325,2.138450266860952,16
15,739.0,-0.15277230739593506,0.0025953054428100586,0.2988910675048828,0.5017242431640625,1.271148681640625,9.480026245117188,0.38030493298630996,-2.5082640292821226,5.644249764045097,16
16,755.0,-0.31758230924606323,-0.04008316993713379,0.14876461029052734,0.6596527099609375,1.31781005859375,9.580520629882812,0.38030493298630996,-2.5082640292821226,5.644249764045097,16
17,772.0,-0.16501301527023315,0.005198955535888672,0.2429828643798828,0.855865478515625,1.34771728515625,9.5003662109375,1.5623101499920367,-3.396516470463941,6.28333690430485,16
18,791.0,0.020220696926116943,0.02972543239593506,0.15968990325927734,0.991058349609375,1.4326629638671875,9.3316650390625,3.163087925389585,-1.9426150829783466,4.798836269337599,16
19,811.0,0.13286375999450684,0.09461712837219238,-0.005272865295410156,0.991058349609375,1.4326629638671875,9.3316650390625,3.134237206335451,-1.7240490295379385,3.5949744469878313,16
20,828.0,0.09367102384567261,0.10608136653900146,-0.11678600311279297,1.026947021484375,1.3848114013671875,9.246719360351562,1.8481945478920903,-1.4163080262938441,2.8055138619610775,16
21,845.0,0.15339434146881104,0.03353714942932129,-0.08271026611328125,0.9360198974609375,1.3979644775390625,9.158187866210938,1.0945787956295634,-0.3269748159468504,1.5465733941443272,16
22,861.0,0.060989439487457275,0.043788909912109375,-0.166717529296875,0.762542724609375,1.32379150390625,9.12469482421875,0.34708289286336796,0.6067393643505727,-0.04983306018441303,16
23,886.0,-0.10881417989730835,-0.027374982833862305,-0.19574356079101562,0.6967315673828125,1.259185791015625,9.355606079101562,-2.0571436949811206,0.07868377923854689,-0.03584483276422692,16
24,903.0,-0.17192691564559937,-0.08217322826385498,0.033364295959472656,0.6967315673828125,1.259185791015625,9.355606079101562,-3.608088410194256,-1.095453059843325,0.5743915884413923,16
25,920.0,-0.1714705228805542,-0.0693584680557251,0.031355857849121094,0.7840728759765625,1.2735443115234375,9.549423217773438,-4.3826865035870615,-1.2755514878782213,1.4014455346598964,16
26,937.0,-0.08507734537124634,-0.04310905933380127,0.2188119888305664,0.8331298828125,1.3333587646484375,9.422592163085938,-3.3589231092721907,-0.5149416219056013,1.0700993976442377,16
27,954.0,-0.03669238090515137,0.023726940155029297,0.08903312683105469,0.762542724609375,1.298675537109375,9.45489501953125,-2.100856905669202,-0.47734826071385117,-0.29462704003767004,16
28,972.0,-0.10708802938461304,-0.005545496940612793,0.11817359924316406,0.7649383544921875,1.3213958740234375,9.37713623046875,-1.8945305512214567,-1.3157676417112563,-1.0779677755680923,16
29,991.0,-0.10560542345046997,0.022304058074951172,0.039081573486328125,0.7649383544921875,1.3213958740234375,9.2957763671875,-2.840484430511543,-0.8628987789827309,0.3532027423596994,16
30,1007.0,-0.10620898008346558,0.02878272533416748,-0.042099952697753906,0.9360198974609375,1.375244140625,9.2957763671875,-2.840484430511543,-0.8628987789827309,0.3532027423596994,16
31,1024.0,0.06148791313171387,0.08736789226531982,-0.041754722595214844,0.8893585205078125,1.3453216552734375,9.155792236328125,-2.5082640292821226,-0.41702402996429855,-1.002781053184592,16
32,1043.0,0.013053476810455322,0.06347846984863281,-0.1776103973388672,0.8271484375,1.31182861328125,9.340042114257812,-4.760368643932087,-2.7862800492583215,-3.4393554169382607,16
33,1059.0,-0.05185920000076294,0.0394667387008667,0.005428314208984375,0.8008270263671875,1.2855072021484375,9.5003662109375,-4.760368643932087,-2.7862800492583215,-3.4393554169382607,16
34,1078.0,-0.08161348104476929,0.023581504821777344,0.16020965576171875,0.7852783203125,1.3429412841796875,9.43695068359375,-3.400887791532749,-2.797645484037223,-3.9813992294704725,16
35,1094.0,-0.09999978542327881,0.08769357204437256,0.09342765808105469,0.7840728759765625,1.3022613525390625,9.503952026367188,-3.5984715038428776,-3.8249059352071404,-4.224444680896206,16
36,1110.0,-0.10573911666870117,0.053987741470336914,0.1555624008178711,0.7840728759765625,1.3022613525390625,9.503952026367188,-3.5984715038428776,-3.8249059352071404,-4.224444680896206,16
37,1128.0,-0.11074817180633545,0.061411142349243164,0.15081310272216797,0.8606414794921875,1.3680572509765625,9.654708862304688,-3.212920985573998,-2.7880285776858447,-3.9726565873328563,16
38,1145.0,-0.0398525595664978,0.13211464881896973,0.29271411895751953,0.8594512939453125,1.4111328125,9.63555908203125,-3.212920985573998,-2.7880285776858447,-3.9726565873328563,16
39,1162.0,-0.04624032974243164,0.17597341537475586,0.26583290100097656,0.8008270263671875,1.4386444091796875,9.495574951171875,-0.8156885114396027,-1.958351838826056,-4.576773159042144,16
40,1184.0,-0.0940709114074707,0.2910574674606323,0.032034873962402344,0.8139801025390625,1.5367584228515625,9.405853271484375,-0.8340480599285971,-1.3061507353598785,-4.533059948354063,16
41,1202.0,-0.09362173080444336,0.2842808961868286,0.031180381774902344,0.75177001953125,1.5188140869140625,9.286209106445312,-1.0561111702240515,-1.5649329426333216,-4.869651670652291,16
42,1219.0,-0.15667039155960083,0.26125097274780273,-0.08581352233886719,0.6907501220703125,1.445831298828125,9.282623291015625,-1.6584792135058162,-3.663167055661239,-5.286675700616589,16
43,1236.0,-0.2207268476486206,0.1868056058883667,-0.08653640747070312,0.69195556640625,1.3896026611328125,9.357986450195312,-2.2328708019472083,-4.6248576907990335,-5.7526585265515395,16
44,1254.0,-0.22336018085479736,0.13233792781829834,-0.01061248779296875,0.5735015869140625,1.27593994140625,9.486007690429688,-2.929659380315229,-4.378315182518254,-5.819102606797424,16
45,1274.0,-0.3396182656288147,0.02498602867126465,0.11395072937011719,0.470611572265625,1.1969757080078125,9.542236328125,-3.2784908016061203,-2.5913191295894777,-5.345251402938619,16
46,1292.0,-0.438063383102417,-0.04601156711578369,0.16684246063232422,0.470611572265625,1.1969757080078125,9.542236328125,-1.5859152837636006,0.11015729093396565,-2.996977724774875,16
47,1309.0,-0.430570125579834,-0.04014909267425537,0.16354942321777344,0.4670257568359375,1.2376556396484375,9.462081909179688,-1.5859152837636006,0.11015729093396565,-2.996977724774875,16
48,1329.0,-0.42598259449005127,0.0033320188522338867,0.08161640167236328,0.610595703125,1.35968017578125,9.227584838867188,-1.4224278757901754,0.3138608527404259,-1.627879966024159,16
49,1345.0,-0.27653563022613525,0.12628436088562012,-0.15116024017333984,0.70989990234375,1.4171142578125,9.20843505859375,-2.548480183115158,-0.244793979853257,-1.6436167218718685,16
50,1363.0,-0.17398685216903687,0.1860131025314331,-0.16855621337890625,0.699127197265625,1.400360107421875,9.336456298828125,-2.548480183115158,-0.244793979853257,-1.6436167218718685,16
51,1379.0,-0.18234926462173462,0.17495930194854736,-0.04099559783935547,0.7828826904296875,1.415924072265625,9.459686279296875,-4.1055447478246245,0.506198979767985,-3.345809146065766,16
52,1397.0,-0.09611928462982178,0.1978539228439331,0.07966995239257812,0.7828826904296875,1.415924072265625,9.459686279296875,-4.1055447478246245,0.506198979767985,-3.345809146065766,16
53,1413.0,-0.09120959043502808,0.20448029041290283,0.07701683044433594,0.681182861328125,1.433868408203125,9.646331787109375,-1.6182630596727812,1.5063572403112921,-4.064454329777828,16
54,1431.0,-0.18521612882614136,0.22529935836791992,0.2588176727294922,0.5208587646484375,1.4195098876953125,9.5482177734375,-0.0952947993000179,0.6609437456037939,-2.9550130425143166,16
55,1448.0,-0.33670467138290405,0.20953643321990967,0.1579608917236328,0.6010284423828125,1.406341552734375,9.432174682617188,-0.0952947993000179,0.6609437456037939,-2.9550130425143166,16
56,1465.0,-0.25102221965789795,0.1918848752975464,0.041408538818359375,0.6907501220703125,1.458984375,9.305343627929688,0.5673974747312992,0.48871369549275234,-1.792241638211346,16
57,1486.0,-0.23201900720596313,0.18510007858276367,-0.052577972412109375,0.610595703125,1.4075469970703125,9.336456298828125,-1.1435375916002148,0.8690186284790623,-2.323794280178418,16
58,1503.0,-0.22432738542556763,0.18605566024780273,-0.05276012420654297,0.494537353515625,1.38720703125,9.469253540039062,-1.6576049492920546,2.098234113027917,-1.5701785279158913,16
59,1519.0,-0.3312193751335144,0.16815125942230225,0.0780038833618164,0.5304412841796875,1.2914886474609375,9.667861938476562,-1.9190099492067825,1.1304236283937903,-1.1085670230497495,16
60,1536.0,-0.2889781594276428,0.07519900798797607,0.2724447250366211,0.48736572265625,1.2902984619140625,9.658294677734375,-0.9721818057029349,0.5394210198909271,-1.0325060364524876,16
61,1553.0,-0.32637500762939453,0.0732647180557251,0.2594718933105469,0.5794830322265625,1.35369873046875,9.490798950195312,0.7396275248423407,0.4624857690799034,-0.2037035618064603,16
62,1571.0,-0.22617650032043457,0.1284959316253662,0.08985137939453125,0.5447998046875,1.35968017578125,9.222793579101562,2.516132407205977,0.6967885783680208,0.0734381939559771,16
63,1591.0,-0.25602126121520996,0.12454426288604736,-0.1750650405883789,0.5447998046875,1.35968017578125,9.222793579101562,3.5984715038428776,0.5551577757386364,-0.03147351169541876,16
64,1612.0,-0.24760174751281738,0.11311674118041992,-0.16926193237304688,0.6022186279296875,1.439849853515625,9.072052001953125,2.3535192634463136,0.4187725583918218,0.006119849496331425,16
65,1630.0,-0.18757033348083496,0.18752717971801758,-0.3158082962036133,0.7146759033203125,1.4135284423828125,9.340042114257812,-1.09807585248461,-0.24042265878444882,-0.14775065212571584,16
66,1646.0,-0.07473284006118774,0.16052043437957764,-0.047379493713378906,0.663238525390625,1.364471435546875,9.580520629882812,-1.09807585248461,-0.24042265878444882,-0.14775065212571584,16
67,1664.0,-0.1250787377357483,0.11255097389221191,0.19059371948242188,0.6716156005859375,1.301055908203125,9.422592163085938,-0.32872334437437367,0.17310431432480317,-0.16436167218718684,16
68,1681.0,-0.1151692271232605,0.04989886283874512,0.032100677490234375,0.6369171142578125,1.352508544921875,9.262283325195312,-0.37768214034502506,0.743998845911149,-0.15474476583580887,16
69,1698.0,-0.14687871932983398,0.10113704204559326,-0.1269998550415039,0.6369171142578125,1.352508544921875,9.262283325195312,-0.37768214034502506,0.743998845911149,-0.15474476583580887,16
70,1715.0,-0.1437743902206421,0.10153257846832275,-0.1259145736694336,0.6488800048828125,1.2795257568359375,9.441741943359375,-0.4100299162542055,-1.1356692136763602,-0.743998845911149,16
71,1732.0,-0.13134032487869263,0.029732942581176758,0.052837371826171875,0.3976287841796875,1.2077484130859375,9.3017578125,-0.4100299162542055,-1.1356692136763602,-0.743998845911149,16
72,1749.0,-0.3820781707763672,-0.041172027587890625,-0.0859518051147461,0.6357269287109375,1.33575439453125,9.239547729492188,-2.1148451330893883,-3.477823042343773,1.5937836616874554,16
73,1766.0,-0.14968621730804443,0.08889889717102051,-0.1463632583618164,1.0173797607421875,1.3333587646484375,9.661880493164062,-2.886820433840909,-2.208391403961883,-0.168732993255995,16
74,1788.0,0.21767950057983398,0.09649193286895752,0.09299755096435547,0.6321258544921875,1.3261871337890625,9.483612060546875,-1.069225133430476,0.575265852655154,-3.8729904669640303,16
75,1804.0,-0.16243863105773926,0.08951258659362793,0.09159183502197266,0.4718170166015625,1.2902984619140625,9.392684936523438,-0.49395928077532214,0.7719753007515212,-4.80495611883393,16
76,1821.0,-0.3154298663139343,0.05476701259613037,9.72747802734375e-05,0.4095916748046875,1.2316741943359375,9.639144897460938,-1.5308366382966179,0.9442053508625627,-4.4150342794962425,16
77,1838.0,-0.3721119165420532,-0.0008100271224975586,0.24350452423095703,0.5304412841796875,1.2436370849609375,9.535064697265625,-1.3323786617727273,-0.7317591469184861,-3.4000135273189875,16
78,1856.0,-0.25053590536117554,0.010262846946716309,0.13826847076416016,0.804412841796875,1.3608856201171875,9.129470825195312,1.4818778423259664,-1.2624375246717967,-1.6637247987883859,16
79,1873.0,0.02104663848876953,0.12169766426086426,-0.26387596130371094,0.804412841796875,1.3608856201171875,9.129470825195312,1.5500704509993737,-0.791209113454277,-1.9338724408407302,16
80,1889.0,0.019772231578826904,0.12056636810302734,-0.2611846923828125,0.563934326171875,1.3560943603515625,9.2838134765625,-2.038784146492126,-0.6793032940927881,-3.280239330033644,16
81,1907.0,-0.2209913730621338,0.1216578483581543,-0.10651588439941406,0.48138427734375,1.2376556396484375,9.789901733398438,-3.6587957345924305,-1.9810827083838585,-3.2496400825519864,16
82,1923.0,-0.30629485845565796,0.009684920310974121,0.39531898498535156,0.705108642578125,1.307037353515625,9.767166137695312,-1.4888719560360595,-2.7985197482509845,-1.2746772236644597,16
83,1940.0,-0.08613163232803345,0.07794272899627686,0.369415283203125,0.798431396484375,1.4601898193359375,9.390289306640625,1.620885852314066,-0.6076136285643343,-0.3348431938707051,16
84,1957.0,0.008749663829803467,0.22384941577911377,-0.006865501403808594,0.6716156005859375,1.4661712646484375,9.213226318359375,1.8971533438627417,1.5177226750901933,-1.8307092636168576,16
85,1974.0,-0.11175280809402466,0.22446131706237793,-0.18220901489257812,0.6716156005859375,1.4661712646484375,9.213226318359375,0.02098234113027917,1.6226343807415893,-3.2854849153162133,16
86,1990.0,-0.10663414001464844,0.22233140468597412,-0.18084049224853516,0.669219970703125,1.4039459228515625,9.591293334960938,-0.6216018559845204,0.37505934770374016,-4.207833660834735,16
87,2008.0,-0.10543632507324219,0.15722930431365967,0.19537067413330078,0.5567626953125,1.4147186279296875,9.440536499023438,0.9319656518698999,0.38030493298630996,-4.399297523648533,16
88,2026.0,-0.21453917026519775,0.1627061367034912,0.04459190368652344,0.617767333984375,1.4410400390625,9.32330322265625,1.0875846819194703,-0.5691460031588225,-4.511203343010021,16
89,2043.0,-0.15321838855743408,0.18403410911560059,-0.0714559555053711,0.563934326171875,1.3692626953125,9.3197021484375,0.5333011703945956,-1.4914947486773444,-5.0077854164266284,16
90,2059.0,-0.20721560716629028,0.11020326614379883,-0.07407569885253906,0.45147705078125,1.2555999755859375,9.561386108398438,-0.6329672907634216,-1.4075653841562277,-5.531469680469846,16
91,2076.0,-0.31947147846221924,-0.0026025772094726562,0.16621971130371094,0.45147705078125,1.2555999755859375,9.561386108398438,-0.8690186284790623,-2.003813577941661,-5.401204312619363,16
92,2096.0,-0.31927210092544556,-0.0017342567443847656,0.16484928131103516,0.4682159423828125,1.1862030029296875,9.544631958007812,-0.5700202673725842,-1.2615632604580351,-4.592509914889853,16
93,2113.0,-0.30065321922302246,-0.07019555568695068,0.14681720733642578,0.358154296875,1.141937255859375,9.481216430664062,-0.35232847814593776,-0.4388806353083393,-3.873864731177792,16
94,2131.0,-0.40639644861221313,-0.11333441734313965,0.08259773254394531,0.2277374267578125,1.07733154296875,9.499160766601562,-0.29200424739638514,0.09004921401744811,-2.82824473151888,16
95,2149.0,-0.530561625957489,-0.1769038438796997,0.0996103286743164,0.2983245849609375,1.0988616943359375,9.252700805664062,0.28151307683124555,0.48346811021018254,-1.7861217887150145,16
96,2173.0,-0.459595263004303,-0.10194861888885498,-0.23959827423095703,0.2971343994140625,1.1527099609375,9.155792236328125,-0.21856605344040803,-6.758062372377417,0.7020341636505906,16
97,2191.0,-0.4717753529548645,-0.09887707233428955,-0.23657512664794922,0.329437255859375,1.1287841796875,9.444137573242188,-1.1776338959369186,-4.622234898157749,2.1139708688756267,16
98,2210.0,-0.447689950466156,-0.11783337593078613,0.05179309844970703,0.609405517578125,1.20654296875,9.744430541992188,-1.3009051500773086,-3.41225322631165,2.9392762866666073,16
99,2227.0,-0.17657220363616943,-0.037575483322143555,0.34974098205566406,0.8773956298828125,1.3608856201171875,9.624786376953125,0.261404999914728,-3.2102981929327132,3.6963890957841805,16
100,2243.0,0.08235722780227661,0.1127554178237915,0.22931385040283203,0.834320068359375,1.458984375,9.39508056640625,2.548480183115158,-1.9758371231012886,3.132488677907928,16
101,2260.0,0.03440922498703003,0.20250380039215088,0.0008802413940429688,0.8115997314453125,1.469757080078125,9.334060668945312,2.701476420523443,-0.750992959621242,1.4530271232718326,16
102,2277.0,0.009064435958862305,0.20676028728485107,-0.058795928955078125,0.8115997314453125,1.469757080078125,9.334060668945312,0.9660619562066035,-0.8620245147689692,0.3479571570771296,16
103,2294.0,0.0053784847259521484,0.20393097400665283,-0.05785846710205078,0.8833770751953125,1.409942626953125,9.526687622070312,-0.09704332772754116,-1.77300782550859,-0.2544108862046349,16
104,2311.0,0.07246387004852295,0.1423947811126709,0.1341266632080078,0.89892578125,1.388397216796875,9.503952026367188,0.4109041804679671,-1.3883315714534719,-1.022014865887348,16
105,2327.0,0.0837101936340332,0.11744058132171631,0.11115646362304688,0.723052978515625,1.3381500244140625,9.33526611328125,1.117309665187366,-1.6812100830636185,-2.127959096295813,16
106,2344.0,-0.09531313180923462,0.06271147727966309,-0.056206703186035156,0.5914459228515625,1.3620758056640625,9.2838134765625,1.3577323239718146,-1.81584677198291,-2.7583035944179493,16
107,2363.0,-0.22848999500274658,0.08203375339508057,-0.10599994659423828,0.3378143310546875,1.3620758056640625,9.104354858398438,0.5402952841046886,-0.4869651670652291,-3.237400383559324,16
108,2382.0,-0.4798346161842346,0.0785285234451294,-0.2827463150024414,0.3378143310546875,1.292694091796875,9.104354858398438,0.5402952841046886,-0.4869651670652291,-3.237400383559324,16
109,2399.0,-0.4801488518714905,0.009549260139465332,-0.2803049087524414,0.3701171875,1.187408447265625,9.44293212890625,-1.345492624979152,-3.149099697969399,-2.0361613538508414,16
110,2418.0,-0.45576024055480957,-0.09207355976104736,0.05842018127441406,0.6440887451171875,1.2328643798828125,9.7288818359375,0.1713557858972799,-4.475358510245795,-0.30948953167161775,16
111,2436.0,-0.19386053085327148,-0.045194149017333984,0.34282588958740234,0.611785888671875,1.25439453125,9.514724731445312,0.1713557858972799,-4.475358510245795,-0.30948953167161775,16
112,2454.0,-0.2326766848564148,-0.025273442268371582,0.12868785858154297,0.4502716064453125,1.247222900390625,9.423797607421875,0.5682717389450609,-1.1846280096470114,-0.5429180767459736,16
113,2471.0,-0.3949388265609741,-0.03456223011016846,0.038132667541503906,0.4502716064453125,1.247222900390625,9.423797607421875,-0.12939110363672154,-1.8910334943664102,0.396915953047781,16
114,2492.0,-0.2267359495162964,-0.017215251922607422,0.15131568908691406,0.798431396484375,1.3501129150390625,9.3316650390625,0.506198979767985,-1.1986162370671976,0.869892892692824,16
115,2510.0,-0.05489027500152588,0.0648806095123291,-0.05336475372314453,0.73980712890625,1.3620758056640625,9.305343627929688,1.3227617554213493,-1.870051153236131,0.24304545142573372,16
116,2527.0,-0.11976975202560425,0.07346057891845703,-0.0780801773071289,0.723052978515625,1.3608856201171875,9.350814819335938,0.7754723576065677,-3.274993744751074,0.027102190626610595,16
117,2544.0,-0.14545142650604248,0.07018327713012695,-0.031249046325683594,0.4598541259765625,1.2555999755859375,9.188095092773438,0.3838019898413565,-3.9700337946915716,0.06207275917707588,16
118,2563.0,-0.4163196086883545,-0.0337221622467041,-0.19176387786865234,0.4598541259765625,1.2555999755859375,9.188095092773438,-1.0657280765754296,-3.5565068215823197,1.5264653172278098,16
119,2582.0,-0.4244862198829651,-0.02837824821472168,-0.19006824493408203,0.927642822265625,1.4111328125,9.42498779296875,-2.304560467475662,-4.031232289654886,2.4584309690977095,16
120,2602.0,0.0308951735496521,0.13306176662445068,0.04671669006347656,0.7661285400390625,1.310638427734375,9.620010375976562,-2.40510085205825,-4.446507791191661,0.4327607858120079,16
121,2618.0,-0.13967561721801758,0.036400556564331055,0.2404642105102539,0.5830841064453125,1.2280731201171875,9.5841064453125,1.2213471066250001,-1.3795889293158554,-0.7588613375450967,16
122,2636.0,-0.3260544538497925,-0.04689204692840576,0.20382976531982422,0.621368408203125,1.2627716064453125,9.361587524414062,1.2213471066250001,-1.3795889293158554,-0.7588613375450967,16
123,2653.0,-0.28978127241134644,-0.01587057113647461,-0.017663955688476562,0.711090087890625,1.271148681640625,9.324493408203125,1.4565241801268791,-1.6479880429406766,-0.04458747490184324,16
124,2670.0,-0.2036362886428833,-0.010113000869750977,-0.053539276123046875,0.711090087890625,1.271148681640625,9.324493408203125,-0.11452861200277381,-2.9497674572317467,-0.4825938459964209,16
125,2688.0,-0.2088921070098877,-0.010630011558532715,-0.052448272705078125,0.7063140869140625,1.271148681640625,9.621200561523438,-0.11452861200277381,-2.9497674572317467,-0.4825938459964209,16
126,2704.0,-0.21935492753982544,-0.011656403541564941,0.2434701919555664,0.7027130126953125,1.2914886474609375,9.562576293945312,1.3175161701387796,-1.2029875581360059,1.2580662036029886,16
127,2721.0,-0.22653275728225708,0.005808115005493164,0.18450069427490234,0.7589569091796875,1.346527099609375,9.3316650390625,0.5761401168689155,-1.492369012891106,1.2370838624727094,16
128,2738.0,-0.17330574989318848,0.05819690227508545,-0.04538536071777344,0.7709197998046875,1.3788299560546875,9.4884033203125,0.5761401168689155,-1.492369012891106,1.2370838624727094,16
129,2756.0,-0.16507971286773682,0.08950364589691162,0.11115169525146484,0.78765869140625,1.334564208984375,9.544631958007812,0.8760127421891554,-1.6532336282232463,0.15387050162204727,16
130,2776.0,-0.1556805968284607,0.040560364723205566,0.16669845581054688,0.7134857177734375,1.3249969482421875,9.363967895507812,1.4372903674241233,-1.6147660028177346,-0.03147351169541876,16
131,2793.0,-0.1556805968284607,0.040560364723205566,0.16669845581054688,0.7134857177734375,1.3249969482421875,9.363967895507812,1.2781742805195062,-2.488155952365605,-0.03147351169541876,16
132,2810.0,-0.20045435428619385,0.01892542839050293,-0.09291362762451172,0.735015869140625,1.3848114013671875,9.13665771484375,0.8113171903707946,-1.6261314375966358,0.3811791972000716,16
133,2827.0,-0.21027976274490356,0.0803220272064209,-0.22941112518310547,0.7254486083984375,1.3836212158203125,9.143829345703125,-0.07256392974221547,-1.0928302672020402,0.34096304336703653,16
134,2845.0,-0.2175126075744629,0.07954704761505127,-0.2160491943359375,0.55078125,1.3034515380859375,9.367568969726562,-1.8551886616021833,-1.6917012536287581,-0.027102190626610595,16
135,2862.0,-0.38624799251556396,0.0056008100509643555,0.0071163177490234375,0.55078125,1.3034515380859375,9.367568969726562,-2.8431072231528276,-2.0894914708903007,-0.3942931604064961,16
136,2879.0,-0.3817421793937683,0.013246774673461914,0.006466865539550781,0.57470703125,1.2328643798828125,9.5721435546875,-2.9821152331409273,-2.5414860694050647,0.6644408024588404,16
137,2896.0,-0.35602450370788574,-0.04832816123962402,0.20497512817382812,0.7613372802734375,1.2855072021484375,9.480026245117188,-2.3745016045765928,-3.2811135942474055,1.4311705179277918,16
138,2913.0,-0.17357856035232544,0.011042118072509766,0.10967826843261719,0.9348297119140625,1.27593994140625,9.786300659179688,-2.3710045477215465,-2.8501013368629207,2.4654250828078026,16
139,2932.0,-0.007613241672515869,0.008269309997558594,0.41323184967041016,0.9180755615234375,1.2280731201171875,9.561386108398438,-2.1332046815783823,-2.0099334274379923,2.3745016045765928,16
140,2951.0,-0.028165102005004883,-0.03511035442352295,0.18699264526367188,0.9180755615234375,1.2280731201171875,9.561386108398438,-0.5569063041661597,-0.3156093811679492,1.8140982435553867,16
141,2968.0,-0.03021419048309326,-0.0348283052444458,0.18607330322265625,0.987457275390625,1.271148681640625,9.360382080078125,0.8253054177909808,-0.8847553843267717,1.3481154176204369,16
142,2985.0,0.034975647926330566,0.0050046443939208984,-0.014010429382324219,0.9120941162109375,1.328582763671875,9.22998046875,1.6287542302379208,-1.8604342468847532,-0.21157193973031496,16
143,3002.0,-0.04347199201583862,0.058135390281677246,-0.14267921447753906,0.7589569091796875,1.3273773193359375,9.10675048828125,1.0499913207277203,-0.8427907020662134,-1.7581453338746422,16
144,3019.0,-0.19478696584701538,0.05484414100646973,-0.26415538787841797,0.75775146484375,1.34173583984375,9.2060546875,-0.228182959791786,0.7107768057882069,-2.7390697817151937,16
145,3036.0,-0.192629873752594,0.07137179374694824,-0.16445064544677734,0.7960357666015625,1.3333587646484375,9.542236328125,-3.32657533336301,-0.6181047991294739,-2.07288045082883,16
146,3052.0,-0.15317291021347046,0.06952524185180664,0.16976070404052734,0.7960357666015625,1.3333587646484375,9.542236328125,-3.32657533336301,-0.6181047991294739,-2.07288045082883,16
147,3071.0,-0.15280663967132568,0.0769122838973999,0.16777515411376953,0.849884033203125,1.310638427734375,9.714523315429688,-2.816005032526217,-0.34620862864960633,-2.200523026038028,16
148,3088.0,-0.0968673825263977,0.05905568599700928,0.33724021911621094,0.6261444091796875,1.23046875,9.633163452148438,0.34183730758079817,1.6680961198571942,-1.4119367052250358,16
149,3105.0,-0.3146340847015381,-0.020013928413391113,0.25385570526123047,0.4957427978515625,1.2029571533203125,9.423797607421875,0.34183730758079817,1.6680961198571942,-1.4119367052250358,16
150,3123.0,-0.43974751234054565,-0.04915130138397217,0.044213294982910156,0.8199615478515625,1.3333587646484375,9.332870483398438,0.8078201335157481,-1.209981671846099,1.2178500497699536,16
151,3139.0,-0.11654859781265259,0.07860958576202393,-0.045989036560058594,0.927642822265625,1.394378662109375,9.311325073242188,0.8078201335157481,-1.209981671846099,1.2178500497699536,16
152,3156.0,-0.014798223972320557,0.1366138458251953,-0.066253662109375,0.927642822265625,1.394378662109375,9.311325073242188,0.9835472404818362,-2.948893193017985,0.4283894647431997,16
153,3178.0,-0.0985371470451355,0.06406164169311523,0.01729869842529297,0.873809814453125,1.3213958740234375,9.568557739257812,-0.5123188292643164,-2.5012699155720295,-1.1872508022882964,16
154,3196.0,-0.08882808685302734,0.06092524528503418,0.19250869750976562,0.8115997314453125,1.25439453125,9.640350341796875,-0.3619453844973157,-1.6252571733828742,-1.6182630596727812,16
155,3212.0,-0.15211725234985352,-0.00660252571105957,0.2631053924560547,0.6129913330078125,1.2017669677734375,9.45849609375,0.3261005517330888,-0.363693912924839,-2.7277043469362923,16
156,3229.0,-0.3479086756706238,-0.06199204921722412,0.08112812042236328,0.7314300537109375,1.2855072021484375,9.192886352539062,1.4652668222644953,0.3916703677652112,-1.8499430763196136,16
157,3249.0,-0.22432589530944824,0.016619205474853516,-0.18318843841552734,0.7314300537109375,1.2855072021484375,9.192886352539062,1.9889510863077131,2.1707980427701328,-0.2308057524330709,16
158,3267.0,-0.2128952145576477,0.013561367988586426,-0.18281936645507812,0.7792816162109375,1.316619873046875,8.867462158203125,0.2474167724945419,5.385467556771654,0.8585274579139227,16
159,3283.0,-0.14898335933685303,0.0476231575012207,-0.5074281692504883,0.7182769775390625,1.3321685791015625,8.969161987304688,-2.49077874500689,5.840959212141464,0.06994113710093057,16
160,3302.0,-0.19779759645462036,0.07322108745574951,-0.4060230255126953,0.6476898193359375,1.2783355712890625,9.664276123046875,-5.212363242446851,2.1209649825857197,-1.0377516217350573,16
161,3318.0,-0.2670139670372009,0.0330805778503418,0.2857017517089844,0.70391845703125,1.25439453125,10.03875732421875,-5.13193093478078,-2.509138293495884,-1.4600212369819257,16
162,3335.0,-0.21887171268463135,0.018374919891357422,0.6563262939453125,0.6883544921875,1.298675537109375,9.722900390625,-1.8595599826709914,-4.501586436658644,-0.5604033610212062,16
163,3353.0,-0.2441989779472351,0.06290316581726074,0.33967113494873047,0.6883544921875,1.298675537109375,9.722900390625,1.4031940630874196,-3.595848711201593,0.23779986614316395,16
164,3374.0,-0.25043487548828125,0.05836176872253418,0.33917903900146484,0.7146759033203125,1.3333587646484375,9.396270751953125,0.9153546318084288,-0.1337624247055297,0.988792825764406,16
165,3392.0,-0.22586596012115479,0.08911716938018799,0.013230323791503906,0.76971435546875,1.3249969482421875,9.257492065429688,0.9153546318084288,-0.1337624247055297,0.988792825764406,16
166,3409.0,-0.1691664457321167,0.07971835136413574,-0.12488651275634766,0.78167724609375,1.2974700927734375,9.363967895507812,-0.2753932273349141,0.9468281435038476,0.9136061033809055,16
167,3426.0,-0.1539384126663208,0.05283176898956299,-0.018680572509765625,0.77569580078125,1.2723541259765625,9.368759155273438,-0.4484975416597173,1.314019113283733,-0.5166901503331246,16
168,3443.0,-0.15588319301605225,0.028525471687316895,-0.014264106750488281,0.70391845703125,1.2723541259765625,9.348419189453125,-0.4484975416597173,1.314019113283733,-0.5166901503331246,16
169,3460.0,-0.22225415706634521,0.03004598617553711,-0.03506660461425781,0.70391845703125,1.2723541259765625,9.348419189453125,-0.7405017890561024,1.3411213039103438,-0.34446010022208307,16
170,3477.0,-0.21687555313110352,0.0319828987121582,-0.03558158874511719,0.5543670654296875,1.1981658935546875,9.423797607421875,-1.0395001501625807,0.5857570232202935,0.30249541796152474,16
171,3495.0,-0.3619147539138794,-0.03956151008605957,0.03901386260986328,0.5950469970703125,1.2101287841796875,9.403457641601562,-1.0395001501625807,0.5857570232202935,0.30249541796152474,16
172,3512.0,-0.3193734288215637,-0.024815797805786133,0.018207550048828125,0.7063140869140625,1.2496185302734375,9.411834716796875,-1.290413979512169,-0.3566997992147459,1.109441287263511,16
173,3529.0,-0.22376877069473267,0.02585923671722412,-0.02090930938720703,0.6907501220703125,1.253204345703125,9.36517333984375,-1.9190099492067825,-0.1337624247055297,1.1190581936148891,16
174,3545.0,-0.22376877069473267,0.02585923671722412,-0.02090930938720703,0.6907501220703125,1.253204345703125,9.36517333984375,-2.783657256617037,0.25790794305968145,1.9408665545508232,16
175,3562.0,-0.22302740812301636,0.03257107734680176,-0.021660804748535156,0.6763916015625,1.2687530517578125,9.292190551757812,-3.4428524737933075,0.0008742642137616321,1.846446019464567,16
176,3579.0,-0.23652434349060059,0.05690407752990723,-0.09530925750732422,0.8486785888671875,1.2783355712890625,9.5601806640625,-3.4428524737933075,0.0008742642137616321,1.846446019464567,16
177,3597.0,-0.06284487247467041,0.07379710674285889,0.16674423217773438,0.73980712890625,1.316619873046875,9.652313232421875,-2.1087252835930568,-0.6635665382450788,0.7195194479258232,16
178,3614.0,-0.09737759828567505,0.06449520587921143,0.24818897247314453,0.7122955322265625,1.2783355712890625,9.502761840820312,-0.7116510700019686,-0.3453343644358447,0.05682717389450609,16
179,3631.0,-0.18866467475891113,0.07777714729309082,0.09123992919921875,0.7122955322265625,1.2783355712890625,9.43695068359375,0.727387825849678,0.47647399650008954,-0.34358583600832143,16
180,3648.0,-0.18166399002075195,0.07392513751983643,0.02476978302001953,0.8079986572265625,1.310638427734375,9.43695068359375,0.49920486605789194,0.7894605850267538,-0.027102190626610595,16
181,3665.0,-0.08167129755020142,0.10177457332611084,0.0240936279296875,0.798431396484375,1.3082427978515625,9.420211791992188,0.5420438125322119,0.5219357356156944,-0.8130657187983179,16
182,3683.0,-0.08674299716949463,0.09590721130371094,0.0070552825927734375,0.6728057861328125,1.2484130859375,9.541046142578125,-0.27626749154867575,0.5813857021514853,-1.9880768220939515,16
183,3702.0,-0.20413285493850708,0.03510606288909912,0.1241140365600586,0.6010284423828125,1.181427001953125,9.523101806640625,-0.1311396320642448,0.6347158191909449,-2.1026054340967253,16
184,3719.0,-0.2661243677139282,-0.03225147724151611,0.10318565368652344,0.70391845703125,1.1670684814453125,9.368759155273438,0.7265135616359163,0.47385120385880464,-1.5719270563434147,16
185,3736.0,-0.15752989053726196,-0.04892289638519287,-0.04937934875488281,0.70391845703125,1.1670684814453125,9.368759155273438,1.7511512201645492,0.10228891301011096,-0.727387825849678,16
186,3753.0,-0.15275639295578003,-0.05205953121185303,-0.04746437072753906,0.6943511962890625,1.2125244140625,9.3017578125,1.4241764042176988,-0.05507864546698282,-1.2038618223497675,16
187,3770.0,-0.15719091892242432,-0.008883476257324219,-0.11102485656738281,0.562744140625,1.1730499267578125,9.423797607421875,0.1197741972853436,0.1031631772238726,-2.017801805361847,16
188,3788.0,-0.27835023403167725,-0.047148823738098145,0.010508537292480469,0.658447265625,1.199371337890625,9.45849609375,-0.33746598651199,1.250197825679134,-1.4967403339599141,16
189,3807.0,-0.1748097538948059,-0.020346522331237793,0.0437164306640625,0.774505615234375,1.2567901611328125,9.414230346679688,0.22993148821930925,0.5499121904560667,-0.5219357356156944,16
190,3824.0,-0.05610460042953491,0.03433847427368164,-0.00040340423583984375,0.726654052734375,1.23046875,9.32330322265625,0.912731839167144,0.01923381270275591,-0.9275943308010917,16
191,3841.0,-0.10122758150100708,0.006069660186767578,-0.08855628967285156,0.726654052734375,1.23046875,9.32330322265625,0.1442535952706693,-0.4755997322863279,-1.6733417051397639,16
192,3858.0,-0.0993267297744751,0.005879878997802734,-0.0860147476196289,0.639312744140625,1.205352783203125,9.440536499023438,-0.4213953510331067,-0.6373386118322298,-1.6567306850782928,16
193,3875.0,-0.18160474300384521,-0.018218636512756348,0.030298233032226562,0.6608428955078125,1.235260009765625,9.495574951171875,-0.3899218393376879,0.0655698160321224,-1.2519463541066571,16
194,3892.0,-0.15487903356552124,0.011854290962219238,0.08283615112304688,0.6763916015625,1.2496185302734375,9.489593505859375,-0.3899218393376879,0.0655698160321224,-1.2519463541066571,16
195,3909.0,-0.13590312004089355,0.025529980659484863,0.0747518539428711,0.7589569091796875,1.23406982421875,9.539840698242188,0.15387050162204727,-0.6994113710093057,-1.0814648324231388,16
196,3926.0,-0.052777230739593506,0.00802767276763916,0.12182331085205078,0.69195556640625,1.2280731201171875,9.440536499023438,0.9048634612432892,-0.27626749154867575,-1.1391662705314067,16
197,3942.0,-0.1168283224105835,-0.0005165338516235352,0.02225017547607422,0.69195556640625,1.2280731201171875,9.440536499023438,0.724765033208393,-0.34883142129089123,-1.5037344476700072,16
198,3959.0,-0.11549663543701172,-0.0022125244140625,0.022020339965820312,0.6608428955078125,1.2220916748046875,9.386703491210938,0.23779986614316395,-1.604274832252595,-1.9906996147352363,16
199,3980.0,-0.14604812860488892,-0.0090789794921875,-0.03048229217529297,0.6165771484375,1.2005615234375,9.32568359375,-0.3138608527404259,-0.46947988278999647,-1.5133513540213852,16
200,3997.0,-0.1871938705444336,-0.030059337615966797,-0.08873462677001953,0.6381072998046875,1.229278564453125,9.313720703125,-0.3138608527404259,-0.46947988278999647,-1.5133513540213852,16
201,4014.0,-0.16135817766189575,-3.457069396972656e-05,-0.09804153442382812,0.646484375,1.25439453125,9.36517333984375,-1.3874573072397103,-1.109441287263511,-1.2187243139837152,16
202,4031.0,-0.14993751049041748,0.02712869644165039,-0.045551300048828125,0.67041015625,1.2137298583984375,9.703750610351562,-1.3874573072397103,-1.109441287263511,-1.2187243139837152,16
203,4051.0,-0.12938857078552246,-0.004980921745300293,0.27683067321777344,0.605804443359375,1.2005615234375,9.770751953125,-0.9442053508625627,-2.4374486279674303,-0.8620245147689692,16
204,4068.0,-0.1939469575881958,-0.018341898918151855,0.3348264694213867,0.6070098876953125,1.2436370849609375,9.450119018554688,1.366474966109431,-1.6890784609874732,-0.27889028418996065,16
205,4085.0,-0.1939469575881958,-0.018341898918151855,0.3348264694213867,0.6070098876953125,1.2436370849609375,9.450119018554688,1.366474966109431,-1.6890784609874732,-0.27889028418996065,16
206,4101.0,-0.14236080646514893,0.040992140769958496,-0.16053199768066406,0.7302398681640625,1.27593994140625,9.273040771484375,1.0325060364524876,-1.8805423238012706,-0.6810518225203114,16
207,4118.0,-0.0700995922088623,0.043381690979003906,-0.15196514129638672,0.7302398681640625,1.27593994140625,9.246719360351562,0.5236842640432177,-1.190747859143343,-1.0534883775827668,16
208,4135.0,-0.06966602802276611,0.042073607444763184,-0.17319297790527344,0.663238525390625,1.2687530517578125,9.246719360351562,-0.6626922740313171,-0.2692733778385827,-1.4871234276085363,16
209,4152.0,-0.13308757543563843,0.03756153583526611,-0.16884231567382812,0.629730224609375,1.2089385986328125,9.495574951171875,-2.302811939048139,-0.27626749154867575,-1.4460330095617395,16
210,4170.0,-0.16325950622558594,-0.016516685485839844,0.07723236083984375,0.55316162109375,1.129974365234375,9.755203247070312,-1.7004438957663746,-0.9748045983442198,-0.7571128091175734,16
211,4191.0,-0.24169474840164185,-0.09362649917602539,0.3354978561401367,0.603424072265625,1.199371337890625,9.507537841796875,0.5367982272496421,-1.2807970731607912,-0.4983306018441303,16
212,4210.0,-0.1941547989845276,-0.02672755718231201,0.08809947967529297,0.617767333984375,1.223297119140625,9.384307861328125,1.2921625079396923,-1.3804631935296172,-0.24654250828078025,16
213,4227.0,-0.18297213315963745,-0.005193471908569336,-0.03433990478515625,0.6428985595703125,1.247222900390625,9.447723388671875,0.4353835784532928,-1.4984888623874375,-0.008742642137616321,16
214,4243.0,-0.15915220975875854,0.018697023391723633,0.02911663055419922,0.6428985595703125,1.247222900390625,9.447723388671875,-0.41964682260558345,0.13725948156057624,0.5604033610212062,16
215,4261.0,-0.1569729447364807,0.019730687141418457,0.028720855712890625,0.645294189453125,1.32977294921875,9.243133544921875,-0.27889028418996065,1.1356692136763602,0.7378789964148175,16
216,4283.0,-0.15170472860336304,0.10293781757354736,-0.17546653747558594,0.6835784912109375,1.28192138671875,9.263473510742188,-0.39866448147530426,0.6565724245349858,0.5682717389450609,16
217,4300.0,-0.11358612775802612,0.05669713020324707,-0.15466594696044922,0.658447265625,1.2675628662109375,9.551803588867188,-1.5072315045250537,-2.2468590293673945,-0.5263070566845025,16
218,4316.0,-0.14257073402404785,0.04539811611175537,0.13306140899658203,0.56512451171875,1.1383514404296875,9.66546630859375,-1.0491170565139585,-1.47838078547092,-0.7081540131469221,16
219,4333.0,-0.23412275314331055,-0.07819712162017822,0.2398529052734375,0.56512451171875,1.1383514404296875,9.66546630859375,-1.0491170565139585,-1.47838078547092,-0.7081540131469221,16
220,4350.0,-0.23573428392410278,-0.07589197158813477,0.2388172149658203,0.5974273681640625,1.177825927734375,9.564971923828125,-0.20282929759269866,0.1792241638211346,0.6495783108248927,16
221,4367.0,-0.2031325101852417,-0.035291433334350586,0.13766765594482422,0.6129913330078125,1.2149200439453125,9.451309204101562,-0.20282929759269866,0.1792241638211346,0.6495783108248927,16
222,4389.0,-0.15479564666748047,0.010916590690612793,-0.1392669677734375,0.669219970703125,1.2484130859375,9.3316650390625,-0.20807488287526846,0.5918768727166249,1.2108559360598605,16
223,4406.0,-0.11611241102218628,0.03684806823730469,-0.09032154083251953,0.615386962890625,1.1921844482421875,9.445327758789062,-0.9643134277790802,0.16960725746975663,0.9511994645726558,16
224,4424.0,-0.16571587324142456,-0.015350341796875,0.022284507751464844,0.615386962890625,1.1921844482421875,9.445327758789062,-1.525591053014048,-0.3619453844973157,0.3995387456890659,16
225,4441.0,-0.16233175992965698,-0.01056671142578125,0.021207809448242188,0.5723114013671875,1.1730499267578125,9.527877807617188,-1.6462395145131532,-0.430137993170723,0.5079475081955083,16
226,4458.0,-0.20159649848937988,-0.025721430778503418,0.10062980651855469,0.6369171142578125,1.1850128173828125,9.4764404296875,-0.5953739295716715,-0.8130657187983179,0.8139399830120795,16
227,4475.0,-0.1352478265762329,-0.012022018432617188,0.04782295227050781,0.6668243408203125,1.2209014892578125,9.41302490234375,-0.27626749154867575,-0.5105703008367931,0.8576531937001611,16
228,4492.0,-0.10420012474060059,0.024937987327575684,-0.015233993530273438,0.6165771484375,1.2077484130859375,9.542236328125,-0.8585274579139227,-0.5761401168689155,1.057859698651575,16
229,4509.0,-0.1515136957168579,0.014446139335632324,0.11054325103759766,0.6560516357421875,1.2376556396484375,9.4884033203125,-1.2029875581360059,-0.1792241638211346,0.9520737287864174,16
230,4526.0,-0.10919195413589478,0.046273231506347656,0.054757118225097656,0.6560516357421875,1.2376556396484375,9.4884033203125,-0.9756788625579814,0.24304545142573372,1.1111898156910345,16
231,4543.0,-0.1063232421875,0.047325968742370605,0.05295372009277344,0.6716156005859375,1.2508087158203125,9.45489501953125,-0.5743915884413923,-0.06906687288716894,1.2353353340451863,16
232,4560.0,-0.08831745386123657,0.06026172637939453,0.018726348876953125,0.6787872314453125,1.2388458251953125,9.37115478515625,-0.33134613701565857,0.2955013042514317,1.0272604511699177,16
233,4577.0,-0.07784569263458252,0.04814565181732178,-0.06344223022460938,0.6428985595703125,1.2209014892578125,9.415420532226562,-0.40653285939915895,0.7125253342157302,0.7920833776680387,16
234,4594.0,-0.10980600118637085,0.03149819374084473,-0.018975257873535156,0.629730224609375,1.229278564453125,9.453704833984375,-1.0797163039956157,0.022730869557802437,0.4983306018441303,16
235,4610.0,-0.11972451210021973,0.041453003883361816,0.018446922302246094,0.639312744140625,1.2496185302734375,9.463272094726562,-0.8585274579139227,-0.050707324398174665,0.26053073570096635,16
236,4627.0,-0.10733485221862793,0.06244075298309326,0.026958465576171875,0.639312744140625,1.2496185302734375,9.463272094726562,-0.800826019805655,0.021856605344040804,1.0019067889708304,16
237,4645.0,-0.10492044687271118,0.06325507164001465,0.025933265686035156,0.6608428955078125,1.2866973876953125,9.385513305664062,-0.9310913876561382,-0.1818469564624195,1.0805905682093773,16
238,4662.0,-0.08366590738296509,0.09987831115722656,-0.050475120544433594,0.657257080078125,1.2364501953125,9.298171997070312,-0.6452069897560845,-1.4941175413186294,0.9293428592286149,16
239,4678.0,-0.09184527397155762,0.050371766090393066,-0.1336984634399414,0.7134857177734375,1.1921844482421875,9.269454956054688,-0.8139399830120795,-3.5398958015208484,0.5665232105175376,16
240,4696.0,-0.04498964548110962,0.00862586498260498,-0.15741252899169922,0.73980712890625,1.253204345703125,9.4764404296875,-1.1653941969442556,-4.138766787947566,-0.2771417557624374,16
241,4713.0,-0.029944181442260742,0.07208836078643799,0.048605918884277344,0.5986328125,1.1551055908203125,9.526687622070312,-2.200523026038028,-4.8119502325440235,-1.0351288290937724,16
242,4731.0,-0.17721813917160034,-0.020162582397460938,0.0963602066040039,0.5986328125,1.1551055908203125,9.526687622070312,-1.922507006061829,-3.740976570686024,-2.7110933268748214,16
243,4747.0,-0.1793929934501648,-0.014852762222290039,0.09368228912353516,0.5088958740234375,1.0749359130859375,9.678634643554688,-1.9426150829783466,-2.0422812033471724,-1.2851683942295993,16
244,4764.0,-0.2638062834739685,-0.08757185935974121,0.2383890151977539,0.627349853515625,1.20654296875,9.781524658203125,-1.6680961198571942,0.39604168883401936,0.9293428592286149,16
245,4786.0,-0.13915115594863892,0.046141982078552246,0.3312110900878906,0.7661285400390625,1.2723541259765625,9.667861938476562,-0.5892540800753401,1.5439506015030424,1.7555225412333573,16
246,4805.0,0.002764105796813965,0.10910201072692871,0.21121883392333984,0.740997314453125,1.2388458251953125,9.481216430664062,1.6855814041324269,0.021856605344040804,0.1337624247055297,16
247,4822.0,-0.02039957046508789,0.0705115795135498,0.024148941040039062,0.658447265625,1.177825927734375,9.363967895507812,2.0737547150425915,-0.19496091966884396,-0.34183730758079817,16
248,4839.0,-0.09843319654464722,-0.0010128021240234375,-0.08666801452636719,0.658447265625,1.177825927734375,9.363967895507812,2.0737547150425915,-0.19496091966884396,-0.34183730758079817,16
249,4856.0,-0.09843319654464722,-0.0010128021240234375,-0.08666801452636719,0.6321258544921875,1.1790313720703125,9.292190551757812,0.8900009696093415,-0.37680787613126343,-0.4004130099028275,16
250,4873.0,-0.12245398759841919,-0.003264904022216797,-0.1535205841064453,0.69195556640625,1.165863037109375,9.241943359375,0.8900009696093415,-0.37680787613126343,-0.4004130099028275,16
251,4890.0,-0.061658382415771484,-0.01616048812866211,-0.201751708984375,0.70989990234375,1.1862030029296875,9.262283325195312,-0.9066119896708125,0.21681752501288476,-0.6548238961074625,16
252,4907.0,-0.04373025894165039,0.007225394248962402,-0.18102359771728516,0.70989990234375,1.1862030029296875,9.465667724609375,-1.4171822905076057,-0.5175644145468862,-0.5979967222129564,16
253,4924.0,-0.0467756986618042,0.011343598365783691,0.022006988525390625,0.7063140869140625,1.1670684814453125,9.465667724609375,-1.7677622402260202,-2.096485584600394,-1.5728013205571763,16
254,4941.0,-0.05528801679611206,-0.0032547712326049805,0.02176952362060547,0.617767333984375,1.11920166015625,9.60565185546875,-1.7459056348819793,-2.0116819558655155,-1.4775065212571583,16
255,4958.0,-0.1474393606185913,-0.046858906745910645,0.16091632843017578,0.603424072265625,1.1503143310546875,9.597274780273438,-1.342869832337867,-1.2685573741681282,-0.3680652339936471,16
256,4977.0,-0.16369080543518066,-0.012450575828552246,0.15171432495117188,0.6189727783203125,1.165863037109375,9.603256225585938,-1.0351288290937724,-0.6565724245349858,-0.04371321068808161,16
257,4995.0,-0.14932620525360107,0.005944371223449707,0.15683269500732422,0.611785888671875,1.1562957763671875,9.472854614257812,-1.022014865887348,-0.6233503844120437,0.2666505851972978,16
258,5012.0,-0.1576824188232422,-0.0013608932495117188,0.026193618774414062,0.611785888671875,1.1562957763671875,9.472854614257812,-0.5437923409597352,-0.6006195148542413,0.5306783777533107,16
259,5029.0,-0.15559417009353638,-0.0003052949905395508,0.0255279541015625,0.7122955322265625,1.26397705078125,9.292190551757812,-0.11540287621653544,-0.9564450498552255,0.6653150666726021,16
260,5046.0,-0.056182265281677246,0.10400748252868652,-0.15056610107421875,0.7589569091796875,1.2603912353515625,9.280227661132812,0.42664093631567646,-0.959942106710272,-0.363693912924839,16
261,5062.0,-0.01084071397781372,0.09707450866699219,-0.15781688690185547,0.7194671630859375,1.2328643798828125,9.378326416015625,-0.13201389627800644,-0.3995387456890659,-1.112064079904796,16
262,5079.0,-0.05001091957092285,0.06866323947906494,-0.058101654052734375,0.6847686767578125,1.183807373046875,9.496780395507812,-0.8707671569065856,-0.7405017890561024,-1.6270057018103974,16
263,5096.0,-0.0848347544670105,0.021579861640930176,0.05856609344482422,0.7146759033203125,1.1694488525390625,9.520706176757812,-1.2318382771901397,-1.449530066416786,-1.1758853675093952,16
264,5113.0,-0.05657005310058594,0.010103464126586914,0.080078125,0.7146759033203125,1.1694488525390625,9.520706176757812,-1.252820618320419,-1.1959934444259128,-1.1662684611580172,16
265,5130.0,-0.05691230297088623,0.012566924095153809,0.07767200469970703,0.599822998046875,1.1455230712890625,9.620010375976562,-0.959942106710272,-0.4852166386377058,-0.9337141802974231,16
266,5147.0,-0.16797983646392822,-0.00917208194732666,0.17191123962402344,0.5962371826171875,1.171844482421875,9.580520629882812,-0.5333011703945956,-0.4004130099028275,-0.311238060099141,16
267,5167.0,-0.16789859533309937,0.01801586151123047,0.12866783142089844,0.6440887451171875,1.1921844482421875,9.422592163085938,0.278016019976199,0.11452861200277381,0.278016019976199,16
268,5189.0,-0.11721515655517578,0.037605881690979004,-0.028446197509765625,0.6907501220703125,1.205352783203125,9.282623291015625,0.35495127078722266,0.3453343644358447,-0.09442053508625627,16
269,5206.0,-0.06800520420074463,0.04853177070617676,-0.1636829376220703,0.651275634765625,1.1730499267578125,9.35919189453125,0.35495127078722266,0.3453343644358447,-0.09442053508625627,16
270,5226.0,-0.10115128755569458,0.017871975898742676,-0.0826873779296875,0.7254486083984375,1.1909942626953125,9.493179321289062,-1.3148933774974947,-0.4957078092028454,-0.1556190300495705,16
271,5248.0,-0.029311418533325195,0.037639617919921875,0.04977607727050781,0.705108642578125,1.1634674072265625,9.57574462890625,-0.843664966279975,-1.8927820227939336,-0.6294702339083751,16
272,5265.0,-0.05412191152572632,0.011106729507446289,0.12897872924804688,0.6417083740234375,1.1168212890625,9.558990478515625,-0.24304545142573372,-2.669128644614263,-1.1059442304084646,16
273,5287.0,-0.11988049745559692,-0.03566086292266846,0.1096954345703125,0.6596527099609375,1.1862030029296875,9.34722900390625,0.8506590799900681,-1.839451905754474,-1.5885380764048855,16
274,5304.0,-0.10220891237258911,0.030295729637145996,-0.0986776351928711,0.7601470947265625,1.2256927490234375,9.392684936523438,-0.4537431269422871,0.04109041804679671,0.4572401837973336,16
275,5322.0,-0.0025762319564819336,0.06733596324920654,-0.05160713195800781,0.7601470947265625,1.2256927490234375,9.392684936523438,-0.4537431269422871,0.04109041804679671,0.4572401837973336,16
276,5339.0,-0.0018399357795715332,0.06734871864318848,-0.05045795440673828,0.7194671630859375,1.2077484130859375,9.514724731445312,-0.8296767388597889,-0.28151307683124555,-1.4206793473626522,16
277,5356.0,-0.040798187255859375,0.05021679401397705,0.06928157806396484,0.623748779296875,1.1407470703125,9.537460327148438,0.01223969899266285,-1.1802566885782033,-1.8717996816636544,16
278,5373.0,-0.13414794206619263,-0.015575289726257324,0.08948326110839844,0.5483856201171875,1.0928802490234375,9.397476196289062,0.01223969899266285,-1.1802566885782033,-1.8717996816636544,16
279,5393.0,-0.11696773767471313,-0.03763580322265625,-0.05983448028564453,0.6955413818359375,1.1742401123046875,9.46685791015625,-0.09354627087249463,-1.316641905925018,-0.47210267543128137,16
280,5412.0,-0.0623093843460083,0.020355582237243652,0.022208213806152344,0.6955413818359375,1.1742401123046875,9.46685791015625,-0.7824664713166608,-1.1688912537993021,-0.04721026754312813,16
281,5430.0,-0.06396251916885376,0.021296381950378418,0.021678924560546875,0.7182769775390625,1.2005615234375,9.518310546875,-0.3479571570771296,-1.3629779092543846,-0.08305510030735505,16
282,5446.0,-0.04435145854949951,0.046205997467041016,0.07145404815673828,0.7146759033203125,1.1826171875,9.5302734375,0.3645681771386006,-1.886662173297602,-0.5333011703945956,16
283,5464.0,-0.0508265495300293,0.025418519973754883,0.08169269561767578,0.646484375,1.165863037109375,9.360382080078125,1.0263861869561561,-1.4504043306305476,-1.188125066502058,16
284,5480.0,-0.11866259574890137,0.006235003471374512,-0.08524227142333984,0.5663299560546875,1.100067138671875,9.39508056640625,0.38817331091016466,-1.0631052839341446,-1.4294219895002684,16
285,5497.0,-0.19534051418304443,-0.05772411823272705,-0.048996925354003906,0.5782928466796875,1.0988616943359375,9.515914916992188,-0.7020341636505906,-0.7282620900634396,-0.7711010365377595,16
286,5514.0,-0.18003875017166138,-0.05519270896911621,0.06972599029541016,0.5782928466796875,1.0988616943359375,9.515914916992188,-0.9223487455185219,-0.6723091803826952,-0.009616906351377954,16
287,5531.0,-0.17687588930130005,-0.051647186279296875,0.06769084930419922,0.646484375,1.1790313720703125,9.435760498046875,-0.5639004178762527,-0.6793032940927881,0.1311396320642448,16
288,5548.0,-0.10751038789749146,0.028975605964660645,-0.012121200561523438,0.711090087890625,1.2077484130859375,9.481216430664062,-0.3505799497184145,-0.67493197302398,0.008742642137616321,16
289,5565.0,-0.0438767671585083,0.056745052337646484,0.032502174377441406,0.69793701171875,1.1610870361328125,9.514724731445312,-0.15999035111837867,-0.96955901306165,-0.30599247481657127,16
290,5581.0,-0.05838882923126221,0.00898289680480957,0.06451225280761719,0.646484375,1.1431427001953125,9.470458984375,0.7107768057882069,-1.3078992637874016,-0.4336350500257695,16
291,5599.0,-0.11057400703430176,-0.010720372200012207,0.020231246948242188,0.646484375,1.1431427001953125,9.470458984375,0.698537106795544,-1.6296284944516823,-0.598870986426718,16
292,5616.0,-0.11102718114852905,-0.011986613273620605,0.020142555236816406,0.603424072265625,1.159881591796875,9.374740600585938,0.38030493298630996,-1.1164354009736042,-0.4406291637358626,16
293,5633.0,-0.1522308588027954,0.004409432411193848,-0.0732564926147461,0.623748779296875,1.13116455078125,9.399871826171875,-0.25528515041839656,-0.7326334111322477,0.0463360033293665,16
294,5650.0,-0.13058322668075562,-0.02259206771850586,-0.04672813415527344,0.73382568359375,1.1634674072265625,9.535064697265625,-0.48346811021018254,-0.9546965214277023,0.3846762540551181,16
295,5667.0,-0.02269798517227173,0.011329412460327148,0.0859975814819336,0.71588134765625,1.183807373046875,9.50634765625,-0.8690186284790623,-1.019392073246063,0.25790794305968145,16
296,5687.0,-0.04243093729019165,0.03258836269378662,0.05570411682128906,0.68597412109375,1.1323699951171875,9.543441772460938,-0.4677313543624732,-1.1487831768827845,-0.25790794305968145,16
297,5704.0,-0.07378506660461426,-0.018002748489379883,0.09045791625976562,0.68597412109375,1.1323699951171875,9.543441772460938,0.15911608690461704,-1.5238425245865248,-0.5997452506404797,16
298,5722.0,-0.07498794794082642,-0.01857733726501465,0.08833694458007812,0.681182861328125,1.112030029296875,9.46087646484375,0.5009533944854152,-1.1015729093396565,-1.1199324578286507,16
299,5739.0,-0.07860404253005981,-0.039455294609069824,0.0058917999267578125,0.67999267578125,1.11322021484375,9.372344970703125,0.5507864546698282,0.1005403845825877,-0.7527414880487653,16
300,5756.0,-0.07757508754730225,-0.038260579109191895,-0.0802154541015625,0.7075042724609375,1.11322021484375,9.352005004882812,-0.10491170565139586,-1.1706397822268255,-0.5044504513404617,16
301,5773.0,-0.05042201280593872,-0.0373462438583374,-0.09760379791259766,0.6548614501953125,1.1156158447265625,9.392684936523438,-0.10491170565139586,-1.1706397822268255,-0.5044504513404617,16
302,5790.0,-0.1029355525970459,-0.03369629383087158,-0.05515861511230469,0.6967315673828125,1.1574859619140625,9.324493408203125,-0.22118884608169292,-1.0360030933075342,-0.9345884445111847,16
303,5806.0,-0.06072068214416504,0.008593082427978516,-0.11989402770996094,0.6967315673828125,1.1574859619140625,9.324493408203125,-0.37680787613126343,-0.1468763879119542,-0.5315526419670723,16
304,5824.0,-0.05973595380783081,0.009907126426696777,-0.11669635772705078,0.669219970703125,1.1826171875,9.42498779296875,-0.8786355348304403,-0.5280555851120258,-0.7265135616359163,16
305,5840.0,-0.08594661951065063,0.03651273250579834,-0.015959739685058594,0.6488800048828125,1.1969757080078125,9.526687622070312,-1.1243037788974588,-0.529804113539549,-0.5831342305790086,16
306,5858.0,-0.10448294878005981,0.05225181579589844,0.08311080932617188,0.663238525390625,1.1551055908203125,9.624786376953125,-1.1243037788974588,-0.529804113539549,-0.5831342305790086,16
307,5875.0,-0.08993571996688843,0.012905359268188477,0.17601966857910156,0.6369171142578125,1.094085693359375,9.7647705078125,-1.057859698651575,-1.3297558691314424,-0.558654832593683,16
308,5893.0,-0.11706894636154175,-0.04519820213317871,0.3073568344116211,0.5950469970703125,1.0749359130859375,9.62957763671875,1.3961999493773265,-0.9905413541919292,-0.7859635281717073,16
309,5910.0,-0.15807580947875977,-0.064308762550354,0.1678752899169922,0.5950469970703125,1.0749359130859375,9.62957763671875,1.3961999493773265,-0.9905413541919292,-0.7859635281717073,16
310,5927.0,-0.1563776731491089,-0.0671234130859375,0.16398239135742188,0.7721099853515625,1.1790313720703125,9.356796264648438,2.3377825075986043,-1.5264653172278098,-0.07518672238350037,16
311,5944.0,0.016578972339630127,0.030149102210998535,-0.10479450225830078,0.810394287109375,1.223297119140625,9.127090454101562,0.48346811021018254,-1.2851683942295993,-1.3874573072397103,16
312,5961.0,0.049790382385253906,0.06838905811309814,-0.3244447708129883,0.7015228271484375,1.141937255859375,9.261077880859375,0.48346811021018254,-1.2851683942295993,-1.3874573072397103,16
313,5980.0,-0.06066650152206421,-0.012650489807128906,-0.18955039978027344,0.6141815185546875,1.1287841796875,9.433364868164062,-1.7494026917370258,-0.5149416219056013,-1.7432828422406945,16
314,5997.0,-0.1237480640411377,-0.02503657341003418,0.11673259735107422,0.639312744140625,1.1215972900390625,9.568557739257812,-1.7048152168351827,-0.7973289629506085,-1.342869832337867,16
315,6014.0,-0.12479656934738159,-0.021200895309448242,0.11591911315917969,0.6560516357421875,1.13714599609375,9.633163452148438,-1.2056103507772906,-0.6434584613285612,-1.1828794812194883,16
316,6031.0,-0.10826361179351807,-0.003944039344787598,0.17962169647216797,0.6309356689453125,1.1275787353515625,9.597274780273438,-0.2176917892266464,-0.1337624247055297,-1.309647792214925,16
317,6048.0,-0.1320067048072815,-0.014036059379577637,0.14313793182373047,0.615386962890625,1.129974365234375,9.50634765625,0.4406291637358626,0.430137993170723,-1.1444118558139764,16
318,6067.0,-0.1417454481124878,-0.013720273971557617,0.050911903381347656,0.6165771484375,1.183807373046875,9.352005004882812,1.190747859143343,0.6111106854193809,-0.7588613375450967,16
319,6087.0,-0.13866496086120605,0.0369488000869751,-0.10274219512939453,0.6165771484375,1.183807373046875,9.352005004882812,0.8987436117469578,0.2089491470890301,-0.2823873410450072,16
320,6105.0,-0.13861751556396484,0.03469657897949219,-0.10201740264892578,0.6596527099609375,1.1682586669921875,9.37713623046875,0.5402952841046886,-0.7186451837120617,-0.7492444311937188,16
321,6121.0,-0.0970381498336792,0.018167972564697266,-0.07630538940429688,0.6405029296875,1.1634674072265625,9.50634765625,-0.04196468226055834,-0.8900009696093415,-1.1837537454332498,16
322,6138.0,-0.1152682900428772,0.013010025024414062,0.051619529724121094,0.6835784912109375,1.13116455078125,9.604446411132812,-0.13551095313305297,-1.088458946133232,-0.9879185615506443,16
323,6155.0,-0.07332682609558105,-0.019467592239379883,0.14589595794677734,0.6488800048828125,1.094085693359375,9.55419921875,0.4904622239202756,-1.5063572403112921,-1.174136839081872,16
324,6173.0,-0.10815423727035522,-0.057702064514160156,0.09357357025146484,0.6405029296875,1.1491241455078125,9.3316650390625,1.3769661366745707,-1.05523690601029,-0.7824664713166608,16
325,6193.0,-0.11517184972763062,-0.006198406219482422,-0.12478923797607422,0.7003326416015625,1.189788818359375,9.268264770507812,1.197741972853436,-0.49658207341660704,-0.5166901503331246,16
326,6211.0,-0.054257333278656006,0.031024456024169922,-0.18262195587158203,0.7003326416015625,1.189788818359375,9.268264770507812,0.5621518894487294,0.030599247481657123,-0.5472893978147817,16
327,6228.0,-0.052907347679138184,0.030025243759155273,-0.1775197982788086,0.7015228271484375,1.2137298583984375,9.390289306640625,-1.4250506684314603,-1.117309665187366,-1.6724674409260023,16
328,6245.0,-0.05179566144943237,0.05488240718841553,-0.05413055419921875,0.6488800048828125,1.153900146484375,9.588897705078125,-1.4250506684314603,-1.117309665187366,-1.6724674409260023,16
329,6262.0,-0.10357236862182617,-0.002791285514831543,0.14037799835205078,0.609405517578125,1.1455230712890625,9.549423217773438,0.456365919583572,-1.1435375916002148,-1.314019113283733,16
330,6279.0,-0.14120465517044067,-0.01133120059967041,0.09832763671875,0.623748779296875,1.1622772216796875,9.434555053710938,0.456365919583572,-1.1435375916002148,-1.314019113283733,16
331,6297.0,-0.12607038021087646,0.00383150577545166,-0.01568889617919922,0.623748779296875,1.1622772216796875,9.434555053710938,0.40915565204044385,-1.2029875581360059,-1.266808845740605,16
332,6313.0,-0.12574690580368042,0.0029033422470092773,-0.014901161193847656,0.66802978515625,1.1670684814453125,9.538650512695312,0.3348431938707051,-1.1426633273864533,-0.774598093392806,16
333,6330.0,-0.08238095045089722,0.006811857223510742,0.0870504379272461,0.6775970458984375,1.1443328857421875,9.472854614257812,0.3348431938707051,-1.1426633273864533,-0.774598093392806,16
334,6347.0,-0.07291042804718018,-0.01747000217437744,0.021076202392578125,0.6201629638671875,1.1551055908203125,9.369949340820312,0.9328399160836615,-0.575265852655154,-0.9844215046955977,16
335,6365.0,-0.1280444860458374,-0.009327173233032227,-0.07910537719726562,0.6668243408203125,1.1634674072265625,9.312530517578125,0.30511821060280964,-0.8532818726313529,-0.8585274579139227,16
336,6381.0,-0.0807390809059143,-0.0028007030487060547,-0.13237476348876953,0.6488800048828125,1.1491241455078125,9.415420532226562,0.30511821060280964,-0.8532818726313529,-0.8585274579139227,16
337,6398.0,-0.09913206100463867,-0.016777515411376953,-0.028400421142578125,0.6488800048828125,1.1491241455078125,9.415420532226562,-0.6635665382450788,-0.8725156853341088,-0.7606098659726199,16
338,6415.0,-0.09961014986038208,-0.015108108520507812,-0.027504920959472656,0.634521484375,1.1646728515625,9.429779052734375,-0.6635665382450788,-0.8725156853341088,-0.7606098659726199,16
339,6432.0,-0.11313295364379883,0.0015206336975097656,-0.012731552124023438,0.6369171142578125,1.1790313720703125,9.44891357421875,-0.2587822072734431,-1.3183904343525412,-0.6653150666726021,16
340,6448.0,-0.110606849193573,0.015996217727661133,0.006389617919921875,0.6656341552734375,1.141937255859375,9.523101806640625,-0.37768214034502506,-1.5299623740828563,-1.1584000832341625,16
341,6465.0,-0.08314317464828491,-0.01985025405883789,0.0785369873046875,0.617767333984375,1.1204071044921875,9.537460327148438,-0.37768214034502506,-1.5299623740828563,-1.1584000832341625,16
342,6482.0,-0.13077640533447266,-0.039650917053222656,0.09051322937011719,0.615386962890625,1.1455230712890625,9.399871826171875,0.6539496318937008,-1.525591053014048,-0.3995387456890659,16
343,6499.0,-0.13298434019088745,-0.014857888221740723,-0.045398712158203125,0.615386962890625,1.1455230712890625,9.399871826171875,0.6539496318937008,-1.525591053014048,-0.3995387456890659,16
344,6517.0,-0.13419008255004883,-0.015223264694213867,-0.043651580810546875,0.6668243408203125,1.1790313720703125,9.36517333984375,-1.0255119227423946,-2.150689965853615,-0.869892892692824,16
345,6533.0,-0.08611589670181274,0.019207239151000977,-0.0758981704711914,0.6835784912109375,1.1694488525390625,9.481216430664062,-1.0945787956295634,-1.9959452000178062,-0.9468281435038476,16
346,6550.0,-0.07271003723144531,0.012012958526611328,0.03912544250488281,0.603424072265625,1.1144256591796875,9.578125,-1.0945787956295634,-1.9959452000178062,-0.9468281435038476,16
347,6567.0,-0.1532524824142456,-0.04025304317474365,0.13243675231933594,0.6883544921875,1.1503143310546875,9.46685791015625,0.30336968217528637,-2.543234597832588,-0.17834989960737296,16
348,6584.0,-0.08878612518310547,-0.016430020332336426,-0.07901763916015625,0.675201416015625,1.1383514404296875,9.363967895507812,-0.027976454840372228,-2.0571436949811206,-0.5201872071881711,16
349,6601.0,-0.08878612518310547,-0.016430020332336426,-0.07901763916015625,0.675201416015625,1.1383514404296875,9.363967895507812,-0.8471620231350215,-1.0998243809121333,-0.24129692299821046,16
350,6618.0,-0.09043997526168823,-0.014879822731018066,-0.07662296295166016,0.687164306640625,1.1455230712890625,9.459686279296875,-0.9817987120543129,-1.3559837955442915,0.032347775909180386,16
351,6635.0,-0.07956457138061523,-0.0050580501556396484,0.018532752990722656,0.7613372802734375,1.1551055908203125,9.529083251953125,-0.12327125414039013,-1.4241764042176988,-0.13988227420186114,16
352,6654.0,-0.045150578022003174,0.022516250610351562,0.029054641723632812,0.71588134765625,1.1826171875,9.337646484375,0.5289298493257875,-2.421711872119721,-0.7151481268570151,16
353,6677.0,-0.06272643804550171,0.02967548370361328,-0.1025228500366211,0.7589569091796875,1.1562957763671875,9.264678955078125,0.4380063710945777,-2.3106803169719936,-1.2484492972516106,16
354,6694.0,-0.024055063724517822,0.0028825998306274414,-0.17015933990478516,0.7589569091796875,1.1562957763671875,9.264678955078125,-0.35145421393217613,-1.6602277419333393,-1.114686872546081,16
355,6711.0,-0.027192234992980957,0.004841923713684082,-0.16536712646484375,0.735015869140625,1.13116455078125,9.58770751953125,-1.3804631935296172,-1.4871234276085363,-1.4635182938369722,16
356,6728.0,-0.051438093185424805,-0.016632914543151855,0.1530466079711914,0.6417083740234375,1.122802734375,9.4764404296875,-1.1636456685167325,-0.15037344476700074,-1.4267991968589837,16
357,6745.0,-0.1425451636314392,-0.022162675857543945,0.04051017761230469,0.6357269287109375,1.0857086181640625,9.529083251953125,-0.6452069897560845,-1.5220939961590014,-1.1846280096470114,16
358,6761.0,-0.15019440650939941,-0.05578958988189697,0.09082794189453125,0.6321258544921875,1.0330657958984375,9.645126342773438,-0.5437923409597352,-3.0354453501803866,0.10228891301011096,16
359,6779.0,-0.15756243467330933,-0.10359132289886475,0.20157718658447266,0.7194671630859375,1.078521728515625,9.480026245117188,-0.5437923409597352,-3.0354453501803866,0.10228891301011096,16
360,6797.0,-0.0746145248413086,-0.05524313449859619,0.0358428955078125,0.7194671630859375,1.078521728515625,9.480026245117188,-0.3156093811679492,-1.551818979426897,0.979175919413028,16
361,6816.0,-0.07702237367630005,-0.052817344665527344,0.035117149353027344,0.7541656494140625,1.1275787353515625,9.298171997070312,-0.04458747490184324,-2.313303109613279,0.032347775909180386,16
362,6832.0,-0.04649984836578369,-0.0032356977462768555,-0.1422576904296875,0.7960357666015625,1.2005615234375,9.227584838867188,-0.04458747490184324,-2.313303109613279,0.032347775909180386,16
363,6850.0,-0.010582447052001953,0.06925737857818604,-0.2065877914428711,0.810394287109375,1.1562957763671875,9.207244873046875,-2.6472720392702223,-1.544824865716804,0.25528515041839656,16
364,6867.0,-0.0014096498489379883,0.0292665958404541,-0.2207813262939453,0.92645263671875,1.1969757080078125,9.579330444335938,-2.6472720392702223,-1.544824865716804,0.25528515041839656,16
365,6884.0,0.10733026266098022,0.07559621334075928,0.14655208587646484,0.732635498046875,1.0916900634765625,9.68701171875,-3.032822557539102,-1.5684299994883681,-0.5455408693872584,16
366,6901.0,-0.08867543935775757,-0.02182149887084961,0.2467365264892578,0.732635498046875,1.0916900634765625,9.68701171875,-0.7029084278643523,-1.3533610029030065,-0.9616906351377953,16
367,6918.0,-0.0926506519317627,-0.017769336700439453,0.2456207275390625,0.8008270263671875,1.10723876953125,9.637954711914062,-0.7029084278643523,-1.3533610029030065,-0.9616906351377953,16
368,6936.0,-0.02670419216156006,-0.0008072853088378906,0.1957836151123047,0.609405517578125,1.0797271728515625,9.55419921875,0.15037344476700074,-0.3269748159468504,-1.5579388289232285,16
369,6957.0,-0.23919075727462769,-0.04852783679962158,-0.02443218231201172,0.6644287109375,1.1395416259765625,9.276641845703125,0.767603979682713,-0.3593225918560308,-0.6452069897560845,16
370,6984.0,-0.16322028636932373,0.02832174301147461,-0.16457176208496094,0.732635498046875,1.1215972900390625,9.324493408203125,-0.1416308026293844,-1.2134787287011455,-0.3427115717945598,16
371,7000.0,-0.09711819887161255,0.009635090827941895,-0.11593246459960938,0.732635498046875,1.1215972900390625,9.324493408203125,-0.1416308026293844,-1.2134787287011455,-0.3427115717945598,16
372,7017.0,-0.10190814733505249,0.011877655982971191,-0.11526012420654297,0.78765869140625,1.09527587890625,9.535064697265625,-1.582418226908554,-2.8501013368629207,-0.8506590799900681,16
373,7034.0,-0.05405580997467041,-0.010179996490478516,0.09507274627685547,0.7613372802734375,1.0390472412109375,9.684616088867188,-1.582418226908554,-2.8501013368629207,-0.8506590799900681,16
374,7051.0,-0.08693742752075195,-0.06285643577575684,0.24383831024169922,0.780487060546875,1.0330657958984375,9.487197875976562,-0.9118575749533823,-2.3089317885444705,-0.4441262205909091,16
375,7068.0,-0.07389211654663086,-0.06760966777801514,0.046692848205566406,0.804412841796875,1.0390472412109375,9.360382080078125,0.5123188292643164,-1.8359548488994275,-0.7728495649652828,16
376,7086.0,-0.05544078350067139,-0.06243264675140381,-0.07914924621582031,0.804412841796875,1.0390472412109375,9.360382080078125,0.5123188292643164,-1.8359548488994275,-0.7728495649652828,16
377,7102.0,-0.05841958522796631,-0.06282985210418701,-0.07845020294189453,0.864227294921875,1.094085693359375,9.3077392578125,-1.6068976248938798,0.2561594146321582,-0.13288816049176808,16
378,7119.0,0.0009343624114990234,-0.005289912223815918,-0.12767982482910156,0.9192657470703125,1.1503143310546875,9.470458984375,-2.1699237785563708,0.10753449829268075,-0.9643134277790802,16
379,7136.0,0.05507856607437134,0.054463863372802734,0.033432960510253906,0.8570556640625,1.1395416259765625,9.576934814453125,-2.1699237785563708,0.10753449829268075,-0.9643134277790802,16
380,7153.0,-0.007521450519561768,0.04720437526702881,0.135528564453125,0.8271484375,1.15869140625,9.547027587890625,-1.0062781100396385,-1.7887445813562994,-2.52837210619864,16
381,7170.0,-0.03928518295288086,0.06748294830322266,0.10260868072509766,0.726654052734375,1.1084442138671875,9.475234985351562,-1.0062781100396385,-1.7887445813562994,-2.52837210619864,16
382,7187.0,-0.13990485668182373,0.01826310157775879,0.030155181884765625,0.726654052734375,1.1084442138671875,9.475234985351562,-0.6609437456037939,-2.0632635444774516,-2.5248750493435934,16
383,7205.0,-0.14039748907089233,0.018797874450683594,0.029600143432617188,0.687164306640625,1.05938720703125,9.550613403320312,-0.46860561857623484,-1.8315835278306194,-1.9504834609022013,16
384,7222.0,-0.17943459749221802,-0.02845144271850586,0.1023702621459961,0.6835784912109375,1.024688720703125,9.523101806640625,-0.46860561857623484,-1.8315835278306194,-1.9504834609022013,16
385,7239.0,-0.18156582117080688,-0.06108677387237549,0.0730752944946289,0.740997314453125,1.04742431640625,9.4525146484375,-0.021856605344040804,-1.5168484108764317,-0.6994113710093057,16
386,7256.0,-0.06242913007736206,0.00570833683013916,-0.08079910278320312,0.804412841796875,1.07733154296875,9.269454956054688,-0.3182321738092341,-1.2606889962442736,-1.2860426584433609,16
387,7279.0,-0.06303668022155762,-0.0060307979583740234,-0.1726980209350586,0.804412841796875,1.07733154296875,9.269454956054688,-0.8375451167836436,-0.7894605850267538,-1.4101881767975126,16
388,7296.0,-0.06263822317123413,-0.002801060676574707,-0.16812896728515625,0.72784423828125,1.05340576171875,9.446533203125,-1.7292946148205084,-0.5778886452964388,-1.7406600495994096,16
389,7313.0,-0.1365407109260559,-0.022192835807800293,0.008378028869628906,0.7422027587890625,1.06536865234375,9.4884033203125,-1.4005712704461346,-0.7002856352230673,-1.620885852314066,16
390,7330.0,-0.1194998025894165,-0.007265567779541016,0.048610687255859375,0.7146759033203125,1.0797271728515625,9.429779052734375,-0.8707671569065856,-0.1739785785385648,-1.4058168557287045,16
391,7348.0,-0.14338457584381104,0.008366942405700684,-0.009862899780273438,0.756561279296875,1.1144256591796875,9.4644775390625,-0.4362578426670544,-0.41964682260558345,-0.9249715381598068,16
392,7364.0,-0.10009396076202393,0.04289138317108154,0.02415752410888672,0.7601470947265625,1.0749359130859375,9.41900634765625,-0.4703541470037581,-0.8148142472258412,-0.6828003509478346,16
393,7382.0,-0.09649378061294556,0.004876852035522461,-0.020658493041992188,0.7601470947265625,1.0749359130859375,9.41900634765625,-0.8471620231350215,-1.3559837955442915,-0.9686847488478884,16
394,7399.0,-0.0971788763999939,0.0077353715896606445,-0.020119667053222656,0.73382568359375,1.0617828369140625,9.555404663085938,-1.60165203961131,-1.4241764042176988,-1.4722609359745884,16
395,7416.0,-0.12326109409332275,-0.0015993118286132812,0.11292266845703125,0.6955413818359375,1.0330657958984375,9.545822143554688,-1.3944514209498033,-1.2825456015883143,-1.4705124075470652,16
396,7433.0,-0.15899431705474854,-0.026552557945251465,0.10031604766845703,0.7122955322265625,1.012725830078125,9.5123291015625,-0.9721818057029349,-0.3977902172615426,-0.6644408024588404,16
397,7450.0,-0.13962829113006592,-0.04323005676269531,0.06482315063476562,0.798431396484375,1.064178466796875,9.432174682617188,-0.8296767388597889,-0.6565724245349858,0.14075653841562277,16
398,7467.0,-0.0541766881942749,0.009782195091247559,-0.014909744262695312,0.7828826904296875,1.076141357421875,9.330474853515625,-0.47472546807256627,-0.9258458023735684,0.13288816049176808,16
399,7484.0,-0.07064604759216309,0.022068500518798828,-0.11321640014648438,0.7828826904296875,1.076141357421875,9.330474853515625,-0.244793979853257,-1.2353353340451863,-0.46598282593494994,16
400,7501.0,-0.0711662769317627,0.02299821376800537,-0.11001968383789062,0.729034423828125,1.001953125,9.392684936523438,-1.0167692806047781,-0.7518672238350036,-0.7990774913781318,16
401,7519.0,-0.1226569414138794,-0.045917510986328125,-0.046810150146484375,0.7553558349609375,1.0151214599609375,9.526687622070312,-2.189157591259127,-0.8034488124469399,-0.4511203343010022,16
402,7538.0,-0.09489673376083374,-0.02637040615081787,0.08427715301513672,0.7828826904296875,0.99957275390625,9.625991821289062,-2.189157591259127,-0.8034488124469399,-0.4511203343010022,16
403,7556.0,-0.06708645820617676,-0.035823702812194824,0.1780834197998047,0.729034423828125,1.01751708984375,9.428573608398438,-1.5535675078544202,-0.4703541470037581,-0.39079610355144956,16
404,7572.0,-0.1179654598236084,-0.0145643949508667,-0.019071578979492188,0.76373291015625,1.04144287109375,9.324493408203125,-1.2982823574360236,-0.05333011703945956,0.26577632098353615,16
405,7589.0,-0.08087968826293945,0.011655569076538086,-0.12001705169677734,0.76373291015625,1.04144287109375,9.324493408203125,-1.2982823574360236,-0.05333011703945956,0.26577632098353615,16
406,7606.0,-0.07950496673583984,0.015835165977478027,-0.11709403991699219,0.7900543212890625,1.0402374267578125,9.373550415039062,-2.4724191965178957,-1.3717205513920008,-0.6504525750386543,16
407,7623.0,-0.054216861724853516,0.020193815231323242,-0.06656932830810547,0.7852783203125,1.024688720703125,9.557785034179688,-2.53361769148121,-1.8569371900297067,-0.7527414880487653,16
408,7640.0,-0.06149107217788696,0.011077165603637695,0.1140594482421875,0.669219970703125,0.9720458984375,9.682220458984375,-2.53361769148121,-1.8569371900297067,-0.7527414880487653,16
409,7656.0,-0.17699182033538818,-0.034732818603515625,0.2316570281982422,0.7003326416015625,0.958892822265625,9.654708862304688,-1.3262588122763959,-1.1688912537993021,-0.005245585282569793,16
410,7673.0,-0.14538705348968506,-0.04240834712982178,0.19835186004638672,0.7003326416015625,0.958892822265625,9.495574951171875,-1.3262588122763959,-1.1688912537993021,-0.005245585282569793,16
411,7691.0,-0.14430302381515503,-0.038404643535614014,0.03809356689453125,0.79364013671875,1.030670166015625,9.495574951171875,0.03584483276422692,-1.3892058356672334,-0.3156093811679492,16
412,7708.0,-0.05278611183166504,0.03339982032775879,0.03722095489501953,0.8247528076171875,1.05340576171875,9.34722900390625,-0.15999035111837867,-1.30702499957364,-0.6198533275569972,16
413,7725.0,-0.024570167064666748,0.05463045835494995,-0.10773086547851562,0.7840728759765625,1.0031585693359375,9.314926147460938,-0.15999035111837867,-1.30702499957364,-0.6198533275569972,16
414,7743.0,-0.0802086591720581,-0.03687334060668945,-0.040523529052734375,0.8079986572265625,0.9720458984375,9.625991821289062,-2.0790003003251614,-0.3593225918560308,-0.7308848827047244,16
415,7760.0,-0.04114031791687012,-0.014782369136810303,0.17055034637451172,0.8079986572265625,0.9720458984375,9.625991821289062,-2.464550818594041,-0.06644408024588404,-0.6294702339083751,16
416,7784.0,-0.041053831577301025,-0.008390426635742188,0.1652851104736328,0.76373291015625,0.9564971923828125,9.661880493164062,-2.131456153150859,-0.8969950833194346,-1.0858361534919472,16
417,7804.0,-0.08507227897644043,-0.019370436668395996,0.19537067413330078,0.6668243408203125,0.937347412109375,9.576934814453125,-0.9992839963295456,-0.9477024077176093,-1.5124770898076236,16
418,7823.0,-0.17970341444015503,-0.035920143127441406,0.10744857788085938,0.7733001708984375,1.0270843505859375,9.478836059570312,0.09004921401744811,-1.1514059695240695,0.008742642137616321,16
419,7840.0,-0.0744583010673523,0.05256766080856323,0.009356498718261719,0.77569580078125,1.0222930908203125,9.36517333984375,0.09004921401744811,-1.1514059695240695,0.008742642137616321,16
420,7857.0,-0.07230269908905029,0.04678100347518921,-0.1012420654296875,0.78765869140625,0.99957275390625,9.432174682617188,-0.5901283442891017,-0.6312187623358984,-0.5910026085028633,16
421,7875.0,-0.06012016534805298,0.02456843852996826,-0.033280372619628906,0.78765869140625,0.99957275390625,9.432174682617188,-0.5901283442891017,-0.6312187623358984,-0.5910026085028633,16
422,7892.0,-0.06077975034713745,0.026381731033325195,-0.03240489959716797,0.78765869140625,0.949310302734375,9.634368896484375,-1.390080099880995,-1.244952240396564,-0.8454134947074983,16
423,7913.0,-0.09735751152038574,-0.0652545690536499,0.2248249053955078,0.705108642578125,0.9361572265625,9.568557739257812,0.13026536785048318,-1.6025263038250717,-1.359480852399338,16
424,7930.0,-0.14736580848693848,-0.031663596630096436,0.09117507934570312,0.75775146484375,0.9864044189453125,9.38311767578125,1.1391662705314067,-1.4635182938369722,-0.6443327255423229,16
425,7947.0,-0.09528815746307373,0.015470504760742188,-0.0910940170288086,0.7649383544921875,0.9911956787109375,9.232376098632812,0.7256392974221547,-0.9721818057029349,-0.014862491633947747,16
426,7964.0,-0.08689695596694946,0.019628167152404785,-0.2349987030029297,0.7649383544921875,0.9911956787109375,9.232376098632812,-0.6495783108248927,0.07780951502478525,0.2771417557624374,16
427,7983.0,-0.08419662714004517,0.02241307497024536,-0.22883892059326172,0.792449951171875,1.024688720703125,9.275436401367188,-1.7668879760122584,0.1958351838826056,0.3182321738092341,16
428,7999.0,-0.05839359760284424,0.0599675178527832,-0.18089580535888672,0.8821868896484375,0.955291748046875,9.58770751953125,-2.412969229982105,-2.6472720392702223,-0.4624857690799034,16
429,8016.0,0.02141207456588745,-0.0037558674812316895,0.12799453735351562,0.7960357666015625,0.8524017333984375,9.637954711914062,-1.792241638211346,-4.292637289569614,-1.6121432101764497,16
430,8033.0,-0.07074874639511108,-0.10098987817764282,0.17373275756835938,0.6022186279296875,0.82489013671875,9.381927490234375,-0.5743915884413923,-1.912890099710451,-2.424334664761006,16
431,8052.0,-0.25856852531433105,-0.12322628498077393,-0.08005809783935547,0.7972412109375,0.9576873779296875,9.451309204101562,-2.5886963369481926,0.6364643476184682,0.5979967222129564,16
432,8070.0,-0.060107290744781494,0.014097988605499268,-0.011010169982910156,0.7972412109375,0.9576873779296875,9.451309204101562,-2.5886963369481926,0.6364643476184682,0.5979967222129564,16
433,8089.0,-0.057922422885894775,0.019907355308532715,-0.011366844177246094,0.8893585205078125,1.01153564453125,9.561386108398438,-1.925129798703114,-0.15736755847709377,0.37243655506245527,16
434,8107.0,0.031556546688079834,0.07493609189987183,0.09580039978027344,0.815185546875,1.030670166015625,9.46087646484375,-1.088458946133232,-2.6341580760637977,-1.2204728424112385,16
435,8124.0,-0.04624760150909424,0.09336543083190918,-0.004328727722167969,0.740997314453125,0.982818603515625,9.68939208984375,-1.088458946133232,-2.6341580760637977,-1.2204728424112385,16
436,8141.0,-0.12468230724334717,0.04752403497695923,0.21832942962646484,0.7374114990234375,0.8883056640625,9.684616088867188,0.08567789294863995,-1.2563176751754654,-0.370688026634932,16
437,8158.0,-0.13372802734375,-0.04495304822921753,0.21303176879882812,0.7589569091796875,0.8763427734375,9.381927490234375,0.5883798158615784,0.8322995315010738,0.40128727411658915,16
438,8177.0,-0.1096423864364624,-0.05624032020568848,-0.08702373504638672,0.7589569091796875,0.8763427734375,9.381927490234375,0.5883798158615784,0.8322995315010738,0.40128727411658915,16
439,8195.0,-0.10411548614501953,-0.055316805839538574,-0.08477115631103516,0.846282958984375,0.9696502685546875,9.152206420898438,-1.4740094644021118,-1.3052764711461167,-1.138292006317645,16
440,8213.0,-0.016920924186706543,0.03983163833618164,-0.31336021423339844,0.852264404296875,0.931365966796875,9.378326416015625,-2.1664267217013244,-2.5677139958179134,-2.2328708019472083,16
441,8230.0,-0.015783846378326416,0.00614321231842041,-0.08687782287597656,0.840301513671875,0.814117431640625,9.238357543945312,-3.5110450824667145,0.3846762540551181,-2.343028092881174,16
442,8250.0,-0.09553420543670654,-0.026384353637695312,-0.07578277587890625,0.9132843017578125,0.9505157470703125,9.679824829101562,-4.330230650761364,0.10840876250644238,-1.0928302672020402,16
443,8267.0,0.04592710733413696,0.055412232875823975,0.21421146392822266,0.9132843017578125,0.9505157470703125,9.679824829101562,-4.165868978574177,-0.8751384779753938,-1.5588130931369901,16
444,8288.0,0.043771564960479736,0.06395399570465088,0.21267414093017578,0.939605712890625,0.9457244873046875,9.608047485351562,-2.5677139958179134,-0.9398340297937545,-2.590444865375716,16
445,8308.0,0.06943881511688232,0.06492888927459717,0.13978195190429688,0.7661285400390625,0.9840087890625,9.241943359375,-4.42465118584762,-0.608487892778096,-3.8756132596053154,16
446,8324.0,-0.10334974527359009,0.111197829246521,-0.2261810302734375,0.7649383544921875,0.93017578125,9.65350341796875,-4.42465118584762,-0.608487892778096,-3.8756132596053154,16
447,8341.0,-0.10584962368011475,0.06846398115158081,0.18372821807861328,0.7673187255859375,0.8583831787109375,9.927490234375,-4.448256319619184,-1.3218874912075878,-3.3545517882033824,16
448,8359.0,-0.10659646987915039,0.004519999027252197,0.45542430877685547,0.72784423828125,0.8751373291015625,9.663070678710938,0.3951674246202577,-0.9494509361451325,-1.8534401331746602,16
449,8376.0,-0.14870035648345947,0.022518932819366455,0.19038772583007812,0.72784423828125,0.8751373291015625,9.663070678710938,0.3951674246202577,-0.9494509361451325,-1.8534401331746602,16
450,8392.0,-0.1476677656173706,0.021511197090148926,0.18963909149169922,0.67041015625,0.9026641845703125,9.352005004882812,-1.9539805177572478,1.6986953673388512,-2.03004150435451,16
451,8409.0,-0.20015239715576172,0.05114388465881348,-0.1215066909790039,0.7194671630859375,0.9265899658203125,9.550613403320312,-1.9539805177572478,1.6986953673388512,-2.03004150435451,16
452,8427.0,-0.14541834592819214,0.08057093620300293,0.07579612731933594,0.822357177734375,0.877532958984375,9.87603759765625,-2.6918595141720654,1.5247167888002864,-2.74256683857024,16
453,8444.0,-0.040949106216430664,0.037773966789245605,0.3988523483276367,0.804412841796875,0.7985687255859375,9.903549194335938,-0.2421711872119721,-3.534650216238279,-3.847636804764943,16
454,8461.0,-0.06411010026931763,-0.03814983367919922,0.4248313903808594,0.804412841796875,0.7985687255859375,9.903549194335938,-0.2421711872119721,-3.534650216238279,-3.847636804764943,16
455,8480.0,-0.07127422094345093,-0.04108613729476929,0.42401885986328125,0.657257080078125,0.7196044921875,9.64752197265625,3.175327624382248,-0.8226826251496958,-1.3122705848562097,16
456,8498.0,-0.22150999307632446,-0.12705469131469727,0.16832733154296875,0.834320068359375,0.7746429443359375,9.417816162109375,3.16571071803087,-0.522809999829456,-1.1461603842414998,16
457,8515.0,-0.04581838846206665,-0.0807984471321106,-0.06016349792480469,0.9934539794921875,0.859588623046875,9.228775024414062,3.16571071803087,-0.522809999829456,-1.1461603842414998,16
458,8532.0,0.11089807748794556,-0.004208385944366455,-0.24722957611083984,0.611785888671875,0.666961669921875,9.210830688476562,0.7116510700019686,-1.5334594309379028,-4.4456335269778995,16
459,8550.0,-0.2750234603881836,-0.20086932182312012,-0.26142311096191406,0.611785888671875,0.666961669921875,9.210830688476562,-1.6147660028177346,-1.3507382102617216,-4.222696152468683,16
460,8566.0,-0.27735209465026855,-0.19406068325042725,-0.26055335998535156,0.68597412109375,0.6394500732421875,9.334060668945312,-3.424492925304313,-1.8665540963810845,-3.4428524737933075,16
461,8589.0,-0.20803451538085938,-0.21139490604400635,-0.13705062866210938,0.681182861328125,0.5808258056640625,9.469253540039062,-3.8869786943842164,-2.86583809271063,-3.0931467882886543,16
462,8608.0,-0.22136950492858887,-0.25955480337142944,-0.0017919540405273438,0.7433929443359375,0.684906005859375,9.588897705078125,-3.391270885181371,-4.453501904901754,-2.398106738348157,16
463,8625.0,-0.1711096167564392,-0.14710325002670288,0.11789131164550781,0.8307342529296875,0.82489013671875,9.348419189453125,-2.544983126260111,-4.999042774289013,-1.2318382771901397,16
464,8642.0,-0.09584766626358032,-0.0017902255058288574,-0.12133121490478516,0.973114013671875,0.9325714111328125,9.080429077148438,-2.1830377417627953,-3.659669998806192,-1.4941175413186294,16
465,8660.0,0.03579169511795044,0.11020970344543457,-0.38707447052001953,0.973114013671875,0.9325714111328125,9.080429077148438,-2.1830377417627953,-3.659669998806192,-1.4941175413186294,16
466,8676.0,0.025734901428222656,0.11794781684875488,-0.38518238067626953,0.97430419921875,0.9086456298828125,9.311325073242188,-4.203462339765927,-3.9105838281557803,-3.0616732765932357,16
467,8697.0,0.020280301570892334,0.10713797807693481,-0.15414047241210938,0.8187713623046875,0.8057403564453125,9.85809326171875,-6.908435817144417,3.273245216323551,-2.397232474134395,16
468,8713.0,-0.13139194250106812,0.02154386043548584,0.3892078399658203,0.629730224609375,0.7279815673828125,10.211029052734375,-6.908435817144417,3.273245216323551,-2.397232474134395,16
469,8732.0,-0.30543583631515503,-0.04017317295074463,0.7363948822021484,0.557952880859375,0.8165130615234375,10.11651611328125,-1.5037344476700072,6.812266753630637,-0.5175644145468862,16
470,8749.0,-0.3572993874549866,0.056768596172332764,0.6367216110229492,0.693145751953125,0.9265899658203125,9.696578979492188,1.3367499828415355,4.517323192506353,-0.6425841971147996,16
471,8768.0,-0.19609427452087402,0.16055083274841309,0.21307754516601562,0.7194671630859375,0.9026641845703125,9.480026245117188,2.041406939133411,1.3909543640947568,-1.7292946148205084,16
472,8785.0,-0.1681881546974182,0.13057148456573486,-0.0030965805053710938,0.7134857177734375,0.766265869140625,9.616424560546875,1.5832924911223158,-1.0499913207277203,-1.898901872290265,16
473,8802.0,-0.17644912004470825,-0.011404037475585938,0.1334848403930664,0.7003326416015625,0.706451416015625,9.547027587890625,2.189157591259127,-1.3638521734681461,-1.062231019720383,16
474,8819.0,-0.1937655806541443,-0.07856744527816772,0.06491756439208984,0.8079986572265625,0.6873016357421875,9.352005004882812,3.226909212994184,-2.315051638040802,-0.12676831099543664,16
475,8838.0,-0.09219473600387573,-0.1058351993560791,-0.12824153900146484,0.7374114990234375,0.6956787109375,9.16656494140625,2.982989497354689,-2.311554581185755,0.6128592138469041,16
476,8855.0,-0.16841131448745728,-0.1026880145072937,-0.31130027770996094,0.7374114990234375,0.6956787109375,9.16656494140625,1.254569146747942,-2.107851019379295,1.0902074745607553,16
477,8872.0,-0.17365306615829468,-0.10288715362548828,-0.30938053131103516,0.7673187255859375,0.7471160888671875,9.233566284179688,-0.5910026085028633,-2.0064363705829455,1.1068184946222264,16
478,8891.0,-0.15080386400222778,-0.048300325870513916,-0.24087810516357422,0.7242584228515625,0.7698516845703125,9.37713623046875,-1.3804631935296172,-3.4000135273189875,0.47472546807256627,16
479,8910.0,-0.20466673374176025,-0.02078568935394287,-0.09616279602050781,0.726654052734375,0.7877960205078125,9.639144897460938,-1.9434893471921082,-4.951832506745884,0.11452861200277381,16
480,8927.0,-0.21466857194900513,0.002802550792694092,0.16599464416503906,0.6895599365234375,0.80694580078125,9.794677734375,-2.0221731264306553,-4.536557005209109,1.008026638467162,16
481,8945.0,-0.26159507036209106,0.028281450271606445,0.32074642181396484,0.7182769775390625,0.8691558837890625,9.921493530273438,-2.381495718286686,-3.1359857347629743,1.4346675747828384,16
482,8962.0,-0.239391028881073,0.09535813331604004,0.44602394104003906,0.7182769775390625,0.8691558837890625,9.921493530273438,-1.0237633943148712,-1.9609746314673409,2.440071420608715,16
483,8986.0,-0.20856618881225586,0.1270890235900879,0.3361797332763672,0.8092041015625,0.931365966796875,9.558990478515625,2.0239216548581784,-0.9748045983442198,1.7135578589727989,16
484,9002.0,-0.15703976154327393,0.14801090955734253,0.08169746398925781,0.8941497802734375,0.8883056640625,9.5601806640625,1.744157106454456,-0.9092347823120974,1.4775065212571583,16
485,9022.0,-0.07506853342056274,0.09863400459289551,0.08336353302001953,0.846282958984375,0.8344573974609375,9.465667724609375,2.7416925743564784,-1.2711801668094131,0.8051973408744632,16
486,9039.0,-0.12767291069030762,0.036707401275634766,-0.009902000427246094,0.8474884033203125,0.766265869140625,9.38909912109375,3.1421055842593058,-2.3849927751417326,0.9004921401744811,16
487,9056.0,-0.13351589441299438,-0.03870701789855957,-0.08470821380615234,0.8474884033203125,0.766265869140625,9.38909912109375,2.416466286837151,-2.901682925474857,1.4119367052250358,16
488,9073.0,-0.14155542850494385,-0.04345458745956421,-0.08304214477539062,0.9766998291015625,0.7746429443359375,9.441741943359375,1.4372903674241233,-3.072164447158375,1.497614598173676,16
489,9091.0,-0.020987510681152344,-0.037805259227752686,-0.029114723205566406,0.987457275390625,0.7877960205078125,9.46685791015625,0.8786355348304403,-3.0284512364702936,0.7606098659726199,16
490,9108.0,-0.01802074909210205,-0.0262719988822937,-0.0030069351196289062,0.951568603515625,0.79498291015625,9.427383422851562,0.5035761871267002,-2.5318691630536865,0.5245585282569792,16
491,9125.0,-0.06065213680267334,-0.02017819881439209,-0.041461944580078125,0.92047119140625,0.8105316162109375,9.597274780273438,0.4388806353083393,-2.4365743637536688,0.3566997992147459,16
492,9142.0,-0.09886801242828369,-0.006329357624053955,0.1288461685180664,0.92047119140625,0.8105316162109375,9.597274780273438,0.8427907020662134,-2.9646299488656944,-0.010491170565139585,16
493,9160.0,-0.10778069496154785,-0.009902358055114746,0.12962818145751953,1.02813720703125,0.8224945068359375,9.592483520507812,1.7625166549434503,-3.788186838229152,0.0026227926412848964,16
494,9178.0,-0.008292078971862793,-0.004216492176055908,0.12575531005859375,1.0113983154296875,0.8619842529296875,9.367568969726562,2.6971050994546353,-2.197900233396743,-0.7361304679872942,16
495,9195.0,-0.028949618339538574,0.028224825859069824,-0.0977010726928711,0.91448974609375,0.8440399169921875,9.209640502929688,2.026544447499463,-0.9345884445111847,-1.770385032867305,16
496,9214.0,-0.1268066167831421,0.006206929683685303,-0.2540464401245117,0.843902587890625,0.766265869140625,9.255096435546875,0.4353835784532928,-0.49920486605789194,-2.393735417279349,16
497,9230.0,-0.19458544254302979,-0.0694839358329773,-0.20251083374023438,0.8175811767578125,0.7507171630859375,9.483612060546875,-2.1489414374260916,-1.7153063874003223,-2.6184213202160884,16
498,9247.0,-0.2190558910369873,-0.07912641763687134,0.025440216064453125,0.8175811767578125,0.7507171630859375,9.483612060546875,-2.1489414374260916,-1.7153063874003223,-2.6184213202160884,16
499,9265.0,-0.21561872959136963,-0.07182830572128296,0.024578094482421875,0.6405029296875,0.713623046875,9.567367553710938,-2.1183421899444346,-0.6355900834047066,-1.7695107686535434,16
500,9283.0,-0.383090615272522,-0.10150212049484253,0.1050863265991211,0.7529754638671875,0.7997589111328125,9.515914916992188,-1.01239795953597,-2.017801805361847,0.32260349487804224,16
501,9299.0,-0.2665112018585205,-0.01172560453414917,0.05223560333251953,0.834320068359375,0.9241943359375,9.475234985351562,-1.01239795953597,-2.017801805361847,0.32260349487804224,16
502,9318.0,-0.18636620044708252,0.11149907112121582,0.011755943298339844,0.85107421875,0.940948486328125,9.393890380859375,-0.608487892778096,-2.4322030426848604,-0.38555051826887976,16
503,9335.0,-0.17172014713287354,0.12596338987350464,-0.06702709197998047,0.855865478515625,0.9206085205078125,9.566162109375,-1.34986394604796,-2.243361972512348,-0.33659172229822837,16
504,9352.0,-0.16850745677947998,0.10522270202636719,0.10277652740478516,0.855865478515625,0.9206085205078125,9.566162109375,-1.34986394604796,-2.243361972512348,-0.33659172229822837,16
505,9368.0,-0.16958391666412354,0.10525405406951904,0.10029220581054688,0.8666229248046875,0.859588623046875,9.67742919921875,-0.12064846149910523,-1.6576049492920546,-1.0281347153836793,16
506,9389.0,-0.2136085033416748,-0.03530675172805786,0.10418319702148438,0.7769012451171875,0.75909423828125,9.369949340820312,0.1766013711798497,-0.6522011034661775,-0.7728495649652828,16
507,9407.0,-0.24041986465454102,-0.0541309118270874,-0.10095500946044922,0.839111328125,0.7866058349609375,9.2718505859375,-0.21856605344040803,-0.4004130099028275,0.07693525081102363,16
508,9423.0,-0.172957181930542,-0.023994147777557373,-0.19371891021728516,0.7254486083984375,0.7626800537109375,9.258682250976562,-1.1723883106543487,0.6303444981221368,-0.009616906351377954,16
509,9440.0,-0.2758857011795044,-0.041492342948913574,-0.20187091827392578,0.7254486083984375,0.7626800537109375,9.258682250976562,-2.564216938962867,1.4617697654094488,0.4231438794606299,16
510,9461.0,-0.2656193971633911,-0.031070709228515625,-0.19732284545898438,0.7182769775390625,0.79498291015625,9.567367553710938,-4.164994714360415,0.5910026085028633,1.0001582605433073,16
511,9478.0,-0.2668446898460388,0.012624144554138184,0.10748767852783203,0.864227294921875,0.84283447265625,9.908340454101562,-4.061831537136543,-1.5955321901149786,1.4626440296232106,16
512,9496.0,-0.12878477573394775,0.06929409503936768,0.44672489166259766,0.92047119140625,0.81292724609375,9.85809326171875,-2.2127627250306907,-4.250672607309055,1.4040683273011811,16
513,9515.0,-0.0867767333984375,0.04238408803939819,0.3961038589477539,1.02813720703125,0.8560028076171875,9.65350341796875,0.1766013711798497,-6.085753191994721,1.0202663374598246,16
514,9532.0,0.00299835205078125,0.08247601985931396,0.1928415298461914,1.0544586181640625,0.8165130615234375,9.39508056640625,1.915512892351736,-6.671510215215015,0.7492444311937188,16
515,9549.0,0.01263117790222168,0.037128567695617676,-0.0630331039428711,1.0544586181640625,0.8165130615234375,9.39508056640625,2.3229200159646566,-5.242088225714746,0.3890475751239263,16
516,9566.0,0.0006164312362670898,0.03182578086853027,-0.0610198974609375,1.0999298095703125,0.80096435546875,9.180923461914062,0.10491170565139586,0.10753449829268075,-1.0779677755680923,16
517,9583.0,0.0414811372756958,0.01389622688293457,-0.2733469009399414,1.04608154296875,0.77703857421875,8.905746459960938,0.10491170565139586,0.10753449829268075,-1.0779677755680923,16
518,9600.0,-0.006276965141296387,-0.0067261457443237305,-0.5471839904785156,0.8139801025390625,0.7387542724609375,8.783721923828125,-2.7749146144794206,4.0443462528613106,-1.6453652502993916,16
519,9617.0,-0.22347009181976318,-0.032206058502197266,-0.6689958572387695,0.5424041748046875,0.748321533203125,9.38909912109375,-9.741926133945867,4.1562520722228,-0.31735790959547244,16
520,9634.0,-0.4790691137313843,-0.00011211633682250977,-0.06667423248291016,0.7003326416015625,0.8643646240234375,9.915512084960938,-9.741926133945867,4.1562520722228,-0.31735790959547244,16
521,9652.0,-0.30986976623535156,0.14268285036087036,0.4546375274658203,0.7003326416015625,0.8643646240234375,9.915512084960938,-9.758537154007337,6.2536119210369545,1.1138126083323194,16
522,9668.0,-0.29589349031448364,0.1695706844329834,0.4493398666381836,0.5447998046875,0.8105316162109375,9.533859252929688,-9.758537154007337,6.2536119210369545,1.1138126083323194,16
523,9688.0,-0.4360020160675049,0.14495229721069336,0.0638589859008789,0.446685791015625,0.7279815673828125,9.85809326171875,-11.300739227082857,3.862499296398891,3.1211232431290266,16
524,9706.0,-0.5359444618225098,0.09153115749359131,0.38487720489501953,0.79962158203125,0.7698516845703125,10.346221923828125,-1.835080584685666,-16.663475914296708,5.960733409426807,16
525,9723.0,-0.2148902416229248,0.14957165718078613,0.8717012405395508,1.3260498046875,0.8703460693359375,10.01123046875,-1.835080584685666,-16.663475914296708,5.960733409426807,16
526,9740.0,0.25906074047088623,0.2479395866394043,0.5401630401611328,1.3260498046875,0.8703460693359375,10.01123046875,4.182479998635648,-17.020175713511453,3.5442671225896567,16
527,9758.0,0.17213726043701172,0.13360339403152466,0.021076202392578125,1.33203125,0.6980743408203125,9.27783203125,1.05523690601029,-12.87179201921251,3.265376838399696,16
528,9777.0,0.13451313972473145,0.05885213613510132,-0.17850303649902344,1.4098052978515625,0.5712432861328125,9.499160766601562,-1.0499913207277203,-11.804315414209556,1.8175953004104333,16
529,9795.0,0.17809247970581055,-0.06387007236480713,0.04666614532470703,1.4827728271484375,0.5233917236328125,9.614028930664062,-1.3516124744754832,-12.151398307072926,1.1190581936148891,16
530,9815.0,0.21611320972442627,-0.10883045196533203,0.1651773452758789,1.438507080078125,0.5114288330078125,9.484817504882812,-0.3977902172615426,-12.436408440759218,-1.0429972070176272,16
531,9832.0,0.1396174430847168,-0.1219092607498169,0.04020214080810547,1.438507080078125,0.5114288330078125,9.197677612304688,0.9232230097322836,-10.758695414550646,-3.802175065649338,16
532,9849.0,0.11426436901092529,-0.12596291303634644,-0.24216079711914062,1.3762969970703125,0.5126190185546875,9.197677612304688,1.1347949494625984,-7.838652940586794,-5.3137778912432,16
533,9865.0,0.03548598289489746,-0.12759971618652344,-0.238616943359375,1.40380859375,0.5640716552734375,9.237152099609375,-0.3243520233055655,-4.819818610467878,-6.24049795783053,16
534,9882.0,0.054447054862976074,-0.07540535926818848,-0.19716167449951172,1.4349212646484375,0.6861114501953125,9.3436279296875,-1.927752591344399,-2.1323304173646207,-7.445234044394059,16
535,9900.0,0.08292198181152344,0.049560725688934326,-0.0901937484741211,1.4157867431640625,0.7746429443359375,9.44891357421875,-2.6096786780784718,-0.6041165717092878,-8.433152605944704,16
536,9917.0,0.06401491165161133,0.14158391952514648,0.014683723449707031,1.3870697021484375,0.7387542724609375,9.642730712890625,-2.8667123569243915,-0.228182959791786,-9.167534545504475,16
537,9936.0,0.0364382266998291,0.10954952239990234,0.20716190338134766,1.3870697021484375,0.7387542724609375,9.642730712890625,-2.9287851161014675,-0.09354627087249463,-9.51286890994032,16
538,9956.0,0.03885316848754883,0.11262506246566772,0.20569515228271484,1.1753082275390625,0.6813201904296875,9.732467651367188,-1.3673492303231927,1.3979484778048499,-9.76028568243486,16
539,9978.0,-0.2525146007537842,0.020145952701568604,0.1520519256591797,1.0532684326171875,0.706451416015625,9.39508056640625,-0.33746598651199,1.7642651833709737,-9.222613190971458,16
540,9997.0,-0.2756849527359009,0.07706129550933838,-0.045775413513183594,1.096343994140625,0.7267913818359375,9.37115478515625,-0.43188652159824625,1.029008979597441,-9.475275548748568,16
541,10015.0,-0.22828364372253418,0.09557902812957764,-0.06978797912597656,1.067626953125,0.6932830810546875,9.5482177734375,-1.244952240396564,0.1223969899266285,-9.756788625579814,16
542,10032.0,-0.2540544271469116,0.06275498867034912,0.10650253295898438,1.067626953125,0.6932830810546875,9.5482177734375,-2.188283327045365,-0.07518672238350037,-9.846837839597262,16
543,10049.0,-0.2513023614883423,0.06599104404449463,0.10558891296386719,0.9958343505859375,0.70166015625,9.669052124023438,-3.038068142821672,0.018359548488994275,-9.360746936745794,16
544,10065.0,-0.3197718858718872,0.07820397615432739,0.2249279022216797,0.997039794921875,0.730377197265625,9.667861938476562,-2.455808176456425,0.23168001664683252,-8.434026870158466,16
545,10082.0,-0.3151432275772095,0.10842728614807129,0.22238636016845703,1.0257568359375,0.714813232421875,9.574539184570312,-1.2362095982589478,0.20807488287526846,-7.908594077687725,16
546,10099.0,-0.28233182430267334,0.09137791395187378,0.12819576263427734,0.8654327392578125,0.6394500732421875,9.291000366210938,-0.12064846149910523,0.8733899495478705,-7.606098659726199,16
547,10116.0,-0.4369680881500244,0.014043629169464111,-0.15510082244873047,0.92047119140625,0.6526031494140625,9.291000366210938,-0.5175644145468862,0.9503252003588941,-6.991490917451772,16
548,10134.0,-0.37702083587646484,0.028311073780059814,-0.15499210357666016,0.92047119140625,0.6526031494140625,9.291000366210938,-2.15855834377747,0.5979967222129564,-5.96160767364057,16
549,10151.0,-0.3744008541107178,0.03273904323577881,-0.15478992462158203,0.92645263671875,0.6466217041015625,9.5841064453125,-2.721584497439961,-0.598870986426718,-5.552452021600126,16
550,10170.0,-0.36954522132873535,0.03182327747344971,0.13776493072509766,0.8486785888671875,0.55450439453125,9.748016357421875,-2.512635350350931,-2.0405326749196493,-5.223728677225752,16
551,10192.0,-0.45114076137542725,-0.056797683238983154,0.30098915100097656,0.8833770751953125,0.5748443603515625,9.679824829101562,-1.1584000832341625,-2.7110933268748214,-4.371321068808161,16
552,10209.0,-0.4213409423828125,-0.035672008991241455,0.23270034790039062,0.9479827880859375,0.61431884765625,9.63555908203125,0.6478297823973694,-2.008184899010469,-1.8543143973884217,16
553,10227.0,-0.36113929748535156,0.0024051666259765625,0.1885538101196289,0.8929443359375,0.6358642578125,9.410629272460938,0.36981376242117037,-0.032347775909180386,-0.7361304679872942,16
554,10244.0,-0.41442692279815674,0.02189391851425171,-0.035717010498046875,0.9778900146484375,0.6406402587890625,9.403457641601562,-0.4406291637358626,0.6338415549771833,0.39079610355144956,16
555,10261.0,-0.3200376033782959,0.027378439903259277,-0.04183197021484375,1.0939483642578125,0.700469970703125,9.386703491210938,-0.4651085617211883,-0.33659172229822837,0.8497848157763064,16
556,10278.0,-0.20262134075164795,0.08557885885238647,-0.056418418884277344,1.1358184814453125,0.62030029296875,9.563766479492188,0.0244793979853257,-2.7958969556096998,0.23517707350187905,16
557,10295.0,-0.17175793647766113,0.004599869251251221,0.12180328369140625,1.3128814697265625,0.6095428466796875,9.68939208984375,0.5875055516478168,-5.662609312534092,0.06207275917707588,16
558,10311.0,-0.013586878776550293,-0.008231520652770996,0.24916648864746094,1.5426025390625,0.625091552734375,9.832962036132812,0.9407082940075162,-8.038859445538208,-0.034970568550465285,16
559,10330.0,0.19331181049346924,0.003433704376220703,0.39445972442626953,1.5426025390625,0.625091552734375,9.832962036132812,1.7021924241938977,-7.956678609444614,-1.0700993976442377,16
560,10351.0,0.17407870292663574,-0.004319906234741211,0.3959817886352539,1.4277496337890625,0.613128662109375,9.654708862304688,3.367665751409807,-5.685340182091894,-2.7897771061133683,16
561,10367.0,0.04515814781188965,-0.027831733226776123,0.2196187973022461,1.507904052734375,0.65618896484375,9.5302734375,4.34421887818155,-4.692176035258679,-2.229373745092162,16
562,10384.0,0.11596167087554932,0.0019377470016479492,0.09699440002441406,1.7412109375,0.6920928955078125,9.352005004882812,4.64409150350179,-2.0134304842930386,-2.0256701832857016,16
563,10401.0,0.35071682929992676,0.024468421936035156,-0.08043861389160156,1.40740966796875,0.5987701416015625,9.125885009765625,3.928069112431013,3.6378133934621513,-4.974563376303687,16
564,10418.0,0.03537869453430176,-0.07711130380630493,-0.3073854446411133,1.1190643310546875,0.631072998046875,9.381927490234375,0.46947988278999647,8.959459662629206,-7.325459847108716,16
565,10436.0,-0.21988296508789062,-0.0443800687789917,-0.05574989318847656,1.1190643310546875,0.631072998046875,9.381927490234375,-3.0004747816299213,13.148933774974948,-8.878153090749374,16
566,10454.0,-0.18046903610229492,-0.038846492767333984,-0.061279296875,0.8941497802734375,0.6861114501953125,9.792282104492188,-3.4446010022208307,13.511753423686024,-9.178025716069614,16
567,10476.0,-0.36627674102783203,0.019864380359649658,0.3422813415527344,0.834320068359375,0.76507568359375,9.746826171875,-1.7266718221792234,12.375209945795902,-8.68231790686677,16
568,10493.0,-0.3907601833343506,0.09623146057128906,0.29132556915283203,0.7182769775390625,0.81890869140625,9.396270751953125,2.1069767551655336,9.628271786156855,-7.050066619773801,16
569,10509.0,-0.47504734992980957,0.14234215021133423,-0.062272071838378906,0.5890655517578125,0.8404388427734375,9.27783203125,2.1069767551655336,9.628271786156855,-7.050066619773801,16
570,10526.0,-0.5744668245315552,0.1565697193145752,-0.18288421630859375,0.5771026611328125,0.820098876953125,9.281417846679688,1.0937045314158018,9.230481568895312,-5.618021837632248,16
571,10545.0,-0.5586808919906616,0.1336260437965393,-0.18148231506347656,0.5771026611328125,0.820098876953125,9.281417846679688,-2.524000785129832,5.385467556771654,-3.4402296811520223,16
572,10563.0,-0.5365644693374634,0.13642758131027222,-0.1833200454711914,0.446685791015625,0.7076416015625,9.66546630859375,-2.524000785129832,5.385467556771654,-3.4402296811520223,16
573,10581.0,-0.6565086841583252,0.06061524152755737,0.06292152404785156,0.365325927734375,0.6813201904296875,9.288604736328125,-0.2395483945706872,1.114686872546081,-0.4957078092028454,16
574,10600.0,-0.7201715707778931,0.006589114665985107,-0.17943668365478516,0.4072113037109375,0.6466217041015625,9.380722045898438,-0.4388806353083393,0.03322204012294202,1.1155611367598426,16
575,10616.0,-0.6779772043228149,-0.024152398109436035,-0.08693981170654297,0.4072113037109375,0.6466217041015625,9.633163452148438,-1.8140982435553867,-1.528213845655333,3.483942891840104,16
576,10633.0,-0.6821808815002441,-0.01607954502105713,0.16506004333496094,0.586669921875,0.665771484375,9.633163452148438,-2.9436476077354152,-2.934904965597799,5.36710800828266,16
577,10650.0,-0.5116931200027466,0.011545717716217041,0.16506004333496094,0.75775146484375,0.6597900390625,9.655899047851562,-1.846446019464567,-4.254169664164102,6.412728007941571,16
578,10670.0,-0.3525965213775635,0.010937631130218506,0.18820571899414062,0.804412841796875,0.643035888671875,9.415420532226562,-0.5796371737239621,-4.571527573759575,6.350655248764496,16
579,10691.0,-0.3189505338668823,-0.0024919509887695312,-0.050594329833984375,0.861846923828125,0.6394500732421875,9.342437744140625,-0.3129865885266643,-4.9037479749889945,6.409230951086525,16
580,10708.0,-0.27753186225891113,-0.0019675493240356445,-0.12129497528076172,0.9312286376953125,0.625091552734375,9.514724731445312,-1.1269265715387438,-6.614683041320509,6.380380232032391,16
581,10726.0,-0.22735846042633057,-0.010282576084136963,0.05281257629394531,0.9312286376953125,0.625091552734375,9.514724731445312,-1.6750902335672873,-7.0719232251178425,6.294702339083751,16
582,10742.0,-0.24494564533233643,-0.0020006895065307617,0.05433177947998047,0.92645263671875,0.6394500732421875,9.497970581054688,-3.068667390303329,-3.9455543967062456,7.162846703349052,16
583,10759.0,-0.26296305656433105,0.02265000343322754,0.038527488708496094,1.07958984375,0.7327728271484375,9.726486206054688,-3.068667390303329,-3.9455543967062456,7.162846703349052,16
584,10781.0,-0.1195443868637085,0.12588316202163696,0.26654529571533203,1.2578582763671875,0.8512115478515625,9.742034912109375,-2.7110933268748214,-2.5231265209160703,6.769427807156317,16
585,10801.0,-0.016553640365600586,0.18892478942871094,0.23903369903564453,1.225555419921875,0.7507171630859375,9.682220458984375,0.37768214034502506,-5.552452021600126,4.809327439902738,16
586,10819.0,-0.011815547943115234,0.15351879596710205,0.22330856323242188,1.225555419921875,0.7507171630859375,9.682220458984375,0.0244793979853257,-5.151164747483537,4.5881385938210455,16
587,10836.0,-0.02533090114593506,0.15464723110198975,0.22405052185058594,1.20281982421875,0.666961669921875,9.771957397460938,-0.1661102006147101,-4.131772674237474,4.123030032099857,16
588,10852.0,-0.05849099159240723,0.07076632976531982,0.31387901306152344,1.1597442626953125,0.63824462890625,9.564971923828125,1.0246376585286328,-3.1027636946400325,3.298598878522638,16
589,10869.0,-0.1110985279083252,0.038306593894958496,0.10800838470458984,1.2925567626953125,0.6825103759765625,9.322097778320312,2.3369082433848427,-3.747970684396117,2.5152581429922156,16
590,10887.0,0.010768771171569824,0.07651853561401367,-0.13247299194335938,1.2411041259765625,0.6585845947265625,9.198867797851562,2.2713384273527204,-3.9009669218044025,0.9730560699166966,16
591,10903.0,-0.04951667785644531,0.04685652256011963,-0.25305652618408203,1.1812896728515625,0.6095428466796875,9.267059326171875,1.7765048823636365,-2.605307357009664,-0.625098912839567,16
592,10921.0,-0.11399352550506592,-0.005512893199920654,-0.18317794799804688,1.1812896728515625,0.6095428466796875,9.267059326171875,0.3916703677652112,-1.2265926919075698,-1.2213471066250001,16
593,10938.0,-0.1162269115447998,-0.0055297017097473145,-0.18204212188720703,1.20880126953125,0.643035888671875,9.493179321289062,-0.741376053269864,-0.9179774244497138,-1.5404535446479959,16
594,10955.0,-0.09055757522583008,0.02960038185119629,0.04408454895019531,1.1585540771484375,0.6394500732421875,9.696578979492188,-1.0788420397818541,-0.9468281435038476,-2.450562591173855,16
595,10972.0,-0.14088904857635498,0.02739185094833374,0.24644756317138672,0.963531494140625,0.5808258056640625,9.73486328125,-0.724765033208393,0.11715140464405871,-2.8273704673051183,16
596,10994.0,-0.33169448375701904,-0.030868172645568848,0.2831430435180664,0.939605712890625,0.6514129638671875,9.658294677734375,0.6959143141542592,2.258224464146296,-0.3733108192762169,16
597,11010.0,-0.3485879898071289,0.03829580545425415,0.20503616333007812,1.1238555908203125,0.78900146484375,9.494384765625,0.6959143141542592,2.258224464146296,-0.3733108192762169,16
598,11027.0,-0.15928471088409424,0.17148828506469727,0.040596961975097656,1.1238555908203125,0.78900146484375,9.494384765625,1.7537740128058341,-1.454775651699356,-2.245984765153633,16
599,11044.0,-0.1592024564743042,0.16530227661132812,0.04086589813232422,1.1310272216796875,0.7985687255859375,9.373550415039062,1.7537740128058341,-1.454775651699356,-2.245984765153633,16
600,11060.0,-0.15559518337249756,0.16938942670822144,-0.0787496566772461,0.9228515625,0.6813201904296875,9.457290649414062,0.9721818057029349,-1.9399922903370617,-3.059050483951951,16
601,11077.0,-0.36746978759765625,0.04970347881317139,0.005828857421875,0.9898529052734375,0.6573944091796875,9.664276123046875,0.8716414211203473,-2.972498326789549,-1.9635974241086258,16
602,11096.0,-0.30595314502716064,0.023792028427124023,0.21297550201416016,1.0819854736328125,0.6980743408203125,9.597274780273438,0.8716414211203473,-2.972498326789549,-1.9635974241086258,16
603,11116.0,-0.2200690507888794,0.059317171573638916,0.14667510986328125,0.957550048828125,0.6873016357421875,9.21441650390625,1.8088526582728168,-0.4380063710945777,-2.6682543804005014,16
604,11133.0,-0.3466454744338989,0.04202699661254883,-0.23427677154541016,0.957550048828125,0.6873016357421875,9.21441650390625,0.21856605344040803,1.4556499159131175,-2.0134304842930386,16
605,11152.0,-0.4209115505218506,0.020069897174835205,-0.33509159088134766,0.7661285400390625,0.718414306640625,9.201263427734375,-3.0197085943326774,5.074229496672513,0.12676831099543664,16
606,11173.0,-0.5070947408676147,0.08268290758132935,-0.24820232391357422,0.651275634765625,0.7315673828125,9.446533203125,-4.373943861449446,5.493876319278097,0.3182321738092341,16
607,11190.0,-0.6058480739593506,0.10984355211257935,-0.005688667297363281,0.55914306640625,0.678924560546875,10.10455322265625,-5.886420951257069,4.400171787862295,1.1033214377671798,16
608,11206.0,-0.6872695684432983,0.0746382474899292,0.647435188293457,0.7182769775390625,0.7076416015625,10.100967407226562,-6.478297823973694,1.482752106539728,2.3159259022545635,16
609,11225.0,-0.5274530649185181,0.11822926998138428,0.6404027938842773,0.7182769775390625,0.7076416015625,10.100967407226562,-3.831025784703472,-2.203145818679313,3.6378133934621513,16
610,11242.0,-0.5367516279220581,0.12497943639755249,0.6388082504272461,0.67041015625,0.6406402587890625,9.738449096679688,-0.3838019898413565,-5.639878442976289,4.2095821892622585,16
611,11261.0,-0.60174560546875,0.056771159172058105,0.27781200408935547,0.8809814453125,0.6932830810546875,9.43695068359375,2.388489831996779,-7.9313249472455265,5.6285130081973875,16
612,11283.0,-0.4157218933105469,0.10422569513320923,-0.019736289978027344,1.162139892578125,0.6801300048828125,9.386703491210938,2.165552457487563,-12.45389372503445,7.869252188068451,16
613,11302.0,0.00700986385345459,0.05815631151199341,-0.06754493713378906,1.372711181640625,0.654998779296875,9.072052001953125,2.295817825338046,-13.272205029115337,7.360430415659181,16
614,11320.0,-0.028870582580566406,0.05404776334762573,-0.3667631149291992,1.4528656005859375,0.6179046630859375,9.072052001953125,2.4776647818004656,-11.898735949295814,6.24049795783053,16
615,11336.0,0.018726110458374023,0.01533597707748413,-0.3602781295776367,1.5940399169921875,0.6238861083984375,9.200057983398438,0.33047187280189694,-10.87934387604975,5.0995831588716,16
616,11354.0,0.13179922103881836,0.025342047214508057,-0.2273550033569336,1.682586669921875,0.625091552734375,9.434555053710938,-2.0116819558655155,-8.51620770625206,3.504925232970383,16
617,11371.0,0.1977754831314087,0.03438520431518555,0.0099945068359375,1.7112884521484375,0.619110107421875,9.65948486328125,-2.9821152331409273,-6.91018434557194,1.5631844142057982,16
618,11388.0,0.20684444904327393,0.035257816314697266,0.23647308349609375,1.7890625,0.6597900390625,9.597274780273438,-1.9382437619095385,-6.62604847609941,-0.6014937790680029,16
619,11405.0,0.26498687267303467,0.07908129692077637,0.1762847900390625,1.7890625,0.6597900390625,9.597274780273438,-0.9616906351377953,-6.944280649908644,-1.7948644308526307,16
620,11422.0,0.24209272861480713,0.07924973964691162,0.17906951904296875,1.86444091796875,0.6047515869140625,9.652313232421875,-0.3068667390303329,-9.26108081637697,-3.807420650931908,16
621,11438.0,0.29167020320892334,0.02076023817062378,0.23739147186279297,1.92425537109375,0.631072998046875,9.423797607421875,1.1496574410965463,-9.161414696008142,-5.910900349242395,16
622,11455.0,0.3311920166015625,0.03963422775268555,0.012455940246582031,1.7328338623046875,0.532958984375,9.218017578125,1.732791671675555,-5.444917523307445,-8.44801509757865,16
623,11473.0,0.13460314273834229,-0.06532233953475952,-0.19129467010498047,1.555755615234375,0.5174102783203125,9.170150756835938,0.29724983267895494,0.9372112371524697,-10.063655364610147,16
624,11490.0,-0.030598759651184082,-0.08307534456253052,-0.23998451232910156,1.613189697265625,0.6466217041015625,9.239547729492188,-1.9784599157425735,6.257983242105762,-10.746455715557982,16
625,11507.0,0.04881083965301514,0.048296332359313965,-0.1737232208251953,1.613189697265625,0.6466217041015625,9.239547729492188,-3.4612120222823015,8.413044529028186,-11.368931835756264,16
626,11524.0,0.07391571998596191,0.05341547727584839,-0.1775064468383789,1.42535400390625,0.6801300048828125,9.434555053710938,-4.4211541289925735,8.473368759777738,-12.763383256706067,16
627,11543.0,-0.0895073413848877,0.0929294228553772,0.013149261474609375,1.2518768310546875,0.6466217041015625,9.722900390625,-4.4762327744595565,7.297483392268344,-13.329906467223605,16
628,11561.0,-0.24113881587982178,0.0649101734161377,0.2965688705444336,1.0580596923828125,0.7172088623046875,9.87603759765625,-3.923697791362205,6.151323008026844,-12.971458139581335,16
629,11590.0,-0.3281658887863159,0.22952485084533691,0.34584617614746094,1.092742919921875,0.820098876953125,9.65350341796875,-0.9975354679020223,3.0642960692345205,-10.463194110299213,16
630,11606.0,-0.35852622985839844,0.23557937145233154,0.21717357635498047,1.092742919921875,0.820098876953125,9.65350341796875,0.522809999829456,1.1942449159983894,-9.993714227509217,16
631,11624.0,-0.3540457487106323,0.22803497314453125,0.2162189483642578,1.096343994140625,0.7734375,9.50634765625,1.1933706517846279,-0.2587822072734431,-9.86170033123121,16
632,11642.0,-0.34897351264953613,0.17279982566833496,0.06926631927490234,0.9587554931640625,0.6980743408203125,9.362777709960938,1.4941175413186294,-0.962564899351557,-9.665865147348605,16
633,11659.0,-0.4866081476211548,0.08961039781570435,-0.07320117950439453,0.90850830078125,0.6047515869140625,9.352005004882812,0.9651876919928418,-1.7668879760122584,-9.484892455099947,16
