,ms,accelX,accelY,accelZ,accelWithGX,accelWithGY,accelWithGZ,rotRateAlpha,rotRateBeta,rotRateGamma,interval
0,124.0,0.2,0.2,-0.4,-1.6,-4.2,8.200000000000001,0.0,0.0,-0.1,16
1,137.0,0.1,0.30000000000000004,-0.1,-1.6,-4.1000000000000005,8.5,0.0,0.0,-0.1,16
2,154.0,0.1,0.30000000000000004,-0.1,-1.5,-4.0,8.6,0.0,0.0,-0.1,16
3,173.0,0.2,0.4,0.1,-1.5,-3.8000000000000003,8.8,14.100000000000001,-27.400000000000002,16.4,16
4,193.0,0.2,0.4,0.2,-1.4000000000000001,-3.7,9.0,14.200000000000001,-26.000000000000004,16.4,16
5,204.0,0.0,0.4,0.5,-1.5,-3.6,9.3,14.400000000000002,-25.0,16.8,16
6,221.0,0.2,0.4,0.0,-1.3,-3.4000000000000004,8.9,13.200000000000003,-19.0,18.900000000000002,16
7,237.0,0.2,0.4,0.4,-1.2000000000000002,-3.4000000000000004,9.3,13.000000000000002,-15.000000000000002,19.1,16
8,254.0,0.1,0.2,0.30000000000000004,-1.3,-3.4000000000000004,9.3,13.900000000000002,-12.4,17.400000000000002,16
9,271.0,-0.1,0.1,0.4,-1.5,-3.4000000000000004,9.5,15.700000000000001,-12.100000000000001,16.5,16
10,293.0,-0.2,0.1,0.4,-1.6,-3.4000000000000004,9.5,18.3,-19.6,17.200000000000003,16
11,304.0,-0.1,0.0,0.5,-1.5,-3.4000000000000004,9.5,19.200000000000003,-23.6,18.0,16
12,324.0,0.0,0.0,0.4,-1.3,-3.4000000000000004,9.5,19.6,-27.400000000000002,19.0,16
13,337.0,0.2,-0.1,0.4,-1.2000000000000002,-3.4000000000000004,9.5,18.8,-24.8,19.400000000000002,16
14,355.0,0.1,-0.1,0.4,-1.1,-3.4000000000000004,9.600000000000001,18.5,-20.599999999999998,19.799999999999997,16
15,371.0,0.2,-0.2,0.5,-0.9,-3.6,9.600000000000001,20.1,-18.1,20.400000000000002,16
16,394.0,0.30000000000000004,-0.2,0.30000000000000004,-0.8,-3.6,9.4,22.6,-16.6,20.2,16
17,409.0,0.4,-0.2,0.2,-0.6000000000000001,-3.6,9.4,24.8,-12.8,19.400000000000002,16
18,420.0,0.30000000000000004,-0.30000000000000004,0.1,-0.7000000000000001,-3.7,9.3,25.6,-10.600000000000001,18.3,16
19,438.0,0.2,-0.4,0.0,-0.7000000000000001,-3.7,9.200000000000001,26.300000000000004,-7.200000000000001,13.6,16
20,454.0,0.2,-0.4,-0.1,-0.7000000000000001,-3.7,9.1,25.7,-9.100000000000001,10.700000000000001,16
21,473.0,0.1,-0.4,-0.2,-0.7000000000000001,-3.7,9.0,24.3,-11.8,9.0,16
22,492.0,0.1,-0.4,-0.4,-0.7000000000000001,-3.6,8.8,20.599999999999998,-11.2,7.6,16
23,504.0,0.1,-0.4,-0.5,-0.7000000000000001,-3.6,8.8,18.200000000000003,-10.700000000000001,7.1000000000000005,16
24,520.0,0.2,-0.4,-0.30000000000000004,-0.7000000000000001,-3.6,8.9,14.5,-12.0,6.1000000000000005,16
25,537.0,0.1,-0.4,-0.2,-0.6000000000000001,-3.6,9.0,9.2,-12.100000000000001,4.1,16
26,554.0,0.1,-0.4,0.0,-0.7000000000000001,-3.6,9.3,2.6,-12.8,0.7,16
27,571.0,0.0,-0.4,0.2,-0.7000000000000001,-3.6,9.4,-0.30000000000000004,-12.0,-0.4,16
28,589.0,-0.2,-0.4,0.4,-0.8,-3.6,9.700000000000001,-2.6,-9.600000000000001,-0.9000000000000001,16
29,604.0,-0.2,-0.4,0.1,-0.8,-3.6,9.3,-2.6,-16.200000000000003,0.7,16
30,620.0,-0.30000000000000004,-0.2,0.30000000000000004,-0.9,-3.6,9.5,-3.9,-2.2,3.0,16
31,637.0,-0.1,0.0,0.6000000000000001,-0.8,-3.5,9.8,-1.5,0.0,6.600000000000001,16
32,654.0,0.0,0.1,0.30000000000000004,-0.7000000000000001,-3.3000000000000003,9.5,3.0,8.100000000000001,10.600000000000001,16
33,670.0,0.1,0.30000000000000004,0.30000000000000004,-0.7000000000000001,-3.1,9.5,7.699999999999999,13.000000000000002,12.5,16
34,693.0,0.1,0.4,0.1,-0.7000000000000001,-3.0,9.3,13.900000000000002,10.700000000000001,10.5,16
35,704.0,0.1,0.4,0.0,-0.7000000000000001,-3.0,9.200000000000001,17.5,1.4,7.0,16
36,720.0,0.0,0.4,-0.2,-0.8,-2.9000000000000004,9.0,18.4,-6.0,4.300000000000001,16
37,737.0,0.1,0.30000000000000004,-0.30000000000000004,-0.8,-2.9000000000000004,8.9,15.899999999999999,-9.899999999999999,3.1,16
38,754.0,0.0,0.30000000000000004,-0.4,-0.8,-2.9000000000000004,8.8,11.2,-10.299999999999999,3.9,16
39,771.0,-0.1,0.2,-0.4,-0.8,-3.0,8.8,6.2,-5.8,6.8,16
40,793.0,-0.1,0.1,-0.30000000000000004,-0.9,-3.0,8.9,-2.2,-2.1,13.100000000000001,16
41,805.0,-0.1,0.2,-0.2,-0.9,-3.0,9.0,-4.4,-2.2,14.400000000000002,16
42,820.0,0.0,0.2,-0.1,-0.8,-3.0,9.200000000000001,-9.3,-2.9,15.100000000000001,16
43,838.0,0.0,0.1,0.2,-0.8,-3.1,9.4,-12.5,-3.0,14.100000000000001,16
44,854.0,-0.1,0.0,0.5,-0.9,-3.2,9.700000000000001,-13.5,-3.9,12.8,16
45,870.0,-0.1,0.0,1.0,-0.9,-3.2,10.3,-7.500000000000001,-7.699999999999999,14.800000000000002,16
46,891.0,0.0,0.0,1.1,-0.8,-3.2,10.3,-1.9,-10.4,16.700000000000003,16
47,905.0,0.1,0.0,1.1,-0.7000000000000001,-3.1,10.4,2.8,-8.700000000000001,17.9,16
48,920.0,0.2,0.0,1.2000000000000002,-0.6000000000000001,-3.1,10.5,6.9,-7.0,19.1,16
49,937.0,0.30000000000000004,0.1,1.1,-0.5,-3.0,10.4,11.3,-9.899999999999999,20.7,16
50,954.0,0.5,0.2,1.0,-0.30000000000000004,-2.9000000000000004,10.3,14.400000000000002,-13.000000000000002,21.8,16
51,970.0,0.7000000000000001,0.30000000000000004,0.9,-0.1,-2.7,10.200000000000001,15.6,-16.0,21.8,16
52,989.0,0.9,0.4,0.7000000000000001,0.2,-2.5,10.0,14.600000000000001,-16.6,21.0,16
53,1004.0,1.0,0.4,0.4,0.4,-2.4000000000000004,9.8,11.4,-12.4,19.400000000000002,16
54,1020.0,0.9,0.4,0.30000000000000004,0.5,-2.3000000000000003,9.700000000000001,6.500000000000001,-6.600000000000001,17.400000000000002,16
55,1038.0,0.7000000000000001,0.30000000000000004,0.2,0.6000000000000001,-2.3000000000000003,9.600000000000001,-0.30000000000000004,-2.6,14.100000000000001,16
56,1054.0,0.7000000000000001,0.2,0.1,0.7000000000000001,-2.3000000000000003,9.600000000000001,-3.9,-3.1,11.5,16
57,1071.0,0.7000000000000001,0.2,0.2,0.6000000000000001,-2.4000000000000004,9.700000000000001,-7.300000000000001,-4.6,7.500000000000001,16
58,1091.0,0.6000000000000001,0.1,0.30000000000000004,0.6000000000000001,-2.5,9.8,-9.0,-7.0,4.1,16
59,1104.0,0.5,0.0,0.5,0.5,-2.6,10.0,-8.100000000000001,-7.6,1.2000000000000002,16
60,1120.0,0.30000000000000004,-0.2,0.6000000000000001,0.5,-2.7,10.100000000000001,-5.300000000000001,-8.5,-0.2,16
61,1137.0,0.2,-0.2,0.6000000000000001,0.5,-2.7,10.100000000000001,-0.4,-6.699999999999999,-1.2000000000000002,16
62,1154.0,0.1,-0.2,0.6000000000000001,0.4,-2.7,10.100000000000001,4.2,-4.7,-1.3,16
63,1170.0,0.0,-0.1,0.4,0.4,-2.6,9.9,9.0,-2.7,-2.3,16
64,1187.0,-0.1,0.0,0.2,0.30000000000000004,-2.5,9.700000000000001,11.4,-0.8,-4.300000000000001,16
65,1205.0,-0.30000000000000004,0.0,-0.1,0.1,-2.4000000000000004,9.4,10.1,-0.6000000000000001,-9.2,16
66,1220.0,-0.4,0.0,-0.2,-0.1,-2.4000000000000004,9.3,7.300000000000001,-1.1,-13.399999999999999,16
67,1237.0,-0.6000000000000001,0.0,-0.30000000000000004,-0.30000000000000004,-2.4000000000000004,9.200000000000001,4.4,-1.6,-15.899999999999999,16
68,1254.0,-0.6000000000000001,0.0,-0.5,-0.4,-2.4000000000000004,9.0,1.3,1.2000000000000002,-17.6,16
69,1270.0,-0.7000000000000001,0.0,-0.5,-0.7000000000000001,-2.4000000000000004,9.0,-1.4,4.5,-19.200000000000003,16
70,1287.0,-0.7000000000000001,0.0,-0.5,-0.8,-2.5,9.0,-3.7000000000000006,5.2,-20.2,16
71,1304.0,-0.9,-0.1,-0.5,-1.1,-2.6,9.0,-6.9,4.300000000000001,-21.6,16
72,1320.0,-1.1,-0.1,-0.4,-1.4000000000000001,-2.7,9.1,-9.899999999999999,0.30000000000000004,-22.6,16
73,1338.0,-1.4000000000000001,-0.2,-0.2,-1.7000000000000002,-2.8000000000000003,9.3,-12.600000000000001,-7.500000000000001,-22.6,16
74,1354.0,-1.4000000000000001,-0.2,0.0,-1.7000000000000002,-2.8000000000000003,9.4,-13.700000000000001,-13.8,-20.900000000000002,16
75,1370.0,-1.4000000000000001,-0.1,0.1,-1.7000000000000002,-2.8000000000000003,9.5,-13.200000000000003,-14.700000000000001,-17.400000000000002,16
76,1387.0,-1.4000000000000001,0.0,0.1,-1.6,-2.7,9.5,-11.2,-4.6,-11.000000000000002,16
77,1405.0,-0.9,0.0,0.2,-1.5,-2.7,9.600000000000001,-10.4,-3.6000000000000005,-7.0,16
78,1420.0,-0.5,0.1,0.1,-1.4000000000000001,-2.6,9.4,-10.9,-6.0,-4.7,16
79,1437.0,-0.4,0.2,0.30000000000000004,-1.3,-2.6,9.600000000000001,-12.0,-10.1,-4.4,16
80,1453.0,-0.2,0.1,0.4,-1.2000000000000002,-2.6,9.8,-13.000000000000002,-16.4,-5.1000000000000005,16
81,1470.0,0.0,0.0,0.9,-1.1,-2.7,10.200000000000001,-11.700000000000001,-18.0,-4.800000000000001,16
82,1487.0,0.1,-0.1,1.2000000000000002,-1.0,-2.8000000000000003,10.600000000000001,-7.300000000000001,-19.400000000000002,-3.3000000000000007,16
83,1504.0,0.30000000000000004,-0.1,1.3,-0.7000000000000001,-2.8000000000000003,10.700000000000001,0.30000000000000004,-16.4,-1.0,16
84,1520.0,0.5,-0.2,1.6,-0.4,-2.9000000000000004,10.9,8.8,-16.900000000000002,0.7,16
85,1537.0,0.7000000000000001,-0.1,1.5,-0.30000000000000004,-2.7,10.9,18.1,-18.1,0.9000000000000001,16
86,1554.0,1.2000000000000002,0.0,0.6000000000000001,0.30000000000000004,-2.6,10.100000000000001,27.099999999999998,-21.500000000000004,-1.0,16
87,1571.0,1.4000000000000001,0.1,0.8,0.6000000000000001,-2.4000000000000004,10.3,27.400000000000002,-8.8,-4.4,16
88,1587.0,1.6,0.0,1.0,0.8,-2.4000000000000004,10.5,27.0,-9.899999999999999,-9.100000000000001,16
89,1604.0,1.6,-0.1,1.0,0.8,-2.5,10.5,25.4,-11.4,-12.9,16
90,1620.0,1.5,-0.2,1.2000000000000002,0.8,-2.5,10.700000000000001,23.0,-15.000000000000002,-14.200000000000001,16
91,1638.0,1.4000000000000001,-0.30000000000000004,1.3,0.7000000000000001,-2.5,10.9,20.2,-16.700000000000003,-14.0,16
92,1654.0,1.5,-0.30000000000000004,0.7000000000000001,0.9,-2.5,10.3,16.5,-2.2,-12.100000000000001,16
93,1670.0,1.7000000000000002,-0.2,1.1,1.1,-2.4000000000000004,10.700000000000001,15.000000000000002,12.0,-9.899999999999999,16
94,1687.0,2.6,-0.5,0.2,1.9000000000000001,-2.7,9.8,17.6,14.800000000000002,-13.6,16
95,1704.0,1.6,0.0,0.5,0.9,-2.1,10.100000000000001,19.700000000000003,28.3,-17.200000000000003,16
96,1721.0,2.2,-0.30000000000000004,-0.1,1.5,-2.3000000000000003,9.5,25.7,14.200000000000001,-23.900000000000006,16
97,1737.0,1.6,0.0,-0.30000000000000004,0.9,-2.0,9.3,27.6,13.8,-27.3,16
98,1754.0,1.7000000000000002,-0.2,-0.30000000000000004,1.0,-2.1,9.3,27.5,10.8,-27.6,16
99,1770.0,1.4000000000000001,-0.30000000000000004,-0.8,0.7000000000000001,-2.1,8.8,24.0,-1.7,-26.799999999999997,16
100,1787.0,1.3,-0.4,-0.7000000000000001,0.6000000000000001,-2.2,9.0,17.5,-13.5,-23.3,16
101,1804.0,1.3,-0.5,-0.7000000000000001,0.7000000000000001,-2.2,8.9,9.899999999999999,-21.1,-19.799999999999997,16
102,1820.0,1.4000000000000001,-0.6000000000000001,-0.5,0.9,-2.3000000000000003,9.1,1.2000000000000002,-22.1,-15.399999999999999,16
103,1838.0,1.6,-0.5,-0.30000000000000004,1.1,-2.3000000000000003,9.3,-3.2,-18.0,-11.4,16
104,1855.0,1.7000000000000002,-0.6000000000000001,-0.30000000000000004,1.3,-2.3000000000000003,9.4,-3.0,-9.700000000000001,-6.699999999999999,16
105,1870.0,1.6,-0.5,-0.30000000000000004,1.3,-2.3000000000000003,9.3,0.30000000000000004,1.4,-3.2,16
106,1888.0,1.4000000000000001,-0.5,-0.5,1.1,-2.3000000000000003,9.1,9.3,13.6,0.7,16
107,1904.0,1.2000000000000002,-0.4,-0.7000000000000001,0.9,-2.2,9.0,13.900000000000002,16.1,1.6,16
108,1920.0,1.2000000000000002,-0.30000000000000004,-0.8,0.8,-2.0,8.8,16.200000000000003,9.600000000000001,1.8000000000000003,16
109,1938.0,1.1,-0.1,-1.3,0.8,-1.8,8.4,15.100000000000001,5.500000000000001,2.0,16
110,1954.0,1.1,0.0,-1.4000000000000001,0.7000000000000001,-1.6,8.3,10.4,6.0,2.1,16
111,1971.0,0.9,0.2,-1.5,0.6000000000000001,-1.5,8.200000000000001,2.9,4.300000000000001,3.4,16
112,1987.0,0.8,0.2,-1.5,0.4,-1.4000000000000001,8.200000000000001,-4.6,2.7,5.300000000000001,16
113,2003.0,0.6000000000000001,0.2,-1.4000000000000001,0.30000000000000004,-1.5,8.3,-13.000000000000002,1.6,9.0,16
114,2020.0,0.7000000000000001,0.30000000000000004,-1.1,0.30000000000000004,-1.4000000000000001,8.6,-19.0,-5.2,13.6,16
115,2037.0,0.8,0.4,-0.7000000000000001,0.5,-1.4000000000000001,8.9,-21.8,-11.700000000000001,17.799999999999997,16
116,2054.0,1.0,0.5,-0.5,0.7000000000000001,-1.4000000000000001,9.200000000000001,-22.8,-16.700000000000003,21.8,16
117,2072.0,1.1,0.5,-0.2,0.8,-1.4000000000000001,9.4,-21.1,-13.6,22.8,16
118,2087.0,1.1,0.5,-0.1,0.9,-1.4000000000000001,9.5,-20.0,-12.7,22.9,16
119,2107.0,0.8,0.30000000000000004,0.30000000000000004,0.9,-1.6,9.9,-15.299999999999999,-15.299999999999999,21.6,16
120,2121.0,0.6000000000000001,0.0,0.30000000000000004,1.0,-1.7000000000000002,9.9,-12.9,-21.0,20.900000000000002,16
121,2137.0,0.4,-0.1,0.4,1.1,-1.7000000000000002,10.100000000000001,-11.6,-22.4,20.8,16
122,2160.0,0.4,-0.1,0.6000000000000001,1.2000000000000002,-1.8,10.200000000000001,-10.700000000000001,-21.400000000000002,21.8,16
123,2182.0,0.6000000000000001,-0.2,1.0,1.5,-1.9000000000000001,10.600000000000001,-9.899999999999999,-18.1,23.400000000000002,16
124,2191.0,0.6000000000000001,-0.2,1.2000000000000002,1.6,-2.0,10.8,-9.600000000000001,-20.5,23.099999999999998,16
125,2204.0,0.6000000000000001,-0.2,1.5,1.6,-2.0,11.100000000000001,-9.5,-24.7,22.3,16
126,2221.0,0.8,-0.4,1.4000000000000001,1.9000000000000001,-2.2,11.0,-10.200000000000001,-33.800000000000004,19.5,16
127,2237.0,0.8,-0.6000000000000001,1.5,2.0,-2.4000000000000004,11.0,-8.5,-30.5,16.200000000000003,16
128,2254.0,0.8,-0.7000000000000001,1.4000000000000001,2.0,-2.5,11.0,-2.3,-21.200000000000003,18.1,16
129,2271.0,0.6000000000000001,-0.8,1.4000000000000001,1.9000000000000001,-2.6,10.9,6.300000000000001,-13.8,21.7,16
130,2287.0,0.5,-0.7000000000000001,1.1,1.8,-2.6,10.600000000000001,17.6,-5.7,26.200000000000003,16
131,2304.0,0.7000000000000001,-0.6000000000000001,0.4,2.0,-2.4000000000000004,10.0,26.700000000000003,2.1,28.700000000000003,16
132,2321.0,0.8,-0.4,-0.30000000000000004,2.0,-2.1,9.3,29.800000000000004,11.6,28.3,16
133,2337.0,0.6000000000000001,-0.2,-0.8,1.8,-1.9000000000000001,8.8,28.500000000000004,18.200000000000003,26.1,16
134,2354.0,0.4,-0.1,-1.1,1.6,-1.7000000000000002,8.5,24.5,17.6,24.200000000000003,16
135,2371.0,0.2,0.0,-1.4000000000000001,1.3,-1.5,8.200000000000001,18.3,9.3,22.2,16
136,2387.0,0.1,0.1,-1.6,1.2000000000000002,-1.5,8.1,11.6,1.9,20.7,16
137,2404.0,0.0,0.0,-1.5,1.1,-1.5,8.1,-0.6000000000000001,-8.2,15.6,16
138,2421.0,-0.1,-0.1,-1.1,1.1,-1.6,8.5,-7.699999999999999,-17.7,10.8,16
139,2437.0,0.0,-0.30000000000000004,-0.7000000000000001,1.2000000000000002,-1.8,8.9,-12.4,-25.7,5.500000000000001,16
140,2454.0,0.0,-0.5,-0.30000000000000004,1.2000000000000002,-2.1,9.3,-16.900000000000002,-30.3,-2.0,16
141,2471.0,-0.1,-0.7000000000000001,0.2,1.2000000000000002,-2.3000000000000003,9.700000000000001,-18.900000000000002,-31.9,-7.8,16
142,2490.0,-0.2,-0.8,0.4,1.2000000000000002,-2.5,9.9,-19.700000000000003,-30.699999999999996,-11.3,16
143,2504.0,-0.6000000000000001,-1.1,1.0,0.9,-2.9000000000000004,10.5,-19.300000000000004,-23.5,-15.899999999999999,16
144,2521.0,-0.9,-1.3,1.2000000000000002,0.7000000000000001,-3.1,10.700000000000001,-17.5,-16.700000000000003,-15.2,16
145,2541.0,-1.2000000000000002,-1.4000000000000001,1.4000000000000001,0.4,-3.3000000000000003,10.9,-11.900000000000002,-6.2,-9.899999999999999,16
146,2554.0,-1.2000000000000002,-1.5,1.4000000000000001,0.4,-3.3000000000000003,10.9,-9.600000000000001,-2.9,-7.500000000000001,16
147,2574.0,-1.2000000000000002,-1.4000000000000001,1.4000000000000001,0.4,-3.2,10.9,-0.2,3.7000000000000006,1.9,16
148,2587.0,-1.0,-1.2000000000000002,1.1,0.6000000000000001,-3.1,10.600000000000001,7.200000000000001,4.4,7.1000000000000005,16
149,2614.0,-0.6000000000000001,-0.9,0.30000000000000004,1.0,-2.7,9.8,14.200000000000001,12.4,10.200000000000001,16
150,2621.0,-0.5,-0.7000000000000001,0.1,1.1,-2.6,9.600000000000001,15.899999999999999,15.899999999999999,9.899999999999999,16
151,2637.0,-0.30000000000000004,-0.7000000000000001,-0.4,1.2000000000000002,-2.5,9.1,16.5,16.900000000000002,7.8,16
152,2655.0,-0.2,-0.6000000000000001,-0.6000000000000001,1.2000000000000002,-2.4000000000000004,8.9,13.6,11.4,2.9,16
153,2671.0,0.0,-0.30000000000000004,-0.6000000000000001,1.3,-2.3000000000000003,8.9,8.2,-1.6,-2.2,16
154,2692.0,-0.1,-0.2,-0.5,1.2000000000000002,-2.2,9.0,-5.500000000000001,-18.1,-8.2,16
155,2704.0,-0.1,-0.2,-0.30000000000000004,1.3,-2.2,9.200000000000001,-9.5,-20.5,-8.2,16
156,2721.0,-0.1,-0.2,0.0,1.3,-2.2,9.5,-16.200000000000003,-19.799999999999997,-5.6,16
157,2737.0,0.1,-0.1,0.4,1.6,-2.2,9.9,-16.700000000000003,-3.0,2.0,16
158,2754.0,0.2,0.1,0.5,1.7000000000000002,-2.1,9.9,-13.000000000000002,10.8,4.6,16
159,2771.0,0.2,0.1,0.4,1.6,-2.0,9.9,-9.899999999999999,19.700000000000003,5.1000000000000005,16
160,2787.0,-0.2,0.30000000000000004,0.4,1.2000000000000002,-1.9000000000000001,9.8,-3.9,25.5,2.1,16
161,2804.0,-0.5,0.5,0.2,0.8,-1.8,9.600000000000001,-1.0,18.5,-1.9,16
162,2821.0,-0.7000000000000001,0.5,0.0,0.6000000000000001,-1.7000000000000002,9.5,0.6000000000000001,12.4,-4.5,16
163,2837.0,-0.8,0.5,-0.1,0.4,-1.7000000000000002,9.4,2.3,6.500000000000001,-4.300000000000001,16
164,2854.0,-0.9,0.5,-0.1,0.30000000000000004,-1.7000000000000002,9.3,4.6,-2.1,-2.3,16
165,2871.0,-0.8,0.5,-0.2,0.4,-1.6,9.200000000000001,5.500000000000001,-8.700000000000001,-0.6000000000000001,16
166,2888.0,-0.6000000000000001,0.6000000000000001,-0.30000000000000004,0.6000000000000001,-1.6,9.200000000000001,4.0,-13.100000000000001,0.1,16
167,2904.0,-0.4,0.5,-0.30000000000000004,0.8,-1.6,9.200000000000001,-3.9,-13.6,-4.6,16
168,2921.0,-0.5,0.4,-0.30000000000000004,0.8,-1.7000000000000002,9.200000000000001,-7.1000000000000005,-11.8,-6.699999999999999,16
169,2937.0,-0.9,0.1,0.2,0.5,-2.1,9.700000000000001,-15.5,-11.1,-11.900000000000002,16
170,2955.0,-1.2000000000000002,-0.1,0.6000000000000001,0.2,-2.3000000000000003,10.0,-17.0,-16.1,-11.4,16
171,2971.0,-1.4000000000000001,-0.30000000000000004,0.8,0.0,-2.5,10.200000000000001,-15.399999999999999,-20.8,-7.8,16
172,2995.0,-1.1,-0.5,1.1,0.1,-2.8000000000000003,10.5,-8.0,-22.6,0.30000000000000004,16
173,3006.0,-0.9,-0.5,1.1,0.2,-2.8000000000000003,10.600000000000001,-4.800000000000001,-21.900000000000002,2.8,16
174,3021.0,-0.5,-0.5,1.1,0.5,-2.8000000000000003,10.600000000000001,3.0,-20.5,7.699999999999999,16
175,3037.0,-0.2,-0.4,0.8,0.8,-2.7,10.3,11.8,-17.7,11.1,16
176,3055.0,0.1,-0.30000000000000004,0.5,1.2000000000000002,-2.6,10.0,17.400000000000002,-12.600000000000001,10.0,16
177,3077.0,0.2,-0.30000000000000004,0.0,1.3,-2.5,9.5,18.4,-10.600000000000001,3.9,16
178,3090.0,0.1,-0.4,-0.1,1.3,-2.5,9.5,15.299999999999999,-13.3,-1.4,16
179,3104.0,0.2,-0.5,-0.1,1.3,-2.6,9.4,9.5,-24.8,-5.8,16
180,3124.0,0.1,-0.6000000000000001,0.0,1.3,-2.7,9.5,2.4000000000000004,-29.400000000000002,-8.100000000000001,16
181,3137.0,0.0,-0.7000000000000001,0.30000000000000004,1.3,-2.9000000000000004,9.8,-5.300000000000001,-28.600000000000005,-7.200000000000001,16
182,3159.0,-0.1,-0.6000000000000001,0.30000000000000004,1.3,-2.9000000000000004,9.8,-9.899999999999999,-12.100000000000001,1.2000000000000002,16
183,3171.0,-0.1,-0.7000000000000001,0.4,1.3,-2.9000000000000004,9.8,-9.0,-1.3,7.0,16
184,3188.0,0.0,-0.6000000000000001,0.4,1.4000000000000001,-2.9000000000000004,9.9,-4.2,8.899999999999999,15.299999999999999,16
185,3211.0,0.5,-0.30000000000000004,0.30000000000000004,1.8,-2.6,9.700000000000001,9.5,6.1000000000000005,22.9,16
186,3221.0,0.8,-0.2,0.1,2.1,-2.5,9.600000000000001,13.000000000000002,2.0,22.3,16
187,3242.0,1.4000000000000001,0.0,-0.4,2.7,-2.2,9.0,17.200000000000003,-7.8,11.000000000000002,16
188,3254.0,1.6,0.0,-0.6000000000000001,2.9000000000000004,-2.2,8.9,14.700000000000001,-4.1,1.5,16
189,3271.0,1.5,-0.1,-0.6000000000000001,2.8000000000000003,-2.2,8.9,10.4,-3.6000000000000005,-4.800000000000001,16
190,3288.0,1.2000000000000002,-0.2,-0.5,2.6,-2.3000000000000003,9.0,4.0,-2.8,-7.6,16
191,3314.0,1.0,-0.4,-0.2,2.4000000000000004,-2.5,9.200000000000001,-6.500000000000001,-1.7,-4.9,16
192,3321.0,1.0,-0.4,-0.1,2.4000000000000004,-2.5,9.3,-9.5,1.1,-2.8,16
193,3341.0,1.0,-0.30000000000000004,0.1,2.4000000000000004,-2.5,9.5,-15.899999999999999,13.5,6.1000000000000005,16
194,3354.0,1.0,-0.30000000000000004,0.2,2.4000000000000004,-2.5,9.700000000000001,-16.6,18.5,8.8,16
195,3371.0,1.0,-0.2,0.6000000000000001,2.3000000000000003,-2.4000000000000004,10.0,-14.100000000000001,24.7,14.700000000000001,16
196,3388.0,1.0,0.2,0.9,2.3000000000000003,-2.1,10.3,-3.9,23.3,20.8,16
197,3408.0,1.3,0.5,0.7000000000000001,2.5,-1.8,10.200000000000001,5.4,16.4,23.0,16
198,3421.0,1.5,0.7000000000000001,0.7000000000000001,2.7,-1.5,10.0,8.8,14.800000000000002,22.9,16
199,3438.0,1.8,1.0,0.4,2.9000000000000004,-1.3,9.8,15.700000000000001,15.700000000000001,19.1,16
200,3454.0,1.8,1.1,0.4,2.9000000000000004,-1.1,9.8,17.1,14.200000000000001,13.5,16
201,3473.0,1.9000000000000001,1.2000000000000002,0.1,2.9000000000000004,-1.0,9.600000000000001,16.4,18.3,8.700000000000001,16
202,3487.0,1.8,1.2000000000000002,0.30000000000000004,2.8000000000000003,-1.0,9.8,13.3,20.2,2.7,16
203,3504.0,1.7000000000000002,1.1,0.4,2.7,-1.0,10.0,10.9,21.900000000000002,-1.9,16
204,3524.0,1.2000000000000002,1.0,0.8,2.1,-1.1,10.3,12.9,27.2,-3.1,16
205,3537.0,1.0,0.9,0.9,1.8,-1.1,10.4,15.2,27.5,-1.5,16
206,3554.0,0.7000000000000001,0.8,0.9,1.5,-1.2000000000000002,10.5,22.000000000000004,29.300000000000004,5.0,16
207,3570.0,0.4,0.6000000000000001,0.8,1.4000000000000001,-1.1,10.4,28.1,28.600000000000005,12.299999999999999,16
208,3587.0,0.4,0.6000000000000001,0.2,1.4000000000000001,-0.9,9.9,32.5,28.700000000000003,22.4,16
209,3604.0,0.5,1.2000000000000002,0.8,1.4000000000000001,-0.2,10.5,33.400000000000006,26.200000000000003,24.900000000000002,16
210,3621.0,1.2000000000000002,0.5,0.0,2.0,-0.8,9.600000000000001,33.300000000000004,17.0,15.899999999999999,16
211,3637.0,0.7000000000000001,0.6000000000000001,0.30000000000000004,1.5,-0.6000000000000001,9.9,33.6,1.2000000000000002,9.100000000000001,16
212,3654.0,0.6000000000000001,0.5,0.30000000000000004,1.4000000000000001,-0.7000000000000001,10.0,33.7,-16.8,0.6000000000000001,16
213,3670.0,0.8,0.2,0.0,1.7000000000000002,-0.9,9.700000000000001,34.800000000000004,-23.6,-4.4,16
214,3690.0,0.1,0.2,0.4,1.0,-0.8,10.100000000000001,35.599999999999994,-24.200000000000003,-8.8,16
215,3704.0,0.4,-0.1,0.2,1.4000000000000001,-1.0,9.9,39.8,-27.400000000000002,-7.6,16
216,3721.0,-0.2,-0.1,0.2,0.9,-0.9,9.9,41.199999999999996,-26.9,-7.500000000000001,16
217,3738.0,-0.30000000000000004,-0.2,0.0,0.8,-0.9,9.8,41.900000000000006,-27.099999999999998,-0.8,16
218,3754.0,-0.7000000000000001,-0.1,-0.4,0.5,-0.8,9.4,33.400000000000006,-12.0,10.5,16
219,3770.0,-0.9,-0.1,-0.6000000000000001,0.30000000000000004,-0.7000000000000001,9.200000000000001,24.900000000000002,2.4000000000000004,21.6,16
220,3787.0,-1.0,-0.1,-0.7000000000000001,0.1,-0.6000000000000001,9.0,19.1,14.300000000000002,32.0,16
221,3804.0,-1.0,-0.2,-0.7000000000000001,0.1,-0.7000000000000001,9.0,14.800000000000002,18.5,40.6,16
222,3822.0,-1.1,-0.1,-0.7000000000000001,-0.1,-0.6000000000000001,9.1,13.5,10.0,45.5,16
223,3837.0,-0.9,0.0,-0.7000000000000001,0.2,-0.5,9.1,13.200000000000003,-6.600000000000001,47.400000000000006,16
224,3857.0,-0.6000000000000001,0.0,-0.5,0.5,-0.4,9.200000000000001,11.3,-21.900000000000002,44.10000000000001,16
225,3870.0,-0.4,0.1,-0.6000000000000001,0.7000000000000001,-0.4,9.200000000000001,5.8,-30.200000000000003,36.1,16
226,3895.0,-0.4,0.1,-0.2,0.8,-0.4,9.5,-5.1000000000000005,-25.7,22.2,16
227,3910.0,-0.5,0.0,-0.1,0.7000000000000001,-0.5,9.600000000000001,-10.299999999999999,-22.8,15.700000000000001,16
228,3921.0,-0.6000000000000001,-0.1,0.0,0.6000000000000001,-0.6000000000000001,9.700000000000001,-14.600000000000001,-14.200000000000001,11.6,16
229,3939.0,-1.1,-0.2,0.30000000000000004,0.2,-0.8,10.0,-15.5,-8.4,10.700000000000001,16
230,3955.0,-1.3,-0.2,0.2,0.0,-0.8,9.9,-15.000000000000002,-4.1,13.000000000000002,16
231,3974.0,-1.5,-0.2,0.30000000000000004,-0.2,-0.8,10.0,-14.200000000000001,0.6000000000000001,16.8,16
232,3991.0,-1.5,-0.2,0.30000000000000004,-0.2,-0.9,10.0,-13.000000000000002,0.9000000000000001,20.2,16
233,4004.0,-1.5,0.0,0.30000000000000004,-0.2,-0.8,10.0,-10.4,1.2000000000000002,24.0,16
234,4023.0,-0.9,0.1,0.30000000000000004,-0.1,-0.7000000000000001,10.0,-8.0,-0.2,26.000000000000004,16
235,4037.0,-0.30000000000000004,0.1,0.1,0.1,-0.6000000000000001,9.8,-5.7,0.7,26.200000000000003,16
236,4054.0,0.1,0.1,0.1,0.30000000000000004,-0.6000000000000001,9.9,-3.9,-0.30000000000000004,25.300000000000004,16
237,4079.0,0.4,0.2,0.1,0.6000000000000001,-0.6000000000000001,9.9,-1.9,-7.0,21.300000000000004,16
238,4093.0,0.6000000000000001,0.1,0.1,0.8,-0.6000000000000001,9.8,-1.4,-9.899999999999999,17.5,16
239,4104.0,0.6000000000000001,0.1,0.2,0.9,-0.6000000000000001,10.0,-1.2000000000000002,-9.700000000000001,14.400000000000002,16
240,4123.0,0.6000000000000001,0.0,0.30000000000000004,0.9,-0.7000000000000001,10.100000000000001,-0.2,-10.600000000000001,11.900000000000002,16
241,4137.0,0.6000000000000001,-0.1,0.5,1.0,-0.8,10.3,0.7,-12.200000000000001,10.8,16
242,4154.0,0.6000000000000001,-0.1,0.7000000000000001,1.1,-0.8,10.5,2.4000000000000004,-14.200000000000001,10.200000000000001,16
243,4180.0,1.0,-0.1,0.9,1.5,-0.8,10.600000000000001,6.2,-16.900000000000002,9.600000000000001,16
244,4187.0,1.2000000000000002,-0.1,0.9,1.8,-0.8,10.700000000000001,7.300000000000001,-16.1,9.0,16
245,4205.0,1.4000000000000001,-0.1,0.9,2.0,-0.7000000000000001,10.700000000000001,9.4,-12.5,6.8,16
246,4222.0,1.5,-0.1,1.0,2.1,-0.7000000000000001,10.700000000000001,11.700000000000001,-9.3,4.6,16
247,4237.0,1.6,-0.1,0.8,2.3000000000000003,-0.7000000000000001,10.600000000000001,14.800000000000002,-2.6,1.2000000000000002,16
248,4256.0,1.6,-0.1,0.30000000000000004,2.3000000000000003,-0.6000000000000001,10.100000000000001,18.900000000000002,17.300000000000004,-3.6000000000000005,16
249,4271.0,1.5,-0.2,-0.30000000000000004,2.2,-0.7000000000000001,9.5,20.1,31.7,-8.4,16
250,4292.0,1.2000000000000002,-0.2,-0.7000000000000001,1.7000000000000002,-0.7000000000000001,9.1,17.5,42.5,-14.100000000000001,16
251,4304.0,0.8,-0.30000000000000004,-0.9,1.3,-0.6000000000000001,8.9,11.8,38.300000000000004,-19.300000000000004,16
252,4321.0,0.4,-0.30000000000000004,-1.1,0.8,-0.7000000000000001,8.700000000000001,-0.5,28.900000000000002,-24.900000000000002,16
253,4345.0,0.0,-0.5,-0.7000000000000001,0.30000000000000004,-0.9,9.1,-20.400000000000002,13.399999999999999,-28.400000000000002,16
254,4354.0,-0.1,-0.7000000000000001,-0.6000000000000001,0.2,-1.0,9.200000000000001,-28.200000000000003,7.6,-27.800000000000004,16
255,4376.0,-0.2,-1.0,0.30000000000000004,0.1,-1.5,10.0,-38.50000000000001,-1.5,-18.4,16
256,4388.0,-0.1,-1.1,0.5,0.2,-1.7000000000000002,10.200000000000001,-38.300000000000004,-2.0,-13.900000000000002,16
257,4410.0,0.4,-1.2000000000000002,1.0,0.7000000000000001,-2.0,10.8,-27.2,-2.0,2.0,16
258,4421.0,0.6000000000000001,-1.2000000000000002,1.0,0.9,-2.0,10.8,-21.500000000000004,-1.4,7.0,16
259,4437.0,1.3,-0.9,0.9,1.6,-1.8,10.600000000000001,-2.1,3.3000000000000007,19.700000000000003,16
260,4454.0,1.9000000000000001,-0.8,0.6000000000000001,2.2,-1.6,10.4,6.300000000000001,5.7,22.1,16
261,4471.0,2.4000000000000004,-0.6000000000000001,0.2,2.6,-1.4000000000000001,10.0,10.0,10.4,19.1,16
262,4493.0,2.5,-0.6000000000000001,0.0,2.8000000000000003,-1.5,9.8,8.700000000000001,10.299999999999999,13.8,16
263,4504.0,2.4000000000000004,-0.6000000000000001,-0.1,2.6,-1.4000000000000001,9.700000000000001,4.1,4.7,8.4,16
264,4521.0,2.1,-0.6000000000000001,-0.2,2.3000000000000003,-1.4000000000000001,9.600000000000001,-1.1,-0.1,8.3,16
265,4537.0,1.3,-0.4,-0.1,2.3000000000000003,-1.4000000000000001,9.600000000000001,-3.7000000000000006,-1.1,12.200000000000001,16
266,4554.0,0.8,-0.1,0.0,2.3000000000000003,-1.3,9.600000000000001,-3.6000000000000005,0.7,19.5,16
267,4571.0,0.5,0.1,-0.1,2.3000000000000003,-1.2000000000000002,9.5,-1.2000000000000002,5.6,26.300000000000004,16
268,4587.0,0.7000000000000001,0.4,-0.2,2.5,-1.0,9.3,3.1,9.600000000000001,31.5,16
269,4610.0,0.9,0.6000000000000001,-0.5,2.6,-0.7000000000000001,9.1,8.0,13.399999999999999,30.1,16
270,4621.0,0.9,0.9,-1.0,2.6,-0.5,8.6,9.3,13.399999999999999,25.7,16
271,4638.0,0.5,0.9,-1.1,2.4000000000000004,-0.30000000000000004,8.5,9.0,12.600000000000001,18.900000000000002,16
272,4654.0,0.0,0.8,-1.1,2.1,-0.2,8.4,7.500000000000001,7.500000000000001,13.3,16
273,4670.0,-0.2,0.8,-1.2000000000000002,1.8,-0.30000000000000004,8.4,3.5,4.800000000000001,7.1000000000000005,16
274,4690.0,-0.7000000000000001,0.7000000000000001,-1.0,1.4000000000000001,-0.30000000000000004,8.6,-0.8,2.0,3.5,16
275,4704.0,-1.0,0.6000000000000001,-0.8,1.0,-0.4,8.8,-4.9,-0.1,3.2,16
276,4721.0,-1.4000000000000001,0.5,-0.4,0.6000000000000001,-0.5,9.1,-6.4,-0.4,7.400000000000001,16
277,4738.0,-1.5,0.4,0.0,0.5,-0.6000000000000001,9.5,-4.1,-2.1,16.8,16
278,4754.0,-1.1,0.30000000000000004,0.30000000000000004,0.6000000000000001,-0.6000000000000001,9.9,-0.1,-6.8,23.0,16
279,4774.0,-0.9,0.4,0.4,0.8,-0.5,10.0,3.5,-9.3,26.400000000000006,16
280,4791.0,-0.7000000000000001,0.4,0.5,1.0,-0.5,10.200000000000001,6.9,-6.600000000000001,28.600000000000005,16
281,4805.0,-0.5,0.5,0.4,1.2000000000000002,-0.4,10.0,10.9,-0.7,30.000000000000004,16
282,4820.0,-0.4,0.4,0.4,1.4000000000000001,-0.4,10.0,15.000000000000002,5.4,30.699999999999996,16
283,4839.0,-0.4,0.5,0.2,1.3,-0.4,9.8,18.5,7.500000000000001,29.800000000000004,16
284,4854.0,-0.2,0.30000000000000004,0.2,1.4000000000000001,-0.4,9.8,18.0,1.2000000000000002,27.800000000000004,16
285,4870.0,0.0,0.0,0.4,1.6,-0.7000000000000001,10.100000000000001,10.5,-19.700000000000003,19.9,16
286,4887.0,0.1,-0.4,0.6000000000000001,1.8,-1.1,10.3,-0.8,-37.1,7.9,16
287,4904.0,-0.1,-0.8,1.1,1.8,-1.6,10.700000000000001,-15.5,-39.0,-7.500000000000001,16
288,4921.0,-0.7000000000000001,-1.3,1.6,1.3,-2.1,11.100000000000001,-11.8,-29.1,-4.800000000000001,16
289,4940.0,-1.0,-1.5,1.7000000000000002,1.0,-2.3000000000000003,11.3,-1.4,-18.5,3.7000000000000006,16
290,4954.0,-1.2000000000000002,-1.5,1.7000000000000002,0.9,-2.3000000000000003,11.200000000000001,13.900000000000002,-12.5,15.000000000000002,16
291,4970.0,-1.0,-1.4000000000000001,1.2000000000000002,1.1,-2.2,10.8,23.800000000000004,-8.700000000000001,21.6,16
292,4990.0,-0.9,-1.1,0.8,1.2000000000000002,-1.9000000000000001,10.3,27.9,-5.2,22.5,16
293,5004.0,-1.0,-1.0,0.30000000000000004,1.1,-1.6,9.9,24.599999999999998,-4.4,19.400000000000002,16
294,5024.0,-1.2000000000000002,-0.9,0.0,0.9,-1.5,9.600000000000001,15.2,-6.4,13.5,16
295,5037.0,-1.4000000000000001,-0.9,-0.1,0.7000000000000001,-1.5,9.5,4.1,-9.899999999999999,9.4,16
296,5060.0,-1.8,-0.8,0.0,0.4,-1.5,9.600000000000001,-5.500000000000001,-14.800000000000002,11.6,16
297,5076.0,-1.8,-0.8,0.2,0.4,-1.5,9.700000000000001,-8.8,-15.8,16.4,16
298,5090.0,-1.7000000000000002,-0.8,0.2,0.5,-1.5,9.8,-9.0,-11.000000000000002,19.5,16
299,5105.0,-1.7000000000000002,-0.7000000000000001,0.2,0.5,-1.4000000000000001,9.8,-5.6,0.4,22.1,16
300,5121.0,-1.7000000000000002,-0.6000000000000001,0.2,0.5,-1.3,9.700000000000001,0.7,8.0,23.0,16
301,5137.0,-1.8,-0.5,-0.2,0.30000000000000004,-1.3,9.4,6.1000000000000005,12.7,22.4,16
302,5154.0,-1.8,-0.4,-0.4,0.30000000000000004,-1.2000000000000002,9.1,10.700000000000001,13.200000000000003,20.5,16
303,5170.0,-1.8,-0.30000000000000004,-0.6000000000000001,0.2,-1.1,9.0,11.5,7.0,17.7,16
304,5188.0,-1.8,-0.4,-0.7000000000000001,0.2,-1.2000000000000002,8.9,8.5,-2.6,13.100000000000001,16
305,5204.0,-1.8,-0.5,-0.5,0.2,-1.2000000000000002,9.1,3.3000000000000007,-11.900000000000002,9.100000000000001,16
306,5224.0,-1.7000000000000002,-0.6000000000000001,0.0,0.30000000000000004,-1.4000000000000001,9.600000000000001,-5.9,-28.3,6.699999999999999,16
307,5237.0,-1.6,-0.7000000000000001,0.1,0.4,-1.5,9.700000000000001,-8.100000000000001,-28.800000000000004,7.400000000000001,16
308,5260.0,-1.3,-0.7000000000000001,0.6000000000000001,0.8,-1.5,10.100000000000001,-10.200000000000001,-16.900000000000002,13.200000000000003,16
309,5270.0,-1.1,-0.7000000000000001,0.8,1.0,-1.6,10.3,-7.9,-7.1000000000000005,17.400000000000002,16
310,5297.0,-0.9,-0.7000000000000001,0.9,1.1,-1.6,10.5,-4.4,0.4,17.400000000000002,16
311,5308.0,-0.9,-0.7000000000000001,1.0,1.2000000000000002,-1.6,10.5,-3.3000000000000007,0.5,16.5,16
312,5321.0,-0.9,-0.5,0.9,1.2000000000000002,-1.5,10.5,-0.1,-0.1,15.000000000000002,16
313,5340.0,-0.8,-0.5,0.8,1.2000000000000002,-1.5,10.3,3.8,1.0,15.299999999999999,16
314,5354.0,-0.5,-0.4,0.6000000000000001,1.3,-1.4000000000000001,10.200000000000001,9.899999999999999,1.3,16.5,16
315,5381.0,0.30000000000000004,0.1,-0.2,2.0,-1.0,9.4,21.400000000000002,-0.6000000000000001,18.3,16
316,5387.0,0.30000000000000004,0.1,-0.2,2.0,-1.0,9.4,21.400000000000002,-0.6000000000000001,18.3,16
317,5412.0,1.0,0.2,-0.8,2.7,-0.8,8.8,16.4,2.3,8.8,16
318,5422.0,1.1,0.30000000000000004,-0.9,2.8000000000000003,-0.7000000000000001,8.700000000000001,11.8,2.3,3.6000000000000005,16
319,5437.0,0.8,0.2,-1.0,2.5,-0.8,8.6,-10.1,6.4,-13.6,16
320,5454.0,0.5,-0.1,-0.6000000000000001,2.2,-1.1,9.0,-23.900000000000006,6.2,-20.400000000000002,16
321,5471.0,0.1,-0.5,-0.30000000000000004,1.8,-1.5,9.3,-37.300000000000004,9.899999999999999,-23.099999999999998,16
322,5499.0,-0.4,-1.1,0.6000000000000001,1.3,-2.3000000000000003,10.200000000000001,-44.8,17.5,-17.400000000000002,16
323,5508.0,-0.4,-1.2000000000000002,0.8,1.2000000000000002,-2.4000000000000004,10.4,-43.300000000000004,19.400000000000002,-14.100000000000001,16
324,5521.0,-0.4,-1.3,1.1,1.1,-2.7,10.700000000000001,-35.5,22.2,-6.0,16
325,5541.0,-0.2,-1.5,1.3,1.3,-3.0,10.9,-13.399999999999999,17.1,6.9,16
326,5554.0,0.0,-1.5,1.2000000000000002,1.5,-3.0,10.8,-4.5,12.9,9.899999999999999,16
327,5574.0,0.7000000000000001,-1.4000000000000001,1.1,2.1,-2.9000000000000004,10.700000000000001,10.200000000000001,-3.6000000000000005,8.700000000000001,16
328,5589.0,0.9,-1.3,1.0,2.3000000000000003,-2.8000000000000003,10.5,13.700000000000001,-15.299999999999999,3.3000000000000007,16
329,5604.0,0.7000000000000001,-1.2000000000000002,0.8,2.2,-2.7,10.4,12.9,-20.599999999999998,0.1,16
330,5621.0,0.5,-1.1,0.8,2.1,-2.5,10.4,11.700000000000001,-19.9,3.9,16
331,5637.0,0.4,-0.7000000000000001,0.4,2.0,-2.1,9.9,11.000000000000002,-7.0,14.600000000000001,16
332,5655.0,0.5,-0.4,0.2,2.1,-1.7000000000000002,9.8,10.4,9.700000000000001,25.6,16
333,5670.0,0.9,-0.1,-0.2,2.4000000000000004,-1.4000000000000001,9.4,9.0,23.099999999999998,34.2,16
334,5690.0,1.1,0.2,-0.5,2.6,-1.1,9.1,6.600000000000001,29.800000000000004,34.7,16
335,5704.0,1.2000000000000002,0.4,-0.7000000000000001,2.6,-1.0,8.9,3.3000000000000007,29.600000000000005,29.200000000000003,16
336,5722.0,1.2000000000000002,0.4,-0.8,2.5,-0.9,8.8,0.4,23.700000000000003,21.1,16
337,5737.0,1.0,0.4,-0.7000000000000001,2.3000000000000003,-0.9,8.9,-2.1,11.6,10.4,16
338,5754.0,0.7000000000000001,0.4,-0.6000000000000001,2.0,-1.0,9.0,-2.0,1.9,0.7,16
339,5771.0,0.5,0.2,-0.5,1.8,-1.2000000000000002,9.1,0.2,-0.1,0.30000000000000004,16
340,5792.0,0.4,0.1,-0.5,1.7000000000000002,-1.3,9.200000000000001,3.4,-0.7,3.1,16
341,5804.0,0.4,0.0,-0.30000000000000004,1.6,-1.4000000000000001,9.3,5.8,-3.3000000000000007,6.500000000000001,16
342,5823.0,0.5,0.0,-0.2,1.8,-1.4000000000000001,9.4,8.100000000000001,-6.699999999999999,10.600000000000001,16
343,5837.0,0.30000000000000004,0.1,-0.2,1.9000000000000001,-1.3,9.4,9.4,-8.5,12.4,16
344,5854.0,0.30000000000000004,0.2,-0.1,2.1,-1.1,9.5,9.3,-1.2000000000000002,12.5,16
345,5871.0,0.30000000000000004,0.1,0.0,2.1,-1.1,9.5,8.2,4.5,9.899999999999999,16
346,5896.0,0.0,0.2,0.0,1.8,-1.1,9.5,7.200000000000001,10.700000000000001,6.0,16
347,5904.0,-0.1,0.1,0.0,1.7000000000000002,-1.1,9.600000000000001,7.200000000000001,10.5,4.9,16
348,5920.0,-0.2,0.0,0.2,1.6,-1.2000000000000002,9.700000000000001,4.9,-8.0,0.7,16
349,5938.0,-0.2,-0.1,0.30000000000000004,1.7000000000000002,-1.4000000000000001,10.0,2.8,-15.6,-1.9,16
350,5955.0,-0.2,-0.30000000000000004,0.6000000000000001,1.7000000000000002,-1.4000000000000001,10.100000000000001,-3.3000000000000007,-26.400000000000006,-7.0,16
351,5972.0,-0.7000000000000001,-0.6000000000000001,0.9,1.3,-1.8,10.5,-13.200000000000003,-22.5,-10.0,16
352,6003.0,-1.3,-0.6000000000000001,1.0,0.8,-1.9000000000000001,10.600000000000001,-10.5,9.5,5.0,16
353,6021.0,-1.4000000000000001,-0.6000000000000001,1.0,0.6000000000000001,-1.9000000000000001,10.5,-1.6,23.0,15.5,16
354,6039.0,-1.4000000000000001,-0.5,0.6000000000000001,0.5,-1.8,10.100000000000001,6.8,24.8,21.0,16
355,6054.0,-1.4000000000000001,-0.30000000000000004,0.30000000000000004,0.5,-1.6,9.8,14.900000000000002,17.200000000000003,23.0,16
356,6080.0,-0.8,-0.1,-0.30000000000000004,1.0,-1.4000000000000001,9.3,19.0,-11.700000000000001,14.600000000000001,16
357,6093.0,-0.7000000000000001,-0.1,-0.4,1.1,-1.3,9.200000000000001,18.1,-15.700000000000001,11.4,16
358,6115.0,-0.5,-0.1,-0.4,1.4000000000000001,-1.3,9.1,13.700000000000001,-19.9,2.9,16
359,6122.0,-0.4,-0.1,-0.4,1.4000000000000001,-1.3,9.1,12.200000000000001,-19.799999999999997,1.3,16
360,6137.0,-0.5,-0.2,-0.4,1.5,-1.3,9.200000000000001,7.9,-16.6,-1.2000000000000002,16
361,6156.0,-0.5,-0.2,-0.4,1.4000000000000001,-1.3,9.200000000000001,2.7,-11.000000000000002,-2.2,16
362,6171.0,-0.7000000000000001,-0.2,-0.30000000000000004,1.2000000000000002,-1.3,9.200000000000001,-4.6,-4.4,-2.3,16
363,6196.0,-0.9,-0.1,-0.1,1.1,-1.3,9.4,-14.600000000000001,-2.2,-2.3,16
364,6204.0,-1.0,-0.1,0.0,0.9,-1.3,9.5,-17.400000000000002,-1.8000000000000003,-2.5,16
365,6222.0,-1.2000000000000002,-0.2,0.2,0.8,-1.4000000000000001,9.700000000000001,-22.700000000000003,-0.8,-3.0,16
366,6238.0,-1.4000000000000001,-0.1,0.4,0.5,-1.4000000000000001,9.9,-24.5,0.0,-2.4000000000000004,16
367,6254.0,-1.6,-0.1,0.6000000000000001,0.30000000000000004,-1.4000000000000001,10.100000000000001,-22.9,0.1,0.4,16
368,6272.0,-1.2000000000000002,0.0,0.6000000000000001,0.30000000000000004,-1.4000000000000001,10.200000000000001,-15.6,-4.9,6.8,16
369,6291.0,-0.5,0.1,0.6000000000000001,0.5,-1.3,10.3,-10.4,-10.5,9.2,16
370,6309.0,0.0,0.2,0.6000000000000001,0.8,-1.1,10.200000000000001,-5.1000000000000005,-14.5,10.8,16
371,6321.0,0.4,0.5,0.4,1.3,-0.9,10.100000000000001,-2.0,-14.600000000000001,10.9,16
372,6337.0,0.6000000000000001,0.6000000000000001,0.2,1.5,-0.8,9.9,-0.2,-8.3,8.700000000000001,16
373,6354.0,0.8,0.7000000000000001,0.1,1.7000000000000002,-0.7000000000000001,9.8,-0.4,-3.5,5.2,16
374,6371.0,0.6000000000000001,0.6000000000000001,0.1,1.6,-0.6000000000000001,9.8,-1.8000000000000003,-3.1,-0.30000000000000004,16
375,6388.0,0.6000000000000001,0.30000000000000004,0.2,1.7000000000000002,-0.8,9.8,-4.2,-7.300000000000001,-6.9,16
376,6404.0,0.4,0.2,0.30000000000000004,1.6,-0.9,9.9,-6.8,-12.8,-12.100000000000001,16
377,6421.0,0.30000000000000004,0.1,0.4,1.6,-1.0,10.100000000000001,-8.899999999999999,-16.5,-15.8,16
378,6437.0,0.2,-0.2,0.6000000000000001,1.5,-1.3,10.200000000000001,-9.0,-11.6,-16.5,16
379,6458.0,0.1,-0.30000000000000004,0.6000000000000001,1.4000000000000001,-1.5,10.200000000000001,-5.7,-1.1,-14.900000000000002,16
380,6473.0,-0.1,-0.5,0.4,1.2000000000000002,-1.6,10.100000000000001,0.4,7.9,-12.600000000000001,16
381,6510.0,0.2,-0.4,-0.2,1.5,-1.5,9.4,11.4,3.4,-12.600000000000001,16
382,6521.0,0.30000000000000004,-0.4,-0.30000000000000004,1.6,-1.5,9.3,11.1,1.4,-13.900000000000002,16
383,6538.0,0.4,-0.4,-0.6000000000000001,1.7000000000000002,-1.5,9.1,7.6,-2.6,-18.8,16
384,6554.0,0.2,-0.30000000000000004,-0.6000000000000001,1.7000000000000002,-1.5,9.0,2.1,-1.3,-22.5,16
385,6572.0,0.1,-0.30000000000000004,-0.5,1.6,-1.6,9.1,-5.0,-0.2,-24.5,16
386,6588.0,-0.1,-0.6000000000000001,0.0,1.4000000000000001,-2.0,9.600000000000001,-14.700000000000001,-3.5,-25.5,16
387,6605.0,-0.1,-0.7000000000000001,0.2,1.5,-2.1,9.8,-16.4,-5.1000000000000005,-25.1,16
388,6621.0,0.0,-0.9,0.7000000000000001,1.5,-2.3000000000000003,10.3,-17.5,-5.9,-20.2,16
389,6637.0,0.0,-0.9,0.8,1.6,-2.4000000000000004,10.3,-15.899999999999999,-1.9,-17.799999999999997,16
390,6654.0,0.1,-0.7000000000000001,0.8,1.7000000000000002,-2.3000000000000003,10.3,-5.1000000000000005,17.5,-7.9,16
391,6670.0,0.30000000000000004,-0.6000000000000001,0.5,1.8,-2.3000000000000003,10.0,3.1,26.200000000000003,-3.8,16
392,6692.0,0.4,-0.30000000000000004,-0.1,1.8,-1.9000000000000001,9.5,7.300000000000001,22.000000000000004,-5.8,16
393,6705.0,0.5,-0.30000000000000004,-0.2,1.8,-1.9000000000000001,9.4,6.0,17.200000000000003,-7.9,16
394,6725.0,0.4,-0.30000000000000004,-0.30000000000000004,1.8,-1.9000000000000001,9.3,-2.5,2.1,-13.6,16
395,6737.0,0.4,-0.30000000000000004,-0.1,1.8,-1.9000000000000001,9.4,-7.400000000000001,-4.1,-14.400000000000002,16
396,6755.0,0.4,-0.30000000000000004,0.1,1.8,-2.0,9.700000000000001,-15.899999999999999,-10.200000000000001,-9.4,16
397,6771.0,0.5,-0.30000000000000004,0.4,1.9000000000000001,-1.9000000000000001,9.9,-17.300000000000004,-2.3,0.5,16
398,6804.0,1.0,0.2,0.30000000000000004,2.4000000000000004,-1.6,9.9,-6.8,13.399999999999999,18.8,16
399,6821.0,1.3,0.5,0.0,2.7,-1.3,9.600000000000001,-0.2,18.8,20.5,16
400,6837.0,1.5,0.8,-0.4,2.8000000000000003,-1.0,9.200000000000001,3.5,19.799999999999997,17.7,16
401,6854.0,1.4000000000000001,1.0,-0.7000000000000001,2.7,-0.8,8.9,4.5,16.3,11.2,16
402,6870.0,1.3,1.1,-1.0,2.5,-0.7000000000000001,8.6,2.4000000000000004,14.100000000000001,5.0,16
403,6888.0,1.0,1.1,-1.1,2.3000000000000003,-0.7000000000000001,8.5,-2.4000000000000004,11.000000000000002,-0.9000000000000001,16
404,6904.0,0.7000000000000001,1.0,-1.1,1.9000000000000001,-0.7000000000000001,8.5,-7.500000000000001,8.5,-3.4,16
405,6934.0,0.2,0.8,-0.5,1.4000000000000001,-1.0,9.1,-15.5,-5.1000000000000005,0.30000000000000004,16
406,6940.0,0.2,0.8,-0.30000000000000004,1.4000000000000001,-1.0,9.200000000000001,-16.3,-7.9,1.9,16
407,6954.0,0.30000000000000004,0.8,0.1,1.5,-1.1,9.700000000000001,-15.700000000000001,-12.200000000000001,5.9,16
408,6974.0,0.4,0.8,0.5,1.7000000000000002,-1.1,10.0,-12.8,-13.900000000000002,10.200000000000001,16
409,6994.0,0.9,0.8,1.0,2.2,-1.1,10.5,-5.300000000000001,-9.0,12.9,16
410,7004.0,1.1,0.9,1.1,2.4000000000000004,-1.0,10.600000000000001,-2.4000000000000004,-6.2,12.7,16
411,7028.0,1.0,0.6000000000000001,1.0,2.6,-1.0,10.600000000000001,6.500000000000001,6.600000000000001,9.700000000000001,16
412,7037.0,1.0,0.6000000000000001,0.9,2.6,-1.0,10.4,8.600000000000001,10.0,8.100000000000001,16
413,7057.0,0.7000000000000001,0.6000000000000001,0.6000000000000001,2.3000000000000003,-0.9,10.100000000000001,13.200000000000003,17.6,3.9,16
414,7077.0,0.7000000000000001,0.5,0.30000000000000004,2.2,-1.0,9.9,13.100000000000001,13.000000000000002,0.0,16
415,7101.0,0.5,0.30000000000000004,0.2,1.9000000000000001,-1.1,9.8,9.3,5.7,-5.8,16
416,7104.0,0.5,0.30000000000000004,0.2,1.9000000000000001,-1.3,9.8,6.9,1.2000000000000002,-8.0,16
417,7120.0,0.5,0.0,0.2,1.9000000000000001,-1.4000000000000001,9.8,2.3,-6.9,-11.900000000000002,16
418,7138.0,0.2,-0.6000000000000001,0.5,1.7000000000000002,-2.0,10.100000000000001,-3.4,-14.600000000000001,-15.5,16
419,7158.0,0.0,-1.0,0.8,1.6,-2.4000000000000004,10.4,-6.8,-17.5,-16.900000000000002,16
420,7170.0,-0.4,-1.3,1.0,1.2000000000000002,-2.7,10.5,-5.7,-15.100000000000001,-13.6,16
421,7198.0,-0.9,-1.3,0.7000000000000001,0.7000000000000001,-2.7,10.3,6.1000000000000005,5.1000000000000005,1.2000000000000002,16
422,7205.0,-1.1,-1.2000000000000002,0.6000000000000001,0.6000000000000001,-2.6,10.200000000000001,11.1,12.4,7.200000000000001,16
423,7221.0,-1.1,-1.1,0.1,0.5,-2.4000000000000004,9.700000000000001,21.8,22.6,19.0,16
424,7241.0,-0.8,-0.9,-0.2,0.7000000000000001,-2.2,9.4,29.400000000000002,7.500000000000001,23.700000000000003,16
425,7255.0,-0.4,-0.7000000000000001,-0.5,1.1,-1.9000000000000001,9.1,27.400000000000002,-23.400000000000002,17.200000000000003,16
426,7273.0,-0.1,-0.6000000000000001,-0.7000000000000001,1.5,-1.8,8.9,18.4,-42.2,7.300000000000001,16
427,7294.0,-0.1,-0.5,-0.5,1.5,-1.7000000000000002,9.1,9.5,-46.4,1.1,16
428,7308.0,-0.2,-0.5,-0.30000000000000004,1.6,-1.6,9.3,1.5,-40.0,-0.5,16
429,7322.0,-0.2,-0.6000000000000001,0.0,1.7000000000000002,-1.7000000000000002,9.5,-4.0,-24.0,1.0,16
430,7337.0,-0.30000000000000004,-0.6000000000000001,0.30000000000000004,1.6,-1.7000000000000002,9.8,-9.600000000000001,-7.400000000000001,1.7,16
431,7354.0,-0.4,-0.7000000000000001,0.5,1.5,-1.9000000000000001,10.0,-12.9,3.6000000000000005,0.6000000000000001,16
432,7370.0,-0.7000000000000001,-0.7000000000000001,0.6000000000000001,1.2000000000000002,-2.0,10.100000000000001,-13.6,7.400000000000001,-1.4,16
433,7390.0,-1.1,-0.8,0.5,0.8,-2.1,10.100000000000001,-8.5,3.8,-2.2,16
434,7404.0,-1.1,-0.7000000000000001,0.5,0.7000000000000001,-2.1,10.0,-6.0,1.9,-1.7,16
435,7420.0,-1.2000000000000002,-0.7000000000000001,0.30000000000000004,0.6000000000000001,-2.0,9.8,0.9000000000000001,-1.7,0.4,16
436,7437.0,-0.9,-0.4,0.2,0.6000000000000001,-1.9000000000000001,9.700000000000001,6.0,-5.6,1.6,16
437,7454.0,-0.9,-0.4,0.0,0.7000000000000001,-1.8,9.5,8.700000000000001,-12.100000000000001,0.4,16
438,7470.0,-0.8,-0.30000000000000004,0.0,0.8,-1.8,9.600000000000001,8.4,-17.799999999999997,-0.4,16
439,7494.0,-0.5,-0.30000000000000004,0.1,1.2000000000000002,-1.8,9.600000000000001,5.9,-21.300000000000004,-0.2,16
440,7504.0,-0.4,-0.4,0.2,1.3,-1.8,9.700000000000001,4.7,-19.700000000000003,-0.6000000000000001,16
441,7527.0,-0.1,-0.30000000000000004,0.4,1.4000000000000001,-1.8,9.9,3.0,-12.4,-1.0,16
442,7537.0,0.0,-0.2,0.5,1.4000000000000001,-1.9000000000000001,10.0,3.8,-9.4,-0.9000000000000001,16
443,7561.0,0.1,-0.2,0.4,1.5,-1.9000000000000001,10.0,8.100000000000001,-4.800000000000001,-1.6,16
444,7570.0,0.2,-0.2,0.30000000000000004,1.5,-1.9000000000000001,9.8,10.9,-2.6,-2.0,16
445,7601.0,0.2,0.0,-0.6000000000000001,1.5,-1.7000000000000002,8.9,17.0,10.8,-4.300000000000001,16
446,7604.0,0.2,0.0,-0.6000000000000001,1.5,-1.7000000000000002,8.9,17.0,10.8,-4.300000000000001,16
447,7621.0,0.1,-0.1,-0.9,1.4000000000000001,-1.7000000000000002,8.700000000000001,8.2,-0.7,-12.600000000000001,16
448,7637.0,0.0,-0.2,-0.8,1.3,-1.8,8.8,-3.7000000000000006,-11.3,-19.6,16
449,7654.0,0.0,-0.5,-0.2,1.3,-2.1,9.4,-18.1,-23.900000000000006,-22.4,16
450,7671.0,0.1,-0.9,0.4,1.5,-2.5,10.0,-27.3,-29.800000000000004,-20.900000000000002,16
451,7694.0,0.4,-1.3,1.2000000000000002,1.9000000000000001,-3.0,10.700000000000001,-29.500000000000004,-19.400000000000002,-11.1,16
452,7704.0,0.5,-1.3,1.4000000000000001,2.1,-3.1,10.9,-26.400000000000006,-13.5,-6.9,16
453,7725.0,0.9,-1.2000000000000002,1.3,2.5,-3.1,10.8,-9.0,6.9,4.800000000000001,16
454,7737.0,0.9,-1.1,1.1,2.5,-3.0,10.600000000000001,-1.4,13.8,7.9,16
455,7756.0,1.2000000000000002,-1.0,0.6000000000000001,2.7,-2.9000000000000004,10.100000000000001,8.600000000000001,22.1,9.3,16
456,7770.0,1.3,-0.8,0.1,2.8000000000000003,-2.6,9.600000000000001,15.5,21.900000000000002,6.699999999999999,16
457,7796.0,1.4000000000000001,-0.5,-1.0,2.8000000000000003,-2.3000000000000003,8.6,11.900000000000002,12.299999999999999,-2.0,16
458,7804.0,1.4000000000000001,-0.5,-1.2000000000000002,2.8000000000000003,-2.2,8.4,8.899999999999999,10.299999999999999,-3.0,16
459,7820.0,1.2000000000000002,-0.4,-1.4000000000000001,2.6,-2.2,8.200000000000001,-0.30000000000000004,7.500000000000001,-2.9,16
460,7837.0,1.1,-0.30000000000000004,-1.4000000000000001,2.4000000000000004,-2.1,8.1,-9.2,5.9,-0.4,16
461,7857.0,0.9,-0.30000000000000004,-1.3,2.3000000000000003,-2.1,8.3,-18.8,5.9,4.4,16
462,7871.0,1.0,-0.2,-0.9,2.3000000000000003,-2.1,8.6,-25.0,3.0,8.600000000000001,16
463,7893.0,1.0,-0.1,-0.30000000000000004,2.4000000000000004,-2.1,9.200000000000001,-28.900000000000002,-5.2,13.6,16
464,7904.0,1.1,0.0,-0.1,2.5,-2.0,9.4,-28.3,-9.0,14.600000000000001,16
465,7922.0,1.4000000000000001,0.30000000000000004,0.2,2.9000000000000004,-1.9000000000000001,9.600000000000001,-22.6,-14.0,15.5,16
466,7942.0,1.5,0.4,0.30000000000000004,3.0,-1.8,9.700000000000001,-16.3,-8.100000000000001,14.900000000000002,16
467,7961.0,1.5,0.6000000000000001,0.2,3.0,-1.7000000000000002,9.600000000000001,-10.0,-0.9000000000000001,14.100000000000001,16
468,7971.0,1.5,0.7000000000000001,0.1,3.0,-1.5,9.5,-3.5,5.500000000000001,12.600000000000001,16
469,7992.0,1.3,0.9,-0.30000000000000004,2.8000000000000003,-1.4000000000000001,9.1,-0.30000000000000004,7.6,7.699999999999999,16
470,8004.0,1.2000000000000002,0.9,-0.30000000000000004,2.7,-1.4000000000000001,9.1,-0.9000000000000001,7.1000000000000005,5.7,16
471,8021.0,1.1,0.8,-0.4,2.6,-1.4000000000000001,9.0,-3.0,3.6000000000000005,2.5,16
472,8037.0,0.6000000000000001,0.5,-0.4,2.5,-1.5,9.0,-5.6,-0.7,0.8,16
473,8054.0,0.1,0.1,-0.30000000000000004,2.5,-1.7000000000000002,9.1,-8.100000000000001,-2.7,0.6000000000000001,16
474,8076.0,0.1,-0.2,0.1,2.6,-1.9000000000000001,9.4,-10.5,-6.2,0.1,16
475,8105.0,0.2,-0.4,0.4,2.8000000000000003,-2.2,9.600000000000001,-12.8,-6.0,-2.6,16
476,8121.0,0.2,-0.6000000000000001,0.7000000000000001,2.8000000000000003,-2.5,9.9,-12.600000000000001,-3.4,-4.7,16
477,8137.0,0.1,-0.7000000000000001,0.8,2.7,-2.6,10.100000000000001,-11.1,-3.7000000000000006,-6.0,16
478,8164.0,-0.1,-0.8,0.9,2.6,-2.7,10.100000000000001,-7.6,0.6000000000000001,-6.2,16
479,8171.0,-0.2,-0.8,0.8,2.5,-2.7,10.100000000000001,-5.1000000000000005,4.800000000000001,-5.1000000000000005,16
480,8196.0,-0.4,-0.7000000000000001,0.6000000000000001,2.2,-2.7,9.8,1.2000000000000002,13.5,-0.9000000000000001,16
481,8203.0,-0.4,-0.7000000000000001,0.5,2.2,-2.7,9.700000000000001,2.6,15.399999999999999,0.0,16
482,8220.0,-0.6000000000000001,-0.6000000000000001,0.30000000000000004,1.9000000000000001,-2.6,9.600000000000001,4.7,16.0,1.3,16
483,8237.0,-0.7000000000000001,-0.5,0.1,1.8,-2.5,9.4,6.4,12.9,2.6,16
484,8254.0,-0.8,-0.4,-0.1,1.7000000000000002,-2.3000000000000003,9.200000000000001,6.8,8.3,3.4,16
485,8275.0,-0.4,0.1,-0.1,1.7000000000000002,-2.1,9.200000000000001,4.4,-1.8000000000000003,2.7,16
486,8293.0,-0.4,0.2,0.0,1.7000000000000002,-2.0,9.3,0.5,-7.8,1.8000000000000003,16
487,8306.0,-0.4,0.2,0.1,1.7000000000000002,-2.0,9.4,-1.3,-9.700000000000001,1.6,16
488,8321.0,-0.1,0.2,0.5,2.0,-2.0,9.8,-6.300000000000001,-10.9,2.0,16
489,8337.0,0.0,0.30000000000000004,0.7000000000000001,2.1,-2.0,10.0,-8.2,-0.4,2.1,16
490,8354.0,-0.1,0.30000000000000004,0.8,2.0,-2.0,10.100000000000001,-7.9,10.700000000000001,2.8,16
491,8370.0,-0.30000000000000004,0.30000000000000004,0.9,1.9000000000000001,-2.0,10.200000000000001,-4.4,19.1,4.300000000000001,16
492,8391.0,-0.4,0.30000000000000004,0.7000000000000001,1.6,-1.9000000000000001,10.0,2.7,19.5,4.6,16
493,8404.0,-0.5,0.4,0.6000000000000001,1.5,-1.9000000000000001,9.9,6.0,19.300000000000004,4.7,16
494,8424.0,-0.5,0.5,0.30000000000000004,1.4000000000000001,-1.8,9.600000000000001,13.3,11.3,5.6,16
495,8441.0,-0.5,0.6000000000000001,0.1,1.4000000000000001,-1.6,9.5,16.0,3.7000000000000006,6.500000000000001,16
496,8454.0,-0.30000000000000004,0.7000000000000001,0.0,1.6,-1.5,9.3,16.8,-4.7,6.8,16
497,8475.0,-0.1,0.8,-0.2,1.8,-1.4000000000000001,9.200000000000001,14.900000000000002,-6.9,6.300000000000001,16
498,8496.0,0.1,0.8,-0.2,2.0,-1.3,9.200000000000001,9.4,-6.0,4.1,16
499,8507.0,0.1,0.8,-0.1,2.0,-1.3,9.3,7.500000000000001,-5.500000000000001,3.2,16
500,8522.0,0.1,0.7000000000000001,0.0,2.1,-1.3,9.4,4.0,-5.1000000000000005,0.7,16
501,8537.0,0.1,0.4,0.0,2.0,-1.3,9.5,2.7,-5.500000000000001,-0.2,16
502,8554.0,0.1,0.2,0.1,2.0,-1.3,9.600000000000001,2.2,-5.8,-1.2000000000000002,16
503,8570.0,0.1,0.2,0.1,2.0,-1.3,9.600000000000001,1.3,-8.3,-3.4,16
504,8599.0,0.0,0.2,0.1,2.0,-1.3,9.600000000000001,-3.5,-6.8,-10.1,16
505,8604.0,0.0,0.2,0.1,2.0,-1.3,9.600000000000001,-3.5,-6.8,-10.1,16
506,8631.0,-0.4,-0.1,0.30000000000000004,1.6,-1.5,9.8,-12.100000000000001,-10.5,-17.200000000000003,16
507,8637.0,-0.6000000000000001,-0.2,0.30000000000000004,1.4000000000000001,-1.6,9.8,-13.900000000000002,-11.2,-18.0,16
508,8654.0,-1.0,-0.2,0.5,1.1,-1.6,9.9,-15.700000000000001,-9.4,-15.6,16
509,8671.0,-1.1,-0.2,0.5,1.0,-1.7000000000000002,10.0,-14.200000000000001,-6.1000000000000005,-10.1,16
510,8695.0,-0.5,-0.1,0.4,1.1,-1.6,10.0,-6.9,-0.9000000000000001,-0.5,16
511,8705.0,-0.4,0.0,0.30000000000000004,1.1,-1.5,9.8,-4.6,-0.5,0.9000000000000001,16
512,8722.0,-0.2,0.2,0.1,1.3,-1.3,9.700000000000001,0.5,-2.1,1.5,16
513,8738.0,-0.1,0.4,-0.2,1.4000000000000001,-1.2000000000000002,9.4,2.4000000000000004,-5.6,-1.2000000000000002,16
514,8755.0,0.1,0.4,-0.4,1.6,-1.1,9.200000000000001,-0.7,-12.100000000000001,-9.899999999999999,16
515,8773.0,0.0,0.2,-0.30000000000000004,1.5,-1.2000000000000002,9.3,-6.0,-17.7,-15.700000000000001,16
516,8787.0,-0.1,0.2,-0.2,1.5,-1.2000000000000002,9.4,-8.2,-20.2,-17.1,16
517,8804.0,-0.2,0.0,0.2,1.5,-1.4000000000000001,9.8,-11.6,-23.3,-18.200000000000003,16
518,8826.0,-0.1,-0.2,0.6000000000000001,1.6,-1.7000000000000002,10.100000000000001,-11.6,-20.3,-15.2,16
519,8837.0,0.2,-0.2,0.6000000000000001,1.9000000000000001,-1.7000000000000002,10.100000000000001,-6.9,-9.8,-11.2,16
520,8854.0,0.5,-0.1,0.4,2.2,-1.6,9.9,-1.1,2.2,-7.8,16
521,8870.0,0.7000000000000001,0.0,-0.1,2.4000000000000004,-1.5,9.5,3.6000000000000005,14.800000000000002,-7.8,16
522,8893.0,0.7000000000000001,0.1,-0.5,2.3000000000000003,-1.4000000000000001,9.0,0.30000000000000004,18.4,-18.6,16
523,8904.0,0.7000000000000001,0.1,-0.8,2.3000000000000003,-1.4000000000000001,8.8,-3.3000000000000007,17.200000000000003,-23.0,16
524,8921.0,0.4,-0.30000000000000004,-0.7000000000000001,2.0,-1.7000000000000002,8.9,-24.7,8.0,-38.0,16
525,8943.0,0.2,-0.7000000000000001,-0.2,1.8,-2.2,9.4,-40.6,-1.6,-41.800000000000004,16
526,8954.0,0.1,-1.1,0.5,1.7000000000000002,-2.7,10.100000000000001,-50.2,-7.8,-39.2,16
527,8972.0,0.1,-1.4000000000000001,1.2000000000000002,1.7000000000000002,-3.2,10.700000000000001,-53.50000000000001,-7.500000000000001,-31.0,16
528,8996.0,0.4,-1.5,1.6,2.1,-3.4000000000000004,11.100000000000001,-38.800000000000004,6.500000000000001,-15.100000000000001,16
529,9004.0,0.4,-1.5,1.7000000000000002,2.1,-3.5,11.100000000000001,-30.599999999999998,12.5,-9.5,16
530,9022.0,0.9,-1.5,1.4000000000000001,2.5,-3.5,10.8,-11.900000000000002,24.400000000000002,-0.1,16
531,9037.0,1.2000000000000002,-1.2000000000000002,0.8,2.8000000000000003,-3.3000000000000003,10.3,8.3,35.699999999999996,4.4,16
532,9054.0,1.5,-1.0,0.1,3.0,-3.1,9.600000000000001,20.900000000000002,37.0,3.3000000000000007,16
533,9083.0,1.6,-0.7000000000000001,-1.0,2.9000000000000004,-2.7,8.5,24.7,21.6,-9.3,16
534,9087.0,1.6,-0.7000000000000001,-1.0,2.9000000000000004,-2.7,8.5,24.7,21.6,-9.3,16
535,9106.0,1.6,-0.7000000000000001,-1.1,2.9000000000000004,-2.6,8.4,11.3,2.0,-15.5,16
536,9123.0,1.5,-0.8,-1.0,2.8000000000000003,-2.6,8.6,4.9,-4.1,-14.700000000000001,16
537,9137.0,1.6,-0.8,-0.4,3.0,-2.6,9.1,-8.600000000000001,-12.4,-7.8,16
538,9158.0,1.7000000000000002,-0.7000000000000001,0.1,3.2,-2.5,9.700000000000001,-14.0,-11.8,1.6,16
539,9170.0,2.0,-0.4,0.7000000000000001,3.5,-2.3000000000000003,10.200000000000001,-13.100000000000001,-4.9,9.100000000000001,16
540,9198.0,2.4000000000000004,0.0,0.8,3.9000000000000004,-1.9000000000000001,10.3,-4.4,13.399999999999999,14.5,16
541,9205.0,2.5,0.2,0.7000000000000001,4.0,-1.8,10.200000000000001,0.30000000000000004,21.200000000000003,13.5,16
542,9220.0,2.5,0.5,0.5,3.9000000000000004,-1.4000000000000001,10.0,7.200000000000001,29.900000000000006,9.700000000000001,16
543,9238.0,2.3000000000000003,0.7000000000000001,0.1,3.6,-1.2000000000000002,9.600000000000001,13.3,37.0,2.2,16
544,9254.0,1.9000000000000001,0.8,-0.30000000000000004,3.1,-1.1,9.200000000000001,16.3,41.1,-5.4,16
545,9274.0,1.3,0.7000000000000001,-0.6000000000000001,2.4000000000000004,-1.1,9.0,18.4,34.900000000000006,-15.5,16
546,9287.0,0.9,0.6000000000000001,-0.8,1.9000000000000001,-1.1,8.8,17.9,25.200000000000003,-19.5,16
547,9308.0,0.6000000000000001,0.6000000000000001,-0.8,1.6,-1.2000000000000002,8.8,16.200000000000003,18.700000000000003,-19.5,16
548,9321.0,0.30000000000000004,0.5,-0.8,1.3,-1.2000000000000002,8.8,13.000000000000002,14.200000000000001,-16.6,16
549,9337.0,0.1,0.4,-0.7000000000000001,1.1,-1.2000000000000002,8.9,10.5,12.200000000000001,-12.100000000000001,16
550,9354.0,0.0,0.4,-0.5,1.0,-1.2000000000000002,9.1,8.8,11.4,-6.1000000000000005,16
551,9379.0,0.0,0.30000000000000004,-0.30000000000000004,1.0,-1.3,9.4,10.4,7.1000000000000005,2.6,16
552,9387.0,0.1,0.30000000000000004,-0.2,1.0,-1.3,9.4,11.5,4.6,4.300000000000001,16
553,9404.0,0.30000000000000004,0.2,0.0,1.2000000000000002,-1.3,9.700000000000001,14.5,-1.6,7.300000000000001,16
554,9421.0,0.5,0.1,0.1,1.5,-1.3,9.700000000000001,17.5,-8.3,8.2,16
555,9438.0,0.7000000000000001,0.1,0.1,1.7000000000000002,-1.3,9.8,23.0,-7.300000000000001,8.700000000000001,16
556,9457.0,0.9,0.1,0.1,1.9000000000000001,-1.2000000000000002,9.700000000000001,25.4,-3.5,9.8,16
557,9471.0,0.9,0.0,0.0,2.2,-1.3,9.600000000000001,25.4,-4.9,8.3,16
558,9497.0,0.8,-0.1,0.1,2.6,-1.3,9.700000000000001,16.8,-11.4,-0.5,16
559,9504.0,0.8,-0.1,0.1,2.6,-1.3,9.700000000000001,16.8,-11.4,-0.5,16
560,9521.0,0.6000000000000001,-0.5,0.7000000000000001,2.5,-1.7000000000000002,10.200000000000001,0.5,-19.6,-12.8,16
561,9541.0,0.1,-0.9,1.1,2.1,-2.1,10.600000000000001,-8.0,-20.1,-16.6,16
562,9554.0,-0.4,-1.2000000000000002,1.5,1.7000000000000002,-2.5,11.0,-12.9,-14.200000000000001,-14.100000000000001,16
563,9574.0,-1.1,-1.5,1.7000000000000002,1.0,-2.7,11.200000000000001,-4.6,3.9,2.4000000000000004,16
564,9587.0,-1.2000000000000002,-1.4000000000000001,1.6,0.8,-2.7,11.100000000000001,1.2000000000000002,10.5,9.5,16
565,9604.0,-1.4000000000000001,-1.2000000000000002,1.3,0.7000000000000001,-2.5,10.8,15.299999999999999,20.0,24.599999999999998,16
566,9629.0,-0.9,-0.8,0.30000000000000004,1.0,-2.0,9.8,34.800000000000004,18.200000000000003,37.9,16
567,9637.0,-0.5,-0.5,-0.30000000000000004,1.4000000000000001,-1.6,9.3,40.1,4.1,35.2,16
568,9657.0,-0.1,-0.2,-0.8,1.8,-1.2000000000000002,8.8,37.300000000000004,-10.4,26.1,16
569,9670.0,0.1,-0.1,-1.1,2.0,-1.1,8.5,26.000000000000004,-22.1,11.6,16
570,9688.0,0.1,0.0,-1.2000000000000002,2.0,-1.0,8.4,12.600000000000001,-27.400000000000002,0.1,16
571,9704.0,-0.2,-0.2,-0.9,1.8,-1.2000000000000002,8.700000000000001,-3.6000000000000005,-23.099999999999998,-7.1000000000000005,16
572,9721.0,-0.6000000000000001,-0.5,-0.6000000000000001,1.5,-1.4000000000000001,9.0,-16.700000000000003,-13.100000000000001,-7.8,16
573,9740.0,-1.2000000000000002,-0.8,0.1,0.9,-1.8,9.600000000000001,-23.400000000000002,0.1,-1.5,16
574,9754.0,-1.3,-0.8,0.2,0.8,-1.9000000000000001,9.8,-22.1,3.3000000000000007,2.9,16
575,9772.0,-1.3,-0.7000000000000001,0.30000000000000004,0.8,-1.9000000000000001,9.8,-12.7,9.2,12.299999999999999,16
576,9787.0,-1.1,-0.6000000000000001,0.2,0.9,-1.8,9.700000000000001,-6.4,9.4,13.200000000000003,16
577,9809.0,-1.0,-0.4,0.1,1.0,-1.6,9.600000000000001,-0.7,3.9,11.000000000000002,16
578,9823.0,-0.9,-0.30000000000000004,-0.2,1.0,-1.5,9.4,2.2,-0.8,7.0,16
579,9846.0,-1.0,-0.1,-0.4,1.0,-1.4000000000000001,9.200000000000001,2.8,-6.300000000000001,1.4,16
580,9854.0,-1.0,-0.1,-0.30000000000000004,1.0,-1.4000000000000001,9.200000000000001,2.5,-7.8,0.5,16
581,9871.0,-0.9,-0.1,-0.4,1.1,-1.3,9.1,0.2,-11.4,-0.30000000000000004,16
582,9887.0,-0.8,0.0,-0.4,1.2000000000000002,-1.3,9.1,-3.2,-10.8,-0.30000000000000004,16
583,9907.0,-0.4,0.1,-0.2,1.2000000000000002,-1.2000000000000002,9.4,-11.2,-6.8,0.2,16
584,9942.0,-0.2,0.2,0.30000000000000004,1.3,-1.2000000000000002,9.9,-19.0,-2.8,1.0,16
585,9954.0,-0.2,0.2,0.6000000000000001,1.4000000000000001,-1.3,10.200000000000001,-19.400000000000002,-2.3,0.4,16
586,9971.0,-0.1,0.2,0.8,1.4000000000000001,-1.3,10.4,-17.5,-2.6,-0.4,16
587,9992.0,0.0,0.1,0.9,1.4000000000000001,-1.3,10.5,-12.600000000000001,-3.1,-1.4,16
588,10011.0,0.2,0.0,0.9,1.6,-1.4000000000000001,10.600000000000001,-3.4,-4.2,-4.5,16
589,10020.0,0.2,-0.1,0.9,1.6,-1.4000000000000001,10.5,-0.7,-3.9,-5.7,16
590,10040.0,0.2,-0.1,0.9,1.6,-1.5,10.5,5.0,-5.500000000000001,-8.4,16
591,10054.0,0.1,-0.2,0.7000000000000001,1.6,-1.5,10.3,9.600000000000001,-7.200000000000001,-9.100000000000001,16
592,10080.0,0.30000000000000004,-0.2,0.4,1.8,-1.5,10.0,16.900000000000002,-11.6,-7.0,16
593,10088.0,0.4,-0.2,0.30000000000000004,1.9000000000000001,-1.5,9.9,18.700000000000003,-11.1,-6.1000000000000005,16
594,10107.0,0.7000000000000001,0.0,0.0,2.2,-1.3,9.600000000000001,21.300000000000004,-9.700000000000001,-5.1000000000000005,16
595,10121.0,1.0,0.1,-0.4,2.5,-1.1,9.3,20.1,-3.7000000000000006,-6.8,16
596,10137.0,0.7000000000000001,0.1,-0.7000000000000001,2.5,-1.1,8.9,9.100000000000001,10.5,-17.0,16
597,10154.0,0.1,0.0,-0.6000000000000001,1.9000000000000001,-1.2000000000000002,8.9,-1.7,21.400000000000002,-24.7,16
598,10171.0,-0.5,-0.30000000000000004,-0.6000000000000001,1.3,-1.4000000000000001,9.0,-8.899999999999999,26.5,-26.200000000000003,16
599,10188.0,-0.9,-0.5,-0.4,0.8,-1.7000000000000002,9.200000000000001,-13.6,29.600000000000005,-21.900000000000002,16
600,10204.0,-1.0,-0.7000000000000001,-0.30000000000000004,0.6000000000000001,-1.9000000000000001,9.3,-13.6,27.5,-14.0,16
601,10221.0,-0.8,-0.8,-0.1,0.8,-2.0,9.5,-9.5,18.8,-3.3000000000000007,16
602,10238.0,-0.30000000000000004,-0.8,0.1,1.2000000000000002,-2.0,9.700000000000001,-4.9,3.4,3.1,16
603,10254.0,0.30000000000000004,-0.7000000000000001,0.2,1.8,-2.0,9.8,-2.7,-10.5,3.6000000000000005,16
604,10273.0,0.9,-0.7000000000000001,0.4,2.5,-2.0,10.0,-3.1,-25.6,-2.1,16
605,10287.0,1.4000000000000001,-0.9,0.7000000000000001,3.2,-2.3000000000000003,10.5,-7.300000000000001,-32.6,-8.899999999999999,16
606,10310.0,1.7000000000000002,-1.2000000000000002,1.2000000000000002,3.4000000000000004,-2.5,10.8,-12.4,-34.300000000000004,-14.0,16
607,10320.0,1.6,-1.4000000000000001,1.4000000000000001,3.5,-2.7,10.9,-17.200000000000003,-23.800000000000004,-16.5,16
608,10337.0,1.4000000000000001,-1.4000000000000001,1.6,3.4000000000000004,-2.8000000000000003,11.100000000000001,-16.8,-6.500000000000001,-13.100000000000001,16
609,10354.0,1.0,-1.2000000000000002,0.9,2.9000000000000004,-2.7,10.4,-9.8,18.700000000000003,-1.6,16
610,10370.0,0.8,-1.0,0.8,2.7,-2.5,10.3,0.2,38.900000000000006,11.3,16
611,10389.0,0.8,-0.7000000000000001,0.0,2.6,-2.2,9.5,10.9,47.1,20.5,16
612,10403.0,0.9,-0.5,-0.6000000000000001,2.5,-1.9000000000000001,9.0,17.200000000000003,43.4,21.900000000000002,16
613,10420.0,0.8,-0.1,-1.2000000000000002,2.4000000000000004,-1.5,8.4,20.1,26.000000000000004,17.7,16
614,10437.0,1.0,0.1,-1.6,2.4000000000000004,-1.2000000000000002,8.0,16.900000000000002,8.700000000000001,9.5,16
615,10454.0,1.0,0.4,-1.8,2.4000000000000004,-1.0,7.800000000000001,10.1,-4.800000000000001,2.2,16
616,10471.0,0.7000000000000001,0.4,-1.7000000000000002,2.2,-0.9,7.9,-5.0,-16.200000000000003,-4.300000000000001,16
617,10487.0,0.6000000000000001,0.4,-1.3,2.1,-1.0,8.3,-13.6,-18.4,-3.6000000000000005,16
618,10504.0,0.4,0.4,-0.9,2.0,-1.0,8.700000000000001,-19.799999999999997,-12.8,1.2000000000000002,16
619,10525.0,0.4,0.4,-0.4,2.1,-1.0,9.1,-20.8,-5.300000000000001,7.500000000000001,16
620,10537.0,0.4,0.5,-0.2,2.1,-1.0,9.4,-18.3,2.1,11.6,16
621,10554.0,0.6000000000000001,0.6000000000000001,0.0,2.2,-0.9,9.600000000000001,-11.900000000000002,7.300000000000001,12.600000000000001,16
622,10570.0,0.6000000000000001,0.7000000000000001,0.0,2.2,-0.9,9.600000000000001,-5.1000000000000005,7.400000000000001,10.600000000000001,16
623,10588.0,0.7000000000000001,0.7000000000000001,0.1,2.3000000000000003,-0.8,9.600000000000001,1.7,1.6,5.300000000000001,16
624,10605.0,0.8,0.6000000000000001,0.1,2.4000000000000004,-0.9,9.700000000000001,4.9,-8.700000000000001,-0.8,16
625,10621.0,0.8,0.5,0.2,2.4000000000000004,-1.0,9.700000000000001,4.7,-14.0,-10.600000000000001,16
626,10640.0,0.7000000000000001,0.4,0.2,2.4000000000000004,-1.1,9.700000000000001,2.3,-5.300000000000001,-12.5,16
627,10654.0,0.4,0.30000000000000004,0.1,2.2,-1.2000000000000002,9.700000000000001,0.5,8.899999999999999,-10.700000000000001,16
628,10670.0,0.1,0.2,0.1,1.8,-1.3,9.600000000000001,-0.30000000000000004,25.300000000000004,-5.1000000000000005,16
629,10690.0,-0.2,0.0,0.1,1.4000000000000001,-1.4000000000000001,9.700000000000001,-0.5,28.3,-1.0,16
630,10704.0,-0.30000000000000004,-0.1,0.1,1.3,-1.5,9.600000000000001,-1.9,20.400000000000002,-0.1,16
631,10720.0,-0.30000000000000004,-0.2,0.2,1.2000000000000002,-1.7000000000000002,9.8,-3.0,7.699999999999999,-1.2000000000000002,16
632,10737.0,-0.30000000000000004,-0.4,0.4,1.2000000000000002,-1.9000000000000001,10.0,-2.8,-5.6,-2.4000000000000004,16
633,10754.0,-0.1,-0.7000000000000001,0.7000000000000001,1.4000000000000001,-2.2,10.3,-1.5,-19.5,-2.2,16
634,10770.0,0.0,-0.9,1.1,1.6,-2.4000000000000004,10.600000000000001,-0.9000000000000001,-30.200000000000003,-2.0,16
635,10787.0,0.2,-1.1,1.4000000000000001,1.8,-2.6,10.9,-1.6,-35.1,-2.0,16
636,10809.0,0.0,-1.3,1.8,1.8,-2.8000000000000003,11.3,-2.7,-28.400000000000002,-0.30000000000000004,16
637,10820.0,-0.30000000000000004,-1.3,1.8,1.6,-2.8000000000000003,11.3,-0.1,-13.900000000000002,5.8,16
638,10839.0,-0.6000000000000001,-1.2000000000000002,1.6,1.3,-2.7,11.100000000000001,8.4,5.4,18.700000000000003,16
639,10854.0,-0.6000000000000001,-1.1,1.2000000000000002,1.2000000000000002,-2.6,10.8,18.6,15.5,30.5,16
640,10872.0,-0.30000000000000004,-0.9,0.8,1.5,-2.3000000000000003,10.3,28.800000000000004,12.4,37.400000000000006,16
641,10887.0,0.0,-0.6000000000000001,0.2,1.8,-2.0,9.8,32.8,1.3,35.8,16
642,10906.0,0.4,-0.30000000000000004,-0.4,2.2,-1.5,9.200000000000001,27.5,-15.700000000000001,21.900000000000002,16
643,10921.0,0.4,-0.2,-0.5,2.2,-1.4000000000000001,9.1,23.2,-19.700000000000003,16.3,16
644,10959.0,-0.5,-0.4,-0.4,1.4000000000000001,-1.6,9.1,-3.1,-6.2,0.1,16
645,10972.0,-0.8,-0.4,-0.30000000000000004,1.1,-1.6,9.200000000000001,-5.4,-1.8000000000000003,1.5,16
646,10988.0,-1.2000000000000002,-0.5,-0.2,0.8,-1.8,9.3,-6.4,8.0,7.500000000000001,16
647,11004.0,-1.2000000000000002,-0.5,-0.1,0.7000000000000001,-1.8,9.4,-0.5,7.1000000000000005,15.2,16
648,11020.0,-1.0,-0.5,-0.1,0.9,-1.7000000000000002,9.4,3.2,2.2,15.5,16
649,11037.0,-0.8,-0.4,-0.2,1.0,-1.7000000000000002,9.3,5.2,-6.1000000000000005,11.6,16
650,11058.0,-0.6000000000000001,-0.30000000000000004,-0.2,1.2000000000000002,-1.6,9.3,4.5,-11.700000000000001,6.8,16
651,11077.0,-0.7000000000000001,-0.4,-0.2,1.2000000000000002,-1.7000000000000002,9.3,0.2,-11.8,1.1,16
652,11091.0,-0.8,-0.5,0.0,1.1,-1.8,9.5,-2.7,-6.2,1.6,16
653,11104.0,-0.8,-0.5,0.0,1.1,-1.8,9.600000000000001,-3.3000000000000007,-4.2,2.8,16
654,11121.0,-0.6000000000000001,-0.4,0.1,1.0,-1.8,9.600000000000001,-3.6000000000000005,-1.4,6.0,16
655,11140.0,-0.1,-0.1,0.30000000000000004,1.1,-1.9000000000000001,9.9,-2.9,2.2,11.3,16
656,11154.0,0.1,-0.1,0.4,1.3,-1.8,10.0,-0.9000000000000001,0.1,12.5,16
657,11170.0,0.30000000000000004,-0.1,0.5,1.5,-1.8,10.100000000000001,1.9,-4.300000000000001,11.6,16
658,11187.0,0.5,0.0,0.6000000000000001,1.8,-1.8,10.200000000000001,6.500000000000001,-6.600000000000001,8.899999999999999,16
659,11204.0,0.7000000000000001,0.0,0.7000000000000001,2.0,-1.7000000000000002,10.200000000000001,11.2,-7.300000000000001,6.2,16
660,11220.0,0.9,0.0,0.5,2.2,-1.7000000000000002,10.100000000000001,15.6,-4.7,2.6,16
661,11237.0,0.8,0.0,0.5,2.2,-1.7000000000000002,10.0,18.200000000000003,-1.3,-0.5,16
662,11255.0,0.8,0.0,0.30000000000000004,2.2,-1.6,9.9,20.5,-1.2000000000000002,-2.9,16
663,11272.0,1.1,0.2,0.0,2.4000000000000004,-1.3,9.600000000000001,22.8,-4.300000000000001,-3.8,16
664,11293.0,1.0,0.4,-0.2,2.7,-1.1,9.3,21.7,-1.3,-5.300000000000001,16
665,11305.0,1.0,0.5,-0.4,3.0,-0.9,9.1,16.900000000000002,3.4,-9.8,16
666,11320.0,0.6000000000000001,0.5,-0.7000000000000001,2.9000000000000004,-0.8,8.8,7.300000000000001,12.7,-19.799999999999997,16
667,11340.0,0.1,0.4,-0.6000000000000001,2.5,-0.8,8.8,-2.3,22.3,-28.200000000000003,16
668,11354.0,-0.30000000000000004,0.2,-0.4,2.0,-1.0,9.0,-12.4,22.3,-35.699999999999996,16
669,11371.0,-0.6000000000000001,0.0,-0.2,1.6,-1.2000000000000002,9.3,-20.3,19.700000000000003,-39.2,16
670,11393.0,-1.1,-0.5,0.7000000000000001,1.1,-1.8,10.200000000000001,-29.300000000000004,16.1,-37.1,16
671,11403.0,-1.2000000000000002,-0.6000000000000001,1.1,0.9,-1.9000000000000001,10.5,-29.0,14.100000000000001,-33.50000000000001,16
672,11420.0,-1.3,-0.7000000000000001,1.6,0.9,-2.1,11.0,-21.7,9.3,-21.1,16
673,11437.0,-1.0,-0.7000000000000001,1.7000000000000002,1.1,-2.1,11.200000000000001,-8.600000000000001,13.000000000000002,-7.699999999999999,16
674,11454.0,-0.6000000000000001,-0.4,1.7000000000000002,1.5,-1.8,11.200000000000001,10.9,18.0,7.699999999999999,16
675,11471.0,0.2,0.0,1.3,2.5,-1.2000000000000002,10.5,33.0,20.3,16.3,16
676,11508.0,1.3,0.7000000000000001,0.0,3.1,-0.5,9.600000000000001,33.800000000000004,15.100000000000001,1.4,16
677,11525.0,1.3,0.7000000000000001,-0.30000000000000004,3.1,-0.4,9.3,26.1,9.2,-7.8,16
678,11540.0,1.2000000000000002,0.7000000000000001,-0.30000000000000004,3.0,-0.4,9.3,15.299999999999999,4.6,-15.5,16
679,11554.0,1.1,0.4,-0.2,3.0,-0.6000000000000001,9.4,5.6,8.899999999999999,-19.6,16
680,11573.0,1.0,0.0,0.0,2.8000000000000003,-0.9,9.600000000000001,0.30000000000000004,13.3,-20.900000000000002,16
681,11595.0,0.7000000000000001,-0.2,0.1,2.5,-1.1,9.700000000000001,-3.4,25.900000000000002,-17.300000000000004,16
682,11604.0,0.6000000000000001,-0.2,0.1,2.4000000000000004,-1.1,9.700000000000001,-3.4,30.4,-14.900000000000002,16
683,11621.0,0.5,-0.2,-0.1,2.2,-1.2000000000000002,9.600000000000001,-1.8000000000000003,36.8,-9.5,16
684,11638.0,0.4,-0.2,-0.30000000000000004,1.9000000000000001,-1.1,9.4,1.0,37.800000000000004,-7.300000000000001,16
685,11654.0,0.2,-0.1,-0.5,1.7000000000000002,-1.1,9.200000000000001,3.1,32.2,-7.200000000000001,16
686,11670.0,0.0,0.0,-0.6000000000000001,1.4000000000000001,-0.9,9.0,5.6,22.700000000000003,-6.0,16
687,11690.0,-0.2,0.1,-0.7000000000000001,1.2000000000000002,-0.8,9.0,7.699999999999999,15.100000000000001,-4.1,16
688,11704.0,-0.2,0.2,-0.7000000000000001,1.1,-0.7000000000000001,9.0,10.4,4.0,-1.1,16
689,11720.0,-0.2,0.4,-0.8,1.1,-0.5,8.9,12.200000000000001,-0.1,1.5,16
690,11737.0,-0.1,0.5,-0.8,1.2000000000000002,-0.4,8.9,12.9,-3.1,3.7000000000000006,16
691,11754.0,-0.1,0.6000000000000001,-0.8,1.2000000000000002,-0.2,8.9,11.8,-3.9,3.9,16
692,11771.0,-0.1,0.7000000000000001,-0.6000000000000001,1.3,0.0,9.1,9.100000000000001,-2.6,3.6000000000000005,16
693,11788.0,-0.2,0.7000000000000001,-0.6000000000000001,1.2000000000000002,0.0,9.1,4.800000000000001,1.0,2.6,16
694,11805.0,-0.30000000000000004,0.6000000000000001,-0.30000000000000004,1.0,0.0,9.4,-0.1,5.1000000000000005,1.8000000000000003,16
695,11820.0,-0.4,0.30000000000000004,0.0,0.9,-0.1,9.8,-1.3,4.9,2.7,16
696,11837.0,-0.5,0.2,0.2,0.8,-0.1,9.9,0.0,3.5,4.2,16
697,11854.0,-0.5,0.0,0.30000000000000004,0.6000000000000001,-0.2,10.0,3.6000000000000005,6.8,7.300000000000001,16
698,11875.0,-0.6000000000000001,0.0,0.4,0.4,-0.30000000000000004,10.100000000000001,9.2,9.4,11.5,16
699,11887.0,-0.7000000000000001,-0.1,0.30000000000000004,0.30000000000000004,-0.30000000000000004,10.100000000000001,15.2,7.500000000000001,15.2,16
700,11910.0,-0.6000000000000001,0.0,0.1,0.30000000000000004,-0.1,9.9,22.8,2.2,19.799999999999997,16
701,11921.0,-0.6000000000000001,0.0,0.0,0.4,-0.1,9.8,23.800000000000004,0.30000000000000004,20.5,16
702,11937.0,-0.5,0.0,0.0,0.5,-0.1,9.700000000000001,23.800000000000004,-8.700000000000001,20.900000000000002,16
703,11955.0,0.0,-0.30000000000000004,0.30000000000000004,1.0,-0.30000000000000004,10.100000000000001,17.799999999999997,-34.300000000000004,16.1,16
704,11971.0,0.4,-0.6000000000000001,0.5,1.4000000000000001,-0.6000000000000001,10.200000000000001,11.700000000000001,-45.9,10.700000000000001,16
705,12003.0,0.5,-1.1,0.8,1.8,-1.0,10.5,3.7000000000000006,-30.000000000000004,7.9,16
706,12020.0,0.4,-1.2000000000000002,0.7000000000000001,1.8,-1.1,10.5,4.800000000000001,-8.5,13.8,16
707,12037.0,0.30000000000000004,-1.2000000000000002,0.6000000000000001,1.7000000000000002,-1.1,10.3,5.4,7.9,18.4,16
708,12054.0,0.1,-1.2000000000000002,0.4,1.5,-1.1,10.200000000000001,4.5,17.0,20.7,16
709,12078.0,-0.2,-1.0,0.30000000000000004,1.1,-0.9,10.0,1.8000000000000003,8.0,18.5,16
710,12089.0,-0.4,-1.0,0.30000000000000004,0.9,-0.9,10.0,0.8,2.6,17.400000000000002,16
711,12105.0,-0.6000000000000001,-0.9,0.4,0.7000000000000001,-0.8,10.200000000000001,-2.0,-14.5,14.700000000000001,16
712,12120.0,-0.6000000000000001,-0.8,0.6000000000000001,0.7000000000000001,-0.8,10.3,-2.5,-18.1,14.700000000000001,16
713,12137.0,-0.6000000000000001,-0.8,0.7000000000000001,0.8,-0.8,10.5,-3.2,-22.8,15.000000000000002,16
714,12154.0,-0.4,-0.8,0.8,1.0,-0.8,10.5,-3.4,-17.7,15.2,16
715,12170.0,-0.4,-0.8,0.9,1.1,-0.8,10.600000000000001,-2.6,-8.3,15.5,16
716,12194.0,-0.5,-0.8,0.8,1.0,-0.8,10.5,0.30000000000000004,7.400000000000001,15.5,16
717,12204.0,-0.6000000000000001,-0.8,0.6000000000000001,0.9,-0.8,10.3,1.6,10.299999999999999,15.2,16
718,12221.0,-0.7000000000000001,-0.8,0.30000000000000004,0.7000000000000001,-0.8,10.0,4.7,14.900000000000002,14.900000000000002,16
719,12237.0,-0.7000000000000001,-0.7000000000000001,0.0,0.7000000000000001,-0.7000000000000001,9.700000000000001,7.8,12.299999999999999,15.5,16
720,12254.0,-0.7000000000000001,-0.6000000000000001,-0.30000000000000004,0.7000000000000001,-0.6000000000000001,9.4,10.1,7.8,14.700000000000001,16
721,12273.0,-0.30000000000000004,-0.2,-0.7000000000000001,0.9,-0.5,9.0,8.8,1.9,10.299999999999999,16
722,12288.0,-0.1,0.0,-0.8,1.1,-0.5,8.9,6.2,-0.9000000000000001,7.1000000000000005,16
723,12309.0,0.1,0.1,-0.8,1.1,-0.4,8.9,1.2000000000000002,-2.7,2.5,16
724,12320.0,0.2,0.0,-0.8,1.2000000000000002,-0.5,9.0,-4.1,-2.7,-1.9,16
725,12337.0,0.1,-0.1,-0.6000000000000001,1.1,-0.6000000000000001,9.200000000000001,-9.899999999999999,-2.7,-6.1000000000000005,16
726,12354.0,0.0,-0.2,-0.30000000000000004,1.1,-0.7000000000000001,9.5,-13.5,-2.9,-8.0,16
727,12370.0,-0.1,-0.30000000000000004,0.1,1.0,-0.9,9.8,-15.8,-2.6,-8.3,16
728,12390.0,-0.1,-0.4,0.5,1.0,-1.0,10.200000000000001,-15.299999999999999,-5.300000000000001,-7.699999999999999,16
729,12409.0,0.0,-0.4,0.8,1.1,-1.1,10.5,-10.299999999999999,-10.600000000000001,-5.4,16
730,12420.0,0.1,-0.30000000000000004,0.9,1.2000000000000002,-1.0,10.600000000000001,-7.200000000000001,-11.2,-4.2,16
731,12437.0,0.2,-0.2,0.8,1.3,-0.9,10.600000000000001,-1.7,-9.3,-2.5,16
732,12454.0,0.30000000000000004,0.0,0.7000000000000001,1.4000000000000001,-0.8,10.4,4.4,-3.8,-1.3,16
733,12476.0,0.2,0.2,0.4,1.4000000000000001,-0.5,10.100000000000001,10.8,0.4,-2.1,16
734,12487.0,0.30000000000000004,0.2,0.2,1.5,-0.5,9.9,13.000000000000002,-5.4,-4.0,16
735,12528.0,0.7000000000000001,0.5,-0.4,1.9000000000000001,-0.1,9.3,12.5,-18.3,-11.3,16
736,12542.0,0.7000000000000001,0.5,-0.6000000000000001,2.0,-0.1,9.1,10.9,-13.100000000000001,-12.7,16
737,12554.0,0.7000000000000001,0.7000000000000001,-0.9,2.0,0.1,8.8,6.300000000000001,-1.0,-15.700000000000001,16
738,12575.0,0.30000000000000004,0.6000000000000001,-1.5,1.5,0.1,8.3,-6.9,25.6,-23.400000000000002,16
739,12588.0,0.1,0.6000000000000001,-1.5,1.4000000000000001,0.1,8.200000000000001,-11.8,29.400000000000002,-26.200000000000003,16
740,12604.0,-0.30000000000000004,0.4,-1.4000000000000001,0.8,-0.2,8.4,-25.6,27.5,-33.1,16
741,12621.0,-0.9,0.0,-0.4,0.2,-0.7000000000000001,9.3,-45.6,-1.5,-38.50000000000001,16
742,12637.0,-0.9,-0.2,0.0,0.2,-1.0,9.700000000000001,-52.80000000000001,-20.3,-35.5,16
743,12654.0,-0.9,-0.7000000000000001,1.4000000000000001,0.30000000000000004,-1.6,11.100000000000001,-52.2,-33.2,-25.1,16
744,12671.0,-0.5,-0.7000000000000001,2.0,0.8,-1.7000000000000002,11.600000000000001,-42.2,-33.9,-11.4,16
745,12697.0,0.4,-0.30000000000000004,2.2,1.8,-1.5,11.8,-12.4,-11.1,11.8,16
746,12704.0,0.8,-0.2,2.1,2.2,-1.4000000000000001,11.8,-3.0,-4.2,15.8,16
747,12721.0,1.6,0.0,1.6,3.0,-1.2000000000000002,11.200000000000001,13.200000000000003,4.6,15.5,16
748,12739.0,2.1,0.2,0.9,3.4000000000000004,-1.0,10.600000000000001,18.5,6.300000000000001,3.7000000000000006,16
749,12754.0,2.1,0.2,0.30000000000000004,3.5,-0.9,10.0,15.2,4.6,-9.899999999999999,16
750,12772.0,1.8,0.1,-0.2,3.1,-0.9,9.4,5.8,4.2,-21.8,16
751,12787.0,1.3,-0.1,-0.5,2.6,-1.1,9.1,-3.1,6.500000000000001,-24.3,16
752,12805.0,0.5,-0.4,-0.5,1.8,-1.4000000000000001,9.200000000000001,-13.200000000000003,9.8,-14.100000000000001,16
753,12820.0,0.4,-0.4,-0.4,1.7000000000000002,-1.5,9.3,-14.400000000000002,5.0,-1.9,16
754,12837.0,0.5,-0.2,-0.4,1.8,-1.3,9.200000000000001,-11.900000000000002,1.5,8.899999999999999,16
755,12854.0,0.9,0.0,-0.5,2.2,-1.1,9.200000000000001,-6.9,-0.8,16.700000000000003,16
756,12871.0,1.4000000000000001,0.30000000000000004,-0.6000000000000001,2.7,-0.9,9.0,-2.3,-2.6,17.300000000000004,16
757,12894.0,1.8,0.7000000000000001,-0.9,3.2,-0.5,8.700000000000001,1.2000000000000002,-2.9,7.300000000000001,16
758,12904.0,1.8,0.8,-0.9,3.2,-0.4,8.700000000000001,0.4,-3.0,2.4000000000000004,16
759,12925.0,1.5,0.8,-0.9,2.9000000000000004,-0.4,8.8,-7.500000000000001,-6.0,-15.000000000000002,16
760,12940.0,1.0,0.6000000000000001,-0.6000000000000001,2.4000000000000004,-0.6000000000000001,9.0,-15.100000000000001,-8.100000000000001,-22.8,16
761,12956.0,0.7000000000000001,0.5,-0.5,2.2,-0.7000000000000001,9.200000000000001,-20.3,-7.699999999999999,-23.5,16
762,12970.0,0.30000000000000004,0.30000000000000004,-0.1,1.8,-1.0,9.5,-21.900000000000002,-5.8,-21.200000000000003,16
763,12990.0,0.1,0.1,0.30000000000000004,1.6,-1.2000000000000002,9.9,-20.5,-1.2000000000000002,-11.2,16
764,13006.0,0.1,0.1,0.5,1.6,-1.2000000000000002,10.0,-15.5,2.6,-3.2,16
765,13020.0,0.1,0.2,0.5,1.7000000000000002,-1.2000000000000002,10.0,-10.0,6.8,1.7,16
766,13037.0,0.1,0.4,0.4,1.6,-1.0,9.9,-6.1000000000000005,9.0,2.9,16
767,13054.0,0.0,0.5,0.30000000000000004,1.5,-0.9,9.9,-2.8,8.100000000000001,2.5,16
768,13079.0,-0.30000000000000004,0.7000000000000001,0.1,1.2000000000000002,-0.7000000000000001,9.700000000000001,-1.4,6.4,2.7,16
769,13090.0,-0.4,0.7000000000000001,0.1,1.1,-0.7000000000000001,9.700000000000001,-1.1,4.9,4.4,16
770,13104.0,-0.4,0.4,0.1,1.0,-0.6000000000000001,9.700000000000001,-1.0,1.7,8.0,16
771,13123.0,-0.1,0.4,0.1,1.3,-0.5,9.8,0.8,-1.7,16.6,16
772,13138.0,0.2,0.5,0.1,1.6,-0.4,9.8,2.9,-1.1,20.400000000000002,16
773,13157.0,0.5,0.6000000000000001,0.2,1.9000000000000001,-0.30000000000000004,9.9,4.7,0.2,20.900000000000002,16
774,13170.0,0.7000000000000001,0.6000000000000001,0.1,2.1,-0.2,9.8,6.2,2.7,18.5,16
775,13192.0,0.6000000000000001,0.5,0.1,2.1,-0.2,9.700000000000001,7.300000000000001,7.699999999999999,15.8,16
776,13204.0,0.4,0.30000000000000004,0.1,2.1,-0.2,9.700000000000001,7.1000000000000005,10.8,12.200000000000001,16
777,13220.0,0.30000000000000004,0.0,0.1,2.0,-0.4,9.700000000000001,5.2,8.899999999999999,8.3,16
778,13237.0,0.30000000000000004,-0.2,0.2,2.0,-0.6000000000000001,9.9,1.9,2.2,3.3000000000000007,16
779,13254.0,0.30000000000000004,-0.6000000000000001,0.5,2.0,-1.0,10.100000000000001,0.0,-3.9,0.0,16
780,13274.0,0.4,-1.1,0.8,2.2,-1.5,10.4,1.3,-13.100000000000001,-1.8000000000000003,16
781,13288.0,0.5,-1.3,0.9,2.2,-1.7000000000000002,10.5,3.1,-14.600000000000001,-1.7,16
782,13310.0,0.5,-1.6,0.9,2.3000000000000003,-2.0,10.5,8.3,-11.000000000000002,-0.30000000000000004,16
783,13322.0,0.30000000000000004,-1.6,0.6000000000000001,2.2,-2.0,10.200000000000001,12.8,2.0,2.6,16
784,13337.0,0.0,-1.5,0.2,1.9000000000000001,-1.8,9.8,16.900000000000002,17.300000000000004,7.8,16
785,13357.0,-0.30000000000000004,-1.4000000000000001,-0.4,1.5,-1.7000000000000002,9.3,19.0,26.799999999999997,12.9,16
786,13372.0,-0.4,-1.2000000000000002,-0.7000000000000001,1.3,-1.5,9.0,19.0,26.799999999999997,16.8,16
787,13387.0,-0.5,-1.0,-1.0,1.2000000000000002,-1.3,8.700000000000001,17.5,15.399999999999999,17.5,16
788,13410.0,-0.2,-0.9,-1.2000000000000002,1.4000000000000001,-1.1,8.5,10.5,-11.1,12.4,16
789,13420.0,-0.1,-0.9,-1.2000000000000002,1.6,-1.1,8.5,7.200000000000001,-18.8,9.4,16
790,13441.0,0.1,-1.0,-0.7000000000000001,1.8,-1.2000000000000002,9.0,-7.0,-35.3,-2.4000000000000004,16
791,13455.0,0.0,-1.0,-0.5,1.8,-1.2000000000000002,9.200000000000001,-10.9,-38.2,-5.6,16
792,13472.0,0.0,-1.2000000000000002,0.4,1.9000000000000001,-1.5,10.0,-20.8,-37.50000000000001,-10.5,16
793,13489.0,-0.2,-1.3,0.8,1.9000000000000001,-1.7000000000000002,10.4,-24.599999999999998,-27.0,-10.5,16
794,13504.0,-0.4,-1.4000000000000001,1.1,1.7000000000000002,-1.8,10.600000000000001,-25.300000000000004,-12.600000000000001,-8.5,16
795,13520.0,-0.7000000000000001,-1.4000000000000001,1.3,1.4000000000000001,-1.9000000000000001,10.8,-22.5,4.9,-4.7,16
796,13537.0,-1.0,-1.3,1.2000000000000002,1.1,-1.9000000000000001,10.8,-16.3,13.3,-0.5,16
797,13554.0,-1.1,-1.2000000000000002,1.0,1.0,-1.8,10.600000000000001,-7.300000000000001,16.1,3.4,16
798,13571.0,-1.0,-0.9,0.7000000000000001,1.0,-1.6,10.200000000000001,0.2,12.600000000000001,3.2,16
799,13593.0,-0.8,-0.7000000000000001,0.30000000000000004,1.1,-1.3,9.8,4.4,2.2,-1.6,16
800,13603.0,-0.9,-0.6000000000000001,0.1,1.1,-1.2000000000000002,9.700000000000001,4.1,-1.8000000000000003,-4.7,16
801,13622.0,-0.8,-0.5,-0.2,1.2000000000000002,-1.1,9.4,-1.4,-1.1,-8.8,16
802,13637.0,-1.0,-0.4,-0.2,1.0,-1.0,9.4,-4.4,0.6000000000000001,-8.700000000000001,16
803,13659.0,-1.1,-0.4,-0.1,0.9,-1.1,9.5,-10.5,3.6000000000000005,-4.2,16
804,13670.0,-0.6000000000000001,-0.2,0.1,1.0,-1.1,9.700000000000001,-12.600000000000001,0.9000000000000001,-1.3,16
805,13700.0,-0.30000000000000004,-0.1,0.30000000000000004,1.3,-1.1,9.9,-14.0,-6.0,0.6000000000000001,16
806,13706.0,0.0,0.0,0.4,1.4000000000000001,-1.1,10.100000000000001,-14.5,-6.2,0.30000000000000004,16
807,13720.0,0.2,0.0,0.6000000000000001,1.6,-1.1,10.3,-14.400000000000002,-6.699999999999999,-1.2000000000000002,16
808,13737.0,0.2,0.1,0.8,1.6,-1.1,10.4,-12.7,-3.9,-2.0,16
809,13754.0,0.2,0.1,0.8,1.6,-1.1,10.5,-8.8,0.5,-1.9,16
810,13770.0,0.2,0.1,0.7000000000000001,1.5,-1.0,10.4,-4.5,4.1,-1.1,16
811,13793.0,0.2,0.2,0.5,1.5,-0.9,10.100000000000001,2.0,5.6,-0.2,16
812,13805.0,0.2,0.4,0.1,1.5,-0.8,9.8,2.9,7.0,-1.2000000000000002,16
813,13820.0,0.2,0.4,0.0,1.5,-0.7000000000000001,9.700000000000001,1.9,8.700000000000001,-2.4000000000000004,16
814,13837.0,-0.1,0.30000000000000004,-0.1,1.3,-0.7000000000000001,9.5,-0.2,7.400000000000001,-3.7000000000000006,16
815,13854.0,-0.2,0.30000000000000004,-0.1,1.1,-0.7000000000000001,9.5,-2.2,5.500000000000001,-4.4,16
816,13871.0,-0.2,0.1,0.0,1.1,-0.8,9.600000000000001,-3.6000000000000005,-1.2000000000000002,-5.2,16
817,13889.0,-0.2,0.0,0.1,1.1,-0.9,9.8,-4.4,-10.0,-6.0,16
818,13907.0,0.0,-0.1,0.5,1.4000000000000001,-1.0,10.200000000000001,-3.5,-20.5,-7.200000000000001,16
819,13922.0,0.0,-0.1,0.5,1.4000000000000001,-1.0,10.200000000000001,-3.5,-20.5,-7.200000000000001,16
820,13951.0,0.5,-0.1,0.5,2.0,-1.0,10.100000000000001,1.4,-8.899999999999999,-6.0,16
821,13954.0,0.5,-0.1,0.5,2.0,-1.0,10.100000000000001,1.4,-8.899999999999999,-6.0,16
822,13972.0,0.4,-0.1,0.0,1.9000000000000001,-1.0,9.600000000000001,1.2000000000000002,12.7,-7.0,16
823,13994.0,0.30000000000000004,-0.2,-0.2,1.7000000000000002,-1.1,9.5,-2.4000000000000004,18.200000000000003,-11.4,16
824,14004.0,0.0,-0.2,-0.4,1.4000000000000001,-1.1,9.200000000000001,-8.8,17.1,-16.5,16
825,14022.0,-0.30000000000000004,-0.30000000000000004,-0.5,1.1,-1.2000000000000002,9.200000000000001,-15.000000000000002,14.5,-17.5,16
826,14037.0,-0.5,-0.4,-0.30000000000000004,0.9,-1.4000000000000001,9.4,-21.7,9.8,-15.2,16
827,14054.0,-0.5,-0.5,0.1,0.8,-1.5,9.700000000000001,-24.900000000000002,5.7,-10.600000000000001,16
828,14077.0,-0.2,-0.7000000000000001,0.6000000000000001,1.1,-1.8,10.3,-23.900000000000006,-0.9000000000000001,-2.8,16
829,14092.0,0.0,-0.8,1.0,1.3,-1.9000000000000001,10.600000000000001,-18.3,-3.7000000000000006,0.6000000000000001,16
830,14109.0,0.30000000000000004,-0.7000000000000001,1.2000000000000002,1.6,-2.0,10.8,-10.200000000000001,-7.0,2.9,16
831,14122.0,0.7000000000000001,-0.7000000000000001,1.2000000000000002,2.1,-2.0,10.8,0.0,-9.700000000000001,3.2,16
832,14139.0,1.2000000000000002,-0.7000000000000001,1.1,2.6,-2.0,10.700000000000001,6.699999999999999,-11.2,0.4,16
833,14154.0,1.5,-0.7000000000000001,0.8,2.9000000000000004,-1.9000000000000001,10.5,10.4,-7.400000000000001,-4.6,16
834,14170.0,1.7000000000000002,-0.8,0.6000000000000001,3.1,-2.0,10.200000000000001,10.200000000000001,-2.4000000000000004,-9.0,16
835,14195.0,1.7000000000000002,-0.9,0.2,3.1,-2.1,9.8,8.100000000000001,9.5,-12.7,16
836,14203.0,1.7000000000000002,-1.0,0.0,3.1,-2.1,9.700000000000001,7.6,14.600000000000001,-12.299999999999999,16
837,14220.0,1.6,-1.1,-0.4,3.0,-2.2,9.3,7.699999999999999,22.2,-11.4,16
838,14241.0,1.7000000000000002,-1.1,-0.9,3.0,-2.2,8.700000000000001,9.2,28.500000000000004,-10.5,16
839,14254.0,1.6,-1.0,-1.1,2.9000000000000004,-2.1,8.5,9.3,27.9,-10.9,16
840,14270.0,1.7000000000000002,-1.0,-1.5,2.9000000000000004,-2.0,8.1,7.9,24.200000000000003,-13.3,16
841,14293.0,1.1,-0.6000000000000001,-1.7000000000000002,2.7,-1.9000000000000001,7.9,0.4,15.5,-18.1,16
842,14306.0,0.6000000000000001,-0.4,-1.6,2.6,-1.9000000000000001,7.9,-6.500000000000001,5.7,-20.8,16
843,14321.0,0.5,-0.4,-1.3,2.5,-2.0,8.200000000000001,-16.3,-5.1000000000000005,-22.5,16
844,14337.0,0.4,-0.4,-0.9,2.4000000000000004,-2.0,8.6,-24.599999999999998,-11.4,-21.500000000000004,16
845,14353.0,0.30000000000000004,-0.5,-0.4,2.3000000000000003,-2.1,9.1,-32.0,-12.5,-17.400000000000002,16
846,14370.0,0.2,-0.4,0.2,2.3000000000000003,-2.2,9.600000000000001,-34.7,-7.200000000000001,-11.8,16
847,14398.0,0.2,-0.30000000000000004,0.8,2.3000000000000003,-2.1,10.200000000000001,-29.200000000000003,4.1,-0.5,16
848,14408.0,0.2,-0.2,0.9,2.3000000000000003,-2.1,10.3,-23.900000000000006,8.2,3.6000000000000005,16
849,14420.0,0.2,0.2,0.9,2.2,-1.8,10.3,-14.200000000000001,13.3,8.3,16
850,14437.0,0.2,0.5,0.8,2.3000000000000003,-1.5,10.200000000000001,-2.9,13.200000000000003,10.600000000000001,16
851,14453.0,0.30000000000000004,0.8,0.5,2.3000000000000003,-1.2000000000000002,9.9,4.800000000000001,10.5,9.5,16
852,14471.0,0.4,1.1,0.30000000000000004,2.4000000000000004,-0.8,9.700000000000001,10.200000000000001,0.1,3.2,16
853,14504.0,0.4,1.2000000000000002,0.1,2.5,-0.7000000000000001,9.5,3.7000000000000006,-7.699999999999999,-7.300000000000001,16
854,14520.0,0.30000000000000004,1.1,0.30000000000000004,2.3000000000000003,-0.8,9.700000000000001,-1.3,-7.1000000000000005,-10.299999999999999,16
855,14540.0,0.1,1.0,0.4,2.1,-0.9,9.8,-4.1,-3.8,-10.299999999999999,16
856,14554.0,0.0,0.8,0.5,2.0,-1.1,9.9,-4.6,2.3,-8.3,16
857,14574.0,-0.2,0.4,0.4,1.9000000000000001,-1.3,9.9,-1.6,15.899999999999999,-4.800000000000001,16
858,14591.0,-0.30000000000000004,0.2,0.30000000000000004,1.7000000000000002,-1.4000000000000001,9.700000000000001,1.9,16.8,-3.7000000000000006,16
859,14609.0,-0.30000000000000004,0.1,0.30000000000000004,1.7000000000000002,-1.5,9.8,5.8,9.5,-4.7,16
860,14620.0,-0.30000000000000004,0.0,0.30000000000000004,1.7000000000000002,-1.6,9.700000000000001,6.699999999999999,3.7000000000000006,-6.1000000000000005,16
861,14638.0,-0.4,-0.2,0.2,1.6,-1.8,9.700000000000001,7.300000000000001,-4.5,-10.4,16
862,14654.0,-0.7000000000000001,-0.4,0.30000000000000004,1.3,-2.0,9.8,8.100000000000001,-5.9,-9.4,16
863,14671.0,-0.9,-0.5,0.30000000000000004,1.2000000000000002,-2.0,9.8,9.899999999999999,-2.9,-3.0,16
864,14695.0,-1.0,-0.5,0.4,1.0,-2.0,9.8,10.4,2.2,7.0,16
865,14704.0,-0.8,-0.30000000000000004,0.30000000000000004,1.0,-1.9000000000000001,9.8,10.200000000000001,4.7,9.4,16
866,14723.0,-1.0,-0.2,0.1,0.7000000000000001,-1.7000000000000002,9.700000000000001,9.700000000000001,13.000000000000002,14.800000000000002,16
867,14737.0,-1.4000000000000001,0.0,0.0,0.4,-1.5,9.5,11.000000000000002,17.7,19.700000000000003,16
868,14757.0,-1.6,0.2,-0.1,0.1,-1.3,9.4,14.200000000000001,16.6,25.1,16
869,14770.0,-1.6,0.30000000000000004,-0.1,0.0,-1.2000000000000002,9.5,17.5,7.200000000000001,28.1,16
870,14806.0,-0.7000000000000001,0.6000000000000001,0.0,0.9,-0.7000000000000001,9.600000000000001,20.2,-28.600000000000005,27.3,16
871,14820.0,-0.2,0.8,0.1,1.5,-0.6000000000000001,9.700000000000001,18.0,-30.4,24.7,16
872,14837.0,0.30000000000000004,0.7000000000000001,0.4,2.0,-0.6000000000000001,10.0,14.5,-29.200000000000003,20.2,16
873,14853.0,0.6000000000000001,0.7000000000000001,0.7000000000000001,2.3000000000000003,-0.6000000000000001,10.3,9.899999999999999,-26.1,14.300000000000002,16
874,14871.0,0.8,0.4,1.0,2.6,-0.8,10.5,2.9,-18.5,6.0,16
875,14892.0,0.5,0.0,1.4000000000000001,2.3000000000000003,-1.2000000000000002,10.9,-4.9,1.0,-4.800000000000001,16
876,14904.0,0.30000000000000004,-0.1,1.5,2.1,-1.3,11.100000000000001,-5.300000000000001,6.500000000000001,-6.500000000000001,16
877,14922.0,-0.2,-0.4,1.5,1.6,-1.6,11.100000000000001,-1.3,17.300000000000004,-5.9,16
878,14937.0,-0.5,-0.5,1.3,1.3,-1.7000000000000002,10.9,6.4,23.800000000000004,-1.7,16
879,14953.0,-0.6000000000000001,-0.5,0.9,1.1,-1.7000000000000002,10.5,17.0,26.799999999999997,3.0,16
880,14971.0,-0.6000000000000001,-0.30000000000000004,0.1,1.0,-1.4000000000000001,9.700000000000001,26.700000000000003,22.5,5.0,16
881,14987.0,-0.6000000000000001,-0.2,-0.1,1.0,-1.3,9.5,28.800000000000004,18.3,4.2,16
882,15008.0,-0.5,0.1,-0.8,1.0,-0.9,8.9,26.9,4.6,-1.0,16
883,15020.0,-0.5,0.2,-1.1,1.0,-0.7000000000000001,8.6,21.8,-0.5,-4.5,16
884,15040.0,-0.6000000000000001,0.4,-1.1,0.9,-0.5,8.5,14.0,-1.9,-6.0,16
885,15054.0,-0.6000000000000001,0.5,-1.3,0.9,-0.4,8.4,7.0,1.0,-5.300000000000001,16
886,15078.0,-0.7000000000000001,0.6000000000000001,-1.1,0.8,-0.2,8.5,-3.6000000000000005,9.899999999999999,-2.4000000000000004,16
887,15096.0,-0.8,0.7000000000000001,-0.9,0.6000000000000001,-0.1,8.8,-7.0,9.3,-0.8,16
888,15113.0,-0.9,0.8,-0.8,0.6000000000000001,0.0,8.9,-7.8,5.4,-0.6000000000000001,16
889,15120.0,-0.8,0.9,-0.7000000000000001,0.6000000000000001,0.0,9.0,-7.6,3.5,-1.0,16
890,15137.0,-0.8,0.9,-0.6000000000000001,0.6000000000000001,0.1,9.1,-7.0,-1.1,-2.9,16
891,15154.0,-0.8,1.0,-0.4,0.6000000000000001,0.1,9.3,-7.200000000000001,-4.7,-5.6,16
892,15172.0,-0.7000000000000001,0.8,0.0,0.7000000000000001,0.0,9.700000000000001,-8.100000000000001,-13.3,-8.600000000000001,16
893,15202.0,-0.30000000000000004,0.5,0.6000000000000001,1.1,-0.30000000000000004,10.3,-9.100000000000001,-27.3,-11.8,16
894,15204.0,-0.2,0.5,0.8,1.3,-0.30000000000000004,10.5,-8.5,-30.5,-11.900000000000002,16
895,15220.0,0.2,0.4,1.1,1.7000000000000002,-0.4,10.700000000000001,-4.9,-30.3,-9.4,16
896,15237.0,0.6000000000000001,0.30000000000000004,1.1,2.2,-0.6000000000000001,10.700000000000001,1.6,-18.200000000000003,-6.300000000000001,16
897,15253.0,0.9,0.30000000000000004,0.9,2.5,-0.5,10.5,8.2,-2.2,-5.500000000000001,16
898,15274.0,0.9,0.30000000000000004,0.0,2.5,-0.5,9.600000000000001,15.899999999999999,33.2,-8.100000000000001,16
899,15297.0,0.5,0.1,-0.9,2.0,-0.6000000000000001,8.8,12.299999999999999,48.300000000000004,-17.799999999999997,16
900,15308.0,0.5,0.1,-0.9,2.0,-0.6000000000000001,8.8,12.299999999999999,48.300000000000004,-17.799999999999997,16
901,15322.0,0.0,-0.4,-1.2000000000000002,1.3,-1.0,8.5,-7.0,42.2,-31.099999999999998,16
902,15337.0,-0.5,-0.8,-1.0,0.7000000000000001,-1.5,8.8,-24.400000000000002,29.600000000000005,-37.400000000000006,16
903,15354.0,-0.8,-1.5,-0.2,0.30000000000000004,-2.2,9.5,-44.00000000000001,10.299999999999999,-37.9,16
904,15371.0,-1.1,-2.1,0.9,0.0,-2.9000000000000004,10.600000000000001,-54.300000000000004,-8.600000000000001,-31.0,16
905,15391.0,-1.0,-2.4000000000000004,1.9000000000000001,0.2,-3.4000000000000004,11.600000000000001,-55.3,-26.1,-15.899999999999999,16
906,15403.0,-0.6000000000000001,-2.6,2.7,0.7000000000000001,-3.7,12.4,-46.0,-35.699999999999996,0.9000000000000001,16
907,15420.0,0.1,-2.4000000000000004,3.2,1.5,-3.6,12.8,-26.000000000000004,-40.4,20.400000000000002,16
908,15439.0,1.0,-2.0,3.2,2.5,-3.4000000000000004,12.8,-2.0,-33.800000000000004,34.7,16
909,15454.0,1.8,-1.4000000000000001,2.7,3.3000000000000003,-2.7,12.3,17.1,-21.200000000000003,39.699999999999996,16
910,15472.0,2.6,-0.6000000000000001,1.1,4.1000000000000005,-1.8,10.700000000000001,36.7,10.5,33.400000000000006,16
911,15492.0,2.6,-0.2,-0.1,4.1000000000000005,-1.3,9.5,37.50000000000001,25.8,23.2,16
912,15505.0,2.2,0.0,-1.1,3.6,-1.1,8.5,28.1,33.300000000000004,9.4,16
913,15522.0,1.9000000000000001,0.0,-1.4000000000000001,2.9000000000000004,-1.0,8.200000000000001,12.5,25.7,-2.9,16
914,15537.0,0.9,0.0,-1.6,2.1,-1.0,8.1,-1.3,9.2,-9.3,16
915,15555.0,0.4,0.0,-1.4000000000000001,1.7000000000000002,-1.0,8.200000000000001,-14.600000000000001,-7.200000000000001,-9.700000000000001,16
916,15570.0,0.0,0.0,-1.1,1.3,-1.1,8.6,-21.6,-14.600000000000001,-5.1000000000000005,16
917,15605.0,0.0,0.2,-0.30000000000000004,1.4000000000000001,-1.0,9.3,-20.0,-9.899999999999999,10.299999999999999,16
918,15621.0,0.1,0.4,-0.2,1.5,-0.8,9.4,-13.200000000000003,-4.800000000000001,13.8,16
919,15637.0,0.1,0.6000000000000001,-0.1,1.5,-0.7000000000000001,9.5,-6.9,-2.9,13.200000000000003,16
920,15654.0,0.1,0.7000000000000001,-0.2,1.5,-0.5,9.3,-1.2000000000000002,-6.0,9.2,16
921,15670.0,0.0,0.8,-0.4,1.5,-0.4,9.200000000000001,1.6,-12.600000000000001,2.6,16
922,15703.0,-0.1,0.8,-0.4,1.5,-0.5,9.200000000000001,-2.3,-12.4,1.3,16
923,15720.0,-0.1,0.5,-0.2,1.5,-0.5,9.4,-4.9,-9.100000000000001,4.0,16
924,15737.0,0.0,0.2,0.1,1.6,-0.6000000000000001,9.700000000000001,-7.6,-6.600000000000001,6.8,16
925,15755.0,0.1,0.1,0.4,1.7000000000000002,-0.7000000000000001,10.0,-9.600000000000001,-4.2,8.4,16
926,15770.0,0.2,-0.1,0.7000000000000001,1.8,-0.9,10.4,-10.0,-1.5,9.0,16
927,15796.0,0.2,-0.30000000000000004,1.1,1.9000000000000001,-1.1,10.8,-6.500000000000001,2.7,8.700000000000001,16
928,15804.0,0.2,-0.4,1.2000000000000002,1.8,-1.2000000000000002,10.8,-4.2,5.8,9.100000000000001,16
929,15820.0,0.0,-0.4,1.1,1.6,-1.2000000000000002,10.700000000000001,3.7000000000000006,17.6,12.600000000000001,16
930,15843.0,-0.2,-0.4,0.6000000000000001,1.3,-1.2000000000000002,10.200000000000001,17.9,33.800000000000004,21.500000000000004,16
931,15853.0,-0.5,-0.2,-0.1,0.9,-0.9,9.600000000000001,24.900000000000002,41.199999999999996,27.400000000000002,16
932,15872.0,-0.5,0.0,-0.6000000000000001,0.8,-0.7000000000000001,9.1,29.500000000000004,40.5,33.800000000000004,16
933,15893.0,0.1,0.0,-0.9,1.3,-0.6000000000000001,8.8,25.1,8.3,31.7,16
934,15905.0,0.4,0.0,-0.8,1.5,-0.6000000000000001,8.9,20.599999999999998,-4.7,27.2,16
935,15920.0,1.1,-0.30000000000000004,-0.30000000000000004,2.2,-0.9,9.4,8.5,-36.1,14.900000000000002,16
936,15937.0,1.3,-0.9,0.5,2.6,-1.4000000000000001,10.200000000000001,-8.700000000000001,-60.5,-3.2,16
937,15955.0,1.5,-1.7000000000000002,1.5,2.9000000000000004,-2.2,11.200000000000001,-20.1,-76.7,-17.5,16
938,15970.0,1.2000000000000002,-2.3000000000000003,2.3000000000000003,2.9000000000000004,-3.0,11.9,-21.500000000000004,-67.4,-22.700000000000003,16
939,16006.0,-0.30000000000000004,-2.7,2.3000000000000003,1.6,-3.4000000000000004,11.9,18.5,14.200000000000001,6.8,16
940,16020.0,-0.7000000000000001,-2.5,1.3,1.1,-3.1,10.9,43.1,42.0,27.800000000000004,16
941,16041.0,-0.8,-2.0,0.2,1.0,-2.5,9.8,59.40000000000001,50.1,40.1,16
942,16054.0,-0.8,-1.5,-0.8,0.8,-1.8,8.9,65.10000000000001,37.1,43.00000000000001,16
943,16079.0,-0.4,-0.9,-1.8,1.0,-1.0,7.9,54.1,-2.5,32.400000000000006,16
944,16095.0,-0.2,-0.7000000000000001,-2.0,1.3,-0.8,7.7,35.699999999999996,-24.7,17.5,16
945,16104.0,-0.2,-0.7000000000000001,-1.9000000000000001,1.3,-0.7000000000000001,7.800000000000001,21.1,-36.6,6.600000000000001,16
946,16125.0,-0.5,-1.0,-1.0,1.2000000000000002,-1.0,8.6,-10.9,-53.8,-10.700000000000001,16
947,16141.0,-0.7000000000000001,-1.2000000000000002,-0.7000000000000001,1.1,-1.2000000000000002,9.0,-22.9,-50.3,-11.6,16
948,16154.0,-0.9,-1.5,0.4,1.1,-1.6,10.0,-28.900000000000002,-35.2,-6.1000000000000005,16
949,16171.0,-1.0,-1.7000000000000002,1.2000000000000002,1.0,-1.9000000000000001,10.8,-27.5,-15.899999999999999,1.3,16
950,16199.0,-1.3,-1.7000000000000002,1.5,0.8,-2.0,11.100000000000001,-13.900000000000002,6.699999999999999,13.399999999999999,16
951,16207.0,-1.3,-1.6,1.5,0.7000000000000001,-1.9000000000000001,11.0,-8.5,12.5,16.3,16
952,16221.0,-1.3,-1.4000000000000001,1.1,0.7000000000000001,-1.8,10.700000000000001,4.2,20.900000000000002,21.0,16
953,16237.0,-1.3,-1.1,0.5,0.7000000000000001,-1.5,10.200000000000001,13.200000000000003,22.1,22.4,16
954,16254.0,-1.2000000000000002,-0.9,0.0,0.7000000000000001,-1.2000000000000002,9.600000000000001,19.6,16.3,21.400000000000002,16
955,16270.0,-1.1,-0.7000000000000001,-0.4,0.7000000000000001,-1.0,9.200000000000001,20.2,5.500000000000001,18.200000000000003,16
956,16293.0,-1.0,-0.5,-0.7000000000000001,0.8,-0.7000000000000001,8.9,12.5,-7.300000000000001,12.4,16
957,16304.0,-1.0,-0.4,-0.7000000000000001,0.8,-0.6000000000000001,8.9,6.9,-11.2,10.4,16
958,16321.0,-0.8,-0.5,-0.4,1.0,-0.7000000000000001,9.3,-6.9,-14.800000000000002,8.600000000000001,16
959,16337.0,-0.7000000000000001,-0.5,0.0,1.1,-0.8,9.600000000000001,-12.600000000000001,-14.400000000000002,10.4,16
960,16354.0,-0.5,-0.5,0.4,1.4000000000000001,-0.8,10.0,-15.5,-8.600000000000001,13.700000000000001,16
961,16371.0,-0.30000000000000004,-0.5,0.7000000000000001,1.6,-0.9,10.3,-14.400000000000002,-3.7000000000000006,15.8,16
962,16394.0,-0.1,-0.30000000000000004,0.9,1.8,-0.8,10.5,-7.300000000000001,5.4,16.0,16
963,16403.0,-0.1,-0.30000000000000004,0.8,1.8,-0.8,10.4,-4.300000000000001,7.699999999999999,15.299999999999999,16
964,16420.0,0.0,-0.2,0.7000000000000001,1.8,-0.7000000000000001,10.3,1.5,12.600000000000001,11.900000000000002,16
965,16437.0,0.0,-0.1,0.5,1.8,-0.6000000000000001,10.100000000000001,5.2,10.600000000000001,7.8,16
966,16456.0,0.0,-0.1,0.2,1.8,-0.6000000000000001,9.8,7.0,3.9,0.9000000000000001,16
967,16470.0,0.0,-0.1,0.1,1.7000000000000002,-0.6000000000000001,9.700000000000001,6.1000000000000005,1.2000000000000002,-1.3,16
968,16488.0,0.0,-0.2,0.1,1.7000000000000002,-0.7000000000000001,9.8,2.7,-3.9,-4.9,16
969,16505.0,0.0,-0.4,0.2,1.8,-0.8,9.9,-0.6000000000000001,-9.3,-6.600000000000001,16
970,16520.0,0.0,-0.4,0.4,1.8,-0.9,10.100000000000001,-1.1,-7.200000000000001,-4.4,16
971,16537.0,0.2,-0.5,0.4,2.0,-0.9,10.0,2.0,-1.5,-1.1,16
972,16555.0,0.4,-0.30000000000000004,0.30000000000000004,2.2,-0.9,9.9,6.4,4.0,0.30000000000000004,16
973,16571.0,0.30000000000000004,-0.1,0.0,2.1,-0.7000000000000001,9.600000000000001,9.899999999999999,7.6,-1.0,16
974,16595.0,0.2,0.1,-0.5,2.0,-0.5,9.200000000000001,11.4,12.9,-5.8,16
975,16611.0,0.1,0.1,-0.6000000000000001,1.8,-0.4,9.0,9.4,11.8,-10.0,16
976,16621.0,0.1,0.1,-0.7000000000000001,1.8,-0.5,8.9,7.300000000000001,9.5,-12.600000000000001,16
977,16637.0,0.0,0.1,-1.0,1.8,-0.4,8.700000000000001,3.4,7.300000000000001,-15.8,16
978,16654.0,-0.2,0.2,-1.0,1.6,-0.4,8.6,-1.7,12.100000000000001,-16.3,16
979,16671.0,-0.2,0.1,-0.9,1.6,-0.5,8.8,-11.2,15.8,-16.0,16
980,16700.0,0.0,-0.30000000000000004,-0.30000000000000004,1.7000000000000002,-0.9,9.3,-24.5,9.4,-20.8,16
981,16714.0,0.1,-0.5,-0.1,1.7000000000000002,-1.1,9.600000000000001,-28.200000000000003,5.7,-22.9,16
982,16722.0,0.1,-0.8,0.5,1.8,-1.5,10.200000000000001,-32.9,0.2,-25.8,16
983,16739.0,0.1,-1.2000000000000002,1.2000000000000002,1.8,-1.9000000000000001,10.8,-32.1,-5.8,-24.8,16
984,16753.0,0.2,-1.4000000000000001,1.6,1.9000000000000001,-2.2,11.200000000000001,-26.1,-7.699999999999999,-20.400000000000002,16
985,16772.0,0.30000000000000004,-1.4000000000000001,1.8,2.1,-2.3000000000000003,11.4,-15.5,-4.7,-13.000000000000002,16
986,16787.0,0.6000000000000001,-1.4000000000000001,1.8,2.4000000000000004,-2.3000000000000003,11.4,-5.4,-0.5,-6.600000000000001,16
987,16807.0,1.1,-1.3,1.5,2.8000000000000003,-2.2,11.100000000000001,4.6,5.8,-2.2,16
988,16821.0,1.4000000000000001,-1.1,0.7000000000000001,3.1,-2.0,10.3,10.5,15.100000000000001,-2.4000000000000004,16
989,16838.0,1.4000000000000001,-1.0,0.2,3.0,-1.8,9.8,9.700000000000001,18.200000000000003,-4.0,16
990,16853.0,1.2000000000000002,-0.8,-0.4,2.8000000000000003,-1.7000000000000002,9.200000000000001,7.300000000000001,22.4,-3.1,16
991,16872.0,1.1,-0.8,-0.8,2.7,-1.6,8.8,4.4,21.900000000000002,0.2,16
992,16887.0,1.1,-0.7000000000000001,-1.1,2.6,-1.5,8.5,1.8000000000000003,16.5,3.3000000000000007,16
993,16905.0,0.4,0.0,-1.1,2.5,-1.4000000000000001,8.4,-1.0,8.3,5.500000000000001,16
994,16921.0,0.1,0.30000000000000004,-1.0,2.5,-1.2000000000000002,8.4,-2.5,-0.2,7.0,16
995,16937.0,0.1,0.6000000000000001,-1.0,2.6,-0.9,8.4,-3.8,-6.300000000000001,7.699999999999999,16
996,16953.0,0.2,0.8,-1.0,2.6,-0.7000000000000001,8.4,-5.8,-5.6,7.200000000000001,16
997,16971.0,0.0,1.0,-0.8,2.5,-0.5,8.5,-9.3,-0.6000000000000001,4.7,16
998,16988.0,-0.2,1.1,-0.7000000000000001,2.3000000000000003,-0.4,8.700000000000001,-12.5,3.3000000000000007,2.3,16
999,17004.0,-0.7000000000000001,1.1,-0.6000000000000001,1.7000000000000002,-0.4,8.8,-17.0,10.299999999999999,-0.4,16
1000,17021.0,-1.1,1.0,-0.4,1.3,-0.5,9.0,-19.1,9.3,-1.2000000000000002,16
1001,17041.0,-1.3,1.0,-0.2,1.1,-0.5,9.200000000000001,-19.9,8.3,-0.6000000000000001,16
1002,17054.0,-1.4000000000000001,0.7000000000000001,0.1,0.8,-0.6000000000000001,9.5,-19.5,6.0,1.6,16
1003,17077.0,-1.2000000000000002,0.2,0.4,0.6000000000000001,-0.9,10.0,-15.5,4.6,6.9,16
1004,17103.0,-0.7000000000000001,-0.2,0.9,0.6000000000000001,-1.1,10.600000000000001,-5.8,0.1,15.000000000000002,16
1005,17121.0,-0.1,-0.30000000000000004,1.1,1.1,-1.2000000000000002,10.8,2.2,-4.300000000000001,20.0,16
1006,17141.0,0.4,-0.2,1.0,1.7000000000000002,-1.1,10.700000000000001,14.700000000000001,-0.9000000000000001,24.3,16
1007,17154.0,1.0,-0.30000000000000004,0.9,2.3000000000000003,-1.2000000000000002,10.600000000000001,20.7,-4.800000000000001,22.8,16
1008,17174.0,1.6,-0.5,0.9,2.8000000000000003,-1.3,10.5,20.2,-17.200000000000003,15.5,16
1009,17187.0,1.7000000000000002,-0.6000000000000001,0.7000000000000001,3.0,-1.3,10.4,17.200000000000003,-22.9,10.0,16
1010,17203.0,1.6,-0.8,0.7000000000000001,3.0,-1.5,10.4,5.6,-25.200000000000003,-2.8,16
1011,17224.0,1.0,-1.4000000000000001,1.0,2.4000000000000004,-2.2,10.600000000000001,-9.600000000000001,-11.4,-9.700000000000001,16
1012,17237.0,0.4,-1.8,1.2000000000000002,1.8,-2.5,10.8,-13.000000000000002,2.2,-5.300000000000001,16
1013,17258.0,-0.5,-2.0,1.1,0.9,-2.8000000000000003,10.8,-5.8,20.0,12.100000000000001,16
1014,17270.0,-0.6000000000000001,-2.0,1.0,0.7000000000000001,-2.8000000000000003,10.700000000000001,-0.6000000000000001,23.800000000000004,18.900000000000002,16
1015,17295.0,-0.6000000000000001,-1.5,0.2,0.6000000000000001,-2.3000000000000003,9.9,21.400000000000002,27.0,37.300000000000004,16
1016,17303.0,-0.5,-1.3,-0.1,0.7000000000000001,-2.1,9.600000000000001,29.400000000000002,23.099999999999998,41.1,16
1017,17325.0,-0.30000000000000004,-1.0,-0.6000000000000001,0.8,-1.7000000000000002,9.1,37.6,12.200000000000001,41.199999999999996,16
1018,17338.0,0.1,-0.7000000000000001,-1.2000000000000002,1.2000000000000002,-1.3,8.6,37.800000000000004,-16.6,27.6,16
1019,17354.0,0.30000000000000004,-0.7000000000000001,-1.4000000000000001,1.5,-1.2000000000000002,8.3,30.200000000000003,-29.600000000000005,14.5,16
1020,17374.0,0.2,-0.8,-1.3,1.5,-1.3,8.4,17.7,-36.6,1.2000000000000002,16
1021,17387.0,0.0,-1.1,-1.0,1.4000000000000001,-1.5,8.700000000000001,6.1000000000000005,-39.0,-5.500000000000001,16
1022,17404.0,-0.2,-1.3,-0.6000000000000001,1.2000000000000002,-1.7000000000000002,9.1,-2.1,-31.0,-6.300000000000001,16
1023,17421.0,-0.4,-1.5,-0.30000000000000004,1.2000000000000002,-2.0,9.4,-8.5,-16.900000000000002,-3.5,16
1024,17437.0,-0.5,-1.7000000000000002,0.0,1.0,-2.2,9.700000000000001,-10.700000000000001,-4.0,0.7,16
1025,17453.0,-0.6000000000000001,-1.9000000000000001,0.30000000000000004,1.0,-2.4000000000000004,10.0,-10.0,3.2,5.300000000000001,16
1026,17470.0,-0.7000000000000001,-1.8,0.4,0.9,-2.4000000000000004,10.0,-8.2,3.3000000000000007,7.8,16
1027,17487.0,-0.6000000000000001,-1.7000000000000002,0.4,0.9,-2.4000000000000004,10.100000000000001,-6.1000000000000005,-0.2,8.3,16
1028,17504.0,-0.6000000000000001,-1.5,0.4,0.9,-2.2,10.100000000000001,-4.1,-7.400000000000001,6.9,16
1029,17520.0,-0.6000000000000001,-1.4000000000000001,0.4,0.9,-2.1,10.0,-3.6000000000000005,-7.0,7.1000000000000005,16
1030,17545.0,-0.2,0.0,0.1,0.9,-1.7000000000000002,9.700000000000001,-3.1,6.500000000000001,12.200000000000001,16
1031,17555.0,-0.2,0.1,0.0,0.9,-1.6,9.600000000000001,-2.7,10.0,14.200000000000001,16
1032,17570.0,-0.2,0.4,-0.1,0.8,-1.4000000000000001,9.5,-2.5,11.700000000000001,17.7,16
1033,17587.0,0.0,0.6000000000000001,-0.1,0.9,-1.2000000000000002,9.5,-3.4,5.0,18.1,16
1034,17603.0,0.1,0.8,-0.1,1.1,-1.0,9.5,-7.200000000000001,-4.4,15.299999999999999,16
1035,17621.0,0.2,0.8,0.0,1.2000000000000002,-1.0,9.600000000000001,-11.6,-8.899999999999999,11.700000000000001,16
1036,17637.0,0.30000000000000004,0.9,0.4,1.3,-1.0,9.9,-14.800000000000002,-11.2,9.3,16
1037,17654.0,0.4,0.8,0.5,1.4000000000000001,-1.1,10.100000000000001,-14.600000000000001,-9.4,9.8,16
1038,17671.0,0.5,0.8,0.8,1.5,-1.2000000000000002,10.4,-10.4,-2.9,12.4,16
1039,17687.0,0.4,0.4,0.8,1.5,-1.2000000000000002,10.5,-5.1000000000000005,1.1,14.0,16
1040,17703.0,0.4,0.4,0.7000000000000001,1.6,-1.1,10.3,0.8,2.1,14.700000000000001,16
1041,17722.0,0.4,0.4,0.5,1.6,-0.9,10.100000000000001,5.300000000000001,2.1,15.100000000000001,16
1042,17737.0,0.5,0.6000000000000001,0.30000000000000004,1.7000000000000002,-0.8,9.9,8.5,0.7,14.400000000000002,16
1043,17755.0,0.6000000000000001,0.7000000000000001,0.1,1.8,-0.6000000000000001,9.700000000000001,9.0,-1.4,12.299999999999999,16
1044,17771.0,0.6000000000000001,0.8,0.0,1.8,-0.5,9.600000000000001,7.1000000000000005,-3.1,8.4,16
1045,17787.0,0.4,0.6000000000000001,-0.1,1.8,-0.4,9.600000000000001,4.0,-3.7000000000000006,4.6,16
1046,17810.0,0.1,0.30000000000000004,0.0,1.7000000000000002,-0.5,9.600000000000001,-1.7,-1.2000000000000002,-1.6,16
1047,17821.0,-0.1,0.4,0.1,1.5,-0.4,9.700000000000001,-2.8,0.0,-2.6,16
1048,17837.0,-0.2,0.2,0.30000000000000004,1.4000000000000001,-0.7000000000000001,9.9,-4.800000000000001,2.3,-4.800000000000001,16
1049,17853.0,-0.30000000000000004,0.0,0.2,1.3,-0.7000000000000001,9.9,-5.2,5.500000000000001,-5.0,16
1050,17870.0,-0.30000000000000004,-0.1,0.4,1.2000000000000002,-0.8,10.0,-5.300000000000001,5.1000000000000005,-5.300000000000001,16
1051,17887.0,-0.4,-0.1,0.4,1.0,-0.8,10.0,-4.6,4.0,-5.9,16
1052,17903.0,-0.5,-0.1,0.30000000000000004,0.9,-0.8,10.0,-3.0,3.7000000000000006,-5.1000000000000005,16
1053,17920.0,-0.5,-0.1,0.2,0.8,-0.8,9.9,-1.1,5.1000000000000005,-3.9,16
1054,17938.0,-0.4,0.0,0.1,0.8,-0.7000000000000001,9.8,1.0,4.2,-2.2,16
1055,17954.0,-0.30000000000000004,0.0,0.0,0.9,-0.7000000000000001,9.8,1.3,1.9,-1.9,16
1056,17971.0,-0.30000000000000004,0.1,0.0,0.9,-0.7000000000000001,9.700000000000001,-0.6000000000000001,-2.9,-3.5,16
1057,17987.0,-0.2,0.0,0.2,1.0,-0.7000000000000001,9.9,-3.4,-7.8,-5.300000000000001,16
1058,18004.0,-0.2,-0.1,0.4,1.0,-0.9,10.100000000000001,-6.4,-13.5,-6.4,16
1059,18020.0,-0.1,-0.2,0.5,1.1,-1.0,10.200000000000001,-6.1000000000000005,-13.000000000000002,-5.8,16
1060,18037.0,0.0,-0.4,0.6000000000000001,1.2000000000000002,-1.1,10.3,-2.7,-8.700000000000001,-3.2,16
1061,18057.0,0.5,-0.5,0.30000000000000004,1.7000000000000002,-1.3,10.0,7.300000000000001,-1.6,0.30000000000000004,16
1062,18075.0,0.7000000000000001,-0.4,0.0,2.0,-1.3,9.700000000000001,11.700000000000001,2.6,0.30000000000000004,16
1063,18088.0,0.8,-0.2,-0.5,2.1,-1.0,9.200000000000001,12.299999999999999,6.4,-2.4000000000000004,16
1064,18104.0,0.8,-0.2,-0.8,2.1,-1.0,8.9,7.200000000000001,8.5,-7.0,16
1065,18121.0,0.7000000000000001,-0.30000000000000004,-0.7000000000000001,2.0,-1.1,9.0,-4.4,7.699999999999999,-15.299999999999999,16
1066,18137.0,0.4,-0.5,-0.6000000000000001,1.7000000000000002,-1.3,9.1,-17.400000000000002,7.200000000000001,-21.200000000000003,16
1067,18153.0,0.2,-0.9,0.0,1.4000000000000001,-1.8,9.700000000000001,-26.1,8.5,-22.2,16
1068,18171.0,0.0,-1.4000000000000001,0.9,1.2000000000000002,-2.4000000000000004,10.5,-25.7,9.8,-13.3,16
1069,18187.0,0.1,-1.5,1.1,1.3,-2.6,10.8,-21.500000000000004,10.4,-8.8,16
1070,18206.0,0.5,-1.5,1.1,1.6,-2.6,10.8,0.5,14.0,5.6,16
1071,18220.0,1.1,-1.4000000000000001,0.8,2.2,-2.5,10.5,15.5,11.3,10.1,16
1072,18245.0,2.0,-1.2000000000000002,0.0,3.1,-2.2,9.700000000000001,22.4,4.7,4.0,16
1073,18253.0,2.2,-1.2000000000000002,-0.30000000000000004,3.3000000000000003,-2.1,9.4,20.0,2.0,-1.8000000000000003,16
1074,18275.0,2.2,-1.3,-0.5,3.3000000000000003,-2.2,9.200000000000001,5.0,-4.2,-14.900000000000002,16
1075,18287.0,2.1,-1.3,-0.5,3.2,-2.3000000000000003,9.200000000000001,-0.30000000000000004,-5.0,-16.900000000000002,16
1076,18304.0,1.7000000000000002,-1.4000000000000001,-0.5,2.9000000000000004,-2.4000000000000004,9.200000000000001,-9.600000000000001,-0.30000000000000004,-16.1,16
1077,18324.0,1.3,-1.4000000000000001,0.0,2.4000000000000004,-2.4000000000000004,9.600000000000001,-16.1,14.300000000000002,-4.4,16
1078,18337.0,1.1,-1.3,0.0,2.2,-2.3000000000000003,9.700000000000001,-15.2,19.200000000000003,0.5,16
1079,18355.0,1.1,-0.9,0.0,2.1,-2.0,9.700000000000001,-6.4,26.200000000000003,13.6,16
1080,18370.0,1.2000000000000002,-0.5,-0.2,2.2,-1.7000000000000002,9.5,2.1,23.0,16.4,16
1081,18387.0,1.3,-0.1,-0.6000000000000001,2.2,-1.2000000000000002,9.1,8.3,16.6,15.000000000000002,16
1082,18404.0,1.2000000000000002,0.2,-0.8,2.2,-0.9,8.9,11.6,8.700000000000001,9.600000000000001,16
1083,18420.0,1.0,0.4,-0.9,2.0,-0.7000000000000001,8.8,9.8,-0.30000000000000004,2.0,16
1084,18437.0,0.7000000000000001,0.5,-0.9,1.7000000000000002,-0.6000000000000001,8.8,5.2,-8.3,-4.0,16
1085,18457.0,0.30000000000000004,0.4,-0.7000000000000001,1.3,-0.6000000000000001,9.0,-6.0,-12.5,-6.4,16
1086,18470.0,0.2,0.4,-0.5,1.2000000000000002,-0.6000000000000001,9.200000000000001,-9.600000000000001,-10.1,-5.0,16
1087,18486.0,-0.1,0.4,-0.2,1.0,-0.7000000000000001,9.5,-15.6,2.5,1.4,16
1088,18503.0,-0.30000000000000004,0.30000000000000004,0.30000000000000004,0.7000000000000001,-0.9,10.0,-16.6,13.100000000000001,8.8,16
1089,18520.0,-0.4,0.2,0.7000000000000001,0.6000000000000001,-1.0,10.4,-12.100000000000001,17.200000000000003,17.300000000000004,16
1090,18537.0,-0.30000000000000004,0.1,1.1,0.6000000000000001,-1.1,10.8,0.30000000000000004,10.5,23.0,16
1091,18553.0,-0.2,0.0,1.2000000000000002,0.7000000000000001,-1.2000000000000002,10.9,8.899999999999999,6.4,23.800000000000004,16
1092,18570.0,-0.1,0.1,0.9,0.8,-1.1,10.600000000000001,20.599999999999998,10.299999999999999,25.8,16
1093,18591.0,-0.1,0.1,0.6000000000000001,0.7000000000000001,-1.1,10.3,30.1,19.6,29.900000000000006,16
1094,18603.0,0.1,-0.2,0.5,0.8,-1.2000000000000002,10.3,38.50000000000001,18.200000000000003,32.400000000000006,16
1095,18620.0,0.5,-0.30000000000000004,0.6000000000000001,1.2000000000000002,-1.3,10.3,42.400000000000006,-0.8,31.099999999999998,16
1096,18637.0,0.9,-0.6000000000000001,0.6000000000000001,1.7000000000000002,-1.4000000000000001,10.3,38.50000000000001,-26.200000000000003,21.0,16
1097,18653.0,1.6,-0.9,1.2000000000000002,2.4000000000000004,-1.7000000000000002,11.0,27.5,-39.1,5.9,16
1098,18672.0,2.5,-1.3,1.3,3.5,-2.0,11.0,19.9,-41.199999999999996,-19.700000000000003,16
1099,18687.0,1.6,-1.3,1.7000000000000002,2.7,-1.9000000000000001,11.4,20.3,-29.300000000000004,-37.300000000000004,16
1100,18704.0,1.6,-1.6,1.3,2.7,-2.1,11.0,27.099999999999998,-11.6,-47.7,16
1101,18720.0,1.1,-1.5,1.0,2.3000000000000003,-1.9000000000000001,10.8,37.800000000000004,12.0,-53.2,16
1102,18739.0,0.7000000000000001,-1.4000000000000001,0.7000000000000001,1.9000000000000001,-1.7000000000000002,10.5,52.60000000000001,28.500000000000004,-52.2,16
1103,18754.0,0.5,-1.5,0.4,1.6,-1.6,10.100000000000001,65.2,33.2,-51.300000000000004,16
1104,18770.0,0.2,-1.3,0.2,1.2000000000000002,-1.2000000000000002,9.9,78.60000000000001,17.5,-51.6,16
1105,18787.0,-0.2,-1.3,0.2,0.8,-1.0,9.9,88.00000000000001,-6.300000000000001,-50.60000000000001,16
1106,18809.0,-0.9,-1.5,-1.4000000000000001,0.2,-0.9,8.3,95.60000000000002,-48.70000000000001,-39.599999999999994,16
1107,18820.0,-0.7000000000000001,-1.6,-1.5,0.4,-0.8,8.200000000000001,91.7,-47.3,-38.60000000000001,16
1108,18839.0,-0.8,-1.1,-1.7000000000000002,0.5,0.0,8.0,69.80000000000001,-48.9,-29.1,16
1109,18854.0,-0.30000000000000004,-1.1,-1.6,1.1,0.2,8.0,47.0,-31.6,-19.799999999999997,16
1110,18873.0,-0.6000000000000001,-1.0,-1.3,0.9,0.4,8.3,26.6,-26.6,-12.600000000000001,16
1111,18891.0,-0.2,-1.2000000000000002,-1.2000000000000002,1.3,0.30000000000000004,8.4,6.0,-23.099999999999998,1.1,16
1112,18903.0,-1.2000000000000002,-0.8,-1.2000000000000002,0.4,0.7000000000000001,8.4,-6.8,-41.199999999999996,16.5,16
1113,18924.0,0.2,-1.4000000000000001,-0.9,1.5,0.30000000000000004,9.200000000000001,-28.1,-21.7,25.300000000000004,16
1114,18939.0,-0.4,-1.0,-0.2,1.4000000000000001,0.4,9.3,-30.4,-21.500000000000004,28.0,16
1115,18955.0,0.0,-1.1,-0.1,1.8,0.2,9.4,-29.600000000000005,-14.800000000000002,29.300000000000004,16
1116,18976.0,-0.1,-1.0,0.4,1.8,0.2,9.9,-20.400000000000002,-14.100000000000001,25.7,16
1117,18988.0,-0.1,-0.9,0.4,1.8,0.2,9.9,-12.600000000000001,-19.5,21.500000000000004,16
1118,19009.0,0.0,-0.7000000000000001,0.6000000000000001,2.0,0.30000000000000004,10.100000000000001,-4.2,-29.500000000000004,14.5,16
1119,19020.0,0.0,-0.6000000000000001,0.6000000000000001,2.0,0.4,10.100000000000001,-1.2000000000000002,-35.1,11.000000000000002,16
1120,19037.0,0.1,-0.5,0.6000000000000001,2.3000000000000003,0.5,10.200000000000001,5.4,-47.5,-0.8,16
1121,19053.0,0.0,-0.4,0.6000000000000001,2.4000000000000004,0.6000000000000001,10.100000000000001,7.6,-47.400000000000006,-7.0,16
1122,19070.0,-0.1,-0.30000000000000004,0.5,2.3000000000000003,0.7000000000000001,10.0,9.2,-40.7,-9.0,16
1123,19100.0,-0.5,-0.1,0.2,2.0,0.9,9.600000000000001,9.8,-23.800000000000004,-5.1000000000000005,16
1124,19103.0,-0.5,-0.1,0.0,2.1,0.9,9.4,9.0,-19.0,-2.8,16
1125,19120.0,-0.8,0.1,0.1,1.8,1.2000000000000002,9.4,5.6,-12.600000000000001,3.4,16
1126,19140.0,-0.6000000000000001,0.4,0.2,2.0,1.4000000000000001,9.5,-0.2,-11.8,14.100000000000001,16
1127,19153.0,-0.5,0.4,0.30000000000000004,2.2,1.4000000000000001,9.700000000000001,-1.9,-12.8,16.3,16
1128,19171.0,-0.1,0.30000000000000004,0.6000000000000001,2.6,1.4000000000000001,10.0,-5.2,-13.8,17.1,16
1129,19188.0,0.4,0.30000000000000004,1.0,3.1,1.3,10.4,-5.0,-9.100000000000001,10.600000000000001,16
1130,19203.0,0.4,0.5,1.4000000000000001,3.1,1.5,10.8,0.30000000000000004,-4.0,6.1000000000000005,16
1131,19220.0,0.6000000000000001,0.4,1.2000000000000002,3.3000000000000003,1.4000000000000001,10.600000000000001,5.8,5.4,3.2,16
1132,19237.0,0.2,0.4,0.9,2.9000000000000004,1.5,10.3,11.2,14.800000000000002,2.0,16
1133,19253.0,0.0,0.4,0.6000000000000001,2.6,1.5,10.0,14.400000000000002,17.6,4.6,16
1134,19275.0,-0.1,0.4,0.30000000000000004,2.5,1.5,9.700000000000001,14.700000000000001,16.4,8.0,16
1135,19287.0,0.0,0.4,0.0,2.6,1.6,9.4,12.600000000000001,11.8,11.700000000000001,16
1136,19307.0,0.4,0.4,-0.30000000000000004,3.0,1.6,9.1,8.0,6.500000000000001,13.8,16
1137,19320.0,0.6000000000000001,0.30000000000000004,-0.4,3.2,1.5,9.0,5.7,5.500000000000001,13.000000000000002,16
1138,19340.0,0.6000000000000001,0.0,-0.6000000000000001,3.5,1.4000000000000001,8.700000000000001,-1.6,11.000000000000002,7.200000000000001,16
1139,19353.0,0.6000000000000001,0.0,-0.6000000000000001,3.4000000000000004,1.4000000000000001,8.6,-4.0,13.900000000000002,4.9,16
1140,19373.0,0.30000000000000004,-0.30000000000000004,-0.8,3.2,1.1,8.5,-13.100000000000001,28.0,-2.9,16
1141,19391.0,0.2,-0.4,-1.0,2.9000000000000004,1.0,8.3,-18.700000000000003,37.9,-7.400000000000001,16
1142,19403.0,-0.1,-0.4,-1.1,2.6,0.9,8.200000000000001,-24.200000000000003,48.6,-9.5,16
1143,19420.0,-0.30000000000000004,-0.6000000000000001,-1.0,2.2,0.6000000000000001,8.4,-28.3,54.9,-8.700000000000001,16
1144,19438.0,-0.9,-0.5,-0.1,1.5,0.7000000000000001,9.3,-28.600000000000005,49.9,-2.1,16
1145,19454.0,-0.4,-0.9,0.2,1.8,0.2,9.700000000000001,-25.7,39.50000000000001,4.7,16
1146,19471.0,-0.30000000000000004,-1.0,1.1,1.9000000000000001,0.0,10.600000000000001,-24.0,27.2,5.300000000000001,16
1147,19489.0,0.1,-1.2000000000000002,2.2,2.1,-0.30000000000000004,11.700000000000001,-14.800000000000002,4.1,9.5,16
1148,19503.0,0.30000000000000004,-1.3,2.5,2.3000000000000003,-0.4,12.100000000000001,-11.1,-1.5,9.700000000000001,16
1149,19521.0,1.0,-1.3,2.8000000000000003,3.1,-0.4,12.4,5.7,-10.8,9.5,16
1150,19537.0,1.4000000000000001,-1.3,2.4000000000000004,3.6,-0.4,12.0,17.0,-0.6000000000000001,7.500000000000001,16
1151,19553.0,1.6,-1.3,2.1,3.7,-0.30000000000000004,11.600000000000001,27.6,21.300000000000004,4.6,16
1152,19572.0,1.4000000000000001,-1.3,0.7000000000000001,3.5,-0.30000000000000004,10.200000000000001,33.1,42.0,2.6,16
1153,19587.0,0.8,-1.3,-0.2,2.7,-0.2,9.3,33.50000000000001,55.1,2.7,16
1154,19603.0,0.30000000000000004,-1.4000000000000001,-0.7000000000000001,2.1,-0.2,8.9,29.500000000000004,55.2,5.6,16
1155,19620.0,-0.1,-1.4000000000000001,-1.0,1.6,-0.2,8.6,22.8,46.0,10.4,16
1156,19637.0,-0.30000000000000004,-1.4000000000000001,-0.9,1.3,-0.1,8.700000000000001,12.200000000000001,32.2,17.200000000000003,16
1157,19654.0,-0.2,-1.4000000000000001,-0.8,1.3,-0.2,8.8,2.4000000000000004,19.300000000000004,23.6,16
1158,19670.0,-0.2,-1.3,-0.5,1.3,-0.1,9.1,-8.3,7.699999999999999,29.700000000000006,16
1159,19700.0,0.30000000000000004,-1.1,-0.2,1.8,0.1,9.4,-18.4,8.2,38.900000000000006,16
1160,19703.0,0.30000000000000004,-1.0,-0.2,1.8,0.1,9.5,-18.700000000000003,11.6,41.199999999999996,16
1161,19720.0,0.5,-0.7000000000000001,-0.30000000000000004,1.9000000000000001,0.30000000000000004,9.4,-17.6,20.599999999999998,47.60000000000001,16
1162,19740.0,0.5,-0.5,-0.4,1.9000000000000001,0.4,9.3,-15.6,29.800000000000004,53.10000000000001,16
1163,19753.0,0.4,-0.4,-0.5,1.7000000000000002,0.4,9.1,-13.399999999999999,36.7,58.2,16
1164,19774.0,0.30000000000000004,-0.30000000000000004,-0.6000000000000001,1.5,0.5,9.1,-11.6,40.9,61.8,16
1165,19787.0,0.2,-0.2,-0.7000000000000001,1.3,0.6000000000000001,9.0,-9.700000000000001,41.900000000000006,64.80000000000001,16
1166,19803.0,0.2,0.0,-0.9,1.3,0.7000000000000001,8.9,-7.9,42.2,66.9,16
1167,19823.0,0.1,0.1,-0.8,1.1,0.8,9.0,-5.1000000000000005,40.0,68.1,16
1168,19837.0,0.0,0.2,-0.7000000000000001,1.0,0.8,9.1,-3.6000000000000005,35.9,67.9,16
1169,19858.0,-0.1,0.30000000000000004,-0.30000000000000004,1.0,0.9,9.4,0.1,26.200000000000003,66.1,16
1170,19870.0,0.1,0.5,-0.1,1.2000000000000002,1.1,9.700000000000001,3.3000000000000007,20.0,63.2,16
1171,19895.0,0.5,0.5,0.4,1.5,1.1,10.100000000000001,7.9,12.4,54.6,16
1172,19903.0,0.7000000000000001,0.6000000000000001,0.5,1.6,1.2000000000000002,10.3,9.3,9.600000000000001,50.8,16
1173,19920.0,1.0,0.6000000000000001,0.7000000000000001,1.9000000000000001,1.3,10.5,12.4,4.0,40.0,16
1174,19936.0,1.2000000000000002,0.6000000000000001,0.7000000000000001,2.2,1.3,10.4,14.800000000000002,2.8,29.200000000000003,16
1175,19953.0,1.2000000000000002,0.6000000000000001,0.5,2.2,1.3,10.3,17.300000000000004,6.600000000000001,15.2,16
1176,19970.0,1.0,0.5,0.1,2.0,1.3,9.9,19.0,12.200000000000001,5.6,16
1177,20001.0,0.1,0.30000000000000004,-0.1,1.0,1.2000000000000002,9.700000000000001,20.2,15.000000000000002,-0.4,16
1178,20005.0,0.1,0.30000000000000004,-0.1,1.0,1.2000000000000002,9.700000000000001,20.2,15.000000000000002,-0.4,16
1179,20020.0,0.0,0.0,0.2,0.9,0.9,9.9,18.0,4.800000000000001,-2.2,16
1180,20039.0,0.0,-0.4,1.0,0.9,0.6000000000000001,10.700000000000001,11.6,-24.599999999999998,-9.0,16
1181,20053.0,0.2,-0.8,1.2000000000000002,1.2000000000000002,0.30000000000000004,10.9,7.1000000000000005,-35.5,-15.000000000000002,16
