,ms,accelX,accelY,accelZ,accelWithGX,accelWithGY,accelWithGZ,rotRateAlpha,rotRateBeta,rotRateGamma,interval
0,123.0,0.7000000000000001,-0.2,-0.6000000000000001,-6.2,2.0,6.0,-0.1,0.2,-1.5,16
1,132.0,0.1,-0.1,-0.1,-6.800000000000001,2.1,6.5,-0.1,0.2,-1.5,16
2,149.0,0.1,-0.1,0.1,-6.7,2.0,6.800000000000001,-0.1,0.2,-1.5,16
3,175.0,0.2,0.1,0.30000000000000004,-6.6000000000000005,2.2,7.1000000000000005,-0.1,0.2,-1.5,16
4,182.0,0.4,0.1,-0.1,-6.300000000000001,2.4000000000000004,6.7,-0.1,0.2,-1.5,16
5,199.0,0.5,0.2,-0.1,-6.1000000000000005,2.5,6.7,-0.1,0.2,-1.5,16
6,225.0,0.30000000000000004,0.1,0.1,-6.2,2.4000000000000004,7.2,-11.3,0.1,0.6000000000000001,16
7,232.0,0.30000000000000004,0.1,0.1,-6.2,2.4000000000000004,7.2,-11.3,0.1,0.6000000000000001,16
8,249.0,-0.2,0.2,0.8,-6.6000000000000005,2.6,7.9,-6.2,-0.30000000000000004,0.1,16
9,281.0,-0.30000000000000004,0.1,0.6000000000000001,-6.6000000000000005,2.5,7.800000000000001,-3.0,-7.6,2.0,16
10,287.0,-0.30000000000000004,0.1,0.6000000000000001,-6.6000000000000005,2.5,7.800000000000001,-1.2000000000000002,-9.899999999999999,2.4000000000000004,16
11,299.0,0.0,0.0,0.4,-6.300000000000001,2.4000000000000004,7.6000000000000005,-0.6000000000000001,-9.3,1.6,16
12,315.0,0.0,0.1,0.5,-6.1000000000000005,2.5,7.7,-2.7,3.7000000000000006,-1.3,16
13,332.0,0.1,0.0,0.4,-6.0,2.4000000000000004,7.7,-2.8,9.899999999999999,-3.6000000000000005,16
14,352.0,0.0,0.1,0.30000000000000004,-6.0,2.4000000000000004,7.7,-1.0,6.9,-5.9,16
15,366.0,-0.1,0.1,0.30000000000000004,-6.1000000000000005,2.4000000000000004,7.7,0.9000000000000001,4.5,-8.700000000000001,16
16,387.0,-0.30000000000000004,-0.1,0.2,-6.4,2.1,7.5,1.3,3.3000000000000007,-9.3,16
17,408.0,-0.30000000000000004,-0.2,0.2,-6.300000000000001,2.0,7.5,0.6000000000000001,2.8,-8.899999999999999,16
18,415.0,-0.4,-0.2,0.2,-6.300000000000001,2.0,7.5,0.6000000000000001,2.8,-8.899999999999999,16
19,433.0,-0.6000000000000001,-0.2,0.30000000000000004,-6.7,2.0,7.6000000000000005,0.0,3.2,-5.7,16
20,448.0,-0.8,-0.1,0.5,-6.9,2.0,7.800000000000001,-0.1,-0.1,-2.2,16
21,465.0,-0.5,-0.2,0.6000000000000001,-6.7,1.9000000000000001,7.9,1.7,-2.3,1.2000000000000002,16
22,482.0,-0.30000000000000004,-0.1,0.4,-6.5,2.0,7.7,2.7,-1.3,2.8,16
23,499.0,0.0,-0.1,0.30000000000000004,-6.2,2.0,7.6000000000000005,2.4000000000000004,0.2,3.0,16
24,516.0,0.2,-0.1,0.2,-6.0,2.0,7.5,2.2,2.1,1.0,16
25,532.0,0.30000000000000004,-0.1,0.0,-5.9,2.0,7.4,1.7,4.2,-2.7,16
26,548.0,0.2,-0.2,-0.1,-6.0,1.9000000000000001,7.2,0.6000000000000001,5.9,-4.9,16
27,566.0,0.1,-0.30000000000000004,-0.30000000000000004,-6.1000000000000005,1.8,7.0,-0.4,6.500000000000001,-5.9,16
28,582.0,-0.1,-0.30000000000000004,-0.5,-6.300000000000001,1.7000000000000002,6.800000000000001,-1.4,1.9,-5.8,16
29,598.0,-0.1,-0.4,-0.6000000000000001,-6.4,1.7000000000000002,6.7,-2.0,-1.8000000000000003,-5.300000000000001,16
30,615.0,-0.30000000000000004,-0.4,-0.30000000000000004,-6.5,1.6,7.0,0.1,-2.7,-4.800000000000001,16
31,632.0,-0.7000000000000001,-0.4,0.4,-7.0,1.6,7.7,4.7,14.5,-4.800000000000001,16
32,648.0,-0.9,-0.4,-0.7000000000000001,-7.2,1.6,6.6000000000000005,3.1,35.2,-0.4,16
33,665.0,-1.0,-0.30000000000000004,-1.4000000000000001,-7.4,1.6,5.800000000000001,-1.0,37.9,4.800000000000001,16
34,682.0,-0.6000000000000001,-0.2,-2.0,-7.0,1.8,5.1000000000000005,-7.1000000000000005,33.7,6.699999999999999,16
35,701.0,-0.5,0.1,-1.2000000000000002,-7.1000000000000005,2.1,5.800000000000001,4.300000000000001,35.5,1.3,16
36,716.0,-0.1,0.30000000000000004,-1.6,-7.1000000000000005,2.1,5.800000000000001,4.2,40.2,-1.5,16
37,732.0,-0.5,0.5,-1.8,-6.7,2.3000000000000003,5.4,2.0,54.50000000000001,-8.5,16
38,748.0,-0.5,0.6000000000000001,-1.9000000000000001,-7.4,2.5,4.800000000000001,-5.8,54.6,-13.700000000000001,16
39,765.0,-1.1,0.1,-2.0,-8.1,2.0,4.6000000000000005,-12.4,62.199999999999996,-16.8,16
40,782.0,-2.7,0.2,-1.9000000000000001,-9.8,2.0,4.6000000000000005,-21.200000000000003,72.10000000000001,-9.2,16
41,798.0,-3.5,0.30000000000000004,-1.1,-10.700000000000001,2.1,5.300000000000001,-25.300000000000004,60.900000000000006,5.1000000000000005,16
42,815.0,-2.8000000000000003,0.30000000000000004,-1.2000000000000002,-10.100000000000001,2.1,5.1000000000000005,-22.9,40.300000000000004,21.7,16
43,832.0,-2.0,0.30000000000000004,-1.8,-9.4,2.1,4.4,-25.7,30.3,29.400000000000002,16
44,848.0,-1.5,0.2,-1.6,-9.0,2.0,4.5,-35.5,21.0,36.5,16
45,865.0,-1.3,-0.1,-0.6000000000000001,-8.8,1.8,5.5,-41.300000000000004,19.0,40.7,16
46,882.0,-0.8,-0.2,-0.5,-8.200000000000001,1.7000000000000002,5.6000000000000005,-43.70000000000001,28.700000000000003,45.3,16
47,898.0,-0.30000000000000004,-0.2,-0.5,-7.800000000000001,1.6,5.5,-50.60000000000001,49.0,47.5,16
48,915.0,0.1,-0.1,-0.30000000000000004,-7.5,1.7000000000000002,5.6000000000000005,-52.60000000000001,50.60000000000001,47.7,16
49,932.0,0.2,0.2,0.1,-7.4,2.1,6.0,-50.1,30.3,45.8,16
50,948.0,-0.6000000000000001,0.30000000000000004,1.6,-8.3,2.2,7.5,-42.0,-0.9000000000000001,44.9,16
51,966.0,-1.2000000000000002,0.30000000000000004,2.9000000000000004,-8.8,2.2,8.700000000000001,-29.700000000000006,-12.9,46.800000000000004,16
52,982.0,-0.8,0.2,3.2,-8.4,2.2,9.0,-22.1,3.1,47.900000000000006,16
53,998.0,-0.6000000000000001,0.2,2.8000000000000003,-8.200000000000001,2.2,8.700000000000001,-18.4,24.7,50.1,16
54,1016.0,-0.1,0.2,2.3000000000000003,-7.7,2.3000000000000003,8.1,-17.200000000000003,34.2,50.2,16
55,1032.0,0.5,0.2,2.1,-7.1000000000000005,2.4000000000000004,7.9,-14.5,35.4,46.800000000000004,16
56,1048.0,1.3,0.30000000000000004,2.3000000000000003,-6.4,2.6,8.0,-7.0,43.2,39.400000000000006,16
57,1065.0,1.5,0.2,2.3000000000000003,-6.2,2.6,7.800000000000001,-2.8,56.2,19.0,16
58,1082.0,0.30000000000000004,0.0,2.7,-7.5,2.4000000000000004,8.1,5.500000000000001,57.800000000000004,7.500000000000001,16
59,1098.0,0.0,-0.30000000000000004,2.1,-7.9,2.2,7.4,10.5,66.4,5.1000000000000005,16
60,1116.0,-0.2,-0.5,1.1,-8.200000000000001,2.0,6.2,7.400000000000001,77.20000000000002,6.0,16
61,1133.0,-0.1,-0.5,0.7000000000000001,-8.200000000000001,2.0,5.6000000000000005,2.1,78.9,9.700000000000001,16
62,1148.0,0.2,-0.8,0.1,-8.0,1.7000000000000002,4.9,-5.9,80.8,11.000000000000002,16
63,1165.0,-3.3000000000000003,-0.8,-1.6,-11.600000000000001,1.7000000000000002,3.0,-12.8,102.60000000000001,10.5,16
64,1183.0,0.5,-1.1,1.8,-7.9,1.4000000000000001,6.2,-23.3,123.7,18.3,16
65,1198.0,-1.5,-1.4000000000000001,-2.1,-10.100000000000001,1.2000000000000002,2.0,-38.900000000000006,106.30000000000001,40.0,16
66,1215.0,-1.1,-1.0,-1.6,-9.8,1.6,2.3000000000000003,-53.8,88.00000000000001,43.4,16
67,1232.0,0.4,-1.4000000000000001,-0.2,-8.200000000000001,1.2000000000000002,3.5,-66.2,70.8,49.1,16
68,1248.0,0.2,-1.0,0.5,-8.5,1.7000000000000002,4.2,-53.7,63.599999999999994,42.800000000000004,16
69,1265.0,0.7000000000000001,-0.8,0.0,-8.1,2.0,3.5,-46.9,60.6,32.1,16
70,1281.0,0.4,-1.4000000000000001,-0.9,-8.4,1.4000000000000001,2.5,-54.699999999999996,71.5,21.0,16
71,1298.0,-1.8,-0.8,-1.1,-10.600000000000001,2.0,2.2,-61.50000000000001,84.80000000000001,29.400000000000002,16
72,1315.0,-1.5,-0.7000000000000001,0.7000000000000001,-10.3,2.2,3.8000000000000003,-54.300000000000004,96.1,39.599999999999994,16
73,1331.0,-0.5,-0.2,0.1,-9.4,2.7,3.0,-45.9,100.6,42.7,16
74,1349.0,0.2,0.4,-1.1,-8.700000000000001,3.4000000000000004,1.6,-48.6,89.8,39.300000000000004,16
75,1365.0,3.0,2.9000000000000004,-0.4,-6.0,5.9,2.1,-45.9,77.80000000000001,13.8,16
76,1382.0,0.7000000000000001,0.5,0.9,-8.3,3.5,3.3000000000000003,-31.7,80.7,-2.3,16
77,1398.0,-0.6000000000000001,0.9,-0.8,-9.700000000000001,3.9000000000000004,1.2000000000000002,-12.9,97.89999999999999,-1.6,16
78,1415.0,0.5,0.7000000000000001,-2.7,-8.6,3.6,-0.9,-34.800000000000004,103.8,3.6000000000000005,16
79,1431.0,1.2000000000000002,0.30000000000000004,-2.2,-8.1,3.2,-0.7000000000000001,-56.300000000000004,108.0,-4.6,16
80,1448.0,-0.30000000000000004,-0.30000000000000004,-2.1,-9.600000000000001,2.6,-0.8,-64.30000000000001,100.6,-7.9,16
81,1465.0,-0.4,-0.9,-1.1,-9.8,2.0,0.0,-73.0,83.70000000000002,0.8,16
82,1482.0,-1.7000000000000002,0.9,0.5,-11.100000000000001,3.8000000000000003,1.4000000000000001,-66.3,64.2,9.600000000000001,16
83,1498.0,-0.6000000000000001,-0.5,-0.5,-9.9,2.4000000000000004,0.4,-66.0,52.1,15.5,16
84,1515.0,-1.1,-0.2,-0.2,-10.4,2.7,0.6000000000000001,-66.5,61.39999999999999,18.900000000000002,16
85,1532.0,-1.4000000000000001,0.30000000000000004,1.1,-10.8,3.3000000000000003,1.8,-63.10000000000001,63.10000000000001,26.700000000000003,16
86,1549.0,-1.5,0.2,1.1,-10.9,3.2,1.6,-45.8,83.80000000000001,33.0,16
87,1565.0,-1.1,-0.4,0.8,-10.4,2.7,1.2000000000000002,-34.900000000000006,96.0,32.6,16
88,1581.0,-0.7000000000000001,-0.2,-1.3,-10.0,3.0,-1.1,-35.8,119.0,31.2,16
89,1598.0,0.30000000000000004,-0.4,-2.1,-9.0,2.8000000000000003,-2.2,-46.300000000000004,123.4,21.6,16
90,1615.0,-0.4,0.0,-1.2000000000000002,-9.600000000000001,3.3000000000000003,-1.6,-47.3,106.4,19.1,16
91,1631.0,0.7000000000000001,-1.0,-0.9,-8.5,2.4000000000000004,-1.6,-45.9,58.800000000000004,13.3,16
92,1648.0,-0.9,0.30000000000000004,-0.7000000000000001,-10.0,3.7,-1.4000000000000001,-48.50000000000001,40.5,21.6,16
93,1666.0,0.6000000000000001,-0.4,-0.4,-8.5,3.1,-1.3,-60.00000000000001,46.50000000000001,20.400000000000002,16
94,1681.0,-1.3,0.1,2.0,-10.4,3.6,1.1,-54.699999999999996,52.2,33.7,16
95,1699.0,0.0,0.7000000000000001,5.5,-9.0,4.4,4.3,-23.800000000000004,104.10000000000001,36.0,16
96,1715.0,2.3000000000000003,0.5,3.9000000000000004,-6.7,4.3,2.5,6.9,85.9,26.700000000000003,16
97,1731.0,2.7,-0.4,-0.2,-6.1000000000000005,3.5,-1.8,12.100000000000001,98.60000000000001,10.600000000000001,16
98,1749.0,1.4000000000000001,-0.6000000000000001,-1.7000000000000002,-7.5,3.3000000000000003,-3.5,-1.7,58.2,-4.5,16
99,1765.0,0.2,-1.3,-1.1,-8.6,2.5,-3.0,-11.000000000000002,65.3,-14.100000000000001,16
100,1782.0,2.6,-1.7000000000000002,-1.9000000000000001,-6.2,2.1,-4.0,-21.8,41.7,-21.8,16
101,1799.0,4.5,-2.5,1.7000000000000002,-4.3,1.3,-0.5,-23.800000000000004,64.0,-41.50000000000001,16
102,1815.0,-0.2,-0.9,-2.4000000000000004,-9.0,2.7,-4.7,2.8,30.5,-69.9,16
103,1832.0,-3.5,-1.3,-2.8000000000000003,-12.4,2.2,-5.2,-3.3000000000000007,36.5,-60.2,16
104,1848.0,-5.1000000000000005,0.8,-0.8,-14.0,4.2,-3.3000000000000003,-15.399999999999999,71.19999999999999,-38.2,16
105,1865.0,-3.7,0.7000000000000001,0.5,-12.5,4.0,-2.2,-19.6,71.9,-8.2,16
106,1882.0,-2.5,1.3,0.8,-11.3,4.6000000000000005,-2.0,-22.1,44.9,11.2,16
107,1899.0,-1.0,0.9,-0.1,-9.8,4.2,-3.0,-31.099999999999998,37.7,20.599999999999998,16
108,1916.0,-0.7000000000000001,1.4000000000000001,1.2000000000000002,-9.4,4.800000000000001,-1.8,-30.799999999999997,25.4,26.700000000000003,16
109,1932.0,-2.6,1.9000000000000001,-1.4000000000000001,-11.3,5.4,-4.3,-39.8,-1.7,31.6,16
110,1948.0,-0.9,1.4000000000000001,-1.6,-9.600000000000001,5.0,-4.5,-46.199999999999996,-32.300000000000004,34.1,16
111,1965.0,-1.7000000000000002,0.30000000000000004,-1.3,-10.3,4.1000000000000005,-4.2,-49.9,-18.4,42.400000000000006,16
112,1982.0,-0.30000000000000004,-0.1,-0.2,-8.9,3.8000000000000003,-2.9000000000000004,-45.7,-10.299999999999999,47.2,16
113,1998.0,1.0,-0.7000000000000001,0.0,-7.6000000000000005,3.3000000000000003,-2.7,-45.5,-10.1,41.1,16
114,2016.0,1.7000000000000002,-0.9,1.4000000000000001,-6.9,3.3000000000000003,-1.2000000000000002,-37.6,-19.300000000000004,30.000000000000004,16
115,2031.0,1.9000000000000001,-0.9,2.1,-6.6000000000000005,3.4000000000000004,-0.4,-25.8,-17.5,19.400000000000002,16
116,2048.0,0.5,-0.8,1.8,-7.9,3.6,-0.5,-6.500000000000001,-12.4,8.3,16
117,2068.0,-0.7000000000000001,0.4,3.4000000000000004,-9.200000000000001,4.800000000000001,1.0,6.300000000000001,-9.899999999999999,11.1,16
118,2084.0,0.5,-0.2,1.1,-7.9,4.1000000000000005,-1.2000000000000002,15.299999999999999,-12.600000000000001,3.5,16
119,2106.0,-0.5,-0.30000000000000004,0.4,-8.9,4.1000000000000005,-2.0,11.2,-33.7,-4.6,16
120,2115.0,-1.0,0.2,0.4,-9.4,4.5,-1.9000000000000001,12.0,-43.800000000000004,-4.2,16
121,2132.0,-0.1,-0.1,0.1,-8.6,4.3,-2.1,7.200000000000001,-62.300000000000004,-4.0,16
122,2149.0,-0.6000000000000001,-0.6000000000000001,0.7000000000000001,-9.1,3.8000000000000003,-1.3,1.2000000000000002,-78.5,-6.0,16
123,2171.0,-0.6000000000000001,-0.2,2.1,-9.200000000000001,4.1000000000000005,0.30000000000000004,11.1,-89.8,2.0,16
124,2182.0,0.30000000000000004,-0.2,2.6,-8.4,4.2,1.0,19.6,-87.2,1.7,16
125,2227.0,-0.30000000000000004,-0.7000000000000001,1.3,-9.1,3.6,0.0,53.300000000000004,-21.7,-5.7,16
126,2232.0,-0.30000000000000004,-0.7000000000000001,1.3,-9.1,3.6,0.0,54.800000000000004,-14.900000000000002,-8.0,16
127,2249.0,-0.5,-0.4,1.8,-9.3,3.8000000000000003,0.5,61.300000000000004,-18.8,-13.6,16
128,2265.0,-1.2000000000000002,-0.4,1.8,-9.9,3.7,0.4,67.00000000000001,-32.8,-12.7,16
129,2282.0,-0.1,-1.1,1.4000000000000001,-8.9,3.0,0.1,71.19999999999999,-31.400000000000002,-18.4,16
130,2302.0,0.5,-0.7000000000000001,0.5,-8.3,3.3000000000000003,-0.8,66.1,-25.200000000000003,-26.799999999999997,16
131,2315.0,-0.1,-0.5,1.5,-9.0,3.4000000000000004,0.2,71.0,-31.3,-27.400000000000002,16
132,2332.0,-0.1,-0.8,1.6,-9.1,3.1,0.30000000000000004,80.7,-44.6,-23.900000000000006,16
133,2349.0,0.30000000000000004,-0.4,1.3,-8.700000000000001,3.3000000000000003,0.1,89.8,-54.199999999999996,-26.6,16
134,2369.0,0.0,-0.8,-0.8,-9.1,2.7,-1.9000000000000001,96.5,-59.699999999999996,-44.4,16
135,2382.0,-0.8,-0.7000000000000001,-1.0,-9.9,2.7,-2.1,83.10000000000001,-48.800000000000004,-48.400000000000006,16
136,2407.0,-0.6000000000000001,-0.6000000000000001,-1.2000000000000002,-9.8,2.7,-2.3000000000000003,72.80000000000001,-37.1,-50.60000000000001,16
137,2416.0,-1.9000000000000001,-0.6000000000000001,-2.3000000000000003,-11.200000000000001,2.5,-3.3000000000000003,62.800000000000004,-32.9,-50.1,16
138,2432.0,-3.2,-0.5,-1.9000000000000001,-12.5,2.5,-2.9000000000000004,47.3,-28.200000000000003,-39.599999999999994,16
139,2449.0,-3.1,-0.4,-1.1,-12.4,2.5,-2.0,39.400000000000006,-27.0,-20.2,16
140,2465.0,-1.8,0.2,-0.8,-11.100000000000001,3.0,-1.7000000000000002,39.8,-26.000000000000004,-5.8,16
141,2482.0,0.1,0.5,-0.8,-9.3,3.2,-1.7000000000000002,40.800000000000004,-28.600000000000005,-2.4000000000000004,16
142,2499.0,1.0,0.6000000000000001,-0.9,-8.4,3.3000000000000003,-1.8,40.800000000000004,-27.9,-9.2,16
143,2519.0,1.7000000000000002,0.30000000000000004,-1.5,-7.7,3.0,-2.3000000000000003,36.2,-23.099999999999998,-31.0,16
144,2532.0,0.7000000000000001,0.0,-2.4000000000000004,-8.700000000000001,2.7,-3.1,31.2,-22.9,-37.6,16
145,2552.0,-0.1,0.5,-2.4000000000000004,-9.5,3.0,-3.1,8.4,-35.2,-51.4,16
146,2565.0,-1.9000000000000001,0.6000000000000001,-1.8,-11.4,3.0,-2.5,-4.1,-44.10000000000001,-42.400000000000006,16
147,2582.0,-1.8,-1.2000000000000002,-1.3,-11.3,1.1,-1.8,-11.4,-34.50000000000001,-32.300000000000004,16
148,2604.0,-2.6,-0.9,-0.2,-12.200000000000001,1.3,-0.6000000000000001,-5.9,-29.600000000000005,-6.8,16
149,2616.0,-1.8,-0.8,-0.9,-11.3,1.4000000000000001,-1.3,-6.9,-27.800000000000004,10.5,16
150,2633.0,-0.30000000000000004,-0.4,-1.0,-9.9,1.8,-1.2000000000000002,-11.000000000000002,-32.9,17.9,16
151,2648.0,0.2,-0.30000000000000004,-0.30000000000000004,-9.3,1.9000000000000001,-0.5,-9.8,-41.4,19.0,16
152,2665.0,0.1,0.30000000000000004,0.0,-9.4,2.5,0.0,-6.4,-49.800000000000004,21.500000000000004,16
153,2682.0,0.6000000000000001,0.4,0.4,-8.9,2.7,0.5,-1.5,-56.9,17.400000000000002,16
154,2710.0,0.9,0.7000000000000001,0.5,-8.6,3.1,0.9,7.0,-35.5,0.6000000000000001,16
155,2716.0,0.9,0.7000000000000001,0.5,-8.6,3.1,0.9,7.0,-35.5,0.6000000000000001,16
156,2732.0,-0.1,0.2,-0.1,-9.600000000000001,2.6,0.4,8.3,-10.299999999999999,-4.6,16
157,2751.0,-0.6000000000000001,0.0,-0.4,-10.100000000000001,2.4000000000000004,0.1,7.1000000000000005,1.0,-1.8000000000000003,16
158,2765.0,-0.7000000000000001,0.0,-0.8,-10.200000000000001,2.4000000000000004,-0.4,3.3000000000000007,4.0,2.7,16
159,2782.0,-0.8,0.0,-1.1,-10.3,2.4000000000000004,-0.7000000000000001,-4.1,0.30000000000000004,5.7,16
160,2799.0,-0.8,0.2,-0.9,-10.3,2.6,-0.4,-13.100000000000001,-9.700000000000001,11.4,16
161,2817.0,-0.7000000000000001,0.2,-0.8,-10.200000000000001,2.6,-0.30000000000000004,-21.300000000000004,-18.4,16.5,16
162,2832.0,-0.4,0.1,-0.5,-9.9,2.6,0.0,-31.099999999999998,-27.700000000000003,19.5,16
163,2849.0,0.0,0.1,1.1,-9.5,2.6,1.7000000000000002,-31.6,-31.3,17.300000000000004,16
164,2865.0,-0.2,-0.1,1.6,-9.600000000000001,2.5,2.4000000000000004,-6.500000000000001,-35.2,9.600000000000001,16
165,2884.0,-0.4,0.1,0.7000000000000001,-9.8,2.7,1.5,-3.1,-36.8,8.899999999999999,16
166,2905.0,-0.2,-0.2,0.4,-9.600000000000001,2.4000000000000004,1.4000000000000001,-6.9,-18.0,3.3000000000000007,16
167,2918.0,-0.2,-0.2,0.4,-9.600000000000001,2.4000000000000004,1.4000000000000001,-6.300000000000001,-11.4,3.5,16
168,2931.0,-0.4,-0.30000000000000004,0.7000000000000001,-9.8,2.3000000000000003,1.8,-3.4,-1.9,5.9,16
169,2948.0,-0.30000000000000004,-0.30000000000000004,0.6000000000000001,-9.600000000000001,2.3000000000000003,1.7000000000000002,1.0,0.8,7.1000000000000005,16
170,2970.0,0.4,-0.2,0.30000000000000004,-9.0,2.4000000000000004,1.4000000000000001,4.1,-3.0,5.0,16
171,2982.0,0.4,-0.2,0.30000000000000004,-9.0,2.4000000000000004,1.4000000000000001,5.0,-4.6,4.0,16
172,3003.0,0.4,-0.2,-0.1,-9.0,2.3000000000000003,1.2000000000000002,6.699999999999999,-3.7000000000000006,-0.7,16
173,3018.0,0.2,-0.2,-0.2,-9.200000000000001,2.3000000000000003,1.0,5.6,-1.8000000000000003,-2.6,16
174,3032.0,0.0,-0.30000000000000004,-0.30000000000000004,-9.200000000000001,2.3000000000000003,1.0,5.500000000000001,-1.9,-2.0,16
175,3056.0,0.0,-0.2,-0.30000000000000004,-9.4,2.2,0.9,5.6,-4.800000000000001,-0.4,16
176,3065.0,0.30000000000000004,-0.2,-0.1,-9.200000000000001,2.2,1.1,6.500000000000001,-8.2,1.0,16
177,3086.0,0.6000000000000001,-0.2,-0.2,-8.8,2.2,1.0,8.4,-5.6,0.4,16
178,3102.0,0.7000000000000001,-0.1,-0.5,-8.8,2.3000000000000003,0.7000000000000001,8.8,-0.2,-2.2,16
179,3115.0,0.7000000000000001,-0.1,-0.6000000000000001,-8.700000000000001,2.3000000000000003,0.6000000000000001,7.0,3.6000000000000005,-4.6,16
180,3133.0,0.5,0.0,-0.7000000000000001,-9.0,2.4000000000000004,0.5,5.4,2.3,-6.1000000000000005,16
181,3149.0,0.4,0.1,-0.5,-9.1,2.5,0.7000000000000001,5.500000000000001,-1.8000000000000003,-7.0,16
182,3165.0,0.2,0.2,-0.4,-9.200000000000001,2.6,0.8,7.699999999999999,-3.9,-8.100000000000001,16
183,3182.0,0.2,0.30000000000000004,-0.4,-9.3,2.6,0.7000000000000001,10.600000000000001,-2.9,-9.899999999999999,16
184,3200.0,0.1,0.2,-0.7000000000000001,-9.3,2.6,0.4,10.299999999999999,5.500000000000001,-12.600000000000001,16
185,3215.0,0.1,0.30000000000000004,-0.9,-9.4,2.6,0.2,7.699999999999999,7.500000000000001,-13.399999999999999,16
186,3232.0,-0.1,0.30000000000000004,-1.0,-9.600000000000001,2.6,0.0,4.1,3.4,-14.800000000000002,16
187,3251.0,-0.4,0.4,-0.9,-9.8,2.7,0.0,1.2000000000000002,-3.6000000000000005,-15.399999999999999,16
188,3265.0,-0.6000000000000001,0.5,-0.6000000000000001,-10.100000000000001,2.8000000000000003,0.30000000000000004,0.30000000000000004,-12.100000000000001,-13.8,16
189,3285.0,-0.8,0.6000000000000001,-0.2,-10.3,2.8000000000000003,0.7000000000000001,1.2000000000000002,-16.1,-12.5,16
190,3304.0,-0.5,0.5,-0.2,-10.0,2.7,0.8,1.5,-16.0,-14.800000000000002,16
191,3315.0,-0.5,0.5,-0.2,-10.0,2.7,0.8,1.2000000000000002,-15.8,-15.2,16
192,3332.0,-0.7000000000000001,0.5,-0.1,-10.3,2.6,0.9,0.4,-19.0,-13.700000000000001,16
193,3349.0,-0.9,0.4,0.2,-10.4,2.6,1.2000000000000002,0.30000000000000004,-25.200000000000003,-10.9,16
194,3367.0,-0.9,0.2,0.9,-10.4,2.5,1.9000000000000001,2.3,-30.3,-4.9,16
195,3383.0,-0.7000000000000001,0.30000000000000004,1.0,-10.200000000000001,2.6,2.1,4.800000000000001,-28.600000000000005,-1.0,16
196,3407.0,0.0,0.2,0.9,-9.5,2.4000000000000004,2.2,7.400000000000001,-23.700000000000003,0.6000000000000001,16
197,3415.0,0.30000000000000004,0.1,0.5,-9.1,2.4000000000000004,2.0,8.600000000000001,-13.8,-0.7,16
198,3432.0,0.30000000000000004,0.0,0.6000000000000001,-9.1,2.3000000000000003,2.1,8.100000000000001,-7.1000000000000005,-2.4000000000000004,16
199,3448.0,0.30000000000000004,-0.1,0.8,-9.1,2.2,2.2,11.1,-4.7,-3.4,16
200,3465.0,0.5,0.0,0.5,-8.9,2.3000000000000003,1.9000000000000001,14.400000000000002,-6.500000000000001,-5.7,16
201,3482.0,0.30000000000000004,-0.1,0.2,-9.1,2.2,1.7000000000000002,13.8,-9.100000000000001,-8.899999999999999,16
202,3502.0,0.0,-0.2,0.0,-9.4,2.1,1.8,12.200000000000001,-10.9,-11.000000000000002,16
203,3522.0,-0.7000000000000001,-0.1,0.0,-10.0,2.1,1.8,11.3,-12.5,-8.0,16
204,3532.0,-0.8,-0.2,0.30000000000000004,-10.200000000000001,2.0,2.1,13.200000000000003,-13.100000000000001,-3.7000000000000006,16
205,3548.0,-0.5,-0.30000000000000004,0.1,-9.9,1.9000000000000001,1.9000000000000001,13.8,-7.200000000000001,-1.4,16
206,3565.0,-0.2,-0.2,-0.30000000000000004,-9.600000000000001,1.9000000000000001,1.5,11.000000000000002,0.1,-1.5,16
207,3582.0,0.0,-0.1,-0.4,-9.4,1.9000000000000001,1.4000000000000001,7.200000000000001,6.1000000000000005,-2.9,16
208,3601.0,-0.1,0.0,-0.4,-9.5,2.1,1.4000000000000001,4.800000000000001,5.500000000000001,-4.4,16
209,3615.0,-0.1,0.0,-0.30000000000000004,-9.5,2.1,1.4000000000000001,3.9,1.9,-6.4,16
210,3632.0,-0.1,0.1,-0.1,-9.5,2.1,1.6,4.2,-1.0,-7.699999999999999,16
211,3649.0,0.30000000000000004,0.1,-0.1,-9.200000000000001,2.2,1.6,4.800000000000001,-3.3000000000000007,-9.100000000000001,16
212,3665.0,0.8,0.2,-0.2,-8.700000000000001,2.3000000000000003,1.4000000000000001,3.7000000000000006,-7.400000000000001,-13.200000000000003,16
213,3683.0,1.3,0.2,-0.5,-8.200000000000001,2.4000000000000004,1.1,-0.1,-13.5,-23.800000000000004,16
214,3702.0,1.8,0.4,-0.8,-7.6000000000000005,2.4000000000000004,0.9,-7.500000000000001,-32.0,-44.9,16
215,3719.0,1.5,0.7000000000000001,-1.0,-7.9,2.6,0.8,-18.200000000000003,-56.2,-60.7,16
216,3732.0,0.30000000000000004,-0.2,0.30000000000000004,-9.200000000000001,1.5,2.2,-20.5,-83.70000000000002,-74.4,16
217,3749.0,-2.5,-0.5,0.0,-11.9,1.0,2.2,-24.599999999999998,-105.60000000000002,-81.7,16
218,3765.0,-4.4,-0.8,0.30000000000000004,-13.8,0.5,2.8000000000000003,-31.7,-110.6,-71.5,16
219,3782.0,-4.0,-1.5,0.5,-13.4,-0.4,3.3000000000000003,-26.6,-88.9,-38.60000000000001,16
220,3803.0,-3.0,-0.8,-1.3,-12.200000000000001,0.2,1.7000000000000002,-38.800000000000004,-57.49999999999999,0.0,16
221,3815.0,-1.1,-0.5,-0.6000000000000001,-10.3,0.4,2.5,-42.900000000000006,-42.7,13.6,16
222,3832.0,0.5,-0.2,-0.2,-8.700000000000001,0.7000000000000001,3.1,-40.9,-32.0,18.8,16
223,3848.0,0.9,0.30000000000000004,-0.7000000000000001,-8.200000000000001,1.2000000000000002,2.7,-39.1,-28.3,9.8,16
224,3865.0,0.4,0.6000000000000001,-0.4,-8.8,1.5,3.1,-38.1,-41.300000000000004,-3.2,16
225,3882.0,-0.8,0.4,0.1,-9.9,1.3,3.6,-34.2,-53.599999999999994,-3.2,16
226,3915.0,-2.3000000000000003,0.2,0.1,-11.3,1.0,3.9000000000000004,-30.4,-52.60000000000001,22.000000000000004,16
227,3932.0,-1.5,0.2,0.1,-10.4,1.0,4.1000000000000005,-28.900000000000002,-54.699999999999996,32.300000000000004,16
228,3948.0,-0.30000000000000004,0.30000000000000004,-0.7000000000000001,-9.200000000000001,1.1,3.4000000000000004,-34.1,-55.0,31.9,16
229,3965.0,-1.3,0.5,-1.1,-10.0,1.4000000000000001,3.2,-48.50000000000001,-53.0,36.6,16
230,3985.0,-1.2000000000000002,0.6000000000000001,-0.30000000000000004,-9.9,1.6,4.3,-60.1,-49.50000000000001,42.3,16
231,4004.0,0.0,0.4,0.6000000000000001,-8.6,1.4000000000000001,5.300000000000001,-55.900000000000006,-58.5,42.900000000000006,16
232,4015.0,0.0,0.4,0.6000000000000001,-8.6,1.4000000000000001,5.300000000000001,-53.599999999999994,-68.1,40.9,16
233,4032.0,0.0,0.5,0.4,-8.3,1.6,5.4,-51.50000000000001,-62.199999999999996,33.7,16
234,4049.0,-0.1,-0.1,0.30000000000000004,-8.4,0.9,5.4,-51.6,-30.5,22.5,16
235,4065.0,-1.2000000000000002,-0.8,0.5,-9.5,0.2,5.800000000000001,-48.0,-14.100000000000001,22.9,16
236,4098.0,-2.2,-0.30000000000000004,-0.2,-10.4,0.7000000000000001,5.2,-51.50000000000001,-18.8,53.400000000000006,16
237,4116.0,0.0,0.1,0.7000000000000001,-8.200000000000001,1.2000000000000002,6.1000000000000005,-46.300000000000004,-45.099999999999994,65.89999999999999,16
238,4132.0,1.4000000000000001,0.5,0.4,-6.6000000000000005,1.7000000000000002,5.9,-38.1,-63.2,63.8,16
239,4149.0,1.6,0.4,-0.2,-6.300000000000001,1.6,5.5,-34.60000000000001,-64.80000000000001,54.0,16
240,4165.0,1.1,-0.1,-0.1,-6.7,1.2000000000000002,5.7,-36.1,-54.699999999999996,47.80000000000001,16
241,4182.0,0.8,-0.4,0.6000000000000001,-6.9,0.9,6.6000000000000005,-28.3,-47.60000000000001,50.5,16
242,4201.0,1.2000000000000002,-1.2000000000000002,0.7000000000000001,-6.4,0.2,6.7,-17.799999999999997,-57.800000000000004,60.1,16
243,4215.0,0.2,-0.4,1.7000000000000002,-7.2,1.1,7.9,-5.7,-77.5,64.2,16
244,4232.0,0.8,-0.4,1.3,-6.5,1.1,7.6000000000000005,0.5,-90.80000000000001,63.2,16
245,4249.0,1.2000000000000002,1.0,3.2,-5.9,2.7,9.700000000000001,-15.8,1.2000000000000002,65.5,16
246,4265.0,1.2000000000000002,1.5,6.800000000000001,-5.9,3.3000000000000003,13.3,28.500000000000004,54.4,78.7,16
247,4285.0,3.2,0.4,3.7,-3.9000000000000004,2.4000000000000004,10.200000000000001,59.699999999999996,92.2,70.0,16
248,4313.0,1.2000000000000002,0.9,1.2000000000000002,-6.2,3.3000000000000003,7.2,70.5,110.6,43.300000000000004,16
249,4323.0,-1.1,1.6,1.2000000000000002,-8.6,4.2,6.9,73.4,115.7,46.199999999999996,16
250,4332.0,-1.1,1.6,1.2000000000000002,-8.6,4.2,6.9,71.8,114.6,48.6,16
251,4349.0,0.30000000000000004,0.7000000000000001,-1.1,-7.300000000000001,3.5,4.3,55.900000000000006,114.70000000000002,48.0,16
252,4369.0,-0.1,0.5,-2.2,-7.9,3.7,2.7,19.400000000000002,95.69999999999999,41.50000000000001,16
253,4382.0,0.7000000000000001,0.8,-1.4000000000000001,-7.300000000000001,4.1000000000000005,3.3000000000000003,1.5,80.0,44.4,16
254,4410.0,2.0,0.6000000000000001,-1.4000000000000001,-6.0,4.0,3.2,-19.700000000000003,63.599999999999994,35.2,16
255,4418.0,2.7,0.6000000000000001,-1.0,-5.4,4.1000000000000005,3.4000000000000004,-26.000000000000004,58.5,28.500000000000004,16
256,4432.0,2.1,0.6000000000000001,-0.30000000000000004,-6.0,4.0,4.0,-36.6,50.3,15.100000000000001,16
257,4449.0,1.2000000000000002,0.30000000000000004,0.1,-6.9,3.7,4.3,-41.50000000000001,47.0,9.2,16
258,4465.0,1.3,-0.1,-0.30000000000000004,-6.9,3.3000000000000003,3.9000000000000004,-46.0,46.50000000000001,9.0,16
259,4485.0,1.9000000000000001,-0.2,-0.7000000000000001,-6.4,3.2,3.4000000000000004,-62.4,73.4,-4.6,16
260,4504.0,0.0,-0.1,0.4,-8.3,3.2,4.4,-56.50000000000001,114.3,-0.6000000000000001,16
261,4518.0,-1.6,0.4,1.3,-10.0,3.6,5.1000000000000005,-61.39999999999999,142.7,7.9,16
262,4532.0,2.5,-0.6000000000000001,0.5,-6.1000000000000005,2.6,4.0,-51.300000000000004,142.20000000000002,-0.30000000000000004,16
263,4550.0,0.5,0.8,-0.2,-8.200000000000001,3.9000000000000004,3.0,-50.1,131.4,-7.9,16
264,4566.0,-0.30000000000000004,0.5,0.5,-9.1,3.6,3.5,-45.6,116.4,-14.200000000000001,16
265,4582.0,-3.1,0.2,0.8,-12.100000000000001,3.3000000000000003,3.5,-39.8,113.8,-7.9,16
266,4604.0,-1.1,-0.9,0.4,-10.100000000000001,2.1,2.5,-25.300000000000004,133.70000000000002,-0.6000000000000001,16
267,4615.0,-1.1,-0.9,0.4,-10.100000000000001,2.1,2.5,-24.8,145.8,-1.2000000000000002,16
268,4632.0,-0.7000000000000001,-1.0,0.5,-9.8,1.9000000000000001,2.3000000000000003,-18.6,171.10000000000002,-4.2,16
269,4648.0,-0.9,-0.9,1.0,-10.100000000000001,2.0,2.5,-1.9,175.20000000000002,0.6000000000000001,16
270,4666.0,-0.5,-0.7000000000000001,2.0,-11.0,2.9000000000000004,3.4000000000000004,29.400000000000002,127.5,16.0,16
271,4682.0,-0.5,-0.7000000000000001,2.0,-9.8,2.2,2.6,48.9,70.6,19.700000000000003,16
272,4702.0,0.30000000000000004,-1.0,-0.4,-9.0,2.1,-0.2,48.6,-15.000000000000002,3.8,16
273,4715.0,0.0,-1.3,-1.1,-9.3,1.8,-0.8,35.9,-63.30000000000001,-4.300000000000001,16
274,4732.0,0.7000000000000001,-2.1,-1.1,-8.700000000000001,0.9,-0.6000000000000001,23.6,-77.20000000000002,-2.4000000000000004,16
275,4749.0,0.7000000000000001,-1.7000000000000002,0.9,-8.6,1.3,1.5,18.0,-82.2,1.3,16
276,4765.0,0.8,-1.3,-0.4,-8.5,1.7000000000000002,0.4,20.7,-79.5,3.1,16
277,4782.0,1.1,-0.9,-0.7000000000000001,-8.200000000000001,2.1,0.30000000000000004,8.100000000000001,-72.9,-6.4,16
278,4806.0,1.1,-1.0,0.8,-8.1,2.1,2.0,15.399999999999999,-59.1,-27.5,16
279,4819.0,0.7000000000000001,-1.1,0.9,-8.5,1.9000000000000001,2.3000000000000003,29.800000000000004,-40.1,-41.199999999999996,16
280,4835.0,-0.1,-1.2000000000000002,-0.1,-9.4,1.7000000000000002,1.4000000000000001,31.099999999999998,-20.0,-48.6,16
281,4853.0,-0.9,-1.4000000000000001,-0.6000000000000001,-10.200000000000001,1.4000000000000001,0.8,28.200000000000003,-12.600000000000001,-49.0,16
282,4872.0,-1.8,-1.4000000000000001,-0.4,-11.200000000000001,1.2000000000000002,1.1,19.200000000000003,7.9,-40.6,16
283,4882.0,-1.8,-1.4000000000000001,-0.4,-11.200000000000001,1.2000000000000002,1.1,18.700000000000003,9.3,-36.6,16
284,4920.0,-1.2000000000000002,-0.7000000000000001,-0.4,-10.600000000000001,1.7000000000000002,1.0,18.1,9.700000000000001,-24.900000000000002,16
285,4932.0,-1.1,-0.5,-0.5,-10.5,1.8,0.8,13.8,4.7,-22.5,16
286,4948.0,-1.3,-0.2,-0.4,-10.8,2.1,0.9,9.700000000000001,-3.1,-18.900000000000002,16
287,4965.0,-1.3,-0.30000000000000004,-0.1,-10.8,1.9000000000000001,1.2000000000000002,7.200000000000001,-14.900000000000002,-14.800000000000002,16
288,4986.0,-1.2000000000000002,-0.4,0.1,-10.600000000000001,1.7000000000000002,1.5,4.4,-25.7,-8.0,16
289,5000.0,-0.8,-0.5,0.30000000000000004,-10.200000000000001,1.6,1.7000000000000002,2.0,-24.8,-4.9,16
290,5019.0,-0.5,-0.6000000000000001,0.5,-9.9,1.6,2.1,-1.1,-15.2,-3.0,16
291,5034.0,-0.1,-0.7000000000000001,0.6000000000000001,-9.600000000000001,1.4000000000000001,2.2,-0.7,-3.2,-2.6,16
292,5048.0,-0.1,-0.6000000000000001,0.7000000000000001,-9.5,1.5,2.3000000000000003,0.9000000000000001,5.4,-2.9,16
293,5065.0,0.1,-0.5,0.8,-9.4,1.6,2.3000000000000003,6.600000000000001,13.100000000000001,-4.9,16
294,5086.0,0.0,-0.5,0.30000000000000004,-9.5,1.6,1.8,9.5,15.399999999999999,-9.3,16
295,5112.0,-0.5,-0.4,0.30000000000000004,-10.0,1.6,1.7000000000000002,10.8,7.200000000000001,-9.0,16
296,5115.0,-0.5,-0.4,0.30000000000000004,-10.0,1.6,1.7000000000000002,10.8,7.200000000000001,-9.0,16
297,5132.0,-0.4,-0.2,0.1,-9.9,1.6,1.7000000000000002,12.9,2.9,-5.6,16
298,5148.0,-0.2,-0.1,-0.1,-9.700000000000001,1.6,1.5,12.8,1.6,-2.4000000000000004,16
299,5170.0,0.2,0.1,-0.1,-9.4,1.8,1.6,11.4,4.7,0.4,16
300,5187.0,0.7000000000000001,0.2,-0.1,-8.8,1.9000000000000001,1.5,10.4,10.5,-2.5,16
301,5199.0,0.9,0.2,-0.4,-8.6,1.9000000000000001,1.2000000000000002,7.699999999999999,15.2,-7.6,16
302,5219.0,0.6000000000000001,0.1,-0.7000000000000001,-9.0,1.8,0.8,1.7,18.700000000000003,-12.600000000000001,16
303,5232.0,0.0,0.0,-0.9,-9.600000000000001,1.7000000000000002,0.5,-4.4,16.900000000000002,-14.200000000000001,16
304,5250.0,-0.9,-0.1,-0.8,-10.5,1.5,0.6000000000000001,-8.899999999999999,8.600000000000001,-12.100000000000001,16
305,5265.0,-1.7000000000000002,-0.2,-0.6000000000000001,-11.3,1.4000000000000001,0.8,-11.5,-4.300000000000001,-7.0,16
306,5283.0,-1.8,-0.4,-0.30000000000000004,-11.4,1.2000000000000002,1.1,-11.4,-17.300000000000004,0.30000000000000004,16
307,5303.0,-1.2000000000000002,-0.30000000000000004,0.0,-10.700000000000001,1.3,1.5,-6.0,-23.3,8.5,16
308,5315.0,-1.2000000000000002,-0.30000000000000004,0.0,-10.700000000000001,1.3,1.5,-6.500000000000001,-21.7,9.5,16
309,5332.0,0.4,-0.30000000000000004,-0.1,-9.8,1.3,1.2000000000000002,-9.600000000000001,-11.700000000000001,8.5,16
310,5353.0,0.7000000000000001,-0.2,0.0,-8.8,1.5,1.6,-8.3,-7.9,5.8,16
311,5365.0,0.8,0.0,0.0,-8.700000000000001,1.6,1.7000000000000002,-7.300000000000001,-8.4,1.2000000000000002,16
312,5394.0,0.8,0.1,0.1,-8.700000000000001,1.7000000000000002,1.7000000000000002,-4.300000000000001,-11.5,-6.500000000000001,16
313,5401.0,0.8,0.1,0.1,-8.700000000000001,1.7000000000000002,1.8,-4.300000000000001,-11.5,-6.500000000000001,16
314,5415.0,0.7000000000000001,0.1,0.0,-8.8,1.7000000000000002,1.7000000000000002,-2.7,-10.5,-14.0,16
315,5432.0,0.6000000000000001,0.1,0.0,-9.0,1.7000000000000002,1.7000000000000002,-2.2,-10.5,-18.900000000000002,16
316,5451.0,0.1,0.1,0.0,-9.4,1.6,1.7000000000000002,-2.0,-11.3,-24.5,16
317,5465.0,0.0,-0.30000000000000004,-0.2,-9.5,1.1,1.6,-2.3,-15.299999999999999,-25.200000000000003,16
318,5485.0,-0.7000000000000001,0.1,0.1,-10.3,1.5,2.0,-2.1,-20.8,-24.400000000000002,16
319,5504.0,-0.2,-0.2,0.30000000000000004,-9.700000000000001,1.2000000000000002,2.2,0.4,-23.2,-22.6,16
320,5516.0,-0.1,0.1,0.2,-9.700000000000001,1.4000000000000001,2.2,-0.30000000000000004,-21.300000000000004,-21.500000000000004,16
321,5538.0,0.1,0.1,0.2,-9.4,1.4000000000000001,2.2,-1.6,-14.0,-21.1,16
322,5548.0,0.1,0.1,-0.2,-9.4,1.4000000000000001,1.8,-2.6,-11.6,-21.900000000000002,16
323,5567.0,0.4,-0.1,0.30000000000000004,-9.1,1.2000000000000002,2.3000000000000003,-3.8,-9.3,-26.5,16
324,5590.0,0.1,0.1,-0.2,-9.4,1.4000000000000001,1.9000000000000001,-10.4,-17.5,-33.1,16
325,5601.0,0.1,0.1,-0.2,-9.4,1.4000000000000001,1.9000000000000001,-11.900000000000002,-22.3,-34.800000000000004,16
326,5616.0,-0.2,0.0,0.0,-9.700000000000001,1.2000000000000002,2.1,-13.5,-29.700000000000006,-37.9,16
327,5632.0,-0.7000000000000001,-0.1,0.1,-10.100000000000001,1.1,2.3000000000000003,-14.900000000000002,-35.0,-36.7,16
328,5651.0,-1.2000000000000002,-0.2,0.7000000000000001,-10.700000000000001,0.8,3.0,-13.3,-40.0,-23.900000000000006,16
329,5665.0,-1.2000000000000002,-0.2,0.7000000000000001,-10.700000000000001,0.8,3.0,-11.4,-40.5,-20.0,16
330,5682.0,-0.7000000000000001,-0.30000000000000004,1.0,-10.100000000000001,0.6000000000000001,3.5,-2.9,-34.800000000000004,-7.699999999999999,16
331,5701.0,-0.4,-0.2,1.0,-10.100000000000001,0.6000000000000001,3.5,1.4,-26.700000000000003,-4.300000000000001,16
332,5715.0,-0.30000000000000004,-0.1,1.0,-9.700000000000001,0.7000000000000001,3.7,5.500000000000001,-17.7,-2.6,16
333,5732.0,-0.2,-0.2,0.9,-9.600000000000001,0.6000000000000001,3.7,9.3,-11.900000000000002,-2.0,16
334,5748.0,-0.7000000000000001,-0.30000000000000004,0.8,-10.0,0.5,3.6,12.0,-10.600000000000001,-0.30000000000000004,16
335,5765.0,-0.6000000000000001,-0.30000000000000004,0.8,-10.0,0.5,3.6,15.899999999999999,-12.0,0.7,16
336,5782.0,-0.5,-0.4,0.30000000000000004,-9.8,0.5,3.2,15.700000000000001,-13.3,1.0,16
337,5806.0,-0.4,-0.30000000000000004,0.2,-9.700000000000001,0.4,3.1,12.100000000000001,-16.200000000000003,-1.0,16
338,5818.0,-0.2,-0.30000000000000004,0.2,-9.5,0.4,3.2,11.1,-16.700000000000003,-1.6,16
339,5832.0,-0.5,-0.30000000000000004,0.1,-9.8,0.4,3.2,10.700000000000001,-19.6,0.8,16
340,5850.0,-0.5,-0.30000000000000004,0.0,-9.700000000000001,0.30000000000000004,3.1,9.2,-22.5,4.9,16
341,5865.0,-0.1,-0.2,-0.2,-9.4,0.30000000000000004,2.9000000000000004,7.300000000000001,-25.8,6.500000000000001,16
342,5890.0,0.30000000000000004,0.0,0.2,-8.9,0.6000000000000001,3.4000000000000004,6.500000000000001,-31.2,4.9,16
343,5899.0,0.30000000000000004,0.0,0.2,-8.9,0.6000000000000001,3.4000000000000004,6.699999999999999,-30.200000000000003,4.2,16
344,5916.0,0.5,0.0,0.30000000000000004,-8.8,0.5,3.6,7.0,-24.900000000000002,1.6,16
345,5940.0,0.2,0.0,0.30000000000000004,-8.9,0.6000000000000001,3.7,7.0,-13.200000000000003,-2.2,16
346,5953.0,0.0,0.0,0.30000000000000004,-9.200000000000001,0.6000000000000001,3.7,7.400000000000001,-7.6,-3.5,16
347,5967.0,-0.1,-0.1,0.1,-9.200000000000001,0.5,3.6,7.699999999999999,-6.1000000000000005,-3.8,16
348,5991.0,-0.2,0.0,0.1,-9.4,0.5,3.5,5.9,-4.2,-4.7,16
349,5999.0,-0.5,0.0,0.30000000000000004,-9.600000000000001,0.6000000000000001,3.7,6.1000000000000005,-4.2,-4.1,16
350,6016.0,-0.4,0.0,0.2,-9.5,0.5,3.7,7.6,-2.8,-2.2,16
351,6032.0,-0.2,0.0,-0.1,-9.4,0.5,3.4000000000000004,7.6,1.6,-1.5,16
352,6052.0,-0.1,0.1,-0.2,-9.3,0.6000000000000001,3.3000000000000003,5.9,4.9,-1.5,16
353,6066.0,-0.1,0.2,-0.1,-9.200000000000001,0.8,3.3000000000000003,4.800000000000001,4.7,-2.1,16
354,6090.0,-0.1,0.2,0.0,-9.3,0.8,3.4000000000000004,4.800000000000001,-0.1,-2.9,16
355,6111.0,-0.2,0.1,0.0,-9.3,0.7000000000000001,3.4000000000000004,4.6,-1.4,-3.3000000000000007,16
356,6118.0,-0.2,0.1,0.0,-9.4,0.7000000000000001,3.4000000000000004,3.6000000000000005,0.5,-2.7,16
357,6132.0,-0.2,0.1,0.1,-9.4,0.6000000000000001,3.5,3.5,1.8000000000000003,-1.9,16
358,6154.0,-0.2,0.1,0.1,-9.3,0.7000000000000001,3.6,4.300000000000001,4.6,-1.0,16
359,6165.0,-0.2,0.1,0.2,-9.3,0.7000000000000001,3.6,5.4,5.500000000000001,-1.2000000000000002,16
360,6188.0,-0.30000000000000004,0.1,0.0,-9.5,0.6000000000000001,3.4000000000000004,5.300000000000001,5.0,-0.7,16
361,6205.0,-0.30000000000000004,0.1,0.0,-9.5,0.6000000000000001,3.4000000000000004,4.0,3.7000000000000006,0.2,16
362,6217.0,-0.5,0.0,0.0,-9.700000000000001,0.6000000000000001,3.3000000000000003,2.2,-0.1,2.6,16
363,6236.0,-0.4,0.0,-0.1,-9.600000000000001,0.5,3.3000000000000003,0.6000000000000001,-3.6000000000000005,5.300000000000001,16
364,6248.0,-0.1,0.0,0.0,-9.3,0.6000000000000001,3.3000000000000003,-0.6000000000000001,-5.500000000000001,6.8,16
365,6273.0,0.6000000000000001,0.0,0.0,-8.6,0.7000000000000001,3.4000000000000004,-0.8,-7.400000000000001,5.6,16
366,6290.0,0.6000000000000001,0.1,-0.1,-8.5,0.7000000000000001,3.3000000000000003,-1.8000000000000003,-7.400000000000001,2.4000000000000004,16
367,6299.0,0.6000000000000001,0.1,-0.1,-8.5,0.7000000000000001,3.3000000000000003,-2.3,-7.500000000000001,1.0,16
368,6315.0,0.4,0.0,-0.1,-8.6,0.7000000000000001,3.3000000000000003,-3.4,-7.6,-2.8,16
369,6332.0,0.4,0.0,0.1,-8.8,0.7000000000000001,3.6,-3.3000000000000007,-6.4,-3.8,16
370,6348.0,0.30000000000000004,0.1,0.1,-8.8,0.8,3.6,-3.0,-4.2,-4.9,16
371,6365.0,0.2,0.2,0.2,-8.9,0.8,3.7,-3.4,-2.2,-6.699999999999999,16
372,6384.0,0.0,0.30000000000000004,0.30000000000000004,-9.1,0.9,3.9000000000000004,-3.4,-1.6,-8.5,16
373,6399.0,-0.2,0.30000000000000004,0.4,-9.3,0.9,3.9000000000000004,-2.6,-0.7,-9.600000000000001,16
374,6415.0,-0.30000000000000004,0.30000000000000004,0.4,-9.5,0.9,4.0,-2.0,1.5,-9.5,16
375,6432.0,-0.4,0.4,0.7000000000000001,-9.5,1.0,4.3,-0.1,0.30000000000000004,-8.0,16
376,6449.0,-0.5,0.5,0.6000000000000001,-9.600000000000001,1.1,4.2,3.7000000000000006,0.4,-8.4,16
377,6465.0,-0.5,0.4,0.4,-9.600000000000001,1.0,4.0,5.500000000000001,0.9000000000000001,-8.0,16
378,6482.0,-0.6000000000000001,0.30000000000000004,0.1,-9.700000000000001,0.8,3.7,4.5,5.300000000000001,-6.8,16
379,6500.0,-0.7000000000000001,0.2,-0.1,-9.8,0.8,3.5,1.4,4.5,-3.5,16
380,6516.0,-0.7000000000000001,0.2,-0.30000000000000004,-9.8,0.8,3.2,-2.6,2.6,-0.9000000000000001,16
381,6538.0,-0.8,0.2,0.0,-9.9,0.8,3.6,-5.6,-4.4,5.300000000000001,16
382,6548.0,-0.8,0.2,0.0,-9.9,0.8,3.6,-6.1000000000000005,-6.500000000000001,7.6,16
383,6566.0,-0.30000000000000004,0.2,-0.1,-9.4,0.8,3.5,-7.6,-7.200000000000001,7.300000000000001,16
384,6582.0,-0.2,0.30000000000000004,-0.2,-9.3,0.9,3.3000000000000003,-11.5,-8.2,6.1000000000000005,16
385,6599.0,-0.2,0.30000000000000004,0.4,-9.3,0.9,4.0,-9.899999999999999,-13.100000000000001,6.9,16
386,6615.0,-0.1,0.1,0.1,-9.200000000000001,0.8,3.7,-10.600000000000001,-14.900000000000002,6.699999999999999,16
387,6634.0,0.1,0.1,0.5,-9.0,0.8,4.2,-7.699999999999999,-12.5,8.8,16
388,6649.0,0.5,0.2,0.1,-8.6,0.8,3.8000000000000003,-5.500000000000001,-4.5,9.600000000000001,16
389,6665.0,0.8,0.1,-0.2,-8.200000000000001,0.8,3.5,-7.699999999999999,3.3000000000000007,7.9,16
390,6682.0,0.8,0.1,-0.2,-8.3,0.8,3.6,-11.3,4.6,5.0,16
391,6705.0,0.5,0.2,0.2,-8.6,0.9,3.9000000000000004,-12.5,-8.899999999999999,-1.8000000000000003,16
392,6716.0,0.0,0.2,0.4,-9.1,0.9,4.1000000000000005,-12.200000000000001,-14.5,-3.2,16
393,6737.0,-0.4,0.2,0.6000000000000001,-9.4,0.8,4.4,-10.700000000000001,-24.3,-4.800000000000001,16
394,6748.0,-0.5,0.2,0.6000000000000001,-9.5,0.9,4.4,-8.600000000000001,-26.700000000000003,-4.7,16
395,6765.0,-0.30000000000000004,0.2,0.5,-9.200000000000001,0.8,4.4,-7.200000000000001,-23.900000000000006,-3.9,16
396,6782.0,0.1,0.30000000000000004,0.30000000000000004,-8.9,0.9,4.2,-6.1000000000000005,-18.0,-3.6000000000000005,16
397,6800.0,0.30000000000000004,0.30000000000000004,-0.1,-8.6,0.9,4.0,-8.100000000000001,-5.0,-5.300000000000001,16
398,6816.0,0.30000000000000004,0.4,-0.1,-8.6,1.0,3.9000000000000004,-9.8,2.5,-7.0,16
399,6832.0,0.4,0.5,-0.2,-8.5,1.1,3.9000000000000004,-10.0,6.600000000000001,-8.8,16
400,6849.0,0.30000000000000004,0.6000000000000001,-0.2,-8.6,1.2000000000000002,3.8000000000000003,-9.600000000000001,6.4,-10.200000000000001,16
401,6865.0,0.2,0.8,-0.1,-8.700000000000001,1.3,3.9000000000000004,-8.2,3.9,-10.8,16
402,6891.0,0.0,0.4,-0.4,-8.9,1.4000000000000001,3.5,-6.600000000000001,3.7000000000000006,-11.000000000000002,16
403,6908.0,0.1,0.30000000000000004,-0.5,-8.9,1.4000000000000001,3.3000000000000003,-8.899999999999999,7.0,-11.3,16
404,6915.0,0.1,0.30000000000000004,-0.5,-8.9,1.4000000000000001,3.3000000000000003,-10.600000000000001,8.5,-11.700000000000001,16
405,6932.0,0.0,0.30000000000000004,-0.5,-9.0,1.5,3.2,-15.399999999999999,8.3,-12.4,16
406,6950.0,-0.30000000000000004,0.2,-0.30000000000000004,-9.3,1.5,3.4000000000000004,-18.0,1.8000000000000003,-12.100000000000001,16
407,6965.0,-0.7000000000000001,0.2,0.1,-9.700000000000001,1.5,3.7,-18.5,-12.200000000000001,-10.8,16
408,6986.0,-1.1,0.30000000000000004,0.7000000000000001,-10.100000000000001,1.5,4.4,-15.899999999999999,-33.2,-8.4,16
409,7013.0,-1.0,-0.1,1.1,-10.100000000000001,1.4000000000000001,4.7,-13.000000000000002,-45.400000000000006,-6.4,16
410,7015.0,-1.0,-0.1,1.1,-10.0,1.1,5.0,-11.5,-45.6,-5.500000000000001,16
411,7031.0,-1.3,-0.2,1.2000000000000002,-10.200000000000001,1.0,5.2,-9.2,-45.0,-3.2,16
412,7050.0,-0.9,-0.4,1.1,-9.700000000000001,0.8,5.2,-7.8,-35.3,-0.30000000000000004,16
413,7066.0,-0.2,-0.5,1.0,-9.0,0.6000000000000001,5.2,-8.100000000000001,-26.000000000000004,2.2,16
414,7085.0,-0.5,-0.5,1.2000000000000002,-9.200000000000001,0.7000000000000001,5.4,-6.699999999999999,-10.200000000000001,6.0,16
415,7099.0,0.0,-0.5,1.3,-8.8,0.6000000000000001,5.5,-5.500000000000001,-5.6,6.699999999999999,16
416,7115.0,0.5,-0.5,1.2000000000000002,-8.200000000000001,0.6000000000000001,5.5,-3.3000000000000007,0.7,4.5,16
417,7132.0,0.7000000000000001,-0.4,1.2000000000000002,-8.1,0.7000000000000001,5.5,1.2000000000000002,3.3000000000000007,-6.2,16
418,7152.0,0.30000000000000004,-0.4,1.3,-8.5,0.7000000000000001,5.6000000000000005,5.1000000000000005,1.1,-10.8,16
419,7165.0,0.1,-0.8,1.3,-8.6,0.30000000000000004,5.6000000000000005,12.100000000000001,-5.2,-12.100000000000001,16
420,7188.0,0.1,-1.1,0.6000000000000001,-8.700000000000001,0.1,5.300000000000001,15.399999999999999,-8.3,-10.600000000000001,16
421,7199.0,0.1,-1.1,0.6000000000000001,-8.6,-0.1,4.9,14.100000000000001,-12.299999999999999,-9.4,16
422,7215.0,0.30000000000000004,-1.2000000000000002,0.6000000000000001,-8.5,-0.1,5.0,13.399999999999999,-12.5,-8.700000000000001,16
423,7232.0,0.2,-1.2000000000000002,0.7000000000000001,-8.5,-0.2,5.1000000000000005,12.600000000000001,-13.6,-8.700000000000001,16
424,7248.0,-0.1,-0.6000000000000001,0.2,-8.700000000000001,-0.2,5.0,11.3,-9.600000000000001,-9.5,16
425,7266.0,-0.4,-0.5,0.1,-8.9,-0.30000000000000004,5.0,8.3,-6.4,-6.9,16
426,7282.0,-0.6000000000000001,-0.2,0.30000000000000004,-9.0,-0.1,5.2,8.4,-0.8,-4.300000000000001,16
427,7299.0,-0.4,-0.2,0.1,-8.8,-0.1,5.1000000000000005,5.6,7.9,-6.2,16
428,7315.0,-0.6000000000000001,-0.30000000000000004,0.30000000000000004,-8.8,-0.1,5.1000000000000005,5.300000000000001,8.8,-7.699999999999999,16
429,7332.0,-0.7000000000000001,-0.4,0.4,-9.200000000000001,-0.30000000000000004,5.300000000000001,8.899999999999999,1.8000000000000003,-8.3,16
430,7348.0,-1.0,-0.30000000000000004,0.2,-9.5,-0.30000000000000004,5.0,11.8,-11.3,-6.2,16
431,7365.0,-0.6000000000000001,-0.5,0.5,-9.1,-0.5,5.4,13.200000000000003,-15.100000000000001,-1.8000000000000003,16
432,7382.0,-0.1,-0.30000000000000004,-0.7000000000000001,-8.6,-0.2,4.2,12.600000000000001,-15.899999999999999,-2.0,16
433,7398.0,0.9,-0.30000000000000004,-0.8,-7.6000000000000005,-0.2,4.2,0.6000000000000001,-13.000000000000002,2.1,16
434,7415.0,0.7000000000000001,-0.1,0.0,-7.7,-0.1,5.0,-4.1,-4.300000000000001,-0.5,16
435,7432.0,0.4,-0.30000000000000004,0.1,-8.0,-0.2,5.1000000000000005,-2.4000000000000004,-2.2,2.2,16
436,7451.0,0.30000000000000004,-0.2,0.30000000000000004,-8.1,-0.1,5.300000000000001,1.0,-9.0,4.300000000000001,16
437,7465.0,0.1,0.2,0.4,-8.3,0.30000000000000004,5.4,4.5,-19.6,4.9,16
438,7484.0,0.4,0.0,0.1,-8.0,0.0,5.2,2.9,-28.3,0.9000000000000001,16
439,7499.0,0.2,0.1,0.2,-8.1,0.1,5.4,0.30000000000000004,-29.600000000000005,-0.5,16
440,7522.0,0.1,-0.1,0.6000000000000001,-8.1,-0.1,5.9,-3.7000000000000006,-18.700000000000003,-0.4,16
441,7532.0,0.1,-0.1,0.6000000000000001,-8.1,-0.1,5.9,-3.1,-16.1,1.1,16
442,7550.0,0.30000000000000004,0.0,0.9,-7.9,0.0,6.2,1.0,-14.400000000000002,3.7000000000000006,16
443,7565.0,0.7000000000000001,0.1,0.6000000000000001,-7.5,0.1,6.0,3.3000000000000007,-15.299999999999999,4.1,16
444,7582.0,1.2000000000000002,0.30000000000000004,0.30000000000000004,-7.0,0.30000000000000004,5.7,2.9,-16.5,2.0,16
445,7601.0,1.5,0.4,0.2,-6.6000000000000005,0.5,5.7,1.8000000000000003,-16.900000000000002,-2.1,16
446,7615.0,1.7000000000000002,0.5,0.0,-6.300000000000001,0.6000000000000001,5.7,0.9000000000000001,-14.600000000000001,-9.5,16
447,7633.0,1.1,0.4,0.0,-6.800000000000001,0.5,5.800000000000001,-0.4,-12.5,-19.1,16
448,7648.0,0.5,0.2,0.30000000000000004,-7.4,0.30000000000000004,6.1000000000000005,-0.9000000000000001,-11.2,-20.0,16
449,7665.0,-0.1,0.1,0.30000000000000004,-8.0,0.1,6.2,-0.30000000000000004,-7.9,-16.700000000000003,16
450,7682.0,-0.6000000000000001,0.2,0.5,-8.4,0.2,6.4,0.6000000000000001,-4.800000000000001,-12.4,16
451,7699.0,-0.9,0.1,0.4,-8.700000000000001,0.2,6.4,1.7,-3.0,-6.0,16
452,7716.0,-0.9,0.2,0.5,-8.700000000000001,0.4,6.5,2.7,-1.9,-1.1,16
453,7732.0,-0.7000000000000001,0.30000000000000004,0.6000000000000001,-8.5,0.5,6.6000000000000005,5.4,0.0,2.0,16
454,7749.0,-0.5,0.5,0.6000000000000001,-8.3,0.8,6.6000000000000005,9.5,2.1,2.2,16
455,7765.0,0.0,0.7000000000000001,0.5,-7.7,1.0,6.5,12.8,6.8,-1.0,16
456,7782.0,0.30000000000000004,0.7000000000000001,0.2,-7.4,1.1,6.2,14.200000000000001,16.3,-13.5,16
457,7798.0,-0.30000000000000004,0.4,-0.30000000000000004,-8.0,0.8,5.800000000000001,9.8,21.400000000000002,-16.6,16
458,7816.0,-1.7000000000000002,-0.2,-0.4,-9.5,0.2,5.6000000000000005,7.0,23.900000000000006,-14.200000000000001,16
459,7832.0,-2.8000000000000003,-0.5,-0.4,-10.600000000000001,-0.1,5.5,1.0,23.400000000000002,3.0,16
460,7848.0,-3.4000000000000004,-0.5,-0.30000000000000004,-11.3,-0.1,5.6000000000000005,-3.6000000000000005,13.100000000000001,17.0,16
461,7865.0,-3.7,-0.6000000000000001,-0.2,-11.600000000000001,-0.2,5.7,-6.300000000000001,-3.8,27.0,16
462,7885.0,-3.0,-0.8,0.1,-10.8,-0.2,5.9,-3.9,-16.900000000000002,29.800000000000004,16
463,7898.0,-2.1,-0.7000000000000001,-0.2,-9.9,-0.1,5.7,-1.8000000000000003,-24.5,29.800000000000004,16
464,7915.0,-1.3,-0.6000000000000001,-0.9,-9.1,0.0,5.1000000000000005,-4.0,-21.6,29.0,16
465,7933.0,-0.7000000000000001,-0.8,-1.6,-8.6,0.0,4.7,-7.500000000000001,-15.899999999999999,27.2,16
466,7949.0,-0.5,-1.0,-1.5,-8.200000000000001,-0.30000000000000004,4.6000000000000005,-14.600000000000001,-11.2,26.5,16
467,7966.0,0.5,-0.6000000000000001,-0.9,-7.7,-0.4,4.4,-16.3,-10.4,25.8,16
468,7987.0,0.8,-0.2,-0.4,-7.6000000000000005,-0.30000000000000004,4.6000000000000005,-17.9,-12.600000000000001,21.6,16
469,8002.0,0.7000000000000001,-0.1,-0.1,-7.7,-0.2,4.9,-17.5,-17.9,15.399999999999999,16
470,8017.0,0.30000000000000004,-0.1,-0.1,-8.1,-0.2,4.9,-16.700000000000003,-22.1,6.8,16
471,8033.0,-0.4,-0.1,-0.1,-8.8,-0.2,5.0,-17.6,-22.8,3.0,16
472,8053.0,-1.1,-0.2,0.1,-9.4,-0.30000000000000004,5.2,-17.9,-17.400000000000002,7.8,16
473,8065.0,-1.4000000000000001,-0.2,0.0,-9.700000000000001,-0.30000000000000004,5.2,-17.7,-15.100000000000001,11.000000000000002,16
474,8086.0,-1.3,0.0,-0.1,-9.600000000000001,-0.2,5.1000000000000005,-18.8,-8.899999999999999,22.3,16
475,8102.0,-0.8,0.1,-0.1,-9.1,0.0,5.1000000000000005,-19.1,-7.200000000000001,27.0,16
476,8115.0,-0.4,0.30000000000000004,-0.2,-8.700000000000001,0.2,5.0,-19.400000000000002,-5.8,28.700000000000003,16
477,8136.0,0.2,0.4,-0.4,-8.1,0.4,4.9,-20.3,-4.0,28.200000000000003,16
478,8148.0,0.5,0.7000000000000001,-0.30000000000000004,-7.800000000000001,0.7000000000000001,4.9,-20.400000000000002,-2.0,26.700000000000003,16
479,8165.0,0.9,0.5,-0.2,-7.5,0.7000000000000001,4.9,-20.2,0.2,23.0,16
480,8185.0,1.0,0.5,-0.30000000000000004,-7.300000000000001,0.8,4.800000000000001,-20.5,0.9000000000000001,19.400000000000002,16
481,8199.0,1.0,0.4,-0.30000000000000004,-7.4,0.8,4.800000000000001,-21.1,1.2000000000000002,15.299999999999999,16
482,8215.0,0.7000000000000001,0.30000000000000004,-0.2,-7.6000000000000005,0.8,5.0,-20.400000000000002,-1.6,12.9,16
483,8231.0,0.6000000000000001,0.2,-0.2,-7.800000000000001,0.7000000000000001,4.9,-20.5,-3.5,12.100000000000001,16
484,8251.0,0.1,0.0,-0.5,-8.200000000000001,0.5,4.7,-23.900000000000006,-4.300000000000001,13.900000000000002,16
485,8272.0,0.0,0.0,-0.4,-8.3,0.5,4.7,-27.700000000000003,-6.0,17.0,16
486,8282.0,0.30000000000000004,0.0,-0.30000000000000004,-8.3,0.5,4.7,-29.300000000000004,-10.600000000000001,20.8,16
487,8298.0,0.6000000000000001,0.2,-0.30000000000000004,-7.6000000000000005,0.7000000000000001,4.9,-30.1,-13.000000000000002,20.599999999999998,16
488,8315.0,0.7000000000000001,0.30000000000000004,-0.4,-7.6000000000000005,0.8,4.9,-32.300000000000004,-10.4,17.799999999999997,16
489,8332.0,0.2,0.30000000000000004,0.0,-8.1,0.8,5.2,-35.3,-2.0,13.5,16
490,8350.0,-0.9,-0.1,0.6000000000000001,-9.200000000000001,0.4,5.9,-36.2,11.000000000000002,11.900000000000002,16
491,8368.0,-1.7000000000000002,0.0,1.2000000000000002,-10.0,0.4,6.5,-28.400000000000002,28.400000000000002,23.6,16
492,8382.0,-0.9,-0.1,1.0,-9.200000000000001,0.4,6.2,-20.900000000000002,41.4,38.1,16
493,8398.0,0.5,0.2,0.6000000000000001,-7.9,0.8,5.7,-14.200000000000001,56.300000000000004,45.099999999999994,16
494,8415.0,1.3,0.4,0.30000000000000004,-7.1000000000000005,1.1,5.2,-10.299999999999999,65.7,39.0,16
495,8431.0,0.7000000000000001,0.4,0.2,-7.800000000000001,1.1,5.0,-4.300000000000001,81.2,22.5,16
496,8449.0,-0.4,0.1,0.2,-9.0,0.9,4.800000000000001,-2.2,85.9,20.2,16
497,8465.0,-1.4000000000000001,-0.2,-0.2,-10.100000000000001,0.6000000000000001,4.2,-3.5,86.1,22.9,16
498,8481.0,-1.2000000000000002,-0.4,-0.8,-10.0,0.5,3.4000000000000004,-10.700000000000001,87.00000000000001,24.599999999999998,16
499,8507.0,-1.3,-0.7000000000000001,-0.5,-10.3,0.30000000000000004,3.2,-21.7,85.1,30.5,16
500,8518.0,-1.3,-0.7000000000000001,-0.5,-10.3,0.30000000000000004,3.2,-23.800000000000004,80.8,32.9,16
501,8531.0,-1.0,-0.8,-0.5,-10.100000000000001,0.2,3.1,-27.5,70.9,38.0,16
502,8548.0,-0.30000000000000004,-0.9,-0.7000000000000001,-9.5,0.2,2.7,-33.1,52.5,42.0,16
503,8569.0,-0.4,-1.2000000000000002,0.0,-9.600000000000001,0.0,3.2,-41.800000000000004,7.6,40.2,16
504,8585.0,-1.1,-1.3,0.2,-10.3,-0.1,3.4000000000000004,-40.4,-27.700000000000003,42.60000000000001,16
505,8608.0,-1.3,-1.3,0.4,-10.5,0.0,3.8000000000000003,-38.800000000000004,-64.4,44.10000000000001,16
506,8615.0,-1.0,-1.4000000000000001,1.0,-10.5,0.0,3.8000000000000003,-38.800000000000004,-64.4,44.10000000000001,16
507,8631.0,-0.7000000000000001,-1.4000000000000001,0.9,-9.600000000000001,0.0,4.5,-33.6,-64.60000000000001,45.3,16
508,8648.0,0.0,-1.2000000000000002,1.0,-8.9,0.30000000000000004,4.800000000000001,-32.400000000000006,-58.5,44.00000000000001,16
509,8669.0,0.9,-1.2000000000000002,1.0,-7.9,0.4,5.0,-31.099999999999998,-40.6,36.2,16
510,8688.0,1.0,-1.1,1.2000000000000002,-7.800000000000001,0.5,5.300000000000001,-30.799999999999997,-26.400000000000006,30.599999999999998,16
511,8698.0,0.9,-1.3,1.4000000000000001,-7.800000000000001,0.4,5.6000000000000005,-29.900000000000006,-20.8,28.600000000000005,16
512,8719.0,0.9,-1.5,1.5,-7.800000000000001,0.2,5.7,-23.5,3.5,21.400000000000002,16
513,8732.0,0.6000000000000001,-1.4000000000000001,1.1,-8.0,0.4,5.4,-22.9,8.4,20.1,16
514,8750.0,0.5,-1.3,1.3,-8.1,0.5,5.6000000000000005,-21.900000000000002,8.8,19.400000000000002,16
515,8765.0,1.1,-1.4000000000000001,1.4000000000000001,-7.6000000000000005,0.30000000000000004,5.7,-25.4,16.700000000000003,5.9,16
516,8784.0,-0.4,-0.1,2.3000000000000003,-9.1,1.6,6.6000000000000005,-24.5,55.5,16.1,16
517,8799.0,0.2,-2.3000000000000003,0.6000000000000001,-8.5,-0.6000000000000001,4.800000000000001,-20.1,86.00000000000001,38.60000000000001,16
518,8815.0,0.5,-1.8,0.30000000000000004,-8.3,-0.1,4.3,-25.8,80.30000000000001,48.6,16
519,8832.0,1.7000000000000002,-0.9,0.4,-7.1000000000000005,0.9,4.2,-30.5,68.3,33.9,16
520,8849.0,1.8,-1.0,0.7000000000000001,-7.1000000000000005,0.9,4.4,-27.700000000000003,57.00000000000001,21.6,16
521,8867.0,1.1,-0.9,0.7000000000000001,-7.800000000000001,1.0,4.3,-25.7,33.9,20.5,16
522,8882.0,1.3,-1.0,0.7000000000000001,-7.7,0.9,4.2,-23.099999999999998,33.6,17.6,16
523,8907.0,-0.2,-1.3,0.30000000000000004,-9.200000000000001,0.7000000000000001,3.6,-43.300000000000004,45.6,20.599999999999998,16
524,8915.0,-0.2,-1.3,0.30000000000000004,-9.200000000000001,0.7000000000000001,3.6,-43.300000000000004,45.6,20.599999999999998,16
525,8935.0,-0.9,-1.0,2.1,-10.0,1.0,5.300000000000001,-37.1,62.199999999999996,26.300000000000004,16
526,8948.0,-0.5,-0.7000000000000001,1.7000000000000002,-9.600000000000001,1.4000000000000001,4.7,-25.6,73.7,25.4,16
527,8967.0,0.2,-0.4,1.4000000000000001,-8.9,1.7000000000000002,4.3,-19.300000000000004,71.6,22.3,16
528,8982.0,0.7000000000000001,-0.4,0.2,-8.5,1.7000000000000002,2.9000000000000004,-17.5,58.7,14.700000000000001,16
529,8998.0,0.1,-0.7000000000000001,0.30000000000000004,-9.1,1.5,2.8000000000000003,-23.800000000000004,45.9,8.4,16
530,9016.0,-0.8,-1.1,0.5,-10.100000000000001,1.1,3.0,-26.1,34.60000000000001,8.4,16
531,9031.0,-1.3,-1.4000000000000001,0.2,-10.600000000000001,0.7000000000000001,2.6,-28.800000000000004,28.700000000000003,14.200000000000001,16
532,9048.0,-1.2000000000000002,-1.6,0.0,-10.4,0.6000000000000001,2.3000000000000003,-35.5,29.400000000000002,21.500000000000004,16
533,9065.0,-0.5,-1.6,0.30000000000000004,-9.8,0.6000000000000001,2.6,-43.800000000000004,29.300000000000004,27.0,16
534,9086.0,0.30000000000000004,-1.4000000000000001,0.4,-8.9,0.8,2.7,-46.1,26.400000000000006,23.0,16
535,9100.0,0.8,-1.4000000000000001,0.5,-8.4,0.9,2.7,-47.0,20.7,16.700000000000003,16
536,9115.0,1.1,-1.4000000000000001,0.5,-8.200000000000001,0.9,2.6,-46.4,7.200000000000001,7.300000000000001,16
537,9132.0,0.6000000000000001,-1.4000000000000001,0.6000000000000001,-8.6,0.8,2.8000000000000003,-44.00000000000001,-5.2,3.1,16
538,9148.0,0.1,-1.5,0.6000000000000001,-9.200000000000001,0.7000000000000001,2.8000000000000003,-41.4,-20.1,5.8,16
539,9168.0,-0.30000000000000004,-1.7000000000000002,0.1,-9.600000000000001,0.5,2.4000000000000004,-43.6,-26.200000000000003,10.299999999999999,16
540,9182.0,-1.0,-1.7000000000000002,0.4,-10.3,0.5,2.7,-44.7,-25.7,16.900000000000002,16
541,9198.0,-1.3,-1.3,1.2000000000000002,-10.5,0.8,3.7,-40.0,-21.7,19.6,16
542,9218.0,-1.6,-0.8,2.1,-10.8,1.5,4.7,-26.799999999999997,-4.7,21.1,16
543,9232.0,-1.6,-0.8,2.1,-10.8,1.5,4.7,-22.2,7.400000000000001,21.6,16
544,9250.0,-0.8,-0.5,0.6000000000000001,-9.9,1.9000000000000001,3.2,-15.6,64.0,24.0,16
545,9265.0,-0.9,-0.2,0.7000000000000001,-9.9,1.9000000000000001,3.2,-19.0,88.3,23.6,16
546,9284.0,-1.3,0.0,1.1,-10.5,2.4000000000000004,3.3000000000000003,-16.200000000000003,84.1,25.200000000000003,16
547,9298.0,-1.0,0.1,0.9,-10.3,2.6,2.9000000000000004,-12.7,64.80000000000001,26.1,16
548,9315.0,-0.7000000000000001,0.1,0.9,-10.0,2.7,2.7,-8.600000000000001,46.800000000000004,27.400000000000002,16
549,9332.0,-0.6000000000000001,0.30000000000000004,1.3,-9.9,2.9000000000000004,3.1,-1.9,24.900000000000002,29.200000000000003,16
550,9348.0,0.2,0.30000000000000004,1.3,-9.1,3.0,3.0,7.1000000000000005,13.000000000000002,28.400000000000002,16
551,9365.0,0.7000000000000001,0.30000000000000004,1.0,-8.6,3.0,2.6,12.4,14.700000000000001,22.4,16
552,9382.0,0.7000000000000001,0.1,0.7000000000000001,-8.6,2.9000000000000004,2.3000000000000003,13.900000000000002,28.200000000000003,11.700000000000001,16
553,9398.0,0.1,-0.1,0.5,-9.200000000000001,2.7,2.1,13.000000000000002,43.900000000000006,5.500000000000001,16
554,9416.0,-0.4,-0.30000000000000004,0.6000000000000001,-9.700000000000001,2.6,2.0,12.100000000000001,63.10000000000001,6.2,16
555,9432.0,-0.9,-0.30000000000000004,0.7000000000000001,-10.200000000000001,2.6,1.9000000000000001,14.400000000000002,59.1,13.000000000000002,16
556,9450.0,-0.6000000000000001,-0.1,0.7000000000000001,-9.9,2.8000000000000003,1.8,15.6,45.0,19.0,16
557,9465.0,-0.1,0.2,0.9,-9.4,3.1,1.8,17.0,20.3,23.0,16
558,9482.0,0.9,0.2,1.4000000000000001,-8.4,3.2,2.3000000000000003,23.6,8.2,21.1,16
559,9498.0,2.1,0.0,1.3,-7.1000000000000005,3.1,2.2,30.699999999999996,11.4,14.100000000000001,16
560,9515.0,2.9000000000000004,-0.1,0.5,-6.300000000000001,3.0,1.3,29.900000000000006,22.5,4.6,16
561,9533.0,2.8000000000000003,-0.2,0.30000000000000004,-6.4,3.0,1.0,27.099999999999998,29.600000000000005,-7.9,16
562,9548.0,1.7000000000000002,-0.2,0.2,-7.6000000000000005,3.0,0.8,24.0,26.400000000000006,-14.400000000000002,16
563,9568.0,-0.5,-0.30000000000000004,-0.1,-9.8,2.7,0.4,13.700000000000001,5.4,-16.900000000000002,16
564,9583.0,-1.4000000000000001,-0.6000000000000001,0.5,-10.700000000000001,2.4000000000000004,1.0,6.600000000000001,-17.5,-10.700000000000001,16
565,9617.0,-0.2,0.2,2.4000000000000004,-9.5,3.2,3.0,21.1,-69.00000000000001,12.0,16
566,9632.0,0.9,0.5,2.8000000000000003,-8.4,3.5,3.6,35.3,-69.7,1.7,16
567,9648.0,-2.9000000000000004,0.6000000000000001,4.4,-12.200000000000001,3.7,5.300000000000001,52.60000000000001,-46.1,-19.400000000000002,16
568,9665.0,-0.8,-0.6000000000000001,2.4000000000000004,-10.100000000000001,2.4000000000000004,3.4000000000000004,64.2,19.1,-26.5,16
569,9682.0,-0.9,0.0,0.6000000000000001,-10.200000000000001,3.0,1.4000000000000001,69.4,101.6,-28.3,16
570,9699.0,0.8,-0.7000000000000001,-1.1,-8.6,2.2,-0.7000000000000001,64.4,144.70000000000002,-27.400000000000002,16
571,9717.0,0.0,-0.5,-1.6,-9.4,2.4000000000000004,-1.6,52.60000000000001,133.60000000000002,-33.800000000000004,16
572,9738.0,-1.6,-1.1,-0.5,-11.0,1.6,-0.8,43.00000000000001,76.0,-25.4,16
573,9749.0,-1.6,-2.5,-0.30000000000000004,-11.100000000000001,0.2,-0.9,36.0,27.0,-11.3,16
574,9765.0,-1.7000000000000002,-2.5,-0.30000000000000004,-11.100000000000001,0.1,-1.0,23.099999999999998,-23.6,4.300000000000001,16
575,9783.0,-1.2000000000000002,-2.3000000000000003,0.8,-10.700000000000001,0.30000000000000004,0.2,22.3,-32.8,12.5,16
576,9807.0,-0.1,-0.9,0.5,-9.5,1.7000000000000002,0.0,16.3,-0.6000000000000001,5.0,16
577,9815.0,-0.1,-0.9,0.5,-9.5,1.7000000000000002,0.0,14.900000000000002,21.200000000000003,-0.1,16
578,9831.0,-0.9,-0.6000000000000001,0.9,-10.3,2.0,0.30000000000000004,17.200000000000003,39.8,-4.0,16
579,9853.0,-0.2,-1.1,0.8,-9.600000000000001,1.5,0.1,20.7,40.2,-3.7000000000000006,16
580,9865.0,-0.2,-0.7000000000000001,0.5,-9.600000000000001,1.9000000000000001,-0.30000000000000004,23.6,33.800000000000004,-1.0,16
581,9882.0,-0.30000000000000004,-0.8,0.2,-9.700000000000001,1.8,-0.7000000000000001,25.1,25.7,-5.1000000000000005,16
582,9905.0,-2.8000000000000003,-0.4,-0.1,-12.200000000000001,2.1,-1.2000000000000002,25.8,20.1,-3.4,16
583,9915.0,-2.8000000000000003,-0.4,-0.1,-12.200000000000001,2.1,-1.2000000000000002,25.8,20.1,-3.4,16
584,9991.0,1.2000000000000002,-0.7000000000000001,1.9000000000000001,-8.200000000000001,1.9000000000000001,1.1,10.200000000000001,-69.7,-1.6,16
585,10004.0,0.30000000000000004,-0.8,2.4000000000000004,-9.1,1.8,1.8,17.1,-45.0,-2.1,16
586,10019.0,0.0,-0.5,2.6,-9.4,2.2,2.2,28.200000000000003,-6.9,-6.300000000000001,16
587,10031.0,0.1,-0.1,2.3000000000000003,-9.4,2.5,1.9000000000000001,32.1,9.3,-9.5,16
588,10048.0,0.4,0.2,1.4000000000000001,-9.1,2.7,1.0,40.0,33.7,-12.7,16
589,10065.0,-0.2,0.30000000000000004,0.5,-9.700000000000001,2.8000000000000003,0.0,38.2,39.599999999999994,-17.400000000000002,16
590,10081.0,-1.1,0.1,0.30000000000000004,-10.5,2.6,-0.4,33.9,21.300000000000004,-13.100000000000001,16
591,10098.0,-1.1,0.0,0.1,-10.600000000000001,2.5,-0.7000000000000001,32.9,11.3,-9.0,16
592,10135.0,0.30000000000000004,-1.2000000000000002,-1.2000000000000002,-9.1,1.2000000000000002,-2.0,21.6,16.5,-7.9,16
593,10148.0,-0.4,-1.5,-1.7000000000000002,-9.8,0.9,-2.6,10.9,30.799999999999997,-9.4,16
594,10165.0,-1.0,-1.3,-0.9,-10.5,1.0,-1.9000000000000001,14.200000000000001,48.800000000000004,-8.2,16
595,10193.0,-0.6000000000000001,-1.0,-2.4000000000000004,-10.0,1.3,-3.7,-2.9,30.200000000000003,-8.600000000000001,16
596,10213.0,-1.4000000000000001,-0.8,-1.1,-10.9,1.4000000000000001,-2.5,-8.100000000000001,-2.2,-4.7,16
597,10214.0,-1.4000000000000001,-0.8,-1.1,-10.9,1.4000000000000001,-2.5,-8.100000000000001,-2.2,-4.7,16
598,10236.0,-0.5,-1.3,0.2,-10.0,1.0,-1.1,-11.6,-37.800000000000004,2.0,16
599,10249.0,-1.5,-0.30000000000000004,1.9000000000000001,-10.0,1.0,-1.1,-12.8,-39.1,4.6,16
600,10271.0,-0.7000000000000001,0.0,2.1,-10.200000000000001,2.2,1.0,-5.6,-19.400000000000002,8.700000000000001,16
601,10281.0,0.5,-0.1,1.9000000000000001,-9.0,2.2,0.8,-3.3000000000000007,-5.9,8.2,16
602,10298.0,0.4,0.6000000000000001,3.4000000000000004,-9.1,2.9000000000000004,2.3000000000000003,7.200000000000001,17.6,0.9000000000000001,16
603,10315.0,0.4,1.0,2.8000000000000003,-9.1,3.3000000000000003,1.7000000000000002,30.1,27.0,-8.100000000000001,16
604,10332.0,0.4,0.2,0.8,-9.0,2.4000000000000004,-0.5,37.7,43.2,-15.700000000000001,16
605,10349.0,-0.2,-0.4,0.2,-9.600000000000001,1.8,-1.2000000000000002,31.799999999999997,53.2,-16.700000000000003,16
606,10384.0,-0.7000000000000001,-0.2,-0.2,-10.200000000000001,1.9000000000000001,-1.9000000000000001,30.200000000000003,32.6,-9.4,16
607,10408.0,-1.1,-0.4,-0.4,-10.5,1.6,-2.2,20.5,33.800000000000004,-6.2,16
608,10427.0,-1.1,-0.8,0.4,-10.5,1.2000000000000002,-1.6,21.300000000000004,26.200000000000003,0.2,16
609,10431.0,-1.1,-0.8,0.4,-10.5,1.2000000000000002,-1.6,20.7,20.8,0.7,16
610,10452.0,1.0,-1.1,-0.8,-8.4,0.9,-2.8000000000000003,13.6,22.000000000000004,-5.7,16
611,10465.0,0.5,-1.5,-1.6,-8.8,0.5,-3.7,-2.6,18.8,-12.4,16
612,10504.0,-0.1,0.1,0.5,-9.4,2.1,-1.6,-6.8,-12.5,13.3,16
613,10515.0,-0.1,0.1,0.5,-9.4,2.1,-1.6,-11.8,-8.100000000000001,11.2,16
614,10531.0,0.1,0.1,1.6,-9.200000000000001,2.1,-0.4,-9.100000000000001,-5.500000000000001,8.899999999999999,16
615,10551.0,0.30000000000000004,0.1,1.0,-9.1,2.1,-1.1,-3.7000000000000006,-2.5,6.600000000000001,16
616,10565.0,0.30000000000000004,0.1,1.0,-9.1,2.1,-1.1,-4.1,0.30000000000000004,6.699999999999999,16
617,10583.0,-0.4,0.7000000000000001,2.3000000000000003,-9.700000000000001,2.8000000000000003,0.30000000000000004,5.7,-9.3,9.899999999999999,16
618,10609.0,0.7000000000000001,0.0,2.0,-8.6,2.1,0.1,15.700000000000001,-22.8,-1.8000000000000003,16
619,10615.0,0.9,-0.30000000000000004,4.7,-8.5,1.8,2.8000000000000003,16.4,-29.600000000000005,-2.7,16
620,10633.0,1.1,-0.30000000000000004,2.4000000000000004,-8.3,1.8,0.6000000000000001,33.6,31.799999999999997,-6.4,16
621,10649.0,1.7000000000000002,-0.7000000000000001,0.5,-7.7,1.4000000000000001,-1.5,32.2,63.8,-7.300000000000001,16
622,10668.0,0.9,-0.7000000000000001,0.6000000000000001,-8.4,1.3,-1.6,27.800000000000004,55.60000000000001,-14.0,16
623,10696.0,0.1,-1.5,-0.4,-9.200000000000001,0.4,-2.8000000000000003,19.200000000000003,-12.9,-19.5,16
624,10701.0,0.1,-1.5,-0.4,-9.200000000000001,0.4,-2.8000000000000003,13.900000000000002,-19.799999999999997,-17.0,16
625,10715.0,-1.9000000000000001,-1.7000000000000002,0.2,-11.200000000000001,0.2,-2.1,9.8,-20.900000000000002,-13.100000000000001,16
626,10736.0,-1.6,-1.7000000000000002,0.1,-11.0,0.1,-2.2,-2.4000000000000004,16.5,2.5,16
627,10750.0,-1.0,-1.2000000000000002,-0.1,-10.3,0.7000000000000001,-2.4000000000000004,-6.0,26.5,3.7000000000000006,16
628,10765.0,-0.7000000000000001,-1.2000000000000002,-0.4,-10.100000000000001,0.6000000000000001,-2.7,-10.0,17.799999999999997,-1.5,16
629,10785.0,-0.7000000000000001,-1.0,0.5,-10.100000000000001,0.8,-1.9000000000000001,-5.0,20.400000000000002,-5.8,16
630,10808.0,0.0,-0.4,-2.0,-9.3,1.4000000000000001,-4.5,2.9,41.300000000000004,-17.5,16
631,10821.0,0.2,-0.5,-2.0,-9.1,1.3,-4.6000000000000005,-4.7,32.0,-20.2,16
632,10840.0,0.9,-2.3000000000000003,-1.4000000000000001,-8.3,-0.6000000000000001,-4.1000000000000005,-18.5,-15.000000000000002,-23.800000000000004,16
633,10849.0,0.9,-2.3000000000000003,-1.4000000000000001,-8.3,-0.6000000000000001,-4.1000000000000005,-23.800000000000004,-31.099999999999998,-22.2,16
634,10870.0,-5.800000000000001,-0.30000000000000004,-2.7,-15.100000000000001,1.4000000000000001,-5.2,-47.1,6.500000000000001,22.9,16
635,10881.0,-5.800000000000001,-0.30000000000000004,-2.7,-15.100000000000001,1.4000000000000001,-5.2,-59.1,26.300000000000004,35.0,16
636,10913.0,-2.6,3.1,2.1,-11.8,5.1000000000000005,-0.5,-70.5,16.4,51.4,16
637,10914.0,-2.6,3.1,2.1,-11.8,5.1000000000000005,-0.5,-70.5,16.4,51.4,16
638,10931.0,0.6000000000000001,3.1,1.8,-8.6,5.2,-0.7000000000000001,-43.300000000000004,-61.300000000000004,34.7,16
639,10948.0,0.0,0.1,1.9000000000000001,-9.200000000000001,2.4000000000000004,-0.30000000000000004,-52.2,-40.2,9.8,16
640,10965.0,-0.7000000000000001,0.5,2.9000000000000004,-10.0,2.9000000000000004,0.8,-36.7,-27.800000000000004,20.1,16
641,10982.0,1.4000000000000001,-0.30000000000000004,2.0,-7.9,2.2,0.0,-25.200000000000003,-12.8,19.700000000000003,16
642,11003.0,0.1,1.0,3.5,-9.200000000000001,3.5,1.5,-4.800000000000001,-11.1,16.3,16
643,11015.0,0.6000000000000001,1.1,3.0,-8.700000000000001,3.7,1.2000000000000002,0.9000000000000001,-3.8,9.3,16
644,11035.0,-0.30000000000000004,0.4,1.8,-9.600000000000001,3.0,-0.1,3.4,50.1,-3.0,16
645,11049.0,0.0,-1.4000000000000001,-1.0,-9.200000000000001,1.2000000000000002,-3.0,1.5,62.50000000000001,-2.7,16
646,11067.0,-1.8,-1.0,-1.7000000000000002,-11.0,1.6,-3.8000000000000003,-14.100000000000001,41.7,8.899999999999999,16
647,11088.0,-1.8,-1.0,-1.7000000000000002,-11.0,1.6,-3.9000000000000004,-23.2,11.000000000000002,18.1,16
648,11107.0,0.6000000000000001,-1.6,-0.9,-9.8,1.7000000000000002,-4.5,-56.2,-37.800000000000004,22.1,16
649,11115.0,0.6000000000000001,-1.6,-0.9,-8.6,1.1,-3.1,-60.8,-47.7,20.2,16
650,11132.0,-0.8,-0.7000000000000001,1.4000000000000001,-9.9,2.1,-0.7000000000000001,-55.2,-65.4,21.0,16
651,11154.0,-0.1,-0.6000000000000001,1.9000000000000001,-9.3,2.4000000000000004,0.30000000000000004,-50.400000000000006,-75.4,9.2,16
652,11165.0,-0.1,-0.6000000000000001,1.9000000000000001,-9.3,2.4000000000000004,0.30000000000000004,-47.3,-73.8,6.4,16
653,11188.0,-0.1,-0.4,2.4000000000000004,-9.3,2.6,1.2000000000000002,-36.400000000000006,-61.599999999999994,-6.500000000000001,16
654,11214.0,-1.5,-0.9,3.1,-10.700000000000001,2.1,2.1,-23.900000000000006,-61.39999999999999,-0.7,16
655,11242.0,2.9000000000000004,-3.8000000000000003,1.4000000000000001,-6.4,-0.8,0.8,-21.300000000000004,-32.8,-4.2,16
656,11250.0,1.9000000000000001,-2.2,3.3000000000000003,-6.4,-0.8,0.8,-21.300000000000004,-32.8,-4.2,16
657,11279.0,2.6,-2.0,3.8000000000000003,-6.7,1.0,3.4000000000000004,11.8,-54.1,-12.8,16
658,11281.0,3.6,-1.4000000000000001,3.0,-5.7,1.6,2.7,18.4,-48.9,-25.7,16
659,11303.0,2.7,-1.2000000000000002,2.5,-6.7,1.7000000000000002,2.3000000000000003,20.599999999999998,-8.2,-57.49999999999999,16
660,11328.0,1.4000000000000001,-0.9,3.1,-8.0,1.9000000000000001,2.9000000000000004,25.8,12.8,-59.20000000000001,16
661,11331.0,1.1,-0.6000000000000001,3.2,-8.3,2.1,3.0,34.50000000000001,20.400000000000002,-58.900000000000006,16
662,11348.0,1.2000000000000002,-0.2,2.3000000000000003,-8.3,2.2,2.0,44.00000000000001,19.5,-60.1,16
663,11365.0,0.2,0.0,2.0,-9.3,2.3000000000000003,1.7000000000000002,50.900000000000006,-3.9,-63.900000000000006,16
664,11386.0,-0.30000000000000004,-0.30000000000000004,1.5,-9.9,1.8,1.1,59.80000000000001,-43.4,-63.599999999999994,16
665,11398.0,-1.2000000000000002,-0.4,1.1,-10.8,1.6,0.8,60.400000000000006,-59.1,-57.00000000000001,16
666,11414.0,-1.3,-0.5,1.2000000000000002,-10.9,1.3,1.0,64.80000000000001,-70.0,-49.1,16
667,11431.0,-0.7000000000000001,-0.4,0.5,-10.4,1.3,0.5,66.0,-75.00000000000001,-48.10000000000001,16
668,11449.0,-1.0,-0.30000000000000004,-0.6000000000000001,-10.700000000000001,1.2000000000000002,-0.4,54.800000000000004,-83.10000000000001,-48.300000000000004,16
669,11477.0,-1.4000000000000001,-0.2,-0.5,-11.100000000000001,1.0,0.1,34.0,-102.89999999999999,-45.2,16
670,11487.0,-1.4000000000000001,-0.1,-0.2,-11.100000000000001,1.0,0.6000000000000001,25.6,-114.10000000000001,-40.300000000000004,16
671,11512.0,-1.0,0.1,0.6000000000000001,-10.700000000000001,1.2000000000000002,1.7000000000000002,22.000000000000004,-117.0,-40.0,16
672,11518.0,-0.30000000000000004,0.5,0.7000000000000001,-10.700000000000001,1.2000000000000002,1.7000000000000002,22.9,-113.60000000000001,-43.900000000000006,16
673,11538.0,0.0,0.30000000000000004,0.6000000000000001,-9.600000000000001,1.2000000000000002,2.4000000000000004,22.8,-101.80000000000001,-55.5,16
674,11559.0,-0.30000000000000004,0.1,0.5,-9.9,0.8,2.5,18.0,-87.50000000000001,-64.50000000000001,16
675,11569.0,-1.2000000000000002,0.2,0.8,-10.8,0.7000000000000001,3.1,16.900000000000002,-84.0,-63.2,16
676,11581.0,-1.8,0.4,1.6,-11.3,0.8,4.1000000000000005,20.0,-80.2,-58.0,16
677,11617.0,-1.2000000000000002,0.8,1.4000000000000001,-11.4,0.9,4.5,42.400000000000006,-72.0,-43.6,16
678,11631.0,-0.4,1.0,0.8,-9.8,1.1,3.8000000000000003,46.6,-67.7,-44.4,16
679,11653.0,-0.30000000000000004,1.1,0.5,-9.600000000000001,1.1,3.7,45.7,-70.3,-49.199999999999996,16
680,11665.0,-0.4,1.2000000000000002,0.5,-9.600000000000001,1.1,3.9000000000000004,43.800000000000004,-85.30000000000001,-52.00000000000001,16
681,11688.0,-0.1,1.1,0.0,-9.200000000000001,0.9,3.6,36.5,-127.00000000000003,-57.9,16
682,11701.0,0.1,1.0,-0.2,-8.9,0.7000000000000001,3.8000000000000003,33.2,-145.60000000000002,-71.8,16
683,11720.0,-0.6000000000000001,0.4,1.8,-9.4,0.1,6.0,45.3,-170.60000000000002,-74.30000000000001,16
684,11735.0,-0.9,0.7000000000000001,0.4,-9.600000000000001,0.2,5.1000000000000005,43.300000000000004,-202.30000000000004,-73.9,16
685,11748.0,-1.0,0.2,1.3,-9.3,-0.4,6.4,47.80000000000001,-201.60000000000002,-74.60000000000001,16
686,11768.0,-0.7000000000000001,0.1,0.2,-8.700000000000001,-0.6000000000000001,5.800000000000001,38.400000000000006,-165.5,-76.7,16
687,11792.0,-0.9,-0.30000000000000004,2.2,-8.4,-1.2000000000000002,8.5,27.3,-96.7,-65.7,16
688,11803.0,-1.3,-0.4,2.3000000000000003,-8.6,-1.4000000000000001,8.8,41.4,-51.70000000000001,-50.1,16
689,11817.0,-1.3,-0.4,2.3000000000000003,-8.6,-1.4000000000000001,8.8,48.6,-34.0,-41.50000000000001,16
690,11835.0,-0.1,-0.1,0.30000000000000004,-7.300000000000001,-1.1,6.9,62.300000000000004,18.200000000000003,-25.200000000000003,16
691,11854.0,0.30000000000000004,0.1,-0.4,-6.9,-0.8,6.2,54.50000000000001,31.9,-26.1,16
692,11868.0,-0.1,0.2,0.1,-7.4,-0.6000000000000001,6.6000000000000005,46.50000000000001,33.800000000000004,-27.800000000000004,16
693,11890.0,-0.1,0.2,0.8,-7.5,-0.6000000000000001,7.300000000000001,48.2,20.7,-25.4,16
694,11903.0,-0.5,-0.1,0.7000000000000001,-7.800000000000001,-0.9,7.1000000000000005,56.400000000000006,6.600000000000001,-21.7,16
695,11918.0,-0.30000000000000004,0.4,0.7000000000000001,-7.7,-0.30000000000000004,7.2,63.599999999999994,-18.900000000000002,-13.900000000000002,16
696,11932.0,0.30000000000000004,0.30000000000000004,0.8,-7.0,-0.4,7.300000000000001,69.20000000000002,-35.8,-13.200000000000003,16
697,11970.0,-0.2,0.0,0.1,-7.5,-0.6000000000000001,6.7,66.7,-51.50000000000001,-15.399999999999999,16
698,11981.0,0.9,0.30000000000000004,-0.6000000000000001,-6.2,-0.1,6.2,55.2,-50.60000000000001,-18.5,16
699,12004.0,0.5,0.30000000000000004,-0.9,-6.4,0.0,6.0,36.400000000000006,-42.800000000000004,-18.0,16
700,12017.0,0.0,0.6000000000000001,-0.4,-6.800000000000001,0.30000000000000004,6.6000000000000005,26.200000000000003,-31.3,-11.3,16
701,12031.0,0.1,0.4,0.1,-6.7,0.2,7.1000000000000005,21.0,-20.2,-7.9,16
702,12055.0,0.2,0.7000000000000001,0.5,-6.6000000000000005,0.6000000000000001,7.6000000000000005,14.800000000000002,11.700000000000001,-2.3,16
703,12072.0,0.6000000000000001,1.1,0.4,-6.2,1.0,7.5,14.400000000000002,24.3,0.1,16
704,12085.0,0.6000000000000001,1.1,0.4,-6.2,1.0,7.5,14.600000000000001,21.300000000000004,0.4,16
705,12099.0,0.7000000000000001,1.2000000000000002,0.5,-6.1000000000000005,1.1,7.5,16.6,15.899999999999999,-3.5,16
706,12120.0,0.1,1.3,0.4,-6.800000000000001,1.3,7.4,21.6,-1.9,-8.8,16
707,12132.0,0.1,1.3,0.4,-6.800000000000001,1.3,7.4,22.9,-7.300000000000001,-9.2,16
708,12148.0,-0.4,1.2000000000000002,0.7000000000000001,-7.2,1.2000000000000002,7.7,28.400000000000002,-28.600000000000005,-5.500000000000001,16
709,12164.0,-0.6000000000000001,1.0,0.9,-7.4,1.0,8.0,36.2,-50.3,2.4000000000000004,16
710,12185.0,-0.1,0.7000000000000001,0.4,-6.7,1.0,7.6000000000000005,47.5,-81.8,17.300000000000004,16
711,12198.0,-0.1,0.7000000000000001,0.4,-6.7,1.0,7.6000000000000005,48.800000000000004,-84.2,19.400000000000002,16
712,12214.0,0.1,0.30000000000000004,-0.1,-6.4,0.8,7.6000000000000005,49.699999999999996,-88.3,24.3,16
713,12231.0,0.1,0.30000000000000004,-0.1,-6.2,0.8,7.5,46.0,-81.3,30.9,16
714,12248.0,0.6000000000000001,-0.2,0.5,-5.300000000000001,0.7000000000000001,8.3,42.900000000000006,-53.10000000000001,33.9,16
715,12265.0,0.6000000000000001,-0.2,0.5,-5.300000000000001,0.7000000000000001,8.3,40.300000000000004,-33.400000000000006,33.6,16
716,12281.0,1.1,-0.1,-1.3,-4.7,1.0,6.5,13.6,-12.5,20.1,16
717,12298.0,0.7000000000000001,-0.1,-1.0,-5.0,1.0,6.9,-14.300000000000002,18.5,11.000000000000002,16
718,12318.0,0.0,-0.1,0.8,-5.800000000000001,1.0,8.6,-28.0,31.799999999999997,4.300000000000001,16
719,12352.0,-0.9,-0.5,1.0,-6.800000000000001,0.5,8.8,-20.2,42.0,9.700000000000001,16
720,12364.0,-0.6000000000000001,-0.6000000000000001,0.2,-6.6000000000000005,0.4,7.9,-21.300000000000004,41.50000000000001,10.9,16
721,12386.0,-0.6000000000000001,-0.4,-0.30000000000000004,-6.7,0.5,7.300000000000001,-28.500000000000004,27.0,14.400000000000002,16
722,12398.0,-0.8,-0.30000000000000004,0.4,-6.9,0.6000000000000001,7.9,-26.400000000000006,3.3000000000000007,16.0,16
723,12414.0,-0.5,0.0,0.0,-6.7,0.8,7.6000000000000005,-23.900000000000006,-17.9,17.7,16
724,12431.0,0.1,-0.30000000000000004,0.30000000000000004,-6.1000000000000005,0.5,7.9,-15.8,-43.70000000000001,19.5,16
725,12448.0,0.2,-0.6000000000000001,0.6000000000000001,-5.9,0.2,8.200000000000001,-8.8,-55.8,14.700000000000001,16
726,12465.0,0.0,-0.7000000000000001,1.0,-5.9,0.2,8.8,0.0,-60.5,13.900000000000002,16
727,12481.0,-0.1,-0.9,1.1,-5.9,0.0,8.9,7.9,-55.7,17.9,16
728,12498.0,0.0,-0.7000000000000001,0.6000000000000001,-5.7,0.2,8.6,13.3,-47.80000000000001,22.5,16
729,12514.0,0.1,-0.4,0.1,-5.4,0.6000000000000001,8.1,11.3,-46.6,20.3,16
730,12532.0,0.4,0.1,0.0,-5.4,1.1,8.0,9.0,-33.1,19.300000000000004,16
731,12548.0,0.4,0.1,0.0,-4.9,1.1,8.200000000000001,7.0,-20.900000000000002,12.5,16
732,12565.0,0.30000000000000004,0.30000000000000004,-0.30000000000000004,-5.0,1.4000000000000001,7.9,3.4,-15.299999999999999,8.600000000000001,16
733,12583.0,-0.30000000000000004,0.8,-1.4000000000000001,-5.6000000000000005,1.9000000000000001,6.800000000000001,-12.4,-26.6,-0.30000000000000004,16
734,12598.0,-0.7000000000000001,1.0,-0.8,-5.9,2.0,7.5,-22.2,-25.200000000000003,1.4,16
735,12614.0,-0.2,0.6000000000000001,0.2,-5.300000000000001,1.6,8.5,-24.8,-15.399999999999999,4.300000000000001,16
736,12631.0,0.4,0.30000000000000004,1.0,-4.7,1.3,9.3,-19.700000000000003,-5.9,1.6,16
737,12648.0,0.4,0.2,0.5,-4.7,1.2000000000000002,8.8,-14.800000000000002,9.4,-4.2,16
738,12665.0,-0.1,0.5,-0.6000000000000001,-5.300000000000001,1.4000000000000001,7.7,-15.899999999999999,28.500000000000004,-2.2,16
739,12688.0,-0.30000000000000004,0.4,-0.5,-5.5,1.3,7.7,-22.2,52.400000000000006,5.500000000000001,16
740,12711.0,0.0,0.6000000000000001,-0.30000000000000004,-5.4,1.4000000000000001,7.9,-27.099999999999998,49.699999999999996,14.800000000000002,16
741,12715.0,0.0,0.6000000000000001,-0.30000000000000004,-5.4,1.4000000000000001,7.9,-27.099999999999998,49.699999999999996,14.800000000000002,16
742,12734.0,0.1,0.7000000000000001,0.4,-5.5,1.5,8.5,-24.200000000000003,21.300000000000004,14.400000000000002,16
743,12748.0,0.1,0.8,0.7000000000000001,-5.5,1.5,8.700000000000001,-16.700000000000003,12.7,10.9,16
744,12766.0,0.0,0.5,1.0,-5.7,1.2000000000000002,9.0,-8.3,5.1000000000000005,10.299999999999999,16
745,12789.0,-1.3,0.5,1.6,-6.9,1.2000000000000002,9.600000000000001,2.6,-7.8,25.8,16
746,12798.0,-1.3,0.5,1.6,-6.9,1.2000000000000002,9.600000000000001,8.5,-11.900000000000002,33.1,16
747,12816.0,-0.5,-0.2,1.2000000000000002,-6.1000000000000005,0.6000000000000001,9.200000000000001,13.700000000000001,-17.400000000000002,39.300000000000004,16
748,12831.0,0.2,0.2,0.9,-5.300000000000001,1.1,9.0,15.2,-19.6,37.9,16
749,12851.0,0.7000000000000001,0.2,0.2,-4.7,1.2000000000000002,8.200000000000001,6.1000000000000005,-7.1000000000000005,28.0,16
750,12866.0,0.7000000000000001,0.2,0.2,-4.7,1.2000000000000002,8.200000000000001,2.1,-3.2,25.6,16
751,12891.0,-0.4,-0.4,0.6000000000000001,-5.9,0.8,8.700000000000001,-11.2,9.100000000000001,33.1,16
752,12905.0,-0.4,-0.5,1.0,-5.800000000000001,0.6000000000000001,9.0,-12.600000000000001,3.7000000000000006,40.2,16
753,12916.0,-0.30000000000000004,-0.6000000000000001,1.3,-5.800000000000001,0.6000000000000001,9.4,-12.100000000000001,-2.3,42.800000000000004,16
754,12938.0,0.1,-0.7000000000000001,1.7000000000000002,-5.300000000000001,0.5,9.8,-10.9,-20.599999999999998,49.1,16
755,12954.0,0.8,-0.4,1.3,-4.6000000000000005,0.9,9.4,-4.9,-12.299999999999999,50.1,16
756,12965.0,1.4000000000000001,-0.4,1.4000000000000001,-3.9000000000000004,0.9,9.600000000000001,0.30000000000000004,-2.4000000000000004,47.80000000000001,16
757,13001.0,1.2000000000000002,-0.30000000000000004,0.9,-4.1000000000000005,1.2000000000000002,9.0,15.8,8.4,37.9,16
758,13015.0,0.9,-0.30000000000000004,0.4,-4.3,1.2000000000000002,8.6,17.9,11.1,30.000000000000004,16
759,13032.0,0.7000000000000001,0.0,0.0,-4.6000000000000005,1.6,8.1,16.200000000000003,4.1,25.1,16
760,13048.0,0.5,0.0,0.0,-4.800000000000001,1.7000000000000002,8.1,11.700000000000001,-13.200000000000003,18.0,16
761,13065.0,-0.7000000000000001,-0.4,0.5,-6.0,1.3,8.6,10.700000000000001,-40.300000000000004,14.5,16
762,13094.0,-1.8,-0.9,2.0,-6.800000000000001,0.9,10.200000000000001,11.900000000000002,-101.30000000000001,18.6,16
763,13098.0,-1.8,-0.9,2.0,-6.800000000000001,0.9,10.200000000000001,16.3,-105.3,22.5,16
764,13115.0,-0.5,-1.2000000000000002,0.8,-5.2,0.7000000000000001,9.1,19.0,-90.9,22.3,16
765,13132.0,0.9,-0.9,-0.2,-3.6,1.1,8.200000000000001,17.300000000000004,-52.60000000000001,19.1,16
766,13150.0,1.2000000000000002,-0.8,-0.8,-3.1,1.2000000000000002,7.800000000000001,14.600000000000001,-3.6000000000000005,15.8,16
767,13165.0,1.4000000000000001,-1.2000000000000002,-0.5,-2.9000000000000004,0.9,8.1,15.700000000000001,37.0,6.9,16
768,13184.0,0.0,-0.4,-1.8,-4.5,1.8,6.7,5.1000000000000005,75.8,22.3,16
769,13214.0,0.5,-1.1,-1.4000000000000001,-4.1000000000000005,1.1,7.0,-10.700000000000001,111.9,30.000000000000004,16
770,13231.0,-0.7000000000000001,-0.8,-0.4,-5.800000000000001,1.4000000000000001,7.6000000000000005,-28.0,104.4,37.300000000000004,16
771,13249.0,-0.5,-0.5,1.5,-5.800000000000001,1.7000000000000002,9.4,-24.400000000000002,65.7,41.4,16
772,13265.0,0.30000000000000004,-0.2,1.7000000000000002,-5.1000000000000005,2.0,9.5,-8.600000000000001,32.7,45.5,16
773,13287.0,0.6000000000000001,-0.2,1.0,-4.800000000000001,2.1,8.8,9.3,-6.500000000000001,49.50000000000001,16
774,13300.0,0.8,-0.2,0.4,-4.6000000000000005,2.3000000000000003,8.200000000000001,10.700000000000001,-18.1,52.1,16
775,13315.0,1.4000000000000001,0.1,0.2,-3.9000000000000004,2.6,8.0,10.299999999999999,-31.400000000000002,55.0,16
776,13331.0,2.0,0.0,0.1,-3.2,2.6,8.0,11.900000000000002,-26.5,55.7,16
777,13348.0,2.8000000000000003,0.2,-0.8,-2.4000000000000004,2.9000000000000004,7.1000000000000005,12.8,1.7,53.50000000000001,16
778,13368.0,3.3000000000000003,0.2,-1.6,-1.8,3.0,6.300000000000001,-2.3,34.2,41.900000000000006,16
779,13382.0,3.4000000000000004,0.5,-0.9,-1.7000000000000002,3.3000000000000003,7.0,-10.0,32.1,32.0,16
780,13400.0,3.3000000000000003,0.9,0.1,-1.9000000000000001,3.8000000000000003,7.9,-7.500000000000001,24.5,20.1,16
781,13415.0,3.5,1.1,0.9,-1.7000000000000002,4.0,8.700000000000001,-1.2000000000000002,20.599999999999998,1.2000000000000002,16
782,13432.0,3.5,1.2000000000000002,0.9,-1.8,4.1000000000000005,8.6,3.0,18.1,-13.100000000000001,16
783,13448.0,3.2,0.9,0.6000000000000001,-2.1,3.9000000000000004,8.3,4.6,18.8,-29.700000000000006,16
784,13465.0,2.3000000000000003,0.7000000000000001,0.5,-3.0,3.5,8.200000000000001,4.1,20.3,-37.9,16
785,13482.0,1.4000000000000001,0.5,0.5,-4.0,3.4000000000000004,8.200000000000001,2.1,17.300000000000004,-38.1,16
786,13500.0,0.30000000000000004,0.4,0.6000000000000001,-5.2,3.1,8.200000000000001,-1.2000000000000002,11.700000000000001,-31.400000000000002,16
787,13517.0,-0.1,0.5,1.2000000000000002,-5.7,3.3000000000000003,8.8,0.0,3.7000000000000006,-23.700000000000003,16
788,13535.0,-0.8,0.6000000000000001,1.3,-6.300000000000001,3.2,9.0,5.6,-6.4,-11.1,16
789,13548.0,-0.8,0.5,1.0,-6.300000000000001,3.2,8.6,8.2,-7.699999999999999,-4.800000000000001,16
790,13565.0,-0.30000000000000004,0.5,0.8,-5.9,3.2,8.4,9.0,-3.9,1.4,16
791,13581.0,0.2,0.5,0.6000000000000001,-5.300000000000001,3.3000000000000003,8.200000000000001,9.0,-1.3,4.800000000000001,16
792,13602.0,0.6000000000000001,0.4,0.1,-4.9,3.2,7.7,7.400000000000001,1.4,5.500000000000001,16
793,13615.0,0.8,0.2,-0.5,-4.7,2.9000000000000004,7.1000000000000005,3.5,4.800000000000001,3.7000000000000006,16
794,13632.0,0.0,-0.2,-0.9,-5.2,2.8000000000000003,6.9,-7.200000000000001,13.5,1.8000000000000003,16
795,13648.0,-0.9,-0.30000000000000004,-0.7000000000000001,-6.2,2.7,7.0,-20.0,14.300000000000002,5.2,16
796,13665.0,-1.6,-0.5,0.1,-6.9,2.5,7.800000000000001,-26.000000000000004,3.1,11.000000000000002,16
797,13681.0,-1.8,-0.5,0.2,-7.1000000000000005,2.5,7.9,-28.1,-20.1,19.799999999999997,16
798,13698.0,-1.4000000000000001,-0.7000000000000001,0.30000000000000004,-6.6000000000000005,2.2,8.1,-30.000000000000004,-41.50000000000001,24.0,16
799,13719.0,-1.1,-1.0,1.0,-6.2,1.9000000000000001,8.9,-30.699999999999996,-48.400000000000006,26.400000000000006,16
800,13732.0,-0.6000000000000001,-1.0,1.7000000000000002,-5.6000000000000005,1.9000000000000001,9.700000000000001,-22.2,-24.3,27.0,16
801,13750.0,0.0,-0.8,1.3,-4.9,2.0,9.3,-17.7,1.3,25.1,16
802,13765.0,0.2,-0.4,0.5,-4.7,2.4000000000000004,8.5,-18.0,16.5,22.1,16
803,13796.0,0.0,-0.30000000000000004,-0.5,-4.800000000000001,2.5,7.5,-23.2,7.400000000000001,18.200000000000003,16
804,13805.0,-0.2,-0.5,-0.30000000000000004,-5.0,2.2,7.800000000000001,-29.1,-5.9,18.5,16
805,13818.0,-0.2,-0.5,-0.30000000000000004,-5.0,2.2,7.800000000000001,-31.2,-6.4,19.0,16
806,13831.0,-0.5,-0.9,-0.30000000000000004,-5.300000000000001,1.8,7.800000000000001,-37.1,1.0,21.7,16
807,13848.0,-1.1,-1.0,-0.1,-5.9,1.6,8.0,-42.0,10.5,28.400000000000002,16
808,13865.0,-0.5,-0.7000000000000001,0.5,-6.0,1.6,8.4,-43.00000000000001,20.599999999999998,39.0,16
809,13881.0,0.0,-0.30000000000000004,0.0,-5.4,1.8,8.6,-40.4,26.300000000000004,41.900000000000006,16
810,13899.0,-0.5,0.0,0.1,-5.4,2.4000000000000004,8.200000000000001,-43.6,24.3,35.2,16
811,13926.0,-1.0,-0.2,0.4,-6.0,2.2,8.6,-49.50000000000001,21.0,29.700000000000006,16
812,13940.0,-2.2,-0.5,1.3,-7.1000000000000005,1.8,9.4,-48.2,27.2,34.300000000000004,16
813,13952.0,-2.5,-0.7000000000000001,0.4,-7.5,1.6,8.6,-49.699999999999996,33.400000000000006,40.6,16
814,13965.0,-2.6,-0.4,0.0,-7.7,1.8,8.1,-53.10000000000001,41.7,58.60000000000001,16
815,13982.0,-1.9000000000000001,-0.6000000000000001,-0.2,-7.0,1.6,7.9,-56.0,35.3,72.30000000000001,16
816,13998.0,-1.7000000000000002,-0.5,-0.4,-6.800000000000001,1.7000000000000002,7.6000000000000005,-54.199999999999996,25.200000000000003,81.90000000000002,16
817,14019.0,-1.6,-0.1,-0.8,-6.7,2.0,7.300000000000001,-51.4,8.700000000000001,94.9,16
818,14032.0,-0.9,0.0,-0.9,-6.0,2.1,7.1000000000000005,-46.800000000000004,-3.3000000000000007,103.89999999999999,16
819,14054.0,-0.1,0.1,-0.9,-5.2,2.3000000000000003,7.2,-40.7,-11.4,105.3,16
820,14065.0,1.1,0.4,-0.4,-3.9000000000000004,2.7,7.7,-30.9,-18.1,98.7,16
821,14088.0,2.7,1.1,-0.5,-2.8000000000000003,3.2,7.4,-30.1,8.899999999999999,74.30000000000001,16
822,14105.0,3.8000000000000003,1.3,0.1,-1.0,3.7,8.3,-33.300000000000004,27.800000000000004,55.5,16
823,14115.0,3.8000000000000003,1.3,0.1,-1.0,3.7,8.3,-29.900000000000006,34.7,43.4,16
824,14135.0,2.3000000000000003,0.5,1.5,-1.4000000000000001,3.5,9.4,-20.2,40.9,26.799999999999997,16
825,14150.0,2.3000000000000003,0.5,1.5,-2.6,2.8000000000000003,9.700000000000001,-6.2,42.1,17.6,16
826,14165.0,1.2000000000000002,0.2,1.4000000000000001,-3.8000000000000003,2.6,9.5,3.0,34.2,16.200000000000003,16
827,14183.0,0.6000000000000001,0.5,1.0,-4.5,2.9000000000000004,9.0,9.3,12.5,18.200000000000003,16
828,14199.0,1.0,0.5,0.9,-4.5,2.9000000000000004,9.0,9.899999999999999,6.4,17.0,16
829,14215.0,1.1,0.5,0.5,-4.1000000000000005,3.0,8.9,10.9,-0.9000000000000001,9.5,16
830,14232.0,0.9,0.30000000000000004,0.2,-4.2,2.9000000000000004,8.200000000000001,9.700000000000001,0.8,-5.6,16
831,14248.0,0.7000000000000001,0.2,0.2,-4.3,2.7,8.200000000000001,9.899999999999999,5.6,-12.4,16
832,14265.0,0.6000000000000001,0.2,0.30000000000000004,-4.5,2.7,8.3,12.5,-0.5,-16.4,16
833,14283.0,0.5,0.2,0.2,-4.5,2.8000000000000003,8.1,15.5,-8.3,-19.6,16
834,14298.0,0.6000000000000001,0.2,0.4,-4.4,2.8000000000000003,8.4,19.300000000000004,-17.9,-23.099999999999998,16
835,14322.0,1.1,0.1,0.8,-3.9000000000000004,2.7,8.8,31.099999999999998,-28.1,-36.5,16
836,14331.0,0.1,-0.2,0.4,-4.800000000000001,2.4000000000000004,8.5,34.2,-27.2,-42.1,16
837,14348.0,-2.1,-0.6000000000000001,0.2,-7.0,2.0,8.200000000000001,36.7,-26.799999999999997,-43.00000000000001,16
838,14375.0,-3.2,-0.6000000000000001,-0.5,-8.1,2.1,7.6000000000000005,32.5,-6.1000000000000005,-22.1,16
839,14382.0,-3.2,-0.6000000000000001,-0.5,-8.1,2.1,7.6000000000000005,28.3,-0.6000000000000001,-18.0,16
840,14399.0,-3.4000000000000004,0.0,-0.9,-8.3,2.7,7.1000000000000005,17.0,5.8,-11.700000000000001,16
841,14415.0,-3.1,0.0,-1.1,-8.1,2.8000000000000003,6.9,2.2,6.300000000000001,-7.300000000000001,16
842,14431.0,-2.9000000000000004,0.0,-0.8,-7.9,2.8000000000000003,7.2,-8.700000000000001,6.2,-2.9,16
843,14448.0,-2.5,-0.5,0.1,-7.5,2.2,8.1,-12.100000000000001,6.8,2.6,16
844,14470.0,0.30000000000000004,-1.5,1.1,-4.7,1.2000000000000002,9.1,-9.2,26.000000000000004,16.6,16
845,14481.0,0.30000000000000004,-1.5,1.1,-4.7,1.2000000000000002,9.1,-7.8,35.9,17.9,16
846,14500.0,3.1,-1.4000000000000001,1.4000000000000001,-3.0,1.1,9.0,-7.8,69.4,9.2,16
847,14515.0,3.1,-1.4000000000000001,1.4000000000000001,-2.1,1.3,9.200000000000001,-6.500000000000001,81.90000000000002,-1.8000000000000003,16
848,14531.0,0.6000000000000001,-1.4000000000000001,1.4000000000000001,-5.0,1.3,9.1,-3.7000000000000006,76.1,-15.700000000000001,16
849,14551.0,-0.30000000000000004,-1.3,1.8,-6.0,1.4000000000000001,9.3,-2.3,51.70000000000001,-21.0,16
850,14565.0,-1.0,-1.3,2.0,-6.9,1.3,9.5,3.0,31.400000000000002,-21.200000000000003,16
851,14581.0,-1.1,-1.4000000000000001,2.0,-7.0,1.2000000000000002,9.4,12.4,8.4,-19.0,16
852,14603.0,-0.6000000000000001,-1.4000000000000001,1.3,-6.5,1.1,8.700000000000001,23.2,-16.8,-16.8,16
853,14615.0,0.2,-1.5,0.4,-5.7,1.1,7.800000000000001,24.3,-22.1,-16.8,16
854,14635.0,1.0,-1.5,-0.5,-4.800000000000001,1.1,6.9,22.2,-28.3,-19.6,16
855,14648.0,1.4000000000000001,-1.4000000000000001,-1.2000000000000002,-4.4,1.2000000000000002,6.300000000000001,19.6,-28.1,-20.400000000000002,16
856,14665.0,1.5,-1.3,-1.6,-4.2,1.3,5.9,12.7,-25.300000000000004,-22.3,16
857,14681.0,1.5,-1.1,-1.5,-4.2,1.5,6.1000000000000005,6.9,-22.6,-22.9,16
858,14698.0,1.3,-0.9,-1.3,-4.4,1.7000000000000002,6.300000000000001,-1.0,-19.0,-25.0,16
859,14715.0,0.8,-0.6000000000000001,-0.8,-4.800000000000001,1.9000000000000001,6.800000000000001,-3.6000000000000005,-18.3,-24.8,16
860,14734.0,0.4,-0.5,-0.2,-5.2,2.1,7.4,-2.8,-17.200000000000003,-23.0,16
861,14749.0,0.1,-0.30000000000000004,0.2,-5.6000000000000005,2.1,7.9,0.4,-12.7,-19.700000000000003,16
862,14768.0,-0.1,0.0,0.30000000000000004,-5.7,2.3000000000000003,8.1,3.8,-4.300000000000001,-14.900000000000002,16
863,14781.0,0.0,0.30000000000000004,0.2,-5.5,2.5,8.0,5.9,1.8000000000000003,-12.0,16
864,14809.0,-0.2,0.4,-0.2,-5.7,2.6,7.6000000000000005,2.8,2.4000000000000004,-7.1000000000000005,16
865,14817.0,-0.2,0.4,-0.2,-5.7,2.6,7.6000000000000005,2.8,2.4000000000000004,-7.1000000000000005,16
866,14832.0,-0.5,0.4,-0.2,-6.1000000000000005,2.6,7.5,-0.9000000000000001,3.7000000000000006,-1.7,16
867,14854.0,0.1,0.7000000000000001,0.6000000000000001,-5.6000000000000005,2.9000000000000004,8.3,-1.9,5.6,5.0,16
868,14865.0,1.0,1.1,1.1,-4.6000000000000005,3.3000000000000003,8.8,0.6000000000000001,10.600000000000001,4.4,16
869,14882.0,1.8,1.4000000000000001,1.6,-3.8000000000000003,3.7,9.3,3.9,19.300000000000004,-0.8,16
870,14902.0,1.8,1.4000000000000001,1.6,-3.8000000000000003,3.7,9.3,6.600000000000001,23.099999999999998,-4.9,16
871,14915.0,2.6,1.4000000000000001,2.3000000000000003,-3.2,3.6,9.9,20.5,42.60000000000001,-28.1,16
872,14932.0,0.2,0.7000000000000001,1.3,-5.7,3.0,8.9,29.300000000000004,57.1,-46.7,16
873,14959.0,-4.6000000000000005,-0.5,0.30000000000000004,-10.9,1.7000000000000002,7.5,21.400000000000002,92.7,-21.900000000000002,16
874,14964.0,-4.6000000000000005,-0.5,0.30000000000000004,-10.9,1.7000000000000002,7.5,21.400000000000002,92.7,-21.900000000000002,16
875,14989.0,-5.2,0.0,-0.8,-11.600000000000001,2.2,6.2,6.0,90.1,12.200000000000001,16
876,15000.0,-5.4,-0.30000000000000004,-1.1,-12.0,2.0,5.800000000000001,-5.6,52.900000000000006,29.500000000000004,16
877,15014.0,-4.9,-0.6000000000000001,-0.7000000000000001,-11.600000000000001,1.6,6.1000000000000005,-7.500000000000001,30.1,37.400000000000006,16
878,15036.0,-2.8000000000000003,-1.0,-0.8,-9.5,1.3,5.9,-6.4,-23.099999999999998,57.3,16
879,15107.0,-0.4,-0.8,-1.0,-6.7,1.8,6.1000000000000005,-57.00000000000001,2.2,48.800000000000004,16
880,15114.0,-0.4,-0.8,-1.0,-6.7,1.8,6.1000000000000005,-59.699999999999996,9.2,47.60000000000001,16
881,15131.0,-0.7000000000000001,-0.7000000000000001,0.2,-7.0,1.9000000000000001,7.300000000000001,-60.300000000000004,29.400000000000002,42.7,16
882,15148.0,-1.2000000000000002,-0.2,1.6,-7.5,2.4000000000000004,8.6,-51.0,37.400000000000006,39.2,16
883,15164.0,-1.5,0.30000000000000004,2.1,-7.800000000000001,2.8000000000000003,9.1,-35.0,31.799999999999997,34.900000000000006,16
884,15181.0,-1.2000000000000002,0.5,0.9,-8.0,2.9000000000000004,8.8,-19.200000000000003,4.4,29.900000000000006,16
885,15202.0,-0.6000000000000001,0.30000000000000004,-0.1,-7.0,2.8000000000000003,6.9,-13.200000000000003,-15.6,28.1,16
886,15214.0,0.0,0.1,-0.9,-6.300000000000001,2.6,6.2,-10.9,-28.1,29.0,16
887,15231.0,0.4,0.0,-1.6,-5.800000000000001,2.5,5.5,-11.4,-32.8,29.900000000000006,16
888,15248.0,0.6000000000000001,-0.2,-2.1,-5.6000000000000005,2.4000000000000004,5.1000000000000005,-16.0,-34.7,31.099999999999998,16
889,15264.0,0.5,-0.2,-2.3000000000000003,-5.5,2.4000000000000004,4.9,-20.400000000000002,-32.2,32.7,16
890,15281.0,0.4,-0.2,-2.2,-5.6000000000000005,2.4000000000000004,5.2,-26.200000000000003,-26.799999999999997,35.9,16
891,15305.0,-0.1,0.0,-1.7000000000000002,-6.0,2.6,5.7,-32.9,-17.200000000000003,40.0,16
892,15322.0,0.0,0.0,-0.9,-5.800000000000001,2.6,6.5,-32.8,-11.2,39.599999999999994,16
893,15335.0,0.2,0.1,-0.7000000000000001,-5.6000000000000005,2.8000000000000003,6.800000000000001,-32.0,4.1,36.400000000000006,16
894,15349.0,0.30000000000000004,0.1,-0.5,-5.4,2.7,7.0,-33.0,17.400000000000002,32.0,16
895,15372.0,0.4,0.2,0.1,-5.4,2.7,7.6000000000000005,-32.2,31.7,24.400000000000002,16
896,15383.0,0.4,0.2,0.1,-5.4,2.7,7.6000000000000005,-30.699999999999996,33.400000000000006,22.6,16
897,15398.0,0.5,0.2,0.4,-5.300000000000001,2.7,7.9,-25.900000000000002,32.5,18.200000000000003,16
898,15414.0,0.8,0.2,0.6000000000000001,-5.1000000000000005,2.7,8.1,-21.8,29.400000000000002,12.8,16
899,15431.0,1.3,0.2,1.0,-4.6000000000000005,2.7,8.4,-15.5,26.200000000000003,4.1,16
900,15448.0,1.5,0.1,1.2000000000000002,-4.5,2.5,8.6,-9.3,22.700000000000003,-4.7,16
901,15464.0,1.4000000000000001,-0.1,1.6,-4.6000000000000005,2.3000000000000003,8.9,1.8000000000000003,14.0,-15.000000000000002,16
902,15481.0,0.8,-0.30000000000000004,1.8,-5.2,2.2,9.1,16.3,-3.1,-20.400000000000002,16
903,15512.0,0.6000000000000001,-0.30000000000000004,0.7000000000000001,-5.4,2.2,8.1,36.400000000000006,-36.6,-27.700000000000003,16
904,15515.0,0.6000000000000001,-0.30000000000000004,0.7000000000000001,-5.4,2.2,8.1,36.400000000000006,-36.6,-27.700000000000003,16
905,15532.0,-0.7000000000000001,-0.5,-1.0,-6.6000000000000005,2.0,6.4,32.8,-48.800000000000004,-39.699999999999996,16
906,15548.0,-2.2,-0.9,-1.3,-8.1,1.6,6.2,22.3,-45.9,-35.699999999999996,16
907,15564.0,-2.6,-0.9,-1.2000000000000002,-8.3,1.6,6.300000000000001,12.0,-30.5,-28.1,16
908,15581.0,-3.4000000000000004,-0.2,-1.3,-9.1,2.2,6.300000000000001,2.8,-14.600000000000001,-24.900000000000002,16
909,15598.0,-4.2,0.0,-0.4,-9.9,2.4000000000000004,7.2,-6.4,-11.2,-23.0,16
910,15615.0,-4.7,-0.2,0.4,-10.4,2.1,8.0,-4.0,-12.8,-18.8,16
911,15631.0,-4.3,-0.8,0.0,-10.0,1.6,7.7,1.2000000000000002,-7.500000000000001,-6.4,16
912,15648.0,-2.7,-1.0,-0.7000000000000001,-8.4,1.4000000000000001,6.9,0.2,4.300000000000001,4.5,16
913,15664.0,-0.4,-0.7000000000000001,-0.8,-6.1000000000000005,1.6,6.800000000000001,-7.699999999999999,26.9,10.299999999999999,16
914,15681.0,1.7000000000000002,-0.30000000000000004,-0.2,-4.0,2.0,7.4,-24.599999999999998,89.8,2.1,16
915,15698.0,2.5,-0.2,2.3000000000000003,-3.4000000000000004,2.1,9.700000000000001,-20.2,115.60000000000001,-8.700000000000001,16
916,15714.0,0.30000000000000004,-0.9,2.8000000000000003,-5.800000000000001,1.4000000000000001,10.100000000000001,-4.300000000000001,119.0,-13.200000000000003,16
917,15731.0,-0.7000000000000001,-1.0,2.2,-7.1000000000000005,1.3,9.3,4.0,90.9,-6.2,16
918,15748.0,-1.2000000000000002,-1.3,1.5,-7.800000000000001,0.9,8.4,6.8,59.20000000000001,-1.3,16
919,15764.0,-0.6000000000000001,-1.3,1.5,-7.4,0.9,8.3,9.600000000000001,38.0,1.5,16
920,15781.0,0.2,-1.3,1.4000000000000001,-6.6000000000000005,0.9,8.200000000000001,16.5,23.400000000000002,-1.0,16
921,15805.0,1.5,-1.4000000000000001,-0.30000000000000004,-5.4,0.9,6.4,21.8,-5.300000000000001,-8.4,16
922,15815.0,1.5,-1.4000000000000001,-0.30000000000000004,-5.4,0.9,6.4,21.200000000000003,-11.900000000000002,-11.2,16
923,15831.0,1.8,-1.5,-0.9,-5.1000000000000005,0.8,5.800000000000001,18.200000000000003,-23.6,-16.5,16
924,15850.0,1.4000000000000001,-1.3,-0.9,-5.4,1.0,5.800000000000001,13.3,-29.800000000000004,-19.6,16
925,15865.0,1.1,-1.0,-0.9,-5.7,1.3,5.9,10.1,-29.200000000000003,-20.2,16
926,15884.0,0.7000000000000001,-0.9,-0.7000000000000001,-6.0,1.4000000000000001,6.1000000000000005,5.8,-25.6,-18.6,16
927,15900.0,0.6000000000000001,-0.7000000000000001,-0.4,-6.1000000000000005,1.5,6.4,2.8,-19.799999999999997,-16.900000000000002,16
928,15928.0,0.8,0.1,0.4,-5.9,2.3000000000000003,7.300000000000001,-0.5,-6.9,-15.000000000000002,16
929,15932.0,0.8,0.1,0.4,-5.9,2.3000000000000003,7.300000000000001,-0.5,-6.9,-15.000000000000002,16
930,15948.0,1.0,0.30000000000000004,0.8,-5.7,2.5,7.7,2.5,0.4,-15.399999999999999,16
931,15965.0,0.7000000000000001,0.5,0.9,-6.0,2.6,7.800000000000001,6.699999999999999,4.0,-16.900000000000002,16
932,15981.0,0.2,0.5,0.8,-6.5,2.6,7.7,10.700000000000001,2.6,-16.5,16
933,15998.0,-0.30000000000000004,0.5,0.6000000000000001,-6.9,2.6,7.5,14.5,-5.0,-12.8,16
934,16018.0,-1.1,0.2,-0.2,-7.800000000000001,2.4000000000000004,6.7,9.100000000000001,-5.0,-4.7,16
935,16031.0,-1.6,0.1,-0.4,-8.200000000000001,2.2,6.5,1.9,0.0,9.5,16
936,16049.0,-1.1,0.30000000000000004,-0.1,-7.7,2.5,6.800000000000001,-2.1,1.0,18.3,16
937,16065.0,0.1,0.6000000000000001,0.6000000000000001,-6.5,2.8000000000000003,7.5,-2.0,6.600000000000001,20.1,16
938,16088.0,2.1,0.6000000000000001,2.1,-4.6000000000000005,2.8000000000000003,9.0,4.2,29.900000000000006,3.7000000000000006,16
939,16103.0,0.8,0.30000000000000004,1.8,-5.9,2.5,8.6,8.700000000000001,49.9,-11.2,16
940,16122.0,-0.9,-0.30000000000000004,0.8,-7.7,1.9000000000000001,7.5,7.500000000000001,71.6,-16.700000000000003,16
941,16131.0,-0.9,-0.30000000000000004,0.8,-7.7,1.9000000000000001,7.5,4.800000000000001,79.3,-15.5,16
942,16148.0,-2.3000000000000003,-0.8,0.30000000000000004,-9.3,1.4000000000000001,6.800000000000001,-2.7,91.8,-8.2,16
943,16165.0,-3.6,-0.5,-0.5,-10.4,1.6,6.7,-6.9,91.90000000000002,4.1,16
944,16182.0,-4.0,-0.6000000000000001,0.8,-11.4,1.6,6.800000000000001,-16.900000000000002,72.2,19.0,16
945,16201.0,-2.8000000000000003,-0.7000000000000001,1.1,-10.3,1.5,6.9,-10.299999999999999,37.6,29.500000000000004,16
946,16215.0,-1.4000000000000001,-0.5,0.5,-8.9,1.7000000000000002,6.300000000000001,-3.5,-7.300000000000001,33.50000000000001,16
947,16231.0,0.5,-0.6000000000000001,0.9,-7.0,1.7000000000000002,6.800000000000001,3.3000000000000007,-38.1,31.2,16
948,16249.0,1.2000000000000002,-1.1,-0.8,-6.300000000000001,1.3,5.1000000000000005,9.899999999999999,-56.6,26.9,16
949,16265.0,0.5,-1.4000000000000001,-2.0,-6.800000000000001,1.0,4.1000000000000005,2.2,-59.60000000000001,24.1,16
950,16283.0,0.2,-1.8,-2.7,-7.0,0.8,3.5,-7.1000000000000005,-57.9,28.1,16
951,16305.0,-0.2,-1.7000000000000002,-2.7,-7.2,0.9,3.6,-26.200000000000003,-42.900000000000006,33.7,16
952,16315.0,-0.30000000000000004,-1.3,-1.6,-7.300000000000001,1.3,4.800000000000001,-40.5,-26.6,36.2,16
953,16331.0,-0.7000000000000001,-0.5,-0.2,-7.6000000000000005,2.0,6.2,-45.099999999999994,-7.300000000000001,32.7,16
954,16348.0,-1.4000000000000001,0.1,0.9,-8.200000000000001,2.6,7.4,-34.900000000000006,-3.6000000000000005,27.9,16
955,16366.0,-1.4000000000000001,0.5,1.3,-8.200000000000001,3.0,7.800000000000001,-24.900000000000002,2.1,20.7,16
956,16382.0,-1.6,0.7000000000000001,0.8,-8.4,3.2,7.4,-15.399999999999999,5.4,17.400000000000002,16
957,16403.0,-1.1,0.4,-0.2,-7.9,2.9000000000000004,6.4,-10.700000000000001,1.8000000000000003,16.5,16
958,16417.0,-0.7000000000000001,0.0,-1.3,-7.5,2.6,5.300000000000001,-13.399999999999999,-7.0,17.300000000000004,16
959,16431.0,-0.30000000000000004,-0.1,-1.6,-7.2,2.5,5.0,-18.1,-16.700000000000003,18.900000000000002,16
960,16450.0,-0.4,-0.2,-1.2000000000000002,-7.1000000000000005,2.3000000000000003,5.4,-20.900000000000002,-25.1,22.3,16
961,16465.0,-0.2,-0.4,-0.9,-6.9,2.2,5.800000000000001,-21.0,-28.900000000000002,24.5,16
962,16487.0,0.5,-0.4,-0.6000000000000001,-6.1000000000000005,2.2,6.2,-20.3,-28.800000000000004,25.900000000000002,16
963,16501.0,0.9,-0.30000000000000004,-0.4,-5.7,2.2,6.4,-18.200000000000003,-26.000000000000004,24.7,16
964,16515.0,0.9,-0.30000000000000004,-0.4,-5.7,2.2,6.4,-16.5,-24.400000000000002,23.3,16
965,16531.0,1.3,-0.30000000000000004,-0.1,-5.2,2.2,6.800000000000001,-8.600000000000001,-18.6,14.600000000000001,16
966,16549.0,1.0,-0.2,-0.5,-5.5,2.3000000000000003,6.4,-5.0,-11.700000000000001,9.0,16
967,16565.0,0.8,-0.2,-0.7000000000000001,-5.7,2.3000000000000003,6.2,-5.2,-5.6,5.1000000000000005,16
968,16581.0,0.4,-0.1,-0.5,-6.0,2.4000000000000004,6.4,-6.2,-2.7,-0.2,16
969,16610.0,0.6000000000000001,0.4,0.2,-5.800000000000001,2.9000000000000004,7.2,-4.9,-4.300000000000001,-6.500000000000001,16
970,16616.0,0.6000000000000001,0.4,0.2,-5.800000000000001,2.9000000000000004,7.2,-4.9,-4.300000000000001,-6.500000000000001,16
971,16631.0,1.0,0.6000000000000001,0.30000000000000004,-5.5,3.1,7.300000000000001,-2.6,-4.9,-10.700000000000001,16
972,16650.0,1.0,0.8,0.6000000000000001,-5.5,3.2,7.6000000000000005,0.6000000000000001,-9.100000000000001,-17.0,16
973,16665.0,0.9,0.8,1.0,-5.4,3.3000000000000003,8.1,7.8,-14.400000000000002,-20.3,16
974,16689.0,0.7000000000000001,0.7000000000000001,0.8,-5.7,3.1,7.9,15.6,-21.8,-25.300000000000004,16
975,16702.0,0.7000000000000001,0.7000000000000001,0.8,-5.7,3.1,7.9,17.5,-29.1,-27.700000000000003,16
976,16715.0,0.2,0.7000000000000001,1.0,-6.1000000000000005,3.1,8.1,22.6,-43.50000000000001,-29.1,16
977,16731.0,-0.30000000000000004,0.7000000000000001,1.6,-6.5,3.2,8.8,33.400000000000006,-61.0,-28.200000000000003,16
978,16749.0,0.2,0.4,1.0,-5.9,2.9000000000000004,8.3,37.9,-73.2,-30.9,16
979,16765.0,-0.2,0.8,0.7000000000000001,-6.2,3.3000000000000003,8.0,38.7,-74.7,-34.60000000000001,16
980,16781.0,0.4,-0.1,0.6000000000000001,-5.5,2.4000000000000004,8.0,44.10000000000001,-73.6,-43.800000000000004,16
981,16805.0,-2.4000000000000004,-0.30000000000000004,-0.9,-8.1,2.2,6.800000000000001,28.400000000000002,-53.9,-56.10000000000001,16
982,16815.0,-2.4000000000000004,-0.30000000000000004,-0.9,-8.1,2.2,6.800000000000001,19.5,-41.7,-55.5,16
983,16831.0,-5.300000000000001,-0.9,1.6,-10.9,1.5,9.4,8.8,-18.0,-40.5,16
984,16851.0,-5.6000000000000005,-1.5,1.5,-11.200000000000001,0.9,9.200000000000001,12.5,-21.300000000000004,-12.7,16
985,16864.0,-3.9000000000000004,-1.8,1.3,-9.4,0.6000000000000001,9.1,17.0,-48.300000000000004,10.5,16
986,16881.0,-1.5,-1.1,0.5,-6.9,1.4000000000000001,8.4,17.1,-84.80000000000001,23.5,16
987,16909.0,3.6,-1.6,0.6000000000000001,-1.5,0.9,8.5,12.7,-66.60000000000001,5.4,16
988,16915.0,4.9,-1.7000000000000002,0.8,-0.1,0.8,8.9,8.2,-50.3,-10.1,16
989,16932.0,2.9000000000000004,-1.4000000000000001,2.7,-2.0,1.2000000000000002,10.8,9.899999999999999,-20.1,-39.50000000000001,16
990,16950.0,0.7000000000000001,-1.7000000000000002,2.6,-4.2,0.9,10.700000000000001,20.2,-23.5,-54.800000000000004,16
991,16965.0,-1.4000000000000001,-1.1,2.7,-6.300000000000001,1.4000000000000001,10.9,26.000000000000004,-37.9,-53.0,16
992,16981.0,-1.2000000000000002,-1.4000000000000001,1.7000000000000002,-6.0,1.1,9.8,28.0,-68.9,-49.800000000000004,16
993,17006.0,-1.1,-1.2000000000000002,1.2000000000000002,-5.800000000000001,1.4000000000000001,9.4,24.400000000000002,-130.70000000000002,-49.6,16
994,17015.0,-0.9,-0.6000000000000001,1.6,-5.300000000000001,1.9000000000000001,9.9,26.300000000000004,-172.8,-42.2,16
995,17033.0,-0.5,-0.8,0.1,-4.6000000000000005,1.7000000000000002,8.6,23.099999999999998,-181.50000000000003,-42.7,16
996,17048.0,0.0,-0.8,-0.30000000000000004,-3.7,1.7000000000000002,8.4,25.4,-174.3,-37.7,16
997,17065.0,0.6000000000000001,-1.1,-1.4000000000000001,-2.7,1.5,7.5,26.1,-161.10000000000002,-34.300000000000004,16
998,17083.0,-0.6000000000000001,-0.9,-1.7000000000000002,-3.5,1.7000000000000002,7.300000000000001,26.700000000000003,-136.3,-24.3,16
999,17106.0,-0.5,-0.9,-3.2,-2.7,1.7000000000000002,5.9,31.9,-88.3,-11.6,16
1000,17115.0,-0.5,-0.9,-3.2,-2.7,1.7000000000000002,5.9,28.700000000000003,-75.00000000000001,-7.300000000000001,16
1001,17131.0,-0.8,-0.2,-3.9000000000000004,-2.9000000000000004,2.5,5.300000000000001,17.7,-53.0,1.4,16
1002,17148.0,-0.8,0.4,-3.6,-2.7,3.2,5.6000000000000005,1.9,-42.900000000000006,13.6,16
1003,17175.0,0.1,0.6000000000000001,-2.4000000000000004,-1.6,3.4000000000000004,6.800000000000001,-23.400000000000002,-11.6,20.5,16
1004,17181.0,0.1,0.6000000000000001,-2.4000000000000004,-1.6,3.4000000000000004,6.800000000000001,-23.400000000000002,-11.6,20.5,16
1005,17200.0,0.5,0.5,-0.4,-1.2000000000000002,3.2,8.9,-27.400000000000002,10.200000000000001,25.900000000000002,16
1006,17215.0,0.1,0.2,-0.30000000000000004,-1.6,2.8000000000000003,9.0,-32.400000000000006,19.9,26.799999999999997,16
1007,17232.0,1.7000000000000002,0.0,-0.5,0.0,2.6,8.8,-38.7,28.3,29.500000000000004,16
1008,17249.0,2.9000000000000004,-0.1,-0.30000000000000004,1.1,2.4000000000000004,9.0,-49.300000000000004,28.700000000000003,20.400000000000002,16
1009,17265.0,1.9000000000000001,0.2,1.1,0.1,2.5,10.5,-58.400000000000006,23.700000000000003,8.100000000000001,16
1010,17286.0,-0.1,0.4,4.2,-2.0,2.6,13.5,-32.8,14.200000000000001,13.3,16
1011,17298.0,0.7000000000000001,-0.1,5.800000000000001,-1.2000000000000002,2.0,15.200000000000001,-18.5,2.6,17.200000000000003,16
1012,17327.0,2.0,0.5,3.3000000000000003,0.1,2.6,12.700000000000001,3.2,-3.5,4.6,16
1013,17332.0,2.0,0.5,3.3000000000000003,0.1,2.6,12.700000000000001,3.2,-3.5,4.6,16
1014,17348.0,0.7000000000000001,0.5,4.0,-1.2000000000000002,2.6,13.4,10.299999999999999,12.8,-5.2,16
1015,17365.0,-0.4,-0.4,4.0,-2.3000000000000003,1.7000000000000002,13.4,19.700000000000003,2.9,0.9000000000000001,16
1016,17382.0,-1.3,-0.9,4.6000000000000005,-3.2,1.3,13.9,38.900000000000006,-24.900000000000002,4.4,16
1017,17404.0,-1.4000000000000001,-1.8,5.4,-3.3000000000000003,0.5,14.700000000000001,71.10000000000001,-48.400000000000006,5.1000000000000005,16
1018,17415.0,-1.4000000000000001,-1.8,4.0,-3.1,0.6000000000000001,13.4,93.89999999999999,-61.300000000000004,5.7,16
1019,17431.0,-1.6,-1.6,2.4000000000000004,-3.2,1.1,11.700000000000001,108.0,-86.2,5.1000000000000005,16
1020,17453.0,-4.800000000000001,0.2,-3.8000000000000003,-5.9,3.4000000000000004,5.4,115.3,-71.30000000000001,6.1000000000000005,16
1021,17465.0,-4.800000000000001,0.2,-3.8000000000000003,-5.9,3.4000000000000004,5.4,101.4,-61.199999999999996,18.700000000000003,16
1022,17484.0,-2.6,-0.8,-7.300000000000001,-3.3000000000000003,2.9000000000000004,1.7000000000000002,28.200000000000003,-92.39999999999999,39.1,16
1023,17500.0,-2.2,-0.7000000000000001,-5.6000000000000005,-2.7,3.0,3.4000000000000004,-6.4,-89.5,54.1,16
1024,17515.0,-0.4,-0.7000000000000001,-3.9000000000000004,-0.6000000000000001,3.0,5.2,-42.0,-62.1,57.400000000000006,16
1025,17532.0,1.9000000000000001,0.1,-1.4000000000000001,1.9000000000000001,3.7,7.800000000000001,-56.6,-50.60000000000001,54.699999999999996,16
1026,17548.0,3.0,0.6000000000000001,0.6000000000000001,3.2,4.0,9.8,-56.0,-49.9,36.0,16
1027,17565.0,2.9000000000000004,0.5,0.8,3.3000000000000003,3.8000000000000003,10.100000000000001,-54.699999999999996,-52.00000000000001,17.200000000000003,16
1028,17581.0,1.2000000000000002,0.1,1.5,1.7000000000000002,3.2,10.8,-53.599999999999994,-62.1,-11.1,16
1029,17601.0,-1.6,0.30000000000000004,1.5,-0.9,3.3000000000000003,10.8,-38.0,-74.89999999999999,-2.2,16
1030,17621.0,-1.9000000000000001,-0.30000000000000004,1.7000000000000002,-1.1,2.6,11.100000000000001,-25.7,-79.3,5.4,16
1031,17632.0,-2.2,0.30000000000000004,1.8,-1.2000000000000002,3.1,11.100000000000001,-16.8,-82.8,9.700000000000001,16
1032,17648.0,-2.1,0.5,1.4000000000000001,-0.9,3.3000000000000003,10.8,13.200000000000003,-75.7,25.6,16
1033,17665.0,-1.2000000000000002,0.7000000000000001,0.2,0.2,3.5,9.4,27.3,-59.00000000000001,29.900000000000006,16
1034,17681.0,-1.2000000000000002,1.0,-2.2,0.5,3.8000000000000003,7.1000000000000005,24.599999999999998,-48.10000000000001,37.400000000000006,16
1035,17703.0,-1.0,1.1,-2.8000000000000003,0.8,4.0,6.4,9.0,-49.0,47.3,16
1036,17716.0,-1.4000000000000001,1.0,-2.7,0.6000000000000001,3.9000000000000004,6.4,-9.600000000000001,-64.50000000000001,58.60000000000001,16
1037,17731.0,-1.2000000000000002,0.7000000000000001,-2.5,0.9,3.6,6.6000000000000005,-31.5,-82.50000000000001,70.8,16
1038,17748.0,1.7000000000000002,-0.7000000000000001,-3.3000000000000003,4.1000000000000005,2.1,5.800000000000001,-51.0,-80.10000000000001,66.3,16
1039,17765.0,-4.3,3.6,-0.5,-1.6,6.2,8.6,-35.599999999999994,-31.5,99.10000000000001,16
1040,17782.0,-1.7000000000000002,1.4000000000000001,-3.9000000000000004,1.2000000000000002,3.9000000000000004,5.1000000000000005,-9.2,91.50000000000001,127.80000000000001,16
1041,17805.0,2.7,-0.5,2.0,5.300000000000001,1.7000000000000002,11.200000000000001,-2.6,144.8,78.2,16
1042,17825.0,2.0,0.0,1.9000000000000001,4.3,2.1,11.200000000000001,7.0,106.9,12.600000000000001,16
1043,17831.0,0.7000000000000001,0.0,0.4,2.6,2.2,9.8,2.4000000000000004,81.4,3.0,16
1044,17848.0,0.4,0.5,0.30000000000000004,2.1,2.7,9.700000000000001,-3.9,49.50000000000001,1.4,16
1045,17865.0,0.1,0.8,0.5,1.7000000000000002,2.9000000000000004,10.0,-4.300000000000001,23.3,4.9,16
1046,17883.0,0.30000000000000004,0.9,1.7000000000000002,1.9000000000000001,3.0,11.100000000000001,-1.2000000000000002,-9.2,-1.5,16
1047,17911.0,0.1,0.30000000000000004,2.0,1.7000000000000002,2.5,11.5,12.299999999999999,-66.5,-14.200000000000001,16
1048,17918.0,0.1,-0.1,2.0,1.9000000000000001,2.1,11.4,17.300000000000004,-74.80000000000001,-16.5,16
1049,17931.0,0.4,-0.1,1.7000000000000002,2.4000000000000004,2.1,11.0,26.200000000000003,-74.4,-21.500000000000004,16
1050,17950.0,0.2,0.0,1.4000000000000001,2.3000000000000003,2.3000000000000003,10.600000000000001,23.099999999999998,-50.400000000000006,-35.5,16
1051,17966.0,-1.3,0.1,1.8,1.0,2.5,11.0,15.2,-34.60000000000001,-31.5,16
1052,17981.0,-2.7,0.1,1.9000000000000001,-0.4,2.5,11.100000000000001,0.2,-21.900000000000002,-15.700000000000001,16
1053,18003.0,-2.4000000000000004,-0.5,2.7,-0.1,2.0,11.9,-3.4,-30.799999999999997,-6.600000000000001,16
1054,18014.0,-1.3,-1.6,3.7,1.1,0.9,12.8,9.3,-60.1,-1.8000000000000003,16
1055,18032.0,0.4,-2.3000000000000003,2.8000000000000003,3.0,0.2,11.9,17.0,-69.80000000000001,-1.5,16
1056,18048.0,2.1,-2.6,0.2,4.9,0.0,9.200000000000001,27.800000000000004,-65.3,-3.0,16
1057,18066.0,3.4000000000000004,-2.5,-2.8000000000000003,6.300000000000001,0.1,6.1000000000000005,5.2,-28.200000000000003,-16.900000000000002,16
1058,18081.0,2.9000000000000004,-1.8,-2.9000000000000004,6.0,0.8,6.0,-19.9,18.3,-26.1,16
1059,18102.0,-0.1,-1.3,0.6000000000000001,2.7,1.3,9.600000000000001,-31.3,36.8,-28.3,16
1060,18119.0,-1.0,-1.4000000000000001,0.8,1.7000000000000002,1.1,9.8,-25.7,34.300000000000004,-28.500000000000004,16
1061,18132.0,-1.4000000000000001,-1.2000000000000002,0.9,1.7000000000000002,1.1,9.8,-19.6,25.4,-20.8,16
1062,18148.0,-1.1,-1.2000000000000002,0.30000000000000004,1.2000000000000002,1.3,10.0,-16.700000000000003,18.0,-16.700000000000003,16
1063,18166.0,-0.6000000000000001,-1.0,0.0,1.9000000000000001,1.4000000000000001,9.200000000000001,-13.100000000000001,10.200000000000001,-15.2,16
1064,18181.0,-0.2,-1.0,-0.6000000000000001,2.3000000000000003,1.4000000000000001,8.6,-9.2,4.300000000000001,-16.4,16
1065,18218.0,0.5,-0.6000000000000001,-1.6,2.9000000000000004,1.7000000000000002,7.6000000000000005,-11.000000000000002,-6.1000000000000005,-16.6,16
1066,18233.0,0.8,-0.7000000000000001,-1.6,3.3000000000000003,1.7000000000000002,7.5,-13.200000000000003,-10.9,-17.400000000000002,16
1067,18250.0,0.7000000000000001,-0.6000000000000001,-1.6,3.2,1.7000000000000002,7.6000000000000005,-15.399999999999999,-12.100000000000001,-19.5,16
1068,18265.0,0.4,-0.8,-1.5,2.9000000000000004,1.5,7.7,-16.200000000000003,-11.700000000000001,-19.0,16
1069,18283.0,0.2,-0.8,-1.3,2.7,1.5,7.9,-15.6,-6.699999999999999,-16.0,16
1070,18305.0,0.1,-0.7000000000000001,-1.1,2.6,1.6,8.1,-15.000000000000002,-6.8,-14.5,16
1071,18322.0,0.1,-0.4,-0.7000000000000001,2.7,1.8,8.5,-11.1,-4.300000000000001,-12.600000000000001,16
1072,18331.0,0.1,-0.4,-0.7000000000000001,2.7,1.8,8.5,-10.8,-3.3000000000000007,-12.4,16
1073,18348.0,0.30000000000000004,-0.2,-0.6000000000000001,2.9000000000000004,2.0,8.6,-11.4,-0.30000000000000004,-13.700000000000001,16
1074,18365.0,0.30000000000000004,0.2,-0.30000000000000004,3.0,2.3000000000000003,8.9,-12.200000000000001,4.5,-13.399999999999999,16
1075,18381.0,0.6000000000000001,0.6000000000000001,-0.1,3.5,2.7,9.1,-13.6,5.300000000000001,-12.200000000000001,16
1076,18404.0,1.2000000000000002,0.7000000000000001,0.5,4.1000000000000005,2.7,9.700000000000001,-15.899999999999999,10.5,-20.900000000000002,16
1077,18418.0,0.5,0.7000000000000001,1.2000000000000002,3.4000000000000004,2.8000000000000003,10.4,-12.9,11.6,-21.300000000000004,16
1078,18433.0,0.5,0.7000000000000001,1.2000000000000002,3.4000000000000004,2.8000000000000003,10.4,-9.3,8.100000000000001,-19.300000000000004,16
1079,18448.0,0.6000000000000001,0.7000000000000001,1.8,3.5,2.7,11.0,2.8,-2.3,-15.6,16
1080,18465.0,1.4000000000000001,0.9,1.6,4.2,3.0,10.700000000000001,10.700000000000001,-10.8,-17.0,16
1081,18481.0,2.8000000000000003,1.5,-0.5,5.6000000000000005,3.6,8.700000000000001,11.3,-15.899999999999999,-25.4,16
1082,18502.0,1.9000000000000001,1.1,-1.1,4.800000000000001,3.3000000000000003,8.0,-6.1000000000000005,5.9,-36.8,16
1083,18515.0,-1.0,0.5,0.30000000000000004,1.8,2.7,9.5,-22.9,36.300000000000004,-34.2,16
1084,18531.0,-2.7,-0.4,1.9000000000000001,0.1,1.7000000000000002,11.100000000000001,-26.400000000000006,53.7,-15.000000000000002,16
1085,18548.0,-3.5,-0.8,2.2,-0.9,1.3,11.5,-18.0,61.300000000000004,4.1,16
1086,18564.0,-2.8000000000000003,-1.0,3.3000000000000003,-0.4,1.0,12.600000000000001,-7.699999999999999,46.7,27.3,16
1087,18581.0,-1.5,-1.1,3.8000000000000003,0.8,0.9,13.100000000000001,5.300000000000001,18.5,32.9,16
1088,18605.0,-0.5,-1.3,3.3000000000000003,1.8,0.8,12.600000000000001,31.7,-22.6,18.1,16
1089,18615.0,-0.8,-1.1,1.1,1.5,1.0,10.4,37.1,-27.2,13.900000000000002,16
1090,18631.0,-2.0,-0.5,-1.0,0.5,1.7000000000000002,8.3,37.1,-26.799999999999997,14.400000000000002,16
1091,18655.0,-1.6,-0.4,-2.8000000000000003,0.9,1.9000000000000001,6.4,4.9,-6.8,18.3,16
1092,18665.0,-2.0,-0.1,-1.4000000000000001,0.6000000000000001,2.2,7.800000000000001,-4.9,-3.2,23.3,16
1093,18689.0,-2.0,0.1,-0.30000000000000004,0.6000000000000001,2.3000000000000003,8.9,9.3,-29.900000000000006,17.5,16
1094,18701.0,-2.0,0.1,-0.30000000000000004,0.6000000000000001,2.3000000000000003,8.9,0.4,-30.1,21.1,16
1095,18715.0,-1.2000000000000002,0.30000000000000004,0.8,1.6,2.6,9.9,-9.899999999999999,-22.9,25.300000000000004,16
1096,18737.0,1.0,0.4,3.3000000000000003,3.8000000000000003,2.6,12.4,-3.5,-18.3,21.6,16
1097,18748.0,1.0,0.4,3.3000000000000003,3.8000000000000003,2.6,12.4,5.500000000000001,-20.400000000000002,14.700000000000001,16
1098,18766.0,1.1,0.5,2.2,4.0,2.6,11.3,17.9,-19.0,3.3000000000000007,16
1099,18782.0,0.0,0.6000000000000001,0.4,3.0,2.8000000000000003,9.4,19.799999999999997,-18.4,0.8,16
1100,18811.0,-1.7000000000000002,0.30000000000000004,-1.5,1.4000000000000001,2.5,7.5,13.5,-21.500000000000004,10.5,16
1101,18815.0,-2.1,0.1,-1.9000000000000001,1.4000000000000001,2.5,7.5,13.000000000000002,-19.200000000000003,13.000000000000002,16
1102,18832.0,-2.1,0.1,-1.9000000000000001,1.1,2.4000000000000004,7.1000000000000005,11.900000000000002,-15.700000000000001,16.4,16
1103,18848.0,-2.4000000000000004,0.0,-1.8,0.9,2.3000000000000003,7.2,7.400000000000001,-7.1000000000000005,26.6,16
1104,18865.0,-2.0,0.2,-1.1,1.3,2.5,7.800000000000001,6.500000000000001,-2.5,33.50000000000001,16
1105,18883.0,-1.3,0.30000000000000004,-0.7000000000000001,2.0,2.6,8.200000000000001,8.600000000000001,-5.2,35.2,16
1106,18914.0,-0.7000000000000001,0.5,-1.0,2.7,2.8000000000000003,7.9,9.600000000000001,-3.1,29.400000000000002,16
1107,18931.0,-0.4,0.6000000000000001,-1.1,3.0,2.9000000000000004,7.800000000000001,6.2,0.5,27.0,16
1108,18952.0,-0.2,0.7000000000000001,-0.8,3.2,2.9000000000000004,8.1,0.1,-0.6000000000000001,20.599999999999998,16
1109,18965.0,0.1,0.5,-0.30000000000000004,3.4000000000000004,2.9000000000000004,8.6,-0.2,-5.0,16.6,16
1110,18982.0,0.30000000000000004,0.5,0.2,3.7,2.8000000000000003,9.1,1.4,-12.600000000000001,11.5,16
1111,19006.0,0.9,0.5,0.2,3.9000000000000004,2.8000000000000003,9.200000000000001,3.0,-18.4,2.4000000000000004,16
1112,19020.0,0.9,0.5,0.2,4.3,2.8000000000000003,9.1,2.3,-19.300000000000004,-0.9000000000000001,16
1113,19031.0,1.0,0.4,0.1,4.6000000000000005,2.8000000000000003,8.9,-0.30000000000000004,-19.0,-10.0,16
1114,19055.0,0.0,0.2,0.2,3.6,2.6,9.0,-1.7,-24.599999999999998,-20.8,16
1115,19065.0,0.0,0.2,0.2,3.6,2.6,9.0,-0.9000000000000001,-31.7,-23.800000000000004,16
1116,19084.0,-0.8,0.0,0.2,2.9000000000000004,2.4000000000000004,9.0,1.0,-42.1,-24.5,16
1117,19104.0,-1.6,-0.6000000000000001,-0.30000000000000004,2.2,1.8,8.4,-0.7,-34.7,-20.599999999999998,16
1118,19114.0,-1.6,-0.6000000000000001,-0.30000000000000004,2.2,1.8,8.4,-2.5,-27.700000000000003,-17.6,16
1119,19133.0,-2.0,-0.2,0.9,1.9000000000000001,2.3000000000000003,9.600000000000001,-8.4,-16.3,-5.7,16
1120,19156.0,-1.7000000000000002,0.1,1.4000000000000001,2.2,2.6,10.100000000000001,-19.400000000000002,-17.5,-6.9,16
1121,19165.0,-1.7000000000000002,0.30000000000000004,2.2,2.3000000000000003,2.8000000000000003,10.9,-23.0,-18.8,-7.200000000000001,16
1122,19182.0,-1.1,-0.4,3.5,2.9000000000000004,2.0,12.100000000000001,-27.099999999999998,-21.7,-6.4,16
1123,19204.0,-0.30000000000000004,-1.8,4.4,3.7,0.5,13.100000000000001,-7.400000000000001,-13.700000000000001,4.0,16
1124,19217.0,1.1,-2.4000000000000004,3.8000000000000003,5.1000000000000005,-0.1,12.5,1.9,-10.8,7.699999999999999,16
1125,19231.0,3.3000000000000003,-1.6,0.4,7.4,0.7000000000000001,9.1,10.200000000000001,-7.200000000000001,18.200000000000003,16
1126,19248.0,6.0,-1.2000000000000002,-2.0,10.100000000000001,1.1,6.6000000000000005,-7.400000000000001,17.5,0.9000000000000001,16
1127,19264.0,4.7,-1.0,-1.2000000000000002,8.700000000000001,1.3,7.4,-25.8,40.800000000000004,-25.8,16
1128,19281.0,2.3000000000000003,-1.1,0.1,6.2,1.1,8.8,-35.1,39.0,-41.6,16
1129,19307.0,-1.0,-1.5,2.0,2.7,0.7000000000000001,10.8,-25.4,13.8,-40.4,16
1130,19321.0,-1.0,-1.5,2.0,2.7,0.7000000000000001,10.8,-19.6,6.300000000000001,-37.6,16
1131,19334.0,-1.4000000000000001,-1.3,1.8,2.3000000000000003,0.8,10.600000000000001,-6.1000000000000005,-4.1,-31.400000000000002,16
1132,19350.0,-1.8,-1.3,0.9,1.8,0.9,9.700000000000001,2.9,-8.0,-23.099999999999998,16
1133,19365.0,-2.5,-1.3,-0.1,1.2000000000000002,0.9,8.700000000000001,8.5,-8.899999999999999,-12.5,16
1134,19384.0,-2.7,-1.0,-1.2000000000000002,1.0,1.2000000000000002,7.6000000000000005,10.4,-6.500000000000001,-1.4,16
1135,19403.0,-2.0,-0.4,-2.3000000000000003,1.7000000000000002,1.9000000000000001,6.5,7.0,-6.0,11.000000000000002,16
1136,19415.0,-2.0,-0.4,-2.3000000000000003,1.7000000000000002,1.9000000000000001,6.5,4.7,-8.8,14.5,16
1137,19432.0,-1.1,-0.1,-2.5,2.6,2.1,6.300000000000001,-1.0,-10.600000000000001,16.900000000000002,16
1138,19448.0,0.1,0.0,-2.6,3.8000000000000003,2.2,6.2,-8.2,-6.9,14.700000000000001,16
1139,19469.0,0.6000000000000001,-0.5,-0.7000000000000001,4.4,1.7000000000000002,8.1,-4.0,-4.1,16.0,16
1140,19481.0,1.0,-0.5,-0.7000000000000001,4.9,1.7000000000000002,8.0,-0.6000000000000001,-3.5,14.900000000000002,16
1141,19505.0,1.5,-0.1,-1.0,5.4,2.0,7.800000000000001,0.2,7.9,9.899999999999999,16
1142,19515.0,1.6,0.30000000000000004,-0.8,5.7,2.4000000000000004,7.800000000000001,-0.5,11.2,7.6,16
1143,19531.0,1.9000000000000001,0.6000000000000001,-0.6000000000000001,5.9,2.7,8.1,-1.4,13.6,1.0,16
1144,19550.0,1.7000000000000002,0.7000000000000001,-0.30000000000000004,5.7,2.8000000000000003,8.4,-1.3,11.3,-6.300000000000001,16
