,ms,accelX,accelY,accelZ,accelWithGX,accelWithGY,accelWithGZ,rotRateAlpha,rotRateBeta,rotRateGamma,interval
0,102.0,-0.1,0.2,0.0,-0.6000000000000001,2.3000000000000003,9.4,-0.5,1.5,-2.7,16
1,120.0,0.0,0.1,0.1,-0.6000000000000001,2.3000000000000003,9.5,-1.2000000000000002,3.2,-1.7,16
2,136.0,0.0,0.0,0.2,-0.5,2.2,9.600000000000001,-1.9,3.8,-1.3,16
3,152.0,0.1,0.0,0.2,-0.5,2.2,9.600000000000001,-2.3,1.6,-1.8000000000000003,16
4,169.0,0.1,0.1,0.2,-0.5,2.4000000000000004,9.5,-2.4000000000000004,-0.6000000000000001,-2.3,16
5,186.0,0.1,0.2,0.1,-0.4,2.4000000000000004,9.5,-2.2,0.0,-1.9,16
6,204.0,0.2,0.2,0.1,-0.4,2.3000000000000003,9.5,-3.3000000000000007,3.3000000000000007,-0.7,16
7,219.0,0.2,0.1,0.1,-0.4,2.3000000000000003,9.600000000000001,-3.3000000000000007,3.3000000000000007,-0.7,16
8,236.0,0.2,0.1,0.1,-0.4,2.3000000000000003,9.700000000000001,-4.4,3.1,-0.7,16
9,252.0,0.2,0.0,0.30000000000000004,-0.4,2.2,9.8,-4.300000000000001,4.300000000000001,-1.7,16
10,269.0,0.1,0.0,0.30000000000000004,-0.4,2.1,9.9,-4.300000000000001,4.300000000000001,-1.7,16
11,286.0,0.1,-0.1,0.30000000000000004,-0.4,2.1,9.700000000000001,-2.2,3.5,-2.7,16
12,303.0,0.1,-0.1,0.2,-0.4,2.2,9.600000000000001,-0.30000000000000004,1.4,-4.1,16
13,319.0,0.1,0.1,0.0,-0.4,2.3000000000000003,9.5,-0.4,0.30000000000000004,-5.300000000000001,16
14,336.0,0.0,0.2,0.0,-0.6000000000000001,2.3000000000000003,9.700000000000001,-1.4,1.7,-5.6,16
15,352.0,0.0,0.1,0.2,-0.6000000000000001,2.2,9.8,-0.6000000000000001,3.1,-4.4,16
16,369.0,-0.1,0.0,0.2,-0.6000000000000001,2.2,9.700000000000001,-0.6000000000000001,3.1,-4.4,16
17,386.0,0.0,0.0,0.1,-0.6000000000000001,2.1,9.600000000000001,0.6000000000000001,0.7,-4.4,16
18,403.0,0.0,0.0,0.0,-0.6000000000000001,2.2,9.5,1.7,-2.0,-4.5,16
19,419.0,0.0,0.0,0.0,-0.6000000000000001,2.2,9.5,1.7,-2.0,-4.5,16
20,436.0,0.0,0.0,-0.1,-0.5,2.3000000000000003,9.5,1.3,-3.2,-4.4,16
21,452.0,0.1,0.1,-0.1,-0.5,2.3000000000000003,9.5,-0.30000000000000004,1.0,-3.6000000000000005,16
22,469.0,0.0,0.1,-0.1,-0.5,2.3000000000000003,9.5,-0.30000000000000004,1.0,-3.6000000000000005,16
23,486.0,0.0,0.0,0.0,-0.7000000000000001,2.2,9.600000000000001,0.0,3.7000000000000006,-3.1,16
24,502.0,-0.1,-0.1,0.2,-0.7000000000000001,2.0,9.8,2.0,3.6000000000000005,-1.9,16
25,521.0,-0.1,-0.2,0.30000000000000004,-0.7000000000000001,2.0,9.700000000000001,2.0,3.6000000000000005,-1.9,16
26,536.0,0.0,-0.1,0.0,-0.5,2.1,9.3,1.8000000000000003,-2.4000000000000004,-2.2,16
27,552.0,0.1,0.0,-0.30000000000000004,-0.5,2.2,9.3,-3.6000000000000005,0.0,-2.0,16
28,569.0,0.1,0.1,-0.2,-0.6000000000000001,2.2,9.5,-3.6000000000000005,0.0,-2.0,16
29,586.0,0.0,-0.1,0.2,-0.6000000000000001,1.9000000000000001,9.8,-3.7000000000000006,4.2,-1.0,16
30,602.0,0.0,-0.30000000000000004,0.30000000000000004,-0.6000000000000001,1.8,9.9,-1.6,4.2,-1.2000000000000002,16
31,619.0,0.0,-0.4,0.30000000000000004,-0.6000000000000001,1.8,9.8,0.5,1.6,-2.7,16
32,636.0,0.0,-0.2,0.1,-0.7000000000000001,2.0,9.700000000000001,1.4,-1.1,-4.2,16
33,652.0,-0.1,-0.1,0.0,-0.7000000000000001,2.1,9.600000000000001,1.4,-1.8000000000000003,-4.4,16
34,669.0,-0.1,0.0,0.0,-0.7000000000000001,2.1,9.5,1.4,-1.3,-3.5,16
35,686.0,-0.1,0.0,-0.1,-0.7000000000000001,2.1,9.5,1.4,-1.4,-1.9,16
36,702.0,-0.1,-0.1,-0.1,-0.7000000000000001,2.0,9.5,0.6000000000000001,-2.2,-0.6000000000000001,16
37,719.0,0.0,-0.1,0.0,-0.6000000000000001,2.0,9.600000000000001,-1.3,-4.5,0.0,16
38,736.0,0.0,-0.1,0.0,-0.6000000000000001,2.0,9.5,-1.3,-4.5,0.0,16
39,752.0,0.0,0.0,-0.1,-0.6000000000000001,2.1,9.5,-1.4,-4.9,0.1,16
40,769.0,0.0,0.0,-0.2,-0.6000000000000001,2.0,9.4,-2.4000000000000004,-0.30000000000000004,0.7,16
41,786.0,0.0,-0.1,-0.1,-0.6000000000000001,2.0,9.5,-2.4000000000000004,-0.30000000000000004,0.7,16
42,802.0,0.0,-0.2,0.1,-0.7000000000000001,1.9000000000000001,9.8,-2.6,2.6,0.8,16
43,819.0,-0.1,-0.2,0.30000000000000004,-0.7000000000000001,1.9000000000000001,9.8,0.1,-0.1,0.2,16
44,836.0,-0.1,-0.2,0.2,-0.6000000000000001,1.9000000000000001,9.8,0.1,-0.1,0.2,16
45,852.0,0.0,-0.1,0.2,-0.6000000000000001,2.0,9.700000000000001,0.8,-1.7,0.1,16
46,869.0,0.0,0.0,0.1,-0.6000000000000001,2.0,9.700000000000001,-0.1,-2.4000000000000004,0.0,16
47,886.0,0.0,0.0,0.1,-0.5,2.0,9.600000000000001,-0.1,-2.4000000000000004,0.0,16
48,902.0,0.0,0.0,0.0,-0.6000000000000001,2.1,9.600000000000001,0.0,-1.4,0.2,16
49,919.0,0.0,0.0,0.0,-0.6000000000000001,2.0,9.700000000000001,1.0,1.5,0.7,16
50,936.0,0.0,0.0,0.1,-0.6000000000000001,2.0,9.700000000000001,1.0,1.5,0.7,16
51,952.0,0.0,0.0,0.0,-0.6000000000000001,2.1,9.5,2.1,0.9000000000000001,0.6000000000000001,16
52,969.0,0.0,0.1,-0.1,-0.6000000000000001,2.2,9.600000000000001,0.7,1.7,1.6,16
53,987.0,0.0,0.1,0.0,-0.6000000000000001,2.1,9.600000000000001,0.4,1.6,2.5,16
54,1002.0,0.0,0.1,0.0,-0.6000000000000001,2.2,9.600000000000001,0.4,1.6,2.5,16
55,1019.0,0.1,0.1,-0.1,-0.4,2.1,9.4,-2.4000000000000004,-2.0,3.7000000000000006,16
56,1036.0,0.1,0.0,-0.2,-0.4,2.0,9.5,-2.4000000000000004,-2.0,3.7000000000000006,16
57,1052.0,0.1,-0.1,0.1,-0.5,1.9000000000000001,9.9,-3.1,1.5,3.8,16
58,1069.0,0.1,-0.2,0.4,-0.5,1.8,9.9,-1.0,2.4000000000000004,3.4,16
59,1086.0,0.1,-0.2,0.30000000000000004,-0.4,1.9000000000000001,9.8,1.6,-0.4,2.1,16
60,1102.0,0.1,-0.1,0.0,-0.4,2.0,9.600000000000001,1.8000000000000003,-2.0,1.2000000000000002,16
61,1119.0,0.1,0.0,0.0,-0.5,2.1,9.700000000000001,0.5,-0.8,0.9000000000000001,16
62,1136.0,0.0,0.0,0.1,-0.5,2.0,9.700000000000001,0.6000000000000001,-0.5,1.6,16
63,1152.0,0.0,0.0,0.0,-0.5,2.0,9.600000000000001,0.6000000000000001,-0.5,1.6,16
64,1169.0,0.1,-0.1,-0.1,-0.4,2.0,9.5,0.9000000000000001,-2.1,1.4,16
65,1186.0,0.0,0.0,-0.2,-0.5,2.2,9.4,0.30000000000000004,-1.3,0.6000000000000001,16
66,1202.0,0.0,0.1,-0.2,-0.5,2.2,9.5,0.30000000000000004,-1.3,0.6000000000000001,16
67,1219.0,0.0,0.1,0.0,-0.5,2.1,9.600000000000001,0.5,1.8000000000000003,1.4,16
68,1236.0,0.0,0.0,0.0,-0.5,2.1,9.600000000000001,-0.1,-0.4,2.3,16
69,1252.0,0.1,0.0,0.0,-0.4,2.1,9.5,-0.1,-0.4,2.3,16
70,1269.0,0.1,0.1,-0.2,-0.30000000000000004,2.2,9.4,-1.8000000000000003,-2.6,2.0,16
71,1286.0,0.1,0.1,-0.1,-0.4,2.2,9.600000000000001,-4.9,-1.5,2.6,16
72,1302.0,0.1,0.1,0.0,-0.4,2.2,9.700000000000001,-4.9,-1.5,2.6,16
73,1319.0,0.0,0.1,0.30000000000000004,-0.4,2.1,9.9,-3.6000000000000005,0.1,3.8,16
74,1336.0,0.1,0.0,0.30000000000000004,-0.30000000000000004,2.0,9.9,-2.1,-4.800000000000001,4.7,16
75,1352.0,0.2,0.0,0.2,-0.2,2.0,9.8,-2.1,-4.800000000000001,4.7,16
76,1369.0,0.2,0.1,0.2,-0.2,2.1,9.9,-3.5,-7.300000000000001,4.1,16
77,1386.0,0.2,0.1,0.30000000000000004,-0.1,2.1,10.0,-4.4,-10.200000000000001,4.0,16
78,1402.0,0.2,0.1,0.30000000000000004,-0.1,2.1,10.0,-4.4,-10.200000000000001,4.0,16
79,1419.0,0.30000000000000004,0.1,0.30000000000000004,0.0,2.1,9.9,-2.7,-11.3,3.5,16
80,1436.0,0.30000000000000004,0.1,0.1,0.0,2.2,9.700000000000001,1.7,-7.6,1.5,16
81,1452.0,0.2,0.1,0.0,0.0,2.2,9.700000000000001,1.7,-7.6,1.5,16
82,1469.0,0.1,0.1,0.0,-0.2,2.2,9.8,4.5,-1.8000000000000003,1.4,16
83,1486.0,0.0,0.0,0.2,-0.30000000000000004,2.0,10.0,6.699999999999999,3.2,1.8000000000000003,16
84,1502.0,-0.1,-0.1,0.30000000000000004,-0.4,1.9000000000000001,10.100000000000001,8.600000000000001,6.0,1.8000000000000003,16
85,1519.0,-0.30000000000000004,-0.2,0.4,-0.5,1.9000000000000001,10.100000000000001,9.899999999999999,2.2,1.6,16
86,1536.0,-0.30000000000000004,-0.2,0.2,-0.5,2.0,9.700000000000001,10.0,-4.2,1.7,16
87,1552.0,-0.30000000000000004,-0.2,0.0,-0.5,2.0,9.5,8.3,-10.200000000000001,2.2,16
88,1569.0,-0.2,-0.2,-0.30000000000000004,-0.4,1.9000000000000001,9.3,5.0,-13.000000000000002,2.5,16
89,1586.0,-0.2,-0.30000000000000004,-0.4,-0.4,1.8,9.200000000000001,2.5,-11.2,2.9,16
90,1602.0,-0.2,-0.30000000000000004,-0.5,-0.30000000000000004,1.8,9.1,1.4,-9.3,3.1,16
91,1619.0,-0.1,-0.30000000000000004,-0.6000000000000001,-0.2,1.9000000000000001,9.0,0.1,-8.5,2.6,16
92,1638.0,0.0,-0.2,-0.5,-0.2,1.9000000000000001,9.3,-2.8,-5.4,1.8000000000000003,16
93,1652.0,-0.1,-0.1,-0.1,-0.30000000000000004,1.9000000000000001,9.8,-5.4,1.5,1.0,16
94,1669.0,-0.1,-0.1,0.2,-0.30000000000000004,1.9000000000000001,10.0,-5.4,1.5,1.0,16
95,1686.0,-0.2,-0.1,0.4,-0.4,1.9000000000000001,10.100000000000001,-2.2,3.4,1.5,16
96,1702.0,-0.2,-0.2,0.4,-0.30000000000000004,1.8,10.100000000000001,2.8,1.8000000000000003,1.5,16
97,1719.0,-0.2,-0.30000000000000004,0.5,-0.30000000000000004,1.8,10.100000000000001,2.8,1.8000000000000003,1.5,16
98,1736.0,-0.1,-0.2,0.4,-0.30000000000000004,1.9000000000000001,10.100000000000001,4.6,1.2000000000000002,0.7,16
99,1752.0,-0.2,-0.1,0.5,-0.4,2.0,10.200000000000001,7.300000000000001,-0.6000000000000001,0.8,16
100,1769.0,-0.2,0.0,0.4,-0.4,2.0,10.100000000000001,7.300000000000001,-0.6000000000000001,0.8,16
101,1786.0,-0.1,-0.1,0.30000000000000004,-0.30000000000000004,2.0,10.0,7.8,-2.1,1.5,16
102,1802.0,0.0,-0.1,0.1,-0.2,2.0,9.8,4.5,-6.600000000000001,0.30000000000000004,16
103,1819.0,0.0,-0.1,0.1,-0.2,2.0,9.8,4.5,-6.600000000000001,0.30000000000000004,16
104,1836.0,0.0,-0.1,0.0,-0.2,2.0,9.700000000000001,3.7000000000000006,-6.300000000000001,-0.4,16
105,1852.0,0.0,-0.1,-0.1,-0.1,2.0,9.5,4.5,-3.8,-1.6,16
106,1869.0,0.0,-0.1,-0.2,-0.2,2.1,9.5,4.5,-3.8,-1.6,16
107,1886.0,0.0,0.0,-0.30000000000000004,-0.2,2.2,9.4,4.0,-2.4000000000000004,-2.1,16
108,1902.0,0.0,0.1,-0.30000000000000004,-0.1,2.3000000000000003,9.4,0.30000000000000004,-4.0,-2.6,16
109,1919.0,0.0,0.1,-0.30000000000000004,-0.1,2.3000000000000003,9.4,0.30000000000000004,-4.0,-2.6,16
110,1936.0,0.0,0.2,-0.30000000000000004,0.0,2.3000000000000003,9.3,-2.5,-4.300000000000001,-2.4000000000000004,16
111,1952.0,0.1,0.2,-0.30000000000000004,0.0,2.3000000000000003,9.4,-4.9,-3.7000000000000006,-2.4000000000000004,16
112,1969.0,0.1,0.1,-0.30000000000000004,0.0,2.3000000000000003,9.4,-6.8,-2.4000000000000004,-2.6,16
113,1986.0,0.0,0.1,-0.2,-0.1,2.2,9.600000000000001,-7.300000000000001,0.1,-3.0,16
114,2002.0,0.0,0.0,0.0,-0.2,2.1,9.700000000000001,-6.2,2.1,-3.5,16
115,2019.0,-0.1,0.0,0.1,-0.2,2.1,9.700000000000001,-3.2,2.8,-3.9,16
116,2036.0,-0.1,0.0,-0.1,-0.2,2.2,9.5,-0.8,0.7,-4.300000000000001,16
117,2052.0,-0.1,0.1,-0.30000000000000004,-0.2,2.2,9.3,-0.7,0.1,-4.7,16
118,2069.0,-0.1,0.1,-0.30000000000000004,-0.2,2.2,9.200000000000001,-1.3,1.0,-4.800000000000001,16
119,2086.0,-0.1,0.2,-0.4,-0.30000000000000004,2.3000000000000003,9.200000000000001,-1.9,1.6,-4.2,16
120,2104.0,-0.1,0.1,-0.30000000000000004,-0.2,2.1,9.4,-1.7,4.300000000000001,-3.0,16
121,2124.0,0.0,0.0,-0.2,-0.2,2.1,9.4,0.1,4.4,-2.0,16
122,2136.0,0.0,0.0,-0.1,-0.2,2.1,9.4,0.1,4.4,-2.0,16
123,2152.0,0.1,0.0,-0.30000000000000004,-0.1,2.2,9.200000000000001,0.30000000000000004,1.8000000000000003,-2.2,16
124,2169.0,0.1,0.1,-0.4,0.0,2.3000000000000003,9.0,-0.7,0.1,-2.0,16
125,2186.0,0.2,0.2,-0.5,0.0,2.2,9.0,-2.2,1.2000000000000002,-1.4,16
126,2202.0,0.2,0.1,-0.4,0.0,2.2,9.200000000000001,-3.4,3.7000000000000006,-0.5,16
127,2225.0,0.2,0.0,-0.30000000000000004,0.0,2.1,9.3,-3.7000000000000006,7.400000000000001,-0.30000000000000004,16
128,2236.0,0.2,0.0,-0.1,0.0,2.0,9.5,-3.7000000000000006,7.400000000000001,-0.30000000000000004,16
129,2253.0,0.2,-0.1,0.1,-0.1,2.0,9.700000000000001,-2.6,8.8,-0.5,16
130,2270.0,0.2,-0.1,0.1,-0.1,2.0,9.600000000000001,-0.1,3.6000000000000005,-2.1,16
131,2286.0,0.2,0.0,0.1,-0.1,2.1,9.600000000000001,-0.1,3.6000000000000005,-2.1,16
132,2303.0,0.2,0.1,0.0,-0.1,2.2,9.5,-0.7,1.7,-2.8,16
133,2325.0,0.2,0.1,0.0,-0.1,2.2,9.600000000000001,-1.4,3.1,-2.5,16
134,2336.0,0.2,0.1,0.1,0.0,2.2,9.600000000000001,-1.4,3.1,-2.5,16
135,2353.0,0.2,0.1,0.1,0.1,2.1,9.700000000000001,-0.5,2.2,-2.4000000000000004,16
136,2369.0,0.30000000000000004,0.0,0.1,0.1,2.1,9.600000000000001,1.3,-1.3,-4.300000000000001,16
137,2388.0,0.30000000000000004,0.0,0.1,0.1,2.2,9.600000000000001,1.3,-1.3,-4.300000000000001,16
138,2403.0,0.30000000000000004,0.1,0.0,0.1,2.2,9.5,1.3,-2.4000000000000004,-4.9,16
139,2423.0,0.30000000000000004,0.1,-0.1,0.1,2.2,9.4,0.9000000000000001,-2.2,-5.2,16
140,2439.0,0.30000000000000004,0.1,0.0,0.1,2.2,9.5,1.3,0.5,-5.4,16
141,2453.0,0.30000000000000004,0.1,0.0,0.1,2.2,9.600000000000001,1.3,0.5,-5.4,16
142,2469.0,0.2,0.0,0.1,0.0,2.1,9.700000000000001,2.3,1.2000000000000002,-5.500000000000001,16
143,2486.0,0.2,0.0,0.2,0.0,2.2,9.700000000000001,2.9,0.6000000000000001,-5.9,16
144,2503.0,0.1,0.1,0.2,0.0,2.2,9.700000000000001,2.6,-1.1,-5.9,16
145,2525.0,0.1,0.1,0.2,0.0,2.2,9.700000000000001,1.8000000000000003,-2.5,-5.6,16
146,2536.0,0.1,0.0,0.1,-0.1,2.1,9.700000000000001,0.9000000000000001,-3.0,-5.0,16
147,2553.0,0.0,0.0,0.1,-0.1,2.0,9.8,0.0,-2.8,-4.300000000000001,16
148,2570.0,0.0,-0.2,0.4,-0.2,1.9000000000000001,10.100000000000001,-0.1,-0.8,-3.8,16
149,2586.0,-0.1,-0.2,0.5,-0.2,1.9000000000000001,10.200000000000001,1.7,0.4,-3.8,16
150,2603.0,-0.1,-0.2,0.5,-0.2,1.9000000000000001,10.0,4.1,-2.2,-4.2,16
151,2631.0,-0.1,-0.2,0.2,-0.30000000000000004,2.0,9.9,4.800000000000001,-5.4,-4.800000000000001,16
152,2636.0,-0.1,-0.2,0.2,-0.30000000000000004,2.0,9.9,4.800000000000001,-5.4,-4.800000000000001,16
153,2653.0,-0.2,-0.1,0.2,-0.30000000000000004,2.0,9.8,5.1000000000000005,-5.6,-4.4,16
154,2669.0,-0.2,-0.1,0.1,-0.2,2.1,9.600000000000001,5.9,-7.200000000000001,-4.1,16
155,2686.0,-0.1,-0.1,0.0,-0.2,2.1,9.5,6.4,-7.200000000000001,-4.1,16
156,2703.0,-0.2,0.0,-0.1,-0.30000000000000004,2.2,9.5,6.2,-5.2,-3.8,16
157,2726.0,-0.30000000000000004,0.0,0.0,-0.4,2.2,9.5,6.300000000000001,-3.5,-1.8000000000000003,16
158,2736.0,-0.30000000000000004,-0.1,-0.1,-0.4,2.2,9.5,5.4,-4.0,-1.3,16
159,2753.0,-0.30000000000000004,0.0,-0.1,-0.4,2.2,9.5,5.4,-4.0,-1.3,16
160,2771.0,-0.30000000000000004,0.0,-0.1,-0.5,2.3000000000000003,9.5,4.7,-2.9,-0.8,16
161,2786.0,-0.4,0.0,-0.1,-0.6000000000000001,2.3000000000000003,9.5,5.4,0.8,1.6,16
162,2803.0,-0.4,0.0,-0.1,-0.6000000000000001,2.3000000000000003,9.4,5.4,0.8,1.6,16
163,2821.0,-0.5,0.1,-0.2,-0.8,2.4000000000000004,9.4,5.7,2.2,2.3,16
164,2836.0,-0.6000000000000001,0.2,-0.2,-0.9,2.6,9.3,6.600000000000001,4.6,5.2,16
165,2852.0,-0.6000000000000001,0.2,-0.2,-0.9,2.6,9.3,6.600000000000001,4.6,5.2,16
166,2869.0,-0.6000000000000001,0.30000000000000004,-0.30000000000000004,-1.0,2.7,9.3,5.8,6.300000000000001,7.0,16
167,2886.0,-0.7000000000000001,0.2,-0.30000000000000004,-1.1,2.7,9.4,5.300000000000001,8.8,8.2,16
168,2902.0,-0.7000000000000001,0.30000000000000004,-0.1,-1.1,2.8000000000000003,9.4,6.2,10.700000000000001,8.700000000000001,16
169,2926.0,-0.6000000000000001,0.30000000000000004,-0.1,-1.0,2.8000000000000003,9.3,11.6,14.900000000000002,10.200000000000001,16
170,2937.0,-0.5,0.2,-0.2,-1.0,2.8000000000000003,9.200000000000001,11.6,14.900000000000002,10.200000000000001,16
171,2952.0,-0.4,0.2,-0.2,-0.9,2.7,9.200000000000001,13.5,17.300000000000004,10.4,16
172,2970.0,-0.30000000000000004,0.1,-0.30000000000000004,-0.9,2.7,9.1,13.5,19.200000000000003,10.299999999999999,16
173,2988.0,-0.1,0.0,-0.30000000000000004,-0.8,2.6,9.1,12.200000000000001,21.0,10.200000000000001,16
174,3002.0,-0.1,0.0,-0.2,-0.7000000000000001,2.6,9.200000000000001,10.600000000000001,22.8,10.1,16
175,3019.0,0.1,-0.1,-0.2,-0.6000000000000001,2.5,9.200000000000001,9.4,22.9,10.1,16
176,3036.0,0.30000000000000004,-0.2,-0.2,-0.5,2.5,9.1,7.8,22.3,9.700000000000001,16
177,3052.0,0.30000000000000004,-0.2,-0.2,-0.5,2.5,9.200000000000001,5.9,22.9,9.100000000000001,16
178,3069.0,0.5,-0.30000000000000004,0.0,-0.4,2.5,9.4,4.0,24.5,8.8,16
179,3086.0,0.5,-0.30000000000000004,0.2,-0.4,2.4000000000000004,9.5,2.7,25.6,8.3,16
180,3106.0,0.6000000000000001,-0.4,0.30000000000000004,-0.4,2.4000000000000004,9.600000000000001,2.2,22.700000000000003,6.699999999999999,16
181,3133.0,0.6000000000000001,-0.30000000000000004,0.2,-0.4,2.4000000000000004,9.5,1.3,20.7,6.300000000000001,16
182,3136.0,0.6000000000000001,-0.30000000000000004,0.2,-0.4,2.4000000000000004,9.5,1.3,20.7,6.300000000000001,16
183,3153.0,0.6000000000000001,-0.2,0.2,-0.4,2.5,9.5,-1.4,17.5,7.6,16
184,3169.0,0.6000000000000001,-0.2,0.2,-0.4,2.5,9.5,-1.4,17.5,7.6,16
185,3186.0,0.6000000000000001,-0.1,0.2,-0.4,2.6,9.5,-4.1,14.5,8.899999999999999,16
186,3203.0,0.6000000000000001,0.0,0.2,-0.6000000000000001,2.8000000000000003,9.600000000000001,-7.6,9.899999999999999,10.8,16
187,3223.0,0.4,0.2,0.30000000000000004,-0.6000000000000001,2.8000000000000003,9.700000000000001,-13.5,-5.8,19.799999999999997,16
188,3238.0,0.4,0.2,0.30000000000000004,-0.4,2.7,9.700000000000001,-13.5,-5.8,19.799999999999997,16
189,3253.0,0.6000000000000001,-0.1,0.2,-0.2,2.2,9.700000000000001,-22.3,-13.3,27.800000000000004,16
190,3269.0,0.6000000000000001,-0.30000000000000004,0.2,0.1,2.0,9.700000000000001,-22.3,-13.3,27.800000000000004,16
191,3286.0,0.9,-0.6000000000000001,0.1,0.30000000000000004,1.7000000000000002,9.4,-28.1,-21.7,25.900000000000002,16
192,3303.0,0.9,-0.6000000000000001,0.0,0.4,1.6,9.5,-39.0,-28.500000000000004,16.3,16
193,3328.0,0.8,-0.6000000000000001,0.0,0.4,1.5,9.600000000000001,-38.800000000000004,-26.200000000000003,11.8,16
194,3336.0,0.7000000000000001,-0.5,0.0,0.30000000000000004,1.5,9.700000000000001,-38.800000000000004,-26.200000000000003,11.8,16
195,3353.0,0.5,-0.4,0.1,0.30000000000000004,1.5,9.600000000000001,-34.1,-21.1,8.0,16
196,3369.0,0.5,-0.4,0.0,0.30000000000000004,1.4000000000000001,9.600000000000001,-26.400000000000006,-15.899999999999999,5.0,16
197,3386.0,0.5,-0.4,-0.1,0.30000000000000004,1.4000000000000001,9.5,-18.700000000000003,-8.600000000000001,0.2,16
198,3403.0,0.2,-0.2,0.0,-0.1,1.8,9.700000000000001,-12.200000000000001,-0.7,-5.4,16
199,3423.0,-0.2,0.30000000000000004,0.2,-0.5,2.3000000000000003,9.8,-1.2000000000000002,7.8,-9.0,16
200,3437.0,-0.30000000000000004,0.5,0.2,-0.6000000000000001,2.4000000000000004,9.8,-1.2000000000000002,7.8,-9.0,16
201,3452.0,-0.5,0.7000000000000001,0.1,-0.7000000000000001,2.4000000000000004,9.600000000000001,0.0,7.6,-6.699999999999999,16
202,3469.0,-0.4,0.6000000000000001,-0.1,-0.7000000000000001,2.3000000000000003,9.5,-2.2,5.4,-4.5,16
203,3486.0,-0.4,0.6000000000000001,-0.1,-0.7000000000000001,2.3000000000000003,9.600000000000001,-7.0,2.2,-4.2,16
204,3505.0,-0.6000000000000001,0.7000000000000001,0.1,-0.9,2.5,9.700000000000001,-10.200000000000001,-0.1,-4.2,16
205,3523.0,-0.7000000000000001,0.9,0.1,-0.9,2.4000000000000004,9.8,-10.200000000000001,-1.0,1.5,16
206,3538.0,-0.6000000000000001,0.8,0.2,-0.9,2.3000000000000003,9.8,-10.200000000000001,-1.0,1.5,16
207,3553.0,-0.6000000000000001,0.6000000000000001,0.2,-0.9,2.2,9.8,-8.700000000000001,0.6000000000000001,3.8,16
208,3570.0,-0.6000000000000001,0.6000000000000001,0.1,-0.8,2.1,9.700000000000001,-4.7,1.4,6.4,16
209,3586.0,-0.6000000000000001,0.5,0.1,-0.8,2.0,9.700000000000001,-4.7,1.4,6.4,16
210,3603.0,-0.5,0.30000000000000004,0.0,-0.7000000000000001,1.9000000000000001,9.700000000000001,-3.1,3.0,6.600000000000001,16
211,3626.0,-0.4,0.30000000000000004,0.1,-0.7000000000000001,1.8,9.8,-3.0,4.6,7.200000000000001,16
212,3636.0,-0.4,0.2,0.1,-0.7000000000000001,1.8,9.8,-3.0,4.6,7.200000000000001,16
213,3653.0,-0.30000000000000004,0.1,0.2,-0.6000000000000001,1.6,9.9,-3.3000000000000007,2.9,7.699999999999999,16
214,3672.0,-0.30000000000000004,0.0,0.30000000000000004,-0.5,1.6,9.9,-1.2000000000000002,-1.6,7.8,16
215,3687.0,-0.2,0.0,0.2,-0.5,1.6,9.9,-1.2000000000000002,-1.6,7.8,16
216,3702.0,-0.2,0.0,0.1,-0.4,1.5,9.8,-0.8,-2.6,8.100000000000001,16
217,3722.0,-0.1,0.0,0.0,-0.30000000000000004,1.5,9.700000000000001,-3.2,-3.9,7.400000000000001,16
218,3739.0,0.0,-0.1,0.0,-0.4,1.5,9.700000000000001,-3.2,-3.9,7.400000000000001,16
219,3752.0,-0.1,0.0,0.0,-0.4,1.5,9.700000000000001,-4.0,-3.8,6.500000000000001,16
220,3769.0,-0.2,0.1,0.0,-0.5,1.7000000000000002,9.700000000000001,-3.0,-2.5,6.4,16
221,3786.0,-0.30000000000000004,0.1,0.0,-0.6000000000000001,1.7000000000000002,9.700000000000001,-3.0,-2.5,6.4,16
222,3803.0,-0.30000000000000004,0.2,-0.1,-0.6000000000000001,1.6,9.600000000000001,-2.1,-1.5,8.0,16
223,3823.0,-0.2,0.0,-0.1,-0.5,1.5,9.600000000000001,-2.4000000000000004,-0.30000000000000004,9.2,16
224,3836.0,-0.2,0.0,-0.1,-0.5,1.5,9.600000000000001,-2.4000000000000004,-0.30000000000000004,9.2,16
225,3853.0,-0.2,0.0,-0.2,-0.5,1.5,9.4,-4.300000000000001,-0.8,8.700000000000001,16
226,3870.0,-0.2,0.1,-0.30000000000000004,-0.5,1.6,9.3,-5.500000000000001,-0.9000000000000001,8.4,16
227,3886.0,-0.2,0.1,-0.30000000000000004,-0.6000000000000001,1.6,9.4,-7.200000000000001,1.3,9.100000000000001,16
228,3902.0,-0.30000000000000004,0.1,-0.1,-0.6000000000000001,1.5,9.700000000000001,-8.0,5.0,10.1,16
229,3930.0,-0.30000000000000004,0.0,0.1,-0.6000000000000001,1.3,9.700000000000001,-6.9,6.300000000000001,10.600000000000001,16
230,3938.0,-0.1,-0.1,0.0,-0.5,1.2000000000000002,9.700000000000001,-6.500000000000001,6.600000000000001,7.699999999999999,16
231,3952.0,-0.1,-0.2,0.1,-0.6000000000000001,1.3,9.700000000000001,-6.500000000000001,6.600000000000001,7.699999999999999,16
232,3969.0,-0.2,0.0,0.1,-0.7000000000000001,1.4000000000000001,9.9,-6.8,7.500000000000001,5.2,16
233,3986.0,-0.2,0.0,0.2,-0.7000000000000001,1.4000000000000001,10.0,-6.1000000000000005,8.3,4.1,16
234,4002.0,-0.2,0.1,0.30000000000000004,-0.7000000000000001,1.4000000000000001,9.9,-3.8,9.4,4.2,16
235,4019.0,-0.1,0.0,0.1,-0.5,1.4000000000000001,9.600000000000001,-2.0,8.0,3.9,16
236,4036.0,0.0,0.0,-0.1,-0.5,1.4000000000000001,9.5,-1.9,6.2,2.4000000000000004,16
237,4055.0,0.1,0.1,-0.2,-0.5,1.4000000000000001,9.5,-2.7,6.500000000000001,0.5,16
238,4069.0,0.1,0.1,-0.2,-0.5,1.5,9.5,-2.6,8.700000000000001,-1.0,16
239,4086.0,0.1,0.1,-0.2,-0.6000000000000001,1.5,9.5,0.1,13.200000000000003,-2.6,16
240,4102.0,0.1,0.2,-0.1,-0.6000000000000001,1.6,9.600000000000001,0.1,13.200000000000003,-2.6,16
241,4119.0,0.0,0.2,0.0,-0.7000000000000001,1.6,9.700000000000001,0.5,13.8,-2.2,16
242,4136.0,0.1,0.2,0.0,-0.7000000000000001,1.6,9.700000000000001,-0.8,11.8,-1.0,16
243,4153.0,0.1,0.2,0.0,-0.7000000000000001,1.6,9.600000000000001,-0.8,11.8,-1.0,16
244,4169.0,0.1,0.2,0.0,-0.7000000000000001,1.6,9.8,-2.8,11.2,-0.7,16
245,4186.0,0.0,0.2,0.2,-0.8,1.6,9.9,-2.1,9.5,1.0,16
246,4202.0,0.0,0.2,0.30000000000000004,-0.8,1.6,9.9,-2.1,9.5,1.0,16
247,4222.0,0.1,0.2,0.1,-0.6000000000000001,1.5,9.600000000000001,-1.0,5.4,2.8,16
248,4237.0,0.30000000000000004,0.1,-0.2,-0.5,1.5,9.4,-5.9,1.0,3.4,16
249,4252.0,0.30000000000000004,0.1,-0.2,-0.5,1.5,9.4,-5.9,1.0,3.4,16
250,4279.0,0.2,0.1,0.0,-0.6000000000000001,1.4000000000000001,9.700000000000001,-8.700000000000001,5.8,4.1,16
251,4286.0,0.2,0.1,0.1,-0.6000000000000001,1.3,9.8,-8.700000000000001,5.8,4.1,16
252,4302.0,0.2,0.0,0.1,-0.6000000000000001,1.3,9.8,-6.9,5.500000000000001,4.800000000000001,16
253,4320.0,0.30000000000000004,-0.1,0.1,-0.6000000000000001,1.3,9.700000000000001,-5.4,5.0,4.4,16
254,4337.0,0.2,0.0,0.2,-0.7000000000000001,1.3,10.0,-6.300000000000001,4.6,3.4,16
255,4352.0,0.2,0.0,0.30000000000000004,-0.7000000000000001,1.3,10.100000000000001,-7.200000000000001,5.1000000000000005,2.9,16
256,4369.0,0.1,0.0,0.4,-0.7000000000000001,1.2000000000000002,10.100000000000001,-6.2,4.0,2.5,16
257,4386.0,0.1,-0.1,0.30000000000000004,-0.7000000000000001,1.1,10.0,-5.300000000000001,1.8000000000000003,1.7,16
258,4402.0,0.1,-0.1,0.2,-0.8,1.2000000000000002,10.0,-4.7,1.7,0.30000000000000004,16
259,4419.0,0.0,0.0,0.30000000000000004,-0.9,1.2000000000000002,10.100000000000001,-4.1,2.0,-0.5,16
260,4436.0,-0.1,0.0,0.30000000000000004,-1.0,1.2000000000000002,10.100000000000001,-2.1,2.2,-0.5,16
261,4456.0,-0.1,-0.1,0.2,-0.9,1.1,9.8,0.5,-0.8,-1.9,16
262,4469.0,0.0,-0.1,0.0,-0.9,1.2000000000000002,9.700000000000001,0.5,-0.8,-1.9,16
263,4486.0,-0.1,0.0,-0.2,-1.0,1.3,9.600000000000001,-0.7,-0.9000000000000001,-3.2,16
264,4503.0,-0.1,0.1,-0.2,-1.1,1.3,9.600000000000001,-1.9,1.2000000000000002,-3.4,16
265,4523.0,-0.2,0.0,-0.1,-1.1,1.1,9.8,1.0,6.300000000000001,-2.7,16
266,4537.0,-0.2,-0.1,0.0,-1.1,1.1,9.700000000000001,1.0,6.300000000000001,-2.7,16
267,4553.0,-0.1,-0.1,0.0,-1.1,1.1,9.600000000000001,3.2,6.2,-3.5,16
268,4569.0,-0.2,0.0,-0.2,-1.1,1.2000000000000002,9.600000000000001,3.3000000000000007,5.9,-4.2,16
269,4586.0,-0.2,0.1,-0.2,-1.2000000000000002,1.3,9.600000000000001,2.1,7.500000000000001,-4.1,16
270,4603.0,-0.2,0.0,-0.1,-1.2000000000000002,1.2000000000000002,9.700000000000001,0.2,7.8,-2.6,16
271,4625.0,-0.1,0.0,0.0,-1.2000000000000002,1.2000000000000002,9.8,-0.9000000000000001,7.6,-2.4000000000000004,16
272,4636.0,-0.1,0.0,0.0,-1.2000000000000002,1.2000000000000002,9.8,-0.9000000000000001,7.6,-2.4000000000000004,16
273,4652.0,-0.1,0.0,0.1,-1.3,1.2000000000000002,9.8,-0.7,4.7,-1.2000000000000002,16
274,4669.0,-0.1,0.0,0.1,-1.2000000000000002,1.2000000000000002,9.8,-0.7,4.7,-1.2000000000000002,16
275,4686.0,0.0,0.0,0.0,-1.2000000000000002,1.1,9.600000000000001,-0.30000000000000004,3.6000000000000005,-0.7,16
276,4702.0,0.0,0.0,-0.1,-1.1,1.2000000000000002,9.700000000000001,-1.3,4.6,-1.0,16
277,4720.0,0.0,0.0,0.0,-1.2000000000000002,1.2000000000000002,9.8,-1.3,4.6,-1.0,16
278,4736.0,0.0,0.0,0.1,-1.2000000000000002,1.1,9.8,-1.4,5.2,-0.9000000000000001,16
279,4752.0,0.0,-0.1,0.1,-1.2000000000000002,1.1,9.8,-0.4,4.2,-0.8,16
280,4769.0,0.0,-0.1,0.0,-1.1,1.1,9.700000000000001,0.30000000000000004,2.0,-0.9000000000000001,16
281,4786.0,0.1,0.0,0.0,-1.2000000000000002,1.2000000000000002,9.700000000000001,0.0,2.7,-0.9000000000000001,16
282,4802.0,0.1,0.0,0.0,-1.2000000000000002,1.2000000000000002,9.700000000000001,-0.2,3.5,-0.7,16
283,4819.0,0.1,0.0,0.0,-1.2000000000000002,1.2000000000000002,9.700000000000001,-0.30000000000000004,2.2,-0.2,16
284,4836.0,0.1,0.0,0.0,-1.2000000000000002,1.2000000000000002,9.8,-0.7,2.3,0.4,16
285,4852.0,0.1,0.0,0.1,-1.1,1.2000000000000002,9.8,-0.5,2.3,1.1,16
286,4869.0,0.1,0.0,0.1,-1.1,1.2000000000000002,9.8,-0.1,0.30000000000000004,1.2000000000000002,16
287,4886.0,0.1,0.0,0.1,-1.1,1.2000000000000002,9.8,-0.2,-0.9000000000000001,1.0,16
288,4902.0,0.1,0.1,0.1,-1.1,1.2000000000000002,9.8,0.4,-1.4,1.3,16
289,4921.0,0.1,0.0,0.0,-1.1,1.2000000000000002,9.600000000000001,1.0,-2.5,2.2,16
290,4937.0,0.1,0.0,-0.1,-1.1,1.2000000000000002,9.700000000000001,1.0,-2.5,2.2,16
291,4952.0,0.1,0.0,0.0,-1.1,1.1,9.700000000000001,0.4,-1.4,2.1,16
292,4969.0,0.1,-0.1,0.0,-1.1,1.1,9.700000000000001,0.30000000000000004,-2.2,1.4,16
293,4986.0,0.0,-0.1,0.0,-1.1,1.2000000000000002,9.700000000000001,0.30000000000000004,-2.2,1.4,16
294,5009.0,0.0,-0.1,0.1,-1.2000000000000002,1.1,10.0,0.8,1.2000000000000002,1.9,16
295,5019.0,-0.1,-0.1,0.2,-1.2000000000000002,1.0,10.0,2.2,-0.6000000000000001,1.8000000000000003,16
296,5035.0,-0.1,-0.2,0.30000000000000004,-1.2000000000000002,1.0,10.0,2.2,-0.6000000000000001,1.8000000000000003,16
297,5052.0,-0.1,-0.1,0.30000000000000004,-1.2000000000000002,1.1,10.0,3.1,-2.3,1.4,16
298,5069.0,-0.1,-0.1,0.1,-1.2000000000000002,1.1,9.8,2.3,-6.300000000000001,0.9000000000000001,16
299,5086.0,-0.1,-0.1,0.0,-1.2000000000000002,1.1,9.700000000000001,2.3,-6.300000000000001,0.9000000000000001,16
300,5102.0,0.0,-0.1,0.0,-1.1,1.0,9.700000000000001,1.5,-6.300000000000001,0.4,16
301,5119.0,-0.1,-0.1,0.0,-1.2000000000000002,1.1,9.700000000000001,3.6000000000000005,-4.2,-0.6000000000000001,16
302,5135.0,-0.1,-0.1,0.0,-1.2000000000000002,1.1,9.700000000000001,3.6000000000000005,-4.2,-0.6000000000000001,16
303,5152.0,-0.1,0.0,-0.2,-1.1,1.2000000000000002,9.600000000000001,4.5,-4.1,-0.5,16
304,5169.0,0.0,0.0,-0.2,-1.0,1.2000000000000002,9.600000000000001,1.2000000000000002,-2.5,-1.7,16
305,5186.0,0.0,0.0,-0.1,-1.1,1.2000000000000002,9.8,1.2000000000000002,-2.5,-1.7,16
306,5202.0,-0.1,0.0,0.2,-1.2000000000000002,1.2000000000000002,9.9,1.6,-1.7,-2.0,16
307,5219.0,-0.1,0.0,0.1,-1.1,1.2000000000000002,9.8,3.8,-2.9,-1.8000000000000003,16
308,5236.0,0.0,0.0,0.0,-1.0,1.2000000000000002,9.700000000000001,4.9,-4.0,-2.0,16
309,5253.0,0.0,0.0,0.0,-1.1,1.3,9.9,4.4,-2.6,-2.4000000000000004,16
310,5269.0,-0.1,0.0,0.2,-1.1,1.3,10.0,4.7,-2.0,-2.5,16
311,5286.0,0.0,0.0,0.2,-1.1,1.3,9.9,6.1000000000000005,-4.300000000000001,-2.5,16
312,5302.0,0.0,0.0,0.0,-1.0,1.4000000000000001,9.700000000000001,6.600000000000001,-6.2,-2.9,16
313,5320.0,-0.1,0.1,0.0,-1.1,1.4000000000000001,9.9,6.300000000000001,-4.800000000000001,-2.9,16
314,5337.0,-0.1,0.1,0.1,-1.1,1.4000000000000001,9.9,6.9,-3.5,-2.0,16
315,5352.0,-0.1,0.0,0.1,-1.0,1.4000000000000001,9.9,8.0,-3.8,-1.3,16
316,5369.0,0.0,0.0,0.1,-0.9,1.4000000000000001,9.9,8.0,-4.800000000000001,-1.4,16
317,5386.0,0.1,0.0,0.0,-0.9,1.5,9.700000000000001,5.300000000000001,-9.100000000000001,-2.6,16
318,5402.0,0.1,0.1,-0.1,-0.8,1.5,9.8,5.300000000000001,-9.100000000000001,-2.6,16
319,5421.0,0.0,0.1,0.1,-0.9,1.5,10.0,4.7,-8.600000000000001,-2.5,16
320,5436.0,0.0,0.1,0.2,-0.8,1.5,10.0,6.300000000000001,-6.9,-1.7,16
321,5452.0,0.1,0.0,0.2,-0.7000000000000001,1.5,9.9,8.600000000000001,-8.0,-1.8000000000000003,16
322,5472.0,0.1,0.0,0.1,-0.7000000000000001,1.5,9.8,10.200000000000001,-9.8,-2.7,16
323,5486.0,0.1,0.0,0.1,-0.7000000000000001,1.5,9.8,10.200000000000001,-9.8,-2.7,16
324,5502.0,0.1,0.1,-0.1,-0.7000000000000001,1.7000000000000002,9.8,10.200000000000001,-10.4,-4.2,16
325,5519.0,0.0,0.1,0.0,-0.7000000000000001,1.7000000000000002,9.8,10.5,-10.0,-3.4,16
326,5535.0,0.0,0.0,0.0,-0.6000000000000001,1.7000000000000002,9.8,12.200000000000001,-11.8,-2.5,16
327,5552.0,0.1,0.0,0.0,-0.6000000000000001,1.7000000000000002,9.8,12.200000000000001,-11.8,-2.5,16
328,5569.0,0.1,0.0,-0.1,-0.5,1.8,9.600000000000001,12.299999999999999,-13.3,-2.4000000000000004,16
329,5586.0,0.1,0.0,-0.30000000000000004,-0.4,1.7000000000000002,9.4,10.200000000000001,-14.800000000000002,-2.0,16
330,5602.0,0.1,0.0,-0.30000000000000004,-0.4,1.8,9.4,10.200000000000001,-14.800000000000002,-2.0,16
331,5619.0,0.1,0.0,-0.30000000000000004,-0.4,1.8,9.5,8.3,-13.8,-1.9,16
332,5636.0,0.0,0.0,-0.1,-0.5,1.7000000000000002,9.700000000000001,8.700000000000001,-9.700000000000001,-0.1,16
333,5666.0,0.0,-0.2,-0.1,-0.4,1.6,9.5,10.0,-10.1,-0.1,16
334,5669.0,0.0,-0.2,-0.1,-0.4,1.6,9.5,10.0,-10.1,-0.1,16
335,5686.0,0.0,-0.2,-0.2,-0.4,1.7000000000000002,9.5,9.700000000000001,-11.000000000000002,-1.2000000000000002,16
336,5702.0,0.0,-0.2,-0.2,-0.4,1.8,9.5,8.0,-10.600000000000001,-2.5,16
337,5719.0,-0.2,-0.1,0.0,-0.5,1.9000000000000001,9.700000000000001,7.200000000000001,-9.4,-2.8,16
338,5736.0,-0.2,0.0,0.0,-0.5,1.9000000000000001,9.700000000000001,7.6,-9.4,-1.9,16
339,5752.0,-0.2,-0.1,0.0,-0.5,1.9000000000000001,9.700000000000001,7.500000000000001,-10.5,-1.0,16
340,5769.0,-0.30000000000000004,-0.1,0.1,-0.5,1.9000000000000001,9.9,7.699999999999999,-9.700000000000001,-1.0,16
341,5786.0,-0.2,-0.1,0.2,-0.5,1.9000000000000001,9.9,8.5,-10.200000000000001,-0.9000000000000001,16
342,5802.0,-0.2,-0.1,0.2,-0.4,2.0,9.8,9.600000000000001,-12.8,-1.3,16
343,5819.0,-0.2,0.0,0.1,-0.4,2.1,9.8,10.1,-15.399999999999999,-1.9,16
344,5836.0,-0.2,0.2,0.1,-0.30000000000000004,2.4000000000000004,9.8,10.700000000000001,-15.2,-1.6,16
345,5852.0,-0.30000000000000004,0.4,0.1,-0.4,2.6,9.8,11.4,-14.0,0.30000000000000004,16
346,5869.0,-0.30000000000000004,0.7000000000000001,0.2,0.2,2.2,9.700000000000001,12.100000000000001,-12.4,4.2,16
347,5886.0,0.4,-0.4,-0.30000000000000004,0.30000000000000004,1.9000000000000001,9.5,10.5,-12.600000000000001,4.800000000000001,16
348,5903.0,0.30000000000000004,-0.30000000000000004,-0.2,0.1,2.3000000000000003,9.8,6.1000000000000005,-13.700000000000001,1.6,16
349,5921.0,0.0,0.0,0.1,0.1,2.2,9.8,7.400000000000001,-9.4,-0.30000000000000004,16
350,5938.0,0.0,-0.1,0.1,0.0,2.2,9.8,12.299999999999999,-6.2,-0.6000000000000001,16
351,5952.0,-0.1,0.0,0.1,-0.1,2.4000000000000004,9.600000000000001,19.0,-8.3,-1.3,16
352,5969.0,-0.1,0.0,0.0,-0.1,2.4000000000000004,9.600000000000001,19.0,-8.3,-1.3,16
353,5986.0,-0.2,0.0,-0.1,-0.1,2.4000000000000004,9.700000000000001,17.7,-7.8,-1.2000000000000002,16
354,6002.0,-0.2,-0.1,0.4,-0.1,2.4000000000000004,9.9,15.899999999999999,-13.100000000000001,-1.5,16
355,6019.0,-0.30000000000000004,-0.1,0.30000000000000004,-0.1,2.4000000000000004,9.8,15.899999999999999,-13.100000000000001,-1.5,16
356,6036.0,-0.30000000000000004,-0.1,0.2,0.0,2.5,9.700000000000001,16.900000000000002,-17.400000000000002,-2.2,16
357,6052.0,-0.2,-0.1,-0.1,0.0,2.6,9.3,19.200000000000003,-17.6,-2.5,16
358,6069.0,-0.30000000000000004,0.0,-0.2,0.1,2.7,9.3,19.200000000000003,-17.6,-2.5,16
359,6086.0,-0.2,0.0,-0.30000000000000004,0.1,2.7,9.3,17.9,-12.9,-2.1,16
360,6102.0,-0.1,0.0,-0.1,0.1,2.6,9.5,16.0,-7.9,-2.0,16
361,6119.0,-0.2,-0.1,-0.1,0.1,2.7,9.5,16.0,-7.9,-2.0,16
362,6139.0,-0.2,-0.1,-0.1,0.1,2.7,9.4,17.200000000000003,-8.2,-2.6,16
363,6153.0,-0.1,-0.1,-0.2,0.2,2.8000000000000003,9.200000000000001,18.200000000000003,-9.100000000000001,-3.1,16
364,6169.0,-0.2,-0.1,-0.2,0.2,2.9000000000000004,9.3,18.6,-7.400000000000001,-2.7,16
365,6186.0,-0.2,-0.1,-0.1,0.2,2.8000000000000003,9.3,18.8,-5.2,-1.9,16
366,6204.0,0.0,-0.2,-0.1,0.4,2.8000000000000003,9.3,19.5,-5.1000000000000005,-1.4,16
367,6222.0,0.0,-0.2,-0.2,0.4,2.9000000000000004,9.200000000000001,20.3,-4.800000000000001,-3.2,16
368,6237.0,0.1,-0.2,-0.30000000000000004,0.4,3.0,9.0,20.3,-4.800000000000001,-3.2,16
369,6252.0,0.0,0.0,-0.30000000000000004,0.30000000000000004,3.2,9.0,19.799999999999997,-3.0,-3.6000000000000005,16
370,6269.0,0.0,0.0,-0.30000000000000004,0.4,3.3000000000000003,8.9,19.700000000000003,-1.5,-2.3,16
371,6287.0,0.0,0.0,-0.30000000000000004,0.4,3.3000000000000003,8.8,19.300000000000004,-1.1,-0.8,16
372,6302.0,0.0,0.1,-0.5,0.4,3.4000000000000004,8.700000000000001,17.400000000000002,-1.2000000000000002,-0.2,16
373,6319.0,0.1,0.1,-0.4,0.4,3.5,8.8,10.700000000000001,-0.1,1.2000000000000002,16
374,6336.0,0.0,0.1,-0.4,0.4,3.5,8.9,10.700000000000001,-0.1,1.2000000000000002,16
375,6352.0,0.0,0.0,-0.1,0.4,3.4000000000000004,9.0,8.3,-0.8,1.8000000000000003,16
376,6369.0,0.0,0.0,-0.2,0.5,3.5,8.8,6.0,-7.500000000000001,2.4000000000000004,16
377,6386.0,0.1,0.0,-0.30000000000000004,0.6000000000000001,3.5,8.700000000000001,6.0,-7.500000000000001,2.4000000000000004,16
378,6402.0,0.2,0.1,-0.4,0.6000000000000001,3.6,8.8,3.9,-7.200000000000001,2.3,16
379,6419.0,0.1,0.1,-0.1,0.6000000000000001,3.6,9.1,3.0,0.7,3.4,16
380,6437.0,0.1,0.1,0.1,0.6000000000000001,3.5,9.3,3.0,0.7,3.4,16
381,6452.0,0.1,-0.1,0.30000000000000004,0.7000000000000001,3.4000000000000004,9.3,5.0,-0.1,3.8,16
382,6469.0,0.2,-0.1,0.2,0.7000000000000001,3.5,9.1,5.8,-5.0,0.8,16
383,6486.0,0.2,0.0,0.1,0.7000000000000001,3.5,9.1,5.8,-5.0,0.8,16
384,6521.0,0.1,0.1,0.0,0.7000000000000001,3.7,9.1,5.7,-3.6000000000000005,0.6000000000000001,16
385,6535.0,0.1,0.1,0.1,0.7000000000000001,3.6,9.1,5.7,-3.6000000000000005,0.6000000000000001,16
386,6552.0,0.2,0.0,0.0,0.8,3.6,9.0,5.8,-3.9,0.5,16
387,6569.0,0.2,0.0,0.0,0.8,3.6,9.1,5.300000000000001,-3.3000000000000007,-0.4,16
388,6585.0,0.1,0.0,0.0,0.7000000000000001,3.6,9.1,5.0,-1.8000000000000003,-1.2000000000000002,16
389,6602.0,0.1,0.0,0.0,0.7000000000000001,3.7,9.0,5.8,-1.6,-1.4,16
390,6619.0,0.0,0.0,0.0,0.7000000000000001,3.7,9.0,6.4,-1.8000000000000003,-1.1,16
391,6637.0,0.0,0.0,-0.1,0.6000000000000001,3.7,9.0,6.1000000000000005,-0.8,-0.8,16
392,6652.0,0.0,0.0,0.0,0.6000000000000001,3.7,9.1,5.0,-0.1,-0.4,16
393,6669.0,0.0,0.0,0.1,0.7000000000000001,3.7,9.1,4.5,-0.5,0.1,16
394,6686.0,0.0,0.0,0.1,0.7000000000000001,3.7,9.1,4.4,-2.0,0.4,16
395,6702.0,0.0,0.0,0.0,0.7000000000000001,3.7,9.0,3.9,-3.5,0.4,16
396,6719.0,0.0,-0.1,-0.1,0.7000000000000001,3.7,9.0,3.0,-4.2,0.1,16
397,6735.0,0.0,0.0,0.0,0.7000000000000001,3.7,9.0,2.8,-3.1,0.1,16
398,6752.0,0.0,0.0,0.0,0.8,3.7,8.9,3.7000000000000006,-2.3,0.1,16
399,6769.0,0.1,0.0,-0.1,0.8,3.8000000000000003,8.9,3.6000000000000005,-2.5,0.2,16
400,6786.0,0.1,0.0,0.0,0.7000000000000001,3.7,9.0,2.7,0.1,-0.1,16
401,6803.0,0.0,0.0,0.0,0.7000000000000001,3.7,9.0,2.7,0.1,-0.1,16
402,6819.0,0.1,-0.1,0.0,0.8,3.7,8.9,3.0,-0.8,-0.2,16
403,6837.0,0.1,0.0,-0.1,0.8,3.8000000000000003,8.8,2.3,-4.2,-1.7,16
404,6852.0,0.1,0.0,-0.2,0.8,3.8000000000000003,8.700000000000001,2.3,-4.2,-1.7,16
405,6869.0,0.1,0.1,-0.2,0.8,3.8000000000000003,8.9,1.1,-2.3,-1.9,16
406,6886.0,0.0,0.1,0.0,0.7000000000000001,3.8000000000000003,9.0,1.6,2.1,-1.2000000000000002,16
407,6902.0,0.0,0.0,0.1,0.7000000000000001,3.8000000000000003,9.0,1.6,2.1,-1.2000000000000002,16
408,6921.0,0.0,0.0,0.1,0.7000000000000001,3.8000000000000003,9.0,1.9,1.2000000000000002,-1.0,16
409,6936.0,0.0,0.0,0.1,0.7000000000000001,3.7,9.1,0.5,1.2000000000000002,-1.4,16
410,6952.0,-0.1,-0.1,0.1,0.7000000000000001,3.7,9.1,0.5,1.2000000000000002,-1.4,16
411,6969.0,-0.1,0.0,0.1,0.6000000000000001,3.8000000000000003,9.0,0.2,-0.5,-1.6,16
412,6986.0,-0.1,0.1,0.0,0.6000000000000001,3.9000000000000004,9.0,0.5,0.2,-0.7,16
413,7006.0,-0.1,0.1,0.0,0.6000000000000001,3.8000000000000003,9.0,0.5,0.2,-0.7,16
414,7019.0,-0.1,0.0,0.0,0.6000000000000001,3.7,9.0,0.30000000000000004,0.9000000000000001,-0.2,16
415,7036.0,-0.1,-0.1,0.1,0.6000000000000001,3.7,9.0,-0.1,0.8,-0.1,16
416,7052.0,-0.1,-0.1,0.1,0.6000000000000001,3.7,9.0,-0.30000000000000004,-0.1,-0.5,16
417,7069.0,-0.1,0.0,0.0,0.7000000000000001,3.8000000000000003,9.0,-1.0,-1.7,-0.8,16
418,7086.0,-0.1,0.1,0.0,0.6000000000000001,3.9000000000000004,9.0,-1.1,-0.8,-0.7,16
419,7102.0,-0.1,0.1,0.0,0.6000000000000001,3.9000000000000004,9.0,-0.8,-0.30000000000000004,0.1,16
420,7119.0,-0.1,0.1,0.0,0.6000000000000001,3.9000000000000004,9.0,-0.6000000000000001,0.0,1.1,16
421,7136.0,-0.1,0.0,0.1,0.6000000000000001,3.8000000000000003,9.1,-0.4,0.7,1.9,16
422,7153.0,0.0,0.0,0.1,0.7000000000000001,3.8000000000000003,9.1,-0.30000000000000004,-0.2,2.4000000000000004,16
423,7169.0,0.0,0.0,0.1,0.7000000000000001,3.8000000000000003,9.0,-0.1,-1.1,2.2,16
424,7186.0,0.0,0.0,-0.1,0.7000000000000001,3.8000000000000003,8.9,-0.5,-1.8000000000000003,1.8000000000000003,16
425,7202.0,0.0,0.0,-0.1,0.7000000000000001,3.8000000000000003,9.0,-1.7,-0.9000000000000001,1.6,16
426,7223.0,0.0,0.0,0.1,0.7000000000000001,3.8000000000000003,9.200000000000001,-1.5,2.3,1.5,16
427,7238.0,0.0,0.0,0.2,0.7000000000000001,3.9000000000000004,9.1,0.4,2.3,1.2000000000000002,16
428,7253.0,0.0,0.2,0.0,0.8,4.0,9.0,2.0,-0.6000000000000001,1.2000000000000002,16
429,7272.0,0.1,0.2,0.0,0.8,4.0,9.0,2.0,-0.6000000000000001,1.2000000000000002,16
430,7287.0,0.0,0.2,0.0,0.7000000000000001,3.9000000000000004,9.0,0.8,1.4,2.0,16
431,7303.0,0.0,0.1,0.0,0.8,3.9000000000000004,9.0,-0.30000000000000004,1.3,2.7,16
432,7319.0,0.1,0.0,0.1,0.8,3.7,9.1,-0.9000000000000001,0.9000000000000001,2.5,16
433,7336.0,0.1,-0.1,0.1,0.8,3.8000000000000003,9.1,-0.5,1.5,1.8000000000000003,16
434,7352.0,0.1,0.0,0.0,0.8,3.8000000000000003,9.0,1.5,2.3,1.2000000000000002,16
435,7369.0,0.1,0.0,0.0,0.8,3.8000000000000003,9.0,1.5,2.3,1.2000000000000002,16
436,7386.0,0.1,-0.1,0.0,0.8,3.7,9.1,1.6,4.7,0.9000000000000001,16
437,7402.0,0.0,-0.1,0.1,0.7000000000000001,3.8000000000000003,9.1,1.7,2.3,0.2,16
438,7420.0,0.0,-0.1,0.1,0.7000000000000001,3.8000000000000003,9.0,1.7,2.3,0.2,16
439,7436.0,0.0,-0.1,0.0,0.7000000000000001,3.8000000000000003,8.9,1.5,1.7,0.6000000000000001,16
440,7452.0,0.0,-0.1,-0.1,0.7000000000000001,3.8000000000000003,8.9,0.9000000000000001,0.4,1.1,16
441,7469.0,0.0,0.0,-0.1,0.7000000000000001,3.8000000000000003,8.9,-0.2,-0.7,1.5,16
442,7486.0,0.0,0.0,-0.1,0.7000000000000001,3.8000000000000003,9.0,-1.3,-0.30000000000000004,2.3,16
443,7503.0,0.0,-0.1,0.0,0.7000000000000001,3.7,9.0,-1.8000000000000003,0.2,3.2,16
444,7522.0,0.0,-0.1,0.0,0.8,3.7,8.9,-1.6,-2.3,2.4000000000000004,16
445,7536.0,0.0,-0.1,-0.1,0.7000000000000001,3.7,8.8,-1.6,-2.3,2.4000000000000004,16
446,7553.0,-0.1,0.0,-0.2,0.6000000000000001,3.8000000000000003,8.8,-2.2,-2.4000000000000004,1.5,16
447,7569.0,-0.1,0.0,-0.2,0.5,3.8000000000000003,8.8,-2.9,-1.0,1.4,16
448,7587.0,-0.2,0.1,-0.1,0.5,3.8000000000000003,8.9,-2.6,0.9000000000000001,2.2,16
449,7602.0,-0.30000000000000004,0.0,0.0,0.4,3.7,9.0,-2.2,2.0,3.1,16
450,7620.0,-0.30000000000000004,0.0,0.0,0.4,3.7,9.1,-1.9,3.5,3.6000000000000005,16
451,7636.0,-0.4,-0.1,0.30000000000000004,0.30000000000000004,3.7,9.3,-1.3,4.4,4.1,16
452,7653.0,-0.4,-0.1,0.30000000000000004,0.30000000000000004,3.7,9.200000000000001,0.0,1.2000000000000002,5.4,16
453,7669.0,-0.4,-0.1,0.2,0.4,3.7,9.0,0.4,-4.300000000000001,6.8,16
454,7686.0,-0.2,0.0,-0.2,0.6000000000000001,3.7,8.700000000000001,-1.1,-8.700000000000001,7.9,16
455,7702.0,0.0,0.0,-0.4,0.8,3.8000000000000003,8.6,-4.0,-8.899999999999999,8.2,16
456,7719.0,0.0,0.1,-0.4,0.8,3.8000000000000003,8.700000000000001,-6.4,-6.1000000000000005,8.0,16
457,7736.0,0.1,0.2,-0.2,0.8,3.8000000000000003,8.9,-6.8,-2.1,8.100000000000001,16
458,7752.0,0.1,0.1,0.0,0.9,3.8000000000000003,9.0,-5.8,0.5,8.0,16
459,7769.0,0.1,0.1,0.0,0.9,3.8000000000000003,9.0,-4.7,0.9000000000000001,7.500000000000001,16
460,7787.0,0.2,0.1,0.0,1.1,3.8000000000000003,8.9,-4.4,0.2,6.600000000000001,16
461,7803.0,0.30000000000000004,0.2,-0.1,1.1,3.9000000000000004,8.9,-5.4,0.0,5.500000000000001,16
462,7819.0,0.2,0.2,0.0,1.1,3.9000000000000004,9.0,-6.699999999999999,2.3,5.500000000000001,16
463,7849.0,0.30000000000000004,0.1,0.0,1.2000000000000002,3.7,9.0,-6.8,2.2,5.7,16
464,7852.0,0.30000000000000004,0.1,0.0,1.2000000000000002,3.7,9.0,-6.8,2.2,5.7,16
465,7869.0,0.4,0.0,0.1,1.3,3.5,9.200000000000001,-8.4,3.0,4.800000000000001,16
466,7886.0,0.4,0.0,0.1,1.3,3.5,9.3,-8.4,3.0,4.800000000000001,16
467,7902.0,0.4,-0.1,0.30000000000000004,1.2000000000000002,3.5,9.4,-8.2,3.1,3.5,16
468,7919.0,0.30000000000000004,-0.1,0.30000000000000004,1.2000000000000002,3.4000000000000004,9.3,-6.2,2.3,2.7,16
469,7936.0,0.30000000000000004,-0.1,0.2,1.2000000000000002,3.4000000000000004,9.3,-3.7000000000000006,2.3,2.2,16
470,7953.0,0.30000000000000004,-0.1,0.1,1.2000000000000002,3.4000000000000004,9.200000000000001,-2.6,3.0,1.4,16
471,7969.0,0.30000000000000004,-0.2,0.1,1.2000000000000002,3.3000000000000003,9.3,-2.6,3.3000000000000007,0.4,16
472,7989.0,0.2,-0.2,0.2,1.1,3.2,9.3,-1.6,2.7,-1.2000000000000002,16
473,8003.0,0.2,-0.2,0.2,1.1,3.2,9.3,-1.6,2.7,-1.2000000000000002,16
474,8019.0,0.2,-0.2,0.1,1.1,3.3000000000000003,9.1,-0.9000000000000001,0.4,-2.1,16
475,8036.0,0.2,-0.2,0.0,1.1,3.3000000000000003,9.1,-1.4,-1.0,-3.2,16
476,8052.0,0.2,-0.1,0.0,1.1,3.3000000000000003,9.200000000000001,-2.5,0.7,-4.0,16
477,8069.0,0.1,-0.1,0.0,1.0,3.3000000000000003,9.200000000000001,-2.0,1.8000000000000003,-4.7,16
478,8086.0,0.1,-0.1,0.0,1.0,3.3000000000000003,9.1,-0.8,1.3,-5.500000000000001,16
479,8102.0,0.0,-0.1,0.0,0.9,3.3000000000000003,9.1,-0.8,1.3,-5.500000000000001,16
480,8119.0,0.0,-0.1,-0.1,0.8,3.3000000000000003,9.1,-1.2000000000000002,1.8000000000000003,-6.300000000000001,16
481,8136.0,-0.1,-0.1,-0.1,0.7000000000000001,3.3000000000000003,9.1,-0.7,1.6,-6.9,16
482,8152.0,-0.2,-0.1,-0.1,0.7000000000000001,3.4000000000000004,9.0,0.1,0.8,-6.8,16
483,8169.0,-0.2,0.0,-0.2,0.7000000000000001,3.4000000000000004,8.9,0.0,0.2,-6.2,16
484,8188.0,-0.2,0.0,-0.30000000000000004,0.7000000000000001,3.4000000000000004,8.9,-4.2,0.1,-4.9,16
485,8210.0,-0.2,0.1,-0.2,0.6000000000000001,3.4000000000000004,9.0,-6.2,0.8,-4.300000000000001,16
486,8221.0,-0.2,0.1,-0.2,0.6000000000000001,3.4000000000000004,9.0,-6.2,0.8,-4.300000000000001,16
487,8236.0,-0.1,0.1,0.0,0.7000000000000001,3.4000000000000004,9.1,-5.9,0.30000000000000004,-2.9,16
488,8252.0,-0.1,0.1,0.0,0.7000000000000001,3.4000000000000004,9.1,-5.9,0.30000000000000004,-2.9,16
489,8269.0,0.0,0.1,-0.1,0.7000000000000001,3.5,9.1,-5.4,1.0,-2.8,16
490,8285.0,0.0,0.2,0.0,0.7000000000000001,3.5,9.200000000000001,-5.500000000000001,3.3000000000000007,-1.9,16
491,8302.0,-0.1,0.1,0.1,0.7000000000000001,3.5,9.200000000000001,-5.500000000000001,3.3000000000000007,-1.9,16
492,8319.0,0.0,0.1,0.1,0.8,3.4000000000000004,9.200000000000001,-5.7,2.3,-1.2000000000000002,16
493,8335.0,0.0,0.0,0.1,0.8,3.3000000000000003,9.3,-6.8,2.1,-1.5,16
494,8352.0,0.0,0.0,0.1,0.8,3.2,9.3,-6.8,2.1,-1.5,16
495,8369.0,0.0,-0.1,0.1,0.8,3.2,9.4,-6.300000000000001,2.6,-2.3,16
496,8385.0,0.0,0.0,0.2,0.7000000000000001,3.2,9.4,-3.8,4.0,-3.6000000000000005,16
497,8402.0,0.0,0.0,0.2,0.7000000000000001,3.2,9.4,-3.8,4.0,-3.6000000000000005,16
498,8419.0,0.0,-0.1,0.2,0.7000000000000001,3.2,9.4,-3.0,2.8,-4.300000000000001,16
499,8436.0,0.0,0.0,0.1,0.7000000000000001,3.2,9.3,-2.8,0.8,-5.1000000000000005,16
500,8452.0,0.0,0.0,0.0,0.7000000000000001,3.2,9.200000000000001,-3.0,-1.1,-5.4,16
501,8470.0,0.1,-0.1,-0.1,0.7000000000000001,3.1,9.200000000000001,-2.8,-0.7,-5.6,16
502,8486.0,0.0,-0.1,-0.1,0.7000000000000001,3.1,9.200000000000001,-1.9,0.1,-6.4,16
503,8502.0,0.0,-0.1,-0.1,0.7000000000000001,3.1,9.1,-0.6000000000000001,-0.2,-7.1000000000000005,16
504,8519.0,0.0,-0.1,-0.2,0.6000000000000001,3.2,9.0,0.30000000000000004,-0.9000000000000001,-7.400000000000001,16
505,8536.0,-0.1,-0.1,-0.30000000000000004,0.5,3.1,8.9,0.0,-1.0,-7.1000000000000005,16
506,8553.0,-0.1,-0.1,-0.30000000000000004,0.5,3.1,8.9,-1.2000000000000002,-1.7,-6.600000000000001,16
507,8569.0,-0.1,-0.1,-0.2,0.5,3.1,9.0,-2.2,-3.2,-6.1000000000000005,16
508,8588.0,-0.2,0.0,-0.2,0.5,3.3000000000000003,8.9,-3.4,-5.9,-5.6,16
509,8611.0,-0.1,0.1,-0.4,0.6000000000000001,3.3000000000000003,8.8,-9.4,-8.5,-3.3000000000000007,16
510,8619.0,-0.1,0.1,-0.4,0.6000000000000001,3.3000000000000003,8.8,-9.4,-8.5,-3.3000000000000007,16
511,8635.0,-0.1,0.2,-0.30000000000000004,0.6000000000000001,3.3000000000000003,8.9,-13.399999999999999,-6.1000000000000005,-1.8000000000000003,16
512,8653.0,-0.1,0.1,-0.1,0.6000000000000001,3.1,9.200000000000001,-16.4,-3.1,0.0,16
513,8673.0,-0.1,0.0,0.0,0.7000000000000001,3.0,9.4,-17.1,1.6,1.4,16
514,8686.0,0.0,0.0,0.30000000000000004,0.7000000000000001,2.9000000000000004,9.5,-15.5,4.4,1.5,16
515,8710.0,0.0,-0.1,0.30000000000000004,0.7000000000000001,2.9000000000000004,9.600000000000001,-12.9,5.300000000000001,-0.7,16
516,8719.0,0.0,0.0,0.30000000000000004,0.6000000000000001,2.9000000000000004,9.600000000000001,-12.9,5.300000000000001,-0.7,16
517,8736.0,0.0,0.0,0.5,0.5,2.9000000000000004,9.9,-12.200000000000001,6.8,-1.7,16
518,8753.0,-0.1,0.0,0.7000000000000001,0.4,2.9000000000000004,10.100000000000001,-5.8,10.1,-2.4000000000000004,16
519,8769.0,-0.1,0.0,0.8,0.4,2.9000000000000004,10.100000000000001,-5.8,10.1,-2.4000000000000004,16
520,8786.0,-0.1,0.0,0.7000000000000001,0.4,2.9000000000000004,9.9,-1.8000000000000003,7.1000000000000005,-2.6,16
521,8810.0,-0.1,0.1,0.4,0.4,3.0,9.700000000000001,0.30000000000000004,1.6,-2.4000000000000004,16
522,8819.0,-0.1,0.1,0.2,0.4,3.0,9.600000000000001,0.30000000000000004,1.6,-2.4000000000000004,16
523,8836.0,-0.1,0.2,0.1,0.4,3.1,9.4,-0.6000000000000001,0.1,-1.2000000000000002,16
524,8852.0,0.0,0.2,-0.1,0.5,3.0,9.3,-1.7,1.1,1.8000000000000003,16
525,8869.0,0.0,0.1,-0.1,0.5,3.0,9.3,-1.7,1.1,1.8000000000000003,16
526,8886.0,0.0,0.0,-0.1,0.5,2.9000000000000004,9.4,-1.7,2.9,2.7,16
527,8909.0,0.1,0.0,0.0,0.6000000000000001,2.8000000000000003,9.4,-0.9000000000000001,3.6000000000000005,3.2,16
528,8919.0,0.1,-0.1,0.0,0.6000000000000001,2.8000000000000003,9.4,-0.4,2.3,3.2,16
529,8936.0,0.1,0.0,-0.1,0.6000000000000001,2.9000000000000004,9.3,-0.9000000000000001,1.7,2.8,16
530,8952.0,0.1,0.0,-0.1,0.6000000000000001,2.9000000000000004,9.4,-1.9,2.0,2.9,16
531,8969.0,0.1,0.0,-0.1,0.6000000000000001,2.8000000000000003,9.5,-2.8,3.2,3.4,16
532,8986.0,0.1,-0.1,0.1,0.6000000000000001,2.7,9.600000000000001,-3.2,4.4,3.6000000000000005,16
533,9011.0,0.1,-0.1,0.2,0.6000000000000001,2.7,9.700000000000001,-2.5,3.8,2.9,16
534,9024.0,0.0,-0.1,0.2,0.6000000000000001,2.7,9.600000000000001,0.4,2.3,2.2,16
535,9037.0,0.1,-0.1,0.1,0.6000000000000001,2.7,9.5,0.4,2.3,2.2,16
536,9052.0,0.1,-0.1,0.0,0.6000000000000001,2.7,9.5,0.6000000000000001,2.2,2.0,16
537,9069.0,0.1,-0.1,0.0,0.6000000000000001,2.7,9.5,0.30000000000000004,2.1,1.6,16
538,9086.0,0.1,-0.1,0.1,0.6000000000000001,2.6,9.600000000000001,0.4,2.0,1.5,16
539,9107.0,0.1,-0.2,0.1,0.5,2.6,9.5,0.9000000000000001,1.7,0.8,16
540,9119.0,0.1,-0.1,0.0,0.5,2.7,9.4,2.3,-1.0,-0.30000000000000004,16
541,9136.0,0.0,-0.1,-0.1,0.5,2.8000000000000003,9.3,2.3,-1.0,-0.30000000000000004,16
542,9152.0,0.0,0.0,-0.2,0.6000000000000001,2.8000000000000003,9.200000000000001,2.0,-0.30000000000000004,-0.1,16
543,9169.0,0.1,0.0,-0.2,0.5,2.8000000000000003,9.3,0.5,2.1,0.8,16
544,9186.0,0.0,0.0,-0.2,0.5,2.8000000000000003,9.3,0.5,2.1,0.8,16
545,9205.0,0.0,0.0,-0.1,0.5,2.8000000000000003,9.4,0.0,2.3,1.2000000000000002,16
546,9219.0,0.0,-0.1,-0.1,0.5,2.7,9.4,-2.0,0.0,1.3,16
547,9236.0,0.0,-0.1,-0.1,0.5,2.7,9.4,-2.0,0.0,1.3,16
548,9252.0,0.0,-0.1,0.0,0.5,2.7,9.4,-2.2,0.2,1.2000000000000002,16
549,9269.0,0.0,-0.1,0.0,0.5,2.8000000000000003,9.3,-0.4,-1.2000000000000002,0.7,16
550,9286.0,0.0,0.0,-0.1,0.5,2.8000000000000003,9.3,-0.4,-1.2000000000000002,0.7,16
551,9303.0,0.0,0.0,-0.1,0.4,2.8000000000000003,9.3,-0.4,0.0,1.0,16
552,9327.0,0.0,0.0,0.0,0.4,2.8000000000000003,9.4,-1.0,1.2000000000000002,1.6,16
553,9336.0,0.0,0.0,0.0,0.4,2.7,9.4,-1.0,1.2000000000000002,1.6,16
554,9352.0,0.0,0.0,0.0,0.5,2.7,9.5,-1.4,0.9000000000000001,1.5,16
555,9369.0,0.0,0.0,0.0,0.5,2.8000000000000003,9.4,-1.7,1.0,1.2000000000000002,16
556,9386.0,0.0,0.0,0.0,0.5,2.8000000000000003,9.4,-1.8000000000000003,-0.2,1.2000000000000002,16
557,9409.0,0.0,0.0,0.0,0.5,2.7,9.5,-1.6,1.8000000000000003,1.6,16
558,9419.0,0.0,0.0,0.1,0.5,2.7,9.5,-1.6,1.8000000000000003,1.6,16
559,9437.0,0.0,0.0,0.1,0.5,2.7,9.5,-1.1,1.2000000000000002,1.4,16
560,9452.0,0.0,0.0,0.0,0.5,2.7,9.4,-1.2000000000000002,-0.4,0.7,16
561,9470.0,0.1,0.0,-0.1,0.5,2.8000000000000003,9.4,-1.5,-0.1,0.5,16
562,9490.0,0.0,0.0,0.0,0.5,2.7,9.4,-1.0,0.7,0.5,16
563,9502.0,0.0,0.0,0.0,0.5,2.7,9.4,-1.0,0.7,0.5,16
564,9519.0,0.1,0.0,0.0,0.6000000000000001,2.8000000000000003,9.4,-0.4,0.9000000000000001,0.30000000000000004,16
565,9538.0,0.1,0.1,-0.1,0.6000000000000001,2.8000000000000003,9.3,-1.7,-0.1,0.1,16
566,9552.0,0.1,0.1,-0.1,0.6000000000000001,2.8000000000000003,9.4,-1.7,-0.1,0.1,16
567,9569.0,0.1,0.1,0.0,0.5,2.8000000000000003,9.4,-2.4000000000000004,1.4,0.5,16
568,9587.0,0.1,0.0,0.0,0.5,2.7,9.5,-2.6,1.4,0.6000000000000001,16
569,9602.0,0.1,0.0,0.0,0.5,2.7,9.5,-2.6,1.4,0.6000000000000001,16
570,9627.0,0.0,-0.1,0.2,0.5,2.6,9.600000000000001,-1.4,1.4,-0.2,16
571,9644.0,0.0,-0.1,0.2,0.5,2.6,9.600000000000001,-0.4,0.0,-0.7,16
572,9653.0,0.0,-0.1,0.2,0.5,2.6,9.600000000000001,-0.4,0.0,-0.7,16
573,9669.0,0.0,-0.1,0.0,0.5,2.7,9.4,-0.1,-0.9000000000000001,-1.1,16
574,9685.0,0.0,0.0,0.0,0.5,2.7,9.5,-1.0,0.5,-1.1,16
575,9702.0,0.0,0.0,0.0,0.5,2.6,9.600000000000001,-1.0,0.5,-1.1,16
576,9729.0,0.0,-0.1,0.1,0.6000000000000001,2.6,9.5,0.9000000000000001,-1.0,-1.5,16
577,9735.0,0.1,-0.1,0.0,0.6000000000000001,2.6,9.4,0.7,-2.1,-2.4000000000000004,16
578,9752.0,0.1,-0.1,-0.1,0.6000000000000001,2.7,9.3,0.7,-2.1,-2.4000000000000004,16
579,9769.0,0.0,0.0,-0.2,0.5,2.8000000000000003,9.4,-0.4,-1.1,-2.6,16
580,9786.0,0.0,0.1,-0.1,0.4,2.7,9.5,-0.5,0.8,-2.1,16
581,9802.0,0.0,0.0,0.1,0.4,2.7,9.600000000000001,0.1,1.9,-1.4,16
582,9823.0,-0.1,0.0,0.1,0.4,2.7,9.5,0.2,0.6000000000000001,-1.5,16
583,9840.0,-0.1,0.0,0.1,0.4,2.7,9.5,-0.30000000000000004,-0.6000000000000001,-1.7,16
584,9852.0,-0.1,0.0,0.0,0.4,2.7,9.5,-0.5,-1.7,-1.6,16
585,9869.0,-0.1,0.1,0.0,0.4,2.7,9.4,-0.4,-2.8,-1.1,16
586,9885.0,-0.1,0.0,0.0,0.4,2.7,9.5,-0.30000000000000004,-1.7,-0.8,16
587,9902.0,0.0,0.0,0.0,0.4,2.7,9.5,0.2,-0.7,-0.9000000000000001,16
588,9919.0,0.0,0.0,0.0,0.4,2.7,9.4,1.0,-0.7,-1.2000000000000002,16
589,9936.0,0.0,0.0,-0.2,0.5,2.7,9.3,1.0,-1.8000000000000003,-1.1,16
590,9952.0,0.0,0.0,-0.2,0.5,2.7,9.200000000000001,-0.30000000000000004,-1.2000000000000002,-0.8,16
591,9969.0,0.0,0.0,-0.2,0.4,2.6,9.4,-1.8000000000000003,1.3,-0.9000000000000001,16
592,9985.0,-0.1,-0.1,0.1,0.4,2.6,9.600000000000001,-1.7,2.8,-0.9000000000000001,16
593,10002.0,-0.1,-0.1,0.1,0.4,2.6,9.5,0.2,1.8000000000000003,-1.0,16
594,10019.0,0.0,0.0,-0.1,0.5,2.7,9.200000000000001,1.5,-1.1,-1.4,16
595,10035.0,0.0,0.1,-0.2,0.4,2.8000000000000003,9.3,0.5,0.2,-1.2000000000000002,16
596,10052.0,0.0,0.1,-0.1,0.4,2.7,9.5,-1.2000000000000002,3.5,-0.30000000000000004,16
597,10069.0,0.0,0.0,0.2,0.4,2.6,9.600000000000001,-1.4,3.6000000000000005,0.5,16
598,10085.0,0.0,-0.1,0.2,0.5,2.6,9.5,-1.0,0.8,0.4,16
599,10102.0,0.0,-0.1,0.0,0.5,2.6,9.4,-1.1,-0.7,-0.7,16
600,10119.0,0.0,0.0,0.0,0.5,2.6,9.5,-1.1,-0.7,-0.7,16
601,10136.0,0.1,0.0,0.1,0.5,2.7,9.5,-0.7,0.30000000000000004,-0.6000000000000001,16
602,10152.0,0.0,0.0,0.1,0.5,2.7,9.4,-0.5,0.4,-0.4,16
603,10169.0,0.1,0.0,0.0,0.5,2.7,9.5,-0.5,0.4,-0.4,16
604,10186.0,0.1,0.0,0.1,0.5,2.6,9.600000000000001,-1.4,1.5,-0.4,16
605,10202.0,0.0,-0.1,0.1,0.5,2.6,9.5,-0.9000000000000001,-1.5,-1.5,16
606,10219.0,0.0,-0.1,0.1,0.5,2.6,9.5,-0.9000000000000001,-1.5,-1.5,16
607,10235.0,0.1,0.0,-0.1,0.5,2.6,9.3,-0.7,-1.5,-2.0,16
608,10252.0,0.0,0.0,-0.1,0.4,2.6,9.5,-0.8,1.5,-2.0,16
609,10269.0,0.0,0.0,0.0,0.4,2.6,9.5,-0.8,1.5,-2.0,16
610,10286.0,0.0,0.0,0.0,0.4,2.6,9.5,-0.1,1.4,-1.9,16
611,10303.0,0.0,0.0,0.0,0.5,2.6,9.5,0.2,1.3,-1.9,16
612,10319.0,0.0,-0.1,0.0,0.5,2.6,9.5,-0.1,1.3,-2.1,16
613,10335.0,0.0,0.0,0.0,0.4,2.7,9.5,-0.9000000000000001,0.8,-2.5,16
614,10352.0,0.0,0.1,0.0,0.4,2.7,9.5,-1.5,0.2,-2.5,16
615,10369.0,0.0,0.1,0.0,0.4,2.7,9.5,-1.6,0.1,-2.2,16
616,10385.0,0.0,0.1,0.0,0.4,2.7,9.5,-1.2000000000000002,0.6000000000000001,-2.0,16
617,10402.0,0.0,0.1,0.0,0.4,2.7,9.4,-0.8,0.8,-2.0,16
618,10419.0,0.0,0.1,0.0,0.4,2.7,9.4,-0.8,0.8,-2.0,16
619,10435.0,0.0,0.1,0.0,0.4,2.7,9.5,-0.9000000000000001,1.9,-1.8000000000000003,16
620,10452.0,0.0,0.1,0.0,0.4,2.7,9.5,-0.5,2.0,-1.3,16
621,10469.0,0.0,0.1,0.0,0.4,2.7,9.5,-0.8,1.7,-0.9000000000000001,16
622,10485.0,0.0,0.1,0.1,0.30000000000000004,2.7,9.600000000000001,-0.9000000000000001,2.9,-0.5,16
623,10502.0,0.0,0.0,0.1,0.4,2.7,9.5,-0.8,1.8000000000000003,-0.30000000000000004,16
624,10520.0,0.0,0.0,0.1,0.4,2.7,9.5,-0.8,1.8000000000000003,-0.30000000000000004,16
625,10540.0,0.0,-0.1,0.1,0.4,2.5,9.700000000000001,-0.7,0.7,0.1,16
626,10552.0,0.0,-0.1,0.2,0.4,2.5,9.600000000000001,-0.7,0.7,0.1,16
627,10569.0,0.0,-0.1,0.1,0.4,2.5,9.4,-0.30000000000000004,-2.6,-1.1,16
628,10585.0,0.1,-0.1,-0.1,0.4,2.5,9.4,-0.30000000000000004,-2.6,-1.1,16
629,10602.0,0.0,0.0,-0.2,0.4,2.6,9.4,-1.1,-1.3,-1.3,16
630,10624.0,0.0,0.0,-0.1,0.30000000000000004,2.6,9.4,-0.7,1.4,-0.5,16
631,10635.0,0.0,0.0,0.0,0.30000000000000004,2.6,9.5,-0.7,1.4,-0.5,16
632,10652.0,0.0,-0.1,0.0,0.4,2.5,9.4,-0.7,0.8,-0.2,16
633,10669.0,0.0,0.0,0.0,0.30000000000000004,2.6,9.5,-3.3000000000000007,0.5,-0.4,16
634,10687.0,0.0,0.0,0.0,0.30000000000000004,2.5,9.600000000000001,-3.3000000000000007,0.5,-0.4,16
635,10702.0,0.0,0.0,0.1,0.30000000000000004,2.5,9.600000000000001,-2.9,1.1,-0.30000000000000004,16
636,10719.0,0.0,0.0,0.1,0.30000000000000004,2.6,9.5,-0.6000000000000001,-0.7,-0.9000000000000001,16
637,10735.0,0.0,0.0,0.0,0.30000000000000004,2.6,9.5,-0.6000000000000001,-0.7,-0.9000000000000001,16
638,10752.0,0.0,0.1,0.0,0.30000000000000004,2.7,9.5,-0.2,1.5,-0.6000000000000001,16
639,10769.0,-0.1,0.1,0.1,0.30000000000000004,2.6,9.600000000000001,0.5,2.5,-0.1,16
640,10787.0,-0.1,0.0,0.1,0.30000000000000004,2.6,9.600000000000001,0.9000000000000001,1.4,0.2,16
641,10802.0,0.0,0.0,0.1,0.30000000000000004,2.7,9.5,1.0,0.2,0.4,16
642,10819.0,0.0,0.1,-0.1,0.30000000000000004,2.7,9.4,0.5,-1.0,0.4,16
643,10835.0,0.0,0.1,-0.1,0.30000000000000004,2.7,9.5,-0.4,-0.8,0.7,16
644,10852.0,0.0,0.1,0.0,0.30000000000000004,2.6,9.5,-0.5,1.8000000000000003,1.5,16
645,10869.0,0.0,0.0,0.0,0.30000000000000004,2.6,9.4,0.4,1.2000000000000002,1.7,16
646,10885.0,0.0,0.0,-0.1,0.30000000000000004,2.6,9.5,0.4,0.2,1.6,16
647,10903.0,-0.1,0.0,0.1,0.30000000000000004,2.5,9.600000000000001,0.5,2.3,1.7,16
648,10921.0,0.0,-0.1,0.1,0.30000000000000004,2.5,9.5,0.9000000000000001,1.0,1.8000000000000003,16
649,10935.0,0.0,-0.1,0.0,0.30000000000000004,2.6,9.3,1.2000000000000002,-1.9,1.4,16
650,10952.0,0.0,0.0,-0.2,0.30000000000000004,2.6,9.3,0.2,-2.2,1.1,16
651,10969.0,0.0,0.0,-0.2,0.30000000000000004,2.6,9.4,-0.4,-0.30000000000000004,1.6,16
652,10989.0,0.0,0.0,-0.1,0.4,2.6,9.4,-0.6000000000000001,-0.30000000000000004,3.0,16
653,11002.0,0.1,0.0,-0.1,0.4,2.5,9.4,-0.6000000000000001,-0.30000000000000004,3.0,16
654,11020.0,0.1,-0.1,-0.1,0.5,2.5,9.4,-1.5,0.1,2.8,16
655,11035.0,0.1,-0.1,0.0,0.5,2.5,9.600000000000001,-2.1,0.6000000000000001,2.4000000000000004,16
656,11052.0,0.1,-0.1,0.1,0.5,2.5,9.600000000000001,-1.7,0.7,2.0,16
657,11069.0,0.2,-0.1,0.0,0.5,2.5,9.5,-0.8,0.6000000000000001,1.4,16
658,11089.0,0.1,0.0,0.1,0.5,2.5,9.600000000000001,-0.7,2.0,0.8,16
659,11103.0,0.2,0.0,0.1,0.5,2.5,9.700000000000001,-0.7,2.0,0.8,16
660,11124.0,0.1,-0.1,0.2,0.5,2.5,9.600000000000001,-0.1,1.8000000000000003,0.2,16
661,11140.0,0.1,0.0,0.0,0.5,2.6,9.5,-0.30000000000000004,-0.5,-1.1,16
662,11153.0,0.1,0.0,0.0,0.4,2.6,9.5,-0.30000000000000004,-0.5,-1.1,16
663,11169.0,0.0,0.0,0.1,0.4,2.5,9.600000000000001,-0.30000000000000004,1.2000000000000002,-0.5,16
664,11185.0,0.0,0.0,0.1,0.4,2.5,9.600000000000001,0.30000000000000004,0.8,-0.1,16
665,11203.0,0.0,-0.1,0.1,0.4,2.5,9.5,0.6000000000000001,-0.30000000000000004,-0.7,16
666,11219.0,0.0,-0.1,0.0,0.30000000000000004,2.5,9.5,0.4,-0.4,-1.2000000000000002,16
667,11236.0,-0.1,0.0,0.0,0.30000000000000004,2.5,9.600000000000001,0.4,-0.30000000000000004,-1.2000000000000002,16
668,11257.0,-0.1,0.0,0.1,0.30000000000000004,2.5,9.600000000000001,0.9000000000000001,-0.4,-0.5,16
669,11269.0,0.0,-0.1,0.0,0.30000000000000004,2.5,9.4,1.0,-1.5,-0.30000000000000004,16
670,11285.0,0.0,0.0,-0.1,0.4,2.5,9.3,0.2,-2.5,-0.5,16
671,11305.0,0.0,0.0,-0.2,0.4,2.6,9.3,-0.4,-2.3,-0.7,16
672,11319.0,0.0,0.1,-0.2,0.4,2.6,9.3,-1.0,-1.7,-0.30000000000000004,16
673,11335.0,0.0,0.0,-0.1,0.4,2.5,9.4,-1.4,0.9000000000000001,0.2,16
674,11352.0,0.0,-0.1,0.0,0.30000000000000004,2.4000000000000004,9.600000000000001,-1.4,2.6,0.0,16
675,11369.0,0.0,-0.1,0.1,0.30000000000000004,2.4000000000000004,9.600000000000001,-1.1,2.4000000000000004,-0.4,16
676,11387.0,-0.1,0.0,0.1,0.30000000000000004,2.6,9.5,0.0,0.9000000000000001,-0.9000000000000001,16
677,11403.0,0.0,0.0,0.0,0.4,2.6,9.4,0.4,-1.4,-0.8,16
678,11422.0,0.0,0.1,-0.1,0.4,2.6,9.4,-0.5,-0.2,-0.5,16
679,11439.0,0.0,0.1,0.0,0.30000000000000004,2.6,9.600000000000001,-1.4,1.3,0.1,16
680,11455.0,0.0,0.0,0.1,0.4,2.6,9.700000000000001,-0.2,2.1,1.1,16
681,11469.0,0.0,0.0,0.2,0.4,2.5,9.600000000000001,-0.2,2.1,1.1,16
682,11486.0,0.0,0.0,0.0,0.4,2.6,9.5,0.30000000000000004,0.6000000000000001,0.8,16
683,11503.0,0.0,0.0,0.0,0.30000000000000004,2.6,9.700000000000001,-0.2,2.2,0.9000000000000001,16
684,11519.0,0.0,0.1,0.2,0.30000000000000004,2.6,9.8,-0.2,2.2,0.9000000000000001,16
685,11541.0,0.0,0.0,0.30000000000000004,0.4,2.5,9.600000000000001,1.6,0.5,1.4,16
686,11552.0,0.0,0.0,0.0,0.4,2.6,9.4,0.5,-2.2,0.8,16
687,11569.0,0.1,0.0,-0.1,0.4,2.6,9.4,0.5,-2.2,0.8,16
688,11585.0,0.0,0.0,-0.1,0.4,2.5,9.5,0.1,0.30000000000000004,0.7,16
689,11602.0,0.0,-0.1,0.0,0.4,2.5,9.5,3.3000000000000007,1.0,0.0,16
690,11619.0,0.0,0.0,0.0,0.30000000000000004,2.6,9.5,3.3000000000000007,1.0,0.0,16
691,11635.0,0.0,0.1,-0.1,0.30000000000000004,2.7,9.5,3.0,0.30000000000000004,0.1,16
692,11652.0,0.0,0.1,-0.1,0.30000000000000004,2.6,9.4,1.7,0.8,0.7,16
693,11670.0,0.0,0.0,-0.1,0.30000000000000004,2.5,9.4,0.4,-0.1,1.3,16
694,11685.0,0.0,0.0,-0.1,0.4,2.5,9.4,-0.2,-0.5,1.6,16
695,11702.0,0.0,0.0,0.0,0.4,2.5,9.5,-0.2,0.0,1.4,16
696,11719.0,0.0,0.0,0.0,0.4,2.5,9.4,0.30000000000000004,0.1,1.3,16
697,11736.0,0.0,0.0,-0.1,0.4,2.6,9.5,0.7,0.4,1.2000000000000002,16
698,11752.0,0.1,0.0,0.0,0.4,2.5,9.600000000000001,1.0,1.2000000000000002,1.3,16
699,11769.0,0.1,-0.1,0.1,0.4,2.5,9.5,1.3,1.0,1.3,16
700,11786.0,0.1,0.0,0.0,0.4,2.5,9.5,1.0,-0.4,1.1,16
701,11802.0,0.1,0.0,0.0,0.5,2.6,9.5,0.5,-1.1,1.0,16
702,11827.0,0.1,0.0,-0.1,0.5,2.6,9.4,0.1,-1.1,0.6000000000000001,16
703,11837.0,0.1,0.0,-0.1,0.5,2.6,9.4,0.1,-1.1,0.6000000000000001,16
704,11852.0,0.1,0.0,0.0,0.5,2.5,9.5,0.30000000000000004,0.4,0.5,16
705,11869.0,0.0,0.0,0.0,0.4,2.5,9.5,1.0,1.3,0.2,16
706,11885.0,0.1,0.0,0.0,0.4,2.5,9.5,1.3,0.9000000000000001,-0.1,16
707,11902.0,0.0,0.0,0.0,0.4,2.6,9.5,1.1,0.5,-0.5,16
708,11919.0,0.0,0.0,0.0,0.4,2.6,9.5,0.5,-1.1,-0.6000000000000001,16
709,11935.0,0.0,0.0,0.0,0.4,2.6,9.5,0.5,-1.1,-0.6000000000000001,16
710,11952.0,0.0,0.0,-0.1,0.4,2.5,9.4,0.0,-1.5,-0.6000000000000001,16
711,11969.0,0.0,0.0,0.0,0.30000000000000004,2.6,9.5,0.8,0.9000000000000001,-0.9000000000000001,16
712,11985.0,0.0,0.0,0.0,0.30000000000000004,2.6,9.5,0.8,0.9000000000000001,-0.9000000000000001,16
713,12003.0,-0.1,0.0,0.0,0.30000000000000004,2.6,9.3,2.2,0.30000000000000004,-0.8,16
714,12019.0,0.0,0.0,-0.2,0.30000000000000004,2.6,9.3,-1.2000000000000002,0.30000000000000004,0.0,16
715,12036.0,-0.1,0.0,-0.1,0.30000000000000004,2.6,9.5,-1.2000000000000002,0.30000000000000004,0.0,16
716,12052.0,-0.1,0.0,0.1,0.30000000000000004,2.6,9.600000000000001,-1.7,0.6000000000000001,0.30000000000000004,16
717,12071.0,-0.1,0.0,0.1,0.4,2.6,9.5,1.0,-2.8,-0.1,16
718,12085.0,0.0,0.0,0.0,0.4,2.7,9.3,1.0,-2.8,-0.1,16
719,12102.0,0.0,0.1,-0.2,0.4,2.7,9.3,0.6000000000000001,-1.1,0.1,16
720,12119.0,0.0,0.1,0.0,0.4,2.7,9.5,-0.1,1.5,0.6000000000000001,16
721,12135.0,0.0,0.1,0.0,0.4,2.6,9.5,-0.1,2.1,1.3,16
722,12152.0,0.0,0.0,0.0,0.4,2.6,9.5,-0.1,1.1,1.3,16
723,12169.0,0.0,0.0,0.0,0.4,2.6,9.5,-0.4,0.4,1.1,16
724,12185.0,0.0,0.0,0.1,0.4,2.6,9.600000000000001,-0.7,1.4,0.8,16
725,12202.0,0.0,0.0,0.2,0.4,2.6,9.600000000000001,-0.1,1.2000000000000002,0.7,16
726,12219.0,0.0,0.0,0.1,0.4,2.6,9.600000000000001,0.7,-0.1,0.4,16
727,12235.0,0.0,0.0,0.1,0.4,2.6,9.5,0.9000000000000001,-0.2,0.4,16
728,12252.0,0.0,0.0,0.0,0.5,2.6,9.4,0.8,-0.5,0.4,16
729,12269.0,0.1,0.0,0.0,0.4,2.6,9.5,0.4,0.1,0.1,16
730,12285.0,0.0,0.0,0.0,0.4,2.6,9.5,0.9000000000000001,1.0,-0.2,16
731,12302.0,0.0,0.0,0.0,0.4,2.6,9.3,1.6,0.1,-0.30000000000000004,16
732,12319.0,0.0,0.0,-0.2,0.4,2.7,9.4,1.3,-0.1,-0.4,16
733,12336.0,0.0,0.1,-0.1,0.30000000000000004,2.7,9.5,0.4,1.6,-0.1,16
734,12353.0,0.0,0.1,0.0,0.30000000000000004,2.7,9.5,0.30000000000000004,1.5,0.4,16
735,12369.0,0.0,0.0,0.0,0.4,2.7,9.4,-0.1,-0.30000000000000004,0.8,16
736,12386.0,0.0,0.0,-0.1,0.4,2.6,9.5,-0.9000000000000001,0.7,1.1,16
737,12402.0,0.0,0.0,0.0,0.4,2.6,9.5,-0.9000000000000001,0.7,1.1,16
738,12421.0,0.0,0.0,0.1,0.4,2.6,9.5,0.0,0.7,1.2000000000000002,16
739,12437.0,0.0,0.0,0.0,0.4,2.6,9.5,0.5,-0.2,0.6000000000000001,16
740,12452.0,0.1,0.0,0.0,0.5,2.6,9.4,0.5,-0.2,0.6000000000000001,16
741,12469.0,0.1,0.0,0.0,0.4,2.6,9.4,-0.2,0.6000000000000001,0.4,16
742,12486.0,0.0,0.0,0.0,0.4,2.6,9.600000000000001,-0.5,1.4,0.7,16
743,12502.0,0.1,0.0,0.1,0.4,2.6,9.600000000000001,-0.5,1.4,0.7,16
744,12523.0,0.1,0.0,0.0,0.5,2.6,9.5,0.30000000000000004,0.4,0.5,16
745,12536.0,0.1,0.0,0.0,0.4,2.6,9.5,0.2,0.9000000000000001,-0.1,16
746,12552.0,0.1,0.0,0.0,0.5,2.6,9.5,0.2,0.9000000000000001,-0.1,16
747,12569.0,0.1,0.0,0.0,0.4,2.6,9.4,0.4,0.6000000000000001,-0.2,16
748,12586.0,0.0,0.0,0.0,0.4,2.7,9.5,0.4,0.30000000000000004,-0.5,16
749,12603.0,0.0,0.1,0.0,0.4,2.7,9.5,0.4,1.5,-0.7,16
750,12620.0,-0.1,0.1,0.0,0.30000000000000004,2.7,9.5,0.9000000000000001,1.8000000000000003,-0.5,16
751,12638.0,0.0,0.1,0.0,0.30000000000000004,2.7,9.5,1.2000000000000002,1.6,-0.1,16
752,12653.0,0.0,0.1,0.0,0.4,2.7,9.5,0.7,2.3,0.4,16
753,12670.0,0.0,0.1,0.1,0.4,2.7,9.600000000000001,0.0,1.3,1.0,16
754,12686.0,0.1,0.0,0.1,0.5,2.7,9.5,-0.30000000000000004,-0.1,1.3,16
755,12702.0,0.1,0.0,0.1,0.5,2.7,9.4,0.0,-1.6,1.4,16
756,12719.0,0.2,0.0,-0.1,0.6000000000000001,2.7,9.3,-0.30000000000000004,-3.0,0.9000000000000001,16
757,12737.0,0.2,0.0,-0.2,0.6000000000000001,2.7,9.200000000000001,-1.0,-2.3,0.6000000000000001,16
758,12753.0,0.2,0.0,-0.2,0.6000000000000001,2.6,9.3,-1.5,-0.5,0.5,16
759,12769.0,0.2,-0.1,-0.1,0.6000000000000001,2.5,9.4,-0.8,1.6,0.6000000000000001,16
760,12786.0,0.2,-0.2,0.0,0.6000000000000001,2.4000000000000004,9.600000000000001,0.1,2.7,-0.1,16
761,12802.0,0.1,-0.2,0.1,0.5,2.4000000000000004,9.700000000000001,0.30000000000000004,3.1,-1.5,16
762,12821.0,0.0,-0.1,0.30000000000000004,0.30000000000000004,2.5,9.9,0.9000000000000001,3.6000000000000005,-1.8000000000000003,16
763,12836.0,-0.1,-0.1,0.30000000000000004,0.4,2.5,9.700000000000001,2.3,1.6,-1.0,16
764,12855.0,0.0,-0.2,0.1,0.4,2.5,9.5,0.9000000000000001,-2.8,-0.2,16
765,12869.0,0.0,-0.2,0.0,0.4,2.5,9.5,0.9000000000000001,-2.8,-0.2,16
766,12886.0,-0.1,-0.1,0.0,0.4,2.5,9.5,0.2,-1.9,-0.2,16
767,12903.0,-0.1,-0.1,0.0,0.4,2.5,9.4,1.2000000000000002,-1.2000000000000002,0.1,16
768,12924.0,0.0,-0.1,-0.1,0.4,2.5,9.3,2.4000000000000004,-0.4,-0.8,16
769,12935.0,0.0,-0.1,-0.2,0.4,2.6,9.200000000000001,2.4000000000000004,-0.4,-0.8,16
770,12952.0,-0.1,0.0,-0.30000000000000004,0.4,2.7,9.200000000000001,0.5,0.8,-0.5,16
771,12969.0,-0.1,0.1,-0.30000000000000004,0.30000000000000004,2.7,9.200000000000001,0.5,0.8,-0.5,16
772,12986.0,-0.1,0.1,-0.2,0.30000000000000004,2.6,9.3,-0.6000000000000001,2.4000000000000004,0.4,16
773,13002.0,-0.1,0.0,-0.1,0.30000000000000004,2.6,9.5,-0.6000000000000001,5.8,0.5,16
774,13019.0,-0.1,0.0,0.0,0.2,2.6,9.5,-0.6000000000000001,5.8,0.5,16
775,13035.0,-0.2,0.0,0.1,0.2,2.7,9.5,0.5,4.800000000000001,0.8,16
776,13052.0,-0.2,0.1,0.0,0.2,2.7,9.5,1.1,3.5,1.5,16
777,13071.0,-0.2,0.1,0.0,0.2,2.7,9.5,0.30000000000000004,2.9,2.4000000000000004,16
778,13085.0,-0.1,0.1,0.1,0.2,2.7,9.600000000000001,-0.8,3.1,3.4,16
779,13102.0,-0.1,0.1,0.1,0.30000000000000004,2.6,9.5,-0.7,2.4000000000000004,4.4,16
780,13122.0,0.0,0.0,0.0,0.4,2.6,9.4,-0.6000000000000001,1.3,5.1000000000000005,16
781,13136.0,0.1,0.0,0.0,0.30000000000000004,2.6,9.4,-0.6000000000000001,1.3,5.1000000000000005,16
782,13152.0,0.1,0.0,0.0,0.30000000000000004,2.6,9.4,-0.5,1.8000000000000003,4.9,16
783,13169.0,0.0,-0.1,0.0,0.30000000000000004,2.6,9.4,-0.1,3.0,4.800000000000001,16
784,13185.0,0.0,0.0,0.0,0.30000000000000004,2.5,9.4,0.6000000000000001,3.9,4.800000000000001,16
785,13202.0,0.0,-0.1,0.0,0.30000000000000004,2.5,9.4,0.9000000000000001,3.6000000000000005,5.2,16
786,13222.0,0.0,-0.1,-0.1,0.30000000000000004,2.6,9.3,-0.5,2.2,4.9,16
787,13236.0,0.0,0.0,-0.2,0.30000000000000004,2.6,9.3,-0.5,2.2,4.9,16
788,13252.0,0.0,0.0,-0.1,0.30000000000000004,2.6,9.4,-1.3,4.1,5.2,16
789,13271.0,0.0,0.0,0.0,0.30000000000000004,2.6,9.5,-0.9000000000000001,3.9,6.300000000000001,16
790,13286.0,0.0,0.0,0.1,0.30000000000000004,2.5,9.5,-0.9000000000000001,3.9,6.300000000000001,16
791,13302.0,0.0,0.0,0.0,0.30000000000000004,2.6,9.4,-1.1,2.9,6.2,16
792,13320.0,0.0,0.0,0.0,0.30000000000000004,2.6,9.4,-1.1,2.9,6.2,16
793,13337.0,0.1,0.0,0.0,0.4,2.6,9.5,-2.0,2.3,6.600000000000001,16
794,13352.0,0.1,0.0,0.0,0.4,2.6,9.5,-1.5,3.2,6.8,16
795,13369.0,0.1,0.0,0.1,0.30000000000000004,2.5,9.700000000000001,-0.5,5.500000000000001,6.9,16
796,13386.0,0.1,0.0,0.2,0.30000000000000004,2.5,9.700000000000001,-0.5,5.500000000000001,6.9,16
797,13402.0,0.1,-0.1,0.2,0.30000000000000004,2.5,9.700000000000001,0.1,3.3000000000000007,6.500000000000001,16
798,13423.0,0.1,0.0,0.1,0.30000000000000004,2.6,9.5,-0.30000000000000004,0.4,5.300000000000001,16
799,13435.0,0.1,0.0,0.0,0.30000000000000004,2.6,9.4,-0.30000000000000004,0.4,5.300000000000001,16
800,13454.0,0.0,0.0,-0.1,0.30000000000000004,2.6,9.4,-0.5,2.1,5.2,16
801,13469.0,0.0,0.0,0.0,0.2,2.6,9.600000000000001,1.0,6.1000000000000005,4.5,16
802,13485.0,0.0,0.0,0.1,0.2,2.6,9.600000000000001,1.0,6.1000000000000005,4.5,16
803,13502.0,-0.1,0.0,0.0,0.1,2.6,9.5,1.4,5.1000000000000005,4.0,16
804,13519.0,-0.1,0.0,0.0,0.1,2.6,9.600000000000001,0.9000000000000001,5.2,4.1,16
805,13535.0,-0.1,0.0,0.1,0.0,2.5,9.600000000000001,0.2,6.0,4.2,16
806,13552.0,-0.2,-0.1,0.1,0.0,2.5,9.5,0.6000000000000001,4.5,3.9,16
807,13569.0,-0.1,0.0,-0.1,0.1,2.6,9.3,1.1,2.5,3.6000000000000005,16
808,13585.0,-0.1,0.0,-0.1,0.1,2.6,9.3,0.9000000000000001,2.7,3.2,16
809,13602.0,-0.1,0.1,-0.2,0.1,2.7,9.3,0.0,4.5,3.2,16
810,13619.0,-0.1,0.1,-0.1,0.0,2.6,9.4,-0.2,6.2,3.3000000000000007,16
811,13636.0,-0.1,0.1,-0.1,0.0,2.6,9.5,0.0,7.500000000000001,3.7000000000000006,16
812,13653.0,-0.1,0.0,0.0,0.0,2.6,9.600000000000001,0.30000000000000004,7.500000000000001,3.4,16
813,13669.0,-0.1,0.0,0.1,0.0,2.6,9.5,0.30000000000000004,5.9,3.4,16
814,13686.0,-0.1,0.1,0.0,0.0,2.6,9.600000000000001,-0.30000000000000004,4.9,3.7000000000000006,16
815,13702.0,0.0,0.0,0.1,0.0,2.6,9.600000000000001,-0.7,5.500000000000001,4.1,16
816,13719.0,0.0,0.0,0.1,0.0,2.6,9.600000000000001,-0.4,5.1000000000000005,4.2,16
817,13737.0,0.0,0.0,0.1,0.0,2.6,9.5,0.6000000000000001,3.1,3.8,16
818,13754.0,0.0,0.0,0.1,0.0,2.6,9.5,0.6000000000000001,3.1,3.8,16
819,13769.0,0.1,0.0,-0.1,0.1,2.6,9.4,0.5,2.2,3.3000000000000007,16
820,13787.0,0.0,0.0,-0.1,0.0,2.6,9.3,0.30000000000000004,3.8,2.6,16
821,13802.0,0.0,0.0,-0.2,0.0,2.6,9.3,0.30000000000000004,3.8,2.6,16
822,13827.0,0.0,0.0,-0.1,0.0,2.6,9.4,0.2,4.800000000000001,2.4000000000000004,16
823,13835.0,0.0,0.0,-0.1,0.0,2.6,9.4,-0.6000000000000001,4.0,2.4000000000000004,16
824,13852.0,0.0,0.0,-0.1,0.0,2.6,9.4,-0.6000000000000001,4.0,2.4000000000000004,16
825,13869.0,0.0,0.0,-0.1,0.0,2.6,9.4,-1.2000000000000002,3.6000000000000005,2.3,16
826,13886.0,0.1,0.0,0.0,0.0,2.6,9.5,-1.3,3.1,2.4000000000000004,16
827,13902.0,0.1,0.0,0.0,0.0,2.6,9.5,-1.3,3.1,2.4000000000000004,16
828,13920.0,0.1,0.0,0.1,0.0,2.5,9.5,-1.4,2.9,2.4000000000000004,16
829,13941.0,0.1,-0.1,0.1,0.0,2.5,9.5,-1.5,1.5,1.6,16
830,13952.0,0.1,-0.1,0.1,0.0,2.5,9.5,-1.5,1.5,1.6,16
831,13969.0,0.1,-0.1,0.0,0.1,2.5,9.5,-1.4,0.5,1.4,16
832,13985.0,0.1,-0.1,0.0,0.1,2.5,9.4,-1.3,0.0,1.1,16
833,14004.0,0.1,-0.1,-0.1,0.1,2.5,9.4,-1.2000000000000002,0.0,0.2,16
834,14019.0,0.1,-0.1,-0.1,0.0,2.5,9.4,-1.2000000000000002,0.0,0.2,16
835,14036.0,0.0,0.0,-0.1,0.0,2.5,9.3,-1.0,0.2,0.1,16
836,14052.0,0.0,0.0,-0.2,-0.1,2.5,9.3,-1.3,0.1,0.0,16
837,14069.0,-0.1,0.1,-0.2,-0.2,2.6,9.3,-1.8000000000000003,0.6000000000000001,0.0,16
838,14085.0,-0.2,0.1,-0.2,-0.2,2.6,9.200000000000001,-2.0,-0.30000000000000004,0.8,16
839,14103.0,-0.2,0.1,-0.30000000000000004,-0.2,2.6,9.1,-2.8,-1.2000000000000002,1.7,16
840,14123.0,-0.1,0.1,-0.30000000000000004,-0.2,2.6,9.200000000000001,-4.1,-0.8,2.2,16
841,14137.0,-0.2,0.1,-0.2,-0.2,2.6,9.200000000000001,-4.6,-0.30000000000000004,2.5,16
842,14154.0,-0.1,0.1,-0.2,-0.2,2.6,9.1,-4.9,0.30000000000000004,3.4,16
843,14172.0,-0.1,0.1,-0.30000000000000004,-0.2,2.6,9.1,-4.9,0.30000000000000004,3.4,16
844,14186.0,-0.1,0.0,-0.30000000000000004,-0.2,2.5,9.1,-5.6,1.2000000000000002,3.8,16
845,14202.0,-0.1,0.0,-0.2,-0.1,2.4000000000000004,9.200000000000001,-6.4,1.9,4.0,16
846,14219.0,0.0,0.0,-0.2,-0.1,2.4000000000000004,9.200000000000001,-6.600000000000001,2.1,3.7000000000000006,16
847,14235.0,0.0,0.0,-0.1,0.0,2.5,9.200000000000001,-6.500000000000001,2.0,3.1,16
848,14252.0,0.1,0.1,-0.2,0.1,2.5,9.1,-7.699999999999999,-0.4,1.4,16
849,14269.0,0.1,0.1,-0.30000000000000004,0.1,2.5,9.0,-7.699999999999999,-0.4,1.4,16
850,14285.0,0.2,0.1,-0.30000000000000004,0.1,2.5,9.1,-10.200000000000001,1.0,0.2,16
851,14304.0,0.2,0.1,-0.1,0.1,2.5,9.5,-13.399999999999999,6.600000000000001,-2.1,16
852,14319.0,0.2,0.1,0.1,0.1,2.4000000000000004,9.600000000000001,-13.399999999999999,6.600000000000001,-2.1,16
853,14336.0,0.2,0.1,0.2,0.1,2.3000000000000003,9.600000000000001,-12.8,6.4,-3.3000000000000007,16
854,14352.0,0.30000000000000004,0.0,0.1,0.2,2.2,9.5,-13.5,4.800000000000001,-7.200000000000001,16
855,14369.0,0.30000000000000004,0.0,0.1,0.30000000000000004,2.2,9.5,-13.5,4.800000000000001,-7.200000000000001,16
856,14385.0,0.30000000000000004,0.1,0.1,0.30000000000000004,2.3000000000000003,9.5,-13.399999999999999,4.800000000000001,-9.700000000000001,16
857,14402.0,0.4,0.1,0.1,0.30000000000000004,2.2,9.600000000000001,-13.700000000000001,2.1,-13.6,16
858,14419.0,0.4,0.1,0.1,0.30000000000000004,2.2,9.600000000000001,-13.700000000000001,2.1,-13.6,16
859,14436.0,0.5,-0.1,0.2,0.30000000000000004,2.1,9.600000000000001,-12.600000000000001,0.7,-16.4,16
860,14452.0,0.4,0.0,0.0,0.30000000000000004,2.2,9.4,-9.4,-2.9,-19.6,16
861,14469.0,0.4,0.1,-0.1,0.4,2.2,9.200000000000001,-5.300000000000001,-7.200000000000001,-21.7,16
862,14485.0,0.4,0.1,-0.5,0.5,2.1,8.8,-3.5,-9.2,-23.2,16
863,14502.0,0.5,0.1,-0.8,0.5,2.1,8.6,-4.800000000000001,-9.600000000000001,-25.0,16
864,14521.0,0.4,0.1,-0.8,0.5,2.0,8.6,-10.299999999999999,-9.8,-30.200000000000003,16
865,14538.0,0.4,0.1,-0.8,0.4,2.0,8.6,-10.299999999999999,-9.8,-30.200000000000003,16
866,14552.0,0.30000000000000004,0.0,-0.7000000000000001,0.30000000000000004,1.9000000000000001,8.8,-12.200000000000001,-8.600000000000001,-32.400000000000006,16
867,14569.0,0.2,-0.1,-0.6000000000000001,0.30000000000000004,1.7000000000000002,8.9,-12.7,-7.0,-34.300000000000004,16
868,14585.0,0.1,-0.30000000000000004,-0.2,0.2,1.5,9.200000000000001,-11.5,-5.0,-36.2,16
869,14602.0,0.0,-0.30000000000000004,-0.1,0.1,1.4000000000000001,9.200000000000001,-9.100000000000001,-7.0,-38.900000000000006,16
870,14619.0,-0.1,-0.4,-0.1,0.0,1.4000000000000001,9.3,-9.0,-13.200000000000003,-41.4,16
871,14635.0,-0.1,-0.4,0.0,0.0,1.3,9.4,-11.000000000000002,-16.5,-44.300000000000004,16
872,14652.0,-0.2,-0.4,0.2,-0.2,1.4000000000000001,9.9,-13.700000000000001,-11.5,-47.1,16
873,14669.0,-0.30000000000000004,-0.30000000000000004,0.6000000000000001,-0.30000000000000004,1.2000000000000002,10.3,-8.8,-1.8000000000000003,-50.0,16
874,14685.0,-0.4,-0.4,1.0,-0.4,1.2000000000000002,10.5,-8.8,-1.8000000000000003,-50.0,16
875,14702.0,-0.5,-0.5,1.2000000000000002,-0.4,1.2000000000000002,10.5,-2.2,-0.4,-51.0,16
876,14719.0,-0.5,-0.30000000000000004,0.9,-0.5,1.5,10.0,6.1000000000000005,-7.9,-51.6,16
877,14735.0,-0.5,-0.1,0.6000000000000001,-0.4,1.7000000000000002,9.8,6.1000000000000005,-7.9,-51.6,16
878,14752.0,-0.5,0.1,0.30000000000000004,-0.5,1.8,9.8,3.0,-5.2,-49.199999999999996,16
879,14769.0,-0.6000000000000001,0.2,0.5,-0.6000000000000001,1.8,10.100000000000001,-3.8,-1.0,-39.2,16
880,14790.0,-0.6000000000000001,0.2,0.7000000000000001,-0.6000000000000001,1.8,10.3,-3.8,-1.0,-39.2,16
881,14802.0,-0.5,0.0,1.0,-0.5,1.5,10.5,-5.0,-2.6,-33.7,16
882,14819.0,-0.4,-0.2,1.1,-0.4,1.3,10.5,-8.3,-11.6,-27.9,16
883,14835.0,-0.4,-0.30000000000000004,1.1,-0.30000000000000004,1.3,10.4,-8.3,-11.6,-27.9,16
884,14852.0,-0.30000000000000004,-0.2,0.8,-0.2,1.4000000000000001,10.200000000000001,-12.200000000000001,-17.200000000000003,-26.799999999999997,16
885,14869.0,-0.2,-0.1,0.7000000000000001,-0.1,1.4000000000000001,10.3,-14.5,-17.6,-23.700000000000003,16
886,14885.0,-0.2,-0.1,0.8,-0.1,1.3,10.200000000000001,-14.5,-17.6,-23.700000000000003,16
887,14902.0,-0.1,-0.1,0.7000000000000001,0.0,1.2000000000000002,10.3,-11.3,-13.399999999999999,-22.3,16
888,14919.0,-0.1,-0.2,0.7000000000000001,0.0,1.2000000000000002,10.3,-8.700000000000001,-9.4,-21.7,16
889,14935.0,-0.1,-0.1,0.6000000000000001,0.0,1.2000000000000002,10.3,-8.0,-7.8,-21.400000000000002,16
890,14952.0,-0.1,-0.1,0.6000000000000001,0.0,1.3,10.200000000000001,-8.4,-6.9,-21.200000000000003,16
891,14969.0,-0.1,0.0,0.4,0.1,1.4000000000000001,10.100000000000001,-9.100000000000001,-8.899999999999999,-21.0,16
892,14987.0,-0.1,0.2,0.4,0.0,1.4000000000000001,10.100000000000001,-10.200000000000001,-4.300000000000001,-18.8,16
893,15002.0,-0.1,0.2,0.4,0.0,1.4000000000000001,10.200000000000001,-10.200000000000001,-4.300000000000001,-18.8,16
894,15018.0,-0.1,0.1,0.6000000000000001,0.0,1.4000000000000001,10.4,-9.700000000000001,-1.0,-17.5,16
895,15035.0,-0.1,0.2,0.6000000000000001,-0.2,1.4000000000000001,10.3,-7.8,-0.2,-16.900000000000002,16
896,15052.0,-0.1,-0.1,0.5,0.1,1.2000000000000002,10.3,-6.1000000000000005,0.1,-16.0,16
897,15068.0,-0.2,0.1,0.4,-0.1,1.4000000000000001,10.200000000000001,-5.1000000000000005,0.8,-17.300000000000004,16
898,15085.0,-0.2,0.2,0.4,-0.1,1.3,10.3,-1.2000000000000002,6.4,-15.100000000000001,16
899,15102.0,-0.2,0.1,0.5,-0.2,1.2000000000000002,10.4,-1.2000000000000002,6.4,-15.100000000000001,16
900,15119.0,-0.2,0.0,0.5,-0.30000000000000004,1.4000000000000001,10.4,2.5,5.9,-14.300000000000002,16
901,15135.0,-0.30000000000000004,0.2,0.5,-0.30000000000000004,1.4000000000000001,10.200000000000001,5.300000000000001,3.9,-13.5,16
902,15152.0,-0.1,-0.1,0.4,-0.1,1.2000000000000002,10.200000000000001,6.8,3.4,-11.8,16
903,15168.0,-0.2,0.0,0.2,-0.2,1.3,10.0,6.699999999999999,0.0,-12.299999999999999,16
904,15185.0,-0.2,0.0,0.0,-0.2,1.3,9.9,6.500000000000001,-0.9000000000000001,-9.600000000000001,16
905,15202.0,-0.2,0.0,-0.1,-0.2,1.3,9.8,6.500000000000001,-0.9000000000000001,-9.600000000000001,16
906,15219.0,-0.1,-0.1,-0.1,-0.2,1.2000000000000002,9.9,6.1000000000000005,-0.30000000000000004,-7.9,16
907,15236.0,-0.1,-0.2,0.0,-0.2,1.1,10.0,5.9,0.6000000000000001,-6.699999999999999,16
908,15253.0,-0.1,-0.30000000000000004,0.1,-0.2,1.0,10.0,6.699999999999999,1.0,-6.1000000000000005,16
909,15269.0,-0.1,-0.30000000000000004,0.0,-0.1,1.0,9.8,7.9,-0.30000000000000004,-5.9,16
910,15285.0,0.0,-0.30000000000000004,-0.2,-0.1,1.1,9.600000000000001,7.200000000000001,-3.6000000000000005,-5.8,16
911,15302.0,0.0,-0.30000000000000004,-0.30000000000000004,0.0,1.1,9.4,7.200000000000001,-3.6000000000000005,-5.8,16
912,15319.0,0.1,-0.30000000000000004,-0.5,0.0,1.2000000000000002,9.4,5.0,-2.8,-6.2,16
913,15340.0,0.2,-0.2,-0.5,0.1,1.2000000000000002,9.3,0.9000000000000001,0.8,-5.300000000000001,16
914,15352.0,0.2,-0.2,-0.5,0.1,1.2000000000000002,9.4,0.9000000000000001,0.8,-5.300000000000001,16
915,15370.0,0.2,-0.1,-0.30000000000000004,0.1,1.2000000000000002,9.600000000000001,-0.30000000000000004,3.7000000000000006,-5.300000000000001,16
916,15386.0,0.1,-0.1,-0.1,0.0,1.2000000000000002,9.700000000000001,-0.1,6.8,-5.500000000000001,16
917,15402.0,0.1,-0.1,-0.1,0.0,1.2000000000000002,9.700000000000001,0.2,7.1000000000000005,-5.500000000000001,16
918,15419.0,0.1,-0.1,-0.1,-0.1,1.3,9.700000000000001,-0.4,6.699999999999999,-5.7,16
919,15435.0,0.0,0.0,0.0,-0.2,1.3,9.8,-1.6,5.7,-5.500000000000001,16
920,15452.0,0.0,0.0,0.1,-0.2,1.4000000000000001,9.9,-1.7,5.0,-4.9,16
921,15469.0,0.0,0.0,0.1,-0.2,1.3,9.9,-0.7,4.5,-3.9,16
922,15486.0,0.0,0.0,0.1,-0.2,1.3,9.9,0.1,3.5,-3.0,16
923,15502.0,-0.1,0.0,0.1,-0.30000000000000004,1.3,9.9,0.2,2.0,-2.2,16
924,15519.0,-0.1,0.0,0.0,-0.30000000000000004,1.3,9.8,-0.1,0.5,-1.4,16
925,15535.0,0.0,0.0,-0.1,-0.2,1.2000000000000002,9.700000000000001,-0.5,-0.4,-0.8,16
926,15553.0,0.0,-0.1,-0.1,-0.2,1.2000000000000002,9.700000000000001,-0.8,-1.0,-0.5,16
927,15569.0,0.0,-0.1,-0.1,-0.2,1.2000000000000002,9.700000000000001,-0.8,-1.0,-0.5,16
928,15586.0,0.1,-0.1,-0.1,-0.1,1.2000000000000002,9.600000000000001,1.0,0.1,-1.8000000000000003,16
929,15602.0,0.0,-0.1,-0.1,-0.2,1.2000000000000002,9.600000000000001,1.3,0.9000000000000001,-2.4000000000000004,16
930,15618.0,0.0,-0.1,-0.2,-0.2,1.2000000000000002,9.600000000000001,0.5,1.3,-2.2,16
931,15635.0,0.0,-0.1,-0.2,-0.1,1.2000000000000002,9.700000000000001,-1.0,0.7,-2.1,16
932,15652.0,0.0,-0.1,0.0,-0.2,1.1,9.8,-0.9000000000000001,1.8000000000000003,-3.1,16
933,15669.0,0.0,-0.2,0.0,-0.2,1.1,9.700000000000001,-0.9000000000000001,1.8000000000000003,-3.1,16
934,15685.0,0.1,-0.1,-0.2,-0.1,1.1,9.5,0.2,1.1,-3.7000000000000006,16
935,15702.0,0.1,-0.1,-0.2,-0.2,1.2000000000000002,9.600000000000001,-1.0,3.3000000000000007,-5.300000000000001,16
936,15718.0,0.0,0.0,-0.2,-0.30000000000000004,1.3,9.700000000000001,-1.0,3.3000000000000007,-5.300000000000001,16
937,15735.0,0.0,0.0,0.0,-0.30000000000000004,1.3,9.8,-1.0,4.7,-4.800000000000001,16
938,15752.0,0.0,0.0,0.0,-0.30000000000000004,1.2000000000000002,9.700000000000001,-0.8,2.7,-3.9,16
939,15768.0,0.0,0.0,0.0,-0.2,1.2000000000000002,9.700000000000001,-0.8,2.7,-3.9,16
940,15788.0,0.0,0.0,-0.1,-0.30000000000000004,1.3,9.700000000000001,-2.0,1.4,-4.2,16
941,15802.0,0.0,0.1,0.0,-0.30000000000000004,1.3,9.8,-2.0,3.3000000000000007,-3.2,16
942,15819.0,0.0,0.1,0.1,-0.2,1.3,9.9,-2.0,3.3000000000000007,-3.2,16
943,15835.0,0.1,0.0,0.1,-0.2,1.2000000000000002,9.8,-1.6,2.7,-3.2,16
944,15852.0,0.1,0.0,0.0,-0.2,1.2000000000000002,9.8,-2.0,0.1,-3.7000000000000006,16
945,15869.0,0.1,0.0,0.1,-0.1,1.2000000000000002,9.700000000000001,-2.4000000000000004,-1.4,-4.2,16
946,15886.0,0.1,0.0,-0.1,-0.1,1.2000000000000002,9.600000000000001,-2.0,-2.2,-4.6,16
947,15902.0,0.2,0.0,-0.30000000000000004,0.0,1.2000000000000002,9.4,-1.9,-2.3,-5.300000000000001,16
948,15919.0,0.2,0.0,-0.30000000000000004,-0.1,1.3,9.3,-2.7,-1.2000000000000002,-6.2,16
949,15936.0,0.2,0.1,-0.4,-0.1,1.2000000000000002,9.4,-3.9,1.0,-6.600000000000001,16
950,15953.0,0.1,0.1,-0.2,-0.2,1.2000000000000002,9.600000000000001,-4.300000000000001,3.5,-7.200000000000001,16
951,15969.0,0.1,0.1,-0.1,-0.2,1.3,9.600000000000001,-4.1,4.300000000000001,-7.500000000000001,16
952,15992.0,0.0,0.2,0.1,-0.4,1.3,9.9,-3.8,5.1000000000000005,-6.600000000000001,16
953,16002.0,-0.1,0.2,0.2,-0.4,1.3,10.0,-3.8,5.1000000000000005,-6.600000000000001,16
954,16018.0,-0.1,0.2,0.30000000000000004,-0.5,1.3,10.100000000000001,-4.0,3.9,-5.7,16
955,16035.0,-0.2,0.1,0.30000000000000004,-0.5,1.3,10.0,-4.4,0.9000000000000001,-4.800000000000001,16
956,16054.0,-0.2,0.1,0.30000000000000004,-0.5,1.3,10.0,-4.9,-2.2,-4.0,16
957,16068.0,-0.2,0.1,0.30000000000000004,-0.5,1.3,10.0,-4.7,-3.7000000000000006,-3.0,16
958,16085.0,-0.2,0.1,0.30000000000000004,-0.5,1.3,10.0,-3.5,-4.2,-2.1,16
959,16102.0,-0.2,0.1,0.1,-0.4,1.2000000000000002,9.8,-2.4000000000000004,-4.9,-1.5,16
960,16119.0,-0.2,0.0,0.0,-0.5,1.2000000000000002,9.600000000000001,-2.1,-5.6,-1.7,16
961,16135.0,-0.2,0.1,-0.2,-0.4,1.2000000000000002,9.600000000000001,-2.1,-5.6,-1.7,16
962,16152.0,-0.1,0.1,-0.2,-0.5,1.2000000000000002,9.600000000000001,-2.3,-4.4,-1.8000000000000003,16
963,16168.0,-0.2,0.1,-0.2,-0.5,1.2000000000000002,9.600000000000001,-1.5,-2.2,-1.7,16
964,16185.0,-0.2,0.1,-0.1,-0.5,1.2000000000000002,9.600000000000001,-1.5,-2.2,-1.7,16
965,16202.0,-0.2,0.1,-0.1,-0.5,1.2000000000000002,9.600000000000001,-1.8000000000000003,-2.2,-1.6,16
966,16219.0,-0.2,0.1,-0.1,-0.5,1.2000000000000002,9.700000000000001,-2.7,-0.30000000000000004,-1.4,16
967,16235.0,-0.2,0.1,0.0,-0.5,1.2000000000000002,9.8,-2.7,-0.30000000000000004,-1.4,16
968,16252.0,-0.2,0.1,0.2,-0.5,1.2000000000000002,10.0,-1.0,0.7,-0.9000000000000001,16
969,16269.0,-0.2,0.1,0.2,-0.5,1.3,9.9,0.9000000000000001,-1.9,0.5,16
970,16286.0,-0.2,0.1,0.1,-0.5,1.3,9.9,0.9000000000000001,-1.9,0.5,16
971,16302.0,-0.2,0.1,0.1,-0.5,1.2000000000000002,9.9,0.1,-2.2,1.8000000000000003,16
972,16321.0,-0.2,0.1,0.1,-0.5,1.2000000000000002,9.9,0.1,-2.2,1.8000000000000003,16
973,16336.0,-0.1,0.0,0.1,-0.4,1.1,9.8,-0.30000000000000004,-4.6,3.2,16
974,16352.0,-0.1,0.0,0.0,-0.30000000000000004,1.1,9.8,0.0,-4.5,3.1,16
975,16369.0,0.0,-0.1,0.0,-0.30000000000000004,1.1,9.700000000000001,0.30000000000000004,-4.1,3.0,16
976,16386.0,0.0,0.0,-0.1,-0.30000000000000004,1.1,9.600000000000001,0.9000000000000001,-3.8,2.9,16
977,16407.0,0.0,0.0,-0.2,-0.30000000000000004,1.2000000000000002,9.5,0.6000000000000001,-2.9,3.3000000000000007,16
978,16419.0,0.0,0.0,-0.2,-0.2,1.1,9.600000000000001,-0.6000000000000001,-1.9,3.6000000000000005,16
979,16436.0,0.0,0.0,-0.2,-0.2,1.1,9.600000000000001,-2.2,-1.2000000000000002,4.1,16
980,16452.0,0.1,-0.1,-0.1,-0.2,1.0,9.600000000000001,-3.2,-0.4,4.2,16
981,16469.0,0.1,-0.1,-0.1,-0.1,1.0,9.700000000000001,-3.6000000000000005,-0.6000000000000001,3.5,16
982,16485.0,0.1,-0.1,0.0,-0.1,1.1,9.700000000000001,-3.9,-0.6000000000000001,2.9,16
983,16502.0,0.1,0.0,-0.1,-0.1,1.1,9.700000000000001,-3.9,0.1,2.7,16
984,16519.0,0.2,0.0,0.0,-0.1,1.0,9.8,-4.4,1.9,2.4000000000000004,16
985,16535.0,0.2,0.0,0.0,-0.1,1.0,9.8,-4.7,3.3000000000000007,1.7,16
986,16552.0,0.2,-0.1,0.1,-0.1,1.0,9.8,-4.1,3.8,0.6000000000000001,16
987,16570.0,0.1,0.0,0.1,-0.2,1.0,9.9,-2.9,4.1,-0.30000000000000004,16
988,16589.0,0.1,0.0,0.2,-0.2,1.1,10.0,-0.7,4.300000000000001,-0.7,16
989,16612.0,0.1,0.1,0.30000000000000004,-0.2,1.1,10.100000000000001,-0.4,3.1,-0.5,16
990,16619.0,0.1,0.1,0.30000000000000004,-0.2,1.1,10.100000000000001,-0.4,3.1,-0.5,16
991,16635.0,0.1,0.0,0.2,-0.1,1.1,9.9,-0.5,-1.1,-0.8,16
992,16652.0,0.1,0.1,0.1,-0.2,1.1,9.9,-0.5,-1.1,-0.8,16
993,16668.0,0.1,0.1,0.1,-0.2,1.1,9.9,-0.8,-1.1,-0.8,16
994,16685.0,0.1,0.0,0.2,-0.2,1.1,10.0,1.5,-1.0,-0.30000000000000004,16
995,16704.0,0.0,0.0,0.1,-0.2,1.1,9.9,2.5,-1.4,0.1,16
996,16719.0,0.0,0.0,0.1,-0.2,1.1,9.9,2.5,-1.4,0.1,16
997,16736.0,0.0,0.1,0.0,-0.2,1.2000000000000002,9.8,2.3,-4.1,1.3,16
998,16752.0,0.0,0.1,-0.1,-0.2,1.1,9.700000000000001,2.3,-4.1,1.3,16
999,16769.0,0.1,0.0,-0.2,-0.1,1.1,9.700000000000001,1.2000000000000002,-3.8,2.0,16
1000,16785.0,0.1,0.0,-0.1,-0.1,1.1,9.8,0.0,-3.1,2.0,16
1001,16806.0,0.1,0.0,0.0,-0.1,1.1,9.8,-0.1,-2.5,2.0,16
1002,16819.0,0.1,-0.1,0.0,0.0,1.0,9.8,-0.1,-2.5,2.0,16
1003,16838.0,0.1,-0.1,0.0,0.0,1.0,9.8,-0.2,-1.6,1.8000000000000003,16
1004,16853.0,0.1,-0.1,0.0,0.0,0.9,9.8,-0.2,-0.2,0.6000000000000001,16
1005,16869.0,0.1,-0.1,0.0,-0.1,0.9,9.9,-0.2,-0.2,0.6000000000000001,16
1006,16885.0,0.1,-0.1,0.1,-0.1,0.9,9.9,0.5,0.5,0.1,16
1007,16902.0,0.1,-0.2,0.1,-0.1,0.9,9.9,1.5,0.6000000000000001,-0.5,16
1008,16925.0,0.0,-0.1,0.0,-0.1,1.0,9.8,2.0,-2.5,-1.7,16
1009,16935.0,0.0,0.0,-0.1,-0.1,1.0,9.700000000000001,2.0,-2.5,-1.7,16
1010,16952.0,0.0,0.0,-0.1,-0.1,1.1,9.600000000000001,1.4,-2.8,-1.7,16
1011,16969.0,0.0,0.0,-0.2,-0.1,1.0,9.600000000000001,0.5,-2.2,-1.1,16
1012,16985.0,0.0,0.0,-0.1,-0.2,1.0,9.8,0.2,0.4,-0.9000000000000001,16
1013,17003.0,0.0,-0.1,0.0,-0.1,1.0,9.8,1.4,0.30000000000000004,-1.0,16
1014,17018.0,0.0,0.0,0.0,-0.2,1.1,9.8,1.4,0.30000000000000004,-1.0,16
1015,17035.0,0.0,0.0,-0.1,-0.1,1.1,9.700000000000001,1.2000000000000002,-0.5,-0.7,16
1016,17052.0,0.0,0.1,-0.1,-0.1,1.1,9.700000000000001,0.1,-0.6000000000000001,-0.30000000000000004,16
1017,17068.0,0.0,0.0,0.0,-0.1,1.0,9.8,-0.9000000000000001,0.7,0.5,16
1018,17085.0,0.0,-0.1,0.1,-0.1,0.9,9.9,-0.8,1.3,0.8,16
1019,17105.0,0.1,-0.1,0.2,-0.1,1.0,10.0,1.1,0.1,-0.5,16
1020,17119.0,0.0,-0.1,0.2,-0.1,1.0,10.0,1.1,0.1,-0.5,16
1021,17135.0,0.0,0.0,0.1,-0.1,1.0,9.9,2.1,0.0,-0.5,16
1022,17152.0,0.0,-0.1,0.0,-0.1,1.0,9.8,1.7,-1.8000000000000003,-0.7,16
1023,17169.0,0.0,-0.1,0.0,-0.1,1.0,9.700000000000001,1.7,-1.8000000000000003,-0.7,16
1024,17185.0,0.0,0.0,-0.2,-0.1,1.0,9.600000000000001,0.9000000000000001,-2.8,-0.7,16
1025,17205.0,0.0,-0.1,-0.30000000000000004,-0.1,1.0,9.5,0.9000000000000001,-0.30000000000000004,-0.7,16
1026,17220.0,0.0,0.0,-0.30000000000000004,-0.1,1.0,9.600000000000001,0.5,0.8,-0.5,16
1027,17235.0,0.0,0.0,-0.2,-0.1,1.0,9.600000000000001,0.5,0.8,-0.5,16
1028,17252.0,-0.1,-0.1,-0.1,-0.2,1.0,9.700000000000001,0.0,2.0,-0.2,16
1029,17269.0,-0.1,-0.1,0.0,-0.2,1.0,9.700000000000001,-0.4,1.1,0.0,16
1030,17285.0,-0.1,-0.1,-0.1,-0.2,1.0,9.700000000000001,-1.1,0.30000000000000004,0.2,16
1031,17306.0,0.0,0.0,-0.1,-0.1,1.0,9.700000000000001,-2.1,-0.4,0.30000000000000004,16
1032,17322.0,0.0,0.0,0.0,-0.1,1.0,9.700000000000001,-3.3000000000000007,-0.4,0.4,16
1033,17337.0,0.0,0.0,0.0,-0.1,1.0,9.8,-3.6000000000000005,0.1,0.4,16
1034,17353.0,0.0,-0.1,0.1,-0.1,0.9,9.9,-3.4,0.7,0.1,16
1035,17369.0,0.0,-0.1,0.2,-0.1,1.0,9.9,-2.2,0.6000000000000001,-0.6000000000000001,16
1036,17385.0,0.0,0.0,0.1,-0.1,1.0,9.700000000000001,-1.5,-0.7,-1.0,16
1037,17406.0,0.0,0.1,-0.1,-0.1,1.1,9.700000000000001,-1.6,0.1,-1.1,16
1038,17419.0,0.0,0.1,-0.1,-0.1,1.1,9.700000000000001,-2.2,1.3,-1.0,16
1039,17435.0,0.1,0.1,-0.1,-0.1,1.1,9.8,-3.0,2.0,-1.1,16
1040,17452.0,0.0,0.1,0.1,-0.1,1.1,10.0,-3.1,3.0,-1.1,16
1041,17469.0,0.0,0.1,0.2,-0.2,1.1,10.100000000000001,-2.0,3.4,-0.9000000000000001,16
1042,17485.0,0.0,0.1,0.30000000000000004,-0.2,1.1,10.200000000000001,-0.6000000000000001,2.7,-0.7,16
1043,17512.0,0.0,0.1,0.30000000000000004,-0.2,1.1,10.0,0.1,-1.4,0.1,16
1044,17519.0,0.0,0.1,0.2,-0.2,1.1,9.9,0.2,-3.3000000000000007,0.6000000000000001,16
1045,17535.0,0.0,0.1,0.1,-0.1,1.1,9.9,0.2,-3.3000000000000007,0.6000000000000001,16
1046,17552.0,0.0,0.1,0.0,-0.1,1.0,9.8,0.0,-3.7000000000000006,1.0,16
1047,17569.0,0.0,0.0,0.0,0.0,0.9,9.8,0.5,-3.4,0.8,16
1048,17585.0,0.1,-0.1,0.0,0.0,0.9,9.8,0.5,-3.4,0.8,16
1049,17602.0,0.1,0.0,-0.1,0.0,1.0,9.700000000000001,0.9000000000000001,-3.0,-0.30000000000000004,16
1050,17629.0,0.0,0.0,-0.1,-0.1,1.1,9.700000000000001,2.0,-0.7,-0.8,16
1051,17635.0,0.0,0.0,-0.1,-0.1,1.1,9.700000000000001,2.0,-0.7,-0.8,16
1052,17652.0,0.0,0.0,-0.1,-0.1,1.0,9.8,1.9,-0.5,-0.1,16
1053,17669.0,0.0,-0.1,0.0,-0.1,0.9,9.8,1.1,-0.9000000000000001,0.2,16
1054,17686.0,0.0,-0.1,0.0,-0.1,0.9,9.8,0.6000000000000001,-1.8000000000000003,-0.2,16
1055,17702.0,0.0,-0.1,0.0,-0.1,0.9,9.700000000000001,0.9000000000000001,-2.9,-0.8,16
1056,17726.0,0.0,-0.1,-0.2,-0.1,1.0,9.600000000000001,1.2000000000000002,-2.8,-1.5,16
1057,17736.0,0.0,0.0,-0.2,-0.1,1.1,9.600000000000001,1.0,-1.2000000000000002,-1.7,16
1058,17752.0,-0.1,0.0,-0.1,-0.1,1.0,9.700000000000001,0.2,1.1,-1.2000000000000002,16
1059,17769.0,-0.1,0.0,0.0,-0.1,1.0,9.8,-0.5,2.2,-0.4,16
1060,17785.0,-0.1,0.0,0.1,-0.1,1.0,9.9,-1.1,1.5,0.1,16
1061,17805.0,0.0,0.0,0.1,-0.1,1.0,9.8,-1.6,0.5,0.30000000000000004,16
1062,17830.0,0.0,-0.1,0.1,-0.1,0.9,9.9,-1.3,0.5,0.0,16
1063,17835.0,0.0,-0.1,0.1,-0.1,0.9,9.9,-1.3,0.5,0.0,16
1064,17853.0,0.0,-0.1,0.1,-0.1,0.9,9.8,-0.30000000000000004,0.2,-0.5,16
1065,17870.0,0.0,0.0,0.0,-0.1,1.0,9.8,0.1,-0.6000000000000001,-0.6000000000000001,16
1066,17885.0,0.0,0.0,0.0,-0.1,1.0,9.8,0.4,-0.1,-0.7,16
1067,17902.0,0.0,0.0,0.0,-0.1,1.0,9.8,-0.2,-0.1,-0.30000000000000004,16
1068,17926.0,0.0,0.0,0.0,-0.1,0.9,9.8,-0.4,0.2,0.0,16
1069,17936.0,0.0,0.0,0.0,-0.1,1.0,9.700000000000001,-0.5,-1.0,-0.4,16
1070,17952.0,0.0,0.0,-0.2,-0.1,1.0,9.700000000000001,-1.0,-1.0,-0.8,16
1071,17969.0,0.0,0.0,-0.1,-0.1,1.0,9.700000000000001,-1.2000000000000002,1.4,-0.9000000000000001,16
1072,17988.0,0.0,0.0,0.0,-0.1,1.0,9.9,-0.5,4.1,-0.8,16
1073,18002.0,0.0,0.0,0.1,-0.2,0.9,10.100000000000001,-0.5,4.1,-0.8,16
1074,18018.0,-0.1,-0.1,0.30000000000000004,-0.2,0.9,10.100000000000001,0.9000000000000001,3.5,-0.6000000000000001,16
1075,18035.0,0.0,0.0,0.1,-0.2,1.0,9.9,1.4,-2.0,-0.7,16
1076,18052.0,0.0,0.0,0.0,-0.1,1.0,9.8,1.4,-2.0,-0.7,16
1077,18068.0,0.0,0.1,-0.1,-0.1,1.0,9.700000000000001,0.5,-1.8000000000000003,-0.30000000000000004,16
1078,18085.0,0.0,0.0,0.0,-0.1,0.9,9.9,0.4,1.3,0.2,16
1079,18102.0,0.0,0.0,0.0,-0.1,0.9,9.9,0.4,1.3,0.2,16
1080,18126.0,0.0,0.0,0.0,-0.1,1.0,9.9,0.9000000000000001,0.8,-0.2,16
1081,18135.0,0.0,0.0,0.1,-0.1,1.0,9.9,0.9000000000000001,0.8,-0.2,16
1082,18152.0,0.0,0.0,0.0,-0.1,1.0,9.700000000000001,1.4,0.1,-0.1,16
1083,18169.0,0.0,0.0,-0.2,0.0,1.0,9.600000000000001,1.3,-1.0,0.0,16
1084,18185.0,0.1,0.0,-0.1,-0.1,1.0,9.700000000000001,0.2,-0.2,0.0,16
1085,18203.0,0.0,0.0,-0.1,-0.1,1.0,9.8,-0.4,0.4,-0.30000000000000004,16
1086,18219.0,0.0,0.0,0.0,0.0,1.0,9.8,0.2,0.2,-0.2,16
1087,18236.0,0.1,0.0,0.0,-0.1,1.0,9.8,0.5,0.4,-0.2,16
1088,18252.0,0.0,0.0,0.0,-0.1,1.0,9.8,0.7,0.6000000000000001,-0.2,16
1089,18269.0,0.0,0.0,0.0,-0.1,1.0,9.700000000000001,0.7,-0.30000000000000004,-0.2,16
1090,18286.0,0.0,0.0,-0.1,-0.1,1.0,9.700000000000001,0.2,-0.4,-0.2,16
1091,18302.0,0.0,0.0,-0.1,-0.1,0.9,9.700000000000001,-0.4,0.8,-0.2,16
1092,18327.0,0.0,-0.1,0.0,-0.2,0.9,9.8,-0.4,0.8,-0.1,16
1093,18335.0,-0.1,-0.1,0.0,-0.2,0.9,9.8,-0.4,0.8,-0.1,16
1094,18354.0,-0.1,0.0,-0.1,-0.2,1.0,9.600000000000001,-0.8,-1.6,0.0,16
1095,18369.0,-0.1,0.0,-0.1,-0.1,1.0,9.700000000000001,-0.8,-1.6,0.0,16
1096,18385.0,0.0,0.0,0.0,-0.2,0.9,9.9,-1.6,0.30000000000000004,0.5,16
1097,18403.0,0.0,-0.1,0.1,-0.1,0.9,9.9,-0.8,-0.6000000000000001,0.2,16
1098,18419.0,0.0,-0.1,0.1,-0.1,0.9,9.8,-0.8,-0.6000000000000001,0.2,16
1099,18435.0,0.0,0.0,0.0,-0.1,1.0,9.8,-0.5,-0.4,0.0,16
1100,18452.0,0.0,0.1,-0.1,-0.1,1.1,9.700000000000001,-0.5,-1.5,0.6000000000000001,16
1101,18468.0,0.0,0.1,-0.1,-0.1,1.1,9.700000000000001,-0.5,-1.5,0.6000000000000001,16
1102,18485.0,0.0,0.1,0.0,-0.1,1.0,9.9,-1.5,-0.30000000000000004,0.8,16
1103,18502.0,0.0,0.0,0.2,-0.1,1.0,9.9,-0.6000000000000001,0.30000000000000004,0.5,16
1104,18528.0,0.0,0.0,0.1,0.0,0.9,9.8,-0.6000000000000001,0.30000000000000004,0.5,16
1105,18535.0,0.1,0.0,0.0,0.0,1.0,9.700000000000001,0.5,-0.5,0.0,16
1106,18553.0,0.1,0.1,-0.2,0.0,1.1,9.5,-0.8,-0.9000000000000001,-0.9000000000000001,16
1107,18571.0,0.1,0.1,-0.30000000000000004,0.0,1.1,9.600000000000001,-0.8,-0.9000000000000001,-0.9000000000000001,16
1108,18585.0,0.0,0.1,-0.1,-0.1,1.0,9.700000000000001,-1.4,1.7,-0.5,16
1109,18602.0,0.1,0.0,0.0,0.0,1.0,9.700000000000001,-1.0,1.9,-0.2,16
1110,18624.0,0.1,0.0,0.0,-0.1,0.9,9.9,-1.7,2.2,-0.6000000000000001,16
1111,18635.0,0.0,0.0,0.1,-0.1,0.9,9.9,-1.7,2.2,-0.6000000000000001,16
1112,18652.0,0.0,0.0,0.1,0.0,0.9,9.8,-1.1,0.6000000000000001,-1.1,16
1113,18669.0,0.1,0.0,0.0,0.0,1.0,9.8,-0.7,-1.3,-1.5,16
1114,18685.0,0.1,0.0,0.0,0.0,1.0,9.9,-1.0,0.6000000000000001,-1.8000000000000003,16
1115,18702.0,0.1,0.0,0.2,0.0,1.0,10.0,-1.1,1.4,-2.0,16
1116,18718.0,0.1,0.0,0.2,0.0,1.0,9.9,-0.4,0.1,-2.1,16
1117,18735.0,0.1,0.0,0.1,0.0,0.9,9.8,0.1,-0.5,-2.0,16
1118,18752.0,0.1,0.0,0.0,0.0,0.9,9.700000000000001,0.1,-1.0,-2.2,16
1119,18768.0,0.1,0.0,-0.1,0.0,0.9,9.700000000000001,-0.30000000000000004,-1.3,-2.5,16
1120,18785.0,0.1,0.0,-0.1,0.0,1.0,9.8,-0.4,-0.8,-3.1,16
1121,18802.0,0.0,0.0,0.0,-0.1,1.0,9.8,-0.1,-0.1,-3.1,16
1122,18822.0,0.0,0.0,0.1,-0.1,1.0,9.9,0.4,-0.7,-2.7,16
1123,18835.0,0.0,0.0,0.1,-0.1,1.0,9.8,0.4,-0.7,-2.7,16
1124,18854.0,0.0,0.0,0.0,0.0,1.0,9.700000000000001,0.2,-1.7,-2.6,16
1125,18869.0,0.0,0.0,-0.1,0.0,1.0,9.8,0.0,-2.1,-2.5,16
1126,18885.0,0.0,0.1,0.0,-0.1,1.0,9.8,-0.2,-1.2000000000000002,-2.6,16
1127,18902.0,0.0,0.0,0.0,-0.1,1.0,9.9,0.0,-0.9000000000000001,-2.3,16
1128,18925.0,-0.1,0.0,0.1,-0.1,1.0,9.8,1.0,-1.7,-2.0,16
1129,18935.0,-0.1,0.0,0.0,-0.1,1.0,9.8,1.0,-1.7,-2.0,16
1130,18952.0,0.0,0.0,-0.1,-0.1,1.0,9.700000000000001,1.0,-1.7,-1.9,16
1131,18969.0,-0.1,0.0,-0.1,-0.1,1.0,9.700000000000001,0.2,-1.2000000000000002,-2.0,16
1132,18986.0,-0.1,0.0,-0.1,-0.2,1.0,9.8,0.2,-1.2000000000000002,-2.0,16
1133,19003.0,-0.1,0.0,0.0,-0.1,1.0,9.8,0.30000000000000004,-0.9000000000000001,-1.4,16
1134,19024.0,-0.1,0.0,0.0,-0.2,0.9,9.8,0.1,-0.1,-0.8,16
1135,19035.0,-0.1,-0.1,0.0,-0.2,0.9,9.9,0.1,-0.1,-0.8,16
1136,19052.0,-0.1,-0.1,0.1,-0.2,0.9,9.9,0.7,-0.1,-0.7,16
1137,19069.0,-0.1,-0.1,0.0,-0.2,0.9,9.8,1.1,-0.7,-0.7,16
1138,19085.0,-0.1,-0.1,0.0,-0.1,0.9,9.700000000000001,1.3,-1.3,-0.8,16
1139,19102.0,0.0,0.0,-0.2,-0.1,1.0,9.600000000000001,0.7,-2.0,-0.7,16
1140,19127.0,-0.1,0.0,-0.1,-0.1,1.0,9.8,-0.2,-0.8,-0.4,16
1141,19137.0,-0.1,0.0,0.0,-0.2,0.9,9.8,0.4,0.0,0.7,16
1142,19152.0,-0.1,-0.1,0.1,-0.2,0.9,9.9,0.4,0.0,0.7,16
1143,19169.0,-0.1,-0.1,0.1,-0.1,0.9,9.8,0.30000000000000004,-0.30000000000000004,0.9000000000000001,16
1144,19186.0,-0.1,0.0,0.0,-0.1,1.0,9.700000000000001,0.4,-1.0,1.0,16
1145,19202.0,0.0,0.0,-0.1,-0.1,1.0,9.700000000000001,0.30000000000000004,-0.8,1.1,16
1146,19222.0,0.0,0.0,0.0,-0.1,1.0,9.700000000000001,0.0,0.7,1.2000000000000002,16
1147,19235.0,0.0,0.0,0.0,-0.1,1.0,9.8,-0.6000000000000001,0.5,1.4,16
1148,19252.0,0.0,0.0,0.1,-0.1,1.0,9.9,-0.9000000000000001,0.6000000000000001,1.9,16
1149,19269.0,0.0,0.0,0.1,0.0,0.9,9.9,-0.6000000000000001,0.6000000000000001,2.2,16
1150,19287.0,0.1,-0.1,0.1,0.0,0.9,9.9,0.2,0.7,1.4,16
1151,19302.0,0.1,-0.1,0.1,0.0,0.9,9.8,0.2,0.7,1.4,16
1152,19323.0,0.1,0.0,0.0,-0.1,1.0,9.8,0.9000000000000001,0.5,0.8,16
1153,19336.0,0.0,0.0,0.0,-0.1,1.0,9.8,1.0,0.8,1.0,16
1154,19352.0,0.0,0.0,0.0,-0.1,1.0,9.8,0.6000000000000001,1.2000000000000002,1.7,16
1155,19371.0,0.0,0.0,-0.1,0.0,0.9,9.700000000000001,-0.30000000000000004,-0.2,2.2,16
1156,19386.0,0.1,0.0,0.0,0.0,0.9,9.8,-0.9000000000000001,0.0,2.2,16
1157,19402.0,0.1,-0.1,0.0,0.0,0.9,9.8,-0.8,0.1,1.6,16
1158,19435.0,0.1,0.0,0.0,0.0,1.0,9.8,0.5,0.8,0.8,16
1159,19435.0,0.1,0.1,0.0,0.0,1.0,9.8,0.4,1.8000000000000003,0.9000000000000001,16
1160,19453.0,0.1,0.0,0.0,0.0,1.0,9.9,0.4,1.8000000000000003,0.9000000000000001,16
1161,19469.0,0.0,0.0,0.1,0.0,1.0,9.9,0.0,1.3,1.0,16
1162,19485.0,0.1,0.0,0.1,0.0,1.0,9.8,-0.1,-0.2,1.2000000000000002,16
1163,19505.0,0.1,0.0,0.0,0.0,1.0,9.9,0.5,0.1,1.2000000000000002,16
1164,19518.0,0.1,0.0,0.0,0.0,0.9,9.9,0.5,0.1,1.2000000000000002,16
1165,19535.0,0.1,0.0,0.0,0.0,0.9,9.8,0.9000000000000001,0.0,1.0,16
1166,19552.0,0.1,0.0,0.0,0.0,0.9,9.8,1.0,-0.2,0.7,16
1167,19568.0,0.0,0.0,-0.1,0.0,1.0,9.700000000000001,1.0,-0.6000000000000001,0.30000000000000004,16
1168,19585.0,0.0,0.0,-0.1,0.0,1.0,9.700000000000001,0.6000000000000001,-0.30000000000000004,0.30000000000000004,16
1169,19602.0,0.0,0.0,-0.1,0.0,1.0,9.8,0.0,0.2,0.7,16
1170,19619.0,0.0,0.0,0.0,0.0,0.9,9.8,-0.4,0.6000000000000001,1.2000000000000002,16
1171,19635.0,0.0,-0.1,0.0,0.0,0.9,9.8,-0.6000000000000001,-0.2,1.1,16
1172,19652.0,0.1,-0.1,0.0,0.0,0.9,9.8,-0.4,-0.8,0.6000000000000001,16
1173,19672.0,0.0,0.0,0.0,0.0,0.9,9.8,-0.30000000000000004,-0.4,0.30000000000000004,16
1174,19687.0,0.0,0.0,0.0,0.0,0.9,9.8,0.2,0.2,0.1,16
1175,19704.0,0.0,0.0,0.0,0.0,0.9,9.8,0.30000000000000004,0.4,-0.30000000000000004,16
1176,19723.0,0.0,0.0,0.0,0.0,0.9,9.8,0.30000000000000004,0.4,-0.30000000000000004,16
1177,19735.0,0.0,0.0,0.0,0.0,1.0,9.8,0.1,-0.1,-0.4,16
1178,19753.0,0.0,0.0,0.0,0.0,0.9,9.8,0.0,-0.7,-0.2,16
1179,19769.0,0.0,0.0,0.0,0.0,1.0,9.700000000000001,0.0,-0.7,-0.2,16
1180,19785.0,0.0,0.0,-0.1,0.0,1.0,9.700000000000001,0.1,-0.2,-0.30000000000000004,16
1181,19802.0,0.0,0.0,0.0,-0.1,1.0,9.8,0.1,0.9000000000000001,-0.5,16
1182,19825.0,0.0,0.0,0.0,0.0,1.0,9.700000000000001,0.0,-0.7,0.0,16
1183,19835.0,0.0,0.0,-0.1,0.0,1.0,9.600000000000001,0.0,-0.7,0.0,16
1184,19852.0,0.0,0.0,-0.1,0.0,0.9,9.700000000000001,-1.9,0.4,0.2,16
1185,19868.0,0.0,0.0,-0.1,0.0,0.9,9.8,-1.9,0.4,0.2,16
1186,19885.0,0.0,-0.1,0.1,0.0,0.9,9.9,-1.0,1.6,-0.30000000000000004,16
1187,19903.0,0.1,0.0,0.1,0.0,0.9,9.8,0.7,1.3,-1.7,16
1188,19926.0,0.0,0.0,0.0,-0.1,1.0,9.8,0.2,1.1,-1.5,16
1189,19935.0,0.0,0.1,0.0,-0.1,1.0,9.8,0.2,1.1,-1.5,16
1190,19953.0,0.0,0.1,0.0,0.0,1.0,9.9,-1.1,0.2,-0.2,16
1191,19969.0,0.0,0.0,0.1,0.0,0.9,9.9,-1.1,0.2,-0.2,16
1192,19986.0,0.0,0.0,0.2,0.0,0.9,10.0,-0.7,0.7,-0.30000000000000004,16
1193,20002.0,0.0,0.0,0.1,0.0,0.9,9.9,0.6000000000000001,0.4,-0.7,16
1194,20018.0,0.0,0.0,0.1,-0.1,1.0,9.8,1.6,0.1,-1.0,16
1195,20035.0,0.0,0.0,0.0,-0.1,1.0,9.8,1.3,0.2,-1.0,16
1196,20052.0,0.0,0.0,0.0,-0.1,1.0,9.8,1.0,0.2,-0.7,16
1197,20068.0,0.0,0.0,0.0,0.0,1.0,9.700000000000001,0.9000000000000001,-0.30000000000000004,-0.2,16
1198,20085.0,0.0,0.0,-0.1,0.0,0.9,9.700000000000001,0.30000000000000004,-0.8,0.0,16
1199,20102.0,0.0,0.0,0.0,0.0,0.9,9.700000000000001,-0.1,0.0,-0.1,16
1200,20122.0,0.0,-0.1,-0.1,0.0,0.9,9.700000000000001,0.1,-0.6000000000000001,-0.7,16
1201,20136.0,0.0,-0.1,-0.1,0.0,0.9,9.700000000000001,0.1,-0.6000000000000001,-0.7,16
1202,20152.0,0.0,0.0,-0.1,0.0,1.0,9.700000000000001,0.1,-0.30000000000000004,-0.8,16
1203,20169.0,0.0,0.0,-0.1,0.0,1.0,9.700000000000001,-0.2,-0.7,-0.5,16
1204,20185.0,0.0,0.0,-0.1,0.0,1.0,9.700000000000001,-0.7,-0.30000000000000004,0.0,16
1205,20202.0,0.0,0.0,0.0,0.0,0.9,9.9,-1.1,0.1,0.1,16
1206,20219.0,0.0,-0.1,0.1,0.0,0.9,9.9,-0.8,0.9000000000000001,0.1,16
1207,20235.0,0.0,-0.1,0.1,0.0,0.9,9.8,-0.2,0.1,-0.2,16
1208,20252.0,0.0,-0.1,0.0,0.0,0.9,9.8,0.30000000000000004,0.0,-0.5,16
1209,20269.0,0.0,0.0,0.0,0.0,0.9,9.8,0.30000000000000004,0.5,-0.9000000000000001,16
1210,20285.0,0.0,0.0,0.1,-0.1,0.9,9.9,0.30000000000000004,0.5,-0.9000000000000001,16
1211,20302.0,0.0,0.0,0.0,0.0,0.9,9.8,0.30000000000000004,0.30000000000000004,-0.6000000000000001,16
1212,20321.0,0.0,0.0,-0.1,0.0,0.9,9.700000000000001,-0.7,0.5,-0.7,16
1213,20335.0,0.0,0.0,-0.1,0.0,0.9,9.8,-0.7,0.5,-0.7,16
1214,20352.0,0.0,0.0,0.0,-0.1,1.0,9.8,-0.8,0.4,-1.0,16
1215,20369.0,0.0,0.0,0.0,-0.1,1.0,9.8,0.0,-0.1,-0.5,16
1216,20387.0,0.0,0.0,0.0,-0.1,1.0,9.8,0.0,-0.1,-0.5,16
1217,20402.0,0.0,0.0,0.0,-0.1,0.9,9.700000000000001,0.2,-0.2,-0.30000000000000004,16
1218,20420.0,0.0,0.0,-0.1,0.0,1.0,9.600000000000001,-0.9000000000000001,-0.30000000000000004,-0.7,16
1219,20436.0,0.0,0.0,-0.1,-0.1,1.0,9.700000000000001,-0.9000000000000001,-0.30000000000000004,-0.7,16
1220,20452.0,0.0,0.0,0.0,-0.1,1.0,9.9,-1.1,1.0,-0.6000000000000001,16
1221,20469.0,0.0,0.0,0.1,0.0,1.0,9.8,-0.2,0.9000000000000001,-0.2,16
1222,20487.0,0.1,0.1,-0.1,0.1,1.1,9.600000000000001,0.0,-2.4000000000000004,-0.1,16
1223,20502.0,0.1,0.1,-0.2,0.1,1.1,9.4,0.0,-2.4000000000000004,-0.1,16
1224,20530.0,0.2,0.1,-0.2,0.1,1.0,9.8,-2.9,2.4000000000000004,-1.1,16
1225,20537.0,0.2,0.1,-0.2,0.1,1.0,9.8,-2.9,2.4000000000000004,-1.1,16
1226,20552.0,0.0,0.1,0.30000000000000004,-0.1,1.0,10.3,-1.0,6.8,-1.8000000000000003,16
1227,20568.0,-0.1,0.1,0.6000000000000001,-0.2,1.1,10.3,2.3,6.2,-2.0,16
1228,20585.0,-0.1,0.1,0.5,-0.2,1.1,10.200000000000001,4.300000000000001,2.8,-1.7,16
1229,20602.0,-0.1,0.2,0.2,-0.2,1.1,9.9,3.3000000000000007,-0.30000000000000004,-1.0,16
1230,20619.0,-0.1,0.2,0.2,-0.2,1.1,9.9,3.3000000000000007,-0.30000000000000004,-1.0,16
1231,20637.0,-0.1,0.2,0.2,-0.2,1.1,9.9,3.3000000000000007,-0.30000000000000004,-1.0,16
1232,20652.0,-0.1,-0.30000000000000004,0.1,-0.1,0.8,9.700000000000001,3.2,-2.4000000000000004,2.9,16
1233,20668.0,0.1,-0.2,-0.30000000000000004,0.2,0.9,9.4,2.2,-7.1000000000000005,2.3,16
1234,20685.0,0.2,-0.1,-0.5,0.2,1.1,9.4,0.2,-7.200000000000001,0.9000000000000001,16
1235,20702.0,0.30000000000000004,0.30000000000000004,-0.4,0.4,1.4000000000000001,9.5,-0.30000000000000004,-4.5,-0.1,16
1236,20722.0,0.4,0.4,-0.1,0.30000000000000004,1.4000000000000001,10.100000000000001,1.0,2.7,-0.2,16
1237,20735.0,0.30000000000000004,0.4,0.30000000000000004,0.1,1.3,10.700000000000001,3.1,9.899999999999999,-0.4,16
1238,20752.0,0.1,0.30000000000000004,0.8,0.0,1.3,10.9,5.6,10.9,-0.9000000000000001,16
1239,20768.0,-0.1,0.2,1.2000000000000002,-0.30000000000000004,1.4000000000000001,11.200000000000001,8.0,7.6,-0.9000000000000001,16
1240,20785.0,-0.30000000000000004,0.2,1.3,-0.4,1.3,11.100000000000001,14.600000000000001,-2.6,2.4000000000000004,16
1241,20803.0,-0.30000000000000004,0.1,1.1,-0.4,1.3,10.8,14.600000000000001,-2.6,2.4000000000000004,16
1242,20818.0,-0.30000000000000004,-0.1,0.6000000000000001,-0.4,1.0,10.4,14.800000000000002,-8.2,4.4,16
1243,20837.0,-0.4,-0.4,0.30000000000000004,-0.4,0.8,10.0,14.5,-13.6,8.100000000000001,16
1244,20852.0,-0.4,-0.5,0.1,-0.30000000000000004,0.8,9.600000000000001,14.5,-13.6,8.100000000000001,16
1245,20868.0,-0.2,-0.6000000000000001,-0.7000000000000001,0.0,0.8,8.9,13.399999999999999,-19.5,8.899999999999999,16
1246,20886.0,0.0,-0.5,-1.2000000000000002,0.2,0.9,8.8,6.0,-14.0,6.699999999999999,16
1247,20905.0,0.0,-0.4,-1.2000000000000002,0.2,1.1,8.8,4.7,-9.8,5.9,16
1248,20919.0,0.0,-0.30000000000000004,-1.1,0.30000000000000004,1.1,9.0,4.7,-9.8,5.9,16
1249,20941.0,0.0,-0.30000000000000004,-0.6000000000000001,0.1,1.2000000000000002,9.5,4.9,0.1,5.300000000000001,16
1250,20952.0,0.0,-0.30000000000000004,-0.4,0.1,1.2000000000000002,9.700000000000001,5.8,5.1000000000000005,5.300000000000001,16
1251,20969.0,-0.1,-0.2,-0.1,0.1,1.3,9.9,6.1000000000000005,4.7,5.1000000000000005,16
1252,20986.0,-0.1,-0.1,0.1,0.1,1.4000000000000001,10.0,5.300000000000001,4.4,5.4,16
1253,21004.0,-0.1,0.0,0.2,0.0,1.6,10.100000000000001,1.8000000000000003,1.0,8.100000000000001,16
1254,21020.0,-0.1,0.1,0.2,0.0,1.6,10.100000000000001,1.8000000000000003,1.0,8.100000000000001,16
1255,21035.0,-0.2,0.2,0.2,0.0,1.7000000000000002,10.100000000000001,-0.1,1.0,10.600000000000001,16
1256,21052.0,-0.2,0.2,0.2,0.0,1.5,10.3,-2.7,-0.7,14.0,16
1257,21068.0,-0.2,0.1,0.4,0.2,1.4000000000000001,10.3,-4.6,-4.2,17.799999999999997,16
1258,21085.0,0.0,-0.1,0.6000000000000001,0.30000000000000004,1.3,10.600000000000001,-4.9,-8.8,19.9,16
1259,21102.0,0.1,-0.2,0.7000000000000001,0.30000000000000004,1.3,10.600000000000001,-3.2,-10.600000000000001,20.3,16
1260,21118.0,0.1,-0.2,0.8,0.5,1.3,10.600000000000001,0.4,-11.8,20.8,16
1261,21135.0,0.2,-0.2,0.5,0.6000000000000001,1.2000000000000002,10.3,5.2,-12.100000000000001,20.8,16
1262,21152.0,0.2,-0.30000000000000004,0.4,0.6000000000000001,1.0,10.3,12.100000000000001,-6.300000000000001,18.900000000000002,16
1263,21169.0,0.2,-0.5,0.4,0.5,0.9,10.200000000000001,12.100000000000001,-6.300000000000001,18.900000000000002,16
1264,21188.0,0.1,-0.7000000000000001,0.2,0.5,0.9,10.0,15.899999999999999,-4.4,16.900000000000002,16
1265,21202.0,-0.1,-0.6000000000000001,-0.1,0.4,1.1,9.600000000000001,23.6,-3.5,14.300000000000002,16
1266,21218.0,-0.1,-0.5,-0.2,0.4,1.2000000000000002,9.4,23.6,-3.5,14.300000000000002,16
1267,21235.0,-0.1,-0.4,-0.7000000000000001,0.4,1.5,8.9,24.0,-4.0,14.800000000000002,16
1268,21252.0,0.0,-0.1,-0.9,0.6000000000000001,1.7000000000000002,8.700000000000001,13.000000000000002,-2.8,17.400000000000002,16
1269,21269.0,0.1,0.0,-1.0,0.6000000000000001,1.8,8.700000000000001,13.000000000000002,-2.8,17.400000000000002,16
1270,21285.0,0.2,0.2,-1.2000000000000002,1.0,2.0,8.200000000000001,4.7,-2.5,19.1,16
1271,21302.0,0.7000000000000001,0.2,-1.7000000000000002,1.3,1.8,7.9,-17.7,6.9,18.200000000000003,16
1272,21320.0,0.8,0.1,-1.8,1.2000000000000002,1.9000000000000001,8.3,-17.7,6.9,18.200000000000003,16
1273,21337.0,0.6000000000000001,0.30000000000000004,-0.8,1.3,1.9000000000000001,9.600000000000001,-24.8,15.5,18.200000000000003,16
1274,21352.0,1.0,0.4,0.5,1.7000000000000002,1.9000000000000001,10.3,-5.8,15.299999999999999,18.3,16
1275,21369.0,1.2000000000000002,0.4,0.5,2.1,1.9000000000000001,10.0,-5.8,15.299999999999999,18.3,16
1276,21385.0,2.0,0.4,-0.2,2.8000000000000003,2.0,9.3,-1.0,7.8,13.6,16
1277,21402.0,2.3000000000000003,0.6000000000000001,-0.4,2.6,2.1,9.8,-4.800000000000001,10.299999999999999,5.500000000000001,16
1278,21421.0,2.1,0.6000000000000001,0.7000000000000001,2.4000000000000004,2.0,10.8,-1.2000000000000002,12.9,-6.699999999999999,16
1279,21436.0,2.1,0.5,1.1,2.3000000000000003,1.8,10.9,-1.2000000000000002,12.9,-6.699999999999999,16
1280,21452.0,1.9000000000000001,0.0,1.0,2.1,1.3,10.600000000000001,11.000000000000002,11.2,-12.8,16
1281,21470.0,1.8,-0.2,0.8,2.0,1.2000000000000002,10.3,19.9,10.700000000000001,-21.300000000000004,16
1282,21485.0,1.4000000000000001,-0.4,0.30000000000000004,1.4000000000000001,1.3,9.9,23.0,9.5,-30.4,16
1283,21502.0,0.9,-0.5,0.2,1.0,1.1,10.100000000000001,21.400000000000002,5.0,-36.8,16
1284,21522.0,0.7000000000000001,-0.8,0.5,0.8,0.9,10.100000000000001,19.400000000000002,-6.300000000000001,-46.0,16
1285,21539.0,0.5,-1.0,0.4,0.8,0.8,9.9,19.400000000000002,-6.300000000000001,-46.0,16
1286,21554.0,0.6000000000000001,-1.0,0.0,1.0,0.8,9.4,14.100000000000001,-18.8,-50.8,16
1287,21568.0,0.7000000000000001,-1.1,-0.30000000000000004,1.3,0.7000000000000001,9.200000000000001,4.6,-25.6,-56.6,16
1288,21585.0,0.9,-1.1,-0.5,1.3,0.8,9.4,-5.7,-26.5,-64.0,16
1289,21602.0,0.9,-0.9,-0.2,1.4000000000000001,1.1,9.5,-8.600000000000001,-29.0,-72.0,16
1290,21618.0,1.0,-0.5,-0.30000000000000004,1.7000000000000002,1.4000000000000001,9.1,2.3,-35.9,-82.60000000000001,16
1291,21635.0,1.1,-0.4,-0.6000000000000001,1.7000000000000002,1.5,8.700000000000001,2.3,-35.9,-82.60000000000001,16
1292,21652.0,1.2000000000000002,-0.2,-1.4000000000000001,1.8,1.9000000000000001,8.0,1.7,-33.7,-88.50000000000001,16
1293,21668.0,1.3,0.1,-1.8,1.9000000000000001,2.0,8.1,-21.500000000000004,-19.9,-97.10000000000001,16
1294,21685.0,1.2000000000000002,0.2,-1.5,1.6,1.9000000000000001,8.8,-21.500000000000004,-19.9,-97.10000000000001,16
1295,21702.0,0.8,-0.1,-0.2,1.2000000000000002,1.4000000000000001,10.100000000000001,-24.8,-5.1000000000000005,-98.0,16
1296,21718.0,0.6000000000000001,-0.4,0.9,1.2000000000000002,1.3,10.700000000000001,2.4000000000000004,-21.400000000000002,-99.2,16
1297,21735.0,0.6000000000000001,-0.5,1.0,1.2000000000000002,1.4000000000000001,10.200000000000001,2.4000000000000004,-21.400000000000002,-99.2,16
1298,21752.0,0.7000000000000001,-0.2,-0.1,1.5,2.0,8.9,16.200000000000003,-41.4,-101.50000000000001,16
1299,21769.0,0.7000000000000001,0.5,-1.2000000000000002,1.4000000000000001,2.7,8.3,13.100000000000001,-37.0,-101.20000000000002,16
1300,21785.0,0.6000000000000001,0.7000000000000001,-1.3,1.3,3.0,8.3,13.100000000000001,-37.0,-101.20000000000002,16
1301,21802.0,0.4,1.1,-1.1,1.2000000000000002,3.1,8.700000000000001,6.600000000000001,-30.5,-95.0,16
1302,21818.0,0.30000000000000004,1.1,-0.9,1.2000000000000002,2.9000000000000004,9.0,-0.2,-20.599999999999998,-86.5,16
1303,21835.0,0.30000000000000004,0.5,-0.1,1.0,2.3000000000000003,10.100000000000001,-5.8,-9.4,-79.7,16
1304,21853.0,0.0,0.0,0.9,0.7000000000000001,1.9000000000000001,10.9,-5.9,-4.300000000000001,-76.4,16
1305,21869.0,-0.1,-0.30000000000000004,1.4000000000000001,0.6000000000000001,1.8,10.9,-1.6,-7.6,-74.5,16
1306,21886.0,-0.2,-0.30000000000000004,1.3,0.6000000000000001,1.9000000000000001,10.600000000000001,4.0,-16.4,-73.7,16
1307,21903.0,-0.1,-0.1,0.7000000000000001,0.7000000000000001,2.1,10.0,6.1000000000000005,-25.200000000000003,-72.9,16
1308,21918.0,-0.1,0.0,0.2,0.7000000000000001,2.1,9.600000000000001,6.4,-28.1,-71.19999999999999,16
1309,21936.0,-0.1,0.0,0.0,1.1,2.1,8.8,7.699999999999999,-31.0,-69.4,16
1310,21952.0,0.2,-0.1,-0.7000000000000001,1.2000000000000002,2.1,8.5,7.6,-36.300000000000004,-68.80000000000001,16
1311,21968.0,0.30000000000000004,-0.1,-1.3,1.4000000000000001,2.3000000000000003,8.0,4.2,-37.50000000000001,-70.0,16
1312,21985.0,0.4,0.0,-1.5,1.4000000000000001,2.4000000000000004,7.800000000000001,-0.7,-37.2,-71.7,16
1313,22005.0,0.4,0.2,-1.8,1.6,2.6,7.7,-5.6,-34.900000000000006,-72.4,16
1314,22018.0,0.4,0.30000000000000004,-1.6,1.5,2.6,8.1,-7.9,-25.900000000000002,-71.7,16
1315,22035.0,0.4,0.30000000000000004,-1.4000000000000001,1.5,2.6,8.3,-6.699999999999999,-14.700000000000001,-69.9,16
1316,22053.0,0.4,0.2,-0.9,1.4000000000000001,2.4000000000000004,8.700000000000001,-2.1,-4.9,-67.8,16
1317,22068.0,0.30000000000000004,0.0,-0.7000000000000001,1.3,2.2,8.9,1.7,2.5,-66.3,16
1318,22085.0,0.30000000000000004,-0.2,-0.5,0.9,2.1,9.200000000000001,3.3000000000000007,8.4,-65.7,16
1319,22102.0,0.0,-0.30000000000000004,-0.2,0.7000000000000001,2.2,9.4,3.5,10.8,-65.3,16
1320,22120.0,-0.4,-0.1,0.30000000000000004,0.30000000000000004,2.3000000000000003,9.9,3.4,10.700000000000001,-63.500000000000014,16
1321,22135.0,-0.5,-0.1,0.5,0.2,2.3000000000000003,10.100000000000001,5.500000000000001,10.5,-59.5,16
1322,22152.0,-0.5,-0.30000000000000004,0.6000000000000001,0.1,2.2,9.9,8.4,9.0,-56.0,16
1323,22170.0,-0.5,-0.2,0.2,0.0,2.5,9.5,7.500000000000001,7.200000000000001,-53.0,16
1324,22185.0,-0.7000000000000001,0.1,0.2,-0.2,2.6,10.0,-7.1000000000000005,22.4,-40.7,16
1325,22202.0,-0.7000000000000001,0.1,0.6000000000000001,-0.30000000000000004,2.5,10.5,-7.1000000000000005,22.4,-40.7,16
1326,22221.0,-0.8,-0.30000000000000004,1.5,-0.4,1.8,11.4,-8.3,31.5,-33.0,16
1327,22237.0,-0.7000000000000001,-0.9,2.0,-0.4,1.4000000000000001,11.4,6.500000000000001,17.7,-28.0,16
1328,22252.0,-0.6000000000000001,-1.0,1.9000000000000001,-0.4,1.5,11.100000000000001,6.500000000000001,17.7,-28.0,16
1329,22268.0,-0.6000000000000001,-0.8,1.3,-0.5,1.9000000000000001,10.5,11.900000000000002,5.1000000000000005,-28.700000000000003,16
1330,22285.0,-0.6000000000000001,-0.4,0.6000000000000001,-0.5,2.2,9.9,7.6,-8.5,-23.6,16
1331,22302.0,-0.6000000000000001,-0.30000000000000004,0.30000000000000004,-0.4,2.2,9.600000000000001,7.6,-8.5,-23.6,16
1332,22318.0,-0.4,-0.4,0.0,-0.1,2.0,9.3,0.6000000000000001,-10.0,-21.0,16
1333,22335.0,-0.2,-0.5,-0.30000000000000004,0.1,2.1,9.1,-6.1000000000000005,-10.4,-21.500000000000004,16
1334,22352.0,-0.1,-0.4,-0.5,0.1,2.3000000000000003,8.9,-11.8,-11.900000000000002,-24.400000000000002,16
1335,22368.0,0.0,0.0,-0.7000000000000001,0.1,2.6,8.9,-16.200000000000003,-9.600000000000001,-26.9,16
1336,22386.0,-0.1,0.30000000000000004,-0.5,0.0,2.7,9.200000000000001,-17.7,-1.2000000000000002,-27.9,16
1337,22402.0,-0.1,0.30000000000000004,-0.4,-0.1,2.7,9.3,-15.299999999999999,7.1000000000000005,-27.800000000000004,16
1338,22422.0,-0.2,0.4,-0.2,-0.2,2.8000000000000003,9.4,-10.0,11.900000000000002,-27.800000000000004,16
1339,22437.0,-0.30000000000000004,0.5,-0.2,-0.30000000000000004,2.8000000000000003,9.1,-5.2,11.5,-27.800000000000004,16
1340,22452.0,-0.30000000000000004,0.5,-0.4,-0.30000000000000004,2.8000000000000003,9.0,-2.3,7.6,-27.6,16
1341,22468.0,-0.2,0.5,-0.6000000000000001,-0.30000000000000004,2.8000000000000003,8.8,-2.6,2.9,-27.400000000000002,16
1342,22486.0,-0.30000000000000004,0.5,-0.8,-0.30000000000000004,2.9000000000000004,8.6,-3.3000000000000007,-2.6,-27.099999999999998,16
1343,22502.0,-0.30000000000000004,0.6000000000000001,-0.9,-0.30000000000000004,3.0,8.4,-3.2,-10.0,-25.900000000000002,16
1344,22518.0,-0.1,0.7000000000000001,-1.4000000000000001,-0.1,3.1,7.9,-2.7,-17.0,-24.400000000000002,16
1345,22536.0,0.0,0.9,-1.8,0.0,3.3000000000000003,7.7,-4.0,-19.6,-23.2,16
1346,22552.0,0.0,1.0,-1.7000000000000002,0.1,3.3000000000000003,8.0,-7.200000000000001,-14.600000000000001,-20.900000000000002,16
1347,22574.0,0.0,1.0,-1.3,0.2,3.2,8.3,-6.2,-16.4,-20.5,16
1348,22586.0,0.1,1.0,-1.2000000000000002,0.2,3.3000000000000003,8.4,-6.2,-16.4,-20.5,16
1349,22602.0,0.1,1.1,-1.1,0.30000000000000004,3.5,8.4,-5.8,-24.8,-20.900000000000002,16
1350,22618.0,0.1,1.3,-1.1,0.30000000000000004,3.6,8.4,-5.8,-24.8,-20.900000000000002,16
1351,22635.0,0.1,1.4000000000000001,-1.0,0.30000000000000004,3.7,8.6,-8.4,-27.099999999999998,-20.5,16
1352,22652.0,0.0,1.6,-0.7000000000000001,0.2,3.8000000000000003,9.0,-14.600000000000001,-24.5,-19.1,16
1353,22668.0,-0.1,1.6,-0.5,0.2,3.8000000000000003,9.3,-14.600000000000001,-24.5,-19.1,16
1354,22687.0,-0.2,1.5,0.0,0.1,3.6,9.600000000000001,-16.200000000000003,-21.400000000000002,-17.0,16
1355,22702.0,-0.30000000000000004,1.3,0.2,0.2,3.3000000000000003,10.0,-19.300000000000004,-8.8,-14.100000000000001,16
1356,22718.0,-0.30000000000000004,1.2000000000000002,0.5,0.1,3.1,10.4,-19.300000000000004,-8.8,-14.100000000000001,16
1357,22735.0,-0.4,1.0,1.3,0.0,3.0,11.100000000000001,-17.200000000000003,-1.0,-14.700000000000001,16
1358,22752.0,-0.4,0.9,1.8,0.1,3.0,11.5,-3.5,-2.7,-19.5,16
1359,22768.0,-0.30000000000000004,1.0,2.0,0.2,3.0,11.600000000000001,-3.5,-2.7,-19.5,16
1360,22785.0,-0.1,1.1,1.8,0.4,3.3000000000000003,10.9,4.300000000000001,-8.5,-22.4,16
1361,22801.0,0.1,1.4000000000000001,0.8,0.9,3.7,10.200000000000001,6.0,-16.900000000000002,-25.1,16
1362,22819.0,0.4,1.6,0.6000000000000001,1.0,3.8000000000000003,10.4,-0.7,-15.899999999999999,-25.4,16
1363,22836.0,0.5,1.4000000000000001,1.4000000000000001,0.9,3.1,11.700000000000001,-6.9,-0.30000000000000004,-23.6,16
1364,22852.0,0.30000000000000004,0.6000000000000001,2.6,0.8,2.3000000000000003,12.4,-4.7,10.700000000000001,-21.900000000000002,16
1365,22871.0,0.5,-0.2,2.5,1.0,1.7000000000000002,11.8,10.700000000000001,0.30000000000000004,-24.200000000000003,16
1366,22885.0,0.6000000000000001,-0.4,2.2,1.0,1.6,11.5,10.700000000000001,0.30000000000000004,-24.200000000000003,16
1367,22902.0,0.4,-0.7000000000000001,1.8,0.6000000000000001,1.4000000000000001,11.600000000000001,13.8,5.1000000000000005,-27.0,16
1368,22920.0,0.30000000000000004,-0.8,1.9000000000000001,0.6000000000000001,1.2000000000000002,11.700000000000001,18.3,13.8,-27.2,16
1369,22935.0,0.2,-1.2000000000000002,2.1,0.5,1.0,11.5,28.3,18.6,-25.7,16
1370,22952.0,0.30000000000000004,-1.5,1.4000000000000001,0.6000000000000001,1.1,10.4,37.6,15.299999999999999,-24.599999999999998,16
1371,22969.0,0.4,-1.4000000000000001,0.8,0.7000000000000001,1.3,9.700000000000001,38.400000000000006,6.8,-23.6,16
1372,22987.0,0.6000000000000001,-1.3,0.1,0.7000000000000001,1.3,9.600000000000001,30.1,3.8,-21.7,16
1373,23001.0,0.5,-1.3,0.0,0.7000000000000001,1.4000000000000001,9.5,21.500000000000004,3.4,-18.5,16
1374,23018.0,0.6000000000000001,-1.3,-0.30000000000000004,0.7000000000000001,1.4000000000000001,9.1,8.2,-2.8,-11.3,16
1375,23035.0,0.6000000000000001,-1.3,-0.4,0.7000000000000001,1.4000000000000001,9.0,8.2,-2.8,-11.3,16
1376,23053.0,0.6000000000000001,-1.3,-0.6000000000000001,0.8,1.3,8.9,1.1,-3.3000000000000007,-8.700000000000001,16
1377,23068.0,0.7000000000000001,-1.3,-0.6000000000000001,0.9,1.3,8.8,-7.1000000000000005,-13.399999999999999,-7.400000000000001,16
1378,23085.0,0.7000000000000001,-1.3,-0.8,1.0,1.3,8.5,-7.1000000000000005,-13.399999999999999,-7.400000000000001,16
1379,23102.0,0.9,-1.2000000000000002,-1.5,1.3,1.5,7.6000000000000005,-8.4,-23.800000000000004,-9.4,16
1380,23118.0,1.0,-1.0,-2.3000000000000003,1.3,1.7000000000000002,6.9,-14.300000000000002,-35.599999999999994,-16.700000000000003,16
1381,23135.0,0.9,-0.8,-2.7,1.5,1.8,6.7,-14.300000000000002,-35.599999999999994,-16.700000000000003,16
1382,23152.0,1.0,-0.5,-3.0,1.5,1.9000000000000001,6.4,-17.799999999999997,-32.9,-19.6,16
1383,23168.0,0.9,-0.5,-3.0,1.5,1.7000000000000002,7.0,-19.5,-11.4,-26.000000000000004,16
1384,23186.0,0.9,-0.7000000000000001,-2.5,1.4000000000000001,1.5,7.4,-19.5,-11.4,-26.000000000000004,16
1385,23202.0,0.7000000000000001,-0.7000000000000001,-1.6,1.1,1.7000000000000002,8.200000000000001,-13.900000000000002,-4.4,-32.1,16
1386,23220.0,0.4,-0.2,-1.0,0.9,2.4000000000000004,8.6,3.2,-6.0,-38.1,16
1387,23238.0,0.2,0.30000000000000004,-0.9,0.8,2.7,8.5,5.500000000000001,-7.0,-35.5,16
1388,23253.0,0.30000000000000004,0.4,-0.9,0.8,2.7,8.6,5.500000000000001,-7.0,-35.5,16
1389,23268.0,0.2,0.4,-0.6000000000000001,0.7000000000000001,2.7,9.200000000000001,3.9,-5.8,-34.0,16
1390,23285.0,0.1,0.4,-0.30000000000000004,0.5,2.8000000000000003,9.5,3.6000000000000005,-6.300000000000001,-34.2,16
1391,23302.0,-0.2,0.7000000000000001,0.2,0.30000000000000004,3.3000000000000003,9.700000000000001,8.899999999999999,-9.100000000000001,-33.9,16
1392,23318.0,-0.2,0.7000000000000001,0.2,0.30000000000000004,3.3000000000000003,9.700000000000001,8.899999999999999,-9.100000000000001,-33.9,16
1393,23335.0,-0.2,1.0,0.0,0.4,3.6,9.3,17.0,-14.100000000000001,-26.300000000000004,16
1394,23352.0,-0.1,1.0,-0.30000000000000004,0.5,3.7,9.1,14.0,-11.700000000000001,-22.3,16
1395,23368.0,-0.1,1.2000000000000002,-0.4,0.5,4.0,9.0,7.6,-9.2,-18.5,16
1396,23386.0,-0.1,1.4000000000000001,-0.4,0.6000000000000001,4.0,9.3,-2.3,-4.5,-13.6,16
1397,23402.0,-0.1,1.3,0.4,0.5,3.6,10.5,-12.0,7.500000000000001,-7.8,16
1398,23418.0,-0.30000000000000004,0.6000000000000001,1.7000000000000002,0.1,2.7,11.600000000000001,-15.899999999999999,19.1,-3.9,16
1399,23441.0,-0.4,0.1,2.5,0.0,2.5,12.3,-13.100000000000001,16.8,-4.9,16
1400,23453.0,-0.4,0.1,2.8000000000000003,-0.1,2.4000000000000004,12.5,-13.100000000000001,16.8,-4.9,16
1401,23469.0,-0.7000000000000001,-0.1,3.3000000000000003,-0.6000000000000001,2.2,13.0,-10.299999999999999,18.8,-6.699999999999999,16
1402,23485.0,-0.9,-0.30000000000000004,3.4000000000000004,-0.6000000000000001,1.9000000000000001,13.0,-5.500000000000001,15.700000000000001,-7.400000000000001,16
1403,23503.0,-1.0,-0.7000000000000001,3.3000000000000003,-0.8,1.4000000000000001,12.5,2.0,9.2,-7.0,16
1404,23518.0,-1.0,-1.3,2.5,-0.7000000000000001,0.9,11.9,7.0,6.0,-5.8,16
1405,23537.0,-0.9,-1.8,2.1,-0.8,0.4,11.5,5.8,6.600000000000001,-8.2,16
1406,23552.0,-1.0,-2.1,1.9000000000000001,-1.0,0.30000000000000004,11.4,5.8,6.600000000000001,-8.2,16
1407,23568.0,-1.2000000000000002,-2.2,1.8,-1.2000000000000002,0.5,11.5,6.4,9.5,-10.4,16
