,ms,accelX,accelY,accelZ,accelWithGX,accelWithGY,accelWithGZ,rotRateAlpha,rotRateBeta,rotRateGamma,interval
0,41.0,-0.4,0.0,1.4000000000000001,-0.1,0.5,9.600000000000001,-25.4,-7.500000000000001,-5.500000000000001,16
1,54.0,0.2,-0.6000000000000001,0.5,0.1,-0.2,10.3,-25.4,-7.500000000000001,-5.500000000000001,16
2,70.0,-0.1,-0.5,1.5,-0.1,-0.4,11.3,-43.4,-5.0,-31.9,16
3,94.0,0.1,-0.30000000000000004,1.0,0.0,-0.30000000000000004,10.8,-39.1,25.6,-11.700000000000001,16
4,104.0,-0.30000000000000004,-0.2,1.1,-0.30000000000000004,-0.2,11.0,-29.300000000000004,19.400000000000002,-7.400000000000001,16
5,120.0,-0.30000000000000004,-0.1,1.4000000000000001,-0.4,-0.2,11.200000000000001,-18.1,2.2,-6.4,16
6,136.0,0.1,-0.2,1.4000000000000001,-0.1,-0.30000000000000004,11.200000000000001,7.300000000000001,-12.100000000000001,-7.300000000000001,16
7,153.0,0.2,0.0,0.9,0.1,-0.1,10.700000000000001,30.5,-8.0,-6.2,16
8,170.0,0.2,0.30000000000000004,0.2,0.2,0.2,10.0,41.6,-14.100000000000001,-8.700000000000001,16
9,186.0,0.1,0.30000000000000004,0.1,0.1,0.2,9.9,40.5,-15.6,-11.4,16
10,203.0,0.0,0.1,0.7000000000000001,0.0,0.1,10.5,29.300000000000004,-5.500000000000001,-12.600000000000001,16
11,219.0,0.0,0.1,0.7000000000000001,0.0,0.2,10.5,26.000000000000004,1.2000000000000002,-10.1,16
12,236.0,0.30000000000000004,0.4,-0.1,0.30000000000000004,0.5,9.700000000000001,30.3,4.6,-3.7000000000000006,16
13,253.0,0.2,0.4,-0.5,0.30000000000000004,0.6000000000000001,9.3,36.7,-1.1,2.9,16
14,270.0,-0.1,0.2,-0.4,0.0,0.5,9.4,29.300000000000004,1.9,10.9,16
15,286.0,-0.1,0.0,-0.2,0.0,0.4,9.600000000000001,19.799999999999997,8.0,16.1,16
16,303.0,-0.1,-0.1,-0.1,0.1,0.30000000000000004,9.700000000000001,10.200000000000001,16.0,21.8,16
17,319.0,0.1,0.1,0.1,0.2,0.6000000000000001,9.8,5.0,17.200000000000003,33.300000000000004,16
18,336.0,0.1,0.4,-0.2,0.2,0.8,9.600000000000001,8.8,12.100000000000001,32.7,16
19,353.0,0.0,0.5,-0.30000000000000004,0.1,0.9,9.5,17.9,4.0,28.700000000000003,16
20,370.0,-0.2,0.30000000000000004,-0.1,-0.2,0.7000000000000001,9.600000000000001,24.400000000000002,1.4,26.9,16
21,386.0,-0.5,-0.1,-0.1,-0.4,0.5,9.700000000000001,29.0,-3.8,26.000000000000004,16
22,403.0,-0.2,-0.2,0.2,0.0,0.5,10.0,36.2,-1.9,23.099999999999998,16
23,420.0,0.0,-0.1,0.2,0.1,0.6000000000000001,10.0,36.1,9.700000000000001,21.500000000000004,16
24,436.0,0.1,0.4,-0.4,0.1,1.3,9.4,28.500000000000004,32.0,21.0,16
25,453.0,0.0,0.7000000000000001,-0.8,0.0,1.6,9.0,24.8,29.900000000000006,18.900000000000002,16
26,470.0,0.1,0.6000000000000001,-0.9,0.0,1.6,8.9,33.300000000000004,3.3000000000000007,8.899999999999999,16
27,486.0,0.30000000000000004,0.6000000000000001,-0.6000000000000001,0.2,1.7000000000000002,9.1,38.800000000000004,-9.5,2.0,16
28,503.0,0.4,0.6000000000000001,-0.2,0.30000000000000004,1.8,9.5,44.300000000000004,-21.6,-9.5,16
29,520.0,0.4,0.5,-0.2,0.4,1.8,9.5,44.2,-19.200000000000003,-11.8,16
30,536.0,0.2,0.4,-0.2,0.30000000000000004,1.8,9.5,39.8,-7.0,-12.7,16
31,553.0,0.0,0.30000000000000004,-0.4,0.0,1.8,9.3,31.5,5.2,-10.9,16
32,570.0,0.0,0.30000000000000004,-0.5,0.0,2.0,9.1,22.8,6.1000000000000005,-7.1000000000000005,16
33,586.0,0.0,0.4,-0.5,0.0,2.1,9.200000000000001,18.4,4.0,-6.2,16
34,603.0,0.1,0.5,-0.4,0.1,2.2,9.200000000000001,11.2,-1.4,-5.0,16
35,620.0,0.1,0.5,-0.4,0.1,2.2,9.200000000000001,9.899999999999999,-5.2,-5.500000000000001,16
36,636.0,0.0,0.30000000000000004,-0.30000000000000004,0.0,2.1,9.3,10.8,-12.299999999999999,-6.500000000000001,16
37,653.0,0.0,0.30000000000000004,-0.30000000000000004,0.0,2.1,9.3,10.8,-12.299999999999999,-6.500000000000001,16
38,670.0,0.1,0.2,-0.4,0.1,2.2,9.200000000000001,8.700000000000001,-8.4,-9.5,16
39,686.0,0.1,0.2,-0.4,0.1,2.2,9.200000000000001,8.700000000000001,-8.4,-9.5,16
40,703.0,-0.1,0.2,-0.1,0.0,2.1,9.600000000000001,4.5,-9.2,-9.8,16
41,720.0,-0.1,0.2,0.2,0.0,2.1,9.8,7.6,-12.0,-10.0,16
42,736.0,-0.1,0.2,0.1,0.0,2.1,9.700000000000001,17.6,-12.100000000000001,-10.0,16
43,753.0,-0.2,0.30000000000000004,-0.30000000000000004,0.0,2.3000000000000003,9.3,22.6,-14.300000000000002,-9.700000000000001,16
44,769.0,0.0,0.5,-0.6000000000000001,0.2,2.6,8.9,20.2,-17.7,-9.600000000000001,16
45,786.0,0.1,0.6000000000000001,-0.6000000000000001,0.30000000000000004,2.7,8.9,13.6,-18.1,-9.8,16
46,803.0,0.2,0.5,-0.6000000000000001,0.5,2.7,9.0,3.6000000000000005,-16.4,-9.899999999999999,16
47,820.0,0.2,0.5,-0.4,0.5,2.7,9.200000000000001,1.3,-15.2,-9.899999999999999,16
48,836.0,0.30000000000000004,0.5,-0.30000000000000004,0.7000000000000001,2.7,9.3,-3.9,-11.700000000000001,-10.200000000000001,16
49,853.0,0.5,0.6000000000000001,-0.1,0.8,2.8000000000000003,9.4,-4.5,-8.4,-11.1,16
50,869.0,0.6000000000000001,0.6000000000000001,0.0,1.0,2.8000000000000003,9.5,-0.5,-11.700000000000001,-14.300000000000002,16
51,886.0,0.6000000000000001,0.6000000000000001,-0.30000000000000004,1.0,2.8000000000000003,9.3,2.9,-10.700000000000001,-16.4,16
52,903.0,0.6000000000000001,0.6000000000000001,-0.4,1.0,2.8000000000000003,9.1,5.6,-9.4,-18.1,16
53,920.0,0.4,0.5,-0.8,0.9,2.8000000000000003,8.700000000000001,6.0,-9.0,-18.900000000000002,16
54,936.0,0.4,0.5,-1.0,0.9,2.9000000000000004,8.5,3.5,-10.9,-17.1,16
55,953.0,0.7000000000000001,0.8,-1.0,1.2000000000000002,3.1,8.6,-0.9000000000000001,-15.8,-17.7,16
56,969.0,0.8,0.9,-0.8,1.4000000000000001,3.2,8.8,-4.6,-17.400000000000002,-18.900000000000002,16
57,986.0,0.8,0.8,-0.4,1.4000000000000001,3.1,9.1,-12.200000000000001,-17.5,-21.300000000000004,16
58,1003.0,0.8,0.8,-0.4,1.3,3.0,9.200000000000001,-15.000000000000002,-16.3,-21.900000000000002,16
59,1020.0,0.7000000000000001,0.6000000000000001,-0.2,1.3,2.8000000000000003,9.4,-16.1,-13.5,-21.500000000000004,16
60,1036.0,0.6000000000000001,0.6000000000000001,-0.30000000000000004,1.3,2.8000000000000003,9.200000000000001,-14.100000000000001,-13.399999999999999,-21.6,16
61,1056.0,0.4,0.7000000000000001,-0.4,1.1,2.8000000000000003,9.1,-13.900000000000002,-14.800000000000002,-19.5,16
62,1074.0,0.4,0.7000000000000001,-0.2,1.2000000000000002,2.9000000000000004,9.5,-10.200000000000001,-22.1,-16.4,16
63,1087.0,0.5,0.9,0.2,1.3,3.0,9.700000000000001,-6.2,-25.1,-15.8,16
64,1103.0,0.7000000000000001,1.2000000000000002,0.2,1.5,3.4000000000000004,9.700000000000001,1.8000000000000003,-21.8,-16.4,16
65,1120.0,0.6000000000000001,1.2000000000000002,0.2,1.5,3.5,9.600000000000001,2.9,-17.200000000000003,-17.7,16
66,1137.0,0.4,1.5,-0.1,1.4000000000000001,3.7,9.4,-0.9000000000000001,-12.5,-20.2,16
67,1157.0,0.2,1.4000000000000001,0.0,1.2000000000000002,3.6,9.5,-9.4,-9.700000000000001,-21.200000000000003,16
68,1171.0,-0.1,1.3,0.30000000000000004,0.8,3.5,9.8,-12.4,-9.100000000000001,-22.4,16
69,1187.0,-0.2,1.2000000000000002,0.30000000000000004,0.8,3.4000000000000004,9.8,-10.9,-11.2,-23.3,16
70,1203.0,-0.2,1.0,0.5,0.8,3.2,10.0,-5.6,-14.300000000000002,-23.900000000000006,16
71,1220.0,-0.2,1.0,0.6000000000000001,0.9,3.1,10.100000000000001,-3.8,-16.900000000000002,-23.700000000000003,16
72,1238.0,0.0,0.8,0.8,1.1,3.0,10.3,-0.5,-20.8,-23.099999999999998,16
73,1255.0,0.0,0.7000000000000001,0.8,1.1,2.9000000000000004,10.3,4.6,-13.100000000000001,-20.8,16
74,1270.0,-0.30000000000000004,0.6000000000000001,0.4,0.8,2.8000000000000003,9.700000000000001,11.000000000000002,-0.6000000000000001,-17.5,16
75,1286.0,-0.7000000000000001,0.6000000000000001,-0.5,0.5,2.9000000000000004,9.0,14.900000000000002,7.500000000000001,-15.700000000000001,16
76,1304.0,-1.2000000000000002,0.9,-1.5,-0.1,3.2,8.0,17.799999999999997,16.0,-15.2,16
77,1320.0,-1.3,1.0,-1.7000000000000002,-0.2,3.3000000000000003,7.800000000000001,15.5,12.8,-17.400000000000002,16
78,1336.0,-1.4000000000000001,0.8,-1.5,-0.4,3.1,8.0,4.300000000000001,-4.9,-24.0,16
79,1361.0,-1.6,0.2,-0.5,-0.6000000000000001,2.6,9.0,-10.0,-18.3,-26.6,16
80,1370.0,-1.8,0.0,0.2,-0.7000000000000001,2.4000000000000004,9.700000000000001,-17.300000000000004,-11.8,-23.6,16
81,1387.0,-1.9000000000000001,0.0,0.4,-0.8,2.4000000000000004,9.9,-18.0,-5.2,-21.200000000000003,16
82,1404.0,-1.9000000000000001,0.1,0.4,-0.8,2.4000000000000004,9.9,-17.6,0.30000000000000004,-18.8,16
83,1421.0,-1.5,0.6000000000000001,0.5,-0.5,2.9000000000000004,10.0,-14.300000000000002,-6.600000000000001,-15.2,16
84,1437.0,-1.3,0.7000000000000001,0.7000000000000001,-0.30000000000000004,2.9000000000000004,10.200000000000001,-14.0,-13.399999999999999,-15.8,16
85,1458.0,-1.2000000000000002,0.7000000000000001,0.9,-0.2,2.9000000000000004,10.600000000000001,-12.0,-11.1,-15.000000000000002,16
86,1470.0,-1.3,0.5,0.8,-0.30000000000000004,2.7,10.3,-5.9,5.8,-10.4,16
87,1490.0,-1.2000000000000002,0.9,-0.1,-0.2,3.1,9.4,2.3,21.7,-3.1,16
88,1504.0,-1.2000000000000002,0.9,-0.1,-0.2,3.1,9.4,2.3,21.7,-3.1,16
89,1520.0,-1.0,1.1,-0.8,-0.2,3.6,8.3,6.500000000000001,17.6,-1.3,16
90,1541.0,-1.0,1.4000000000000001,-1.2000000000000002,-0.2,3.6,8.3,7.1000000000000005,0.5,-3.3000000000000007,16
91,1553.0,-1.0,1.3,-1.0,-0.2,3.6,8.6,6.1000000000000005,-7.0,-4.1,16
92,1585.0,-1.0,1.2000000000000002,-0.5,-0.2,3.5,9.0,5.0,-5.4,-4.4,16
93,1586.0,-1.1,1.2000000000000002,-0.4,-0.30000000000000004,3.5,9.1,3.5,0.7,-3.8,16
94,1603.0,-1.1,1.3,-0.4,-0.4,3.7,9.1,0.6000000000000001,5.500000000000001,-1.7,16
95,1626.0,-1.1,1.4000000000000001,-0.2,-0.30000000000000004,3.8000000000000003,9.3,-0.5,-0.5,-1.6,16
96,1637.0,-1.0,1.4000000000000001,-0.1,-0.30000000000000004,3.8000000000000003,9.4,-0.2,-2.6,-1.6,16
97,1654.0,-0.9,1.3,0.30000000000000004,-0.2,3.7,9.8,3.8,-6.8,-2.8,16
98,1670.0,-0.9,1.1,0.4,-0.1,3.5,9.8,7.6,-4.6,-2.8,16
99,1686.0,-0.8,1.1,0.30000000000000004,-0.1,3.6,9.8,7.8,-1.9,-1.6,16
100,1703.0,-0.7000000000000001,1.1,0.30000000000000004,0.0,3.6,9.700000000000001,7.300000000000001,-1.0,0.30000000000000004,16
101,1720.0,-0.6000000000000001,1.2000000000000002,0.2,0.2,3.7,9.600000000000001,6.600000000000001,-0.2,3.1,16
102,1736.0,-0.5,1.4000000000000001,-0.1,0.2,3.9000000000000004,9.4,7.699999999999999,1.2000000000000002,3.1,16
103,1756.0,-0.5,1.3,0.0,0.2,3.9000000000000004,9.4,5.8,-5.8,-0.2,16
104,1770.0,-0.5,1.1,0.8,0.2,3.7,10.200000000000001,0.30000000000000004,-17.1,-2.1,16
105,1787.0,-0.30000000000000004,0.8,1.7000000000000002,0.4,3.4000000000000004,11.100000000000001,-1.6,-23.099999999999998,-1.1,16
106,1804.0,-0.30000000000000004,0.8,2.0,0.5,3.4000000000000004,11.4,-0.8,-26.700000000000003,1.0,16
107,1820.0,-0.1,0.9,2.5,0.8,3.5,11.9,9.3,-22.5,6.0,16
108,1838.0,-0.2,1.5,2.0,0.7000000000000001,4.1000000000000005,11.4,20.2,-6.9,8.5,16
109,1853.0,-0.30000000000000004,1.7000000000000002,1.0,0.7000000000000001,4.4,10.4,19.799999999999997,-1.4,9.700000000000001,16
110,1870.0,-0.1,1.8,0.9,1.1,4.5,10.5,7.8,-24.0,5.9,16
111,1887.0,0.30000000000000004,1.6,1.7000000000000002,1.4000000000000001,4.3,11.100000000000001,1.3,-36.0,3.4,16
112,1903.0,0.1,0.9,2.0,1.3,3.7,11.4,-0.6000000000000001,-27.099999999999998,2.1,16
113,1920.0,0.1,0.9,2.0,0.9,3.6,11.100000000000001,3.6000000000000005,-10.299999999999999,0.8,16
114,1937.0,-1.4000000000000001,0.30000000000000004,0.4,-0.2,3.1,9.700000000000001,10.4,19.400000000000002,-0.8,16
115,1956.0,-1.8,-0.4,-0.4,-0.7000000000000001,2.4000000000000004,8.9,6.0,4.300000000000001,2.0,16
116,1974.0,-1.1,-1.4000000000000001,1.0,0.1,1.5,10.3,-2.3,-45.8,11.6,16
117,1987.0,-0.30000000000000004,-1.6,2.2,0.9,1.2000000000000002,11.5,-0.5,-64.50000000000001,20.2,16
118,2004.0,1.2000000000000002,-1.5,3.2,2.7,1.3,12.5,17.9,-65.3,32.2,16
119,2022.0,1.6,-1.1,1.7000000000000002,3.3000000000000003,1.8,10.9,45.6,-20.5,29.400000000000002,16
120,2037.0,1.6,-1.2000000000000002,1.7000000000000002,3.1,2.0,10.0,50.8,-5.9,26.9,16
121,2056.0,0.2,-0.6000000000000001,-1.5,2.0,2.5,7.6000000000000005,54.699999999999996,36.8,15.5,16
122,2070.0,-0.6000000000000001,-0.6000000000000001,-2.7,1.1,2.6,6.4,42.400000000000006,44.300000000000004,9.4,16
123,2086.0,-1.2000000000000002,-0.7000000000000001,-3.1,0.30000000000000004,2.6,6.0,23.900000000000006,29.300000000000004,7.1000000000000005,16
124,2104.0,-1.4000000000000001,-0.8,-2.5,0.1,2.5,6.5,5.6,5.0,10.5,16
125,2121.0,-1.3,-0.8,-2.3000000000000003,0.2,2.6,6.800000000000001,3.1,-1.6,12.9,16
126,2137.0,-1.4000000000000001,-0.7000000000000001,-2.1,0.1,2.7,7.0,9.0,2.5,16.200000000000003,16
127,2154.0,-1.6,-0.30000000000000004,-2.4000000000000004,-0.1,3.1,6.7,16.3,7.300000000000001,16.6,16
128,2178.0,-1.7000000000000002,0.0,-2.5,-0.2,3.5,6.5,14.5,3.9,16.4,16
129,2187.0,-1.7000000000000002,0.1,-2.3000000000000003,-0.2,3.6,6.7,9.899999999999999,0.30000000000000004,16.1,16
130,2203.0,-1.6,0.0,-1.7000000000000002,-0.1,3.5,7.4,-2.9,-7.6,15.000000000000002,16
131,2220.0,-1.5,-0.2,-1.3,0.2,3.1,8.3,-8.700000000000001,-9.899999999999999,15.8,16
132,2236.0,-1.3,-0.4,-0.4,0.4,3.0,8.6,-13.399999999999999,-10.9,22.700000000000003,16
133,2257.0,-0.6000000000000001,-0.30000000000000004,0.0,1.1,3.1,9.1,-9.0,-10.700000000000001,30.699999999999996,16
134,2270.0,-0.30000000000000004,0.0,0.0,1.5,3.3000000000000003,9.1,0.0,-1.1,34.0,16
135,2287.0,-0.30000000000000004,0.4,-0.4,1.5,3.7,8.6,3.7000000000000006,3.6000000000000005,33.2,16
136,2303.0,-0.7000000000000001,0.6000000000000001,-0.9,1.1,3.9000000000000004,8.1,6.4,9.5,30.200000000000003,16
137,2320.0,-0.8,0.6000000000000001,-1.0,0.6000000000000001,4.0,8.0,3.7000000000000006,16.5,31.099999999999998,16
138,2336.0,-1.4000000000000001,0.8,-1.0,0.4,4.1000000000000005,8.1,1.0,16.5,32.7,16
139,2355.0,-1.6,1.0,-0.5,0.2,4.3,8.5,-4.9,13.200000000000003,34.1,16
140,2374.0,-1.5,1.1,0.2,0.2,4.3,9.3,-10.5,10.200000000000001,34.1,16
141,2388.0,-1.4000000000000001,1.0,0.8,0.30000000000000004,4.3,9.9,-12.7,7.8,34.1,16
142,2403.0,-1.2000000000000002,0.8,2.0,0.6000000000000001,4.0,11.100000000000001,-13.8,3.9,34.60000000000001,16
143,2420.0,-1.1,0.7000000000000001,2.2,0.7000000000000001,3.9000000000000004,11.3,-11.900000000000002,4.2,35.5,16
144,2436.0,-0.9,0.5,2.7,0.9,3.6,11.9,-2.6,15.000000000000002,40.9,16
145,2454.0,-0.9,0.9,1.8,0.9,4.0,11.0,10.9,47.80000000000001,48.70000000000001,16
146,2472.0,-1.4000000000000001,1.7000000000000002,0.5,0.2,4.800000000000001,9.600000000000001,15.8,66.1,49.699999999999996,16
147,2487.0,-1.8,2.0,0.30000000000000004,-0.2,5.1000000000000005,9.4,11.4,60.8,48.300000000000004,16
148,2505.0,-2.1,1.7000000000000002,0.2,-0.6000000000000001,4.9,9.4,-8.2,48.400000000000006,42.1,16
149,2523.0,-2.0,1.4000000000000001,0.5,-0.6000000000000001,4.5,9.700000000000001,-14.600000000000001,43.6,40.5,16
150,2541.0,-1.6,-0.4,2.8000000000000003,-0.30000000000000004,2.6,12.100000000000001,-43.800000000000004,-10.200000000000001,29.1,16
151,2554.0,-1.4000000000000001,-2.6,5.6000000000000005,0.1,0.2,14.8,-60.6,-64.2,24.1,16
152,2570.0,-1.3,-3.3000000000000003,6.2,0.4,-0.7000000000000001,15.5,-55.900000000000006,-67.8,31.7,16
153,2586.0,-0.8,-3.7,5.2,1.0,-1.2000000000000002,14.5,-21.0,-22.8,56.400000000000006,16
154,2604.0,-0.5,-2.8000000000000003,2.6,1.3,-0.4,11.9,22.8,36.8,73.10000000000001,16
155,2620.0,-0.5,-2.8000000000000003,2.6,1.5,0.1,10.8,37.300000000000004,53.7,76.60000000000001,16
156,2640.0,0.30000000000000004,-1.5,-0.8,2.1,1.1,8.5,47.0,56.6,78.60000000000001,16
157,2654.0,0.6000000000000001,-1.0,-1.1,2.2,1.7000000000000002,8.3,33.0,19.6,62.7,16
158,2677.0,0.4,-1.4000000000000001,-0.2,2.1,1.3,9.0,11.5,-12.7,47.0,16
159,2687.0,0.1,-1.8,0.2,1.8,0.9,9.4,5.9,-3.1,44.7,16
160,2703.0,-0.4,-1.9000000000000001,0.2,1.3,0.7000000000000001,9.4,6.600000000000001,31.9,46.6,16
161,2720.0,-0.4,-1.9000000000000001,0.2,1.3,0.8,9.0,12.7,48.6,48.50000000000001,16
162,2738.0,-0.5,-1.7000000000000002,-0.9,1.0,1.2000000000000002,8.0,26.200000000000003,64.80000000000001,48.0,16
163,2755.0,-0.6000000000000001,-1.3,-2.1,0.8,1.5,7.2,33.9,54.800000000000004,44.2,16
164,2771.0,-0.5,-1.1,-2.0,0.8,1.7000000000000002,7.300000000000001,36.8,33.0,41.800000000000004,16
165,2787.0,-0.30000000000000004,-1.1,-1.7000000000000002,0.9,1.8,7.6000000000000005,38.60000000000001,25.0,40.6,16
166,2803.0,0.0,-0.9,-0.8,1.2000000000000002,2.1,8.5,43.800000000000004,15.700000000000001,33.6,16
167,2822.0,0.0,-1.0,-0.8,1.2000000000000002,2.1,8.4,46.50000000000001,17.6,27.099999999999998,16
168,2837.0,-0.30000000000000004,-1.1,-1.3,0.8,2.1,7.9,45.3,39.9,17.0,16
169,2856.0,-0.30000000000000004,-0.30000000000000004,-1.5,0.8,3.0,7.6000000000000005,30.4,57.3,11.1,16
170,2870.0,0.0,-0.30000000000000004,-1.4000000000000001,0.8,3.1,7.800000000000001,12.7,43.2,-12.8,16
171,2889.0,-1.3,-0.6000000000000001,-1.2000000000000002,-0.6000000000000001,2.9000000000000004,7.9,4.2,33.7,-20.400000000000002,16
172,2904.0,-1.7000000000000002,-0.8,-0.7000000000000001,-1.1,2.7,8.5,-6.0,27.700000000000003,-18.900000000000002,16
173,2920.0,-1.8,-0.6000000000000001,-0.4,-1.2000000000000002,2.8000000000000003,8.700000000000001,-7.9,22.8,-14.700000000000001,16
174,2938.0,-1.3,-0.30000000000000004,0.4,-0.8,3.1,9.600000000000001,-3.9,5.0,-7.6,16
175,2957.0,-0.9,-0.30000000000000004,1.4000000000000001,-0.4,3.1,10.600000000000001,3.3000000000000007,-16.700000000000003,-6.0,16
176,2970.0,-0.9,-0.2,1.8,-0.30000000000000004,3.2,11.0,9.600000000000001,-20.900000000000002,-3.4,16
177,2986.0,-0.9,0.0,1.2000000000000002,-0.4,3.5,10.4,16.4,-5.8,2.9,16
178,3003.0,-1.1,0.6000000000000001,0.7000000000000001,-0.5,4.1000000000000005,9.9,18.200000000000003,5.0,6.600000000000001,16
179,3020.0,-1.0,0.9,0.9,-0.4,4.4,10.0,16.1,1.2000000000000002,7.6,16
180,3037.0,-0.9,1.1,1.7000000000000002,-0.30000000000000004,4.6000000000000005,10.8,3.7000000000000006,-20.5,-0.5,16
181,3054.0,-0.9,0.7000000000000001,2.3000000000000003,-0.4,3.8000000000000003,11.700000000000001,-12.9,-17.400000000000002,-13.200000000000003,16
182,3071.0,-1.8,-1.2000000000000002,3.2,-1.1,2.3000000000000003,12.3,-32.0,-15.700000000000001,-12.100000000000001,16
183,3087.0,-2.3000000000000003,-1.9000000000000001,3.1,-1.6,1.5,12.3,-37.50000000000001,-9.600000000000001,1.2000000000000002,16
184,3104.0,-2.5,-2.0,2.7,-1.8,1.3,11.9,-35.699999999999996,6.8,46.1,16
185,3124.0,-1.8,-1.6,1.7000000000000002,-1.0,1.6,11.0,-24.900000000000002,-12.100000000000001,92.60000000000001,16
186,3152.0,0.5,-0.30000000000000004,1.2000000000000002,1.6,2.8000000000000003,10.4,8.600000000000001,-41.300000000000004,142.20000000000002,16
187,3171.0,1.9000000000000001,0.7000000000000001,0.8,3.3000000000000003,3.7,10.0,39.9,-39.9,135.9,16
188,3186.0,1.8,0.6000000000000001,0.8,3.6,4.1000000000000005,9.5,50.7,-33.2,118.69999999999999,16
189,3203.0,1.9000000000000001,1.0,0.1,3.6,4.2,9.3,54.9,-25.5,96.5,16
190,3221.0,0.4,0.5,-1.3,2.2,3.8000000000000003,7.800000000000001,35.1,1.4,38.900000000000006,16
191,3236.0,-0.30000000000000004,0.2,-1.6,1.6,3.6,7.4,25.0,9.600000000000001,29.200000000000003,16
192,3253.0,-1.1,-0.2,-2.0,0.2,3.0,6.7,4.4,16.900000000000002,25.300000000000004,16
193,3271.0,-2.3000000000000003,-0.5,-2.5,-0.5,2.9000000000000004,6.5,-13.700000000000001,14.100000000000001,37.800000000000004,16
194,3288.0,-2.2,-0.4,-2.4000000000000004,-0.30000000000000004,2.9000000000000004,6.6000000000000005,-19.300000000000004,13.700000000000001,46.1,16
195,3303.0,-1.9000000000000001,-0.2,-2.3000000000000003,-0.1,3.1,6.7,-20.8,14.400000000000002,52.80000000000001,16
196,3320.0,-1.0,0.1,-2.1,0.9,3.3000000000000003,7.0,-13.700000000000001,14.800000000000002,56.50000000000001,16
197,3336.0,-0.30000000000000004,0.30000000000000004,-1.8,1.5,3.4000000000000004,7.300000000000001,-0.2,13.700000000000001,45.9,16
198,3353.0,-0.4,0.2,-1.8,1.3,3.2,7.300000000000001,6.300000000000001,19.300000000000004,28.200000000000003,16
199,3371.0,-1.3,-0.2,-1.9000000000000001,0.5,2.9000000000000004,7.2,-1.9,20.400000000000002,21.0,16
200,3386.0,-1.5,-0.30000000000000004,-1.7000000000000002,0.30000000000000004,2.8000000000000003,7.4,-8.100000000000001,19.0,24.400000000000002,16
201,3403.0,-1.2000000000000002,-0.1,-1.4000000000000001,0.5,2.9000000000000004,7.800000000000001,-13.900000000000002,23.6,35.3,16
202,3420.0,-1.1,0.0,-1.4000000000000001,0.6000000000000001,3.0,7.800000000000001,-13.6,25.7,36.8,16
203,3436.0,-1.1,0.4,-1.4000000000000001,0.6000000000000001,3.4000000000000004,7.800000000000001,-9.899999999999999,30.9,36.7,16
204,3453.0,-1.3,0.30000000000000004,-0.7000000000000001,0.30000000000000004,3.2,8.5,-12.7,15.000000000000002,30.4,16
205,3470.0,-1.6,0.0,-0.2,0.0,2.8000000000000003,9.0,-16.200000000000003,6.8,27.800000000000004,16
206,3486.0,-2.2,-0.4,0.5,-0.5,2.4000000000000004,9.700000000000001,-20.2,10.1,37.2,16
207,3503.0,-1.6,0.2,0.7000000000000001,0.1,3.0,10.0,-12.299999999999999,23.400000000000002,63.10000000000001,16
208,3520.0,-1.6,0.30000000000000004,0.7000000000000001,0.5,3.2,10.200000000000001,-6.9,24.1,71.39999999999999,16
209,3545.0,-0.30000000000000004,0.8,1.7000000000000002,1.6,3.3000000000000003,11.600000000000001,0.6000000000000001,-0.4,65.89999999999999,16
210,3555.0,0.0,0.7000000000000001,2.3000000000000003,1.5,3.2,11.8,1.8000000000000003,-4.1,60.8,16
211,3570.0,-0.2,0.30000000000000004,3.0,1.5,2.9000000000000004,12.3,4.2,-1.7,60.300000000000004,16
212,3594.0,-0.6000000000000001,0.7000000000000001,2.3000000000000003,1.2000000000000002,3.3000000000000003,11.600000000000001,20.8,29.500000000000004,59.00000000000001,16
213,3603.0,-0.5,0.7000000000000001,2.3000000000000003,0.9,3.5,11.200000000000001,21.200000000000003,41.6,50.60000000000001,16
214,3620.0,-0.8,0.9,1.9000000000000001,0.30000000000000004,3.5,10.9,13.8,48.50000000000001,41.1,16
215,3653.0,-2.8000000000000003,-0.9,2.7,-1.4000000000000001,1.6,12.100000000000001,-37.1,18.1,35.4,16
216,3670.0,-2.5,-1.8,4.2,-1.1,0.6000000000000001,13.600000000000001,-36.9,1.9,50.7,16
217,3687.0,-2.3000000000000003,-2.0,4.2,-0.8,0.4,13.700000000000001,-26.200000000000003,3.1,61.300000000000004,16
218,3704.0,-1.9000000000000001,-1.5,3.2,-0.4,0.7000000000000001,12.600000000000001,3.2,11.8,82.60000000000001,16
219,3729.0,-0.9,-0.9,1.6,0.6000000000000001,1.3,11.100000000000001,17.6,20.900000000000002,90.1,16
220,3743.0,-0.4,-0.5,0.6000000000000001,1.1,1.7000000000000002,10.100000000000001,12.100000000000001,22.3,82.3,16
221,3753.0,-0.30000000000000004,-0.5,0.5,1.2000000000000002,1.7000000000000002,9.9,5.300000000000001,17.300000000000004,75.3,16
222,3770.0,-0.2,-0.8,0.5,1.3,1.3,9.9,-4.4,10.600000000000001,64.80000000000001,16
223,3787.0,-0.30000000000000004,-1.0,0.4,1.2000000000000002,1.2000000000000002,9.8,-5.300000000000001,11.700000000000001,62.1,16
224,3805.0,-0.30000000000000004,-1.0,-0.30000000000000004,1.3,1.1,9.200000000000001,1.0,20.8,61.7,16
225,3822.0,-0.2,-1.0,-0.5,1.3,1.1,9.0,7.500000000000001,27.0,63.10000000000001,16
226,3840.0,0.0,-0.6000000000000001,-1.5,1.4000000000000001,1.4000000000000001,8.0,23.3,30.799999999999997,63.10000000000001,16
227,3857.0,-0.1,-0.4,-2.4000000000000004,1.3,1.7000000000000002,7.1000000000000005,33.9,22.1,60.7,16
228,3874.0,-0.1,-0.1,-3.0,1.3,2.1,6.4,41.4,6.2,57.800000000000004,16
229,3887.0,0.0,0.1,-3.2,1.4000000000000001,2.3000000000000003,6.2,38.400000000000006,-0.2,54.199999999999996,16
230,3903.0,0.1,0.0,-2.8000000000000003,1.5,2.4000000000000004,6.6000000000000005,30.200000000000003,-1.7,48.800000000000004,16
231,3920.0,0.0,-0.1,-2.4000000000000004,1.5,2.3000000000000003,7.0,24.1,-2.5,44.9,16
232,3942.0,0.6000000000000001,-0.5,-0.4,2.2,1.9000000000000001,9.0,23.0,-3.3000000000000007,34.800000000000004,16
233,3955.0,0.8,-0.4,-0.4,2.4000000000000004,2.1,8.9,30.699999999999996,-3.9,31.099999999999998,16
234,3976.0,0.9,-0.30000000000000004,-1.3,2.5,2.3000000000000003,8.0,44.10000000000001,0.1,18.700000000000003,16
235,3989.0,0.5,-0.30000000000000004,-1.9000000000000001,2.1,2.3000000000000003,7.4,44.00000000000001,4.6,10.8,16
236,4003.0,-0.30000000000000004,-0.30000000000000004,-2.4000000000000004,1.3,2.5,6.9,34.60000000000001,16.700000000000003,0.0,16
237,4020.0,-0.5,-0.2,-2.3000000000000003,1.0,2.6,6.9,28.0,19.300000000000004,-3.9,16
238,4040.0,-0.9,-0.2,-1.6,0.6000000000000001,2.7,7.7,15.000000000000002,7.6,-10.200000000000001,16
239,4067.0,-0.5,0.0,0.0,1.0,3.0,9.200000000000001,-6.4,-25.200000000000003,-9.8,16
240,4070.0,-0.5,0.0,0.0,1.0,3.0,9.200000000000001,-6.4,-25.200000000000003,-9.8,16
241,4087.0,0.1,-0.1,2.0,1.7000000000000002,2.9000000000000004,11.200000000000001,-29.1,-24.8,-11.6,16
242,4104.0,0.2,0.0,2.6,1.8,3.1,12.3,-39.1,1.7,-13.399999999999999,16
243,4120.0,0.1,0.5,3.1,1.8,3.3000000000000003,12.4,-41.0,11.2,-14.600000000000001,16
244,4139.0,0.0,0.6000000000000001,3.5,1.6,3.3000000000000003,12.8,-48.800000000000004,9.600000000000001,-17.1,16
245,4155.0,0.2,0.6000000000000001,4.1000000000000005,1.7000000000000002,3.1,13.4,-50.2,4.1,-15.399999999999999,16
246,4171.0,0.2,0.1,4.6000000000000005,1.7000000000000002,2.5,14.0,-50.0,3.9,-13.900000000000002,16
247,4186.0,0.2,0.2,4.6000000000000005,1.5,2.0,14.4,-45.8,9.0,-11.1,16
248,4203.0,-0.5,-0.6000000000000001,4.4,1.0,1.5,13.9,-23.6,27.800000000000004,1.0,16
249,4220.0,-0.5,-0.6000000000000001,3.9000000000000004,0.8,1.5,13.4,-9.5,27.099999999999998,8.3,16
250,4236.0,0.0,-0.5,2.5,1.3,1.6,12.0,17.799999999999997,-4.300000000000001,23.700000000000003,16
251,4256.0,1.5,-0.1,1.5,2.9000000000000004,2.0,11.0,38.7,-39.50000000000001,33.9,16
252,4272.0,2.5,0.0,0.5,4.1000000000000005,2.3000000000000003,9.9,48.300000000000004,-45.8,27.5,16
253,4287.0,2.6,0.1,-0.5,4.2,2.4000000000000004,8.9,47.1,-40.0,19.300000000000004,16
254,4303.0,1.9000000000000001,-0.2,-1.3,3.7,2.3000000000000003,8.0,35.0,-14.900000000000002,-1.3,16
255,4320.0,1.9000000000000001,-0.2,-1.3,3.3000000000000003,2.2,7.5,31.0,-7.6,-6.0,16
256,4345.0,-0.2,-0.8,-3.0,1.6,1.8,6.300000000000001,6.9,24.900000000000002,-26.5,16
257,4357.0,-0.6000000000000001,-0.9,-3.1,1.1,1.8,6.2,5.300000000000001,25.4,-27.2,16
258,4370.0,-1.1,-0.9,-3.4000000000000004,0.5,1.8,5.9,5.4,19.700000000000003,-23.900000000000006,16
259,4387.0,-1.1,-0.8,-3.6,0.5,1.9000000000000001,5.7,7.500000000000001,14.100000000000001,-20.7,16
260,4404.0,-0.9,-0.6000000000000001,-3.7,0.6000000000000001,2.2,5.6000000000000005,10.5,3.4,-16.1,16
261,4420.0,-0.7000000000000001,-0.4,-3.7,0.8,2.4000000000000004,5.6000000000000005,9.100000000000001,0.2,-15.299999999999999,16
262,4438.0,-0.7000000000000001,-0.30000000000000004,-3.7,0.8,2.5,5.6000000000000005,5.6,1.7,-15.8,16
263,4453.0,-0.7000000000000001,-0.2,-3.3000000000000003,0.8,2.7,6.0,-4.6,7.400000000000001,-15.299999999999999,16
264,4470.0,-0.30000000000000004,0.2,-2.4000000000000004,1.0,3.0,6.9,-14.400000000000002,10.4,-13.000000000000002,16
265,4486.0,-0.30000000000000004,0.2,-1.7000000000000002,1.1,3.0,7.6000000000000005,-17.400000000000002,12.0,-14.200000000000001,16
266,4503.0,-0.6000000000000001,0.30000000000000004,-0.8,0.7000000000000001,3.1,8.5,-16.700000000000003,13.6,-18.200000000000003,16
267,4521.0,-0.7000000000000001,0.30000000000000004,-0.7000000000000001,0.6000000000000001,3.1,8.700000000000001,-14.200000000000001,14.200000000000001,-19.700000000000003,16
268,4541.0,-1.1,0.30000000000000004,-0.2,0.1,3.0,9.1,-11.700000000000001,20.2,-18.4,16
269,4563.0,-1.4000000000000001,0.8,0.30000000000000004,-0.4,3.5,9.600000000000001,-9.700000000000001,31.3,-7.300000000000001,16
270,4572.0,-1.3,0.9,0.5,-0.30000000000000004,3.5,9.9,-7.8,26.300000000000004,-3.0,16
271,4586.0,-0.9,1.0,1.2000000000000002,0.1,3.7,10.600000000000001,-4.7,18.0,1.1,16
272,4603.0,-0.5,1.1,1.6,1.0,3.8000000000000003,11.600000000000001,3.0,5.4,2.7,16
273,4620.0,0.2,1.2000000000000002,2.4000000000000004,1.1,3.8000000000000003,11.9,5.1000000000000005,3.6000000000000005,0.30000000000000004,16
274,4636.0,0.30000000000000004,1.1,2.9000000000000004,1.2000000000000002,3.8000000000000003,12.3,2.9,9.3,-4.300000000000001,16
275,4662.0,0.1,1.5,2.9000000000000004,0.9,4.1000000000000005,12.3,-3.4,25.1,-3.7000000000000006,16
276,4670.0,0.1,1.4000000000000001,3.0,0.9,4.1000000000000005,12.5,-7.300000000000001,22.000000000000004,-4.7,16
277,4686.0,0.2,1.2000000000000002,3.4000000000000004,0.9,3.9000000000000004,12.9,-10.8,20.2,-5.9,16
278,4703.0,0.30000000000000004,0.4,3.7,1.0,3.1,13.100000000000001,-15.700000000000001,24.599999999999998,-8.8,16
279,4720.0,0.30000000000000004,0.2,3.7,0.9,2.7,13.100000000000001,-17.1,26.1,-10.1,16
280,4736.0,0.0,-0.8,3.6,0.5,1.7000000000000002,13.100000000000001,-12.4,18.900000000000002,-10.200000000000001,16
281,4759.0,-0.4,-1.5,3.0,0.1,1.0,12.4,-2.2,15.100000000000001,-5.0,16
282,4770.0,-0.4,-1.6,2.2,0.0,1.0,11.100000000000001,14.700000000000001,14.200000000000001,9.0,16
283,4788.0,-0.2,-1.3,0.6000000000000001,0.2,1.2000000000000002,10.100000000000001,23.400000000000002,11.4,20.400000000000002,16
284,4803.0,0.30000000000000004,-0.8,-0.7000000000000001,0.7000000000000001,1.8,8.8,26.6,2.0,28.200000000000003,16
285,4820.0,0.4,-0.7000000000000001,-1.0,0.8,2.0,8.4,26.1,-0.9000000000000001,28.500000000000004,16
286,4840.0,0.5,-0.5,-1.6,0.9,2.2,7.800000000000001,19.300000000000004,-10.4,24.3,16
287,4853.0,0.4,-0.7000000000000001,-1.5,0.8,2.1,7.9,2.2,-15.299999999999999,15.5,16
288,4871.0,0.2,-1.0,-1.1,0.7000000000000001,1.8,8.3,-7.0,-15.2,11.8,16
289,4889.0,0.1,-1.2000000000000002,-0.7000000000000001,0.7000000000000001,1.6,8.700000000000001,-17.5,-14.100000000000001,7.400000000000001,16
290,4904.0,-0.1,-1.3,-0.6000000000000001,0.6000000000000001,1.4000000000000001,8.8,-13.8,-13.6,7.8,16
291,4920.0,-0.1,-1.3,-0.7000000000000001,0.6000000000000001,1.4000000000000001,8.6,-7.8,-8.600000000000001,9.4,16
292,4937.0,0.4,-0.9,-1.7000000000000002,1.0,1.7000000000000002,7.800000000000001,6.4,14.200000000000001,7.6,16
293,4954.0,1.1,-0.6000000000000001,-2.1,1.7000000000000002,2.1,7.300000000000001,21.300000000000004,23.6,-2.7,16
294,4970.0,1.2000000000000002,-0.6000000000000001,-2.2,1.7000000000000002,2.1,7.2,30.5,10.200000000000001,-16.3,16
295,4990.0,0.8,-0.7000000000000001,-2.1,1.4000000000000001,2.1,7.300000000000001,32.300000000000004,7.200000000000001,-22.8,16
296,5003.0,0.8,-0.8,-2.1,1.2000000000000002,2.2,7.300000000000001,36.9,23.6,-35.8,16
297,5020.0,0.9,-0.7000000000000001,-2.1,1.3,2.3000000000000003,7.2,39.400000000000006,30.699999999999996,-38.1,16
298,5037.0,1.2000000000000002,-0.6000000000000001,-2.3000000000000003,1.4000000000000001,2.6,6.9,38.800000000000004,23.099999999999998,-33.300000000000004,16
299,5064.0,1.2000000000000002,-0.30000000000000004,-2.5,1.1,3.0,6.800000000000001,27.5,18.6,-28.400000000000002,16
300,5070.0,0.6000000000000001,-0.8,-2.2,0.6000000000000001,2.5,7.1000000000000005,12.7,27.800000000000004,-32.8,16
301,5086.0,0.2,-0.9,-1.5,0.2,2.4000000000000004,7.7,9.5,29.200000000000003,-34.300000000000004,16
302,5103.0,0.2,-1.0,-1.3,0.2,2.4000000000000004,8.0,11.6,23.2,-33.50000000000001,16
303,5120.0,1.2000000000000002,-0.8,-0.1,1.4000000000000001,2.7,9.9,38.60000000000001,-13.5,-23.700000000000003,16
304,5136.0,1.9000000000000001,-0.6000000000000001,1.0,1.7000000000000002,2.9000000000000004,10.100000000000001,47.0,-11.000000000000002,-20.599999999999998,16
305,5154.0,2.0,-0.4,1.6,1.6,3.4000000000000004,11.0,37.400000000000006,-8.5,-22.3,16
306,5170.0,1.3,-0.4,2.0,1.1,3.2,11.100000000000001,21.7,-4.6,-22.1,16
307,5187.0,0.7000000000000001,-0.5,2.2,0.5,3.2,11.3,-4.7,25.1,-14.0,16
308,5204.0,0.9,-0.30000000000000004,2.0,0.6000000000000001,3.4000000000000004,11.100000000000001,-9.600000000000001,14.200000000000001,-8.700000000000001,16
309,5222.0,1.1,-0.30000000000000004,1.9000000000000001,0.8,3.4000000000000004,11.0,-8.2,7.400000000000001,-6.699999999999999,16
310,5238.0,1.3,-0.30000000000000004,1.9000000000000001,1.0,3.3000000000000003,11.0,3.7000000000000006,-43.2,0.8,16
311,5255.0,0.9,-0.4,2.2,1.0,2.9000000000000004,11.700000000000001,7.699999999999999,-112.1,3.6000000000000005,16
312,5271.0,1.6,-1.6,3.1,1.7000000000000002,2.1,12.200000000000001,8.100000000000001,-122.60000000000001,11.4,16
313,5287.0,2.4000000000000004,-1.9000000000000001,3.7,2.9000000000000004,1.8,12.8,7.200000000000001,-114.00000000000001,40.0,16
314,5303.0,3.1,-2.0,3.2,4.0,1.7000000000000002,12.3,12.8,-109.8,59.9,16
315,5320.0,3.0,-2.0,2.6,4.2,1.7000000000000002,11.600000000000001,19.1,-129.10000000000002,69.4,16
316,5336.0,2.9000000000000004,-2.1,-0.6000000000000001,4.7,1.7000000000000002,8.3,34.7,-204.1,82.39999999999999,16
317,5353.0,0.2,-2.0,-2.5,2.6,1.8,6.2,25.6,-205.20000000000002,36.7,16
318,5371.0,-0.8,-1.8,-2.3000000000000003,2.2,2.1,6.2,-29.0,-93.60000000000001,-5.0,16
319,5386.0,-1.2000000000000002,-2.1,-1.6,1.9000000000000001,1.7000000000000002,6.9,-56.800000000000004,-49.199999999999996,1.7,16
320,5403.0,-0.5,-3.7,-0.9,2.8000000000000003,-0.2,7.6000000000000005,-94.6,-14.700000000000001,40.0,16
321,5420.0,-0.7000000000000001,-3.5,-1.3,2.6,-0.1,7.300000000000001,-106.60000000000001,-9.4,59.5,16
322,5437.0,-1.7000000000000002,-2.5,-2.1,1.7000000000000002,0.5,6.6000000000000005,-133.3,-1.0,82.50000000000001,16
323,5453.0,-1.8,-0.9,-2.3000000000000003,1.7000000000000002,1.5,6.5,-163.10000000000002,20.900000000000002,93.8,16
324,5470.0,-1.7000000000000002,-0.30000000000000004,-2.1,1.8,1.9000000000000001,6.800000000000001,-173.1,19.300000000000004,95.5,16
325,5488.0,-1.9000000000000001,0.6000000000000001,-1.6,1.7000000000000002,2.1,7.4,-170.8,-14.5,92.39999999999999,16
326,5503.0,-2.6,1.3,-1.0,1.0,2.2,8.0,-128.4,-17.7,80.4,16
327,5521.0,-2.0,-0.30000000000000004,-0.9,1.7000000000000002,0.1,8.1,-71.10000000000001,-41.800000000000004,74.7,16
328,5540.0,-1.9000000000000001,-0.2,-0.9,1.9000000000000001,0.1,8.1,-50.900000000000006,-76.1,76.0,16
329,5568.0,-0.8,1.6,-0.6000000000000001,3.4000000000000004,1.5,8.200000000000001,-20.2,-134.4,90.9,16
330,5569.0,-0.8,1.6,-0.6000000000000001,3.4000000000000004,1.5,8.200000000000001,-20.2,-134.4,90.9,16
331,5587.0,-0.2,1.2000000000000002,-0.30000000000000004,4.5,0.9,8.4,-25.200000000000003,-104.3,94.9,16
332,5604.0,-0.8,0.6000000000000001,0.5,4.1000000000000005,0.1,9.0,-44.8,-52.900000000000006,89.9,16
333,5620.0,-0.7000000000000001,0.5,1.2000000000000002,4.9,0.0,10.5,-43.900000000000006,-35.599999999999994,93.3,16
334,5636.0,-0.1,1.0,2.1,5.6000000000000005,0.1,10.8,-16.700000000000003,-25.8,110.10000000000001,16
335,5654.0,1.3,0.8,2.2,6.300000000000001,0.30000000000000004,10.0,11.4,-29.500000000000004,101.6,16
336,5669.0,1.7000000000000002,1.5,1.0,6.800000000000001,0.2,9.3,20.400000000000002,-35.5,102.2,16
337,5686.0,1.8,1.8,0.2,7.0,0.4,8.4,25.5,-54.9,101.4,16
338,5703.0,1.8,1.6,0.2,7.5,0.0,9.0,24.599999999999998,-58.60000000000001,101.50000000000001,16
339,5721.0,3.2,2.1,2.2,8.6,0.5,10.200000000000001,22.9,-73.5,103.49999999999999,16
340,5736.0,3.6,2.2,2.8000000000000003,9.1,0.5,10.8,26.000000000000004,-70.5,97.3,16
341,5769.0,4.6000000000000005,3.6,3.2,10.3,1.8,11.0,29.500000000000004,-36.0,58.1,16
342,5770.0,4.6000000000000005,3.6,3.2,10.3,1.8,11.0,24.5,-26.000000000000004,38.900000000000006,16
343,5791.0,4.4,3.8000000000000003,3.2,10.100000000000001,1.9000000000000001,11.0,24.5,-26.000000000000004,38.900000000000006,16
344,5806.0,4.4,3.8000000000000003,3.2,10.100000000000001,1.9000000000000001,11.0,24.5,-26.000000000000004,38.900000000000006,16
345,5820.0,3.0,2.3000000000000003,4.800000000000001,8.8,0.5,12.5,10.8,-8.8,-29.800000000000004,16
346,5836.0,1.7000000000000002,0.9,5.1000000000000005,7.5,-0.8,12.9,23.5,-2.1,-47.900000000000006,16
347,5853.0,0.9,-0.1,4.4,6.800000000000001,-1.6,12.100000000000001,46.0,-3.1,-45.0,16
348,5873.0,0.7000000000000001,-0.2,2.9000000000000004,6.6000000000000005,-1.4000000000000001,10.700000000000001,70.9,-20.900000000000002,-31.6,16
349,5886.0,0.6000000000000001,-0.2,1.8,6.5,-1.3,9.600000000000001,80.10000000000001,-31.799999999999997,-26.1,16
350,5903.0,-0.1,-0.2,0.2,5.9,-1.1,7.9,88.50000000000001,-47.2,-18.8,16
351,5920.0,-0.30000000000000004,-0.4,-0.2,5.800000000000001,-1.1,7.5,87.10000000000001,-48.9,-15.8,16
352,5936.0,-0.8,-1.0,-0.9,5.4,-1.5,6.7,75.3,-42.5,-7.9,16
353,5953.0,-1.7000000000000002,-1.8,-0.5,4.6000000000000005,-2.1,7.0,61.599999999999994,-35.699999999999996,2.5,16
354,5970.0,-1.7000000000000002,-2.1,-0.1,5.2,-2.2,7.6000000000000005,61.50000000000001,-58.5,19.5,16
355,5986.0,-0.2,-1.6,0.4,6.300000000000001,-1.7000000000000002,7.800000000000001,65.6,-68.7,26.300000000000004,16
356,6004.0,0.6000000000000001,-0.4,0.4,7.300000000000001,-0.4,7.6000000000000005,72.80000000000001,-80.10000000000001,22.2,16
357,6020.0,0.7000000000000001,0.0,0.4,7.5,0.1,7.5,73.10000000000001,-79.3,15.2,16
358,6037.0,0.5,1.0,0.0,7.4,1.2000000000000002,6.9,66.7,-51.1,3.1,16
359,6053.0,0.6000000000000001,2.1,-0.8,7.6000000000000005,2.5,6.0,57.49999999999999,-24.200000000000003,-19.1,16
360,6070.0,1.3,3.1,-1.3,8.4,3.7,5.4,42.60000000000001,-24.5,-53.0,16
361,6086.0,1.4000000000000001,3.6,-0.9,8.5,4.2,5.800000000000001,32.400000000000006,-30.4,-74.2,16
362,6104.0,1.6,3.7,1.3,8.8,4.6000000000000005,7.9,16.1,-35.3,-113.8,16
363,6123.0,1.6,2.7,2.5,8.8,4.0,9.0,18.0,-9.2,-150.70000000000002,16
364,6136.0,1.3,2.2,2.4000000000000004,8.4,3.7,8.9,20.400000000000002,2.0,-160.10000000000002,16
365,6153.0,-0.2,1.4000000000000001,1.4000000000000001,6.9,3.4000000000000004,7.9,33.6,31.400000000000002,-194.3,16
366,6170.0,-1.5,0.5,0.0,5.300000000000001,3.1,6.5,60.1,24.7,-208.5,16
367,6186.0,-1.8,-0.30000000000000004,-0.7000000000000001,4.9,2.6,5.9,74.0,5.8,-204.4,16
368,6203.0,-2.1,-0.8,-0.6000000000000001,4.4,2.7,5.9,96.30000000000001,-17.0,-182.5,16
369,6220.0,-1.5,-1.0,-0.6000000000000001,4.7,3.2,5.7,101.20000000000002,-18.8,-168.1,16
370,6236.0,-1.3,-1.0,-0.8,4.9,3.5,5.4,99.39999999999999,-16.3,-164.89999999999998,16
371,6258.0,-1.2000000000000002,-0.4,-1.3,4.7,4.6000000000000005,4.800000000000001,91.90000000000002,-12.100000000000001,-162.0,16
372,6271.0,-1.4000000000000001,0.0,-1.5,4.3,5.300000000000001,4.3,71.7,-19.1,-165.3,16
373,6286.0,-0.8,-0.4,-1.6,4.7,5.300000000000001,4.2,56.0,-15.399999999999999,-165.4,16
374,6304.0,0.1,-2.3000000000000003,-1.3,5.300000000000001,3.8000000000000003,4.4,20.1,2.7,-150.8,16
375,6320.0,-0.30000000000000004,-2.4000000000000004,-0.8,4.6000000000000005,3.9000000000000004,4.800000000000001,-9.899999999999999,54.199999999999996,-130.1,16
376,6336.0,-0.4,-1.6,-1.1,4.2,4.9,4.6000000000000005,-17.6,65.6,-119.1,16
377,6357.0,-0.7000000000000001,-0.8,-1.3,3.6,5.800000000000001,4.5,-22.8,34.900000000000006,-104.3,16
378,6373.0,-0.6000000000000001,-1.5,-1.3,3.4000000000000004,5.300000000000001,4.6000000000000005,-29.800000000000004,-7.300000000000001,-85.4,16
379,6387.0,0.30000000000000004,-2.3000000000000003,-1.2000000000000002,4.2,4.4,4.7,-37.9,-15.6,-68.60000000000001,16
380,6405.0,3.6,-3.6,2.0,7.4,3.2,8.0,-60.7,-37.300000000000004,-32.2,16
381,6420.0,4.2,-3.7,2.5,8.0,3.0,8.5,-66.60000000000001,-32.8,-22.8,16
382,6437.0,4.9,-3.3000000000000003,2.9000000000000004,8.700000000000001,3.3000000000000003,9.1,-59.1,7.699999999999999,-17.200000000000003,16
383,6458.0,3.8000000000000003,-2.8000000000000003,1.5,7.5,3.7,7.800000000000001,-45.3,35.699999999999996,-31.3,16
384,6470.0,2.2,-2.5,-0.2,5.800000000000001,3.9000000000000004,6.300000000000001,-38.800000000000004,34.2,-35.1,16
385,6487.0,1.5,-2.5,-1.1,5.0,3.9000000000000004,5.4,-40.7,22.2,-31.400000000000002,16
386,6503.0,0.9,-2.6,-2.2,4.3,3.7,4.5,-49.0,-13.6,-17.400000000000002,16
387,6523.0,0.9,-2.8000000000000003,-2.4000000000000004,4.3,3.6,4.3,-53.2,-30.1,-7.300000000000001,16
388,6539.0,1.1,-3.2,-2.6,4.6000000000000005,2.9000000000000004,4.2,-57.3,-56.9,14.300000000000002,16
389,6560.0,1.3,-3.3000000000000003,-2.8000000000000003,4.800000000000001,2.5,3.1,-50.2,-70.0,23.400000000000002,16
390,6570.0,1.3,-3.3000000000000003,-2.8000000000000003,4.800000000000001,2.5,3.1,-41.50000000000001,-67.8,22.1,16
391,6590.0,-0.5,-2.8000000000000003,-5.2,3.2,3.0,1.2000000000000002,-19.400000000000002,-75.60000000000001,19.5,16
392,6603.0,-1.6,-2.7,-6.0,2.6,3.1,0.8,-15.399999999999999,-97.89999999999999,25.1,16
393,6622.0,-2.3000000000000003,-3.0,-5.5,2.2,2.6,1.2000000000000002,-23.5,-128.0,36.6,16
394,6636.0,-2.5,-3.0,-5.4,2.3000000000000003,2.6,1.5,-35.699999999999996,-144.8,47.80000000000001,16
395,6660.0,-1.1,-2.6,-3.0,4.0,2.8000000000000003,3.4000000000000004,-64.9,-155.60000000000002,70.5,16
396,6670.0,-0.5,-2.2,-1.6,5.300000000000001,2.8000000000000003,4.800000000000001,-78.9,-132.0,70.2,16
397,6686.0,-0.4,-2.2,-1.3,5.300000000000001,2.8000000000000003,4.800000000000001,-77.4,-119.60000000000002,61.599999999999994,16
398,6703.0,-1.3,-1.7000000000000002,-1.6,4.800000000000001,3.0,4.5,-67.00000000000001,-106.1,43.2,16
399,6720.0,-1.3,-1.2000000000000002,-1.7000000000000002,5.0,3.3000000000000003,4.3,-63.0,-107.00000000000001,38.7,16
400,6736.0,-1.5,-0.6000000000000001,-2.2,5.0,3.8000000000000003,3.7,-67.60000000000001,-111.9,48.50000000000001,16
401,6756.0,-0.7000000000000001,-0.30000000000000004,-1.0,6.2,3.7,4.7,-108.8,-111.70000000000002,76.0,16
402,6771.0,0.8,-1.7000000000000002,1.0,7.800000000000001,2.2,6.6000000000000005,-136.1,-104.4,77.1,16
403,6789.0,0.1,-1.7000000000000002,3.1,7.4,1.7000000000000002,8.700000000000001,-157.1,-54.800000000000004,62.800000000000004,16
404,6804.0,-0.8,-0.9,2.2,6.7,2.1,7.800000000000001,-112.1,-40.1,44.8,16
405,6821.0,-0.9,0.8,0.9,6.7,3.4000000000000004,6.5,-40.300000000000004,-78.60000000000001,48.400000000000006,16
406,6838.0,-1.0,0.9,1.0,7.0,3.6,6.300000000000001,-15.299999999999999,-101.50000000000001,56.7,16
407,6858.0,0.7000000000000001,-0.1,1.1,8.700000000000001,2.3000000000000003,6.300000000000001,-12.4,-122.60000000000001,63.2,16
408,6869.0,1.6,-0.5,2.0,9.600000000000001,1.8,7.1000000000000005,-25.200000000000003,-117.30000000000001,62.900000000000006,16
409,6886.0,2.2,-0.4,3.0,10.5,1.7000000000000002,7.800000000000001,-43.70000000000001,-83.70000000000002,61.7,16
410,6904.0,4.5,1.8,3.9000000000000004,13.0,3.6,8.5,-36.8,-46.0,72.80000000000001,16
411,6920.0,6.4,2.4000000000000004,3.5,14.9,3.9000000000000004,8.0,-37.800000000000004,21.500000000000004,69.5,16
412,6936.0,7.300000000000001,2.1,3.1,15.9,3.5,7.6000000000000005,-55.7,54.0,52.80000000000001,16
413,6954.0,6.7,2.4000000000000004,3.1,15.200000000000001,3.6,7.9,-109.10000000000001,76.1,-2.4000000000000004,16
414,6970.0,5.9,2.2,4.5,14.100000000000001,3.0,10.200000000000001,-126.0,66.7,-29.300000000000004,16
415,6986.0,5.9,1.6,5.800000000000001,14.200000000000001,2.5,11.0,-115.9,56.9,-32.2,16
416,7004.0,6.0,1.7000000000000002,5.2,14.100000000000001,2.5,10.600000000000001,-71.10000000000001,52.80000000000001,-37.400000000000006,16
417,7020.0,5.9,1.8,4.800000000000001,14.0,2.6,10.200000000000001,-48.9,59.60000000000001,-40.9,16
418,7036.0,5.1000000000000005,1.7000000000000002,2.7,13.100000000000001,2.5,8.3,-26.9,77.3,-50.8,16
419,7053.0,3.7,1.6,1.3,11.5,2.5,7.2,-16.1,95.4,-65.7,16
420,7070.0,2.3000000000000003,1.3,0.7000000000000001,9.9,2.4000000000000004,6.800000000000001,-13.100000000000001,95.5,-81.60000000000001,16
421,7087.0,1.3,0.8,0.5,8.8,2.0,6.7,-10.700000000000001,102.2,-88.9,16
422,7103.0,-0.4,-0.1,-0.4,6.800000000000001,1.3,6.2,-10.5,152.70000000000002,-98.39999999999999,16
423,7121.0,-0.7000000000000001,-0.1,-0.5,6.2,1.4000000000000001,6.2,-12.0,187.10000000000002,-100.4,16
424,7136.0,-1.6,0.30000000000000004,0.8,4.800000000000001,2.0,8.0,-18.200000000000003,228.90000000000003,-103.00000000000001,16
425,7153.0,-1.5,1.0,1.8,4.2,2.9000000000000004,9.5,-48.300000000000004,181.8,-89.6,16
426,7170.0,-1.3,1.1,1.7000000000000002,4.0,3.0,9.700000000000001,-50.400000000000006,138.8,-62.900000000000006,16
427,7186.0,-1.0,0.7000000000000001,1.4000000000000001,4.0,2.6,9.600000000000001,-40.2,133.9,-50.400000000000006,16
428,7203.0,-0.8,-0.4,-0.30000000000000004,3.8000000000000003,1.4000000000000001,8.200000000000001,-28.500000000000004,144.10000000000002,-40.800000000000004,16
429,7220.0,-0.8,-0.2,-0.8,3.6,1.7000000000000002,7.800000000000001,-30.4,156.70000000000002,-41.1,16
430,7237.0,-1.5,0.8,-1.7000000000000002,2.4000000000000004,2.6,7.2,-43.2,163.7,-46.9,16
431,7256.0,-1.4000000000000001,1.1,-2.0,1.8,2.8000000000000003,7.2,-64.7,149.9,-58.5,16
432,7271.0,-1.3,0.4,-1.9000000000000001,1.3,1.6,7.300000000000001,-79.1,138.20000000000002,-72.80000000000001,16
433,7286.0,-1.6,-0.4,-2.1,1.0,1.1,7.2,-83.4,133.0,-75.3,16
434,7307.0,-1.4000000000000001,-0.7000000000000001,-1.1,0.7000000000000001,0.6000000000000001,8.4,-88.3,110.5,-67.60000000000001,16
435,7330.0,-0.6000000000000001,-1.1,-0.4,1.2000000000000002,-0.30000000000000004,9.3,-75.5,77.3,-59.20000000000001,16
436,7336.0,-0.4,-1.2000000000000002,-0.4,1.2000000000000002,-0.30000000000000004,9.3,-59.80000000000001,75.4,-56.300000000000004,16
437,7355.0,-0.7000000000000001,-0.8,-0.8,0.7000000000000001,0.0,8.9,-14.100000000000001,90.6,-43.50000000000001,16
438,7371.0,-0.6000000000000001,-0.4,-1.4000000000000001,0.4,0.4,8.3,30.4,93.49999999999999,-31.2,16
439,7386.0,-0.7000000000000001,-0.2,-1.9000000000000001,0.2,0.7000000000000001,7.9,45.9,80.4,-28.1,16
440,7403.0,-0.6000000000000001,-0.5,-1.7000000000000002,0.0,0.6000000000000001,8.1,59.60000000000001,22.9,-28.3,16
441,7420.0,-0.6000000000000001,-0.7000000000000001,-1.2000000000000002,0.0,0.4,8.5,60.7,-13.5,-29.300000000000004,16
442,7436.0,0.0,-1.2000000000000002,0.5,0.7000000000000001,0.1,10.100000000000001,59.9,-47.0,-32.300000000000004,16
443,7456.0,1.0,-1.5,1.4000000000000001,1.8,0.0,11.100000000000001,55.8,-15.5,-26.799999999999997,16
444,7474.0,0.6000000000000001,-1.1,1.4000000000000001,1.3,0.6000000000000001,11.0,44.10000000000001,34.0,-6.500000000000001,16
445,7490.0,0.1,-0.5,0.6000000000000001,0.6000000000000001,1.5,10.0,27.6,49.300000000000004,6.300000000000001,16
446,7503.0,0.0,-0.30000000000000004,0.4,0.6000000000000001,1.5,10.0,27.6,49.300000000000004,6.300000000000001,16
447,7523.0,0.2,0.6000000000000001,1.0,0.7000000000000001,2.5,10.600000000000001,-17.6,-3.8,2.9,16
448,7544.0,0.5,-0.8,2.2,0.9,1.0,11.8,-31.3,-30.5,-13.700000000000001,16
449,7560.0,0.4,-0.7000000000000001,2.2,1.0,0.5,12.0,-31.799999999999997,-35.1,-18.8,16
450,7570.0,0.4,-1.7000000000000002,2.0,1.0,0.0,11.600000000000001,-25.5,-34.50000000000001,-13.5,16
451,7586.0,0.30000000000000004,-1.7000000000000002,0.8,1.0,-0.1,10.4,1.2000000000000002,-26.5,20.7,16
452,7603.0,1.3,-1.0,-0.2,2.1,0.7000000000000001,9.4,35.8,-32.0,60.1,16
453,7620.0,1.3,-1.0,-0.2,2.6,0.9,9.200000000000001,51.9,-41.900000000000006,72.0,16
454,7637.0,2.8000000000000003,-0.5,-1.0,4.2,1.5,8.3,72.2,-62.4,76.1,16
455,7658.0,3.5,-0.1,-2.0,4.800000000000001,2.0,7.5,74.60000000000001,-63.70000000000001,59.20000000000001,16
456,7671.0,3.2,-0.1,-2.3000000000000003,4.4,2.2,7.0,59.20000000000001,-45.6,30.699999999999996,16
457,7686.0,2.2,-0.4,-2.8000000000000003,3.9000000000000004,2.0,6.6000000000000005,44.9,-32.300000000000004,14.400000000000002,16
458,7704.0,1.1,-0.7000000000000001,-3.2,2.8000000000000003,1.8,6.1000000000000005,7.300000000000001,4.0,-13.900000000000002,16
459,7725.0,0.0,-0.9,-3.0,1.7000000000000002,1.5,6.300000000000001,-25.5,31.099999999999998,-29.700000000000006,16
460,7739.0,-0.2,-1.0,-2.9000000000000004,1.5,1.5,6.4,-35.1,35.1,-33.800000000000004,16
461,7753.0,-0.5,-1.1,-2.7,0.9,1.3,6.800000000000001,-37.7,24.400000000000002,-32.400000000000006,16
462,7770.0,-0.8,-0.9,-2.5,0.7000000000000001,1.5,7.0,-24.599999999999998,-0.8,-22.000000000000004,16
463,7788.0,-0.5,-0.5,-2.3000000000000003,0.9,1.7000000000000002,7.2,-16.0,-12.200000000000001,-18.200000000000003,16
464,7803.0,-0.2,-0.2,-2.3000000000000003,1.3,2.0,7.1000000000000005,-4.7,-26.9,-17.300000000000004,16
465,7821.0,-0.1,-0.1,-2.4000000000000004,1.4000000000000001,2.1,7.0,-4.6,-29.0,-18.200000000000003,16
466,7836.0,-0.2,0.1,-2.2,1.4000000000000001,2.3000000000000003,7.2,-14.0,-24.200000000000003,-20.3,16
467,7853.0,-0.4,0.2,-1.6,1.3,2.3000000000000003,7.9,-23.900000000000006,-15.299999999999999,-21.400000000000002,16
468,7870.0,-0.5,0.4,-1.2000000000000002,1.1,2.6,8.3,-25.1,-8.700000000000001,-20.599999999999998,16
469,7886.0,-0.7000000000000001,0.7000000000000001,-1.0,1.0,2.8000000000000003,8.4,-23.900000000000006,-0.7,-15.399999999999999,16
470,7903.0,-0.8,1.2000000000000002,-0.8,0.8,3.1,8.700000000000001,-23.2,5.0,-11.6,16
471,7920.0,-0.8,1.3,-0.7000000000000001,0.8,3.2,8.8,-23.6,9.2,-10.4,16
472,7936.0,-0.9,1.5,-0.6000000000000001,0.7000000000000001,3.4000000000000004,9.1,-26.200000000000003,11.3,-7.9,16
473,7955.0,-0.9,1.7000000000000002,0.1,0.8,3.4000000000000004,10.0,-29.700000000000006,0.8,-4.5,16
474,7971.0,-0.2,1.5,2.1,1.3,3.2,11.600000000000001,-31.400000000000002,-19.700000000000003,1.0,16
475,7989.0,0.1,1.3,3.0,1.7000000000000002,2.9000000000000004,12.5,-28.400000000000002,-27.6,3.4,16
476,8004.0,0.4,1.3,3.6,2.1,2.8000000000000003,13.200000000000001,-16.700000000000003,-33.50000000000001,8.3,16
477,8020.0,0.5,1.2000000000000002,3.7,2.3000000000000003,2.7,13.200000000000001,-8.700000000000001,-30.200000000000003,10.700000000000001,16
478,8037.0,0.5,1.5,2.8000000000000003,2.4000000000000004,3.0,12.3,10.8,-6.699999999999999,14.300000000000002,16
479,8054.0,0.2,2.4000000000000004,1.7000000000000002,2.1,3.9000000000000004,11.200000000000001,12.200000000000001,10.299999999999999,14.700000000000001,16
480,8071.0,0.30000000000000004,2.1,2.0,2.2,3.7,11.600000000000001,-9.899999999999999,11.900000000000002,4.2,16
481,8086.0,0.4,1.2000000000000002,2.9000000000000004,2.2,2.7,12.4,-19.0,11.5,-2.0,16
482,8103.0,0.30000000000000004,1.0,3.1,2.1,2.4000000000000004,12.600000000000001,-21.1,12.8,-5.7,16
483,8120.0,-0.1,-0.5,2.5,1.6,0.9,12.0,-0.7,19.700000000000003,2.7,16
484,8136.0,-0.1,-0.5,2.5,1.7000000000000002,0.8,11.600000000000001,9.3,19.200000000000003,10.8,16
485,8153.0,0.6000000000000001,-0.4,1.0,2.2,1.1,10.600000000000001,22.8,10.8,24.7,16
486,8170.0,0.6000000000000001,-0.4,1.0,2.7,1.1,10.200000000000001,21.900000000000002,-6.0,23.2,16
487,8186.0,1.2000000000000002,-0.5,0.4,2.9000000000000004,1.0,9.9,20.5,-10.600000000000001,19.1,16
488,8208.0,1.1,-0.7000000000000001,-0.2,2.8000000000000003,0.9,9.3,17.200000000000003,-9.4,11.5,16
489,8220.0,1.0,-0.7000000000000001,-0.30000000000000004,2.7,0.9,9.200000000000001,14.100000000000001,-5.9,8.0,16
490,8236.0,0.8,-0.6000000000000001,-0.9,2.6,1.1,8.700000000000001,4.300000000000001,1.4,2.4000000000000004,16
491,8262.0,0.8,-0.8,-0.8,2.4000000000000004,0.8,8.9,-11.000000000000002,8.600000000000001,-5.2,16
492,8272.0,0.6000000000000001,-0.9,-0.6000000000000001,2.3000000000000003,0.7000000000000001,8.9,-9.8,11.000000000000002,-4.800000000000001,16
493,8288.0,0.4,-0.9,-0.7000000000000001,2.1,0.7000000000000001,8.8,-5.6,12.7,-3.2,16
494,8303.0,0.1,-0.7000000000000001,-1.3,1.8,0.9,8.3,8.100000000000001,12.600000000000001,2.7,16
495,8320.0,0.2,-0.7000000000000001,-1.5,1.8,0.9,8.0,15.700000000000001,10.1,6.600000000000001,16
496,8336.0,0.5,-0.5,-2.2,2.1,1.2000000000000002,7.300000000000001,23.900000000000006,-1.6,12.8,16
497,8353.0,1.0,-0.30000000000000004,-2.2,2.7,1.4000000000000001,7.300000000000001,23.3,-16.6,11.8,16
498,8370.0,1.3,-0.30000000000000004,-2.1,3.1,1.5,7.5,22.1,-20.900000000000002,8.600000000000001,16
499,8386.0,1.4000000000000001,-0.30000000000000004,-1.9000000000000001,3.1,1.5,7.6000000000000005,20.0,-18.3,1.0,16
500,8403.0,1.1,-0.5,-1.5,3.0,1.3,7.9,17.799999999999997,-8.600000000000001,-7.200000000000001,16
501,8420.0,1.1,-0.6000000000000001,-1.5,2.9000000000000004,1.3,8.0,18.0,-5.7,-8.600000000000001,16
502,8443.0,0.9,-0.6000000000000001,-2.2,2.7,1.5,7.2,21.300000000000004,3.8,-13.3,16
503,8453.0,0.8,-0.6000000000000001,-2.3000000000000003,2.7,1.5,7.1000000000000005,20.3,4.0,-15.100000000000001,16
504,8470.0,0.9,-0.4,-2.5,2.7,1.7000000000000002,6.9,17.5,3.2,-17.5,16
505,8486.0,1.0,-0.4,-2.4000000000000004,2.8000000000000003,1.8,7.0,6.4,-2.4000000000000004,-25.4,16
506,8503.0,1.1,-0.6000000000000001,-1.7000000000000002,2.9000000000000004,1.6,7.7,-9.899999999999999,-10.4,-35.1,16
507,8520.0,1.2000000000000002,-0.7000000000000001,-1.2000000000000002,3.0,1.5,8.200000000000001,-19.1,-14.800000000000002,-39.2,16
508,8537.0,1.2000000000000002,-0.6000000000000001,0.4,3.0,1.5,9.8,-35.8,-18.5,-48.300000000000004,16
509,8554.0,1.1,-0.6000000000000001,1.1,2.8000000000000003,1.3,10.8,-49.6,-5.500000000000001,-57.800000000000004,16
510,8570.0,0.7000000000000001,-0.7000000000000001,1.7000000000000002,2.2,1.2000000000000002,11.3,-63.70000000000001,8.0,-63.500000000000014,16
511,8590.0,-0.1,-0.5,2.3000000000000003,1.6,1.2000000000000002,11.8,-72.7,4.4,-63.10000000000001,16
512,8603.0,-0.1,-0.4,2.6,1.6,1.2000000000000002,12.100000000000001,-72.0,-1.5,-58.900000000000006,16
513,8619.0,0.0,-0.30000000000000004,2.8000000000000003,1.7000000000000002,1.2000000000000002,12.3,-68.60000000000001,-8.4,-53.300000000000004,16
514,8637.0,0.5,-0.1,3.0,2.2,1.2000000000000002,12.600000000000001,-62.1,-17.9,-45.7,16
515,8654.0,1.1,-0.30000000000000004,3.7,2.9000000000000004,0.8,13.3,-61.199999999999996,-22.000000000000004,-43.2,16
516,8673.0,1.7000000000000002,-1.0,4.4,3.5,-0.1,14.0,-55.60000000000001,-18.8,-41.4,16
517,8686.0,2.0,-1.4000000000000001,4.5,3.8000000000000003,-0.5,14.100000000000001,-46.199999999999996,-16.3,-38.0,16
518,8703.0,2.0,-1.4000000000000001,4.3,4.3,-0.9,12.9,-14.100000000000001,-13.100000000000001,-27.3,16
519,8721.0,2.6,-1.6,2.8000000000000003,4.5,-0.9,12.4,4.4,-11.8,-21.500000000000004,16
520,8740.0,3.3000000000000003,-0.9,-0.5,5.2,0.0,9.1,35.2,-18.0,-20.599999999999998,16
521,8753.0,3.2,-1.0,-0.4,5.300000000000001,0.1,8.6,32.6,-21.200000000000003,-28.0,16
522,8770.0,3.2,-0.8,-1.9000000000000001,5.2,0.30000000000000004,7.7,12.299999999999999,-18.3,-50.400000000000006,16
523,8786.0,2.8000000000000003,-0.9,-2.1,4.800000000000001,0.2,7.4,-1.3,-10.9,-62.0,16
524,8803.0,2.4000000000000004,-1.0,-2.1,3.7,-0.1,7.4,-22.5,10.600000000000001,-77.9,16
525,8821.0,1.4000000000000001,-1.2000000000000002,-2.2,3.4000000000000004,-0.1,7.300000000000001,-26.1,20.599999999999998,-80.8,16
526,8841.0,0.30000000000000004,-0.9,-3.3000000000000003,2.2,0.2,6.300000000000001,-13.700000000000001,26.6,-74.30000000000001,16
527,8853.0,0.1,-0.6000000000000001,-3.6,1.9000000000000001,0.5,5.9,-10.8,23.400000000000002,-72.0,16
528,8872.0,0.1,0.0,-4.1000000000000005,1.8,1.0,5.4,-5.0,1.3,-65.7,16
529,8887.0,0.2,0.2,-4.1000000000000005,1.9000000000000001,1.2000000000000002,5.5,-8.600000000000001,-15.8,-66.4,16
530,8903.0,0.1,0.4,-3.4000000000000004,1.8,1.5,6.2,-16.900000000000002,-26.000000000000004,-69.4,16
531,8920.0,0.0,0.4,-3.1,1.8,1.5,6.5,-23.400000000000002,-28.1,-70.8,16
532,8941.0,0.0,0.30000000000000004,-2.1,1.8,1.4000000000000001,7.5,-33.0,-22.700000000000003,-71.10000000000001,16
533,8954.0,-0.1,0.7000000000000001,-1.4000000000000001,1.8,1.7000000000000002,8.200000000000001,-36.0,-15.6,-67.5,16
534,8971.0,0.0,1.0,-1.0,1.9000000000000001,1.9000000000000001,8.6,-38.60000000000001,-9.0,-66.7,16
535,8988.0,0.0,1.2000000000000002,-0.6000000000000001,1.9000000000000001,2.1,9.0,-40.4,-4.300000000000001,-68.60000000000001,16
536,9005.0,-0.7000000000000001,1.4000000000000001,0.0,1.2000000000000002,2.1,9.600000000000001,-41.300000000000004,6.500000000000001,-72.2,16
537,9023.0,-1.4000000000000001,1.5,0.30000000000000004,0.5,2.2,9.9,-37.800000000000004,18.200000000000003,-67.60000000000001,16
538,9046.0,-1.5,1.8,0.7000000000000001,0.30000000000000004,2.4000000000000004,10.3,-32.6,20.900000000000002,-53.10000000000001,16
539,9053.0,-1.3,1.9000000000000001,0.9,0.4,2.5,10.5,-28.600000000000005,14.800000000000002,-44.10000000000001,16
540,9072.0,-0.6000000000000001,2.1,1.7000000000000002,1.1,2.6,11.4,-17.1,-4.0,-28.400000000000002,16
541,9088.0,-0.2,2.2,2.1,1.5,2.7,11.8,-10.200000000000001,-12.5,-23.2,16
542,9103.0,0.5,2.5,2.4000000000000004,2.2,3.0,12.100000000000001,2.4000000000000004,-18.200000000000003,-18.3,16
543,9120.0,0.7000000000000001,2.6,2.4000000000000004,2.4000000000000004,3.1,12.0,7.200000000000001,-14.700000000000001,-18.700000000000003,16
544,9141.0,0.9,2.9000000000000004,1.7000000000000002,2.7,3.5,11.3,7.699999999999999,-1.1,-25.7,16
545,9153.0,0.8,3.2,1.6,2.6,3.7,11.4,-16.700000000000003,6.2,-38.50000000000001,16
546,9169.0,0.7000000000000001,2.4000000000000004,3.1,2.5,3.0,12.700000000000001,-35.0,5.500000000000001,-46.300000000000004,16
547,9187.0,0.6000000000000001,0.6000000000000001,5.6000000000000005,2.3000000000000003,1.1,15.200000000000001,-57.60000000000001,-0.4,-59.699999999999996,16
548,9203.0,0.30000000000000004,-0.7000000000000001,6.5,2.1,-0.4,16.2,-45.9,-2.7,-57.400000000000006,16
549,9220.0,0.2,-1.2000000000000002,6.4,1.9000000000000001,-1.4000000000000001,15.3,-5.4,9.2,-33.400000000000006,16
550,9240.0,0.2,-1.6,5.0,1.9000000000000001,-1.4000000000000001,14.700000000000001,15.700000000000001,15.399999999999999,-18.6,16
551,9253.0,0.5,-1.5,3.7,2.4000000000000004,-1.0,12.5,48.0,17.0,4.6,16
552,9270.0,1.1,-1.0,1.3,2.7,-0.6000000000000001,10.9,57.60000000000001,15.5,11.6,16
553,9289.0,1.5,-0.8,-0.5,3.1,-0.2,9.200000000000001,65.10000000000001,8.100000000000001,17.7,16
554,9304.0,1.7000000000000002,-0.5,-1.6,3.3000000000000003,0.2,8.0,60.400000000000006,2.3,14.0,16
555,9321.0,1.7000000000000002,-0.6000000000000001,-1.8,3.3000000000000003,0.30000000000000004,7.800000000000001,45.6,-5.4,2.6,16
556,9342.0,1.2000000000000002,-0.7000000000000001,-2.1,2.8000000000000003,0.4,7.5,25.1,-0.1,-12.100000000000001,16
557,9356.0,0.8,-0.8,-2.1,2.4000000000000004,0.30000000000000004,7.5,20.599999999999998,3.1,-15.100000000000001,16
558,9370.0,0.30000000000000004,-0.9,-2.0,2.0,0.2,7.6000000000000005,13.5,10.4,-18.900000000000002,16
559,9386.0,-0.2,-0.9,-2.3000000000000003,1.3,0.30000000000000004,7.300000000000001,9.2,21.400000000000002,-18.700000000000003,16
560,9410.0,-0.4,-0.8,-2.6,1.0,0.5,7.0,13.6,8.100000000000001,-10.8,16
561,9420.0,-0.4,-0.8,-2.6,1.0,0.5,7.0,13.6,8.100000000000001,-10.8,16
562,9440.0,-0.1,-0.7000000000000001,-2.4000000000000004,1.3,0.6000000000000001,7.2,17.799999999999997,-10.700000000000001,-3.9,16
563,9453.0,0.1,-0.6000000000000001,-2.5,1.5,0.8,7.1000000000000005,24.7,-17.0,-0.5,16
564,9470.0,0.2,-0.6000000000000001,-2.9000000000000004,1.7000000000000002,0.9,6.6000000000000005,27.3,-13.8,-1.0,16
565,9486.0,0.2,-0.4,-3.1,1.7000000000000002,1.1,6.4,25.4,-12.0,-2.0,16
566,9503.0,0.2,-0.2,-2.7,1.8,1.4000000000000001,6.800000000000001,15.8,-11.8,-5.300000000000001,16
567,9522.0,0.2,-0.1,-2.5,1.8,1.5,7.0,10.700000000000001,-12.0,-7.500000000000001,16
568,9541.0,0.2,0.1,-2.0,1.9000000000000001,1.8,7.6000000000000005,3.2,-8.3,-14.900000000000002,16
569,9553.0,-0.1,0.2,-1.8,1.5,1.9000000000000001,7.7,-2.5,0.4,-24.5,16
570,9570.0,-0.4,0.2,-1.7000000000000002,1.2000000000000002,1.9000000000000001,7.800000000000001,-5.6,3.8,-27.700000000000003,16
571,9588.0,-0.7000000000000001,0.2,-1.4000000000000001,0.9,1.9000000000000001,8.200000000000001,-10.1,4.6,-27.700000000000003,16
572,9603.0,-0.4,0.5,-0.9,1.1,2.2,8.6,-14.5,-5.2,-27.5,16
573,9621.0,-0.1,0.6000000000000001,-0.1,1.5,2.3000000000000003,9.5,-22.1,-21.400000000000002,-31.400000000000002,16
574,9636.0,0.0,0.6000000000000001,0.4,1.6,2.2,9.9,-27.6,-28.800000000000004,-33.300000000000004,16
575,9655.0,0.1,0.6000000000000001,1.4000000000000001,1.9000000000000001,2.1,11.4,-38.300000000000004,-34.60000000000001,-35.699999999999996,16
576,9669.0,0.2,0.5,2.7,2.0,1.9000000000000001,12.5,-43.4,-23.5,-35.0,16
577,9686.0,0.30000000000000004,0.6000000000000001,3.3000000000000003,2.1,1.9000000000000001,12.8,-43.1,-14.300000000000002,-33.400000000000006,16
578,9703.0,0.5,0.9,3.4000000000000004,2.4000000000000004,2.2,13.0,-38.800000000000004,-10.200000000000001,-28.3,16
579,9723.0,1.2000000000000002,0.9,4.4,3.1,2.0,13.9,-37.1,-30.699999999999996,-29.1,16
580,9737.0,1.4000000000000001,0.6000000000000001,4.800000000000001,3.3000000000000003,1.7000000000000002,14.4,-34.400000000000006,-36.9,-31.400000000000002,16
581,9753.0,1.9000000000000001,-0.1,5.0,3.9000000000000004,0.9,14.600000000000001,-22.4,-32.0,-33.6,16
582,9773.0,1.5,-0.4,3.9000000000000004,3.6,0.6000000000000001,13.4,-4.9,-13.100000000000001,-33.6,16
583,9792.0,1.3,-1.0,2.5,3.5,0.0,12.100000000000001,0.8,3.0,-29.0,16
584,9804.0,1.3,-1.3,2.0,3.4000000000000004,-0.30000000000000004,11.5,1.4,6.4,-25.200000000000003,16
585,9820.0,1.3,-1.4000000000000001,1.7000000000000002,3.6,-0.5,10.8,2.6,5.500000000000001,-20.3,16
586,9842.0,1.7000000000000002,-1.5,0.9,3.7,-0.4,10.4,21.900000000000002,-11.1,-2.3,16
587,9853.0,1.8,-0.9,-0.4,3.9000000000000004,0.2,9.1,29.500000000000004,-14.800000000000002,0.5,16
588,9871.0,1.5,-0.1,-1.8,3.7,1.1,7.7,33.1,-14.300000000000002,-3.5,16
589,9886.0,0.9,0.30000000000000004,-2.5,3.1,1.6,7.0,27.0,-10.700000000000001,-10.200000000000001,16
590,9903.0,0.6000000000000001,0.4,-2.6,2.8000000000000003,1.7000000000000002,6.800000000000001,16.8,-5.2,-19.1,16
591,9920.0,-0.7000000000000001,0.5,-2.7,1.0,1.6,6.800000000000001,-6.4,6.300000000000001,-35.2,16
592,9940.0,-1.6,0.1,-2.5,0.1,1.4000000000000001,7.1000000000000005,-16.6,18.5,-37.0,16
593,9953.0,-2.1,0.1,-2.4000000000000004,0.1,1.4000000000000001,7.1000000000000005,-16.6,18.5,-37.0,16
594,9970.0,-2.3000000000000003,0.4,-2.6,-0.30000000000000004,1.7000000000000002,6.9,5.1000000000000005,-0.1,-16.0,16
595,9986.0,-2.1,0.7000000000000001,-2.6,0.0,2.0,6.9,12.600000000000001,-11.8,-9.2,16
596,10003.0,-1.4000000000000001,0.9,-2.4000000000000004,0.7000000000000001,2.3000000000000003,7.1000000000000005,20.1,-29.600000000000005,-2.8,16
597,10021.0,-1.5,0.9,-2.4000000000000004,0.8,2.4000000000000004,7.1000000000000005,20.400000000000002,-30.5,-3.4,16
598,10040.0,-1.2000000000000002,0.9,-2.2,1.0,2.3000000000000003,7.4,10.700000000000001,-12.8,-7.500000000000001,16
599,10054.0,-1.2000000000000002,0.7000000000000001,-1.9000000000000001,1.1,2.2,7.5,8.0,-5.1000000000000005,-8.0,16
600,10072.0,-1.3,0.8,-1.7000000000000002,0.9,2.3000000000000003,7.800000000000001,9.2,2.6,-7.300000000000001,16
601,10086.0,-1.3,0.8,-1.7000000000000002,0.9,2.4000000000000004,7.7,11.4,2.6,-6.0,16
602,10105.0,-1.5,1.1,-1.7000000000000002,0.7000000000000001,2.7,7.7,10.5,2.8,-4.4,16
603,10126.0,-1.8,1.1,-1.2000000000000002,0.5,2.8000000000000003,8.200000000000001,1.7,6.8,-4.4,16
604,10136.0,-1.8,1.1,-1.0,0.4,2.8000000000000003,8.4,-3.8,9.100000000000001,-4.0,16
605,10155.0,-1.9000000000000001,1.0,0.1,0.30000000000000004,2.6,9.5,-12.0,10.1,0.1,16
606,10170.0,-1.8,0.8,0.7000000000000001,0.4,2.5,10.100000000000001,-13.700000000000001,6.8,4.4,16
607,10186.0,-1.4000000000000001,0.9,2.1,0.8,2.5,11.600000000000001,-12.299999999999999,-9.0,15.100000000000001,16
608,10203.0,-0.6000000000000001,1.0,3.8000000000000003,1.6,2.5,13.200000000000001,-8.4,-25.300000000000004,21.500000000000004,16
609,10220.0,-0.30000000000000004,0.9,4.5,2.0,2.4000000000000004,13.9,-6.8,-25.8,22.000000000000004,16
610,10236.0,0.2,0.6000000000000001,4.7,2.6,2.1,14.100000000000001,7.0,-2.5,25.1,16
611,10255.0,-0.30000000000000004,1.3,3.3000000000000003,1.9000000000000001,3.0,12.200000000000001,17.400000000000002,32.5,33.2,16
612,10270.0,-0.6000000000000001,1.9000000000000001,2.5,1.7000000000000002,3.4000000000000004,11.9,1.6,34.1,34.800000000000004,16
613,10287.0,-0.6000000000000001,1.2000000000000002,3.2,1.6,2.7,12.600000000000001,-8.700000000000001,25.0,32.6,16
614,10303.0,-0.5,0.0,4.9,1.6,1.4000000000000001,14.4,-15.299999999999999,1.4,29.900000000000006,16
615,10322.0,-0.5,-1.2000000000000002,5.0,1.6,0.2,14.5,3.5,-6.0,38.900000000000006,16
616,10336.0,-0.7000000000000001,-1.2000000000000002,4.7,1.5,0.2,14.200000000000001,17.0,-2.0,45.9,16
617,10353.0,-0.9,-0.9,3.0,1.3,0.5,12.5,36.6,5.4,60.2,16
618,10376.0,-0.9,-0.5,2.0,1.3,1.0,11.200000000000001,39.400000000000006,4.0,63.500000000000014,16
619,10391.0,-0.9,-0.7000000000000001,1.1,1.3,0.9,10.5,34.50000000000001,5.9,58.60000000000001,16
620,10403.0,-0.8,-1.1,0.8,1.5,0.5,10.200000000000001,33.0,11.900000000000002,56.2,16
621,10420.0,-0.8,-1.3,0.4,1.5,0.30000000000000004,9.8,34.2,19.9,55.60000000000001,16
622,10436.0,-0.9,-1.4000000000000001,-0.9,1.3,0.30000000000000004,8.5,43.1,36.2,60.5,16
623,10454.0,-1.0,-1.2000000000000002,-2.4000000000000004,1.0,0.6000000000000001,7.0,52.1,46.0,64.80000000000001,16
624,10476.0,-1.4000000000000001,-1.0,-3.7,0.6000000000000001,0.9,5.7,50.1,50.2,64.2,16
625,10486.0,-1.8,-0.8,-4.2,0.1,1.2000000000000002,5.2,45.3,48.300000000000004,63.2,16
626,10503.0,-1.9000000000000001,-0.7000000000000001,-4.3,-0.30000000000000004,1.4000000000000001,5.300000000000001,38.800000000000004,43.00000000000001,62.199999999999996,16
627,10520.0,-2.2,-0.8,-3.9000000000000004,-0.4,1.4000000000000001,5.5,24.3,29.800000000000004,62.900000000000006,16
628,10537.0,-2.0,-1.0,-2.7,-0.30000000000000004,1.1,6.7,16.4,10.9,70.5,16
629,10564.0,-1.1,-1.1,-1.0,0.7000000000000001,1.1,8.4,26.5,-19.300000000000004,81.8,16
630,10572.0,-1.2000000000000002,-1.1,-1.0,0.9,1.1,8.6,30.9,-25.0,82.39999999999999,16
631,10586.0,-0.5,-1.0,-0.5,1.5,1.2000000000000002,8.9,33.300000000000004,-28.800000000000004,81.10000000000001,16
632,10606.0,0.1,-0.7000000000000001,-0.1,2.2,1.6,9.200000000000001,29.600000000000005,-30.699999999999996,72.2,16
633,10622.0,0.1,-0.6000000000000001,0.1,2.3000000000000003,1.6,9.4,22.5,-29.0,64.2,16
634,10636.0,0.30000000000000004,-0.8,1.0,2.6,1.5,10.3,2.1,-20.2,44.2,16
635,10653.0,0.2,-1.1,1.7000000000000002,2.5,0.8,11.3,-9.100000000000001,-5.8,32.300000000000004,16
636,10670.0,-0.2,-1.7000000000000002,2.1,2.3000000000000003,0.6000000000000001,11.4,-11.8,20.7,28.1,16
637,10692.0,-0.6000000000000001,-1.0,0.9,1.8,1.1,10.200000000000001,-12.8,25.8,31.099999999999998,16
638,10703.0,-0.2,-0.6000000000000001,0.8,2.1,1.5,10.100000000000001,-20.400000000000002,9.899999999999999,30.699999999999996,16
639,10721.0,0.0,-0.5,1.0,2.3000000000000003,1.5,10.3,-24.1,3.0,29.700000000000006,16
640,10736.0,0.6000000000000001,-0.5,1.8,3.0,1.3,11.4,-39.699999999999996,-15.700000000000001,22.3,16
641,10754.0,0.6000000000000001,-0.6000000000000001,2.7,3.0,1.1,12.0,-53.10000000000001,-10.600000000000001,13.5,16
642,10772.0,-0.2,-0.8,3.1,2.3000000000000003,0.8,12.5,-69.7,5.300000000000001,6.699999999999999,16
643,10788.0,-0.4,-1.0,3.5,2.0,0.4,12.8,-76.2,8.0,6.2,16
644,10803.0,-0.4,-1.5,4.2,2.0,-0.30000000000000004,13.600000000000001,-73.2,-3.6000000000000005,14.5,16
645,10820.0,-0.4,-1.5,4.2,2.0,-0.30000000000000004,13.600000000000001,-73.2,-3.6000000000000005,14.5,16
646,10836.0,0.9,-1.6,4.1000000000000005,3.4000000000000004,-0.7000000000000001,13.5,-33.800000000000004,-29.400000000000002,41.4,16
647,10853.0,1.6,-1.1,3.6,4.2,-0.4,13.0,-15.2,-28.1,46.50000000000001,16
648,10875.0,1.7000000000000002,-0.7000000000000001,2.6,4.4,0.0,12.0,-0.4,-11.5,45.6,16
649,10886.0,1.6,-0.4,1.7000000000000002,4.3,0.2,11.100000000000001,5.9,-3.0,43.6,16
650,10903.0,1.5,-0.2,0.1,4.2,0.4,9.5,17.799999999999997,6.699999999999999,36.7,16
651,10920.0,1.4000000000000001,-0.1,-0.5,4.1000000000000005,0.5,8.9,22.6,6.600000000000001,32.300000000000004,16
652,10936.0,1.1,0.2,-1.7000000000000002,3.8000000000000003,0.8,7.7,24.900000000000002,-3.0,20.1,16
653,10953.0,0.6000000000000001,0.2,-2.3000000000000003,3.4000000000000004,0.9,7.1000000000000005,16.900000000000002,-13.700000000000001,3.7000000000000006,16
654,10970.0,-0.1,-0.1,-2.1,2.7,0.7000000000000001,7.300000000000001,-1.0,-19.0,-12.0,16
655,10988.0,-0.4,-0.4,-1.6,2.4000000000000004,0.4,7.7,-10.1,-18.3,-16.4,16
656,11003.0,-0.8,-0.7000000000000001,-0.8,2.1,0.0,8.6,-18.900000000000002,-13.8,-17.9,16
657,11024.0,-1.2000000000000002,-0.8,-0.5,1.7000000000000002,-0.1,8.9,-12.200000000000001,-12.200000000000001,-12.8,16
658,11036.0,-1.2000000000000002,-0.8,-0.5,1.6,-0.1,8.8,-4.300000000000001,-13.100000000000001,-7.400000000000001,16
659,11057.0,-1.3,-0.5,-1.1,1.7000000000000002,0.2,8.200000000000001,11.8,-18.700000000000003,6.0,16
660,11069.0,-1.0,-0.1,-1.6,2.1,0.7000000000000001,7.5,16.8,-21.0,10.5,16
661,11086.0,-0.8,0.30000000000000004,-2.1,2.2,1.1,7.2,18.0,-18.0,11.1,16
662,11104.0,-1.0,0.4,-2.4000000000000004,2.2,1.2000000000000002,6.9,11.5,-8.8,5.7,16
663,11121.0,-1.4000000000000001,0.5,-2.5,1.7000000000000002,1.3,6.7,1.3,1.4,2.7,16
664,11136.0,-1.6,0.5,-2.5,1.6,1.3,6.800000000000001,-1.0,3.0,2.8,16
665,11156.0,-1.7000000000000002,0.7000000000000001,-2.1,1.5,1.5,7.1000000000000005,-7.8,2.9,3.6000000000000005,16
666,11171.0,-1.6,0.7000000000000001,-1.6,1.5,1.4000000000000001,7.7,-8.5,-6.600000000000001,6.0,16
667,11193.0,-1.3,0.6000000000000001,-1.0,1.9000000000000001,1.4000000000000001,8.200000000000001,-2.2,-19.1,9.899999999999999,16
668,11203.0,-1.0,0.7000000000000001,-0.8,2.2,1.4000000000000001,8.5,2.7,-23.900000000000006,11.900000000000002,16
669,11220.0,-0.8,0.8,-0.7000000000000001,2.5,1.5,8.5,13.6,-29.900000000000006,13.8,16
670,11236.0,-0.6000000000000001,0.9,-0.7000000000000001,2.7,1.6,8.5,18.0,-29.300000000000004,13.200000000000003,16
671,11253.0,-0.5,1.1,-1.1,2.9000000000000004,1.9000000000000001,8.1,20.400000000000002,-18.700000000000003,9.4,16
672,11270.0,-0.7000000000000001,1.2000000000000002,-1.4000000000000001,2.7,2.1,7.7,12.100000000000001,0.1,1.9,16
673,11286.0,-1.1,1.4000000000000001,-1.4000000000000001,2.4000000000000004,2.3000000000000003,7.800000000000001,5.9,7.8,-1.5,16
674,11303.0,-1.3,1.4000000000000001,-1.2000000000000002,2.2,2.3000000000000003,7.9,0.2,12.9,-4.800000000000001,16
675,11319.0,-1.8,1.4000000000000001,-0.2,1.7000000000000002,2.3000000000000003,8.9,-5.4,15.899999999999999,-9.0,16
676,11336.0,-2.1,1.4000000000000001,0.7000000000000001,1.3,2.2,9.8,1.4,15.8,-6.0,16
677,11353.0,-2.1,1.4000000000000001,0.9,1.3,2.3000000000000003,10.100000000000001,13.3,16.6,4.300000000000001,16
678,11375.0,-1.7000000000000002,1.7000000000000002,0.8,1.5,2.6,10.0,25.0,16.3,16.900000000000002,16
679,11388.0,-1.4000000000000001,2.0,0.6000000000000001,1.8,3.0,9.8,30.3,14.100000000000001,21.300000000000004,16
680,11403.0,-1.3,2.2,0.30000000000000004,1.9000000000000001,3.2,9.5,34.0,12.7,24.400000000000002,16
681,11421.0,-1.1,2.4000000000000004,-0.2,2.0,3.8000000000000003,8.8,30.000000000000004,17.200000000000003,27.400000000000002,16
682,11436.0,-1.6,3.3000000000000003,-0.7000000000000001,1.5,4.5,8.6,1.0,26.5,23.400000000000002,16
683,11456.0,-1.5,2.9000000000000004,1.8,1.6,4.1000000000000005,11.100000000000001,-48.800000000000004,0.8,7.699999999999999,16
684,11469.0,-1.1,0.30000000000000004,6.0,1.9000000000000001,1.3,15.3,-74.80000000000001,-35.699999999999996,-5.0,16
685,11486.0,-1.3,-1.3,8.0,1.8,-0.4,17.3,-65.0,-40.300000000000004,-0.30000000000000004,16
686,11503.0,-1.5,-2.6,7.7,1.7000000000000002,-1.9000000000000001,17.0,-12.9,-15.8,33.6,16
687,11519.0,-1.3,-2.5,6.9,2.0,-1.9000000000000001,16.2,19.300000000000004,0.6000000000000001,54.6,16
688,11536.0,-0.30000000000000004,-1.9000000000000001,3.8000000000000003,2.9000000000000004,-1.2000000000000002,13.0,71.7,18.6,88.60000000000001,16
689,11555.0,0.0,-1.2000000000000002,1.8,3.4000000000000004,-0.1,10.3,91.2,9.4,98.0,16
690,11575.0,0.8,-0.5,-0.30000000000000004,4.0,0.5,9.0,88.10000000000001,-4.4,92.90000000000002,16
691,11586.0,0.9,-0.4,-0.6000000000000001,4.1000000000000005,0.7000000000000001,8.6,74.10000000000001,-14.800000000000002,80.4,16
692,11604.0,0.7000000000000001,-0.6000000000000001,-0.4,4.0,0.6000000000000001,8.700000000000001,55.1,-16.200000000000003,65.0,16
693,11620.0,0.4,-0.8,-0.2,3.8000000000000003,0.5,8.9,31.9,-3.8,47.7,16
694,11641.0,-0.1,-1.4000000000000001,0.30000000000000004,3.3000000000000003,-0.1,9.4,24.7,4.2,43.00000000000001,16
695,11653.0,-0.30000000000000004,-1.6,0.30000000000000004,3.0,-0.30000000000000004,9.200000000000001,23.0,15.299999999999999,40.6,16
696,11669.0,-0.6000000000000001,-1.6,-0.2,2.8000000000000003,-0.30000000000000004,8.9,26.700000000000003,16.700000000000003,40.300000000000004,16
697,11689.0,-0.8,-1.5,-1.1,2.4000000000000004,-0.1,7.7,38.7,15.8,39.50000000000001,16
698,11706.0,-0.9,-1.4000000000000001,-2.0,2.4000000000000004,0.1,7.1000000000000005,47.2,12.8,39.300000000000004,16
699,11722.0,-1.0,-1.0,-2.7,2.3000000000000003,0.5,6.4,45.5,11.000000000000002,37.6,16
700,11736.0,-1.0,-0.9,-2.8000000000000003,2.3000000000000003,0.7000000000000001,6.300000000000001,40.7,10.9,35.0,16
701,11753.0,-1.3,-0.7000000000000001,-2.9000000000000004,2.0,1.0,6.2,26.000000000000004,11.900000000000002,25.1,16
702,11770.0,-1.5,-0.7000000000000001,-2.6,1.8,1.0,6.5,9.100000000000001,12.5,17.799999999999997,16
703,11786.0,-1.5,-0.8,-2.0,1.7000000000000002,1.0,7.1000000000000005,1.3,10.9,15.700000000000001,16
704,11803.0,-1.5,-0.8,-1.6,1.8,1.0,7.5,-3.9,5.8,14.700000000000001,16
705,11824.0,-0.8,-0.7000000000000001,-0.1,2.4000000000000004,1.0,9.0,7.0,-16.3,14.100000000000001,16
706,11836.0,-0.8,-0.5,-0.1,2.5,1.2000000000000002,9.0,15.8,-15.5,12.4,16
707,11853.0,-0.9,-0.2,-0.9,2.5,1.6,8.1,23.099999999999998,-2.6,6.8,16
708,11870.0,-1.1,0.1,-1.4000000000000001,2.2,1.9000000000000001,7.6000000000000005,18.3,5.7,2.9,16
709,11886.0,-1.5,0.2,-1.2000000000000002,1.8,2.1,7.800000000000001,-0.2,12.9,-4.800000000000001,16
710,11903.0,-1.6,0.1,-0.4,1.7000000000000002,1.9000000000000001,8.700000000000001,-11.5,9.5,-9.600000000000001,16
711,11921.0,-1.6,0.1,-0.2,1.6,1.9000000000000001,8.9,-12.200000000000001,5.2,-10.5,16
712,11937.0,-1.7000000000000002,0.1,0.1,1.5,1.9000000000000001,9.200000000000001,-12.9,-3.4,-8.100000000000001,16
713,11953.0,-1.4000000000000001,0.30000000000000004,1.0,1.9000000000000001,2.0,10.0,-17.0,-16.4,-2.8,16
714,11970.0,-0.6000000000000001,0.2,2.1,2.7,1.9000000000000001,11.200000000000001,-16.200000000000003,-26.799999999999997,1.1,16
715,11986.0,-0.2,-0.1,2.5,3.2,1.6,11.600000000000001,-12.600000000000001,-28.900000000000002,2.5,16
716,12003.0,0.4,0.0,2.6,3.8000000000000003,1.7000000000000002,11.600000000000001,-6.699999999999999,-28.500000000000004,3.3000000000000007,16
717,12019.0,0.6000000000000001,0.1,2.4000000000000004,4.0,1.7000000000000002,11.5,-7.500000000000001,-26.300000000000004,3.1,16
718,12037.0,0.9,0.2,2.0,4.4,1.8,11.0,-15.700000000000001,-18.200000000000003,-1.0,16
719,12053.0,0.6000000000000001,0.5,1.9000000000000001,4.1000000000000005,2.0,10.9,-37.7,-2.4000000000000004,-12.0,16
720,12070.0,0.1,0.0,2.4000000000000004,3.7,1.4000000000000001,11.5,-68.1,22.3,-25.900000000000002,16
721,12090.0,-0.6000000000000001,-1.1,2.9000000000000004,2.9000000000000004,0.1,12.0,-93.2,59.300000000000004,-34.60000000000001,16
722,12106.0,-1.1,-1.8,3.3000000000000003,2.3000000000000003,-0.8,12.5,-98.39999999999999,71.0,-30.9,16
723,12124.0,-1.2000000000000002,-2.3000000000000003,3.5,1.9000000000000001,-1.5,12.8,-80.2,65.8,-1.8000000000000003,16
724,12136.0,-0.9,-2.2,3.4000000000000004,2.1,-1.6,12.700000000000001,-57.400000000000006,49.4,22.1,16
725,12155.0,0.5,-1.4000000000000001,2.2,3.3000000000000003,-1.0,11.600000000000001,6.9,4.5,68.2,16
726,12169.0,1.4000000000000001,-0.30000000000000004,0.9,4.2,0.1,10.200000000000001,40.7,-16.4,81.8,16
727,12186.0,2.1,0.4,-0.8,5.0,0.9,8.5,82.8,-45.0,88.50000000000001,16
728,12204.0,2.2,1.1,-2.1,5.300000000000001,1.8,7.2,79.9,-52.1,74.80000000000001,16
729,12220.0,2.0,1.2000000000000002,-2.2,5.2,2.0,7.0,66.4,-49.800000000000004,63.0,16
730,12237.0,1.3,1.0,-2.0,4.7,1.9000000000000001,7.2,32.5,-33.800000000000004,38.300000000000004,16
731,12253.0,0.30000000000000004,0.6000000000000001,-1.6,3.8000000000000003,1.5,7.5,7.0,-2.8,21.8,16
732,12269.0,-0.6000000000000001,0.30000000000000004,-1.7000000000000002,2.9000000000000004,1.3,7.4,-0.30000000000000004,18.900000000000002,15.700000000000001,16
733,12286.0,-1.0,0.30000000000000004,-1.8,2.4000000000000004,1.2000000000000002,7.300000000000001,1.4,21.400000000000002,16.0,16
734,12303.0,-1.3,0.6000000000000001,-2.0,2.2,1.5,7.2,9.2,7.200000000000001,18.5,16
735,12320.0,-1.2000000000000002,0.6000000000000001,-2.0,2.2,1.5,7.1000000000000005,12.8,-4.4,18.900000000000002,16
736,12336.0,-1.0,0.6000000000000001,-1.8,2.5,1.6,7.300000000000001,14.600000000000001,-23.5,16.5,16
737,12356.0,-0.9,0.6000000000000001,-1.5,2.7,1.5,7.7,8.700000000000001,-29.300000000000004,10.8,16
738,12372.0,-0.8,0.4,-1.0,2.8000000000000003,1.3,8.200000000000001,1.5,-22.3,4.9,16
739,12388.0,-0.8,0.4,-0.6000000000000001,2.9000000000000004,1.4000000000000001,8.5,-0.8,-17.200000000000003,2.5,16
740,12403.0,-1.0,0.6000000000000001,-0.4,2.8000000000000003,1.5,8.6,-1.2000000000000002,-9.899999999999999,-2.1,16
741,12423.0,-1.2000000000000002,0.7000000000000001,-0.5,2.6,1.7000000000000002,8.5,3.0,-5.4,-6.600000000000001,16
742,12436.0,-1.3,0.8,-0.7000000000000001,2.5,1.8,8.3,4.5,-2.6,-8.8,16
743,12453.0,-1.5,0.8,-1.0,2.2,1.8,8.0,2.2,3.2,-11.000000000000002,16
744,12470.0,-1.6,0.9,-0.7000000000000001,2.2,1.9000000000000001,8.3,0.0,5.9,-10.5,16
745,12486.0,-1.5,0.8,-0.4,2.2,1.9000000000000001,8.6,2.1,6.8,-8.899999999999999,16
746,12503.0,-1.3,0.9,-0.30000000000000004,2.4000000000000004,1.9000000000000001,8.8,12.7,7.300000000000001,-4.800000000000001,16
747,12520.0,-1.3,0.9,-0.30000000000000004,2.4000000000000004,2.0,8.700000000000001,15.899999999999999,7.300000000000001,-3.5,16
748,12536.0,-1.2000000000000002,1.2000000000000002,-0.6000000000000001,2.6,2.4000000000000004,8.3,22.4,2.4000000000000004,0.8,16
749,12557.0,-0.7000000000000001,1.6,-0.4,3.0,2.8000000000000003,8.6,17.799999999999997,-3.2,-0.30000000000000004,16
750,12571.0,-0.5,1.7000000000000002,0.30000000000000004,3.1,3.0,9.3,9.8,-5.500000000000001,-7.6,16
751,12590.0,-0.8,1.5,1.2000000000000002,2.9000000000000004,2.9000000000000004,10.200000000000001,1.4,1.3,-14.400000000000002,16
752,12604.0,-0.9,1.1,1.7000000000000002,2.8000000000000003,2.4000000000000004,10.700000000000001,-1.4,11.5,-15.000000000000002,16
753,12622.0,-0.9,1.0,1.7000000000000002,2.5,2.3000000000000003,10.700000000000001,0.30000000000000004,26.9,-13.900000000000002,16
754,12636.0,-2.0,1.4000000000000001,0.5,1.0,3.0,9.0,8.899999999999999,57.1,-7.300000000000001,16
755,12653.0,-3.4000000000000004,2.3000000000000003,-1.1,-0.1,3.7,8.0,-10.600000000000001,55.8,-2.5,16
756,12669.0,-3.3000000000000003,2.3000000000000003,-1.2000000000000002,0.2,3.4000000000000004,10.5,-67.00000000000001,-6.9,-6.4,16
757,12686.0,-1.4000000000000001,-0.2,4.800000000000001,1.8,1.0,14.0,-93.3,-37.6,-9.899999999999999,16
758,12703.0,-0.7000000000000001,-2.7,8.4,2.6,-1.7000000000000002,17.5,-88.00000000000001,-57.20000000000001,-5.2,16
759,12720.0,-0.8,-2.5,8.4,2.3000000000000003,-2.3000000000000003,17.5,-59.80000000000001,-34.60000000000001,7.8,16
760,12736.0,-1.4000000000000001,-2.8000000000000003,5.800000000000001,2.1,-2.2,14.9,6.9,18.0,45.8,16
761,12754.0,-0.6000000000000001,-2.3000000000000003,2.6,2.9000000000000004,-1.7000000000000002,11.8,42.1,23.099999999999998,84.6,16
762,12771.0,0.9,-1.6,1.0,4.3,-0.9,10.200000000000001,56.800000000000004,-11.900000000000002,101.9,16
763,12787.0,1.7000000000000002,-1.5,0.8,5.1000000000000005,-0.8,9.9,60.7,-31.7,101.6,16
764,12803.0,2.0,-1.3,0.4,5.6000000000000005,-0.5,9.5,67.4,-43.300000000000004,90.0,16
765,12819.0,1.7000000000000002,-1.2000000000000002,-0.1,5.4,-0.30000000000000004,8.9,68.7,-35.599999999999994,83.4,16
766,12836.0,0.9,-0.9,-1.3,4.7,0.0,7.7,57.1,-4.1,73.8,16
767,12853.0,0.0,-0.6000000000000001,-2.0,3.8000000000000003,0.5,7.0,36.2,19.9,69.3,16
768,12872.0,-0.6000000000000001,-0.30000000000000004,-2.0,3.2,0.8,7.0,27.400000000000002,21.400000000000002,65.7,16
769,12886.0,-0.9,-0.2,-2.1,2.9000000000000004,0.9,6.9,29.1,15.399999999999999,63.500000000000014,16
770,12903.0,-1.2000000000000002,-0.1,-2.3000000000000003,2.5,1.0,6.7,37.300000000000004,1.0,58.0,16
771,12920.0,-1.2000000000000002,-0.1,-2.3000000000000003,2.3000000000000003,1.1,6.5,39.599999999999994,-5.300000000000001,54.699999999999996,16
772,12936.0,-1.6,-0.1,-2.7,2.2,1.1,6.2,37.6,-10.5,50.7,16
773,12956.0,-1.7000000000000002,0.0,-2.5,2.1,1.2000000000000002,6.5,28.0,-10.600000000000001,44.9,16
774,12970.0,-1.7000000000000002,0.0,-2.3000000000000003,2.2,1.2000000000000002,6.6000000000000005,20.5,-4.800000000000001,38.60000000000001,16
775,12986.0,-1.8,0.0,-2.1,2.1,1.2000000000000002,6.800000000000001,15.399999999999999,2.8,29.800000000000004,16
776,13003.0,-1.9000000000000001,0.0,-2.1,1.6,1.1,6.7,13.6,7.8,23.5,16
777,13020.0,-2.5,-0.1,-2.4000000000000004,1.3,1.1,6.5,10.1,20.8,10.700000000000001,16
778,13041.0,-2.7,-0.2,-2.5,1.1,1.1,6.5,8.5,23.2,9.899999999999999,16
779,13053.0,-2.8000000000000003,-0.2,-2.2,1.0,1.1,6.800000000000001,7.200000000000001,22.5,12.200000000000001,16
780,13070.0,-2.6,-0.1,-1.8,1.3,1.2000000000000002,7.5,9.2,19.0,13.700000000000001,16
781,13086.0,-2.3000000000000003,0.0,-1.3,1.4000000000000001,1.3,7.7,19.5,12.4,12.7,16
782,13107.0,-2.5,0.1,-1.5,1.1,1.4000000000000001,7.6000000000000005,28.900000000000002,11.900000000000002,7.8,16
783,13123.0,-2.5,0.0,-1.5,1.1,1.4000000000000001,7.5,28.800000000000004,13.8,6.4,16
784,13137.0,-2.1,0.0,-1.2000000000000002,1.5,1.5,7.800000000000001,20.0,20.1,6.8,16
785,13153.0,-1.3,0.2,-0.7000000000000001,2.2,1.7000000000000002,8.4,12.100000000000001,27.099999999999998,1.8000000000000003,16
786,13170.0,-0.8,0.4,-0.6000000000000001,2.6,2.0,8.5,4.9,31.400000000000002,-12.200000000000001,16
787,13188.0,-0.6000000000000001,0.2,-0.5,2.7,1.7000000000000002,8.6,-1.9,35.5,-20.400000000000002,16
788,13204.0,-0.1,0.0,0.4,3.1,1.6,9.600000000000001,-17.6,43.6,-30.5,16
789,13219.0,0.1,-0.1,0.9,3.2,1.4000000000000001,10.0,-22.8,45.7,-33.6,16
790,13245.0,0.2,-0.5,2.7,3.1,1.0,11.9,-18.3,49.6,-30.4,16
791,13262.0,1.1,-0.4,4.6000000000000005,3.8000000000000003,1.1,13.9,32.5,46.7,-4.4,16
792,13271.0,1.1,-0.4,4.6000000000000005,4.2,1.2000000000000002,13.4,53.10000000000001,47.0,0.0,16
793,13287.0,1.9000000000000001,-0.1,2.5,4.5,1.5,11.9,67.4,50.400000000000006,-1.0,16
794,13303.0,1.4000000000000001,1.3,-0.30000000000000004,3.8000000000000003,3.2,9.0,44.5,47.0,-20.0,16
795,13319.0,1.6,1.6,-0.4,3.9000000000000004,3.5,8.9,1.0,29.1,-38.60000000000001,16
796,13336.0,2.1,-0.7000000000000001,2.2,4.3,1.2000000000000002,11.600000000000001,-114.2,5.6,-79.6,16
797,13356.0,1.7000000000000002,-4.3,7.800000000000001,3.8000000000000003,-2.8000000000000003,17.3,-167.3,19.700000000000003,-91.4,16
798,13371.0,-0.9,-4.0,7.5,1.1,-3.0,17.1,-111.50000000000001,57.1,-47.1,16
799,13391.0,-0.5,-2.8000000000000003,4.800000000000001,1.3,-2.1,14.4,-56.300000000000004,42.0,0.2,16
800,13403.0,1.1,-2.4000000000000004,3.5,2.8000000000000003,-1.7000000000000002,13.200000000000001,-23.5,-5.6,44.10000000000001,16
801,13420.0,2.1,-1.6,3.3000000000000003,3.8000000000000003,-1.0,12.9,-16.0,-21.6,55.400000000000006,16
802,13436.0,3.6,-0.6000000000000001,3.0,6.2,0.4,12.200000000000001,9.2,-60.7,77.20000000000002,16
803,13453.0,4.4,0.7000000000000001,1.1,6.5,1.2000000000000002,10.700000000000001,20.599999999999998,-40.4,65.3,16
804,13477.0,2.5,1.5,-1.3,4.7,2.0,8.200000000000001,19.300000000000004,14.5,50.5,16
805,13488.0,1.4000000000000001,1.8,-2.9000000000000004,3.6,2.4000000000000004,6.6000000000000005,15.6,36.7,48.9,16
806,13503.0,0.6000000000000001,2.3000000000000003,-3.9000000000000004,2.7,2.9000000000000004,5.7,3.5,52.1,49.1,16
807,13520.0,0.30000000000000004,2.8000000000000003,-3.8000000000000003,2.2,3.3000000000000003,5.800000000000001,-8.700000000000001,22.000000000000004,47.900000000000006,16
808,13536.0,0.4,2.9000000000000004,-3.5,2.2,3.4000000000000004,6.2,-11.3,0.1,46.6,16
809,13558.0,0.4,2.8000000000000003,-2.6,2.3000000000000003,3.2,7.4,-5.300000000000001,-27.700000000000003,42.1,16
810,13574.0,0.30000000000000004,2.5,-1.7000000000000002,2.2,2.8000000000000003,8.0,7.8,-25.4,39.2,16
811,13595.0,-0.5,2.5,-1.3,1.6,2.9000000000000004,8.3,17.400000000000002,-3.6000000000000005,37.1,16
812,13604.0,-0.5,2.5,-1.3,1.2000000000000002,3.0,8.4,20.3,6.500000000000001,36.300000000000004,16
813,13621.0,-1.2000000000000002,2.3000000000000003,-1.1,0.9,2.8000000000000003,8.5,26.300000000000004,18.6,36.2,16
814,13637.0,-1.3,2.2,-1.0,0.8,2.8000000000000003,8.6,31.5,19.5,36.9,16
815,13653.0,-1.3,1.9000000000000001,-1.0,0.7000000000000001,2.6,8.6,48.9,12.200000000000001,39.8,16
816,13670.0,-1.0,1.7000000000000002,-1.2000000000000002,1.0,2.5,8.4,63.30000000000001,-6.8,41.900000000000006,16
817,13699.0,-0.5,1.5,-0.5,1.5,2.5,9.1,62.900000000000006,-20.8,40.5,16
818,13712.0,0.30000000000000004,1.0,0.6000000000000001,2.4000000000000004,2.1,10.200000000000001,48.400000000000006,-3.1,31.7,16
819,13726.0,0.30000000000000004,1.0,0.6000000000000001,2.2,2.0,10.600000000000001,38.800000000000004,19.799999999999997,23.2,16
820,13758.0,-1.1,0.8,1.9000000000000001,0.9,2.1,11.4,-15.100000000000001,47.400000000000006,-16.0,16
821,13769.0,-1.3,-0.9,4.3,0.4,0.4,13.9,-66.9,41.0,-38.800000000000004,16
822,13786.0,-1.3,-2.4000000000000004,6.4,0.4,-1.2000000000000002,16.0,-79.9,41.4,-42.900000000000006,16
823,13802.0,-1.4000000000000001,-4.1000000000000005,7.7,0.1,-3.2,17.3,-59.40000000000001,49.50000000000001,-29.700000000000006,16
824,13822.0,-1.4000000000000001,-4.0,7.300000000000001,0.1,-3.2,17.0,-32.0,52.00000000000001,-15.000000000000002,16
825,13838.0,-0.7000000000000001,-3.6,4.6000000000000005,0.6000000000000001,-2.8000000000000003,14.3,7.500000000000001,45.400000000000006,8.700000000000001,16
826,13854.0,-0.2,-3.2,3.0,1.0,-2.2,12.200000000000001,30.000000000000004,27.3,31.2,16
827,13872.0,0.6000000000000001,-2.6,1.0,1.7000000000000002,-1.7000000000000002,10.700000000000001,33.2,14.900000000000002,44.00000000000001,16
828,13888.0,0.8,-2.4000000000000004,0.30000000000000004,1.9000000000000001,-1.4000000000000001,10.0,28.700000000000003,11.4,48.10000000000001,16
829,13906.0,1.0,-2.2,-0.30000000000000004,2.1,-1.1,9.4,21.200000000000003,9.700000000000001,50.0,16
830,13923.0,1.1,-1.9000000000000001,-0.4,2.2,-0.8,9.3,12.200000000000001,6.4,53.10000000000001,16
831,13941.0,1.2000000000000002,-1.8,-0.30000000000000004,2.2,-0.7000000000000001,9.4,11.2,4.0,56.10000000000001,16
832,13953.0,1.3,-1.5,-0.30000000000000004,2.4000000000000004,-0.30000000000000004,9.4,22.1,2.7,64.50000000000001,16
833,13973.0,1.6,-0.9,-1.1,2.7,0.2,8.6,46.1,2.9,73.4,16
834,13988.0,1.7000000000000002,-0.6000000000000001,-1.7000000000000002,2.8000000000000003,0.6000000000000001,7.9,58.1,3.1,76.2,16
835,14004.0,1.8,-0.6000000000000001,-2.2,3.1,1.2000000000000002,6.9,71.5,1.5,75.3,16
836,14022.0,2.3000000000000003,-0.1,-3.5,3.5,1.6,6.1000000000000005,69.9,4.2,66.5,16
837,14044.0,2.2,0.2,-4.0,3.4000000000000004,2.0,5.6000000000000005,63.8,7.9,58.60000000000001,16
838,14052.0,2.2,0.1,-3.9000000000000004,3.3000000000000003,2.1,5.6000000000000005,44.9,14.400000000000002,37.800000000000004,16
839,14071.0,1.8,0.1,-3.6,3.0,2.1,5.9,22.8,19.5,15.100000000000001,16
840,14088.0,1.5,0.0,-3.2,2.6,2.0,6.300000000000001,15.000000000000002,22.2,4.800000000000001,16
841,14103.0,1.1,-0.1,-3.0,2.1,2.0,6.6000000000000005,2.6,27.099999999999998,-12.600000000000001,16
842,14119.0,0.9,-0.1,-2.8000000000000003,1.8,2.0,6.7,-4.7,29.700000000000006,-18.900000000000002,16
843,14145.0,0.6000000000000001,-0.1,-1.5,1.4000000000000001,1.9000000000000001,8.0,-26.6,45.6,-33.1,16
844,14154.0,0.5,0.0,-1.2000000000000002,1.2000000000000002,2.0,8.3,-31.5,52.900000000000006,-37.7,16
845,14170.0,0.0,0.1,-0.9,0.6000000000000001,2.0,8.700000000000001,-35.1,58.0,-41.800000000000004,16
846,14186.0,-0.4,0.1,-0.30000000000000004,-0.1,1.9000000000000001,9.3,-42.800000000000004,56.400000000000006,-48.2,16
847,14204.0,-0.7000000000000001,0.0,0.7000000000000001,-0.5,1.7000000000000002,10.4,-54.0,46.6,-52.1,16
848,14220.0,-0.6000000000000001,0.0,1.0,-0.6000000000000001,1.6,10.700000000000001,-58.7,40.4,-53.300000000000004,16
849,14240.0,-0.7000000000000001,0.0,2.1,-0.8,1.4000000000000001,12.3,-54.1,15.899999999999999,-45.9,16
850,14253.0,-0.5,0.30000000000000004,2.7,-0.7000000000000001,1.5,12.4,-45.6,3.6000000000000005,-39.50000000000001,16
851,14270.0,0.4,0.9,2.6,0.2,1.9000000000000001,12.3,-34.800000000000004,-22.2,-29.600000000000005,16
852,14286.0,0.8,1.0,2.7,0.7000000000000001,2.0,12.5,-38.1,-27.9,-29.400000000000002,16
853,14304.0,1.3,0.8,3.3000000000000003,1.2000000000000002,1.7000000000000002,13.100000000000001,-51.9,-20.599999999999998,-33.300000000000004,16
854,14320.0,1.2000000000000002,0.8,3.5,1.2000000000000002,1.6,13.3,-54.4,-16.3,-34.7,16
855,14341.0,0.6000000000000001,-0.1,4.0,0.6000000000000001,0.4,13.8,-44.10000000000001,-4.1,-34.900000000000006,16
856,14353.0,0.5,-0.1,3.8000000000000003,0.5,0.30000000000000004,13.600000000000001,-29.1,-6.500000000000001,-27.6,16
857,14370.0,0.8,-0.1,2.8000000000000003,0.8,0.30000000000000004,12.600000000000001,7.200000000000001,-23.0,-8.8,16
858,14386.0,1.5,0.1,2.2,1.6,0.5,12.0,21.8,-34.2,0.1,16
859,14403.0,2.5,0.30000000000000004,1.5,2.7,0.7000000000000001,11.200000000000001,41.0,-46.800000000000004,7.400000000000001,16
860,14419.0,2.7,0.2,1.1,2.9000000000000004,0.8,10.9,46.6,-45.3,5.300000000000001,16
861,14436.0,2.7,0.2,-0.2,3.2,0.8,9.5,49.50000000000001,-27.6,-7.300000000000001,16
862,14461.0,1.1,0.0,-2.3000000000000003,1.6,0.9,7.4,27.700000000000003,7.300000000000001,-36.0,16
863,14470.0,0.6000000000000001,-0.1,-2.6,1.1,0.9,7.1000000000000005,18.1,13.200000000000003,-43.70000000000001,16
864,14486.0,-0.1,-0.30000000000000004,-2.7,0.4,0.7000000000000001,7.0,9.3,13.100000000000001,-50.2,16
865,14505.0,-0.9,-0.8,-2.4000000000000004,-0.5,0.30000000000000004,7.4,1.7,4.6,-55.1,16
866,14520.0,-1.1,-0.8,-2.3000000000000003,-0.8,0.2,7.4,4.5,-1.7,-52.60000000000001,16
867,14547.0,-1.0,-0.5,-2.7,-0.6000000000000001,0.6000000000000001,7.0,22.8,-11.6,-32.5,16
868,14553.0,-0.9,-0.30000000000000004,-2.9000000000000004,-0.5,0.8,6.9,24.0,-9.4,-28.900000000000002,16
869,14569.0,-0.7000000000000001,0.0,-3.0,-0.2,1.2000000000000002,6.7,15.5,-4.5,-30.200000000000003,16
870,14586.0,-0.5,0.1,-2.8000000000000003,-0.1,1.3,6.9,9.100000000000001,-1.3,-33.0,16
871,14603.0,-0.5,0.0,-2.4000000000000004,-0.1,1.2000000000000002,7.300000000000001,-2.0,7.500000000000001,-39.1,16
872,14621.0,-0.7000000000000001,-0.1,-2.2,-0.4,1.2000000000000002,7.6000000000000005,-7.8,13.6,-40.7,16
873,14636.0,-0.8,-0.1,-2.0,-0.5,1.1,7.7,-9.899999999999999,14.300000000000002,-39.50000000000001,16
874,14654.0,-0.7000000000000001,-0.1,-1.5,-0.5,1.1,8.200000000000001,-11.5,14.100000000000001,-32.6,16
875,14672.0,-0.5,0.2,-1.0,-0.30000000000000004,1.3,8.700000000000001,-9.2,9.3,-22.700000000000003,16
876,14688.0,-0.2,0.4,-0.8,-0.1,1.6,8.9,-7.0,8.2,-17.799999999999997,16
877,14703.0,-0.1,0.7000000000000001,-0.8,0.1,1.9000000000000001,9.0,-3.1,11.4,-11.1,16
878,14720.0,-0.1,0.9,-0.9,0.0,2.0,8.9,-0.4,12.200000000000001,-8.2,16
879,14747.0,-0.1,1.2000000000000002,-0.6000000000000001,-0.1,2.4000000000000004,9.1,4.7,-5.2,2.5,16
880,14753.0,0.0,1.3,-0.4,0.0,2.5,9.3,5.0,-8.8,4.1,16
881,14769.0,0.0,1.3,-0.4,0.30000000000000004,2.5,9.8,5.7,-20.5,7.400000000000001,16
882,14786.0,0.7000000000000001,1.4000000000000001,1.1,0.9,2.6,10.8,2.5,-29.900000000000006,6.0,16
883,14803.0,0.9,1.3,2.0,1.2000000000000002,2.6,11.700000000000001,-6.2,-26.6,0.5,16
884,14821.0,0.6000000000000001,1.2000000000000002,2.8000000000000003,1.0,2.4000000000000004,12.5,-22.5,-6.600000000000001,-8.100000000000001,16
885,14837.0,0.6000000000000001,1.3,2.8000000000000003,0.7000000000000001,2.5,12.700000000000001,-27.3,4.6,-10.9,16
886,14857.0,-0.2,1.6,2.9000000000000004,-0.2,2.7,12.600000000000001,-32.0,16.0,-13.900000000000002,16
887,14869.0,-1.0,1.5,3.3000000000000003,-0.7000000000000001,2.4000000000000004,13.0,-40.800000000000004,13.399999999999999,-14.100000000000001,16
888,14886.0,-1.1,1.1,3.8000000000000003,-0.9,2.0,13.600000000000001,-40.9,9.4,-11.900000000000002,16
889,14903.0,-1.1,0.9,3.9000000000000004,-1.0,1.2000000000000002,13.5,-25.7,2.3,-3.9,16
890,14920.0,-1.2000000000000002,0.5,3.7,-1.0,1.1,13.3,-15.8,-0.6000000000000001,2.4000000000000004,16
891,14942.0,-0.7000000000000001,-0.2,2.8000000000000003,-0.5,0.5,12.600000000000001,7.500000000000001,-4.5,29.0,16
892,14953.0,-0.4,-0.2,2.4000000000000004,-0.2,0.5,12.200000000000001,17.300000000000004,-5.4,38.1,16
893,14969.0,-0.1,-0.1,1.7000000000000002,0.1,0.6000000000000001,11.5,36.300000000000004,-10.600000000000001,50.3,16
894,14986.0,0.30000000000000004,0.1,0.5,0.6000000000000001,0.9,10.3,42.60000000000001,-14.600000000000001,53.0,16
895,15003.0,0.5,0.2,-0.5,0.9,1.1,9.3,48.10000000000001,-22.000000000000004,51.800000000000004,16
896,15025.0,0.5,-0.2,-1.1,1.0,1.0,8.6,44.300000000000004,-24.5,45.0,16
897,15051.0,0.1,-0.9,-0.6000000000000001,0.7000000000000001,0.4,9.1,30.9,-22.000000000000004,37.300000000000004,16
898,15056.0,0.1,-0.9,-0.6000000000000001,0.7000000000000001,0.4,9.1,30.9,-22.000000000000004,37.300000000000004,16
899,15073.0,0.30000000000000004,-1.1,-0.2,1.0,0.2,9.5,36.1,-20.8,40.5,16
900,15088.0,0.5,-1.1,-0.4,1.2000000000000002,0.30000000000000004,9.3,41.800000000000004,-17.5,41.1,16
901,15103.0,0.5,-1.0,-1.3,1.3,0.6000000000000001,8.3,48.300000000000004,-5.300000000000001,39.0,16
902,15120.0,0.5,-0.9,-1.7000000000000002,1.3,0.7000000000000001,8.0,48.10000000000001,0.9000000000000001,37.2,16
903,15136.0,0.2,-0.7000000000000001,-2.3000000000000003,1.1,1.1,7.300000000000001,42.800000000000004,5.500000000000001,34.60000000000001,16
904,15153.0,0.30000000000000004,-0.6000000000000001,-2.4000000000000004,1.1,1.3,7.2,37.9,-1.6,32.1,16
905,15169.0,0.4,-0.5,-2.3000000000000003,1.3,1.5,7.300000000000001,40.1,-10.299999999999999,27.6,16
906,15186.0,0.4,-0.4,-2.3000000000000003,1.3,1.7000000000000002,7.2,41.800000000000004,-13.200000000000003,25.200000000000003,16
907,15205.0,0.5,-0.30000000000000004,-2.5,1.5,1.9000000000000001,7.0,38.400000000000006,-12.200000000000001,19.200000000000003,16
908,15222.0,0.7000000000000001,-0.1,-2.4000000000000004,1.7000000000000002,2.2,7.0,25.8,-4.7,10.8,16
909,15244.0,0.6000000000000001,-0.1,-2.4000000000000004,1.9000000000000001,2.5,7.4,14.400000000000002,1.1,-4.6,16
910,15254.0,0.8,0.1,-2.0,1.8,2.5,7.4,13.100000000000001,1.8000000000000003,-9.100000000000001,16
911,15269.0,0.6000000000000001,0.2,-2.2,1.7000000000000002,2.6,7.2,9.600000000000001,3.9,-26.5,16
912,15286.0,0.5,0.30000000000000004,-2.5,1.5,2.8000000000000003,7.0,6.300000000000001,5.6,-34.900000000000006,16
913,15303.0,0.2,0.30000000000000004,-2.4000000000000004,1.2000000000000002,2.8000000000000003,7.1000000000000005,-7.8,3.7000000000000006,-50.0,16
914,15319.0,0.30000000000000004,0.30000000000000004,-2.4000000000000004,1.2000000000000002,2.7,8.1,-18.200000000000003,-1.7,-55.400000000000006,16
915,15336.0,0.6000000000000001,0.0,-0.7000000000000001,1.5,2.4000000000000004,8.700000000000001,-41.300000000000004,-18.8,-63.900000000000006,16
916,15352.0,0.9,-0.30000000000000004,0.4,1.9000000000000001,1.9000000000000001,10.600000000000001,-56.10000000000001,-29.500000000000004,-67.8,16
917,15369.0,1.0,-0.7000000000000001,2.5,1.9000000000000001,1.4000000000000001,12.0,-58.60000000000001,-21.900000000000002,-67.10000000000001,16
918,15386.0,0.7000000000000001,-0.6000000000000001,2.7,1.7000000000000002,1.5,12.3,-56.6,-12.299999999999999,-62.7,16
919,15404.0,0.7000000000000001,-0.4,2.6,1.7000000000000002,1.6,12.200000000000001,-55.0,-2.9,-56.9,16
920,15419.0,0.8,0.0,2.7,2.0,1.6,13.0,-62.900000000000006,-0.6000000000000001,-50.2,16
921,15440.0,1.2000000000000002,-0.2,4.0,2.1,1.4000000000000001,13.700000000000001,-72.0,-14.300000000000002,-53.400000000000006,16
922,15453.0,1.2000000000000002,-0.5,4.9,2.1,0.9,14.600000000000001,-57.9,-34.7,-54.9,16
923,15472.0,1.6,-1.0,4.7,2.6,0.2,14.4,-40.6,-36.8,-47.0,16
924,15486.0,1.9000000000000001,-1.3,4.1000000000000005,3.0,-0.1,13.8,-34.900000000000006,-25.1,-40.2,16
925,15503.0,1.7000000000000002,-1.1,2.8000000000000003,2.8000000000000003,-0.1,12.5,-24.5,-0.2,-25.1,16
926,15519.0,1.7000000000000002,-1.1,2.4000000000000004,2.9000000000000004,0.0,12.100000000000001,-16.5,4.2,-16.4,16
927,15536.0,2.2,-0.7000000000000001,0.9,3.3000000000000003,0.30000000000000004,10.600000000000001,7.400000000000001,-3.0,0.30000000000000004,16
928,15567.0,2.6,0.2,-1.7000000000000002,3.8000000000000003,1.3,7.9,37.400000000000006,-22.1,5.6,16
929,15571.0,2.6,0.2,-1.7000000000000002,3.8000000000000003,1.3,7.9,37.400000000000006,-22.1,5.6,16
930,15586.0,2.2,0.8,-3.1,3.5,2.0,6.5,36.5,-24.400000000000002,-7.9,16
931,15605.0,1.5,1.1,-4.1000000000000005,2.9000000000000004,2.4000000000000004,5.5,16.3,-16.0,-32.7,16
932,15622.0,0.5,0.5,-4.2,1.9000000000000001,1.9000000000000001,5.4,-15.299999999999999,0.4,-56.0,16
933,15641.0,0.2,0.4,-4.0,1.5,1.8,5.6000000000000005,-28.900000000000002,6.0,-62.900000000000006,16
934,15657.0,-0.30000000000000004,0.0,-3.1,0.9,1.3,6.5,-37.1,8.5,-65.6,16
935,15670.0,-0.5,0.0,-2.9000000000000004,0.7000000000000001,1.3,6.7,-30.000000000000004,4.2,-63.30000000000001,16
936,15686.0,-0.5,0.30000000000000004,-3.2,0.8,1.5,6.4,-10.600000000000001,-10.0,-55.3,16
937,15703.0,-0.30000000000000004,0.7000000000000001,-3.5,1.0,1.9000000000000001,6.2,-7.0,-20.7,-55.0,16
938,15721.0,-0.30000000000000004,0.7000000000000001,-3.3000000000000003,1.0,1.9000000000000001,6.4,-11.2,-23.6,-57.60000000000001,16
939,15736.0,-0.4,0.5,-2.4000000000000004,0.9,1.7000000000000002,7.300000000000001,-25.5,-18.700000000000003,-65.10000000000001,16
940,15758.0,-0.7000000000000001,0.30000000000000004,-1.6,0.7000000000000001,1.4000000000000001,8.0,-37.9,-6.2,-71.39999999999999,16
941,15769.0,-1.1,0.0,-0.9,0.2,1.0,8.700000000000001,-47.0,4.6,-71.8,16
942,15786.0,-1.2000000000000002,0.0,-0.7000000000000001,0.1,0.9,9.0,-48.400000000000006,8.100000000000001,-67.9,16
943,15803.0,-1.5,0.1,0.0,-0.2,0.9,9.700000000000001,-45.8,8.3,-55.5,16
944,15821.0,-1.4000000000000001,0.2,0.4,-0.2,1.0,10.100000000000001,-41.0,4.2,-48.2,16
945,15838.0,-1.2000000000000002,0.30000000000000004,0.9,0.1,0.9,10.600000000000001,-23.5,-1.4,-33.0,16
946,15854.0,-1.2000000000000002,0.30000000000000004,0.9,0.1,0.9,10.600000000000001,-23.5,-1.4,-33.0,16
947,15869.0,-1.1,1.1,0.1,0.0,1.6,9.8,-11.700000000000001,8.3,1.0,16
948,15886.0,-0.9,1.4000000000000001,0.8,0.2,2.0,10.5,-18.700000000000003,5.300000000000001,5.300000000000001,16
949,15903.0,-0.4,1.3,2.3000000000000003,0.7000000000000001,1.8,12.100000000000001,-31.099999999999998,-8.600000000000001,10.5,16
950,15922.0,0.30000000000000004,1.2000000000000002,4.3,1.5,1.5,14.100000000000001,-27.3,-19.400000000000002,17.0,16
951,15936.0,0.4,1.3,4.7,1.6,1.6,14.4,-18.3,-16.700000000000003,20.8,16
952,15961.0,0.4,1.9000000000000001,4.2,1.7000000000000002,2.2,13.9,-1.3,5.1000000000000005,22.000000000000004,16
953,15972.0,0.0,2.2,3.0,1.2000000000000002,2.5,12.8,-6.0,33.50000000000001,15.8,16
954,15986.0,-0.30000000000000004,2.1,2.7,0.8,2.3000000000000003,12.4,-12.5,44.4,12.5,16
955,16003.0,-0.7000000000000001,1.6,2.3000000000000003,0.30000000000000004,1.8,12.100000000000001,-13.6,53.8,9.600000000000001,16
956,16022.0,-0.9,1.3,1.9000000000000001,-0.1,1.5,11.600000000000001,3.3000000000000007,40.300000000000004,15.6,16
957,16036.0,-1.0,1.2000000000000002,1.7000000000000002,-0.2,1.4000000000000001,11.4,14.900000000000002,25.8,21.8,16
958,16065.0,-0.6000000000000001,0.7000000000000001,0.7000000000000001,0.1,1.0,10.5,45.099999999999994,-10.0,42.7,16
959,16071.0,-0.6000000000000001,0.6000000000000001,0.7000000000000001,0.2,0.9,10.200000000000001,46.199999999999996,-11.6,47.5,16
960,16086.0,-0.2,0.4,0.1,0.6000000000000001,0.9,9.9,43.4,-9.899999999999999,50.5,16
961,16103.0,0.0,0.30000000000000004,0.0,0.8,0.9,9.700000000000001,28.900000000000002,-5.300000000000001,52.7,16
962,16120.0,0.0,0.30000000000000004,0.0,0.9,0.9,9.9,23.900000000000006,-6.4,52.1,16
963,16139.0,0.9,-0.30000000000000004,1.3,2.3000000000000003,-0.1,11.9,5.1000000000000005,-24.3,46.300000000000004,16
964,16153.0,1.8,-1.1,2.7,2.8000000000000003,-0.5,12.4,0.8,-44.7,41.50000000000001,16
965,16169.0,2.5,-1.9000000000000001,2.7,3.6,-1.3,12.4,22.5,-48.800000000000004,40.5,16
966,16189.0,2.4000000000000004,-2.0,1.8,3.7,-1.4000000000000001,11.5,37.50000000000001,-42.400000000000006,41.900000000000006,16
967,16205.0,2.7,-1.9000000000000001,0.0,4.1000000000000005,-1.1,9.700000000000001,56.2,-26.6,47.7,16
968,16222.0,2.9000000000000004,-1.7000000000000002,-0.5,4.3,-0.7000000000000001,9.200000000000001,46.1,-13.399999999999999,47.60000000000001,16
969,16236.0,2.8000000000000003,-1.7000000000000002,-0.5,4.3,-0.6000000000000001,9.1,38.50000000000001,-5.0,45.5,16
970,16254.0,2.4000000000000004,-1.7000000000000002,-1.1,3.9000000000000004,-0.5,8.5,36.6,8.700000000000001,41.0,16
971,16272.0,1.7000000000000002,-1.4000000000000001,-1.8,3.2,-0.1,7.800000000000001,41.6,11.6,40.5,16
972,16286.0,1.4000000000000001,-0.7000000000000001,-1.9000000000000001,2.9000000000000004,0.6000000000000001,7.7,46.6,8.2,43.00000000000001,16
973,16303.0,1.3,0.4,-2.2,2.8000000000000003,1.8,7.4,54.50000000000001,-3.5,49.50000000000001,16
974,16320.0,1.4000000000000001,0.5,-2.2,2.9000000000000004,2.0,7.4,54.300000000000004,-5.2,51.9,16
975,16336.0,1.7000000000000002,0.7000000000000001,-2.4000000000000004,3.3000000000000003,2.4000000000000004,7.1000000000000005,48.6,4.5,51.2,16
976,16359.0,1.2000000000000002,1.7000000000000002,-2.4000000000000004,2.8000000000000003,3.5,7.1000000000000005,37.800000000000004,7.200000000000001,44.00000000000001,16
977,16376.0,1.4000000000000001,2.0,-1.5,3.0,3.8000000000000003,8.0,30.4,-8.4,30.699999999999996,16
978,16387.0,1.5,1.9000000000000001,-1.0,3.1,3.7,8.5,35.0,-18.4,22.4,16
979,16403.0,1.4000000000000001,1.5,-1.1,3.1,3.6,8.4,54.300000000000004,-36.300000000000004,6.699999999999999,16
980,16419.0,1.4000000000000001,1.4000000000000001,-1.4000000000000001,3.2,3.5,8.0,60.400000000000006,-44.5,1.3,16
981,16436.0,1.7000000000000002,1.7000000000000002,-1.9000000000000001,3.6,4.0,7.4,52.00000000000001,-54.199999999999996,-11.6,16
982,16456.0,2.2,1.4000000000000001,-1.4000000000000001,4.3,3.9000000000000004,7.800000000000001,18.1,-62.199999999999996,-37.400000000000006,16
983,16473.0,2.0,1.0,-0.6000000000000001,4.1000000000000005,3.3000000000000003,8.9,-19.200000000000003,-60.400000000000006,-71.9,16
984,16488.0,1.5,-0.2,0.6000000000000001,3.9000000000000004,2.4000000000000004,9.8,-36.300000000000004,-59.300000000000004,-83.2,16
985,16503.0,1.8,-1.5,1.9000000000000001,4.3,1.0,11.100000000000001,-68.3,-57.49999999999999,-93.7,16
986,16520.0,1.5,-2.7,3.0,4.0,-0.4,12.200000000000001,-75.9,-52.7,-96.20000000000002,16
987,16536.0,1.2000000000000002,-2.9000000000000004,3.2,3.7,-0.7000000000000001,12.4,-68.3,-55.8,-94.2,16
988,16562.0,0.7000000000000001,-2.9000000000000004,2.7,3.4000000000000004,-0.8,11.9,-48.300000000000004,-70.0,-87.10000000000001,16
989,16573.0,1.3,-2.3000000000000003,1.9000000000000001,4.2,-0.2,11.100000000000001,-35.9,-97.50000000000001,-75.1,16
990,16586.0,2.1,-2.7,1.7000000000000002,5.1000000000000005,-0.6000000000000001,10.8,-57.1,-93.10000000000001,-77.60000000000001,16
991,16602.0,2.1,-2.9000000000000004,1.8,5.300000000000001,-0.9,10.9,-67.3,-86.4,-80.50000000000001,16
992,16619.0,0.9,-4.0,3.3000000000000003,4.3,-2.2,12.3,-98.39999999999999,-31.3,-93.49999999999999,16
993,16637.0,0.30000000000000004,-3.9000000000000004,3.2,3.7,-2.2,12.200000000000001,-84.80000000000001,-20.2,-87.7,16
994,16652.0,-0.2,-3.5,2.6,3.2,-1.9000000000000001,11.700000000000001,-61.10000000000001,-15.000000000000002,-76.7,16
995,16670.0,0.6000000000000001,-2.4000000000000004,-0.1,4.0,-0.9,9.0,12.7,-27.6,-28.800000000000004,16
996,16686.0,1.2000000000000002,-1.9000000000000001,-0.9,4.7,-0.4,8.1,21.500000000000004,-36.0,-20.2,16
997,16703.0,1.4000000000000001,-1.7000000000000002,-1.0,5.2,0.5,8.0,21.6,-45.099999999999994,-16.700000000000003,16
998,16719.0,1.6,-1.1,-0.9,5.300000000000001,0.6000000000000001,8.0,10.4,-49.6,-24.0,16
999,16737.0,1.3,-1.0,-1.0,4.9,0.8,7.7,7.699999999999999,-27.6,-33.50000000000001,16
1000,16765.0,-0.30000000000000004,0.4,-2.4000000000000004,3.5,2.2,6.4,1.6,-1.0,-42.2,16
1001,16770.0,-0.6000000000000001,0.8,-2.6,3.2,2.6,6.300000000000001,-5.7,2.8,-46.4,16
1002,16786.0,-1.0,1.3,-2.3000000000000003,2.9000000000000004,3.2,6.5,-13.399999999999999,6.0,-50.3,16
1003,16803.0,-1.1,2.2,-1.4000000000000001,2.7,4.0,7.4,-17.400000000000002,6.500000000000001,-54.699999999999996,16
1004,16819.0,-0.9,2.2,-1.3,2.9000000000000004,4.1000000000000005,7.6000000000000005,-11.3,5.0,-57.3,16
1005,16836.0,0.0,1.7000000000000002,-1.0,3.7,3.6,7.800000000000001,5.500000000000001,4.1,-60.1,16
1006,16855.0,0.4,1.8,-1.1,4.0,3.9000000000000004,7.7,24.900000000000002,19.200000000000003,-57.699999999999996,16
1007,16871.0,0.6000000000000001,1.8,-1.8,4.2,4.0,7.1000000000000005,51.1,36.300000000000004,-57.9,16
1008,16886.0,0.30000000000000004,1.9000000000000001,-2.4000000000000004,3.7,4.3,6.5,63.70000000000001,38.900000000000006,-63.4,16
1009,16903.0,-0.30000000000000004,1.6,-3.3000000000000003,3.0,4.2,5.5,83.60000000000001,24.599999999999998,-74.5,16
1010,16919.0,-0.5,1.5,-3.6,2.7,4.3,5.300000000000001,88.7,9.700000000000001,-78.4,16
1011,16936.0,-1.2000000000000002,1.5,-3.8000000000000003,1.9000000000000001,4.7,4.9,79.39999999999999,-17.5,-81.7,16
1012,16955.0,-1.0,1.6,-2.9000000000000004,2.1,5.1000000000000005,5.7,57.3,-23.5,-82.9,16
1013,16970.0,-0.4,1.5,-2.1,2.6,5.1000000000000005,6.5,54.1,-17.799999999999997,-87.89999999999999,16
1014,16986.0,-1.4000000000000001,2.2,-2.4000000000000004,1.6,6.1000000000000005,6.1000000000000005,61.199999999999996,-0.7,-107.30000000000001,16
1015,17003.0,-2.3000000000000003,2.8000000000000003,-3.0,0.5,6.9,5.5,35.5,-14.700000000000001,-123.30000000000003,16
1016,17022.0,-1.9000000000000001,1.7000000000000002,-1.6,0.8,6.1000000000000005,6.800000000000001,-35.4,-20.3,-130.9,16
1017,17036.0,-1.6,1.0,-0.6000000000000001,1.0,5.4,7.800000000000001,-53.8,-14.200000000000001,-131.6,16
1018,17063.0,-2.5,-1.8,3.2,-0.2,2.4000000000000004,11.8,-98.8,48.70000000000001,-123.1,16
1019,17069.0,-2.5,-1.8,3.2,-0.2,2.4000000000000004,11.8,-98.8,48.70000000000001,-123.1,16
1020,17086.0,-4.0,-1.6,2.0,-2.1,2.4000000000000004,10.700000000000001,-61.7,92.3,-93.00000000000001,16
1021,17103.0,-3.7,-1.4000000000000001,0.2,-2.2,2.5,9.1,-30.000000000000004,108.8,-41.50000000000001,16
1022,17119.0,-3.3000000000000003,-1.2000000000000002,-0.4,-2.0,2.7,8.5,-23.5,104.2,-16.5,16
1023,17136.0,-2.3000000000000003,-0.7000000000000001,-1.0,-1.2000000000000002,3.1,8.0,-20.599999999999998,61.0,18.0,16
1024,17159.0,-1.2000000000000002,-0.7000000000000001,0.1,-0.30000000000000004,2.9000000000000004,9.1,-26.6,-7.500000000000001,36.8,16
1025,17170.0,-0.1,-1.1,1.9000000000000001,0.9,2.5,11.0,-34.1,-47.80000000000001,51.800000000000004,16
1026,17186.0,0.5,-1.4000000000000001,3.0,1.7000000000000002,2.1,12.100000000000001,-35.5,-50.0,59.1,16
1027,17203.0,1.0,-1.3,3.5,2.4000000000000004,2.1,12.600000000000001,-29.900000000000006,-28.400000000000002,72.30000000000001,16
1028,17219.0,1.1,-0.9,2.8000000000000003,2.6,2.3000000000000003,11.9,-13.5,-0.8,76.2,16
1029,17236.0,1.1,-0.6000000000000001,2.2,2.6,2.6,11.4,-6.0,6.4,75.3,16
1030,17254.0,1.1,-0.2,1.1,2.7,3.0,10.200000000000001,1.3,5.8,68.7,16
1031,17271.0,1.7000000000000002,-0.4,0.8,3.3000000000000003,2.8000000000000003,9.9,1.7,-3.8,58.7,16
1032,17286.0,2.2,-0.5,0.8,3.9000000000000004,2.6,9.9,3.7000000000000006,-8.5,53.599999999999994,16
1033,17302.0,2.4000000000000004,-0.4,0.0,4.2,2.7,9.1,9.3,-7.400000000000001,40.5,16
1034,17329.0,2.1,-0.30000000000000004,-0.7000000000000001,3.9000000000000004,2.8000000000000003,8.4,-1.4,5.9,25.200000000000003,16
1035,17336.0,2.0,-0.30000000000000004,-0.8,3.8000000000000003,2.8000000000000003,8.3,-13.100000000000001,15.8,17.300000000000004,16
1036,17360.0,1.9000000000000001,-0.4,-1.0,3.7,2.3000000000000003,8.200000000000001,-36.8,34.2,2.1,16
1037,17370.0,1.8,-0.9,-1.0,3.6,1.9000000000000001,8.3,-44.10000000000001,38.50000000000001,-3.9,16
1038,17388.0,1.9000000000000001,-1.1,-0.9,3.6,1.7000000000000002,8.4,-45.099999999999994,35.0,-13.5,16
1039,17405.0,1.9000000000000001,-1.2000000000000002,-1.1,3.5,1.5,8.200000000000001,-32.6,21.200000000000003,-18.8,16
1040,17419.0,1.9000000000000001,-1.1,-1.3,3.4000000000000004,1.5,8.0,-25.4,14.100000000000001,-20.2,16
1041,17436.0,1.9000000000000001,-1.1,-1.7000000000000002,3.4000000000000004,1.5,7.6000000000000005,-16.900000000000002,-0.5,-21.200000000000003,16
1042,17453.0,1.8,-0.8,-2.0,3.3000000000000003,1.7000000000000002,7.4,-15.100000000000001,-10.0,-19.5,16
1043,17470.0,1.8,-0.5,-2.1,3.3000000000000003,2.2,7.2,-16.200000000000003,-12.600000000000001,-19.300000000000004,16
1044,17486.0,1.7000000000000002,-0.1,-2.2,3.3000000000000003,2.3000000000000003,7.1000000000000005,-18.8,-9.3,-22.6,16
1045,17503.0,1.4000000000000001,0.2,-2.3000000000000003,2.9000000000000004,2.6,7.1000000000000005,-25.0,-2.6,-28.400000000000002,16
1046,17519.0,1.2000000000000002,0.30000000000000004,-2.2,2.8000000000000003,2.7,7.1000000000000005,-26.6,-2.3,-29.300000000000004,16
1047,17538.0,1.2000000000000002,0.6000000000000001,-1.8,2.7,2.9000000000000004,7.6000000000000005,-31.099999999999998,-8.3,-29.900000000000006,16
1048,17559.0,1.3,1.1,-0.9,2.8000000000000003,3.3000000000000003,8.5,-27.6,-26.200000000000003,-29.900000000000006,16
1049,17569.0,1.5,1.4000000000000001,-0.4,3.1,3.5,9.1,-23.6,-38.400000000000006,-31.099999999999998,16
1050,17591.0,1.7000000000000002,1.5,0.4,3.6,3.6,10.3,-27.700000000000003,-67.5,-41.0,16
1051,17603.0,2.1,1.4000000000000001,1.8,4.0,3.4000000000000004,11.200000000000001,-33.2,-68.80000000000001,-46.4,16
1052,17619.0,2.2,1.2000000000000002,2.1,4.2,3.2,11.5,-38.1,-63.4,-51.70000000000001,16
1053,17636.0,2.0,1.0,2.6,4.1000000000000005,2.9000000000000004,11.9,-46.300000000000004,-38.800000000000004,-64.4,16
1054,17653.0,1.4000000000000001,0.9,2.3000000000000003,3.6,2.8000000000000003,11.700000000000001,-59.9,-18.4,-76.80000000000001,16
1055,17669.0,1.1,0.4,2.8000000000000003,3.3000000000000003,2.1,12.200000000000001,-78.4,-8.0,-88.20000000000002,16
1056,17686.0,0.6000000000000001,-0.1,3.2,2.7,1.5,12.700000000000001,-84.4,-4.9,-93.00000000000001,16
1057,17702.0,0.1,-0.8,3.9000000000000004,2.3000000000000003,0.6000000000000001,13.4,-87.89999999999999,-6.8,-94.5,16
1058,17719.0,0.1,-1.1,4.2,2.2,0.2,13.700000000000001,-82.39999999999999,-10.200000000000001,-88.4,16
1059,17736.0,0.30000000000000004,-1.5,4.3,2.5,-0.4,13.8,-50.900000000000006,-12.0,-68.7,16
1060,17754.0,0.8,-1.4000000000000001,2.9000000000000004,2.9000000000000004,-0.4,12.4,-10.1,-9.700000000000001,-47.0,16
1061,17769.0,1.4000000000000001,-0.7000000000000001,1.2000000000000002,3.6,0.30000000000000004,10.700000000000001,16.3,-12.5,-28.0,16
1062,17786.0,2.0,-0.30000000000000004,0.30000000000000004,4.2,0.8,9.8,25.200000000000003,-16.1,-22.9,16
1063,17805.0,2.6,0.1,-0.9,4.800000000000001,1.2000000000000002,8.5,35.1,-27.700000000000003,-25.900000000000002,16
1064,17826.0,2.5,0.1,-1.7000000000000002,4.800000000000001,1.4000000000000001,7.7,29.1,-34.800000000000004,-42.2,16
1065,17836.0,2.3000000000000003,0.0,-2.0,4.6000000000000005,1.4000000000000001,7.4,20.1,-35.1,-52.2,16
1066,17855.0,1.4000000000000001,-0.30000000000000004,-2.1,3.9000000000000004,1.2000000000000002,7.2,-3.4,-25.6,-69.60000000000001,16
1067,17871.0,0.4,-0.7000000000000001,-1.9000000000000001,2.9000000000000004,0.8,7.4,-20.400000000000002,-6.2,-77.80000000000001,16
1068,17886.0,-0.2,-0.9,-2.0,2.3000000000000003,0.6000000000000001,7.4,-22.8,1.7,-78.7,16
1069,17902.0,-0.9,-0.8,-2.4000000000000004,1.6,0.7000000000000001,7.0,-18.0,6.4,-75.5,16
1070,17920.0,-1.0,-0.7000000000000001,-2.5,1.4000000000000001,0.7000000000000001,6.9,-13.200000000000003,2.9,-72.80000000000001,16
1071,17936.0,-1.4000000000000001,-0.5,-2.8000000000000003,1.0,1.0,6.6000000000000005,-7.0,-8.3,-68.5,16
1072,17957.0,-1.3,-0.4,-2.9000000000000004,1.1,1.1,6.5,-5.500000000000001,-22.5,-63.30000000000001,16
1073,17975.0,-1.2000000000000002,-0.2,-2.6,1.2000000000000002,1.3,6.800000000000001,-11.8,-21.8,-59.300000000000004,16
1074,17986.0,-1.3,-0.1,-2.5,1.1,1.5,6.9,-15.8,-17.300000000000004,-57.1,16
1075,18003.0,-1.4000000000000001,0.4,-2.3000000000000003,1.1,2.0,7.1000000000000005,-26.6,-5.300000000000001,-50.1,16
1076,18019.0,-1.4000000000000001,0.5,-2.2,1.1,2.1,7.2,-32.7,-1.1,-46.9,16
1077,18036.0,-1.0,1.0,-1.5,1.4000000000000001,2.5,7.9,-43.50000000000001,-2.1,-41.4,16
1078,18053.0,-0.5,1.3,-0.1,2.0,2.7,9.3,-45.2,-12.0,-38.7,16
1079,18071.0,-0.1,1.4000000000000001,0.8,2.4000000000000004,2.7,10.200000000000001,-35.0,-16.200000000000003,-37.300000000000004,16
1080,18088.0,-0.1,1.5,1.1,2.4000000000000004,2.7,10.5,-28.800000000000004,-12.5,-35.9,16
1081,18103.0,0.0,1.8,1.1,2.5,2.9000000000000004,10.5,-19.5,-0.9000000000000001,-28.900000000000002,16
1082,18120.0,0.1,2.0,1.0,2.6,3.1,10.5,-16.700000000000003,2.4000000000000004,-24.7,16
1083,18136.0,0.6000000000000001,2.3000000000000003,1.3,3.1,3.4000000000000004,10.8,-14.100000000000001,-1.5,-20.900000000000002,16
1084,18153.0,1.1,2.4000000000000004,2.2,3.6,3.5,11.600000000000001,-11.700000000000001,-9.700000000000001,-24.0,16
1085,18171.0,1.3,2.1,2.7,3.8000000000000003,3.2,12.100000000000001,-2.4000000000000004,-8.600000000000001,-30.5,16
1086,18186.0,1.2000000000000002,2.1,2.4000000000000004,3.7,3.2,11.9,3.5,-2.1,-31.9,16
1087,18204.0,1.0,2.1,2.1,3.2,3.5,11.100000000000001,6.9,6.2,-31.0,16
1088,18221.0,0.8,2.4000000000000004,1.7000000000000002,3.2,3.6,11.200000000000001,1.9,3.9,-30.4,16
1089,18236.0,1.4000000000000001,1.8,2.8000000000000003,3.8000000000000003,3.0,12.200000000000001,-13.3,-6.8,-34.2,16
1090,18254.0,1.6,0.30000000000000004,4.0,4.0,1.5,13.4,-19.200000000000003,-8.2,-40.800000000000004,16
1091,18269.0,1.0,-0.5,4.2,3.5,0.7000000000000001,13.700000000000001,-16.900000000000002,-5.2,-40.6,16
1092,18286.0,0.5,-1.1,3.8000000000000003,3.0,0.0,13.3,-1.9,7.1000000000000005,-31.799999999999997,16
1093,18303.0,0.4,-1.2000000000000002,2.7,2.8000000000000003,0.0,12.200000000000001,20.0,11.3,-15.399999999999999,16
1094,18325.0,0.4,-1.1,1.3,2.7,0.1,10.700000000000001,38.300000000000004,2.2,-3.2,16
1095,18353.0,0.6000000000000001,-0.9,-0.30000000000000004,3.0,0.6000000000000001,9.1,48.0,-19.1,1.1,16
1096,18372.0,0.6000000000000001,-0.7000000000000001,-0.8,3.1,0.9,8.5,42.1,-25.200000000000003,-3.0,16
1097,18386.0,0.5,-0.7000000000000001,-0.9,3.1,1.0,8.4,28.700000000000003,-28.700000000000003,-9.2,16
1098,18412.0,0.2,-1.1,-0.2,2.9000000000000004,0.7000000000000001,9.0,1.8000000000000003,-22.000000000000004,-18.5,16
1099,18419.0,0.2,-1.1,-0.2,2.9000000000000004,0.7000000000000001,9.0,1.8000000000000003,-22.000000000000004,-18.5,16
1100,18436.0,-0.30000000000000004,-1.3,-0.30000000000000004,2.4000000000000004,0.5,8.9,-1.7,-10.299999999999999,-20.599999999999998,16
1101,18453.0,-0.8,-1.2000000000000002,-1.1,1.9000000000000001,0.6000000000000001,8.200000000000001,7.699999999999999,-3.2,-16.8,16
1102,18474.0,-1.1,-0.9,-1.9000000000000001,1.6,0.9,7.300000000000001,19.200000000000003,-6.0,-10.700000000000001,16
1103,18486.0,-1.0,-0.8,-2.4000000000000004,1.7000000000000002,1.1,6.9,23.400000000000002,-9.8,-8.600000000000001,16
1104,18502.0,-0.8,-0.6000000000000001,-2.8000000000000003,1.9000000000000001,1.4000000000000001,6.4,27.700000000000003,-19.6,-8.0,16
1105,18525.0,-0.8,-0.4,-2.9000000000000004,2.1,1.6,6.300000000000001,27.0,-27.6,-11.000000000000002,16
1106,18541.0,-0.6000000000000001,-0.4,-2.8000000000000003,2.3000000000000003,1.8,6.300000000000001,20.7,-27.2,-13.000000000000002,16
1107,18554.0,-0.5,-0.30000000000000004,-2.7,2.4000000000000004,1.9000000000000001,6.4,16.5,-23.2,-13.6,16
1108,18573.0,-0.6000000000000001,0.1,-2.4000000000000004,2.4000000000000004,2.3000000000000003,6.7,5.300000000000001,-12.5,-17.300000000000004,16
1109,18592.0,-0.5,0.2,-1.9000000000000001,2.5,2.5,7.2,-3.0,-8.3,-22.700000000000003,16
1110,18603.0,-0.7000000000000001,0.4,-1.6,2.3000000000000003,2.7,7.5,-3.3000000000000007,-7.200000000000001,-24.599999999999998,16
1111,18619.0,-0.7000000000000001,0.6000000000000001,-1.5,2.3000000000000003,2.9000000000000004,7.5,-2.3,-7.400000000000001,-25.5,16
1112,18646.0,-0.7000000000000001,1.0,-1.1,2.3000000000000003,3.3000000000000003,7.9,0.0,-1.5,-26.6,16
1113,18652.0,-0.7000000000000001,1.0,-1.1,2.3000000000000003,3.4000000000000004,8.0,0.0,-1.5,-26.6,16
1114,18674.0,-0.7000000000000001,1.1,-1.0,2.2,3.5,8.0,2.3,-1.8000000000000003,-29.900000000000006,16
1115,18686.0,-0.8,1.3,-1.0,2.2,3.7,8.0,1.1,-6.2,-30.3,16
1116,18702.0,-0.6000000000000001,1.6,-0.4,2.3000000000000003,4.0,8.6,-9.4,-19.300000000000004,-30.1,16
1117,18719.0,-0.5,1.7000000000000002,0.0,2.5,4.1000000000000005,9.1,-17.400000000000002,-25.0,-31.400000000000002,16
1118,18736.0,-0.30000000000000004,1.9000000000000001,1.2000000000000002,2.7,4.3,10.200000000000001,-36.2,-24.5,-38.1,16
1119,18752.0,-0.4,1.8,2.2,2.7,4.1000000000000005,11.200000000000001,-54.800000000000004,-10.700000000000001,-45.7,16
1120,18772.0,-0.4,1.6,3.5,2.7,3.8000000000000003,12.600000000000001,-74.2,-14.600000000000001,-49.1,16
1121,18786.0,-0.4,1.2000000000000002,4.6000000000000005,2.7,3.3000000000000003,13.700000000000001,-80.0,-23.0,-49.800000000000004,16
1122,18802.0,0.1,0.4,6.5,3.2,2.3000000000000003,15.600000000000001,-66.4,-36.0,-43.6,16
1123,18819.0,0.2,0.1,6.7,3.4000000000000004,1.9000000000000001,15.8,-46.50000000000001,-35.5,-37.7,16
1124,18842.0,0.4,-0.1,4.2,3.7,1.7000000000000002,13.200000000000001,7.8,-13.399999999999999,-16.900000000000002,16
1125,18852.0,0.5,-0.2,3.5,3.9000000000000004,1.6,12.600000000000001,12.200000000000001,-8.3,-13.5,16
1126,18872.0,0.8,-0.4,1.8,4.1000000000000005,1.5,10.8,22.6,9.5,-2.8,16
1127,18886.0,0.8,-0.6000000000000001,0.7000000000000001,4.1000000000000005,1.3,9.700000000000001,26.400000000000006,13.100000000000001,0.2,16
1128,18903.0,0.9,-0.8,-0.30000000000000004,4.1000000000000005,1.1,8.8,36.300000000000004,8.5,5.4,16
1129,18919.0,0.8,-0.8,-0.8,4.1000000000000005,1.2000000000000002,8.3,42.3,2.5,7.699999999999999,16
1130,18942.0,0.8,-0.8,-1.8,3.8000000000000003,1.4000000000000001,6.7,50.8,-13.3,8.0,16
1131,18953.0,0.4,-0.7000000000000001,-2.6,3.7,1.6,6.4,46.9,-15.399999999999999,5.8,16
1132,18970.0,0.1,-0.6000000000000001,-2.9000000000000004,3.4000000000000004,1.8,6.0,39.1,-16.200000000000003,2.5,16
1133,18986.0,-0.30000000000000004,-0.6000000000000001,-2.8000000000000003,3.0,1.8,6.0,14.400000000000002,-15.100000000000001,-5.0,16
1134,19003.0,-0.5,-0.6000000000000001,-2.7,2.9000000000000004,1.9000000000000001,6.2,0.7,-12.5,-9.0,16
1135,19025.0,-1.7000000000000002,-0.7000000000000001,-1.7000000000000002,1.7000000000000002,1.8,7.1000000000000005,-23.099999999999998,1.1,-17.7,16
1136,19041.0,-2.4000000000000004,-0.7000000000000001,-1.7000000000000002,1.0,1.7000000000000002,7.2,-20.0,9.600000000000001,-13.900000000000002,16
1137,19056.0,-2.6,-0.5,-1.7000000000000002,0.7000000000000001,1.8,7.2,-15.299999999999999,9.3,-8.4,16
1138,19072.0,-2.8000000000000003,-0.30000000000000004,-1.9000000000000001,0.6000000000000001,2.2,7.0,-4.1,-1.0,4.9,16
1139,19086.0,-2.5,0.2,-1.9000000000000001,0.8,2.5,7.0,-0.7,-8.3,9.899999999999999,16
1140,19109.0,-2.2,0.30000000000000004,-1.9000000000000001,1.2000000000000002,2.7,7.1000000000000005,0.30000000000000004,-14.0,14.5,16
1141,19119.0,-2.2,0.30000000000000004,-1.8,1.2000000000000002,2.7,7.1000000000000005,-2.1,-11.900000000000002,15.299999999999999,16
1142,19151.0,-1.8,0.30000000000000004,-0.9,1.7000000000000002,2.5,8.0,-15.2,1.2000000000000002,21.0,16
1143,19156.0,-1.8,0.30000000000000004,-0.9,1.7000000000000002,2.5,8.0,-15.2,1.2000000000000002,21.0,16
1144,19169.0,-1.5,0.30000000000000004,-0.5,2.1,2.5,8.700000000000001,-15.700000000000001,0.4,22.4,16
1145,19186.0,-1.3,0.4,0.0,2.2,2.5,9.0,-12.7,-0.2,22.9,16
1146,19202.0,-1.4000000000000001,0.30000000000000004,0.1,2.1,2.3000000000000003,9.0,-10.200000000000001,8.899999999999999,24.7,16
1147,19219.0,-1.5,0.4,0.1,2.0,2.4000000000000004,9.0,-9.5,14.700000000000001,28.400000000000002,16
1148,19241.0,-1.4000000000000001,0.6000000000000001,0.2,2.1,2.6,9.1,-4.800000000000001,13.5,40.1,16
