,ms,accelX,accelY,accelZ,accelWithGX,accelWithGY,accelWithGZ,rotRateAlpha,rotRateBeta,rotRateGamma,interval
0,137.0,0.30000000000000004,-0.2,0.30000000000000004,1.7000000000000002,4.0,9.0,-0.4,-9.2,-10.0,16
1,154.0,0.2,-0.2,0.0,1.7000000000000002,4.0,8.700000000000001,8.899999999999999,-7.699999999999999,-5.300000000000001,16
2,170.0,0.2,-0.2,-0.1,1.7000000000000002,4.0,8.6,8.899999999999999,-9.100000000000001,-5.300000000000001,16
3,189.0,0.0,-0.30000000000000004,-0.1,1.4000000000000001,3.9000000000000004,8.6,6.4,-4.6,-4.800000000000001,16
4,205.0,-0.2,-0.4,-0.1,1.3,3.9000000000000004,8.6,5.4,-3.4,-3.9,16
5,220.0,-0.30000000000000004,-0.4,0.2,1.3,3.8000000000000003,8.9,5.0,-3.7000000000000006,-1.3,16
6,237.0,-0.2,-0.5,0.1,1.3,3.8000000000000003,8.8,10.0,-1.6,0.9000000000000001,16
7,253.0,-0.30000000000000004,-0.4,-0.1,1.3,3.9000000000000004,8.6,12.5,2.0,1.8000000000000003,16
8,270.0,-0.4,-0.4,-0.7000000000000001,1.1,3.9000000000000004,8.0,13.8,7.300000000000001,3.5,16
9,287.0,-0.30000000000000004,-0.4,-1.2000000000000002,1.2000000000000002,3.9000000000000004,7.5,11.4,8.899999999999999,5.6,16
10,304.0,-0.30000000000000004,-0.4,-1.5,1.2000000000000002,3.9000000000000004,7.2,7.400000000000001,8.2,6.600000000000001,16
11,320.0,-0.1,-0.5,-1.4000000000000001,1.4000000000000001,3.9000000000000004,7.2,5.2,3.6000000000000005,7.200000000000001,16
12,337.0,0.1,-0.5,-1.4000000000000001,1.6,3.9000000000000004,7.300000000000001,2.5,-0.8,7.8,16
13,354.0,0.4,-0.5,-0.8,1.9000000000000001,3.9000000000000004,7.800000000000001,-3.8,-3.1,5.9,16
14,370.0,0.30000000000000004,-0.7000000000000001,-0.4,1.8,3.7,8.3,-4.2,1.6,4.800000000000001,16
15,387.0,0.4,-0.6000000000000001,-0.4,1.9000000000000001,3.7,8.3,-1.4,3.6000000000000005,5.0,16
16,404.0,0.5,-0.6000000000000001,-0.6000000000000001,2.0,3.8000000000000003,7.6000000000000005,2.4000000000000004,10.5,3.8,16
17,420.0,0.4,-0.4,-1.4000000000000001,1.9000000000000001,3.9000000000000004,7.300000000000001,1.6,14.700000000000001,3.3000000000000007,16
18,437.0,0.30000000000000004,-0.30000000000000004,-1.4000000000000001,1.8,4.1000000000000005,7.300000000000001,-5.6,19.799999999999997,6.699999999999999,16
19,453.0,0.30000000000000004,-0.30000000000000004,-1.3,1.7000000000000002,4.1000000000000005,7.4,-10.200000000000001,17.7,10.200000000000001,16
20,470.0,0.4,-0.4,-1.2000000000000002,1.8,3.9000000000000004,7.5,-16.200000000000003,23.400000000000002,15.100000000000001,16
21,487.0,0.2,-0.2,-0.8,1.5,4.0,8.0,-26.799999999999997,25.0,13.399999999999999,16
22,504.0,0.30000000000000004,-0.1,-0.1,1.6,4.1000000000000005,8.700000000000001,-40.2,13.3,3.8,16
23,520.0,0.30000000000000004,0.0,-0.1,1.7000000000000002,4.0,9.200000000000001,-39.50000000000001,8.100000000000001,0.1,16
24,537.0,0.4,-0.2,0.9,1.6,3.8000000000000003,9.8,-35.699999999999996,4.5,-2.2,16
25,554.0,0.2,-0.30000000000000004,1.2000000000000002,1.5,3.6,10.100000000000001,-23.5,2.6,-2.3,16
26,570.0,0.0,0.0,1.2000000000000002,1.2000000000000002,3.9000000000000004,10.100000000000001,-12.4,0.9000000000000001,-0.8,16
27,587.0,-0.1,0.1,1.2000000000000002,1.2000000000000002,3.9000000000000004,10.100000000000001,-7.9,-3.1,1.7,16
28,603.0,0.2,0.1,1.0,1.4000000000000001,3.9000000000000004,10.0,-3.8,-0.1,2.9,16
29,620.0,0.2,0.1,1.0,1.5,4.0,10.0,-3.5,-0.6000000000000001,2.4000000000000004,16
30,637.0,0.30000000000000004,0.2,0.9,1.6,3.9000000000000004,9.700000000000001,-3.4,-2.5,0.7,16
31,654.0,0.5,0.1,0.6000000000000001,1.7000000000000002,3.9000000000000004,9.600000000000001,-3.9,-0.1,-0.7,16
32,670.0,0.5,0.1,0.5,1.7000000000000002,3.8000000000000003,9.4,-4.300000000000001,3.0,-2.6,16
33,687.0,0.2,-0.2,0.4,1.5,3.5,9.4,-5.1000000000000005,2.3,-2.4000000000000004,16
34,703.0,0.0,-0.4,0.5,1.3,3.3000000000000003,9.5,-8.3,6.8,3.3000000000000007,16
35,720.0,0.0,-0.4,0.5,1.4000000000000001,3.3000000000000003,9.5,-10.0,7.9,7.400000000000001,16
36,737.0,0.30000000000000004,-0.30000000000000004,0.6000000000000001,1.6,3.4000000000000004,9.600000000000001,-10.200000000000001,7.500000000000001,10.4,16
37,754.0,0.9,0.1,1.0,2.1,3.7,10.0,-4.800000000000001,5.300000000000001,9.899999999999999,16
38,770.0,0.8,0.0,0.7000000000000001,2.0,3.6,9.700000000000001,7.500000000000001,8.0,3.6000000000000005,16
39,787.0,0.1,-0.1,0.7000000000000001,1.3,3.6,9.8,17.799999999999997,17.7,-1.5,16
40,803.0,-0.2,-0.6000000000000001,-0.4,1.0,3.1,8.6,29.200000000000003,44.10000000000001,5.500000000000001,16
41,820.0,-0.1,-0.6000000000000001,-0.4,1.0,3.1,8.0,28.600000000000005,50.3,9.600000000000001,16
42,837.0,0.0,-0.6000000000000001,-1.2000000000000002,0.7000000000000001,3.6,7.9,15.000000000000002,38.400000000000006,17.1,16
43,853.0,-0.30000000000000004,-0.30000000000000004,-1.0,0.5,3.6,8.0,5.9,27.5,20.7,16
44,870.0,-0.1,0.1,0.1,0.8,3.9000000000000004,9.0,-7.300000000000001,-3.3000000000000007,20.400000000000002,16
45,887.0,0.6000000000000001,-0.1,0.6000000000000001,1.5,3.7,9.600000000000001,-5.300000000000001,-4.6,20.7,16
46,903.0,0.5,-0.1,0.6000000000000001,1.3,3.9000000000000004,9.8,1.0,-0.1,21.900000000000002,16
47,920.0,0.4,0.1,0.8,1.1,3.7,9.700000000000001,6.0,6.9,20.5,16
48,937.0,0.2,-0.4,0.30000000000000004,1.1,3.4000000000000004,9.3,12.299999999999999,20.900000000000002,18.1,16
49,953.0,2.0,-0.6000000000000001,-0.30000000000000004,2.9000000000000004,3.2,8.700000000000001,19.200000000000003,39.2,13.900000000000002,16
50,971.0,-0.30000000000000004,-0.7000000000000001,-0.1,0.5,3.2,8.8,19.5,23.700000000000003,14.100000000000001,16
51,987.0,0.5,-1.0,-0.4,1.3,2.9000000000000004,8.6,11.3,5.7,12.9,16
52,1003.0,0.8,-0.8,-0.9,1.6,3.2,8.0,-0.9000000000000001,-5.500000000000001,9.3,16
53,1020.0,1.2000000000000002,-1.0,-1.1,2.0,3.0,7.800000000000001,-7.400000000000001,-2.0,7.699999999999999,16
54,1037.0,1.1,-1.0,-1.2000000000000002,2.0,2.9000000000000004,7.7,-21.7,4.1,1.2000000000000002,16
55,1053.0,1.0,-1.0,-1.2000000000000002,1.9000000000000001,2.9000000000000004,7.800000000000001,-28.600000000000005,4.800000000000001,-1.0,16
56,1070.0,0.5,-1.1,-0.6000000000000001,1.3,2.7,8.4,-39.699999999999996,1.5,-3.6000000000000005,16
57,1088.0,0.30000000000000004,-1.2000000000000002,0.5,1.1,2.5,9.5,-37.6,8.3,-2.6,16
58,1105.0,0.1,-0.7000000000000001,0.5,0.8,2.8000000000000003,9.600000000000001,-20.5,1.8000000000000003,0.5,16
59,1123.0,0.0,-0.5,0.30000000000000004,0.8,3.0,9.4,-9.100000000000001,-0.6000000000000001,1.2000000000000002,16
60,1138.0,-0.1,-0.4,0.2,0.7000000000000001,3.1,9.3,-4.7,-5.8,2.0,16
61,1160.0,0.2,-0.30000000000000004,-0.1,1.1,3.1,9.0,-4.9,-10.700000000000001,4.300000000000001,16
62,1172.0,0.2,-0.30000000000000004,0.0,1.1,3.2,9.200000000000001,-9.100000000000001,-11.700000000000001,2.5,16
63,1187.0,0.30000000000000004,-0.30000000000000004,0.5,1.2000000000000002,3.1,9.700000000000001,-15.899999999999999,-10.600000000000001,0.0,16
64,1204.0,0.4,-0.30000000000000004,0.6000000000000001,1.3,3.1,9.8,-17.1,-10.299999999999999,-0.8,16
65,1228.0,0.6000000000000001,0.0,1.2000000000000002,1.6,3.3000000000000003,10.4,-13.100000000000001,-22.3,-3.4,16
66,1237.0,0.6000000000000001,0.0,1.2000000000000002,1.6,3.3000000000000003,10.4,-13.100000000000001,-22.3,-3.4,16
67,1254.0,0.8,0.2,1.1,1.8,3.5,10.200000000000001,-0.6000000000000001,-23.0,-9.100000000000001,16
68,1272.0,0.7000000000000001,0.2,0.5,1.8,3.5,9.700000000000001,9.100000000000001,-13.399999999999999,-16.200000000000003,16
69,1287.0,0.30000000000000004,0.30000000000000004,0.30000000000000004,1.5,3.6,9.4,7.699999999999999,-11.6,-17.400000000000002,16
70,1305.0,0.30000000000000004,0.2,0.0,1.5,3.5,9.200000000000001,7.400000000000001,-15.2,-18.1,16
71,1326.0,0.30000000000000004,0.30000000000000004,-0.2,1.5,3.7,9.0,3.4,-23.099999999999998,-20.8,16
72,1339.0,0.30000000000000004,0.30000000000000004,-0.2,1.5,3.7,9.0,3.4,-23.099999999999998,-20.8,16
73,1357.0,0.4,0.30000000000000004,0.5,1.7000000000000002,3.6,9.700000000000001,-9.4,-22.8,-23.800000000000004,16
74,1373.0,0.5,0.2,0.9,1.8,3.6,10.0,-10.8,-17.5,-23.900000000000006,16
75,1389.0,0.30000000000000004,0.30000000000000004,1.2000000000000002,1.4000000000000001,3.7,10.5,-5.300000000000001,-4.800000000000001,-21.6,16
76,1404.0,-0.2,0.4,1.2000000000000002,1.1,3.7,10.4,1.0,2.7,-18.900000000000002,16
77,1420.0,-0.4,0.5,0.2,0.9,3.9000000000000004,9.3,18.1,17.799999999999997,-12.600000000000001,16
78,1437.0,-0.1,1.0,-1.1,1.1,4.5,8.0,29.800000000000004,22.000000000000004,-12.299999999999999,16
79,1454.0,0.1,1.3,-1.4000000000000001,1.3,4.800000000000001,7.6000000000000005,27.9,15.399999999999999,-14.900000000000002,16
80,1476.0,0.5,1.4000000000000001,-1.6,1.5,5.0,7.9,2.5,-7.500000000000001,-24.400000000000002,16
81,1490.0,0.0,1.2000000000000002,-0.5,1.1,4.800000000000001,8.6,-7.500000000000001,-7.0,-25.1,16
82,1504.0,-0.2,1.0,0.30000000000000004,0.8,4.6000000000000005,9.4,-14.400000000000002,-2.9,-22.700000000000003,16
83,1521.0,-0.30000000000000004,0.9,0.9,0.7000000000000001,4.6000000000000005,10.3,-12.100000000000001,11.700000000000001,-13.700000000000001,16
84,1539.0,-0.30000000000000004,1.1,1.2000000000000002,0.8,4.7,10.3,-3.0,18.5,-10.1,16
85,1554.0,-0.1,1.4000000000000001,0.5,0.9,5.0,9.600000000000001,21.1,27.099999999999998,-7.9,16
86,1570.0,0.0,1.6,-0.5,0.8,5.300000000000001,8.6,37.6,25.1,-9.2,16
87,1587.0,0.0,1.4000000000000001,-1.3,0.7000000000000001,5.2,7.7,38.300000000000004,20.2,-13.8,16
88,1611.0,-0.30000000000000004,0.9,-1.2000000000000002,0.4,4.9,7.7,25.300000000000004,8.899999999999999,-17.7,16
89,1626.0,-0.2,0.4,-0.9,0.4,4.4,8.0,17.9,2.8,-17.7,16
90,1637.0,0.4,-0.4,-0.1,1.0,3.6,8.8,7.400000000000001,-5.8,-16.6,16
91,1654.0,0.7000000000000001,-0.7000000000000001,0.30000000000000004,1.4000000000000001,3.4000000000000004,9.200000000000001,4.1,-8.3,-17.200000000000003,16
92,1671.0,0.7000000000000001,-0.8,0.8,1.4000000000000001,3.3000000000000003,9.700000000000001,0.1,-7.699999999999999,-18.900000000000002,16
93,1687.0,0.2,-0.8,0.6000000000000001,0.8,3.3000000000000003,9.5,2.1,5.1000000000000005,-16.3,16
94,1712.0,-0.6000000000000001,-0.5,-0.1,0.0,3.6,8.8,6.2,14.600000000000001,-12.100000000000001,16
95,1722.0,-0.8,-0.4,-0.2,-0.2,3.7,8.700000000000001,6.600000000000001,10.700000000000001,-9.899999999999999,16
96,1738.0,-0.9,-0.4,-0.30000000000000004,-0.4,3.7,8.6,5.8,2.6,-7.699999999999999,16
97,1756.0,-1.0,-0.7000000000000001,-0.1,-0.30000000000000004,3.5,8.9,4.0,-10.700000000000001,2.8,16
98,1775.0,-0.9,-0.6000000000000001,0.0,-0.1,3.7,8.9,6.500000000000001,-7.8,4.800000000000001,16
99,1799.0,0.0,0.30000000000000004,-0.8,0.6000000000000001,4.5,8.1,21.200000000000003,2.6,3.9,16
100,1804.0,0.0,0.30000000000000004,-0.8,0.6000000000000001,4.5,8.1,21.200000000000003,2.6,3.9,16
101,1823.0,0.0,0.6000000000000001,-1.8,0.6000000000000001,4.800000000000001,7.1000000000000005,24.0,9.0,-6.2,16
102,1839.0,-0.5,0.5,-2.1,0.0,4.800000000000001,6.7,11.700000000000001,2.9,-15.000000000000002,16
103,1854.0,-0.9,0.2,-1.8,-0.4,4.5,7.0,1.4,-3.6000000000000005,-18.1,16
104,1873.0,-1.2000000000000002,-0.30000000000000004,-0.9,-0.7000000000000001,4.0,7.9,-16.700000000000003,-13.000000000000002,-16.4,16
105,1897.0,-1.1,-0.2,0.0,-0.5,4.1000000000000005,8.9,-21.500000000000004,-3.8,-10.1,16
106,1910.0,-1.0,0.1,0.30000000000000004,-0.5,4.4,9.200000000000001,-13.3,1.6,-8.600000000000001,16
107,1922.0,-1.0,0.2,0.2,-0.5,4.4,9.1,-7.6,4.5,-8.8,16
108,1937.0,-1.0,0.30000000000000004,-0.1,-0.5,4.4,8.700000000000001,-2.6,5.300000000000001,-9.4,16
109,1956.0,-1.2000000000000002,0.2,-0.6000000000000001,-0.6000000000000001,4.4,8.200000000000001,-2.6,-5.7,-5.0,16
110,1971.0,-0.9,0.30000000000000004,-0.5,-0.5,4.5,8.4,-6.1000000000000005,-9.8,-2.4000000000000004,16
111,1995.0,-0.8,0.4,-0.2,-0.1,4.6000000000000005,8.8,-11.2,-7.400000000000001,1.7,16
112,2004.0,-0.4,0.6000000000000001,0.2,0.1,4.7,9.1,-11.700000000000001,-1.7,2.3,16
113,2020.0,-0.2,0.8,0.2,0.30000000000000004,4.9,9.1,-6.600000000000001,5.7,1.6,16
114,2037.0,-0.2,0.8,-0.4,0.2,5.0,8.5,4.0,12.0,-2.0,16
115,2054.0,-0.5,0.9,-0.7000000000000001,-0.1,5.0,8.200000000000001,8.899999999999999,12.9,-6.4,16
116,2071.0,-0.9,0.9,-1.1,-0.6000000000000001,5.0,7.800000000000001,8.2,6.4,-9.899999999999999,16
117,2095.0,-1.2000000000000002,0.8,-0.9,-0.9,5.0,7.9,3.7000000000000006,-0.7,-7.0,16
118,2104.0,-1.1,0.8,-0.8,-0.8,5.0,8.1,1.9,-3.7000000000000006,-4.1,16
119,2122.0,-0.8,0.9,-0.5,-0.5,5.1000000000000005,8.3,1.9,-4.0,-0.30000000000000004,16
120,2139.0,-0.7000000000000001,0.9,-0.5,-0.4,5.1000000000000005,8.3,2.3,-2.0,0.7,16
121,2155.0,-0.7000000000000001,1.0,-0.5,-0.4,5.300000000000001,8.3,1.5,1.4,1.0,16
122,2170.0,-0.6000000000000001,1.1,-0.5,-0.4,5.300000000000001,8.3,1.2000000000000002,1.6,0.1,16
123,2201.0,-0.5,1.0,0.2,-0.30000000000000004,5.300000000000001,9.0,-1.1,-12.4,-0.4,16
124,2206.0,-0.5,0.9,0.5,-0.2,5.2,9.3,-2.0,-14.0,0.4,16
125,2221.0,-0.4,0.8,0.7000000000000001,-0.1,5.1000000000000005,9.5,-3.4,-13.6,1.2000000000000002,16
126,2238.0,-0.2,0.7000000000000001,1.1,0.1,5.0,9.9,-6.9,-8.899999999999999,4.0,16
127,2254.0,-0.2,0.8,1.3,0.1,5.1000000000000005,10.100000000000001,-7.400000000000001,-7.500000000000001,6.0,16
128,2270.0,-0.2,1.0,1.6,0.2,5.300000000000001,10.4,-2.0,-6.699999999999999,9.3,16
129,2294.0,-0.30000000000000004,1.5,1.2000000000000002,0.1,5.800000000000001,10.0,11.3,-0.9000000000000001,12.100000000000001,16
130,2305.0,0.0,1.5,0.5,0.4,5.800000000000001,9.3,18.700000000000003,2.3,12.200000000000001,16
131,2321.0,0.30000000000000004,1.2000000000000002,-0.7000000000000001,0.7000000000000001,5.5,8.1,21.0,-1.4,7.300000000000001,16
132,2337.0,0.30000000000000004,1.0,-0.9,0.7000000000000001,5.4,7.800000000000001,12.600000000000001,-5.9,2.8,16
133,2354.0,0.1,-0.30000000000000004,0.0,0.6000000000000001,4.2,8.8,-19.6,-16.6,-5.2,16
134,2370.0,-0.30000000000000004,-1.4000000000000001,1.8,0.2,2.9000000000000004,10.600000000000001,-56.800000000000004,-25.8,-1.4,16
135,2387.0,-0.6000000000000001,-1.8,2.8000000000000003,-0.1,2.0,12.700000000000001,-55.0,-26.799999999999997,13.900000000000002,16
136,2408.0,0.1,-2.1,4.3,0.8,1.9000000000000001,13.200000000000001,-16.4,-22.2,34.60000000000001,16
137,2420.0,0.9,-1.8,3.6,1.7000000000000002,2.2,12.600000000000001,12.299999999999999,-13.700000000000001,42.3,16
138,2438.0,2.2,-1.0,1.2000000000000002,3.1,3.1,10.100000000000001,62.6,0.2,41.199999999999996,16
139,2454.0,2.7,-0.7000000000000001,-0.1,3.5,3.4000000000000004,8.8,75.2,-2.0,35.0,16
140,2471.0,3.0,-0.8,-2.2,3.9000000000000004,3.6,6.5,70.4,-6.0,16.4,16
141,2487.0,2.0,-1.3,-3.1,3.0,3.2,5.5,35.5,3.5,-8.600000000000001,16
142,2509.0,0.30000000000000004,-2.0,-2.6,1.2000000000000002,2.7,6.0,-17.200000000000003,17.6,-25.0,16
143,2521.0,-0.2,-2.3000000000000003,-2.1,0.6000000000000001,2.3000000000000003,6.5,-31.7,20.400000000000002,-24.0,16
144,2537.0,-0.5,-2.4000000000000004,-1.6,0.30000000000000004,2.1,7.1000000000000005,-39.699999999999996,21.0,-20.900000000000002,16
145,2556.0,-0.9,-2.2,-0.9,-0.1,2.2,7.800000000000001,-37.400000000000006,15.899999999999999,-12.8,16
146,2572.0,-1.0,-1.8,-0.7000000000000001,-0.30000000000000004,2.5,8.1,-22.000000000000004,1.2000000000000002,-3.7000000000000006,16
147,2590.0,-0.8,-1.6,-0.7000000000000001,0.1,2.9000000000000004,8.1,-7.9,-16.200000000000003,4.5,16
148,2615.0,-0.1,-0.8,-0.7000000000000001,0.6000000000000001,3.5,8.1,-4.4,-19.700000000000003,10.299999999999999,16
149,2622.0,0.1,-0.5,-0.6000000000000001,0.9,3.8000000000000003,8.200000000000001,-7.400000000000001,-18.4,11.2,16
150,2638.0,0.5,-0.2,-0.30000000000000004,1.4000000000000001,4.0,8.5,-16.200000000000003,-6.0,11.8,16
151,2654.0,0.6000000000000001,-0.2,-0.1,1.4000000000000001,4.0,8.700000000000001,-19.700000000000003,2.3,10.5,16
152,2670.0,0.30000000000000004,-0.1,0.2,1.2000000000000002,4.1000000000000005,9.0,-19.799999999999997,9.4,4.9,16
153,2687.0,0.30000000000000004,-0.2,0.0,1.1,3.9000000000000004,8.9,-10.4,6.0,2.9,16
154,2708.0,0.30000000000000004,-0.1,-0.30000000000000004,1.1,3.9000000000000004,8.6,0.0,-0.2,4.2,16
155,2721.0,0.4,-0.1,-0.5,1.3,3.9000000000000004,8.4,3.3000000000000007,-2.1,5.0,16
156,2740.0,0.6000000000000001,-0.1,-0.6000000000000001,1.4000000000000001,4.0,8.3,4.5,-2.1,5.4,16
157,2758.0,0.7000000000000001,0.1,-0.7000000000000001,1.5,4.2,8.200000000000001,-1.6,1.3,3.0,16
158,2770.0,0.6000000000000001,0.2,-0.4,1.4000000000000001,4.3,8.4,-5.8,1.6,2.3,16
159,2787.0,0.6000000000000001,0.30000000000000004,0.0,1.5,4.3,8.9,-10.1,1.5,3.8,16
160,2817.0,0.8,0.5,0.2,1.7000000000000002,4.5,9.1,-4.9,7.200000000000001,3.5,16
161,2820.0,0.6000000000000001,0.7000000000000001,0.1,1.5,4.7,9.1,1.6,9.899999999999999,1.1,16
162,2838.0,0.5,0.8,-0.1,1.3,4.800000000000001,8.8,8.600000000000001,10.1,0.1,16
163,2857.0,0.6000000000000001,0.9,-0.30000000000000004,1.4000000000000001,4.9,8.6,10.1,8.600000000000001,-0.2,16
164,2871.0,0.7000000000000001,0.9,-0.30000000000000004,1.6,5.0,8.6,8.700000000000001,3.5,-1.2000000000000002,16
165,2893.0,1.1,0.9,0.1,2.0,5.0,9.0,4.6,-2.1,-3.8,16
166,2911.0,1.1,0.7000000000000001,0.8,2.0,4.800000000000001,9.600000000000001,0.30000000000000004,-1.0,-9.2,16
167,2921.0,1.1,0.7000000000000001,0.8,1.9000000000000001,4.6000000000000005,9.8,-0.8,0.7,-10.8,16
168,2937.0,0.9,0.30000000000000004,1.1,1.7000000000000002,4.5,10.0,-0.4,4.2,-11.5,16
169,2959.0,0.2,0.30000000000000004,1.1,0.6000000000000001,4.7,9.700000000000001,7.200000000000001,16.200000000000003,-8.3,16
170,2973.0,-0.2,0.7000000000000001,0.30000000000000004,0.6000000000000001,4.9,9.1,11.4,21.6,-4.300000000000001,16
171,2987.0,0.2,1.0,-0.7000000000000001,0.9,5.2,8.1,13.700000000000001,17.7,-0.1,16
172,3004.0,0.6000000000000001,1.2000000000000002,-0.9,1.3,5.4,8.0,5.6,1.3,-4.800000000000001,16
173,3020.0,1.1,0.30000000000000004,0.4,1.8,4.6000000000000005,9.200000000000001,-28.900000000000002,-42.400000000000006,-20.5,16
174,3039.0,1.0,-0.4,1.4000000000000001,1.5,2.7,11.600000000000001,-64.60000000000001,-56.300000000000004,-27.700000000000003,16
175,3055.0,0.0,-2.1,4.1000000000000005,0.9,1.9000000000000001,13.0,-72.0,-47.1,-26.000000000000004,16
176,3071.0,-1.1,-2.3000000000000003,4.9,-0.1,1.5,13.9,-50.1,-4.2,-7.699999999999999,16
177,3093.0,-0.6000000000000001,-1.4000000000000001,2.5,0.30000000000000004,2.3000000000000003,11.5,11.6,38.1,18.5,16
178,3114.0,-0.1,-0.30000000000000004,-0.30000000000000004,0.7000000000000001,3.5,8.700000000000001,63.4,38.60000000000001,25.8,16
179,3121.0,0.0,-0.4,-0.30000000000000004,0.8,4.1000000000000005,7.5,74.80000000000001,20.0,23.400000000000002,16
180,3137.0,0.0,0.30000000000000004,-2.3000000000000003,0.8,4.3,6.6000000000000005,73.5,-10.299999999999999,15.700000000000001,16
181,3157.0,-0.4,-0.5,-2.5,0.5,3.8000000000000003,6.300000000000001,22.000000000000004,-36.400000000000006,-3.1,16
182,3171.0,-0.6000000000000001,-0.9,-1.8,0.4,3.4000000000000004,6.9,-1.2000000000000002,-32.8,-5.8,16
183,3187.0,-0.7000000000000001,-1.1,-1.2000000000000002,0.4,3.0,8.3,-35.5,-16.900000000000002,-7.200000000000001,16
184,3208.0,-0.9,-1.4000000000000001,0.6000000000000001,0.2,2.7,9.5,-42.0,-2.3,-10.4,16
185,3225.0,-1.2000000000000002,-1.5,0.9,-0.4,2.4000000000000004,9.8,-36.8,-0.5,-11.2,16
186,3237.0,-1.6,-1.6,0.9,-0.6000000000000001,2.4000000000000004,9.8,-17.5,-2.1,-8.4,16
187,3254.0,-1.7000000000000002,-1.6,0.7000000000000001,-0.7000000000000001,2.4000000000000004,9.600000000000001,-6.300000000000001,-1.8000000000000003,-4.9,16
188,3272.0,-1.8,-1.2000000000000002,-0.1,-0.7000000000000001,2.7,8.9,12.299999999999999,2.2,3.6000000000000005,16
189,3290.0,-1.2000000000000002,-0.7000000000000001,-0.8,-0.2,3.3000000000000003,8.1,19.0,5.0,13.100000000000001,16
190,3307.0,-0.7000000000000001,-0.30000000000000004,-1.2000000000000002,0.30000000000000004,3.7,7.6000000000000005,14.600000000000001,4.5,13.100000000000001,16
191,3321.0,-0.6000000000000001,-0.2,-1.4000000000000001,0.4,3.9000000000000004,7.5,9.8,3.8,11.2,16
192,3337.0,-0.6000000000000001,0.0,-1.3,0.4,4.0,7.5,4.4,3.6000000000000005,9.4,16
193,3357.0,-0.7000000000000001,0.1,-1.0,0.2,4.2,8.3,-7.699999999999999,3.9,6.699999999999999,16
194,3373.0,-0.7000000000000001,0.2,-0.30000000000000004,0.30000000000000004,4.3,8.5,-7.699999999999999,4.300000000000001,7.500000000000001,16
195,3389.0,-0.4,0.4,0.0,0.6000000000000001,4.4,8.9,-2.3,2.6,7.500000000000001,16
196,3409.0,-0.2,0.4,0.4,0.8,4.4,9.3,1.1,-4.0,5.1000000000000005,16
197,3424.0,-0.2,0.5,0.6000000000000001,0.8,4.5,9.5,1.6,-6.600000000000001,4.800000000000001,16
198,3437.0,-0.1,0.4,0.9,0.9,4.4,9.700000000000001,4.6,-1.7,5.2,16
199,3454.0,-0.2,0.5,0.9,0.8,4.6000000000000005,9.700000000000001,6.600000000000001,2.8,5.7,16
200,3471.0,-0.1,0.6000000000000001,0.6000000000000001,0.9,4.6000000000000005,9.5,12.8,8.5,7.0,16
201,3487.0,0.0,0.6000000000000001,0.4,1.0,4.7,9.3,15.5,-2.1,5.300000000000001,16
202,3517.0,0.2,0.4,1.1,1.2000000000000002,4.6000000000000005,9.9,9.100000000000001,-15.299999999999999,4.2,16
203,3526.0,0.30000000000000004,0.4,1.3,1.3,4.6000000000000005,10.100000000000001,7.200000000000001,-11.3,4.6,16
204,3539.0,0.30000000000000004,0.4,1.3,1.3,4.6000000000000005,10.100000000000001,7.200000000000001,-11.3,4.6,16
205,3557.0,0.0,0.9,1.1,1.1,5.1000000000000005,9.9,13.5,7.500000000000001,7.200000000000001,16
206,3571.0,0.2,0.7000000000000001,0.5,1.3,4.9,9.3,21.200000000000003,14.200000000000001,6.4,16
207,3587.0,0.30000000000000004,0.5,-1.0,1.3,4.7,7.800000000000001,27.2,11.700000000000001,-0.1,16
208,3610.0,0.9,-0.6000000000000001,-0.5,1.9000000000000001,3.7,8.200000000000001,-5.7,-25.5,-14.600000000000001,16
209,3620.0,0.9,-0.6000000000000001,-0.5,1.8,2.9000000000000004,9.1,-30.000000000000004,-46.0,-19.0,16
210,3637.0,-0.1,-3.1,3.0,1.1,1.1,11.8,-62.199999999999996,-40.1,-11.5,16
211,3654.0,-0.30000000000000004,-3.5,3.6,1.0,0.7000000000000001,12.4,-59.20000000000001,-14.700000000000001,-0.6000000000000001,16
212,3670.0,0.1,-2.7,3.0,1.4000000000000001,1.3,11.9,-18.0,34.60000000000001,25.200000000000003,16
213,3688.0,1.5,-1.6,0.9,2.7,2.4000000000000004,9.8,40.7,39.50000000000001,34.2,16
214,3704.0,2.0,-1.1,-0.30000000000000004,3.1,2.9000000000000004,8.6,61.50000000000001,27.400000000000002,31.400000000000002,16
215,3728.0,2.4000000000000004,-0.5,-2.9000000000000004,3.6,3.8000000000000003,5.9,61.9,-8.600000000000001,7.500000000000001,16
216,3737.0,2.4000000000000004,-0.5,-2.9000000000000004,3.6,3.8000000000000003,5.9,61.9,-8.600000000000001,7.500000000000001,16
217,3755.0,1.1,-0.8,-2.7,1.6,3.5,6.6000000000000005,-21.200000000000003,-6.9,-24.900000000000002,16
218,3770.0,0.0,-1.2000000000000002,-1.3,1.2000000000000002,3.3000000000000003,7.4,-42.5,-2.9,-24.3,16
219,3788.0,-0.2,-1.3,0.2,0.9,3.0,9.0,-57.20000000000001,10.4,-19.0,16
220,3811.0,-0.30000000000000004,-0.9,0.9,0.8,3.3000000000000003,9.700000000000001,-36.300000000000004,8.700000000000001,-11.700000000000001,16
221,3821.0,-0.30000000000000004,-0.8,0.8,1.1,3.4000000000000004,9.5,-17.300000000000004,6.1000000000000005,-8.3,16
222,3837.0,0.4,-0.4,0.30000000000000004,1.6,3.8000000000000003,8.5,18.3,3.2,-7.6,16
223,3854.0,0.4,0.0,-0.9,1.4000000000000001,4.1000000000000005,7.9,27.5,0.9000000000000001,-9.3,16
224,3870.0,0.30000000000000004,0.0,-1.7000000000000002,1.3,4.2,7.1000000000000005,26.799999999999997,-2.4000000000000004,-10.4,16
225,3889.0,0.1,-0.2,-1.8,1.1,4.1000000000000005,6.9,11.700000000000001,0.8,-10.700000000000001,16
226,3910.0,-0.2,-0.1,-1.5,0.8,4.2,7.2,-5.1000000000000005,8.600000000000001,-9.3,16
227,3921.0,-0.2,-0.1,-1.5,0.8,4.2,7.2,-5.1000000000000005,8.600000000000001,-9.3,16
228,3937.0,-0.2,-0.1,-1.4000000000000001,0.8,4.3,7.5,-7.0,9.2,-6.300000000000001,16
229,3956.0,0.0,0.30000000000000004,-1.1,0.9,4.5,7.7,4.7,0.8,-5.7,16
230,3971.0,0.0,0.4,-1.0,0.9,4.7,7.800000000000001,7.400000000000001,-1.3,-5.8,16
231,3987.0,0.0,0.4,-1.0,0.9,4.7,7.800000000000001,7.400000000000001,-1.3,-5.8,16
232,4007.0,-0.1,0.5,-0.9,0.7000000000000001,5.0,7.9,8.3,3.5,-5.0,16
233,4024.0,-0.30000000000000004,1.0,-1.1,0.6000000000000001,5.300000000000001,7.7,7.400000000000001,13.3,-4.2,16
234,4037.0,-0.2,1.1,-1.1,0.6000000000000001,5.6000000000000005,7.9,2.5,13.6,-3.8,16
235,4055.0,-0.2,1.4000000000000001,-0.5,0.6000000000000001,5.800000000000001,8.200000000000001,-1.4,9.5,-4.7,16
236,4071.0,-0.1,1.0,0.7000000000000001,0.7000000000000001,5.4,9.4,-12.299999999999999,-4.1,-11.000000000000002,16
237,4091.0,-0.2,0.4,1.8,0.5,4.800000000000001,10.600000000000001,-18.900000000000002,-2.0,-11.900000000000002,16
238,4106.0,-0.5,0.30000000000000004,2.6,-0.30000000000000004,4.6000000000000005,12.0,-19.300000000000004,12.0,-7.1000000000000005,16
239,4126.0,-1.3,0.8,2.4000000000000004,-0.7000000000000001,5.1000000000000005,11.200000000000001,0.9000000000000001,49.4,6.8,16
240,4137.0,-1.3,0.8,2.4000000000000004,-0.7000000000000001,5.1000000000000005,11.200000000000001,0.9000000000000001,49.4,6.8,16
241,4154.0,-0.30000000000000004,1.1,0.5,0.2,5.4,9.3,26.5,58.7,15.100000000000001,16
242,4172.0,1.7000000000000002,1.0,0.6000000000000001,2.1,5.4,9.3,13.000000000000002,-3.8,7.699999999999999,16
243,4189.0,1.8,-0.8,2.6,2.3000000000000003,3.6,11.4,-29.900000000000006,-71.0,-12.9,16
244,4204.0,1.4000000000000001,-1.7000000000000002,3.8000000000000003,2.0,2.6,12.600000000000001,-47.2,-69.7,-20.5,16
245,4220.0,-0.30000000000000004,-2.6,4.7,0.4,1.5,13.5,-48.50000000000001,8.4,-17.5,16
246,4237.0,-1.0,-2.5,3.3000000000000003,-0.4,1.5,12.200000000000001,-14.900000000000002,58.400000000000006,0.30000000000000004,16
247,4254.0,-0.7000000000000001,-2.2,2.2,-0.2,1.8,11.200000000000001,3.1,59.60000000000001,8.4,16
248,4270.0,0.0,-1.7000000000000002,0.5,0.4,2.4000000000000004,9.4,28.800000000000004,22.700000000000003,16.700000000000003,16
249,4287.0,0.7000000000000001,-1.8,-0.8,1.0,2.3000000000000003,8.1,34.7,-17.7,15.899999999999999,16
250,4306.0,0.6000000000000001,-1.9000000000000001,-0.8,1.0,2.3000000000000003,8.0,19.300000000000004,-28.900000000000002,14.800000000000002,16
251,4322.0,0.5,-2.0,-0.8,0.9,2.4000000000000004,8.200000000000001,7.500000000000001,-25.1,16.900000000000002,16
252,4337.0,0.4,-1.7000000000000002,-0.4,1.0,2.5,8.4,-1.5,-16.700000000000003,19.799999999999997,16
253,4354.0,0.6000000000000001,-1.3,-0.6000000000000001,1.2000000000000002,2.9000000000000004,8.200000000000001,-2.4000000000000004,12.100000000000001,24.7,16
254,4371.0,0.4,-0.6000000000000001,-1.3,1.0,3.6,7.6000000000000005,17.0,22.5,22.700000000000003,16
255,4388.0,0.6000000000000001,-0.2,-2.2,1.1,4.1000000000000005,6.6000000000000005,33.50000000000001,9.600000000000001,18.5,16
256,4406.0,0.30000000000000004,0.1,-2.9000000000000004,0.9,4.5,5.9,35.1,-7.0,9.2,16
257,4428.0,0.1,0.0,-2.6,0.8,4.5,6.1000000000000005,20.8,-16.3,2.4000000000000004,16
258,4437.0,0.1,0.0,-2.6,0.9,4.4,6.6000000000000005,10.8,-17.9,-0.8,16
259,4454.0,0.30000000000000004,-0.1,-1.5,0.9,4.4,7.1000000000000005,2.1,-17.0,-4.0,16
260,4470.0,0.30000000000000004,-0.30000000000000004,-0.6000000000000001,1.0,4.2,8.1,-5.8,-6.1000000000000005,-11.1,16
261,4487.0,-0.2,-0.30000000000000004,-0.2,0.5,4.2,8.5,-2.8,3.2,-18.5,16
262,4505.0,-0.4,-0.30000000000000004,-0.2,0.30000000000000004,4.2,8.5,0.9000000000000001,6.300000000000001,-21.0,16
263,4521.0,-1.0,-0.1,-0.2,-0.4,4.4,8.5,6.1000000000000005,6.699999999999999,-22.5,16
264,4537.0,-1.1,0.0,0.0,-0.5,4.5,8.6,5.8,-0.8,-19.6,16
265,4555.0,-0.8,0.1,0.5,-0.2,4.6000000000000005,9.200000000000001,5.8,-6.9,-13.399999999999999,16
266,4572.0,-0.4,0.2,0.7000000000000001,0.2,4.7,9.3,10.1,1.4,-10.0,16
267,4587.0,-0.4,0.5,0.30000000000000004,0.1,5.1000000000000005,9.0,16.0,9.700000000000001,-8.4,16
268,4607.0,-0.4,0.6000000000000001,0.0,0.1,5.2,8.700000000000001,17.799999999999997,9.899999999999999,-8.0,16
269,4621.0,-0.4,0.7000000000000001,-0.1,0.1,5.4,8.5,14.5,2.1,-6.9,16
270,4637.0,-0.30000000000000004,0.7000000000000001,0.6000000000000001,0.2,5.4,9.200000000000001,5.6,-7.9,-5.4,16
271,4654.0,-0.4,0.7000000000000001,1.2000000000000002,0.1,5.4,9.8,1.4,-13.000000000000002,-4.4,16
272,4677.0,-0.2,1.2000000000000002,1.1,0.30000000000000004,5.9,9.700000000000001,6.500000000000001,12.600000000000001,4.800000000000001,16
273,4687.0,0.0,1.2000000000000002,0.6000000000000001,0.5,5.9,9.200000000000001,7.0,16.0,2.7,16
274,4704.0,0.30000000000000004,1.2000000000000002,0.2,0.8,6.0,8.8,-11.3,-0.30000000000000004,-7.200000000000001,16
275,4721.0,0.8,1.0,0.30000000000000004,1.6,4.6000000000000005,9.600000000000001,-31.3,-17.0,-15.100000000000001,16
276,4737.0,1.0,-1.3,2.2,1.5,3.4000000000000004,10.8,-53.2,-36.1,-20.599999999999998,16
277,4757.0,-0.4,-3.1,5.4,0.2,1.2000000000000002,14.200000000000001,-62.300000000000004,-21.900000000000002,-5.8,16
278,4770.0,-0.30000000000000004,-3.0,5.2,0.30000000000000004,1.4000000000000001,14.0,-38.400000000000006,-5.2,9.3,16
279,4787.0,1.3,-1.5,2.6,1.9000000000000001,2.8000000000000003,11.5,29.0,23.800000000000004,35.0,16
280,4808.0,2.8000000000000003,-0.1,-0.5,3.4000000000000004,4.2,8.3,77.7,12.4,33.50000000000001,16
281,4820.0,3.2,0.1,-1.9000000000000001,3.8000000000000003,4.5,6.800000000000001,85.1,-3.9,24.400000000000002,16
282,4841.0,2.8000000000000003,-0.4,-3.5,3.5,4.3,5.1000000000000005,52.300000000000004,-29.300000000000004,-7.699999999999999,16
283,4854.0,2.2,-1.0,-3.5,2.9000000000000004,3.8000000000000003,5.0,25.1,-26.400000000000006,-19.0,16
284,4870.0,0.7000000000000001,-1.7000000000000002,-2.1,1.4000000000000001,3.1,6.4,-29.500000000000004,-12.4,-30.4,16
285,4890.0,0.0,-2.0,-0.7000000000000001,0.7000000000000001,2.7,7.9,-55.0,3.1,-27.5,16
286,4905.0,0.0,-2.0,-0.7000000000000001,0.7000000000000001,2.7,7.9,-55.0,3.1,-27.5,16
287,4930.0,-0.4,-1.3,-0.4,0.2,3.1,8.3,-15.399999999999999,9.8,-11.1,16
288,4940.0,-0.4,-1.3,-0.4,0.2,3.1,8.3,-15.399999999999999,9.8,-11.1,16
289,4954.0,0.1,-0.6000000000000001,-2.0,0.6000000000000001,3.9000000000000004,6.7,24.400000000000002,-7.300000000000001,-7.500000000000001,16
290,4972.0,0.2,-0.5,-2.4000000000000004,0.7000000000000001,4.0,6.300000000000001,27.0,-13.8,-7.300000000000001,16
291,4994.0,0.30000000000000004,-0.4,-2.6,1.1,4.3,6.2,6.4,-11.3,-8.600000000000001,16
292,5003.0,0.5,-0.30000000000000004,-2.5,1.1,4.3,6.2,6.4,-11.3,-8.600000000000001,16
293,5020.0,0.5,-0.2,-2.1,1.1,4.6000000000000005,6.9,-10.1,-3.5,-10.0,16
294,5037.0,0.6000000000000001,0.2,-0.9,1.2000000000000002,4.7,7.800000000000001,-16.700000000000003,1.1,-12.299999999999999,16
295,5053.0,0.6000000000000001,0.30000000000000004,-0.6000000000000001,1.2000000000000002,4.9,8.1,-15.8,2.5,-13.8,16
296,5070.0,0.6000000000000001,0.6000000000000001,-0.30000000000000004,1.2000000000000002,5.1000000000000005,8.4,-9.100000000000001,5.300000000000001,-16.200000000000003,16
297,5093.0,0.30000000000000004,0.8,0.1,0.8,5.300000000000001,8.8,-4.2,4.4,-17.799999999999997,16
298,5108.0,0.0,1.0,0.5,0.5,5.5,9.200000000000001,0.1,3.4,-14.700000000000001,16
299,5120.0,-0.2,1.2000000000000002,0.6000000000000001,0.30000000000000004,5.6000000000000005,9.3,3.6000000000000005,5.8,-12.8,16
300,5138.0,0.0,1.3,0.5,0.4,5.800000000000001,9.1,7.300000000000001,11.4,-9.4,16
301,5156.0,0.7000000000000001,2.0,-0.4,1.1,6.5,8.3,6.500000000000001,12.0,-12.4,16
302,5171.0,0.8,2.0,-0.5,1.1,6.6000000000000005,8.200000000000001,0.30000000000000004,9.4,-17.0,16
303,5187.0,0.8,1.7000000000000002,-0.30000000000000004,1.0,6.0,8.8,-18.200000000000003,2.4000000000000004,-23.099999999999998,16
304,5211.0,0.2,0.9,1.7000000000000002,0.4,5.4,10.4,-35.1,-5.8,-25.200000000000003,16
305,5220.0,-0.6000000000000001,0.9,2.8000000000000003,-0.30000000000000004,5.4,11.5,-39.0,-4.6,-23.700000000000003,16
306,5237.0,-1.1,1.5,3.2,-0.8,5.800000000000001,11.9,-24.400000000000002,21.200000000000003,-10.4,16
307,5254.0,-0.5,1.6,2.4000000000000004,-0.30000000000000004,5.9,11.200000000000001,-10.1,34.7,-5.0,16
308,5270.0,0.1,1.7000000000000002,1.8,0.5,5.9,10.600000000000001,-4.2,17.300000000000004,-12.299999999999999,16
309,5287.0,0.4,-0.1,3.3000000000000003,0.4,4.1000000000000005,12.100000000000001,-26.300000000000004,-29.900000000000006,-21.900000000000002,16
310,5304.0,-0.2,-0.8,4.3,-0.1,3.4000000000000004,13.200000000000001,-34.2,-44.10000000000001,-24.200000000000003,16
311,5321.0,-1.3,-1.8,4.7,-1.1,2.4000000000000004,13.600000000000001,-14.900000000000002,-20.1,-18.900000000000002,16
312,5337.0,-1.7000000000000002,-1.9000000000000001,4.1000000000000005,-1.5,2.2,13.0,2.0,0.7,-8.700000000000001,16
313,5354.0,-1.6,-1.3,2.2,-1.4000000000000001,2.9000000000000004,11.100000000000001,30.1,27.6,15.000000000000002,16
314,5370.0,-0.7000000000000001,-0.7000000000000001,0.6000000000000001,-0.6000000000000001,3.6,9.5,37.6,8.600000000000001,19.6,16
315,5391.0,-0.30000000000000004,-1.0,-0.1,-0.2,3.4000000000000004,8.700000000000001,31.9,-12.100000000000001,13.100000000000001,16
316,5404.0,-0.4,-1.3,-0.2,-0.2,2.9000000000000004,8.700000000000001,19.300000000000004,-18.0,8.3,16
317,5421.0,-0.5,-1.8,0.1,-0.30000000000000004,2.7,8.8,15.000000000000002,-16.5,7.200000000000001,16
318,5437.0,-0.5,-1.9000000000000001,0.1,-0.2,2.5,8.700000000000001,18.5,-4.300000000000001,12.0,16
319,5454.0,-0.4,-1.9000000000000001,-0.5,-0.1,2.7,8.200000000000001,23.800000000000004,2.9,16.1,16
320,5471.0,-0.1,-1.4000000000000001,-1.5,0.2,3.2,7.1000000000000005,31.2,15.5,21.1,16
321,5487.0,0.1,-1.2000000000000002,-2.2,0.4,3.4000000000000004,6.4,28.200000000000003,11.900000000000002,19.1,16
322,5505.0,0.2,-1.3,-2.0,0.4,3.5,6.5,24.900000000000002,0.5,15.6,16
323,5521.0,0.2,-1.3,-2.0,0.5,3.4000000000000004,6.6000000000000005,25.4,-4.9,13.200000000000003,16
324,5540.0,0.1,-1.4000000000000001,-1.9000000000000001,0.4,3.4000000000000004,6.7,27.400000000000002,-7.1000000000000005,10.600000000000001,16
325,5554.0,0.0,-1.3,-1.8,0.30000000000000004,3.6,6.7,32.6,-3.9,7.9,16
326,5571.0,-0.1,-0.9,-1.9000000000000001,0.2,4.1000000000000005,6.5,34.0,5.4,6.8,16
327,5587.0,-0.30000000000000004,-0.7000000000000001,-1.8,0.0,4.4,6.6000000000000005,29.200000000000003,14.700000000000001,3.8,16
328,5603.0,-0.4,-0.6000000000000001,-1.7000000000000002,-0.1,4.6000000000000005,6.6000000000000005,26.400000000000006,12.8,2.6,16
329,5626.0,-0.30000000000000004,-0.5,-1.1,-0.1,4.7,7.2,19.700000000000003,-2.4000000000000004,2.3,16
330,5637.0,-0.30000000000000004,-0.4,-0.7000000000000001,0.0,4.9,7.5,19.9,-5.500000000000001,3.1,16
331,5654.0,-0.2,-0.1,-0.5,0.1,5.2,7.7,21.400000000000002,-5.4,3.1,16
332,5672.0,-0.4,0.4,-0.5,-0.1,5.800000000000001,7.7,25.200000000000003,3.6000000000000005,-0.2,16
333,5687.0,-0.7000000000000001,0.7000000000000001,-0.8,-0.4,6.1000000000000005,7.300000000000001,22.4,10.1,-3.1,16
334,5704.0,-0.7000000000000001,0.7000000000000001,-0.7000000000000001,-0.4,6.2,7.4,16.3,8.2,-3.7000000000000006,16
335,5720.0,-0.6000000000000001,0.7000000000000001,-0.4,0.1,6.1000000000000005,8.3,-0.2,-5.300000000000001,-1.8000000000000003,16
336,5740.0,0.30000000000000004,0.4,0.7000000000000001,0.6000000000000001,5.9,8.8,-7.8,-11.6,-1.5,16
337,5756.0,0.6000000000000001,0.6000000000000001,2.1,0.8,6.1000000000000005,10.3,-20.2,-6.9,0.0,16
338,5770.0,0.4,1.3,2.9000000000000004,0.7000000000000001,6.7,11.100000000000001,-10.299999999999999,11.000000000000002,1.3,16
339,5788.0,0.6000000000000001,0.5,1.5,0.8,5.9,9.600000000000001,3.2,23.400000000000002,-3.5,16
340,5805.0,0.8,0.0,0.9,1.0,5.4,9.1,-10.5,7.8,-7.1000000000000005,16
341,5821.0,1.1,-0.7000000000000001,1.5,1.3,4.7,9.700000000000001,-27.0,-9.600000000000001,-8.2,16
342,5837.0,0.7000000000000001,-1.7000000000000002,3.5,1.0,3.6,11.8,-44.10000000000001,-19.300000000000004,-2.7,16
343,5854.0,0.5,-2.0,4.0,0.7000000000000001,3.2,12.3,-34.7,-6.699999999999999,1.9,16
344,5871.0,0.30000000000000004,-1.7000000000000002,3.1,0.5,3.4000000000000004,11.4,2.1,8.700000000000001,13.6,16
345,5887.0,1.0,-1.2000000000000002,0.6000000000000001,1.3,4.0,8.9,29.600000000000005,5.2,23.700000000000003,16
346,5907.0,1.6,-1.1,-0.30000000000000004,1.8,4.2,8.0,32.5,-3.0,26.799999999999997,16
347,5926.0,2.8000000000000003,-0.9,-0.8,3.2,4.4,7.4,2.5,-24.8,14.600000000000001,16
348,5937.0,2.8000000000000003,-0.9,-0.8,3.2,4.4,7.4,2.5,-24.8,14.600000000000001,16
349,5953.0,2.2,-1.3,-0.30000000000000004,2.7,4.0,7.9,-14.100000000000001,-12.200000000000001,0.1,16
350,5971.0,0.7000000000000001,-1.1,-0.6000000000000001,1.2000000000000002,4.2,7.7,-15.6,13.200000000000003,-7.6,16
351,6000.0,-0.5,-1.0,-1.5,0.0,4.2,6.800000000000001,-4.1,21.300000000000004,-7.6,16
352,6006.0,-0.7000000000000001,-1.0,-1.7000000000000002,-0.30000000000000004,4.2,6.6000000000000005,0.0,9.700000000000001,-6.0,16
353,6020.0,-0.5,-0.9,-1.7000000000000002,-0.2,4.3,6.6000000000000005,4.0,-4.300000000000001,-2.8,16
354,6040.0,-0.1,-0.9,-1.5,0.8,4.4,6.9,10.0,-25.8,3.7000000000000006,16
355,6054.0,0.8,-0.7000000000000001,-1.3,1.2000000000000002,4.5,7.0,12.8,-27.400000000000002,3.1,16
356,6072.0,1.1,-0.6000000000000001,-1.4000000000000001,1.6,4.7,6.9,14.900000000000002,-14.800000000000002,-3.3000000000000007,16
357,6094.0,0.8,-0.6000000000000001,-1.6,1.4000000000000001,4.7,6.6000000000000005,9.5,14.100000000000001,-11.6,16
358,6105.0,0.30000000000000004,-0.6000000000000001,-1.9000000000000001,0.7000000000000001,4.7,6.300000000000001,5.500000000000001,24.5,-14.900000000000002,16
359,6120.0,0.2,-0.5,-1.8,0.5,4.800000000000001,6.4,4.800000000000001,21.0,-14.200000000000001,16
360,6137.0,0.0,-0.30000000000000004,-1.7000000000000002,0.4,5.1000000000000005,6.5,5.300000000000001,11.900000000000002,-13.399999999999999,16
361,6155.0,0.4,0.1,-1.5,0.7000000000000001,5.5,6.7,8.100000000000001,-5.500000000000001,-10.4,16
362,6171.0,0.7000000000000001,0.4,-0.9,1.0,5.800000000000001,7.2,4.9,-6.300000000000001,-10.200000000000001,16
363,6188.0,0.4,0.9,-0.1,0.7000000000000001,6.4,8.0,-0.5,6.2,-10.8,16
364,6205.0,0.2,1.2000000000000002,-0.1,0.4,6.6000000000000005,8.0,1.9,21.7,-10.1,16
365,6220.0,0.2,1.2000000000000002,-0.1,0.30000000000000004,6.800000000000001,7.800000000000001,3.6000000000000005,26.1,-11.6,16
366,6239.0,0.0,1.5,-0.9,0.2,7.0,7.300000000000001,-4.9,24.5,-15.000000000000002,16
367,6253.0,0.2,1.4000000000000001,-0.9,0.2,6.800000000000001,7.300000000000001,-12.7,20.3,-17.200000000000003,16
368,6270.0,0.2,0.7000000000000001,0.4,0.2,6.1000000000000005,8.5,-28.600000000000005,0.5,-21.7,16
369,6290.0,0.0,-0.4,1.7000000000000002,0.0,4.9,9.9,-32.5,-16.3,-20.7,16
370,6304.0,-0.6000000000000001,-0.7000000000000001,2.4000000000000004,-0.6000000000000001,4.5,10.700000000000001,-28.700000000000003,-14.5,-15.5,16
371,6320.0,-1.6,0.7000000000000001,2.2,-1.6,5.9,10.600000000000001,-8.2,27.0,7.300000000000001,16
372,6337.0,-1.0,1.4000000000000001,1.2000000000000002,-1.1,6.6000000000000005,9.5,7.300000000000001,48.400000000000006,16.200000000000003,16
373,6359.0,-0.2,2.0,-0.9,-0.4,7.2,7.4,-12.9,10.0,-0.9000000000000001,16
374,6374.0,0.0,0.8,0.4,-0.2,6.0,8.700000000000001,-35.599999999999994,-11.000000000000002,-5.7,16
375,6387.0,-0.7000000000000001,-1.8,3.1,-0.9,3.3000000000000003,11.4,-59.1,-46.300000000000004,-6.9,16
376,6404.0,-1.3,-2.0,3.6,-1.4000000000000001,3.0,12.100000000000001,-48.6,-32.300000000000004,-1.0,16
377,6424.0,-1.5,-1.3,3.1,-1.5,3.6,11.600000000000001,-11.1,6.0,9.899999999999999,16
378,6437.0,-0.8,-0.7000000000000001,0.9,-0.9,4.2,9.4,15.5,11.2,16.200000000000003,16
379,6457.0,-0.30000000000000004,-0.7000000000000001,0.0,0.1,4.1000000000000005,7.800000000000001,17.7,3.8,14.600000000000001,16
380,6470.0,0.4,-1.0,-1.0,0.4,4.0,7.5,7.0,-11.2,5.300000000000001,16
381,6493.0,0.6000000000000001,-1.2000000000000002,-0.30000000000000004,0.6000000000000001,3.8000000000000003,8.200000000000001,-14.200000000000001,-27.700000000000003,-0.2,16
382,6506.0,-0.1,-1.8,0.5,0.0,3.1,9.0,-26.9,-40.9,3.4,16
383,6523.0,0.30000000000000004,-1.9000000000000001,1.0,0.5,2.9000000000000004,9.5,-28.700000000000003,-18.700000000000003,3.3000000000000007,16
384,6537.0,-0.2,-1.8,1.1,0.0,3.0,9.600000000000001,-20.599999999999998,-5.500000000000001,9.0,16
385,6555.0,0.30000000000000004,-1.0,-0.1,0.8,4.2,7.7,12.299999999999999,19.5,23.6,16
386,6574.0,0.8,-0.1,-1.9000000000000001,1.0,4.7,6.7,29.500000000000004,12.0,22.000000000000004,16
387,6587.0,1.0,0.1,-2.5,1.1,5.1000000000000005,5.7,26.000000000000004,0.30000000000000004,15.000000000000002,16
388,6605.0,0.5,0.30000000000000004,-2.5,0.4,5.0,6.5,9.100000000000001,-16.4,8.100000000000001,16
389,6620.0,-0.2,0.0,-1.6,0.1,4.9,6.9,2.5,-20.2,5.9,16
390,6640.0,-0.1,-0.30000000000000004,-1.0,0.30000000000000004,4.7,7.5,-1.8000000000000003,-18.8,3.6000000000000005,16
391,6654.0,0.2,-0.2,-0.8,0.6000000000000001,4.800000000000001,7.7,-2.6,-18.5,2.0,16
392,6670.0,0.4,0.4,0.30000000000000004,0.9,5.300000000000001,8.700000000000001,-2.2,-15.899999999999999,-1.4,16
393,6687.0,0.4,-0.1,1.1,0.9,4.800000000000001,9.5,10.8,-5.6,-8.2,16
394,6704.0,0.4,-0.1,1.1,0.30000000000000004,4.800000000000001,9.600000000000001,10.8,-5.6,-8.2,16
395,6720.0,-1.0,0.2,0.8,-0.6000000000000001,5.300000000000001,9.200000000000001,40.2,-0.8,-17.6,16
396,6739.0,-0.7000000000000001,0.4,0.4,-0.30000000000000004,5.5,8.700000000000001,41.6,-2.3,-12.4,16
397,6754.0,0.0,0.9,0.1,0.4,6.2,8.4,34.60000000000001,3.2,-5.2,16
398,6770.0,0.2,1.3,0.30000000000000004,0.5,6.6000000000000005,8.5,23.700000000000003,10.8,-7.200000000000001,16
399,6787.0,0.1,0.9,0.6000000000000001,0.4,6.300000000000001,8.8,13.5,9.5,-15.8,16
400,6808.0,-0.1,0.30000000000000004,1.0,0.2,5.7,9.200000000000001,1.7,2.1,-23.400000000000002,16
401,6826.0,-0.2,-0.2,2.3000000000000003,0.0,5.2,10.5,-10.1,2.0,-21.1,16
402,6839.0,-0.7000000000000001,-0.1,3.0,-0.5,5.300000000000001,11.200000000000001,-11.2,5.6,-15.000000000000002,16
403,6854.0,-0.8,0.6000000000000001,3.2,-0.6000000000000001,6.0,11.4,-2.2,25.1,-0.8,16
404,6875.0,1.0,0.4,1.0,1.1,5.800000000000001,9.200000000000001,18.0,39.400000000000006,5.500000000000001,16
405,6894.0,0.9,0.5,0.30000000000000004,0.9,5.9,8.4,7.200000000000001,-3.2,-11.6,16
406,6909.0,1.0,-0.30000000000000004,0.7000000000000001,1.1,4.1000000000000005,9.4,-21.900000000000002,-32.6,-19.700000000000003,16
407,6922.0,1.1,-1.3,1.2000000000000002,0.8,3.4000000000000004,10.100000000000001,-31.400000000000002,-24.5,-17.5,16
408,6937.0,0.5,-2.6,2.4000000000000004,0.6000000000000001,2.8000000000000003,10.600000000000001,-32.9,-7.400000000000001,-11.4,16
409,6956.0,0.30000000000000004,-2.4000000000000004,2.1,0.4,2.9000000000000004,10.4,-17.9,13.399999999999999,3.3000000000000007,16
410,6970.0,0.9,-1.6,0.5,1.0,3.6,8.8,2.3,2.1,13.000000000000002,16
411,6988.0,0.9,-1.6,0.5,1.0,3.6,8.8,2.3,2.1,13.000000000000002,16
412,7008.0,2.1,-1.1,-1.0,2.3000000000000003,4.1000000000000005,7.300000000000001,-17.200000000000003,-27.700000000000003,6.1000000000000005,16
413,7021.0,2.1,-1.1,-1.0,2.0,4.0,7.6000000000000005,-22.700000000000003,-20.900000000000002,2.0,16
414,7037.0,0.6000000000000001,-1.4000000000000001,-0.7000000000000001,0.9,3.8000000000000003,7.6000000000000005,-20.5,2.2,-4.7,16
415,7054.0,0.1,-1.2000000000000002,-1.0,0.30000000000000004,3.9000000000000004,7.4,-15.8,11.900000000000002,-3.8,16
416,7071.0,0.0,-0.6000000000000001,-1.5,0.2,4.4,6.9,-8.700000000000001,15.700000000000001,0.0,16
417,7093.0,-0.1,-0.1,-1.9000000000000001,0.0,4.9,6.5,-4.5,15.100000000000001,-0.1,16
418,7106.0,-0.2,-0.1,-1.8,-0.1,4.9,6.6000000000000005,0.1,15.8,-3.4,16
419,7128.0,-0.7000000000000001,0.1,-2.5,-0.6000000000000001,5.2,5.9,12.100000000000001,8.600000000000001,-16.900000000000002,16
420,7144.0,-0.2,-0.2,-1.9000000000000001,-0.2,4.9,6.4,1.3,-8.5,-14.900000000000002,16
421,7158.0,-0.2,-0.30000000000000004,-1.6,-0.1,4.800000000000001,6.800000000000001,-4.2,-6.699999999999999,-16.5,16
422,7171.0,-0.2,-0.4,-1.2000000000000002,-0.2,4.7,7.2,-6.500000000000001,-5.7,-17.9,16
423,7187.0,-0.30000000000000004,-0.30000000000000004,-0.4,-0.30000000000000004,4.800000000000001,8.0,-7.8,-10.0,-18.200000000000003,16
424,7216.0,-0.4,-0.2,0.0,-0.5,5.0,8.700000000000001,-2.3,0.0,-15.6,16
425,7220.0,-0.5,0.0,0.30000000000000004,-0.5,5.0,8.700000000000001,-2.3,0.0,-15.6,16
426,7237.0,-0.1,0.5,0.7000000000000001,-0.2,5.5,9.1,0.6000000000000001,7.9,-1.7,16
427,7253.0,0.0,1.0,0.6000000000000001,-0.1,6.0,9.0,4.4,14.300000000000002,0.7,16
428,7270.0,-0.30000000000000004,1.6,0.0,-0.5,6.6000000000000005,8.4,7.400000000000001,24.400000000000002,-2.1,16
429,7287.0,-0.30000000000000004,1.5,-0.2,-0.5,6.6000000000000005,8.200000000000001,-3.1,31.0,-0.8,16
430,7303.0,-0.2,1.5,-0.2,-0.6000000000000001,6.5,8.9,-11.1,27.400000000000002,-1.5,16
431,7320.0,-0.30000000000000004,0.4,2.5,-0.6000000000000001,5.4,10.9,-11.700000000000001,-4.7,-4.5,16
432,7337.0,0.1,0.0,2.9000000000000004,-0.2,5.0,11.3,-3.4,-11.6,-2.8,16
433,7353.0,-0.1,0.1,3.1,-0.4,5.2,11.5,14.100000000000001,-5.1000000000000005,4.5,16
434,7370.0,-0.5,1.1,1.6,-0.7000000000000001,6.2,10.0,26.9,30.3,20.8,16
435,7387.0,-0.6000000000000001,1.7000000000000002,-0.7000000000000001,-0.9,6.9,7.6000000000000005,21.1,53.9,25.5,16
436,7403.0,-0.5,1.7000000000000002,-0.7000000000000001,-0.8,6.9,7.1000000000000005,7.6,44.10000000000001,20.2,16
437,7420.0,-0.2,1.3,-1.1,-0.5,5.5,8.200000000000001,-34.900000000000006,-10.5,-0.1,16
438,7437.0,-0.1,-1.8,3.2,-0.5,3.3000000000000003,11.600000000000001,-63.900000000000006,-47.60000000000001,-10.5,16
439,7453.0,-0.2,-2.3000000000000003,4.5,-0.5,2.6,13.0,-62.6,-51.2,-11.5,16
440,7470.0,-0.7000000000000001,-2.6,5.4,-1.0,2.2,14.0,-24.7,-27.700000000000003,-2.2,16
441,7487.0,-0.7000000000000001,-2.5,3.9000000000000004,-0.8,2.3000000000000003,12.5,7.300000000000001,0.6000000000000001,14.800000000000002,16
442,7503.0,-0.5,-2.2,2.6,-0.6000000000000001,2.6,11.200000000000001,16.3,10.1,21.900000000000002,16
443,7520.0,0.0,-1.7000000000000002,0.6000000000000001,-0.1,3.1,9.200000000000001,19.700000000000003,18.1,28.0,16
444,7537.0,0.2,-1.6,-0.1,0.1,3.2,8.4,17.0,21.300000000000004,29.400000000000002,16
445,7553.0,0.30000000000000004,-1.5,-1.3,0.1,3.4000000000000004,7.2,10.600000000000001,28.800000000000004,30.599999999999998,16
446,7570.0,-0.1,-1.2000000000000002,-1.6,-0.30000000000000004,3.7,6.9,6.0,27.099999999999998,32.9,16
447,7587.0,-0.1,-0.9,-1.6,-0.30000000000000004,4.0,6.9,7.300000000000001,18.5,39.1,16
448,7603.0,0.1,-0.8,-1.6,-0.1,4.2,6.9,10.0,12.4,41.7,16
449,7620.0,0.6000000000000001,-0.6000000000000001,-1.8,0.4,4.4,6.6000000000000005,18.5,5.6,39.699999999999996,16
450,7637.0,0.9,-0.4,-2.3000000000000003,0.8,4.7,6.1000000000000005,23.099999999999998,-4.6,28.1,16
451,7654.0,1.1,-0.30000000000000004,-2.6,1.0,4.7,5.800000000000001,20.7,-7.1000000000000005,22.6,16
452,7671.0,0.9,-0.5,-2.3000000000000003,0.9,4.6000000000000005,6.0,8.700000000000001,-11.1,11.900000000000002,16
453,7687.0,0.9,-0.5,-2.3000000000000003,0.9,4.6000000000000005,6.0,8.700000000000001,-11.1,11.900000000000002,16
454,22754.0,-1.1,1.9000000000000001,-1.8,-1.1,5.4,7.300000000000001,1.0,-10.700000000000001,-23.800000000000004,16
455,22771.0,-0.8,2.2,-1.7000000000000002,-0.8,5.800000000000001,7.4,0.7,-8.2,-6.2,16
456,22788.0,-0.6000000000000001,2.5,-1.8,-0.6000000000000001,6.1000000000000005,7.4,1.9,0.6000000000000001,-1.7,16
457,22804.0,-0.4,3.1,-2.1,-0.4,6.7,7.0,5.500000000000001,13.000000000000002,-3.5,16
458,22821.0,-1.0,3.5,-2.1,-1.0,7.1000000000000005,7.0,4.0,-5.1000000000000005,-9.5,16
459,22838.0,-1.2000000000000002,3.2,-2.1,-1.3,6.800000000000001,7.0,-1.8000000000000003,-14.700000000000001,-10.299999999999999,16
460,22855.0,-1.4000000000000001,3.5,-1.7000000000000002,-1.6,7.1000000000000005,8.0,-24.7,-33.6,-8.2,16
461,22872.0,-1.0,3.1,-0.2,-1.0,6.7,8.9,-34.50000000000001,-28.1,-4.800000000000001,16
462,22888.0,-0.8,2.7,2.0,-0.7000000000000001,6.1000000000000005,11.200000000000001,-52.2,-26.1,-5.7,16
463,22905.0,-1.7000000000000002,3.1,2.7,-2.2,6.300000000000001,11.9,-39.0,11.3,1.5,16
464,22921.0,-1.7000000000000002,3.1,2.7,-2.2,6.300000000000001,11.9,-39.0,11.3,1.5,16
465,22938.0,-1.7000000000000002,3.1,2.7,-1.9000000000000001,7.300000000000001,10.0,-0.2,22.700000000000003,17.300000000000004,16
466,22958.0,-0.2,2.3000000000000003,1.0,-0.1,5.6000000000000005,10.3,-13.700000000000001,-58.5,10.9,16
467,22973.0,-0.30000000000000004,1.5,1.7000000000000002,0.0,4.7,11.0,-29.700000000000006,-47.400000000000006,7.400000000000001,16
468,22988.0,-0.8,1.2000000000000002,1.9000000000000001,-0.30000000000000004,4.3,11.200000000000001,-30.000000000000004,-31.5,4.800000000000001,16
469,23004.0,-2.0,1.1,1.6,-1.5,4.2,10.9,-17.300000000000004,5.0,3.3000000000000007,16
470,23021.0,-2.0,1.0,0.4,-1.5,4.0,9.8,-3.5,3.0,9.100000000000001,16
471,23038.0,-1.4000000000000001,0.7000000000000001,-0.2,-0.9,3.7,9.200000000000001,-1.5,-6.0,11.900000000000002,16
472,23054.0,-0.6000000000000001,0.6000000000000001,-0.5,0.0,3.5,8.8,-2.1,-21.400000000000002,15.100000000000001,16
473,23071.0,-0.30000000000000004,0.6000000000000001,-0.8,0.30000000000000004,3.5,8.6,-2.3,-24.400000000000002,15.399999999999999,16
474,23088.0,-0.2,0.1,-1.7000000000000002,0.5,3.1,7.7,-0.2,-12.600000000000001,16.5,16
475,23105.0,-0.6000000000000001,0.5,-2.4000000000000004,0.1,3.5,6.9,1.5,-3.9,23.400000000000002,16
476,23121.0,-0.4,0.7000000000000001,-3.4000000000000004,0.4,3.7,5.9,9.4,18.4,34.300000000000004,16
477,23138.0,-0.7000000000000001,1.4000000000000001,-3.5,0.0,4.4,5.800000000000001,9.0,7.6,35.0,16
478,23156.0,-1.1,2.0,-3.8000000000000003,-0.4,5.0,5.5,10.1,-1.2000000000000002,34.900000000000006,16
479,23171.0,-0.1,2.0,-3.3000000000000003,0.8,5.0,6.0,9.100000000000001,-35.9,28.0,16
480,23188.0,0.2,2.0,-2.8000000000000003,1.1,5.0,6.5,5.4,-41.50000000000001,23.099999999999998,16
481,23205.0,0.4,1.7000000000000002,-1.9000000000000001,1.5,4.7,7.4,-0.7,-25.200000000000003,14.0,16
482,23221.0,0.0,1.6,-1.7000000000000002,1.1,4.6000000000000005,7.6000000000000005,-1.4,4.2,5.7,16
483,23238.0,0.0,1.6,-1.7000000000000002,0.7000000000000001,4.800000000000001,7.300000000000001,0.8,16.3,2.2,16
484,23255.0,-1.2000000000000002,2.1,-2.3000000000000003,-0.2,5.1000000000000005,6.9,4.2,18.200000000000003,-4.1,16
485,23272.0,-1.4000000000000001,2.1,-2.3000000000000003,-0.4,5.2,7.0,4.7,3.0,-6.4,16
486,23288.0,-1.4000000000000001,2.2,-1.6,-0.4,5.2,7.7,5.0,-12.0,-6.500000000000001,16
487,23305.0,-1.4000000000000001,2.6,-1.2000000000000002,-0.30000000000000004,5.7,8.1,7.8,-4.4,-3.8,16
488,23322.0,-1.5,3.1,-1.5,-0.4,6.2,7.7,8.3,9.700000000000001,-2.1,16
489,23338.0,-1.5,3.3000000000000003,-1.6,-0.4,6.4,7.6000000000000005,4.7,12.0,-1.8000000000000003,16
490,23355.0,-1.4000000000000001,3.5,-1.6,-0.4,6.7,7.6000000000000005,-1.8000000000000003,9.899999999999999,-1.7,16
491,23371.0,-0.6000000000000001,3.4000000000000004,0.1,0.4,6.5,9.4,-27.2,-11.3,-5.2,16
492,23389.0,-0.30000000000000004,3.1,1.1,0.7000000000000001,6.2,10.3,-33.9,-16.5,-6.0,16
493,23404.0,-0.8,3.5,2.6,0.2,6.5,11.9,-30.200000000000003,3.4,0.0,16
494,23421.0,-0.7000000000000001,4.0,1.5,0.30000000000000004,6.9,10.8,-12.0,29.400000000000002,3.8,16
495,23439.0,-0.30000000000000004,3.8000000000000003,0.7000000000000001,0.7000000000000001,6.7,10.0,-11.8,24.599999999999998,2.3,16
496,23454.0,1.2000000000000002,2.8000000000000003,0.7000000000000001,2.1,5.6000000000000005,10.100000000000001,-34.300000000000004,-1.0,-3.5,16
497,23471.0,1.4000000000000001,1.9000000000000001,1.8,2.3000000000000003,4.7,11.200000000000001,-48.300000000000004,-14.700000000000001,-6.8,16
498,23488.0,0.7000000000000001,0.5,3.8000000000000003,1.6,3.1,13.200000000000001,-50.3,-13.399999999999999,-9.0,16
499,23504.0,-0.30000000000000004,0.1,3.3000000000000003,0.7000000000000001,2.5,12.700000000000001,-10.700000000000001,6.4,-0.1,16
500,23521.0,-0.4,0.9,0.9,0.5,3.4000000000000004,10.4,32.2,10.299999999999999,11.3,16
501,23538.0,-0.4,0.8,0.9,1.0,3.8000000000000003,9.3,43.50000000000001,-0.5,15.299999999999999,16
502,23558.0,1.6,1.5,-1.7000000000000002,2.6,4.2,7.7,45.099999999999994,-19.300000000000004,17.200000000000003,16
503,23571.0,2.4000000000000004,1.7000000000000002,-2.2,3.5,4.5,7.1000000000000005,16.3,-25.1,3.6000000000000005,16
504,23588.0,2.2,1.7000000000000002,-2.2,3.3000000000000003,4.6000000000000005,7.2,3.6000000000000005,-18.200000000000003,-4.2,16
505,23605.0,1.0,1.1,-2.0,2.1,4.0,7.4,-9.8,4.6,-19.200000000000003,16
506,23621.0,-0.7000000000000001,1.0,-2.3000000000000003,0.4,3.8000000000000003,7.0,-3.5,19.300000000000004,-24.0,16
507,23638.0,-1.2000000000000002,1.0,-2.7,-0.2,3.8000000000000003,6.6000000000000005,3.0,20.7,-22.1,16
508,23654.0,-1.9000000000000001,1.4000000000000001,-3.4000000000000004,-0.9,4.3,6.0,15.8,11.1,-15.000000000000002,16
509,23671.0,-1.9000000000000001,1.6,-3.7,-1.0,4.4,5.7,21.300000000000004,3.1,-10.5,16
510,23688.0,-1.2000000000000002,1.6,-3.9000000000000004,-0.30000000000000004,4.6000000000000005,5.4,26.200000000000003,-12.8,-3.8,16
511,23705.0,-0.4,1.8,-3.6,0.6000000000000001,4.800000000000001,5.7,21.900000000000002,-21.6,-5.9,16
512,23721.0,-0.1,1.7000000000000002,-3.3000000000000003,0.9,4.800000000000001,5.9,5.7,-8.700000000000001,-18.4,16
513,23738.0,-0.2,1.7000000000000002,-3.1,0.9,4.800000000000001,6.1000000000000005,-4.6,-4.0,-24.0,16
514,23755.0,-0.4,1.5,-2.7,0.6000000000000001,4.6000000000000005,6.6000000000000005,-14.300000000000002,1.5,-28.3,16
515,23771.0,-1.0,1.3,-1.8,-0.6000000000000001,4.3,7.800000000000001,-21.0,23.099999999999998,-28.500000000000004,16
516,23788.0,-2.0,1.5,-1.4000000000000001,-1.1,4.5,7.9,-16.3,24.5,-25.0,16
517,23804.0,-2.1,2.2,-1.5,-1.3,5.2,7.800000000000001,-3.8,18.4,-12.299999999999999,16
518,23821.0,-1.3,3.1,-1.3,-0.6000000000000001,6.1000000000000005,8.0,2.6,4.4,0.30000000000000004,16
519,23838.0,-1.3,3.1,-1.3,-0.4,6.4,8.0,4.300000000000001,4.9,3.3000000000000007,16
520,23855.0,-1.3,4.1000000000000005,-1.1,-0.6000000000000001,7.0,8.200000000000001,4.4,13.8,5.4,16
521,23871.0,-1.4000000000000001,4.2,-1.0,-0.7000000000000001,7.300000000000001,8.3,1.3,15.8,7.1000000000000005,16
522,23888.0,-1.0,4.3,-0.7000000000000001,-0.4,7.4,8.6,-8.3,9.700000000000001,7.400000000000001,16
523,23904.0,-0.6000000000000001,3.8000000000000003,0.6000000000000001,0.0,6.800000000000001,9.9,-20.1,-7.6,3.6000000000000005,16
524,23921.0,-0.4,2.9000000000000004,2.4000000000000004,0.30000000000000004,5.800000000000001,11.700000000000001,-26.300000000000004,-16.900000000000002,4.6,16
525,23938.0,-0.9,3.2,3.3000000000000003,-0.2,6.1000000000000005,12.600000000000001,-23.0,-6.699999999999999,8.0,16
526,23955.0,-1.4000000000000001,3.9000000000000004,3.4000000000000004,-0.7000000000000001,6.7,12.8,-11.6,20.0,15.2,16
527,23976.0,-0.1,3.9000000000000004,0.30000000000000004,0.5,6.7,9.700000000000001,20.1,40.300000000000004,19.6,16
528,23991.0,0.1,3.2,0.4,0.6000000000000001,6.1000000000000005,9.700000000000001,15.5,20.7,11.2,16
529,24008.0,-0.2,1.4000000000000001,1.2000000000000002,0.2,4.3,10.5,-4.300000000000001,-19.799999999999997,-5.4,16
530,24023.0,-1.4000000000000001,0.2,1.5,-0.9,3.1,10.8,-20.2,-5.300000000000001,-9.2,16
531,24038.0,-1.9000000000000001,-0.2,1.2000000000000002,-1.3,2.7,10.600000000000001,-19.700000000000003,5.9,-6.500000000000001,16
532,24055.0,-2.1,0.1,0.4,-1.7000000000000002,2.9000000000000004,9.8,-8.100000000000001,30.9,12.0,16
533,24071.0,-1.8,0.5,-0.1,-1.4000000000000001,3.3000000000000003,9.3,-2.8,20.8,17.200000000000003,16
534,24098.0,0.0,0.4,-1.7000000000000002,0.4,3.2,7.7,-4.4,-0.7,17.6,16
535,24106.0,0.1,0.30000000000000004,-1.9000000000000001,0.5,3.0,7.5,-14.100000000000001,-1.4,16.4,16
536,24123.0,-0.2,0.0,-1.8,0.2,2.8000000000000003,7.6000000000000005,-33.6,6.2,17.5,16
537,24138.0,-0.2,0.1,-1.8,0.0,2.7,7.800000000000001,-37.50000000000001,14.5,20.5,16
538,24155.0,-0.5,0.1,-1.7000000000000002,-0.1,2.7,7.800000000000001,-36.9,21.300000000000004,25.1,16
539,24171.0,-0.1,1.1,-2.2,0.2,3.6,7.300000000000001,-15.000000000000002,23.700000000000003,41.0,16
540,24188.0,0.1,1.6,-2.5,0.4,4.1000000000000005,7.0,1.5,13.8,43.900000000000006,16
541,24209.0,0.30000000000000004,2.4000000000000004,-3.2,0.6000000000000001,4.800000000000001,6.300000000000001,21.200000000000003,-3.5,40.1,16
542,24222.0,0.30000000000000004,2.8000000000000003,-3.9000000000000004,0.6000000000000001,5.300000000000001,5.6000000000000005,28.700000000000003,-11.4,29.300000000000004,16
543,24238.0,0.2,3.0,-4.1000000000000005,0.6000000000000001,5.6000000000000005,5.4,24.8,-14.5,22.6,16
544,24255.0,-0.4,2.9000000000000004,-3.5,0.1,5.5,5.9,5.500000000000001,-19.799999999999997,9.5,16
545,24277.0,-0.7000000000000001,2.4000000000000004,-2.8000000000000003,-0.6000000000000001,4.6000000000000005,7.5,-5.500000000000001,-22.700000000000003,5.1000000000000005,16
546,24289.0,-1.5,1.6,-1.0,-0.9,4.2,8.4,-17.6,-19.799999999999997,0.6000000000000001,16
547,24309.0,-2.1,1.1,0.2,-1.5,3.6,9.600000000000001,-9.0,-10.8,2.6,16
548,24322.0,-2.2,1.3,0.0,-1.6,3.9000000000000004,9.5,10.600000000000001,3.0,8.3,16
549,24338.0,-2.2,1.3,0.0,-1.6,4.3,9.1,18.0,10.700000000000001,12.5,16
550,24355.0,-2.2,2.4000000000000004,-0.8,-1.5,4.9,8.6,23.099999999999998,21.200000000000003,18.900000000000002,16
551,24372.0,-1.0,3.9000000000000004,-1.2000000000000002,-0.5,6.6000000000000005,8.3,9.8,11.6,22.5,16
552,24388.0,-0.30000000000000004,4.3,-0.9,0.2,7.0,8.5,1.4,4.6,19.799999999999997,16
553,24405.0,0.6000000000000001,4.3,0.2,1.2000000000000002,7.0,9.600000000000001,-17.799999999999997,-9.4,7.699999999999999,16
554,24423.0,0.8,3.8000000000000003,1.9000000000000001,1.4000000000000001,6.5,11.3,-31.5,-14.800000000000002,-1.1,16
555,24439.0,0.4,3.8000000000000003,2.7,1.0,6.4,12.100000000000001,-31.7,-9.5,-0.4,16
556,24461.0,0.9,4.5,1.3,1.5,7.0,10.8,4.6,35.0,18.200000000000003,16
557,24473.0,0.9,4.5,1.3,1.5,7.0,10.8,4.6,35.0,18.200000000000003,16
558,24496.0,2.8000000000000003,3.9000000000000004,-0.2,3.2,6.4,9.3,-2.0,8.0,4.2,16
559,24505.0,3.0,2.5,0.30000000000000004,3.5,5.0,9.8,-30.1,-25.6,-14.0,16
560,24522.0,1.5,0.5,2.2,2.0,2.9000000000000004,11.700000000000001,-60.5,-45.3,-26.400000000000006,16
561,24538.0,1.4000000000000001,0.6000000000000001,2.2,1.5,2.2,12.4,-57.3,-35.2,-21.0,16
562,24555.0,0.4,-0.5,3.1,1.1,1.7000000000000002,12.700000000000001,-41.6,-20.7,-9.899999999999999,16
563,24571.0,1.4000000000000001,0.6000000000000001,1.2000000000000002,2.2,2.7,10.700000000000001,37.50000000000001,-3.3000000000000007,18.900000000000002,16
564,24588.0,2.2,1.0,-0.30000000000000004,2.9000000000000004,3.2,9.200000000000001,57.3,-7.8,20.1,16
565,24609.0,2.7,1.5,-2.7,3.5,3.9000000000000004,6.800000000000001,68.80000000000001,-19.0,4.5,16
566,24622.0,1.4000000000000001,1.3,-3.8000000000000003,2.3000000000000003,3.8000000000000003,5.7,43.800000000000004,-20.1,-23.2,16
567,24638.0,0.7000000000000001,0.8,-3.9000000000000004,1.6,3.4000000000000004,5.5,24.400000000000002,-15.100000000000001,-34.400000000000006,16
568,24656.0,-0.9,0.2,-3.6,-0.1,2.8000000000000003,5.800000000000001,-15.000000000000002,-2.0,-43.800000000000004,16
569,24672.0,-1.5,0.1,-3.3000000000000003,-0.7000000000000001,2.8000000000000003,6.1000000000000005,-33.2,12.600000000000001,-41.0,16
570,24689.0,-2.3000000000000003,0.4,-2.5,-1.5,3.0,6.9,-36.2,23.3,-31.5,16
571,24705.0,-2.2,1.0,-2.1,-1.6,3.4000000000000004,7.4,-18.3,13.6,-18.8,16
572,24725.0,-1.3,1.7000000000000002,-2.3000000000000003,-0.6000000000000001,4.1000000000000005,7.2,7.8,-5.7,-9.0,16
573,24738.0,-0.8,1.9000000000000001,-2.5,-0.2,4.4,6.9,18.4,-14.200000000000001,-8.2,16
574,24755.0,-0.5,2.2,-2.8000000000000003,0.1,4.6000000000000005,6.6000000000000005,24.400000000000002,-20.2,-9.3,16
575,24772.0,-0.1,2.4000000000000004,-3.0,0.7000000000000001,5.0,6.4,10.600000000000001,-24.5,-16.8,16
576,24788.0,-0.1,2.2,-2.7,0.7000000000000001,4.800000000000001,6.7,0.1,-18.3,-19.0,16
577,24810.0,-0.4,2.1,-1.9000000000000001,0.4,4.7,7.5,-19.700000000000003,3.3000000000000007,-19.9,16
578,24821.0,-0.7000000000000001,2.4000000000000004,-1.0,0.1,5.0,8.5,-17.400000000000002,11.1,-11.3,16
579,24838.0,-0.6000000000000001,2.7,-0.8,0.2,5.2,8.700000000000001,-9.700000000000001,10.0,-6.0,16
580,24855.0,-0.4,3.3000000000000003,-0.8,0.30000000000000004,5.800000000000001,8.700000000000001,9.899999999999999,3.0,-2.1,16
581,24872.0,-0.5,3.5,-1.0,0.2,6.1000000000000005,8.4,18.700000000000003,1.7,-2.0,16
582,24889.0,-0.8,3.9000000000000004,-1.7000000000000002,-0.2,6.6000000000000005,7.7,27.400000000000002,1.8000000000000003,-0.7,16
583,24905.0,-0.9,4.3,-1.9000000000000001,-0.2,7.1000000000000005,7.5,18.200000000000003,1.0,-0.5,16
584,24922.0,-0.5,4.1000000000000005,-0.8,0.2,6.9,8.5,-7.0,-9.0,-2.0,16
585,24939.0,-0.1,3.8000000000000003,0.0,0.6000000000000001,6.6000000000000005,9.4,-20.3,-15.2,-2.4000000000000004,16
586,24955.0,0.2,3.4000000000000004,1.2000000000000002,1.0,6.1000000000000005,10.600000000000001,-31.7,-20.0,-3.5,16
587,24971.0,-0.6000000000000001,3.6,3.4000000000000004,0.2,6.2,12.8,-19.6,28.1,4.5,16
588,24988.0,-0.6000000000000001,4.0,2.5,0.2,6.5,12.0,-2.2,44.6,9.4,16
589,25005.0,-0.1,3.9000000000000004,0.6000000000000001,0.5,6.4,10.0,10.8,26.700000000000003,-0.4,16
590,25021.0,-0.30000000000000004,2.4000000000000004,0.5,0.2,5.0,9.9,-7.8,-14.700000000000001,-17.1,16
591,25038.0,-0.30000000000000004,2.4000000000000004,0.5,0.0,4.3,10.4,-19.6,-27.0,-20.1,16
592,25055.0,-1.3,0.4,1.8,-0.7000000000000001,2.9000000000000004,11.3,-27.9,-22.6,-18.8,16
593,25072.0,-1.7000000000000002,0.1,1.8,-1.1,2.5,11.3,-25.1,-13.700000000000001,-15.2,16
594,25091.0,-1.7000000000000002,0.0,1.4000000000000001,-0.7000000000000001,2.4000000000000004,10.4,-13.000000000000002,3.4,-1.1,16
595,25109.0,-1.0,-0.1,0.4,-0.30000000000000004,2.3000000000000003,9.9,-3.9,6.500000000000001,10.600000000000001,16
596,25122.0,-1.0,-0.1,0.4,-0.1,2.3000000000000003,9.600000000000001,-3.9,6.500000000000001,10.600000000000001,16
597,25141.0,-0.9,-0.2,-0.7000000000000001,-0.2,2.1,8.8,-9.3,2.9,18.200000000000003,16
598,25155.0,-0.9,-0.2,-0.7000000000000001,-0.2,2.1,8.8,-9.3,2.9,18.200000000000003,16
599,25174.0,-1.2000000000000002,0.1,-1.0,-0.5,2.3000000000000003,8.6,-5.6,-0.8,33.7,16
600,25196.0,-0.7000000000000001,0.5,-1.2000000000000002,0.0,2.8000000000000003,8.3,7.699999999999999,0.7,46.1,16
601,25204.0,-0.7000000000000001,0.5,-1.2000000000000002,0.0,2.8000000000000003,8.3,7.699999999999999,0.7,46.1,16
602,25221.0,-0.1,1.2000000000000002,-2.1,0.6000000000000001,3.5,7.4,34.7,4.2,53.9,16
603,25238.0,0.0,1.4000000000000001,-2.5,0.7000000000000001,3.8000000000000003,7.0,42.400000000000006,4.5,55.2,16
604,25257.0,0.5,1.9000000000000001,-3.3000000000000003,1.2000000000000002,4.4,6.1000000000000005,52.2,1.7,53.8,16
605,25274.0,0.6000000000000001,2.1,-3.7,1.3,4.7,5.800000000000001,52.400000000000006,-2.1,46.9,16
606,25298.0,0.7000000000000001,2.4000000000000004,-4.2,1.6,5.2,5.2,33.800000000000004,-2.4000000000000004,23.5,16
607,25306.0,0.5,2.4000000000000004,-4.1000000000000005,1.4000000000000001,5.300000000000001,5.2,22.9,-1.6,14.200000000000001,16
608,25321.0,-0.1,2.3000000000000003,-3.3000000000000003,0.8,5.2,6.0,0.30000000000000004,0.6000000000000001,-0.6000000000000001,16
609,25338.0,-0.4,2.0,-2.7,0.4,4.9,6.7,-7.699999999999999,1.2000000000000002,-4.5,16
610,25355.0,-0.7000000000000001,1.7000000000000002,-1.8,0.1,4.6000000000000005,7.6000000000000005,-11.900000000000002,0.7,-5.1000000000000005,16
611,25372.0,-0.8,1.9000000000000001,-0.4,0.1,4.7,8.9,3.3000000000000007,4.0,3.8,16
612,25395.0,-0.4,2.6,-1.1,0.4,5.5,8.200000000000001,20.1,13.200000000000003,6.8,16
613,25405.0,-0.1,3.1,-1.6,0.7000000000000001,6.0,7.7,22.1,15.399999999999999,5.7,16
614,25424.0,0.0,3.9000000000000004,-1.8,0.8,6.9,7.5,0.6000000000000001,7.6,-1.5,16
615,25440.0,0.0,4.1000000000000005,-1.1,0.7000000000000001,7.1000000000000005,8.200000000000001,-7.300000000000001,2.2,-3.5,16
616,25455.0,-0.2,3.5,1.1,0.6000000000000001,6.4,10.4,-39.50000000000001,-19.0,-6.600000000000001,16
617,25473.0,-0.6000000000000001,3.5,2.4000000000000004,0.2,6.4,11.700000000000001,-41.900000000000006,-17.0,-2.9,16
618,25502.0,1.8,4.3,2.3000000000000003,2.7,7.1000000000000005,11.700000000000001,3.2,0.4,12.9,16
619,25505.0,1.8,4.3,2.3000000000000003,2.7,7.1000000000000005,11.700000000000001,3.2,0.4,12.9,16
620,25533.0,2.6,2.2,2.3000000000000003,3.5,4.9,11.700000000000001,-18.0,-21.200000000000003,-17.6,16
621,25538.0,2.6,2.2,2.3000000000000003,3.5,4.9,11.700000000000001,-18.0,-21.200000000000003,-17.6,16
622,25555.0,1.8,1.1,2.9000000000000004,2.7,3.8000000000000003,12.3,-26.300000000000004,-21.200000000000003,-23.3,16
623,25571.0,0.4,-0.30000000000000004,2.6,1.1,2.3000000000000003,11.4,-2.1,6.600000000000001,-10.9,16
624,25588.0,0.2,0.0,1.1,1.1,2.6,10.5,19.9,7.1000000000000005,3.2,16
625,25608.0,1.9000000000000001,0.8,-1.1,2.8000000000000003,3.4000000000000004,8.3,36.7,-8.5,13.5,16
626,25621.0,1.9000000000000001,0.7000000000000001,-1.1,3.8000000000000003,4.1000000000000005,6.6000000000000005,26.9,-22.5,-1.1,16
627,25638.0,2.7,1.3,-3.1,3.7,4.2,6.2,13.399999999999999,-25.6,-13.700000000000001,16
628,25655.0,1.5,0.9,-2.9000000000000004,2.6,3.8000000000000003,6.4,-17.799999999999997,-18.1,-35.8,16
629,25671.0,1.5,0.9,-2.9000000000000004,1.7000000000000002,3.3000000000000003,6.7,-27.6,-9.0,-41.4,16
630,25688.0,-0.7000000000000001,0.1,-2.5,0.30000000000000004,2.9000000000000004,6.9,-30.3,7.300000000000001,-42.400000000000006,16
631,25706.0,-1.5,0.4,-2.8000000000000003,-0.5,3.1,6.6000000000000005,-18.200000000000003,10.5,-32.400000000000006,16
632,25722.0,-1.2000000000000002,1.1,-3.2,-0.2,3.7,6.2,-0.9000000000000001,-0.1,-18.1,16
633,25739.0,-0.8,1.4000000000000001,-3.4000000000000004,0.1,4.0,6.0,6.9,-8.2,-13.000000000000002,16
634,25755.0,-0.30000000000000004,1.8,-3.6,0.6000000000000001,4.4,5.800000000000001,14.700000000000001,-16.8,-11.2,16
635,25771.0,0.0,2.4000000000000004,-3.8000000000000003,1.0,5.2,5.5,9.5,-16.5,-23.700000000000003,16
636,25788.0,-0.2,2.4000000000000004,-3.8000000000000003,0.9,5.2,5.5,2.5,-12.0,-29.1,16
637,25808.0,-0.9,2.1,-3.1,0.2,4.9,6.2,-14.100000000000001,-4.6,-37.6,16
638,25821.0,-1.2000000000000002,1.9000000000000001,-1.9000000000000001,-0.2,4.6000000000000005,7.5,-25.7,-7.1000000000000005,-39.300000000000004,16
639,25841.0,-1.3,1.8,-1.2000000000000002,-0.30000000000000004,4.5,8.700000000000001,-27.3,-10.600000000000001,-37.800000000000004,16
640,25857.0,-1.2000000000000002,1.9000000000000001,-0.30000000000000004,-0.2,4.5,9.1,-22.8,-11.900000000000002,-30.200000000000003,16
641,25872.0,-1.1,2.0,-0.1,-0.1,4.6000000000000005,9.3,-18.1,-8.100000000000001,-25.300000000000004,16
642,25889.0,-1.0,2.4000000000000004,0.0,0.0,4.9,9.4,-6.8,8.0,-14.5,16
643,25908.0,-1.2000000000000002,3.0,-0.7000000000000001,-0.2,5.6000000000000005,8.8,-3.1,23.099999999999998,-6.9,16
644,25921.0,-1.2000000000000002,3.0,-0.7000000000000001,-0.5,5.9,8.6,-6.1000000000000005,25.4,-5.6,16
645,25938.0,-1.4000000000000001,3.7,-0.8,-0.6000000000000001,6.300000000000001,8.6,-16.4,19.300000000000004,-5.1000000000000005,16
646,25955.0,-1.1,3.7,-0.5,-0.30000000000000004,6.300000000000001,8.9,-24.0,13.5,-6.500000000000001,16
647,25971.0,-0.5,2.8000000000000003,2.4000000000000004,0.30000000000000004,5.2,11.9,-44.300000000000004,-20.3,-11.8,16
648,25988.0,-0.8,2.6,3.9000000000000004,0.0,4.9,13.4,-40.0,-27.400000000000002,-9.700000000000001,16
649,26008.0,-1.0,2.8000000000000003,3.8000000000000003,-0.2,5.0,13.3,-3.1,2.7,6.300000000000001,16
650,26021.0,-0.2,3.4000000000000004,1.3,0.7000000000000001,5.6000000000000005,10.8,25.0,15.2,16.8,16
651,26039.0,0.4,3.3000000000000003,0.8,1.2000000000000002,5.6000000000000005,10.3,21.300000000000004,0.9000000000000001,14.700000000000001,16
652,26057.0,0.7000000000000001,2.3000000000000003,1.2000000000000002,1.5,4.6000000000000005,10.700000000000001,1.1,-21.6,6.600000000000001,16
653,26074.0,0.4,1.6,1.3,1.3,3.9000000000000004,10.8,-5.300000000000001,-13.5,2.3,16
654,26092.0,-1.0,0.4,0.1,-0.1,2.7,9.5,4.4,18.200000000000003,-2.8,16
655,26117.0,-1.3,0.5,-0.30000000000000004,-0.4,2.8000000000000003,9.200000000000001,4.6,16.700000000000003,-3.9,16
656,26123.0,-1.5,0.7000000000000001,-0.5,-0.7000000000000001,3.0,9.0,3.2,14.0,-3.0,16
657,26138.0,-1.3,0.7000000000000001,-0.6000000000000001,-0.4,3.0,8.9,-0.30000000000000004,8.2,-0.6000000000000001,16
658,26155.0,-0.9,0.6000000000000001,-0.7000000000000001,-0.1,2.9000000000000004,8.8,-12.8,-10.8,-0.4,16
659,26171.0,-0.5,0.0,-0.5,0.30000000000000004,2.3000000000000003,9.0,-30.699999999999996,-15.5,1.8000000000000003,16
660,26192.0,-0.7000000000000001,-0.4,-0.2,0.1,1.8,9.3,-34.800000000000004,-4.300000000000001,4.5,16
661,26205.0,-1.0,-0.30000000000000004,-0.2,-0.1,1.8,9.3,-26.5,10.1,10.1,16
662,26225.0,-1.0,-0.2,-0.9,-0.2,1.9000000000000001,8.6,-2.9,25.6,20.3,16
663,26238.0,-1.0,0.2,-1.5,-0.2,2.2,8.1,9.2,23.700000000000003,24.400000000000002,16
664,26255.0,-0.8,1.4000000000000001,-2.8000000000000003,0.0,3.4000000000000004,6.800000000000001,25.5,8.5,30.5,16
665,26272.0,-0.6000000000000001,2.0,-3.1,0.1,4.1000000000000005,6.4,27.0,-1.9,31.5,16
666,26288.0,-0.30000000000000004,2.7,-3.1,0.5,4.9,6.5,21.8,-13.000000000000002,31.6,16
667,26309.0,0.1,2.5,-2.1,1.0,4.7,7.4,16.4,-13.8,25.7,16
668,26321.0,0.0,2.3000000000000003,-1.5,0.9,4.6000000000000005,8.0,20.5,-15.8,13.100000000000001,16
669,26339.0,0.0,2.3000000000000003,-1.5,0.9,4.6000000000000005,8.0,24.8,-11.8,7.500000000000001,16
670,26355.0,-0.2,2.2,-1.5,0.8,4.6000000000000005,8.0,28.3,-6.600000000000001,2.8,16
671,26371.0,-0.2,2.0,-2.0,0.7000000000000001,4.5,7.5,24.8,8.899999999999999,-9.8,16
672,26388.0,-0.6000000000000001,2.3000000000000003,-1.8,0.4,4.9,7.6000000000000005,17.7,14.700000000000001,-11.5,16
673,26405.0,-0.8,2.5,-1.0,0.1,5.1000000000000005,8.4,1.8000000000000003,19.799999999999997,-10.4,16
674,26421.0,-0.8,2.5,0.2,0.0,5.1000000000000005,9.600000000000001,-1.3,20.599999999999998,-10.600000000000001,16
675,26438.0,-0.8,2.4000000000000004,0.5,-0.1,5.0,10.0,1.7,21.500000000000004,-10.299999999999999,16
676,26455.0,-0.7000000000000001,2.4000000000000004,0.5,0.0,5.0,9.9,8.0,25.8,-5.9,16
677,26472.0,-0.30000000000000004,2.2,0.5,0.4,4.9,9.9,8.100000000000001,29.200000000000003,-3.2,16
678,26488.0,-0.1,2.2,0.7000000000000001,0.2,5.2,10.4,5.6,29.700000000000006,-1.5,16
679,26510.0,-1.2000000000000002,3.2,2.0,-0.8,5.9,11.4,10.0,35.3,11.5,16
680,26522.0,-1.1,3.8000000000000003,1.8,-0.7000000000000001,6.5,11.200000000000001,14.100000000000001,37.0,15.399999999999999,16
681,26538.0,0.0,4.1000000000000005,0.1,0.30000000000000004,6.9,9.5,28.1,26.300000000000004,17.5,16
682,26555.0,0.7000000000000001,4.0,-0.4,1.0,6.800000000000001,9.0,21.7,7.0,9.5,16
683,26571.0,2.2,1.5,1.7000000000000002,2.5,4.4,11.100000000000001,-9.2,-34.0,-13.5,16
684,26589.0,1.6,0.6000000000000001,2.2,2.0,3.4000000000000004,11.600000000000001,-7.699999999999999,-17.7,-14.400000000000002,16
685,26610.0,0.8,-0.6000000000000001,0.9,1.2000000000000002,2.2,10.3,9.0,27.800000000000004,-7.1000000000000005,16
686,26622.0,-0.5,0.4,-0.7000000000000001,-0.2,3.3000000000000003,8.700000000000001,25.200000000000003,43.800000000000004,-3.2,16
687,26638.0,-0.4,0.4,-1.7000000000000002,-0.30000000000000004,3.3000000000000003,7.7,29.400000000000002,39.699999999999996,2.6,16
688,26655.0,0.4,0.6000000000000001,-3.0,0.4,3.7,6.300000000000001,21.8,9.5,13.5,16
689,26671.0,0.9,0.9,-3.1,1.0,4.0,6.300000000000001,3.8,-19.0,13.900000000000002,16
690,26688.0,1.5,1.0,-2.0,1.6,4.1000000000000005,7.300000000000001,-22.000000000000004,-36.1,6.699999999999999,16
691,26713.0,1.3,0.5,-1.2000000000000002,1.6,3.5,8.200000000000001,-33.2,-18.1,-2.5,16
692,26723.0,0.4,0.30000000000000004,-0.8,0.7000000000000001,3.2,8.5,-24.8,20.1,-12.600000000000001,16
693,26738.0,0.4,0.30000000000000004,-0.8,-0.1,3.3000000000000003,8.200000000000001,-12.5,35.1,-16.700000000000003,16
694,26755.0,-1.0,0.6000000000000001,-1.8,-0.8,3.5,7.6000000000000005,-0.30000000000000004,40.4,-17.5,16
695,26771.0,-1.1,1.3,-3.0,-1.1,4.2,6.4,18.900000000000002,0.6000000000000001,-4.7,16
696,26788.0,-0.6000000000000001,1.5,-3.3000000000000003,-0.6000000000000001,4.4,6.1000000000000005,20.400000000000002,-7.200000000000001,0.1,16
697,26806.0,0.0,1.8,-3.5,0.0,4.800000000000001,5.9,14.900000000000002,-3.3000000000000007,4.0,16
698,26822.0,0.2,2.0,-3.1,0.30000000000000004,5.0,6.2,-4.9,19.0,-1.8000000000000003,16
699,26838.0,0.30000000000000004,2.0,-3.1,0.30000000000000004,4.9,6.6000000000000005,-11.6,28.700000000000003,-4.800000000000001,16
700,26855.0,-0.2,1.7000000000000002,-1.6,-0.30000000000000004,4.7,7.800000000000001,-4.800000000000001,26.5,-19.300000000000004,16
701,26871.0,-0.1,1.7000000000000002,-1.6,-1.0,4.4,8.1,3.9,11.8,-22.700000000000003,16
702,26888.0,-0.8,1.4000000000000001,-1.7000000000000002,-1.0,4.3,7.7,22.000000000000004,-10.299999999999999,-10.200000000000001,16
703,26905.0,-0.5,2.0,-2.5,-0.7000000000000001,5.1000000000000005,6.800000000000001,24.1,-16.700000000000003,-1.4,16
704,26922.0,0.1,2.7,-2.6,0.0,5.800000000000001,6.7,2.8,-9.3,1.9,16
705,26938.0,0.2,2.8000000000000003,-2.3000000000000003,0.1,5.9,7.0,-11.2,-1.0,0.0,16
706,26954.0,0.0,2.9000000000000004,-1.5,-0.1,6.0,7.9,-22.000000000000004,8.899999999999999,-2.2,16
707,26971.0,-0.4,3.2,-0.5,-0.7000000000000001,6.4,9.4,-23.900000000000006,-2.7,-15.399999999999999,16
708,26988.0,-0.1,3.4000000000000004,0.9,-0.30000000000000004,6.300000000000001,10.200000000000001,-21.500000000000004,-19.799999999999997,-16.0,16
709,27005.0,0.6000000000000001,2.8000000000000003,2.1,0.5,5.7,11.5,-11.900000000000002,-38.400000000000006,-24.900000000000002,16
710,27021.0,0.1,2.1,2.8000000000000003,0.1,5.0,12.200000000000001,3.2,-41.4,-34.800000000000004,16
711,27039.0,-0.6000000000000001,2.1,2.7,-0.6000000000000001,4.9,12.100000000000001,12.4,-25.0,-32.6,16
712,27054.0,-1.7000000000000002,2.4000000000000004,1.8,-2.0,5.7,10.0,27.2,37.800000000000004,-10.1,16
713,27071.0,-2.1,3.4000000000000004,-1.0,-2.1,6.4,8.3,27.400000000000002,54.0,3.8,16
714,27088.0,-2.3000000000000003,4.3,-2.1,-2.5,7.4,7.2,5.9,33.7,10.8,16
715,27106.0,-1.6,3.4000000000000004,-0.8,-1.8,6.5,8.5,-22.000000000000004,-18.200000000000003,3.7000000000000006,16
716,27122.0,-0.7000000000000001,1.5,1.5,-0.8,4.5,10.9,-41.4,-77.3,-9.8,16
717,27138.0,-0.6000000000000001,0.9,2.1,-0.6000000000000001,3.8000000000000003,11.5,-41.199999999999996,-80.9,-12.299999999999999,16
718,27154.0,-0.7000000000000001,1.0,2.1,-0.6000000000000001,3.1,11.700000000000001,-36.300000000000004,-71.0,-15.6,16
719,27172.0,-1.3,0.0,1.8,-0.7000000000000001,2.7,11.100000000000001,-34.50000000000001,-37.400000000000006,-1.6,16
720,27188.0,-0.7000000000000001,0.1,1.4000000000000001,-0.30000000000000004,2.7,10.8,-36.2,-36.7,4.4,16
721,27206.0,0.30000000000000004,0.1,0.9,0.8,2.6,10.4,-29.900000000000006,-20.7,7.300000000000001,16
722,27224.0,0.2,0.2,-0.1,0.8,2.5,9.4,-13.5,-8.2,2.7,16
723,27238.0,0.2,0.1,-0.5,0.8,2.4000000000000004,9.0,-6.2,-7.0,2.5,16
724,27255.0,0.1,0.2,-1.3,0.7000000000000001,2.6,8.200000000000001,5.9,-2.7,10.4,16
725,27271.0,0.2,0.5,-1.7000000000000002,0.8,2.8000000000000003,7.800000000000001,11.900000000000002,2.1,17.0,16
726,27288.0,0.1,1.2000000000000002,-2.7,0.8,3.6,6.800000000000001,20.599999999999998,14.0,29.600000000000005,16
727,27304.0,0.2,1.7000000000000002,-3.3000000000000003,0.8,4.2,6.2,20.1,12.9,32.2,16
728,27321.0,0.1,1.9000000000000001,-2.9000000000000004,0.8,4.5,6.5,17.300000000000004,6.4,26.799999999999997,16
729,27338.0,0.1,2.0,-2.7,0.7000000000000001,4.5,6.7,17.1,1.4,23.2,16
730,27354.0,0.1,2.0,-2.4000000000000004,0.7000000000000001,4.6000000000000005,7.0,17.6,-4.1,19.799999999999997,16
731,27371.0,0.30000000000000004,2.3000000000000003,-1.9000000000000001,1.0,5.0,7.5,20.8,-11.8,6.1000000000000005,16
732,27388.0,0.30000000000000004,2.3000000000000003,-1.6,1.0,5.0,7.800000000000001,21.6,-12.100000000000001,0.7,16
733,27406.0,0.1,2.1,-1.3,0.8,4.9,8.0,19.700000000000003,-7.200000000000001,-8.600000000000001,16
734,27422.0,0.0,2.0,-1.3,0.7000000000000001,4.800000000000001,8.1,17.200000000000003,2.6,-9.899999999999999,16
735,27438.0,-0.4,2.0,-1.4000000000000001,0.30000000000000004,4.9,8.0,12.100000000000001,22.5,-9.700000000000001,16
736,27455.0,-0.7000000000000001,2.3000000000000003,-2.0,-0.1,5.300000000000001,7.4,11.5,26.000000000000004,-9.0,16
737,27471.0,-0.7000000000000001,2.5,-2.1,-0.1,5.5,7.2,9.2,17.0,-9.100000000000001,16
738,27488.0,-0.6000000000000001,2.8000000000000003,-1.3,0.0,5.800000000000001,8.0,-0.9000000000000001,-4.2,-10.600000000000001,16
739,27505.0,0.0,2.3000000000000003,0.2,0.6000000000000001,5.300000000000001,9.5,-6.600000000000001,-12.5,-14.0,16
740,27526.0,-0.2,2.2,1.1,0.4,5.1000000000000005,10.4,-10.9,0.8,-14.100000000000001,16
741,27545.0,-1.1,3.1,1.1,-0.6000000000000001,6.0,10.4,-12.4,36.9,-4.7,16
742,27556.0,-1.1,3.1,1.1,-0.6000000000000001,6.0,10.4,-12.4,36.9,-4.7,16
743,27574.0,0.1,3.5,-0.4,0.4,6.4,9.0,-27.3,34.800000000000004,-3.6000000000000005,16
744,27588.0,1.0,2.8000000000000003,0.0,1.3,5.6000000000000005,9.4,-39.699999999999996,19.799999999999997,-10.200000000000001,16
745,27609.0,1.5,1.0,2.2,1.7000000000000002,3.6,11.700000000000001,-64.2,-17.6,-27.3,16
746,27621.0,0.7000000000000001,-0.2,3.9000000000000004,0.9,2.3000000000000003,13.4,-43.300000000000004,1.0,-27.6,16
747,27638.0,0.7000000000000001,-0.1,3.8000000000000003,0.5,1.9000000000000001,13.0,-21.900000000000002,12.200000000000001,-23.400000000000002,16
748,27655.0,-0.30000000000000004,-0.30000000000000004,2.6,-0.2,2.3000000000000003,10.9,19.799999999999997,20.900000000000002,-4.6,16
749,27671.0,-0.2,0.30000000000000004,-0.1,-0.1,2.7,9.4,31.0,17.6,3.8,16
750,27688.0,0.7000000000000001,1.1,-2.2,0.8,3.6,7.300000000000001,27.0,-1.4,14.800000000000002,16
751,27705.0,1.4000000000000001,1.3,-2.5,1.5,3.8000000000000003,6.9,13.900000000000002,-13.399999999999999,16.6,16
752,27722.0,1.9000000000000001,1.3,-1.4000000000000001,2.1,3.8000000000000003,8.0,-17.7,-28.700000000000003,7.699999999999999,16
753,27739.0,1.6,0.8,-0.1,1.8,3.3000000000000003,9.4,-28.200000000000003,-15.6,-1.6,16
754,27755.0,1.1,0.7000000000000001,0.2,1.4000000000000001,3.1,9.700000000000001,-19.200000000000003,5.9,-6.500000000000001,16
755,27775.0,-0.4,0.8,-1.4000000000000001,-0.2,3.2,8.1,23.5,35.4,-9.3,16
756,27789.0,-0.7000000000000001,1.0,-2.5,-0.6000000000000001,3.5,7.0,34.50000000000001,34.50000000000001,-7.699999999999999,16
757,27807.0,-0.7000000000000001,1.5,-4.0,-0.6000000000000001,4.1000000000000005,5.4,40.7,14.900000000000002,-4.0,16
758,27825.0,-0.1,1.8,-4.4,-0.1,4.5,5.0,26.799999999999997,-14.5,-6.600000000000001,16
759,27839.0,0.1,1.8,-4.2,0.1,4.5,5.2,15.5,-25.6,-9.4,16
760,27855.0,0.30000000000000004,1.4000000000000001,-2.8000000000000003,0.4,4.2,6.6000000000000005,-4.4,-31.5,-14.900000000000002,16
761,27873.0,0.2,1.3,-1.9000000000000001,0.4,4.1000000000000005,7.5,-9.0,-28.600000000000005,-16.900000000000002,16
762,27888.0,0.1,1.3,-1.0,0.4,4.0,8.4,-6.300000000000001,-13.399999999999999,-18.200000000000003,16
763,27913.0,-0.2,1.5,-1.4000000000000001,0.0,4.2,8.0,6.0,21.7,-16.900000000000002,16
764,27922.0,-0.4,1.6,-1.8,-0.2,4.4,7.7,7.400000000000001,26.5,-16.0,16
765,27938.0,-0.5,1.8,-2.1,-0.6000000000000001,4.800000000000001,7.300000000000001,3.6000000000000005,20.8,-9.899999999999999,16
766,27955.0,-0.5,2.2,-1.9000000000000001,-0.5,5.0,7.5,-0.6000000000000001,10.700000000000001,-6.8,16
767,27971.0,-0.1,2.9000000000000004,-0.6000000000000001,-0.1,5.6000000000000005,8.9,-6.1000000000000005,-4.0,-0.30000000000000004,16
768,27991.0,0.0,3.2,-0.1,0.0,6.0,9.3,-3.0,-1.9,1.9,16
769,28004.0,-0.1,3.4000000000000004,0.2,0.0,6.2,9.700000000000001,1.8000000000000003,0.0,-2.2,16
770,28021.0,0.4,3.2,0.7000000000000001,0.4,6.0,10.100000000000001,2.5,-3.1,-6.8,16
771,28038.0,0.30000000000000004,2.9000000000000004,1.1,0.30000000000000004,5.7,10.5,2.0,-7.9,-9.600000000000001,16
772,28055.0,-0.30000000000000004,2.9000000000000004,1.4000000000000001,-1.1,6.1000000000000005,10.8,5.1000000000000005,-4.800000000000001,-11.5,16
773,28071.0,-1.4000000000000001,3.7,1.0,-1.4000000000000001,6.5,10.4,8.700000000000001,16.1,-4.4,16
774,28088.0,-0.8,3.9000000000000004,0.30000000000000004,-0.8,6.7,9.600000000000001,0.9000000000000001,0.30000000000000004,-0.7,16
775,28108.0,0.9,2.5,1.3,0.9,5.4,10.700000000000001,-25.5,-60.5,-11.4,16
776,28123.0,1.1,0.8,4.1000000000000005,1.4000000000000001,3.5,13.5,-43.6,-78.5,-23.099999999999998,16
777,28138.0,0.7000000000000001,0.0,4.800000000000001,1.1,2.7,14.200000000000001,-36.8,-52.7,-23.400000000000002,16
778,28155.0,-0.2,-0.30000000000000004,4.5,0.2,2.3000000000000003,13.9,-20.2,-14.5,-19.0,16
779,28175.0,-1.7000000000000002,0.8,-0.1,-1.3,3.4000000000000004,9.4,34.400000000000006,34.0,1.7,16
780,28194.0,-1.3,1.1,-1.5,-1.0,3.8000000000000003,8.0,38.400000000000006,15.899999999999999,3.9,16
781,28205.0,-0.1,1.1,-2.5,0.2,3.9000000000000004,6.9,24.8,-28.3,1.1,16
782,28221.0,0.4,0.6000000000000001,-2.1,0.8,3.5,7.300000000000001,-9.899999999999999,-39.300000000000004,-11.000000000000002,16
783,28238.0,0.30000000000000004,0.7000000000000001,-2.1,0.6000000000000001,3.0,7.7,-21.900000000000002,-23.099999999999998,-14.300000000000002,16
784,28255.0,-0.4,-0.1,-1.3,-0.5,2.4000000000000004,8.4,-31.9,12.5,-12.5,16
785,28271.0,-1.4000000000000001,-0.4,-0.8,-1.0,2.3000000000000003,8.700000000000001,-27.700000000000003,22.1,-7.0,16
786,28288.0,-1.6,-0.1,-1.3,-1.2000000000000002,2.5,8.1,-4.7,20.3,7.8,16
787,28304.0,-1.3,0.5,-2.2,-1.0,3.2,7.300000000000001,18.4,-3.3000000000000007,17.9,16
788,28322.0,-0.30000000000000004,1.1,-2.7,0.1,3.8000000000000003,6.7,28.700000000000003,-28.800000000000004,20.900000000000002,16
789,28338.0,0.0,1.3,-2.8000000000000003,0.5,4.1000000000000005,6.6000000000000005,28.0,-34.50000000000001,19.6,16
790,28355.0,0.30000000000000004,1.4000000000000001,-2.8000000000000003,0.8,4.3,6.6000000000000005,24.200000000000003,-33.9,17.0,16
791,28372.0,0.2,1.6,-2.1,0.9,4.5,7.300000000000001,8.8,-9.2,5.0,16
792,28388.0,-0.1,1.6,-1.8,0.6000000000000001,4.5,7.5,6.4,2.7,-1.6,16
793,28405.0,-0.8,1.6,-1.8,-0.2,4.5,7.6000000000000005,9.600000000000001,11.5,-8.700000000000001,16
794,28421.0,-1.4000000000000001,1.6,-1.9000000000000001,-0.8,4.6000000000000005,7.5,13.5,7.6,-13.000000000000002,16
795,28438.0,-1.4000000000000001,1.6,-1.8,-0.8,4.6000000000000005,7.5,13.6,2.0,-14.200000000000001,16
796,28455.0,-1.4000000000000001,1.5,-1.6,-0.8,4.7,8.0,12.9,-10.700000000000001,-15.2,16
797,28471.0,-1.4000000000000001,1.6,-1.1,-0.9,4.7,8.200000000000001,13.6,-10.8,-14.900000000000002,16
798,28490.0,-1.4000000000000001,1.9000000000000001,-1.4000000000000001,-0.9,5.0,7.9,15.2,3.3000000000000007,-12.4,16
799,28508.0,-1.4000000000000001,2.3000000000000003,-1.6,-0.9,5.4,7.6000000000000005,9.2,11.2,-8.5,16
800,28522.0,-1.2000000000000002,2.6,-1.2000000000000002,-0.7000000000000001,5.800000000000001,8.0,-7.1000000000000005,5.9,-4.1,16
801,28538.0,-0.9,2.7,-0.8,-0.5,5.9,8.5,-10.8,3.2,-4.0,16
802,28555.0,-0.8,2.7,-0.1,-0.30000000000000004,5.9,9.200000000000001,-22.000000000000004,-7.699999999999999,-4.6,16
803,28571.0,-1.5,2.8000000000000003,2.6,-1.0,5.9,11.9,-27.6,-6.699999999999999,1.1,16
804,28588.0,-1.8,3.4000000000000004,3.0,-1.3,6.4,12.3,-19.0,5.6,7.8,16
805,28609.0,-0.2,3.5,2.2,0.30000000000000004,6.5,11.5,3.9,5.4,18.5,16
806,28623.0,1.8,3.1,2.0,2.4000000000000004,6.0,11.3,8.2,-36.7,9.600000000000001,16
807,28641.0,2.6,1.2000000000000002,2.8000000000000003,3.3000000000000003,4.2,12.100000000000001,-2.3,-47.80000000000001,-2.9,16
808,28654.0,2.3000000000000003,0.4,3.1,3.1,3.4000000000000004,12.4,-4.9,-32.1,-5.7,16
809,28673.0,1.7000000000000002,-0.2,2.9000000000000004,2.5,2.8000000000000003,12.200000000000001,-0.1,-6.1000000000000005,-5.9,16
810,28688.0,0.30000000000000004,-0.30000000000000004,0.30000000000000004,1.1,2.7,9.600000000000001,28.600000000000005,41.199999999999996,6.2,16
811,28706.0,0.2,0.4,-1.8,0.9,3.6,7.5,36.400000000000006,15.299999999999999,11.4,16
812,28724.0,1.2000000000000002,0.7000000000000001,-2.8000000000000003,1.9000000000000001,3.9000000000000004,6.5,29.200000000000003,-24.200000000000003,10.9,16
813,28738.0,1.2000000000000002,0.6000000000000001,-2.7,2.4000000000000004,4.0,6.300000000000001,19.799999999999997,-35.699999999999996,6.300000000000001,16
814,28754.0,1.8,0.9,-2.7,2.6,4.2,6.5,7.200000000000001,-40.5,0.1,16
815,28773.0,0.7000000000000001,0.6000000000000001,-1.9000000000000001,1.6,3.9000000000000004,7.300000000000001,-21.8,-3.7000000000000006,-12.7,16
816,28789.0,0.1,0.6000000000000001,-2.0,1.0,3.9000000000000004,7.2,-23.800000000000004,12.4,-14.700000000000001,16
817,28808.0,-1.0,1.0,-2.0,-0.1,4.2,7.2,-19.5,22.3,-14.300000000000002,16
818,28822.0,-1.1,1.2000000000000002,-2.2,-0.5,4.6000000000000005,6.9,-5.4,14.5,-11.1,16
819,28838.0,-1.4000000000000001,1.6,-2.5,-0.6000000000000001,4.800000000000001,6.7,3.0,6.1000000000000005,-11.1,16
820,28854.0,-1.3,2.0,-3.1,-0.6000000000000001,5.1000000000000005,6.1000000000000005,17.200000000000003,-11.1,-14.0,16
821,28874.0,-1.1,2.1,-3.3000000000000003,-0.30000000000000004,5.300000000000001,5.9,16.4,-14.800000000000002,-15.899999999999999,16
822,28913.0,-0.6000000000000001,1.4000000000000001,-2.3000000000000003,0.2,4.7,7.0,-11.000000000000002,-4.6,-23.700000000000003,16
823,28922.0,-0.7000000000000001,1.0,-1.3,0.0,4.2,7.9,-15.8,4.800000000000001,-22.6,16
824,28941.0,-0.7000000000000001,1.0,-1.3,0.0,4.2,8.200000000000001,-12.100000000000001,7.500000000000001,-20.7,16
825,28955.0,-0.9,1.1,-1.0,-0.2,4.3,8.3,-5.6,7.699999999999999,-18.700000000000003,16
826,28971.0,-0.7000000000000001,1.9000000000000001,-1.4000000000000001,0.0,5.1000000000000005,7.800000000000001,14.700000000000001,-1.3,-9.8,16
827,28988.0,-0.6000000000000001,2.2,-1.5,0.0,5.5,7.7,17.1,-3.9,-7.1000000000000005,16
828,29004.0,-0.6000000000000001,2.7,-1.5,0.1,6.0,7.7,14.300000000000002,-0.9000000000000001,-3.9,16
829,29028.0,-0.5,3.1,-1.2000000000000002,0.1,6.4,8.0,8.100000000000001,1.1,-2.2,16
830,29038.0,-0.4,3.2,-1.0,0.2,6.5,8.200000000000001,4.9,-2.6,-2.5,16
831,29054.0,-0.2,3.3000000000000003,-0.6000000000000001,0.8,6.7,9.0,-3.8,-11.1,-6.0,16
832,29072.0,0.6000000000000001,3.3000000000000003,0.4,1.3,6.6000000000000005,9.600000000000001,-9.600000000000001,-14.900000000000002,-9.0,16
833,29088.0,0.5,2.5,2.0,1.2000000000000002,5.9,11.200000000000001,-17.7,-15.5,-17.7,16
834,29104.0,-2.1,3.3000000000000003,2.8000000000000003,-1.3,6.6000000000000005,12.0,-6.2,14.100000000000001,-15.100000000000001,16
835,29121.0,-1.3,3.5,0.4,-0.7000000000000001,6.800000000000001,9.600000000000001,15.000000000000002,41.4,2.9,16
836,29143.0,0.2,3.3000000000000003,0.2,0.7000000000000001,6.6000000000000005,9.4,-6.699999999999999,-26.400000000000006,-9.2,16
837,29155.0,0.2,3.3000000000000003,0.2,0.7000000000000001,6.6000000000000005,9.4,-6.699999999999999,-26.400000000000006,-9.2,16
838,29171.0,0.30000000000000004,0.5,3.1,1.0,3.8000000000000003,12.3,-36.0,-44.6,-33.6,16
839,29198.0,-1.4000000000000001,-0.6000000000000001,3.2,-0.6000000000000001,2.6,12.4,-24.7,-4.9,-34.900000000000006,16
840,29206.0,-2.0,-0.9,2.3000000000000003,-1.2000000000000002,2.3000000000000003,11.600000000000001,-15.100000000000001,17.6,-27.9,16
841,29224.0,-2.3000000000000003,-0.4,0.6000000000000001,-1.6,2.7,9.9,-6.699999999999999,21.900000000000002,-10.200000000000001,16
842,29241.0,-1.1,-0.5,-0.1,-0.5,2.6,9.200000000000001,-7.6,-8.0,2.0,16
843,29255.0,-0.7000000000000001,-0.7000000000000001,-0.2,-0.1,2.3000000000000003,9.1,-8.2,-18.4,2.8,16
844,29272.0,-0.7000000000000001,-0.7000000000000001,-0.2,0.0,2.3000000000000003,9.1,-9.0,-22.1,2.6,16
845,29288.0,-1.4000000000000001,-0.6000000000000001,-0.5,-0.6000000000000001,2.4000000000000004,8.8,-9.2,-6.500000000000001,6.9,16
846,29305.0,-1.7000000000000002,-0.6000000000000001,-1.5,-1.0,2.4000000000000004,7.800000000000001,1.6,27.0,29.300000000000004,16
847,29321.0,-1.4000000000000001,0.0,-2.6,-0.8,3.0,6.7,15.899999999999999,29.200000000000003,44.5,16
848,29338.0,-1.4000000000000001,0.0,-2.6,-0.6000000000000001,3.4000000000000004,6.2,21.200000000000003,20.8,48.2,16
849,29355.0,-1.0,0.8,-3.4000000000000004,-0.4,3.8000000000000003,5.800000000000001,24.1,9.4,49.6,16
850,29374.0,0.0,1.4000000000000001,-3.7,0.7000000000000001,4.6000000000000005,5.6000000000000005,20.900000000000002,-20.8,40.6,16
851,29392.0,0.1,1.6,-3.4000000000000004,0.9,4.7,5.800000000000001,15.899999999999999,-26.400000000000006,33.6,16
852,29405.0,0.5,1.5,-2.7,1.4000000000000001,4.7,6.5,5.1000000000000005,-19.300000000000004,20.2,16
853,29422.0,0.1,1.5,-2.3000000000000003,1.0,4.7,6.9,-2.0,1.1,7.300000000000001,16
854,29438.0,-0.4,1.5,-2.2,0.6000000000000001,4.7,7.0,-2.7,9.8,1.5,16
855,29455.0,-0.8,1.4000000000000001,-2.2,-0.4,4.6000000000000005,6.9,-1.8000000000000003,17.7,-5.0,16
856,29473.0,-1.5,1.3,-2.2,-0.7000000000000001,4.6000000000000005,7.0,-3.0,10.600000000000001,-7.1000000000000005,16
857,29504.0,-1.6,2.0,-0.7000000000000001,-0.7000000000000001,5.2,8.6,-7.1000000000000005,-5.9,-3.2,16
858,29526.0,-1.4000000000000001,2.6,-0.1,-0.5,5.800000000000001,9.200000000000001,-7.200000000000001,0.4,0.2,16
859,29538.0,-1.2000000000000002,2.8000000000000003,0.2,-0.30000000000000004,6.0,9.4,-7.6,1.6,0.1,16
860,29555.0,-1.0,3.0,0.4,-0.2,6.1000000000000005,9.600000000000001,-8.700000000000001,3.3000000000000007,-1.4,16
861,29571.0,-1.1,2.8000000000000003,1.5,-0.30000000000000004,5.9,10.700000000000001,-17.6,-0.2,-7.6,16
862,29592.0,-1.5,2.8000000000000003,2.2,-1.3,6.1000000000000005,12.0,-20.1,2.8,-4.1,16
863,29605.0,-1.9000000000000001,3.4000000000000004,2.6,-1.1,6.5,11.9,-16.5,13.6,2.9,16
864,29622.0,-1.3,3.5,2.1,0.4,6.7,11.200000000000001,-16.4,9.600000000000001,12.4,16
865,29638.0,0.6000000000000001,3.6,2.1,1.4000000000000001,6.6000000000000005,11.4,-26.1,-6.2,8.0,16
866,29655.0,1.9000000000000001,2.7,2.7,3.4000000000000004,4.4,12.9,-50.2,-32.0,-7.8,16
867,29671.0,2.6,0.4,4.7,3.5,3.2,14.0,-54.9,-32.1,-15.100000000000001,16
868,29694.0,0.4,-1.3,4.7,1.3,1.3,14.200000000000001,-3.0,19.300000000000004,-3.7000000000000006,16
869,29705.0,-0.1,-1.0,3.3000000000000003,0.8,1.6,12.700000000000001,26.5,30.000000000000004,11.4,16
870,29721.0,0.30000000000000004,-0.4,1.7000000000000002,1.1,2.1,11.100000000000001,51.70000000000001,27.2,25.1,16
871,29738.0,1.2000000000000002,0.0,0.0,2.8000000000000003,3.2,8.3,76.0,-1.5,36.300000000000004,16
872,29755.0,2.9000000000000004,0.9,-2.1,3.7,3.8000000000000003,7.2,74.60000000000001,-13.6,34.0,16
873,29771.0,3.5,0.9,-3.2,4.5,4.1000000000000005,6.0,37.300000000000004,-21.1,5.0,16
874,29788.0,2.7,0.5,-3.3000000000000003,3.7,3.7,5.9,17.0,-0.7,-11.8,16
875,29809.0,0.9,0.0,-3.7,1.9000000000000001,3.3000000000000003,5.5,2.8,27.800000000000004,-23.3,16
876,29822.0,-0.2,0.1,-4.0,0.6000000000000001,3.4000000000000004,5.2,2.4000000000000004,33.0,-23.400000000000002,16
877,29838.0,-0.6000000000000001,0.30000000000000004,-4.2,0.1,3.6,5.0,5.7,27.6,-22.1,16
878,29855.0,-1.0,0.7000000000000001,-4.5,-0.30000000000000004,4.0,4.6000000000000005,13.8,7.8,-20.400000000000002,16
879,29871.0,-1.0,0.8,-4.7,-0.30000000000000004,4.2,4.5,15.8,-4.5,-21.0,16
880,29891.0,-0.8,1.0,-4.6000000000000005,-0.1,4.4,4.6000000000000005,11.6,-25.300000000000004,-24.0,16
881,29918.0,-0.7000000000000001,0.8,-4.2,0.0,4.2,4.9,-2.6,-28.500000000000004,-28.1,16
882,29922.0,-0.7000000000000001,0.7000000000000001,-3.8000000000000003,-0.1,4.1000000000000005,6.0,-28.200000000000003,-16.0,-31.2,16
883,29942.0,-1.3,0.5,-2.0,-0.5,3.8000000000000003,7.2,-38.300000000000004,-0.6000000000000001,-29.0,16
884,29958.0,-1.3,0.5,-2.0,-0.5,3.8000000000000003,7.2,-38.300000000000004,-0.6000000000000001,-29.0,16
885,29972.0,-2.2,0.9,-1.0,-1.5,4.1000000000000005,8.3,-31.799999999999997,7.1000000000000005,-19.200000000000003,16
886,29994.0,-2.1,1.5,-0.7000000000000001,-1.4000000000000001,4.6000000000000005,8.6,-22.1,1.5,-6.500000000000001,16
887,30011.0,-1.9000000000000001,1.9000000000000001,-0.5,-1.2000000000000002,5.0,8.8,-19.200000000000003,-0.5,-1.0,16
888,30021.0,-1.6,2.7,0.1,-0.9,5.7,9.4,-16.900000000000002,-1.2000000000000002,7.400000000000001,16
889,30038.0,-1.6,2.7,0.1,-0.8,5.9,9.700000000000001,-14.800000000000002,1.9,10.700000000000001,16
890,30055.0,-1.3,3.4000000000000004,0.8,-0.6000000000000001,6.300000000000001,10.100000000000001,-8.8,5.4,14.100000000000001,16
891,30072.0,-1.2000000000000002,3.5,1.0,-0.5,6.4,10.4,-7.200000000000001,3.1,14.400000000000002,16
892,30093.0,-0.30000000000000004,3.2,2.1,0.30000000000000004,6.1000000000000005,11.5,-5.8,-2.3,13.900000000000002,16
893,30123.0,-0.5,3.2,2.9000000000000004,0.2,6.1000000000000005,12.200000000000001,-2.3,4.5,12.8,16
894,30138.0,-1.1,3.8000000000000003,2.2,-0.4,6.7,11.600000000000001,10.1,37.2,20.3,16
895,30154.0,-0.6000000000000001,3.8000000000000003,1.2000000000000002,0.0,6.7,10.600000000000001,14.700000000000001,37.50000000000001,22.9,16
896,30171.0,0.6000000000000001,2.5,1.0,1.1,5.4,10.4,-11.2,-26.1,-0.2,16
897,30188.0,0.7000000000000001,1.4000000000000001,2.0,1.3,4.3,11.4,-25.1,-41.900000000000006,-7.1000000000000005,16
898,30207.0,-0.1,-0.2,3.5,0.6000000000000001,2.6,12.9,-34.0,-20.900000000000002,-13.200000000000003,16
899,30221.0,-1.5,-0.8,2.2,-0.8,1.9000000000000001,11.600000000000001,-9.2,32.1,-1.3,16
900,30238.0,-1.8,-0.6000000000000001,1.2000000000000002,-1.1,2.1,10.600000000000001,5.4,44.300000000000004,8.700000000000001,16
901,30255.0,-1.7000000000000002,-0.1,0.2,-0.7000000000000001,3.0,8.9,19.700000000000003,13.5,25.7,16
902,30271.0,-0.5,0.4,-1.0,0.1,3.2,8.3,17.6,-3.6000000000000005,27.3,16
903,30288.0,0.2,0.6000000000000001,-1.3,0.8,3.4000000000000004,8.1,6.699999999999999,-14.300000000000002,18.900000000000002,16
904,30306.0,-0.30000000000000004,0.2,-1.3,0.30000000000000004,3.1,8.1,-6.0,-1.5,10.0,16
905,30327.0,-0.9,-0.2,-1.5,-0.2,2.6,7.9,-10.700000000000001,15.2,12.5,16
906,30339.0,-0.9,-0.2,-1.5,-0.4,2.6,7.800000000000001,-8.2,20.599999999999998,16.6,16
907,30355.0,-1.2000000000000002,0.0,-1.7000000000000002,-0.6000000000000001,2.8000000000000003,7.7,-2.7,21.6,21.6,16
908,30371.0,-0.7000000000000001,0.6000000000000001,-2.7,-0.2,3.5,6.7,26.700000000000003,7.9,34.300000000000004,16
909,30388.0,-0.5,1.0,-3.2,0.1,3.9000000000000004,6.2,35.8,-3.1,35.3,16
910,30405.0,-0.1,1.6,-3.6,0.5,4.6000000000000005,5.7,34.1,-14.600000000000001,32.1,16
911,30423.0,0.1,1.7000000000000002,-3.6,0.8,4.7,5.7,21.300000000000004,-14.200000000000001,24.599999999999998,16
912,30438.0,0.1,1.6,-3.4000000000000004,0.8,4.7,5.9,13.700000000000001,-9.2,19.799999999999997,16
913,30456.0,-0.1,1.4000000000000001,-2.9000000000000004,0.5,4.4,6.7,2.7,1.6,11.4,16
914,30471.0,-0.5,1.2000000000000002,-2.2,0.30000000000000004,4.3,7.1000000000000005,1.5,6.8,9.0,16
915,30495.0,-1.1,1.4000000000000001,-2.0,-0.4,4.6000000000000005,7.2,9.8,11.8,2.2,16
916,30506.0,-1.3,1.7000000000000002,-2.0,-0.6000000000000001,4.800000000000001,7.300000000000001,12.0,5.500000000000001,0.6000000000000001,16
917,30521.0,-1.6,1.9000000000000001,-1.6,-0.9,5.1000000000000005,7.7,11.000000000000002,-5.300000000000001,-2.2,16
918,30541.0,-1.6,2.2,-0.8,-0.9,5.4,8.4,3.8,-6.8,-2.3,16
919,30558.0,-1.6,2.2,-0.8,-0.9,5.6000000000000005,8.8,2.0,-6.500000000000001,-1.8000000000000003,16
920,30571.0,-1.3,2.6,0.30000000000000004,-0.5,5.9,9.5,-7.8,-4.1,-0.6000000000000001,16
921,30588.0,-1.1,2.8000000000000003,0.7000000000000001,-0.4,6.1000000000000005,9.9,-12.8,-3.0,-0.9000000000000001,16
922,30614.0,-0.9,2.8000000000000003,2.6,-0.2,6.0,11.9,-23.400000000000002,-3.2,-1.8000000000000003,16
923,30622.0,-0.9,2.8000000000000003,2.6,-0.2,6.0,11.9,-23.400000000000002,-3.2,-1.8000000000000003,16
924,30638.0,-2.0,3.3000000000000003,3.4000000000000004,-1.3,6.5,12.600000000000001,-9.2,14.5,4.0,16
925,30659.0,-1.4000000000000001,3.3000000000000003,1.4000000000000001,-0.8,6.4,10.700000000000001,12.200000000000001,30.3,17.799999999999997,16
926,30671.0,-0.5,3.3000000000000003,0.7000000000000001,0.1,6.4,9.9,12.299999999999999,20.0,21.6,16
927,30688.0,1.5,2.6,1.3,2.1,5.7,10.600000000000001,-10.9,-26.700000000000003,15.399999999999999,16
928,30714.0,2.3000000000000003,0.5,3.0,3.1,3.6,12.3,-37.1,-39.2,6.8,16
929,30721.0,1.5,-0.9,3.4000000000000004,2.3000000000000003,2.1,12.700000000000001,-16.8,10.600000000000001,11.1,16
930,30738.0,1.5,-0.8,3.4000000000000004,1.9000000000000001,1.8,11.9,3.9,31.0,18.1,16
931,30754.0,0.9,-0.7000000000000001,1.2000000000000002,1.7000000000000002,2.2,10.5,24.0,35.699999999999996,24.3,16
932,30772.0,2.7,0.7000000000000001,-1.8,3.4000000000000004,3.8000000000000003,7.5,51.300000000000004,-13.000000000000002,26.400000000000006,16
933,30793.0,3.4000000000000004,1.0,-2.7,4.2,4.2,6.5,34.300000000000004,-32.0,5.9,16
934,30806.0,3.0,0.8,-2.8000000000000003,3.9000000000000004,4.1000000000000005,6.4,19.0,-28.400000000000002,-6.9,16
935,30822.0,1.5,-0.1,-3.0,2.4000000000000004,3.3000000000000003,6.2,-12.0,3.9,-24.599999999999998,16
936,30838.0,0.5,-0.30000000000000004,-3.0,1.5,3.1,6.2,-24.400000000000002,23.900000000000006,-27.700000000000003,16
937,30856.0,-0.6000000000000001,-0.1,-2.7,0.2,3.2,6.6000000000000005,-35.5,39.50000000000001,-22.8,16
938,30871.0,-0.8,0.1,-2.6,-0.1,3.3000000000000003,6.6000000000000005,-28.900000000000002,31.099999999999998,-15.2,16
939,30889.0,-0.6000000000000001,0.6000000000000001,-2.6,0.0,3.7,6.6000000000000005,-6.9,8.8,-8.600000000000001,16
940,30906.0,-0.30000000000000004,1.1,-3.1,0.30000000000000004,4.3,6.2,15.299999999999999,-12.9,-8.8,16
941,30922.0,0.0,1.6,-3.7,0.7000000000000001,4.800000000000001,5.5,23.6,-17.400000000000002,-14.0,16
942,30938.0,0.0,1.8,-3.9000000000000004,0.7000000000000001,5.0,5.300000000000001,20.5,-15.100000000000001,-17.6,16
943,30955.0,0.0,1.9000000000000001,-4.1000000000000005,0.7000000000000001,5.1000000000000005,5.2,13.399999999999999,-11.1,-21.500000000000004,16
944,30974.0,-0.6000000000000001,1.4000000000000001,-3.2,0.0,4.7,6.0,-18.0,-0.4,-32.1,16
945,30988.0,-1.0,1.2000000000000002,-2.4000000000000004,-0.30000000000000004,4.5,6.800000000000001,-26.200000000000003,-2.7,-32.5,16
946,31006.0,-1.1,1.1,-1.1,-0.5,4.3,8.200000000000001,-24.400000000000002,-3.6000000000000005,-25.0,16
947,31021.0,-0.8,1.7000000000000002,-0.6000000000000001,-0.2,4.800000000000001,8.700000000000001,-6.600000000000001,-5.500000000000001,-15.2,16
948,31039.0,-0.5,2.1,-0.7000000000000001,0.1,5.2,8.6,1.5,-4.2,-11.5,16
949,31054.0,-0.2,2.9000000000000004,-0.9,0.4,6.0,8.3,7.500000000000001,2.2,-11.6,16
950,31071.0,-0.4,3.3000000000000003,-1.1,0.2,6.4,8.200000000000001,5.6,8.2,-12.8,16
951,31091.0,-1.0,3.5,-0.8,-0.5,6.6000000000000005,8.4,-14.900000000000002,15.299999999999999,-17.9,16
952,31107.0,-0.9,3.3000000000000003,-0.1,-0.4,6.4,9.1,-25.300000000000004,10.8,-18.6,16
953,31121.0,-0.2,2.6,1.4000000000000001,0.2,5.7,10.700000000000001,-35.4,6.2,-18.0,16
954,31138.0,0.0,2.3000000000000003,2.2,0.4,5.300000000000001,11.5,-48.400000000000006,3.4,-17.300000000000004,16
955,31155.0,0.0,1.9000000000000001,3.0,0.30000000000000004,4.9,12.4,-48.800000000000004,3.5,-16.3,16
956,31171.0,-1.3,2.6,4.3,-0.6000000000000001,5.7,12.8,-24.5,22.2,-1.4,16
957,31188.0,-0.2,3.2,2.1,0.1,5.9,11.5,6.500000000000001,43.4,14.100000000000001,16
958,31212.0,0.4,2.4000000000000004,1.8,0.5,5.1000000000000005,11.3,-15.899999999999999,-30.699999999999996,-16.0,16
959,31221.0,0.4,2.4000000000000004,1.8,0.2,4.1000000000000005,12.200000000000001,-15.899999999999999,-30.699999999999996,-16.0,16
960,31238.0,-0.1,1.5,2.8000000000000003,-0.2,3.4000000000000004,12.700000000000001,-29.800000000000004,-27.800000000000004,-25.7,16
961,31255.0,-1.9000000000000001,-0.5,2.9000000000000004,-1.6,2.0,12.4,-16.6,12.0,-19.300000000000004,16
962,31271.0,-2.4000000000000004,-0.7000000000000001,2.2,-2.1,1.9000000000000001,11.600000000000001,-4.800000000000001,26.000000000000004,-12.0,16
963,31292.0,-1.9000000000000001,-0.5,0.1,-1.7000000000000002,2.1,9.600000000000001,14.0,-0.5,4.7,16
964,31312.0,-1.2000000000000002,-0.6000000000000001,-0.2,-1.0,2.0,9.200000000000001,14.100000000000001,-16.3,7.200000000000001,16
965,31321.0,-0.6000000000000001,-0.8,-0.5,-0.2,1.7000000000000002,8.8,7.699999999999999,-24.0,5.8,16
966,31338.0,-0.5,-1.0,-0.9,-0.2,1.7000000000000002,8.6,3.6000000000000005,-15.6,5.2,16
967,31355.0,-0.8,-1.0,-1.1,-0.6000000000000001,1.6,8.3,0.0,-3.2,6.699999999999999,16
968,31371.0,-1.4000000000000001,-1.0,-1.9000000000000001,-1.3,1.7000000000000002,7.2,-1.2000000000000002,21.8,17.6,16
969,31388.0,-1.4000000000000001,-0.6000000000000001,-2.7,-1.2000000000000002,2.0,6.7,7.200000000000001,28.0,35.0,16
970,31408.0,-0.6000000000000001,0.30000000000000004,-3.4000000000000004,-0.5,3.0,6.1000000000000005,19.700000000000003,7.699999999999999,48.6,16
971,31423.0,0.30000000000000004,1.2000000000000002,-3.7,0.5,3.9000000000000004,5.7,27.5,-13.200000000000003,50.1,16
972,31438.0,0.6000000000000001,1.5,-3.8000000000000003,0.8,4.3,5.6000000000000005,28.1,-17.7,46.4,16
973,31454.0,0.8,1.7000000000000002,-3.8000000000000003,1.3,4.7,5.800000000000001,21.300000000000004,-15.700000000000001,34.0,16
974,31471.0,1.0,2.0,-3.0,1.4000000000000001,4.9,6.300000000000001,15.100000000000001,-13.000000000000002,26.799999999999997,16
975,31488.0,0.8,1.9000000000000001,-2.4000000000000004,1.3,4.800000000000001,7.0,7.1000000000000005,1.7,10.200000000000001,16
976,31506.0,0.5,1.9000000000000001,-2.1,0.30000000000000004,4.800000000000001,7.5,5.7,17.200000000000003,-2.4000000000000004,16
977,31524.0,-0.9,1.8,-1.0,-0.5,4.800000000000001,8.3,3.3000000000000007,15.700000000000001,-6.9,16
978,31541.0,-0.9,2.0,-0.2,-0.6000000000000001,4.9,9.200000000000001,3.2,10.5,-7.300000000000001,16
979,31555.0,-0.9,2.0,-0.2,-0.6000000000000001,4.9,9.200000000000001,3.2,10.5,-7.300000000000001,16
980,31572.0,-0.5,2.5,0.0,-0.30000000000000004,5.5,9.3,11.8,19.5,-7.0,16
981,31588.0,-0.6000000000000001,2.7,-0.2,-0.4,5.7,9.200000000000001,14.5,22.4,-9.0,16
982,31605.0,-0.7000000000000001,2.9000000000000004,-0.7000000000000001,-0.6000000000000001,6.0,8.6,14.100000000000001,16.8,-14.900000000000002,16
983,31621.0,-0.7000000000000001,2.9000000000000004,-0.7000000000000001,-0.7000000000000001,6.0,8.6,8.8,10.600000000000001,-18.1,16
984,31639.0,-1.1,2.2,0.4,-1.0,5.4,9.600000000000001,-11.1,-4.1,-19.5,16
985,31656.0,-1.7000000000000002,2.4000000000000004,2.7,-1.7000000000000002,5.6000000000000005,12.0,-27.400000000000002,1.1,0.0,16
986,31671.0,-1.6,2.9000000000000004,3.2,-1.5,6.0,12.600000000000001,-21.7,13.8,11.700000000000001,16
987,31688.0,0.30000000000000004,3.1,2.4000000000000004,0.30000000000000004,6.1000000000000005,11.700000000000001,-1.9,20.599999999999998,26.1,16
988,31704.0,1.9000000000000001,2.5,2.8000000000000003,1.8,5.5,12.100000000000001,1.6,-5.0,17.200000000000003,16
989,31721.0,1.8,0.6000000000000001,3.7,1.9000000000000001,3.6,13.0,1.0,-19.6,2.8,16
990,31738.0,1.2000000000000002,-0.2,3.5,1.3,2.8000000000000003,12.9,3.6000000000000005,-17.7,-1.5,16
991,31754.0,0.5,-0.9,2.9000000000000004,0.6000000000000001,2.1,12.3,9.4,-6.500000000000001,-1.1,16
992,31771.0,-0.30000000000000004,-1.3,0.8,0.0,1.9000000000000001,9.3,36.8,28.600000000000005,20.400000000000002,16
993,31788.0,0.8,-0.7000000000000001,-0.7000000000000001,0.8,2.5,8.6,42.0,15.000000000000002,28.3,16
994,31808.0,2.0,0.2,-1.9000000000000001,2.0,3.5,7.300000000000001,39.400000000000006,7.0,25.1,16
995,31821.0,2.5,0.30000000000000004,-2.3000000000000003,2.5,3.7,6.9,30.699999999999996,-0.9000000000000001,17.6,16
996,31838.0,2.8000000000000003,0.1,-2.1,2.8000000000000003,3.5,7.0,12.0,1.6,-13.700000000000001,16
997,31855.0,1.0,-0.2,-1.7000000000000002,1.0,3.3000000000000003,7.4,0.6000000000000001,8.4,-38.900000000000006,16
998,31871.0,0.1,-0.7000000000000001,-2.3000000000000003,0.1,2.8000000000000003,6.9,2.9,18.1,-43.2,16
999,31892.0,-0.8,-0.4,-3.0,-1.3,3.3000000000000003,5.800000000000001,14.700000000000001,27.6,-37.300000000000004,16
1000,31905.0,-1.1,-0.1,-3.8000000000000003,-1.3,3.5,5.4,19.300000000000004,24.1,-30.699999999999996,16
1001,31921.0,-0.9,1.2000000000000002,-4.3,-1.3,4.800000000000001,4.800000000000001,25.1,8.899999999999999,-21.200000000000003,16
1002,31938.0,-0.7000000000000001,1.4000000000000001,-4.3,-1.1,5.0,4.800000000000001,26.1,0.0,-17.6,16
1003,31955.0,-0.30000000000000004,1.5,-4.1000000000000005,-0.7000000000000001,5.2,5.0,22.8,-12.8,-15.6,16
1004,31971.0,0.0,1.6,-3.2,-0.6000000000000001,5.2,6.300000000000001,2.6,-26.400000000000006,-24.400000000000002,16
1005,31996.0,-0.7000000000000001,0.7000000000000001,-1.9000000000000001,-1.1,4.4,7.1000000000000005,-12.299999999999999,-13.000000000000002,-23.3,16
1006,32006.0,-0.9,0.4,-1.6,-1.2000000000000002,4.1000000000000005,7.5,-17.200000000000003,0.2,-17.6,16
1007,32022.0,-1.2000000000000002,1.0,-1.4000000000000001,-1.6,4.6000000000000005,7.7,-22.000000000000004,24.8,-5.500000000000001,16
1008,32038.0,-1.2000000000000002,1.0,-1.4000000000000001,-1.7000000000000002,5.0,7.7,-21.7,29.400000000000002,0.6000000000000001,16
1009,32054.0,-1.1,1.8,-1.4000000000000001,-1.4000000000000001,5.6000000000000005,7.7,-17.0,17.799999999999997,9.700000000000001,16
1010,32071.0,-0.6000000000000001,2.3000000000000003,-1.4000000000000001,-1.1,5.800000000000001,7.800000000000001,-13.200000000000003,8.100000000000001,11.000000000000002,16
1011,32088.0,-0.4,2.9000000000000004,-0.8,-1.0,6.4,8.3,-6.9,-4.800000000000001,8.700000000000001,16
1012,32112.0,-0.5,3.1,-0.1,-1.0,6.6000000000000005,9.1,-1.8000000000000003,-0.6000000000000001,6.4,16
1013,32122.0,-0.4,3.0,0.6000000000000001,-0.9,6.6000000000000005,9.8,-2.3,-3.0,5.2,16
1014,32139.0,-0.30000000000000004,2.9000000000000004,1.0,-0.8,6.5,10.100000000000001,-4.2,-0.5,4.800000000000001,16
1015,32160.0,0.6000000000000001,2.7,2.7,0.1,6.2,11.8,-17.7,5.1000000000000005,0.0,16
1016,32171.0,0.4,2.8000000000000003,3.2,-0.2,6.300000000000001,12.4,-19.799999999999997,5.8,-3.9,16
1017,32188.0,-0.5,3.3000000000000003,3.1,-1.0,6.7,12.3,-16.200000000000003,17.200000000000003,-4.6,16
1018,32205.0,-1.8,3.5,0.1,-2.4000000000000004,6.9,9.3,1.9,64.50000000000001,5.7,16
1019,32222.0,-0.1,3.3000000000000003,-0.1,-0.9,6.7,9.1,-5.4,46.7,13.3,16
1020,32239.0,0.4,2.5,0.5,-0.5,5.9,9.700000000000001,-20.1,-6.500000000000001,4.9,16
1021,32255.0,0.1,0.7000000000000001,2.7,-0.7000000000000001,4.0,11.9,-35.2,-54.300000000000004,-17.6,16
1022,32271.0,-0.2,-0.5,2.9000000000000004,-0.9,2.8000000000000003,12.100000000000001,-24.599999999999998,-33.800000000000004,-22.6,16
1023,32288.0,-0.8,-0.8,2.4000000000000004,-3.1,2.8000000000000003,10.100000000000001,3.0,15.2,-14.300000000000002,16
1024,32308.0,-0.9,-0.2,-1.5,-1.7000000000000002,3.0,7.7,7.300000000000001,32.300000000000004,6.500000000000001,16
1025,32325.0,0.5,-0.4,-2.4000000000000004,-0.30000000000000004,2.8000000000000003,6.9,-11.900000000000002,6.2,-5.300000000000001,16
1026,32338.0,0.30000000000000004,-0.1,-1.8,-0.5,3.1,7.4,-22.2,-4.800000000000001,-18.1,16
1027,32359.0,-0.5,0.2,-1.1,-1.4000000000000001,3.4000000000000004,8.200000000000001,-30.3,-23.700000000000003,-28.500000000000004,16
1028,32371.0,-0.2,-1.1,-1.0,-0.7000000000000001,1.6,8.3,-30.4,-53.50000000000001,-29.0,16
1029,32388.0,-0.1,-1.3,-1.3,-0.8,1.7000000000000002,8.1,-23.700000000000003,-45.9,-25.4,16
1030,32404.0,-0.6000000000000001,-0.5,-1.5,-1.1,2.3000000000000003,7.9,-10.5,6.500000000000001,9.2,16
1031,32423.0,-0.7000000000000001,0.0,-1.7000000000000002,-1.4000000000000001,3.1,6.9,-9.600000000000001,31.2,33.9,16
1032,32438.0,-0.8,0.30000000000000004,-2.5,-1.3,3.3000000000000003,6.300000000000001,-12.5,21.0,41.6,16
1033,32456.0,-0.2,0.9,-3.3000000000000003,-0.9,3.7,6.1000000000000005,-21.300000000000004,-3.0,40.9,16
1034,32472.0,0.1,1.1,-3.0,-0.5,3.9000000000000004,6.4,-22.1,-15.2,34.300000000000004,16
1035,32488.0,0.6000000000000001,2.2,-2.1,0.1,4.9,7.300000000000001,-17.0,-27.099999999999998,17.200000000000003,16
1036,32506.0,0.1,2.5,-1.3,-0.30000000000000004,5.1000000000000005,8.1,-6.500000000000001,-32.0,7.400000000000001,16
1037,32521.0,-0.1,1.8,-1.0,-0.4,4.4,8.4,7.1000000000000005,-37.50000000000001,3.6000000000000005,16
1038,32538.0,-0.1,1.8,-1.0,-0.5,4.4,8.3,17.200000000000003,-31.9,1.7,16
1039,32555.0,-0.4,1.8,-1.3,-0.6000000000000001,4.5,8.1,27.2,-22.700000000000003,-1.0,16
1040,32571.0,-0.8,2.0,-1.8,-0.9,4.800000000000001,7.6000000000000005,24.8,-18.8,-10.600000000000001,16
1041,32588.0,-0.9,1.9000000000000001,-1.7000000000000002,-1.0,4.800000000000001,7.7,13.200000000000003,-18.8,-7.699999999999999,16
1042,32604.0,-0.9,1.9000000000000001,-0.30000000000000004,-0.9,4.800000000000001,9.0,-11.3,-13.900000000000002,1.8000000000000003,16
1043,32621.0,-0.7000000000000001,2.1,1.1,-0.7000000000000001,4.9,10.4,-19.400000000000002,-7.400000000000001,3.1,16
1044,32638.0,-0.6000000000000001,2.1,1.5,-0.6000000000000001,5.0,10.9,-16.0,-2.5,-0.2,16
1045,32654.0,-0.8,2.1,1.8,-0.7000000000000001,4.9,11.200000000000001,-6.4,0.0,-11.8,16
1046,32671.0,-1.1,1.9000000000000001,2.2,-1.0,4.6000000000000005,11.600000000000001,-7.1000000000000005,0.4,-15.399999999999999,16
1047,32690.0,-1.7000000000000002,1.9000000000000001,3.1,-1.7000000000000002,4.6000000000000005,12.5,-11.700000000000001,3.2,-7.699999999999999,16
1048,32712.0,-0.5,2.5,1.7000000000000002,-0.5,5.2,11.100000000000001,-2.6,25.6,15.000000000000002,16
1049,32722.0,-0.5,2.5,1.7000000000000002,-0.5,5.2,11.100000000000001,-2.6,25.6,15.000000000000002,16
1050,32738.0,-0.5,2.5,1.7000000000000002,-0.5,5.2,11.100000000000001,-2.6,25.6,15.000000000000002,16
1051,32761.0,0.2,-0.4,3.7,0.1,2.2,13.100000000000001,-14.800000000000002,-21.300000000000004,-8.2,16
1052,32771.0,0.2,-0.4,3.7,0.1,2.2,13.100000000000001,-14.800000000000002,-21.300000000000004,-8.2,16
1053,32797.0,-0.1,-0.9,3.0,0.30000000000000004,2.1,11.600000000000001,15.299999999999999,25.7,29.500000000000004,16
1054,32806.0,0.5,0.4,0.7000000000000001,0.5,3.1,10.100000000000001,26.799999999999997,29.400000000000002,34.0,16
1055,32821.0,1.0,0.8,-0.7000000000000001,0.9,3.5,8.8,32.9,23.3,33.7,16
1056,32838.0,1.6,1.0,-1.7000000000000002,1.8,3.9000000000000004,7.2,24.599999999999998,-2.2,21.400000000000002,16
1057,32854.0,1.6,0.7000000000000001,-2.1,1.6,3.5,7.300000000000001,2.9,-14.100000000000001,3.6000000000000005,16
1058,32871.0,1.1,0.4,-1.8,1.1,3.3000000000000003,7.6000000000000005,-7.200000000000001,-11.3,-3.8,16
1059,32891.0,0.1,0.0,-1.1,0.1,2.9000000000000004,8.3,-20.5,8.3,-8.700000000000001,16
1060,32905.0,-0.5,-0.1,-1.1,-0.5,2.7,8.3,-10.8,15.299999999999999,-1.0,16
1061,32921.0,-0.5,0.1,-1.4000000000000001,-0.6000000000000001,2.9000000000000004,8.0,-1.0,13.399999999999999,2.7,16
1062,32938.0,-0.30000000000000004,0.8,-2.6,-0.30000000000000004,3.6,6.800000000000001,20.599999999999998,7.1000000000000005,4.300000000000001,16
1063,32954.0,-0.30000000000000004,1.1,-3.3000000000000003,-0.4,4.0,6.1000000000000005,27.5,1.8000000000000003,1.7,16
1064,32974.0,-0.30000000000000004,1.2000000000000002,-3.6,-0.4,4.2,5.800000000000001,20.3,-11.700000000000001,-4.2,16
1065,32994.0,-0.30000000000000004,1.2000000000000002,-3.1,-0.2,4.1000000000000005,6.7,12.200000000000001,-9.700000000000001,-2.2,16
1066,33008.0,-0.1,1.1,-2.1,-0.2,4.1000000000000005,7.300000000000001,11.900000000000002,-8.5,-0.30000000000000004,16
1067,33021.0,0.0,1.2000000000000002,-1.8,0.4,4.5,7.6000000000000005,14.300000000000002,-9.5,1.4,16
1068,33038.0,0.5,1.6,-1.6,0.6000000000000001,4.7,7.7,21.200000000000003,-15.6,2.0,16
1069,33054.0,0.7000000000000001,1.9000000000000001,-1.4000000000000001,0.9,5.2,8.1,22.3,-23.800000000000004,-3.1,16
1070,33073.0,0.7000000000000001,2.1,-0.9,0.8,5.300000000000001,8.3,23.0,-18.4,-6.600000000000001,16
1071,33088.0,-0.1,1.9000000000000001,-0.9,0.1,5.2,8.4,23.6,1.8000000000000003,-10.1,16
1072,33104.0,-0.6000000000000001,2.1,-1.3,-0.4,5.5,7.9,21.0,17.200000000000003,-5.2,16
1073,33121.0,-0.7000000000000001,2.4000000000000004,-1.6,-0.6000000000000001,5.800000000000001,7.6000000000000005,14.700000000000001,24.5,1.4,16
1074,33138.0,-0.6000000000000001,2.3000000000000003,-1.6,-0.6000000000000001,6.0,7.6000000000000005,10.8,22.000000000000004,3.7000000000000006,16
1075,33156.0,-0.5,2.6,-1.3,-0.5,6.2,7.800000000000001,7.0,15.8,4.6,16
1076,33171.0,0.0,2.2,0.5,0.0,5.800000000000001,9.600000000000001,0.30000000000000004,-11.700000000000001,-0.1,16
1077,33188.0,0.1,1.8,1.4000000000000001,0.1,5.300000000000001,10.5,1.1,-26.400000000000006,-3.5,16
1078,33217.0,-1.4000000000000001,2.1,2.3000000000000003,-1.3,5.7,11.4,15.2,10.299999999999999,13.200000000000003,16
1079,33222.0,-1.4000000000000001,2.1,2.3000000000000003,-0.9,5.9,10.200000000000001,19.300000000000004,36.300000000000004,23.2,16
1080,33237.0,-0.6000000000000001,2.6,0.30000000000000004,-0.6000000000000001,6.2,9.4,18.200000000000003,44.300000000000004,28.0,16
1081,33258.0,0.0,2.7,0.30000000000000004,0.0,6.4,9.4,4.2,12.4,22.2,16
1082,33273.0,0.4,2.1,0.9,0.30000000000000004,5.800000000000001,10.0,-4.800000000000001,-12.9,13.200000000000003,16
1083,33297.0,-0.5,0.4,2.7,-0.4,4.0,11.8,-11.1,-33.400000000000006,-6.0,16
1084,33308.0,-0.9,-0.1,2.9000000000000004,-0.8,3.6,12.0,-8.8,-21.900000000000002,-5.8,16
1085,33321.0,-1.2000000000000002,-0.30000000000000004,2.1,-1.0,3.3000000000000003,11.200000000000001,-1.4,8.100000000000001,0.1,16
1086,33338.0,-1.2000000000000002,-0.30000000000000004,2.1,-0.8,3.2,10.600000000000001,3.0,16.900000000000002,3.8,16
1087,33354.0,-0.9,-0.2,0.6000000000000001,-0.7000000000000001,3.4000000000000004,9.700000000000001,7.8,14.0,6.4,16
1088,33376.0,-0.1,-0.4,-0.7000000000000001,0.0,3.3000000000000003,8.4,1.1,-4.800000000000001,4.6,16
1089,33394.0,-0.1,-0.5,-1.1,0.1,3.1,8.0,-3.4,3.3000000000000007,4.5,16
1090,33410.0,0.0,-0.4,-1.5,0.1,3.2,7.6000000000000005,-3.1,14.100000000000001,6.300000000000001,16
1091,33430.0,0.0,-0.1,-2.7,0.1,3.6,6.4,0.6000000000000001,39.0,11.5,16
1092,33440.0,0.0,-0.1,-2.7,0.0,3.9000000000000004,5.9,3.4,43.6,13.8,16
1093,33455.0,-0.1,0.6000000000000001,-3.5,-0.2,4.5,5.6000000000000005,11.6,28.3,18.3,16
1094,33474.0,0.2,0.9,-3.5,0.0,4.5,5.6000000000000005,17.799999999999997,14.900000000000002,21.7,16
1095,33488.0,0.30000000000000004,1.0,-3.6,0.1,4.800000000000001,5.4,22.5,-14.400000000000002,21.0,16
1096,33505.0,0.5,0.9,-3.3000000000000003,0.5,4.7,5.7,10.299999999999999,-21.500000000000004,19.300000000000004,16
1097,33522.0,0.4,0.6000000000000001,-2.9000000000000004,0.5,4.5,6.1000000000000005,-1.1,3.0,13.6,16
1098,33538.0,0.4,0.6000000000000001,-2.9000000000000004,0.4,4.5,6.2,-7.699999999999999,14.900000000000002,11.900000000000002,16
1099,33554.0,0.5,0.7000000000000001,-2.9000000000000004,0.5,4.4,6.2,-12.600000000000001,23.099999999999998,10.299999999999999,16
1100,33571.0,0.6000000000000001,0.2,-2.7,0.5,3.9000000000000004,6.4,-13.200000000000003,14.100000000000001,-9.5,16
1101,33588.0,0.7000000000000001,0.30000000000000004,-2.9000000000000004,0.5,4.1000000000000005,6.2,-11.700000000000001,7.6,-15.299999999999999,16
1102,33605.0,0.9,0.6000000000000001,-3.0,0.8,4.3,6.1000000000000005,-18.5,6.4,-26.000000000000004,16
1103,33621.0,-0.2,-1.6,-2.7,-0.4,2.0,6.4,-35.0,26.1,-39.599999999999994,16
1104,33638.0,-0.1,-1.5,-2.7,0.6000000000000001,2.6,7.0,-44.7,40.300000000000004,-37.6,16
1105,33654.0,1.0,0.8,-0.8,0.5,4.1000000000000005,8.4,-60.5,49.50000000000001,-49.6,16
1106,33671.0,-0.4,1.7000000000000002,-0.1,-1.0,5.0,9.200000000000001,-52.00000000000001,86.00000000000001,-67.8,16
1107,33693.0,-2.2,2.9000000000000004,0.7000000000000001,-3.3000000000000003,5.9,10.0,-48.800000000000004,53.50000000000001,-83.80000000000001,16
1108,33708.0,-2.4000000000000004,2.8000000000000003,1.5,-3.6,5.7,10.8,-48.9,39.9,-77.80000000000001,16
1109,33724.0,-1.7000000000000002,2.6,2.0,-3.1,5.4,11.3,-43.1,60.300000000000004,-56.7,16
1110,33739.0,-1.4000000000000001,2.5,2.3000000000000003,-2.9000000000000004,5.1000000000000005,11.600000000000001,-42.400000000000006,85.5,-49.699999999999996,16
1111,33754.0,-0.5,2.3000000000000003,2.2,-2.3000000000000003,4.9,11.5,-37.2,97.7,-45.8,16
1112,33772.0,0.9,1.6,2.5,-1.2000000000000002,4.0,11.8,-39.599999999999994,88.60000000000001,-58.60000000000001,16
1113,33788.0,0.30000000000000004,1.0,3.6,-2.1,3.3000000000000003,12.8,-41.0,51.70000000000001,-91.90000000000002,16
1114,33808.0,-0.6000000000000001,0.8,3.7,-4.0,2.5,12.600000000000001,-19.300000000000004,36.1,-89.5,16
1115,33821.0,-0.9,-0.30000000000000004,2.0,-3.7,1.6,11.200000000000001,7.500000000000001,38.0,-48.70000000000001,16
1116,33838.0,-0.8,-0.2,2.0,-2.9000000000000004,1.5,10.600000000000001,20.7,41.300000000000004,-24.5,16
1117,33855.0,1.7000000000000002,0.6000000000000001,0.30000000000000004,-1.3,2.6,9.5,42.800000000000004,37.800000000000004,4.7,16
1118,33871.0,2.3000000000000003,0.7000000000000001,-0.1,-0.8,2.7,9.0,48.800000000000004,35.1,3.2,16
1119,33899.0,2.2,0.4,-0.6000000000000001,-1.1,2.7,8.4,44.300000000000004,31.799999999999997,-38.60000000000001,16
1120,33908.0,2.2,0.4,-0.6000000000000001,-1.1,2.7,8.4,44.300000000000004,31.799999999999997,-38.60000000000001,16
1121,33922.0,2.2,0.4,-0.6000000000000001,-2.3000000000000003,3.1,8.1,44.300000000000004,31.799999999999997,-38.60000000000001,16
1122,33938.0,0.5,0.4,-1.5,-3.1,2.7,7.300000000000001,45.5,43.4,-58.0,16
1123,33955.0,0.0,0.5,-2.0,-3.6,2.9000000000000004,6.800000000000001,48.50000000000001,47.3,-53.50000000000001,16
1124,33971.0,-0.4,1.4000000000000001,-2.8000000000000003,-4.3,4.0,5.800000000000001,49.1,41.1,-36.400000000000006,16
1125,33988.0,-0.8,1.6,-2.8000000000000003,-4.7,4.2,5.800000000000001,45.8,35.599999999999994,-38.0,16
1126,34008.0,-0.7000000000000001,1.4000000000000001,-2.5,-4.800000000000001,4.1000000000000005,6.0,38.2,31.099999999999998,-42.0,16
1127,34021.0,-0.7000000000000001,1.4000000000000001,-2.6,-5.0,4.1000000000000005,5.9,28.3,26.1,-39.599999999999994,16
1128,34039.0,-0.7000000000000001,1.4000000000000001,-2.5,-5.300000000000001,4.2,6.2,22.700000000000003,26.5,-37.300000000000004,16
1129,34054.0,-1.0,1.0,-1.9000000000000001,-5.4,3.7,6.4,14.0,36.1,-24.0,16
1130,34071.0,-0.5,0.8,-2.0,-4.9,3.5,6.300000000000001,9.4,38.800000000000004,-18.6,16
1131,34088.0,0.0,1.2000000000000002,-2.0,-4.6000000000000005,3.9000000000000004,6.2,1.4,33.2,-20.2,16
1132,34106.0,-0.8,1.6,-1.7000000000000002,-5.5,4.3,6.5,-4.1,21.7,-28.500000000000004,16
1133,34121.0,-1.3,1.5,-1.6,-6.1000000000000005,4.1000000000000005,6.5,-5.9,14.300000000000002,-23.0,16
1134,34137.0,-1.3,1.4000000000000001,-2.9000000000000004,-6.1000000000000005,4.1000000000000005,5.2,-11.900000000000002,15.299999999999999,-20.599999999999998,16
1135,34154.0,-1.2000000000000002,1.5,-2.9000000000000004,-6.9,4.4,5.800000000000001,-25.200000000000003,9.600000000000001,-15.100000000000001,16
1136,34172.0,-0.9,2.3000000000000003,-1.0,-5.800000000000001,4.7,7.1000000000000005,-38.900000000000006,-6.0,-31.400000000000002,16
1137,34193.0,-1.3,1.8,-0.9,-6.2,4.2,7.300000000000001,-44.2,-12.4,-39.50000000000001,16
1138,34205.0,-2.3000000000000003,1.4000000000000001,0.30000000000000004,-7.2,3.5,8.5,-56.50000000000001,-36.400000000000006,-34.7,16
1139,34223.0,-2.3000000000000003,2.2,2.4000000000000004,-7.5,3.6,9.3,-59.1,-48.50000000000001,-25.8,16
1140,34238.0,-2.4000000000000004,2.3000000000000003,2.3000000000000003,-6.1000000000000005,4.6000000000000005,11.100000000000001,-46.9,-45.0,-2.8,16
1141,34254.0,0.2,3.3000000000000003,-0.2,-4.4,5.1000000000000005,8.200000000000001,-28.800000000000004,-6.500000000000001,-9.600000000000001,16
1142,34271.0,0.1,3.4000000000000004,-0.1,-4.5,5.1000000000000005,8.3,-40.7,-25.8,-36.300000000000004,16
1143,34299.0,-1.6,1.9000000000000001,1.5,-6.2,3.4000000000000004,10.100000000000001,-60.900000000000006,-63.8,-72.2,16
1144,34311.0,-2.8000000000000003,-0.4,3.0,-7.2,0.7000000000000001,11.700000000000001,-65.89999999999999,-90.30000000000001,-65.10000000000001,16
