,ms,accelX,accelY,accelZ,accelWithGX,accelWithGY,accelWithGZ,rotRateAlpha,rotRateBeta,rotRateGamma,interval
0,93.0,0.0,0.0,0.0,1.2000000000000002,5.4,8.4,0.7,0.9000000000000001,-3.9,16
1,105.0,0.0,0.0,0.0,1.2000000000000002,5.300000000000001,8.4,1.8000000000000003,1.6,-3.8,16
2,142.0,0.0,0.0,0.0,1.1,5.300000000000001,8.4,3.3000000000000007,0.4,-3.4,16
3,151.0,0.0,0.0,0.0,1.2000000000000002,5.300000000000001,8.5,3.3000000000000007,0.4,-3.4,16
4,176.0,0.1,-0.1,0.1,1.2000000000000002,5.300000000000001,8.5,5.7,-1.0,-3.0,16
5,184.0,0.0,-0.1,0.1,1.2000000000000002,5.300000000000001,8.5,7.400000000000001,-1.9,-3.1,16
6,203.0,0.1,-0.1,-0.1,1.3,5.300000000000001,8.3,8.8,-3.1,-3.0,16
7,219.0,0.1,-0.1,-0.1,1.3,5.4,8.1,8.8,-3.1,-3.0,16
8,234.0,0.0,-0.1,-0.30000000000000004,1.2000000000000002,5.300000000000001,8.1,6.699999999999999,-2.2,-3.5,16
9,250.0,0.0,-0.1,-0.30000000000000004,1.1,5.300000000000001,8.1,6.699999999999999,-2.2,-3.5,16
10,267.0,-0.1,-0.1,-0.1,1.1,5.300000000000001,8.3,4.2,-1.0,-2.9,16
11,284.0,-0.1,-0.2,0.1,1.1,5.2,8.4,2.8,-1.7,-0.30000000000000004,16
12,302.0,-0.1,-0.2,0.1,1.1,5.2,8.4,2.8,-1.7,-0.30000000000000004,16
13,317.0,-0.1,-0.2,0.1,1.1,5.2,8.4,3.3000000000000007,-3.3000000000000007,0.6000000000000001,16
14,357.0,0.0,-0.1,0.0,1.3,5.300000000000001,8.3,6.1000000000000005,-8.700000000000001,4.6,16
15,373.0,0.2,0.0,-0.1,1.5,5.5,8.1,6.2,-8.100000000000001,5.500000000000001,16
16,388.0,0.2,0.0,-0.1,1.6,5.6000000000000005,8.0,6.2,-8.100000000000001,5.500000000000001,16
17,401.0,0.4,0.30000000000000004,-0.30000000000000004,1.8,5.800000000000001,7.9,5.2,-5.1000000000000005,4.1,16
18,417.0,0.4,0.30000000000000004,-0.30000000000000004,1.8,5.9,7.800000000000001,5.2,-5.1000000000000005,4.1,16
19,435.0,0.4,0.4,-0.4,1.9000000000000001,5.9,7.800000000000001,4.0,-4.9,1.8000000000000003,16
20,452.0,0.30000000000000004,0.4,-0.30000000000000004,1.8,5.9,7.800000000000001,0.7,-1.4,-3.3000000000000007,16
21,467.0,0.30000000000000004,0.4,-0.30000000000000004,1.6,5.9,7.800000000000001,0.7,-1.4,-3.3000000000000007,16
22,484.0,0.1,0.30000000000000004,-0.30000000000000004,1.4000000000000001,5.800000000000001,7.9,-1.3,0.9000000000000001,-5.300000000000001,16
23,502.0,-0.1,0.1,-0.1,1.3,5.6000000000000005,8.0,-4.5,3.0,-6.8,16
24,519.0,-0.2,0.0,0.0,1.1,5.5,8.200000000000001,-5.300000000000001,2.7,-6.500000000000001,16
25,536.0,-0.2,0.0,0.0,1.1,5.4,8.200000000000001,-5.300000000000001,2.7,-6.500000000000001,16
26,551.0,-0.30000000000000004,-0.2,0.1,1.1,5.300000000000001,8.3,-5.0,2.0,-4.4,16
27,568.0,-0.30000000000000004,-0.1,0.1,1.0,5.4,8.3,-5.0,1.0,-3.3000000000000007,16
28,585.0,-0.30000000000000004,-0.1,0.1,1.0,5.4,8.4,-5.0,1.0,-3.3000000000000007,16
29,604.0,-0.30000000000000004,-0.1,0.2,1.1,5.4,8.5,-4.4,-0.9000000000000001,-1.8000000000000003,16
30,617.0,-0.2,-0.1,0.30000000000000004,1.2000000000000002,5.4,8.5,-3.6000000000000005,-3.8,0.2,16
31,634.0,-0.1,0.0,0.30000000000000004,1.3,5.5,8.5,-2.7,-2.8,1.1,16
32,650.0,0.0,0.1,0.2,1.5,5.5,8.3,-1.5,-2.6,2.1,16
33,667.0,0.30000000000000004,0.0,0.2,1.7000000000000002,5.5,8.4,0.5,-3.6000000000000005,1.3,16
34,684.0,0.30000000000000004,0.0,0.2,1.7000000000000002,5.5,8.3,0.5,-3.6000000000000005,1.3,16
35,706.0,0.30000000000000004,0.0,0.0,1.5,5.4,8.1,2.2,-1.9,-0.6000000000000001,16
36,718.0,0.0,-0.1,-0.2,1.4000000000000001,5.4,8.0,1.0,-1.2000000000000002,-3.3000000000000007,16
37,735.0,0.0,-0.1,-0.2,1.4000000000000001,5.4,8.1,1.0,-1.2000000000000002,-3.3000000000000007,16
38,756.0,-0.1,0.0,-0.30000000000000004,1.2000000000000002,5.5,7.9,0.4,-0.1,-3.9,16
39,767.0,-0.2,0.0,-0.4,1.2000000000000002,5.5,7.800000000000001,-1.2000000000000002,-2.2,-3.6000000000000005,16
40,784.0,-0.2,0.0,-0.4,1.2000000000000002,5.5,7.9,-1.2000000000000002,-2.2,-3.6000000000000005,16
41,803.0,-0.1,0.0,-0.30000000000000004,1.4000000000000001,5.5,7.9,-3.3000000000000007,-4.300000000000001,-2.3,16
42,817.0,0.0,0.0,-0.4,1.4000000000000001,5.5,7.800000000000001,-6.9,-6.300000000000001,-2.8,16
43,834.0,0.0,0.0,-0.4,1.5,5.5,8.0,-6.9,-6.300000000000001,-2.8,16
44,851.0,0.2,0.0,0.0,1.8,5.4,8.5,-9.2,-5.9,-2.1,16
45,867.0,0.4,0.0,0.30000000000000004,1.8,5.300000000000001,8.6,-8.700000000000001,-2.0,-2.5,16
46,884.0,0.4,0.0,0.30000000000000004,1.7000000000000002,5.300000000000001,8.6,-6.699999999999999,-1.0,-4.5,16
47,907.0,0.1,0.0,0.1,1.5,5.300000000000001,8.4,-3.6000000000000005,-2.4000000000000004,-5.6,16
48,917.0,0.1,0.0,0.1,1.5,5.300000000000001,8.3,-3.6000000000000005,-2.4000000000000004,-5.6,16
49,934.0,0.1,0.1,-0.2,1.5,5.4,8.1,-3.0,-0.6000000000000001,-5.2,16
50,951.0,0.1,0.1,-0.2,1.4000000000000001,5.5,7.9,-3.0,-0.6000000000000001,-5.2,16
51,969.0,0.0,0.1,-0.4,1.3,5.5,7.800000000000001,-4.300000000000001,-1.8000000000000003,-5.4,16
52,984.0,-0.1,0.1,-0.30000000000000004,1.3,5.5,7.9,-9.4,-3.7000000000000006,-5.500000000000001,16
53,1000.0,-0.1,0.1,-0.30000000000000004,1.3,5.4,8.1,-9.4,-3.7000000000000006,-5.500000000000001,16
54,1017.0,0.0,0.1,-0.1,1.5,5.4,8.4,-11.000000000000002,-2.2,-5.500000000000001,16
55,1034.0,0.0,0.1,0.2,1.4000000000000001,5.4,8.5,-9.3,-0.2,-8.2,16
56,1050.0,0.0,0.1,0.2,1.3,5.4,8.5,-9.3,-0.2,-8.2,16
57,1067.0,-0.1,0.1,0.2,1.2000000000000002,5.300000000000001,8.5,-8.0,-0.30000000000000004,-8.700000000000001,16
58,1084.0,-0.1,0.1,0.2,1.2000000000000002,5.300000000000001,8.5,-7.200000000000001,-2.0,-7.300000000000001,16
59,1100.0,-0.1,0.1,0.2,1.3,5.300000000000001,8.6,-7.200000000000001,-2.0,-7.300000000000001,16
60,1119.0,-0.1,0.0,0.30000000000000004,1.3,5.2,8.700000000000001,-6.4,-3.1,-6.9,16
61,1136.0,0.0,-0.1,0.4,1.5,5.0,8.8,-4.5,-4.6,-6.300000000000001,16
62,1152.0,0.2,-0.2,0.30000000000000004,1.6,5.0,8.700000000000001,1.9,-6.2,-6.1000000000000005,16
63,1168.0,0.2,-0.2,0.30000000000000004,1.6,4.9,8.6,1.9,-6.2,-6.1000000000000005,16
64,1185.0,0.30000000000000004,-0.30000000000000004,0.2,1.7000000000000002,4.9,8.3,4.7,-7.200000000000001,-6.300000000000001,16
65,1204.0,0.30000000000000004,-0.30000000000000004,-0.30000000000000004,1.8,5.0,8.0,6.4,-8.600000000000001,-5.500000000000001,16
66,1220.0,0.30000000000000004,-0.30000000000000004,-0.30000000000000004,1.8,5.0,8.0,6.4,-8.600000000000001,-5.500000000000001,16
67,1234.0,0.4,-0.2,-0.4,2.0,5.1000000000000005,7.9,4.800000000000001,-9.2,-5.2,16
68,1250.0,0.7000000000000001,-0.1,-0.1,2.2,5.2,8.200000000000001,0.4,-15.299999999999999,-5.9,16
69,1267.0,0.7000000000000001,-0.1,-0.1,2.4000000000000004,5.2,8.3,0.4,-15.299999999999999,-5.9,16
70,1284.0,0.9,0.0,0.1,2.6,5.300000000000001,8.5,-0.7,-17.7,-6.9,16
71,1301.0,1.1,0.1,0.30000000000000004,2.9000000000000004,5.300000000000001,8.6,-1.1,-23.400000000000002,-11.6,16
72,1317.0,1.1,0.1,0.30000000000000004,3.0,5.300000000000001,8.6,-1.1,-23.400000000000002,-11.6,16
73,1334.0,1.3,0.1,0.4,3.3000000000000003,5.300000000000001,8.700000000000001,-1.5,-23.0,-13.700000000000001,16
74,1350.0,1.6,0.0,0.30000000000000004,3.5,5.300000000000001,8.6,-0.6000000000000001,-18.1,-22.3,16
75,1367.0,1.6,0.0,0.30000000000000004,3.4000000000000004,5.2,8.5,-0.6000000000000001,-18.1,-22.3,16
76,1384.0,1.5,-0.1,0.1,3.2,5.2,8.200000000000001,0.4,-16.0,-28.0,16
77,1403.0,0.8,-0.1,-0.5,2.7,5.2,7.800000000000001,0.1,-10.9,-36.7,16
78,1419.0,0.4,-0.1,-0.7000000000000001,2.2,5.2,7.6000000000000005,-2.1,-9.5,-38.300000000000004,16
79,1434.0,0.4,-0.1,-0.7000000000000001,2.0,5.2,7.5,-2.1,-9.5,-38.300000000000004,16
80,1450.0,0.2,-0.1,-0.7000000000000001,1.7000000000000002,5.2,7.5,-4.9,-8.899999999999999,-38.50000000000001,16
81,1467.0,0.0,-0.1,-0.7000000000000001,1.6,5.300000000000001,7.6000000000000005,-8.600000000000001,-10.700000000000001,-37.800000000000004,16
82,1484.0,-0.2,0.0,-0.5,1.4000000000000001,5.300000000000001,8.1,-12.100000000000001,-12.600000000000001,-35.8,16
83,1502.0,-0.30000000000000004,0.1,-0.1,1.5,5.5,8.4,-14.100000000000001,-13.6,-33.0,16
84,1517.0,-0.30000000000000004,0.4,0.4,1.4000000000000001,5.6000000000000005,8.700000000000001,-15.299999999999999,-10.600000000000001,-28.600000000000005,16
85,1534.0,-0.30000000000000004,0.4,0.4,1.4000000000000001,5.6000000000000005,8.9,-15.299999999999999,-10.600000000000001,-28.600000000000005,16
86,1550.0,-0.2,0.30000000000000004,0.6000000000000001,1.5,5.6000000000000005,9.1,-15.6,-10.1,-26.6,16
87,1567.0,-0.1,0.4,0.9,1.5,5.6000000000000005,9.3,-15.2,-6.500000000000001,-26.000000000000004,16
88,1584.0,-0.1,0.4,0.9,1.7000000000000002,5.4,9.4,-15.2,-6.500000000000001,-26.000000000000004,16
89,1601.0,0.1,0.1,1.0,1.8,4.9,9.5,-14.900000000000002,-8.2,-26.6,16
90,1617.0,0.0,-0.8,1.2000000000000002,1.6,4.4,9.700000000000001,-9.899999999999999,-11.1,-34.50000000000001,16
91,1634.0,0.0,-0.8,1.2000000000000002,1.3,4.1000000000000005,9.600000000000001,-9.899999999999999,-11.1,-34.50000000000001,16
92,1650.0,-0.5,-1.2000000000000002,1.0,0.6000000000000001,3.8000000000000003,9.200000000000001,-3.7000000000000006,-5.8,-37.6,16
93,1667.0,-1.3,-1.2000000000000002,0.1,0.1,4.0,8.6,7.8,6.300000000000001,-35.599999999999994,16
94,1685.0,-1.3,-1.2000000000000002,0.1,-0.2,4.2,8.3,10.8,3.0,-31.3,16
95,1705.0,-1.5,-0.8,-0.2,-0.30000000000000004,4.800000000000001,8.1,10.8,3.0,-31.3,16
96,1717.0,-1.5,-0.30000000000000004,-0.30000000000000004,0.2,5.300000000000001,8.1,11.8,-8.700000000000001,-26.200000000000003,16
97,1734.0,-0.5,0.30000000000000004,-0.1,0.9,5.7,8.3,9.2,-34.400000000000006,-17.200000000000003,16
98,1750.0,-0.5,0.30000000000000004,-0.1,1.2000000000000002,5.5,8.5,9.2,-34.400000000000006,-17.200000000000003,16
99,1767.0,0.0,0.1,0.2,1.9000000000000001,5.2,8.700000000000001,7.400000000000001,-38.1,-15.299999999999999,16
100,1785.0,0.7000000000000001,-0.5,0.5,2.2,4.9,8.8,8.5,-37.300000000000004,-20.2,16
101,1800.0,0.7000000000000001,-0.5,0.5,2.2,4.800000000000001,8.8,8.5,-37.300000000000004,-20.2,16
102,1817.0,0.6000000000000001,-0.7000000000000001,0.6000000000000001,2.1,4.7,8.9,10.1,-33.400000000000006,-23.400000000000002,16
103,1834.0,0.30000000000000004,-0.9,0.5,1.9000000000000001,4.5,8.700000000000001,16.0,-25.8,-26.5,16
104,1850.0,0.30000000000000004,-0.9,0.5,1.8,4.6000000000000005,8.5,16.0,-25.8,-26.5,16
105,1867.0,0.1,-0.9,0.1,1.5,4.800000000000001,7.800000000000001,20.3,-23.900000000000006,-27.6,16
106,1884.0,-0.2,-0.6000000000000001,-0.7000000000000001,1.5,5.1000000000000005,7.300000000000001,18.8,-26.5,-27.5,16
107,1903.0,-0.1,-0.5,-0.8,1.6,5.2,7.300000000000001,13.399999999999999,-29.500000000000004,-26.5,16
108,1917.0,-0.1,-0.5,-0.8,1.8,5.2,7.300000000000001,13.399999999999999,-29.500000000000004,-26.5,16
109,1934.0,0.2,-0.6000000000000001,-0.4,2.0,5.2,7.6000000000000005,2.7,-33.6,-28.900000000000002,16
110,1951.0,0.2,-0.6000000000000001,-0.4,1.9000000000000001,5.1000000000000005,7.7,2.7,-33.6,-28.900000000000002,16
111,1968.0,0.1,-0.6000000000000001,-0.1,1.8,5.1000000000000005,8.0,-1.0,-31.7,-31.400000000000002,16
112,1984.0,0.1,-0.6000000000000001,0.1,1.8,5.1000000000000005,8.200000000000001,-3.2,-28.3,-33.400000000000006,16
113,2001.0,-0.2,-0.7000000000000001,0.30000000000000004,1.5,5.0,8.200000000000001,-2.2,-20.2,-39.699999999999996,16
114,2017.0,-0.2,-0.7000000000000001,0.30000000000000004,1.3,5.1000000000000005,8.1,-2.2,-20.2,-39.699999999999996,16
115,2034.0,-0.5,-0.6000000000000001,0.1,0.9,5.2,7.9,-1.5,-19.0,-42.7,16
116,2051.0,-1.1,-0.4,-0.2,0.6000000000000001,5.5,7.7,-5.4,-18.700000000000003,-43.1,16
117,2067.0,-1.1,-0.4,-0.2,0.5,5.5,7.800000000000001,-5.4,-18.700000000000003,-43.1,16
118,2084.0,-1.1,-0.2,-0.1,0.4,5.6000000000000005,8.3,-10.700000000000001,-19.5,-41.0,16
119,2103.0,-0.9,0.0,0.7000000000000001,0.7000000000000001,5.7,8.8,-18.900000000000002,-19.300000000000004,-36.400000000000006,16
120,2117.0,-0.9,0.0,0.7000000000000001,0.7000000000000001,5.7,9.1,-18.900000000000002,-19.300000000000004,-36.400000000000006,16
121,2134.0,-0.9,0.0,1.2000000000000002,0.6000000000000001,5.7,9.700000000000001,-19.400000000000002,-18.700000000000003,-36.5,16
122,2150.0,-0.8,-0.2,2.0,0.7000000000000001,5.5,10.100000000000001,-11.6,-15.5,-33.9,16
123,2173.0,-0.9,-0.2,2.0,0.6000000000000001,5.4,10.100000000000001,-4.300000000000001,-15.2,-31.9,16
124,2184.0,-0.9,-0.2,2.0,0.6000000000000001,5.4,10.0,-4.300000000000001,-15.2,-31.9,16
125,2207.0,-0.6000000000000001,-0.30000000000000004,1.5,0.8,5.4,9.600000000000001,10.0,-20.3,-27.0,16
126,2218.0,-0.6000000000000001,-0.30000000000000004,1.5,0.9,5.4,9.4,10.0,-20.3,-27.0,16
127,2234.0,-0.5,-0.4,1.3,1.1,5.300000000000001,9.0,15.399999999999999,-23.700000000000003,-25.200000000000003,16
128,2251.0,-0.4,-0.5,0.9,1.1,5.300000000000001,8.3,21.500000000000004,-27.700000000000003,-24.3,16
129,2268.0,-0.4,-0.6000000000000001,0.30000000000000004,1.1,5.300000000000001,7.9,26.5,-32.300000000000004,-24.400000000000002,16
130,2284.0,-0.4,-0.6000000000000001,-0.2,1.1,5.300000000000001,7.300000000000001,29.1,-35.4,-24.3,16
131,2300.0,-0.5,-0.7000000000000001,-0.6000000000000001,0.9,5.4,6.800000000000001,29.300000000000004,-36.0,-24.1,16
132,2322.0,-0.8,-0.4,-1.1,0.8,5.800000000000001,6.6000000000000005,22.9,-30.4,-19.700000000000003,16
133,2334.0,-0.8,-0.4,-1.1,0.9,5.800000000000001,6.6000000000000005,22.9,-30.4,-19.700000000000003,16
134,2354.0,-0.7000000000000001,-0.4,-1.1,1.0,6.0,6.6000000000000005,17.5,-28.400000000000002,-16.0,16
135,2368.0,-0.6000000000000001,0.0,-1.0,1.2000000000000002,6.2,6.5,6.8,-23.5,-11.8,16
136,2387.0,-0.6000000000000001,0.0,-1.0,1.2000000000000002,6.300000000000001,6.6000000000000005,-2.6,-17.9,-12.200000000000001,16
137,2401.0,-0.5,0.1,-0.9,1.1,6.4,6.800000000000001,-2.6,-17.9,-12.200000000000001,16
138,2418.0,-0.4,0.5,-0.5,1.3,6.7,7.1000000000000005,-24.400000000000002,-3.5,-13.6,16
139,2434.0,-0.4,0.5,-0.5,1.5,6.6000000000000005,7.5,-24.400000000000002,-3.5,-13.6,16
140,2450.0,-0.2,0.30000000000000004,0.2,1.2000000000000002,6.2,8.700000000000001,-33.7,4.2,-16.3,16
141,2468.0,-0.5,-0.2,1.1,1.1,5.800000000000001,8.9,-30.200000000000003,6.9,-19.0,16
142,2484.0,-0.5,-0.2,1.1,0.8,5.7,9.200000000000001,-30.200000000000003,6.9,-19.0,16
143,2501.0,-0.9,-0.30000000000000004,1.4000000000000001,0.5,5.5,9.200000000000001,-23.900000000000006,7.500000000000001,-20.2,16
144,2517.0,-1.0,-0.5,1.3,0.4,5.2,9.1,-15.700000000000001,3.6000000000000005,-17.799999999999997,16
145,2539.0,-1.2000000000000002,-0.8,1.1,0.2,5.1000000000000005,9.1,0.8,-9.899999999999999,-11.4,16
146,2551.0,-1.2000000000000002,-0.8,1.1,0.0,5.1000000000000005,9.0,0.8,-9.899999999999999,-11.4,16
147,2568.0,-1.5,-0.8,1.1,0.2,5.1000000000000005,8.5,9.4,-21.8,-7.400000000000001,16
148,2584.0,-1.3,-0.9,0.6000000000000001,0.30000000000000004,5.1000000000000005,8.0,16.3,-29.200000000000003,-1.5,16
149,2605.0,-1.0,-0.6000000000000001,-0.30000000000000004,0.7000000000000001,5.5,7.5,11.8,-13.700000000000001,8.2,16
150,2617.0,-1.0,-0.6000000000000001,-0.30000000000000004,0.9,5.6000000000000005,7.5,11.8,-13.700000000000001,8.2,16
151,2634.0,-0.8,-0.30000000000000004,-0.30000000000000004,0.9,6.0,7.300000000000001,6.0,-1.6,12.200000000000001,16
152,2653.0,-0.6000000000000001,-0.2,-0.6000000000000001,1.3,5.7,7.1000000000000005,0.0,2.1,13.5,16
153,2668.0,-0.4,-0.2,-0.6000000000000001,0.9,5.9,7.2,-4.2,4.1,10.700000000000001,16
154,2686.0,-0.6000000000000001,-0.1,-0.6000000000000001,1.1,5.9,7.2,-8.700000000000001,3.9,8.5,16
155,2701.0,-0.6000000000000001,-0.1,-0.6000000000000001,1.1,5.9,7.2,-8.700000000000001,3.9,8.5,16
156,2725.0,-0.6000000000000001,0.1,0.1,1.0,6.0,8.3,-15.899999999999999,12.8,4.2,16
157,2734.0,-0.7000000000000001,0.1,0.8,0.9,5.9,8.700000000000001,-14.600000000000001,13.900000000000002,3.5,16
158,2752.0,-0.7000000000000001,0.1,0.8,0.9,5.800000000000001,9.0,-14.600000000000001,13.900000000000002,3.5,16
159,2767.0,-0.7000000000000001,-0.2,1.2000000000000002,0.9,5.300000000000001,9.3,-9.8,11.6,5.1000000000000005,16
160,2784.0,-0.7000000000000001,-0.6000000000000001,1.4000000000000001,0.8,5.0,9.200000000000001,-3.2,8.5,8.100000000000001,16
161,2802.0,-0.6000000000000001,-0.8,1.2000000000000002,0.9,5.1000000000000005,9.200000000000001,1.7,4.0,13.700000000000001,16
162,2819.0,-0.6000000000000001,-0.8,1.2000000000000002,1.3,4.7,8.9,4.6,3.7000000000000006,18.700000000000003,16
163,2838.0,-0.4,-1.1,0.8,1.0,4.9,8.700000000000001,8.100000000000001,6.9,21.300000000000004,16
164,2851.0,-0.4,-0.7000000000000001,0.7000000000000001,1.3,5.2,8.6,13.000000000000002,10.200000000000001,30.200000000000003,16
165,2867.0,-0.4,-0.7000000000000001,0.7000000000000001,1.6,5.300000000000001,8.4,13.000000000000002,10.200000000000001,30.200000000000003,16
166,2884.0,0.0,-0.4,0.4,2.0,5.800000000000001,8.200000000000001,16.700000000000003,9.2,33.400000000000006,16
167,2900.0,0.5,0.2,0.1,2.3000000000000003,6.1000000000000005,7.9,19.400000000000002,9.3,30.3,16
168,2919.0,0.5,0.2,0.1,2.4000000000000004,6.2,7.7,19.400000000000002,9.3,30.3,16
169,2934.0,0.6000000000000001,0.30000000000000004,-0.2,2.4000000000000004,6.300000000000001,7.6000000000000005,18.0,12.4,27.0,16
170,2956.0,0.7000000000000001,0.30000000000000004,-0.2,2.5,6.2,7.5,11.700000000000001,17.6,20.0,16
171,2967.0,0.7000000000000001,0.30000000000000004,-0.2,2.4000000000000004,6.2,7.6000000000000005,11.700000000000001,17.6,20.0,16
172,2984.0,0.6000000000000001,0.1,-0.2,2.4000000000000004,6.0,7.7,9.2,17.7,16.900000000000002,16
173,3001.0,0.6000000000000001,-0.2,-0.2,2.4000000000000004,5.800000000000001,7.5,7.0,14.300000000000002,11.000000000000002,16
174,3017.0,0.6000000000000001,-0.2,-0.2,2.3000000000000003,5.800000000000001,7.4,7.0,14.300000000000002,11.000000000000002,16
175,3034.0,0.4,-0.2,-0.30000000000000004,2.0,5.800000000000001,7.5,4.5,13.000000000000002,8.4,16
176,3051.0,0.2,-0.2,-0.30000000000000004,1.9000000000000001,5.800000000000001,7.5,-1.8000000000000003,14.5,8.8,16
177,3069.0,0.30000000000000004,-0.1,-0.1,2.0,5.9,7.7,-3.8,13.700000000000001,9.5,16
178,3084.0,0.30000000000000004,-0.1,-0.1,2.0,5.9,7.6000000000000005,-3.8,13.700000000000001,9.5,16
179,3116.0,0.4,0.1,-0.30000000000000004,2.0,6.0,7.6000000000000005,-6.8,13.5,7.400000000000001,16
180,3134.0,0.30000000000000004,0.1,-0.1,1.9000000000000001,5.9,7.800000000000001,-9.100000000000001,11.8,5.8,16
181,3151.0,0.2,0.0,0.0,2.0,5.9,8.200000000000001,-10.299999999999999,10.1,5.6,16
182,3167.0,0.30000000000000004,0.0,0.4,1.9000000000000001,5.9,8.3,-6.8,9.3,2.4000000000000004,16
183,3184.0,0.30000000000000004,0.0,0.4,1.9000000000000001,5.9,8.200000000000001,-6.8,9.3,2.4000000000000004,16
184,3201.0,0.30000000000000004,0.1,0.2,1.8,5.9,8.1,-4.6,8.700000000000001,1.3,16
185,3217.0,0.1,0.1,0.1,1.6,5.9,8.1,-3.5,8.3,-0.9000000000000001,16
186,3236.0,0.2,0.0,0.1,1.8,5.800000000000001,8.0,-3.3000000000000007,6.0,-0.2,16
187,3251.0,0.2,0.0,0.1,1.9000000000000001,5.7,8.1,-3.3000000000000007,6.0,-0.2,16
188,3270.0,0.1,-0.2,0.1,1.6,5.6000000000000005,8.1,-3.1,7.6,-2.8,16
189,3284.0,0.1,-0.2,0.1,1.4000000000000001,5.6000000000000005,8.1,-3.1,7.6,-2.8,16
190,3303.0,0.0,-0.2,0.1,1.7000000000000002,5.5,7.9,-3.0,9.2,-1.5,16
191,3317.0,0.2,-0.2,0.0,1.6,5.5,8.0,-4.6,16.8,-1.2000000000000002,16
192,3334.0,0.2,-0.2,0.0,1.6,5.6000000000000005,8.0,-4.6,16.8,-1.2000000000000002,16
193,3350.0,0.2,-0.2,0.0,1.6,5.5,8.1,-4.6,14.800000000000002,-1.8000000000000003,16
194,3368.0,0.30000000000000004,-0.2,0.0,1.5,5.6000000000000005,7.9,-3.2,12.299999999999999,-3.2,16
195,3384.0,0.2,-0.1,-0.2,1.5,5.7,7.7,-5.1000000000000005,4.5,-6.9,16
196,3402.0,0.1,0.0,-0.30000000000000004,1.5,5.800000000000001,8.0,-5.1000000000000005,4.5,-6.9,16
197,3417.0,0.2,0.1,0.0,1.7000000000000002,5.800000000000001,8.200000000000001,-6.699999999999999,3.0,-6.600000000000001,16
198,3434.0,0.4,0.1,0.1,1.7000000000000002,5.800000000000001,8.3,-6.0,5.8,-10.0,16
199,3451.0,0.4,0.2,0.30000000000000004,1.7000000000000002,6.0,8.4,-6.0,5.8,-10.0,16
200,3467.0,0.4,0.30000000000000004,0.30000000000000004,1.6,5.9,8.3,-5.2,7.400000000000001,-11.6,16
201,3484.0,0.2,0.30000000000000004,0.2,1.3,5.9,8.3,-6.699999999999999,14.200000000000001,-14.800000000000002,16
202,3506.0,0.2,0.1,0.2,1.3,5.7,8.3,-6.1000000000000005,16.5,-15.5,16
203,3518.0,0.2,0.1,0.2,1.2000000000000002,5.800000000000001,8.200000000000001,-6.1000000000000005,16.5,-15.5,16
204,3534.0,0.2,0.1,0.1,1.2000000000000002,5.9,8.200000000000001,-5.0,16.200000000000003,-16.200000000000003,16
205,3551.0,0.1,0.0,0.0,0.7000000000000001,5.4,8.1,-4.6,15.700000000000001,-18.700000000000003,16
206,3568.0,-0.4,-0.30000000000000004,-0.1,0.2,5.4,7.9,-3.5,13.100000000000001,-19.300000000000004,16
207,3584.0,-0.6000000000000001,-0.30000000000000004,-0.1,0.1,5.4,8.1,-5.7,11.3,-11.2,16
208,3601.0,-0.6000000000000001,-0.30000000000000004,-0.1,0.30000000000000004,5.300000000000001,8.3,-5.7,11.3,-11.2,16
209,3620.0,-0.4,-0.5,0.0,0.30000000000000004,5.1000000000000005,8.1,-4.6,6.4,-7.500000000000001,16
210,3634.0,-0.4,-0.4,-0.1,0.5,5.4,8.200000000000001,-2.9,1.9,-4.6,16
211,3657.0,0.1,-0.30000000000000004,0.0,0.9,5.300000000000001,8.3,-2.3,-5.7,-2.5,16
212,3668.0,0.1,-0.30000000000000004,0.0,1.1,5.4,8.4,-2.3,-5.7,-2.5,16
213,3685.0,0.4,-0.1,0.1,1.1,5.5,8.4,-2.3,-6.600000000000001,-3.4,16
214,3701.0,0.30000000000000004,-0.1,0.2,1.1,5.6000000000000005,8.5,-3.6000000000000005,2.2,-2.0,16
215,3718.0,0.30000000000000004,0.1,0.30000000000000004,1.0,5.6000000000000005,8.700000000000001,-3.6000000000000005,2.2,-2.0,16
216,3735.0,0.30000000000000004,0.0,0.5,1.1,5.4,8.8,-3.2,9.8,-0.1,16
217,3750.0,0.4,-0.2,0.5,1.2000000000000002,5.300000000000001,8.5,-0.6000000000000001,15.399999999999999,0.0,16
218,3769.0,0.30000000000000004,-0.30000000000000004,-0.1,0.2,5.1000000000000005,8.3,-1.0,18.6,-5.7,16
219,3784.0,-0.7000000000000001,-0.30000000000000004,0.2,-0.6000000000000001,5.300000000000001,8.8,-5.9,21.0,-7.699999999999999,16
220,3803.0,-0.8,-0.5,0.5,-0.2,5.0,8.8,-4.6,9.600000000000001,5.7,16
221,3817.0,-0.8,-0.5,0.5,0.0,5.0,9.1,-4.6,9.600000000000001,5.7,16
222,3834.0,-0.4,-0.5,0.8,0.30000000000000004,5.0,9.1,1.1,6.8,7.6,16
223,3851.0,-0.4,-0.6000000000000001,0.1,0.2,5.0,8.4,17.1,5.300000000000001,4.1,16
224,3867.0,-0.4,-0.6000000000000001,0.1,-0.2,5.1000000000000005,8.1,17.1,5.300000000000001,4.1,16
225,3884.0,-0.8,-0.4,-0.30000000000000004,-0.4,5.5,7.800000000000001,18.5,9.0,4.5,16
226,3902.0,-0.8,-0.1,-0.4,-0.2,5.7,7.800000000000001,17.799999999999997,10.299999999999999,8.5,16
227,3920.0,0.4,0.2,-0.7000000000000001,0.7000000000000001,5.9,7.7,16.3,2.2,9.0,16
228,3934.0,0.4,0.2,-0.7000000000000001,0.9,5.9,7.300000000000001,16.3,2.2,9.0,16
229,3950.0,0.30000000000000004,0.2,-0.8,0.7000000000000001,6.1000000000000005,7.6000000000000005,10.8,3.3000000000000007,3.3000000000000007,16
230,3968.0,0.6000000000000001,0.2,0.0,1.2000000000000002,5.9,8.3,2.2,4.800000000000001,1.2000000000000002,16
231,3988.0,1.1,0.1,0.1,1.7000000000000002,5.9,8.1,5.300000000000001,-1.5,-3.1,16
232,4001.0,1.1,0.1,0.1,1.5,5.800000000000001,7.800000000000001,5.300000000000001,-1.5,-3.1,16
233,4019.0,0.0,-0.2,0.1,0.30000000000000004,5.6000000000000005,8.3,0.8,-3.7000000000000006,-12.9,16
234,4034.0,0.0,-0.2,0.1,0.1,5.6000000000000005,8.6,0.8,-3.7000000000000006,-12.9,16
235,4053.0,-0.4,-0.30000000000000004,0.6000000000000001,0.4,5.2,8.700000000000001,0.1,-3.9,-5.4,16
236,4067.0,0.0,-0.5,0.1,0.5,5.300000000000001,8.200000000000001,5.500000000000001,0.4,3.9,16
237,4084.0,0.0,-0.5,0.1,0.30000000000000004,5.4,8.0,5.500000000000001,0.4,3.9,16
238,4101.0,-0.2,-0.30000000000000004,-0.2,0.4,5.7,8.0,3.0,1.1,6.1000000000000005,16
239,4117.0,0.0,0.0,0.0,0.6000000000000001,5.9,8.3,-2.5,1.1,9.3,16
240,4134.0,0.4,0.30000000000000004,0.5,1.2000000000000002,6.2,9.0,-6.0,-2.4000000000000004,9.700000000000001,16
241,4150.0,0.8,0.5,1.0,1.4000000000000001,6.300000000000001,9.1,-2.4000000000000004,-7.200000000000001,6.2,16
242,4168.0,0.8,0.5,0.9,1.2000000000000002,6.2,8.700000000000001,4.6,-10.200000000000001,0.0,16
243,4184.0,0.6000000000000001,0.30000000000000004,0.6000000000000001,0.8,6.0,8.6,9.100000000000001,-9.0,-6.2,16
244,4201.0,0.1,0.1,0.4,0.5,5.800000000000001,8.200000000000001,11.4,-2.9,-6.1000000000000005,16
245,4218.0,-0.1,-0.1,0.1,0.6000000000000001,5.6000000000000005,8.200000000000001,11.3,2.0,-3.1,16
246,4234.0,0.0,-0.4,0.1,0.6000000000000001,5.5,8.1,11.900000000000002,8.2,0.0,16
247,4251.0,0.1,-0.5,0.0,0.5,5.5,7.800000000000001,11.900000000000002,8.2,0.0,16
248,4267.0,0.0,-0.4,-0.2,0.30000000000000004,5.6000000000000005,7.6000000000000005,11.5,11.3,-0.5,16
249,4284.0,-0.30000000000000004,-0.30000000000000004,-0.5,0.2,5.6000000000000005,7.4,7.9,10.9,-0.1,16
250,4307.0,-0.30000000000000004,-0.30000000000000004,-0.5,0.2,5.7,7.5,4.300000000000001,7.200000000000001,0.7,16
251,4318.0,-0.30000000000000004,-0.30000000000000004,-0.5,0.1,5.7,7.6000000000000005,4.300000000000001,7.200000000000001,0.7,16
252,4334.0,-0.30000000000000004,-0.30000000000000004,-0.1,0.2,5.7,7.7,1.3,4.9,0.9000000000000001,16
253,4351.0,-0.30000000000000004,-0.30000000000000004,-0.1,0.1,5.7,8.1,-0.7,1.7,1.2000000000000002,16
254,4368.0,-0.30000000000000004,-0.2,0.2,0.30000000000000004,5.9,8.3,-0.30000000000000004,-1.2000000000000002,2.3,16
255,4384.0,0.1,0.1,0.5,0.5,6.1000000000000005,8.5,5.1000000000000005,-4.6,3.9,16
256,4402.0,0.1,0.1,0.5,0.7000000000000001,6.1000000000000005,8.3,5.1000000000000005,-4.6,3.9,16
257,4419.0,0.2,0.0,0.30000000000000004,0.6000000000000001,6.2,8.4,6.699999999999999,-2.1,2.5,16
258,4434.0,0.1,0.2,0.5,0.6000000000000001,6.4,8.4,6.500000000000001,1.2000000000000002,1.1,16
259,4451.0,0.1,0.30000000000000004,0.5,0.6000000000000001,6.300000000000001,8.5,9.4,0.5,1.3,16
260,4468.0,0.2,0.30000000000000004,0.6000000000000001,0.7000000000000001,6.4,8.4,9.4,0.5,1.3,16
261,4486.0,0.2,0.2,0.6000000000000001,0.5,6.2,8.6,11.1,-1.9,-0.30000000000000004,16
262,4500.0,0.0,0.0,0.7000000000000001,0.4,6.2,8.5,14.300000000000002,-5.2,-1.2000000000000002,16
263,4523.0,-0.1,-0.2,0.5,0.5,6.0,8.200000000000001,24.0,-14.5,1.4,16
264,4534.0,-0.1,-0.2,0.5,0.5,6.1000000000000005,7.9,24.0,-14.5,1.4,16
265,4553.0,-0.1,-0.30000000000000004,0.0,0.5,6.1000000000000005,7.7,28.800000000000004,-18.200000000000003,2.9,16
266,4568.0,-0.1,-0.30000000000000004,0.0,0.5,6.2,7.5,28.800000000000004,-18.200000000000003,2.9,16
267,4585.0,-0.30000000000000004,-0.30000000000000004,-0.2,0.4,6.300000000000001,7.1000000000000005,29.500000000000004,-16.200000000000003,3.9,16
268,4601.0,-0.30000000000000004,-0.1,-0.7000000000000001,0.5,6.4,6.800000000000001,23.900000000000006,-13.900000000000002,6.600000000000001,16
269,4617.0,-0.30000000000000004,-0.1,-0.7000000000000001,0.6000000000000001,6.5,6.9,23.900000000000006,-13.900000000000002,6.600000000000001,16
270,4634.0,-0.2,-0.1,-0.6000000000000001,0.6000000000000001,6.5,6.9,19.700000000000003,-11.000000000000002,7.200000000000001,16
271,4651.0,-0.30000000000000004,0.0,-0.5,0.6000000000000001,6.6000000000000005,7.0,13.8,-10.9,7.8,16
272,4671.0,-0.4,0.0,-0.1,0.6000000000000001,6.7,7.300000000000001,13.399999999999999,-13.700000000000001,9.100000000000001,16
273,4685.0,-0.4,0.0,-0.1,0.7000000000000001,6.7,7.5,13.399999999999999,-13.700000000000001,9.100000000000001,16
274,4706.0,0.0,-0.2,0.2,1.0,6.6000000000000005,7.5,22.9,-21.500000000000004,10.4,16
275,4719.0,0.0,-0.2,0.0,1.1,6.6000000000000005,7.1000000000000005,29.0,-22.000000000000004,8.5,16
276,4734.0,0.0,-0.2,0.0,1.1,6.6000000000000005,7.0,29.0,-22.000000000000004,8.5,16
277,4751.0,-0.1,-0.2,-0.30000000000000004,1.1,6.800000000000001,6.5,32.6,-21.300000000000004,6.8,16
278,4767.0,-0.1,-0.2,-0.6000000000000001,1.1,6.800000000000001,6.2,33.300000000000004,-20.0,5.8,16
279,4785.0,-0.2,-0.2,-0.9,1.1,6.9,5.9,30.5,-19.0,5.1000000000000005,16
280,4802.0,-0.2,-0.1,-1.1,1.2000000000000002,7.0,5.800000000000001,24.5,-17.799999999999997,4.9,16
281,4817.0,-0.1,-0.2,-0.7000000000000001,1.2000000000000002,6.9,5.9,8.8,-11.900000000000002,5.8,16
282,4836.0,-0.1,-0.2,-0.7000000000000001,1.4000000000000001,7.0,6.4,8.8,-11.900000000000002,5.8,16
283,4850.0,0.0,-0.1,-0.4,1.6,7.0,6.6000000000000005,3.2,-10.600000000000001,6.2,16
284,4870.0,0.2,-0.1,0.1,1.7000000000000002,7.0,7.0,-2.1,-6.500000000000001,5.2,16
285,4885.0,0.2,-0.1,0.1,1.8,7.1000000000000005,7.2,-2.1,-6.500000000000001,5.2,16
286,4904.0,0.4,0.0,0.5,2.2,7.1000000000000005,7.6000000000000005,-1.9,-6.9,4.9,16
287,4920.0,1.1,0.0,0.8,2.6,7.1000000000000005,7.6000000000000005,2.6,-6.2,1.5,16
288,4934.0,1.1,0.0,0.8,2.7,7.0,7.5,2.6,-6.2,1.5,16
289,4956.0,1.1,-0.1,0.5,2.4000000000000004,7.1000000000000005,7.0,5.500000000000001,5.0,-3.2,16
290,4968.0,0.6000000000000001,0.1,-0.6000000000000001,2.0,7.300000000000001,6.2,4.6,31.400000000000002,-11.3,16
291,4985.0,0.5,0.2,-0.9,1.7000000000000002,7.4,5.9,-2.1,35.8,-14.400000000000002,16
292,5002.0,0.5,0.2,-0.9,1.5,7.300000000000001,6.0,-2.1,35.8,-14.400000000000002,16
293,5018.0,0.30000000000000004,0.2,-0.9,1.2000000000000002,7.4,6.1000000000000005,-9.4,37.7,-17.1,16
294,5034.0,0.1,0.30000000000000004,-0.6000000000000001,1.1,7.300000000000001,6.4,-19.200000000000003,29.0,-21.400000000000002,16
295,5050.0,0.1,0.30000000000000004,-0.6000000000000001,1.0,7.2,6.5,-19.200000000000003,29.0,-21.400000000000002,16
296,5068.0,0.0,0.1,-0.5,0.6000000000000001,7.1000000000000005,6.7,-21.400000000000002,22.6,-24.200000000000003,16
297,5084.0,-0.2,0.1,-0.30000000000000004,0.5,7.0,6.9,-26.000000000000004,16.200000000000003,-24.8,16
298,5100.0,-0.30000000000000004,0.0,-0.1,0.4,6.9,7.300000000000001,-26.000000000000004,16.200000000000003,-24.8,16
299,5123.0,-0.2,0.0,0.30000000000000004,0.4,6.7,7.800000000000001,-26.400000000000006,15.5,-23.5,16
300,5134.0,-0.1,-0.1,0.6000000000000001,0.4,6.7,8.1,-23.800000000000004,13.6,-23.099999999999998,16
301,5153.0,-0.2,-0.2,1.0,0.2,6.5,8.200000000000001,-17.5,10.200000000000001,-23.2,16
302,5168.0,-0.30000000000000004,-0.4,0.9,-0.2,6.300000000000001,7.9,-9.3,2.8,-23.099999999999998,16
303,5184.0,-0.7000000000000001,-0.5,0.6000000000000001,-0.6000000000000001,6.2,7.7,-3.4,-4.6,-22.4,16
304,5200.0,-1.2000000000000002,-0.6000000000000001,0.30000000000000004,-1.0,6.2,7.7,-2.0,-6.699999999999999,-15.8,16
305,5227.0,-0.9,-0.6000000000000001,0.6000000000000001,-0.30000000000000004,6.2,8.0,-4.1,-0.8,7.300000000000001,16
306,5234.0,-0.5,-0.4,0.8,-0.1,6.300000000000001,8.200000000000001,-3.3000000000000007,2.9,11.6,16
307,5251.0,-0.5,-0.4,0.8,0.1,6.4,8.3,-3.3000000000000007,2.9,11.6,16
308,5268.0,-0.4,-0.30000000000000004,1.0,0.0,6.5,8.200000000000001,0.30000000000000004,4.300000000000001,11.1,16
309,5285.0,-0.4,-0.2,0.9,0.0,6.6000000000000005,8.1,5.500000000000001,3.2,9.600000000000001,16
310,5319.0,-0.5,-0.2,0.5,-0.1,6.7,7.6000000000000005,15.000000000000002,-0.1,7.6,16
311,5334.0,-0.5,-0.1,0.30000000000000004,0.0,6.9,7.4,19.200000000000003,-2.2,8.100000000000001,16
312,5350.0,-0.4,0.0,0.2,0.2,6.9,7.4,22.4,-6.1000000000000005,9.4,16
313,5367.0,-0.1,0.0,0.2,0.6000000000000001,7.0,7.300000000000001,25.7,-10.8,9.5,16
314,5386.0,0.1,0.0,0.1,0.7000000000000001,7.1000000000000005,7.0,29.200000000000003,-15.700000000000001,7.0,16
315,5400.0,-0.30000000000000004,0.0,-0.30000000000000004,0.5,7.1000000000000005,6.9,32.1,-16.900000000000002,0.4,16
316,5417.0,-0.30000000000000004,0.0,-0.30000000000000004,0.2,7.300000000000001,6.4,32.1,-16.900000000000002,0.4,16
317,5434.0,-0.5,0.1,-0.6000000000000001,0.1,7.4,6.1000000000000005,28.800000000000004,-14.700000000000001,1.8000000000000003,16
318,5450.0,-0.4,0.1,-0.6000000000000001,0.30000000000000004,7.4,6.2,14.800000000000002,-9.700000000000001,10.9,16
319,5467.0,-0.4,0.1,-0.6000000000000001,0.6000000000000001,7.4,6.300000000000001,14.800000000000002,-9.700000000000001,10.9,16
320,5491.0,0.1,0.0,-0.2,1.0,7.300000000000001,6.6000000000000005,7.6,-4.0,17.200000000000003,16
321,5501.0,0.2,0.1,0.1,1.1,7.4,6.800000000000001,7.0,-4.6,16.700000000000003,16
322,5521.0,0.2,0.1,0.1,1.4000000000000001,7.5,6.9,7.0,-4.6,16.700000000000003,16
323,5534.0,0.6000000000000001,0.1,0.2,1.7000000000000002,7.4,6.800000000000001,8.899999999999999,-6.8,13.8,16
324,5550.0,0.7000000000000001,0.1,0.1,1.4000000000000001,7.4,6.6000000000000005,10.8,-7.699999999999999,7.500000000000001,16
325,5568.0,0.4,0.0,-0.1,1.2000000000000002,7.4,6.5,11.000000000000002,-6.1000000000000005,1.1,16
326,5585.0,0.1,0.1,-0.2,1.0,7.4,6.4,8.8,-3.9,-0.8,16
327,5600.0,0.0,0.0,-0.30000000000000004,1.0,7.2,6.4,5.6,-2.3,0.2,16
328,5618.0,0.0,-0.2,-0.30000000000000004,1.0,7.2,6.4,2.3,-0.6000000000000001,1.4,16
329,5637.0,0.0,-0.2,-0.2,1.0,7.1000000000000005,6.5,-0.5,1.9,2.1,16
330,5651.0,0.0,-0.30000000000000004,-0.2,1.0,6.9,6.4,-2.6,5.1000000000000005,2.5,16
331,5668.0,0.0,-0.5,-0.4,1.0,6.800000000000001,6.300000000000001,-7.400000000000001,10.0,2.8,16
332,5684.0,0.0,-0.5,-0.4,1.0,6.7,6.300000000000001,-7.400000000000001,10.0,2.8,16
333,5700.0,0.0,-0.6000000000000001,-0.30000000000000004,0.7000000000000001,6.6000000000000005,6.6000000000000005,-10.5,13.399999999999999,2.7,16
334,5719.0,-0.4,-0.6000000000000001,-0.1,0.6000000000000001,6.6000000000000005,6.6000000000000005,-11.1,12.4,9.100000000000001,16
335,5735.0,-0.4,-0.6000000000000001,-0.1,0.7000000000000001,6.6000000000000005,6.7,-11.1,12.4,9.100000000000001,16
336,5752.0,-0.2,-0.6000000000000001,-0.1,0.9,6.7,6.6000000000000005,-9.2,9.4,13.200000000000003,16
337,5768.0,0.1,-0.5,-0.4,1.1,6.7,6.4,-4.9,2.1,15.299999999999999,16
338,5785.0,0.1,-0.5,-0.4,1.0,6.7,6.4,-4.9,2.1,15.299999999999999,16
339,5801.0,-0.1,-0.4,-0.5,0.8,6.800000000000001,6.300000000000001,-5.300000000000001,-1.0,14.400000000000002,16
340,5817.0,-0.2,-0.4,-0.5,0.8,6.800000000000001,6.2,-7.300000000000001,-2.8,15.000000000000002,16
341,5838.0,-0.2,-0.2,-0.5,0.9,6.9,6.4,-17.0,-2.1,18.6,16
342,5850.0,-0.2,-0.2,-0.5,1.0,6.800000000000001,6.6000000000000005,-17.0,-2.1,18.6,16
343,5870.0,-0.2,-0.2,-0.2,1.1,6.9,7.2,-22.4,-0.7,19.6,16
344,5884.0,-0.1,-0.1,0.30000000000000004,1.1,6.800000000000001,7.5,-26.700000000000003,-0.8,20.8,16
345,5900.0,-0.1,-0.1,0.6000000000000001,1.2000000000000002,6.800000000000001,8.0,-26.5,0.7,23.0,16
346,5920.0,0.0,0.0,1.0,1.5,6.9,8.3,-22.5,2.8,25.900000000000002,16
347,5935.0,0.1,0.1,1.1,1.7000000000000002,7.0,8.200000000000001,-15.5,3.6000000000000005,29.200000000000003,16
348,5965.0,0.7000000000000001,0.5,0.7000000000000001,2.2,7.2,7.9,-0.1,3.3000000000000007,29.400000000000002,16
349,5971.0,0.7000000000000001,0.5,0.7000000000000001,2.2,7.300000000000001,7.300000000000001,-0.1,3.3000000000000007,29.400000000000002,16
350,5984.0,0.5,0.6000000000000001,-0.1,2.1,7.4,7.2,4.4,2.7,25.6,16
351,6002.0,0.5,0.6000000000000001,-0.1,2.1,7.300000000000001,6.800000000000001,5.2,-1.1,21.8,16
352,6017.0,0.4,0.6000000000000001,-0.4,2.0,7.300000000000001,6.800000000000001,3.3000000000000007,-1.5,18.5,16
353,6034.0,0.5,0.5,0.1,2.1,7.2,7.2,-1.9,-6.0,10.700000000000001,16
354,6051.0,0.5,0.5,0.1,2.3000000000000003,7.1000000000000005,7.5,-1.9,-6.0,10.700000000000001,16
355,6069.0,0.6000000000000001,0.4,0.6000000000000001,2.4000000000000004,7.0,8.0,0.2,-11.5,6.2,16
356,6084.0,0.7000000000000001,0.2,0.9,2.4000000000000004,6.9,8.1,6.300000000000001,-17.799999999999997,1.4,16
357,6108.0,0.0,-0.2,0.8,1.8,6.7,7.7,22.4,-27.800000000000004,-10.299999999999999,16
358,6117.0,0.0,-0.2,0.8,1.5,6.7,7.5,22.4,-27.800000000000004,-10.299999999999999,16
359,6134.0,-0.5,-0.2,0.5,1.2000000000000002,6.800000000000001,7.0,26.6,-28.400000000000002,-10.700000000000001,16
360,6150.0,-0.7000000000000001,-0.2,0.2,1.3,6.9,6.9,27.0,-24.1,-6.4,16
361,6167.0,-0.5,-0.1,-0.1,1.6,7.0,6.5,24.1,-15.399999999999999,-0.6000000000000001,16
362,6184.0,-0.30000000000000004,0.0,-0.30000000000000004,1.8,7.2,6.6000000000000005,19.1,-4.7,3.7000000000000006,16
363,6203.0,0.1,0.2,-0.1,2.1,7.4,6.7,9.700000000000001,5.300000000000001,7.6,16
364,6217.0,0.1,0.2,-0.1,2.3000000000000003,7.4,6.800000000000001,9.700000000000001,5.300000000000001,7.6,16
365,6234.0,0.4,0.30000000000000004,0.1,2.6,7.300000000000001,6.7,7.9,3.7000000000000006,7.200000000000001,16
366,6250.0,0.6000000000000001,0.2,0.0,2.6,7.300000000000001,6.6000000000000005,8.5,1.8000000000000003,4.5,16
367,6268.0,0.7000000000000001,0.1,-0.1,2.6,7.2,6.5,9.700000000000001,0.8,0.2,16
368,6284.0,0.6000000000000001,0.1,-0.30000000000000004,2.4000000000000004,7.2,6.2,10.700000000000001,2.1,-3.6000000000000005,16
369,6301.0,0.5,0.0,-0.5,2.3000000000000003,7.2,6.0,10.9,4.1,-6.4,16
370,6328.0,0.4,0.0,-0.7000000000000001,2.3000000000000003,7.300000000000001,5.9,5.6,8.100000000000001,-10.1,16
371,6334.0,0.4,0.0,-0.7000000000000001,2.4000000000000004,7.300000000000001,5.800000000000001,5.6,8.100000000000001,-10.1,16
372,6353.0,0.8,0.1,-1.0,2.5,7.300000000000001,5.6000000000000005,1.6,17.9,-14.0,16
373,6367.0,0.8,0.1,-1.0,2.5,7.4,5.4,1.6,17.9,-14.0,16
374,6387.0,0.6000000000000001,0.2,-1.3,1.8,7.6000000000000005,5.2,-1.9,20.900000000000002,-17.799999999999997,16
375,6401.0,0.1,0.4,-1.5,1.3,7.6000000000000005,5.4,-8.899999999999999,16.1,-20.400000000000002,16
376,6418.0,-0.30000000000000004,0.4,-1.2000000000000002,1.1,7.5,5.800000000000001,-18.3,6.699999999999999,-21.0,16
377,6434.0,-0.6000000000000001,0.2,-0.7000000000000001,0.7000000000000001,7.2,6.9,-27.3,-5.6,-20.2,16
378,6450.0,-0.8,-0.1,0.30000000000000004,1.0,6.800000000000001,7.6000000000000005,-31.799999999999997,-13.000000000000002,-16.700000000000003,16
379,6471.0,-0.4,-0.4,1.2000000000000002,1.1,6.6000000000000005,8.200000000000001,-26.400000000000006,-15.000000000000002,-10.700000000000001,16
380,6484.0,-0.4,-0.4,1.2000000000000002,1.1,6.6000000000000005,8.4,-26.400000000000006,-15.000000000000002,-10.700000000000001,16
381,6501.0,-0.5,-0.4,1.5,1.1,6.6000000000000005,8.4,-20.1,-11.3,-10.0,16
382,6517.0,-0.5,-0.30000000000000004,1.4000000000000001,1.0,6.6000000000000005,8.3,-13.399999999999999,-4.0,-8.600000000000001,16
383,6534.0,-0.5,-0.2,1.2000000000000002,0.9,6.9,8.0,-8.4,3.4,-6.9,16
384,6551.0,-0.6000000000000001,-0.1,0.9,0.7000000000000001,6.800000000000001,7.800000000000001,-5.1000000000000005,6.9,-4.4,16
385,6567.0,-0.9,-0.1,0.6000000000000001,0.5,6.800000000000001,7.7,-2.3,6.699999999999999,-0.5,16
386,6588.0,-0.5,0.1,0.2,1.0,7.1000000000000005,7.1000000000000005,1.2000000000000002,3.0,11.6,16
387,6601.0,-0.5,0.1,0.2,1.2000000000000002,7.1000000000000005,7.0,1.2000000000000002,3.0,11.6,16
388,6622.0,0.0,0.2,0.2,1.5,7.1000000000000005,7.300000000000001,-5.2,-7.1000000000000005,12.7,16
389,6634.0,0.0,0.2,0.2,1.7000000000000002,7.0,7.5,-5.2,-7.1000000000000005,12.7,16
390,6650.0,0.30000000000000004,0.1,0.6000000000000001,2.2,6.9,7.800000000000001,-5.0,-9.8,11.900000000000002,16
391,6667.0,0.6000000000000001,0.0,0.8,2.4000000000000004,6.7,7.800000000000001,0.1,-10.9,9.4,16
392,6684.0,0.8,-0.2,0.7000000000000001,2.4000000000000004,6.7,7.5,8.100000000000001,-9.700000000000001,4.9,16
393,6703.0,0.6000000000000001,-0.2,0.2,1.9000000000000001,6.7,6.7,15.000000000000002,-7.6,-1.2000000000000002,16
394,6717.0,0.1,-0.2,-0.30000000000000004,1.4000000000000001,6.800000000000001,6.4,16.6,-6.8,-5.0,16
395,6734.0,-0.30000000000000004,-0.2,-0.6000000000000001,1.3,6.9,6.2,14.200000000000001,-5.6,-4.5,16
396,6751.0,-0.4,-0.1,-0.8,1.3,7.0,6.0,10.0,-3.9,-1.5,16
397,6770.0,-0.4,0.0,-0.9,1.4000000000000001,7.1000000000000005,6.2,4.6,-1.5,0.9000000000000001,16
398,6784.0,-0.30000000000000004,0.1,-0.6000000000000001,1.5,7.1000000000000005,6.4,0.7,1.2000000000000002,2.3,16
399,6800.0,-0.2,0.1,-0.5,1.5,7.2,6.300000000000001,-0.2,3.2,2.6,16
400,6817.0,-0.2,0.2,-0.6000000000000001,1.4000000000000001,7.300000000000001,6.300000000000001,-1.4,3.1,1.7,16
401,6834.0,-0.4,0.30000000000000004,-0.30000000000000004,1.3,7.300000000000001,6.6000000000000005,-8.2,-1.3,3.3000000000000007,16
402,6850.0,-0.4,0.30000000000000004,-0.30000000000000004,1.4000000000000001,7.300000000000001,6.9,-8.2,-1.3,3.3000000000000007,16
403,6868.0,-0.2,0.2,0.2,1.7000000000000002,7.1000000000000005,7.4,-10.4,-3.5,6.2,16
404,6884.0,0.30000000000000004,0.0,0.6000000000000001,2.1,7.0,7.6000000000000005,-6.699999999999999,-3.1,8.8,16
405,6902.0,0.30000000000000004,0.0,0.6000000000000001,2.2,6.9,7.5,-6.699999999999999,-3.1,8.8,16
406,6918.0,0.4,0.0,0.6000000000000001,2.1,6.9,7.7,-5.6,1.2000000000000002,7.6,16
407,6934.0,0.30000000000000004,0.0,0.7000000000000001,2.0,6.800000000000001,7.800000000000001,-5.500000000000001,7.6,7.1000000000000005,16
408,6953.0,0.30000000000000004,-0.1,0.8,2.0,6.7,7.9,-4.1,12.299999999999999,7.200000000000001,16
409,6968.0,0.30000000000000004,-0.2,0.9,2.0,6.7,7.7,0.2,13.3,6.1000000000000005,16
410,6985.0,0.30000000000000004,-0.2,0.6000000000000001,1.8,6.7,7.300000000000001,6.0,11.8,3.9,16
411,7001.0,0.1,-0.2,0.30000000000000004,1.7000000000000002,6.7,7.1000000000000005,11.1,8.8,1.6,16
412,7017.0,-0.1,-0.2,-0.1,1.6,6.9,6.5,14.600000000000001,6.0,0.8,16
413,7034.0,0.0,-0.1,-0.6000000000000001,1.6,7.0,6.0,14.600000000000001,2.4000000000000004,0.6000000000000001,16
414,7051.0,-0.1,0.0,-0.9,1.6,7.1000000000000005,6.0,10.1,-0.1,0.2,16
415,7067.0,-0.2,0.1,-0.8,1.6,7.1000000000000005,6.2,3.6000000000000005,-0.1,1.3,16
416,7084.0,0.0,0.1,-0.6000000000000001,1.9000000000000001,7.1000000000000005,6.5,-0.6000000000000001,0.9000000000000001,3.1,16
417,7115.0,0.2,0.1,-0.2,2.0,7.1000000000000005,6.7,-4.1,-1.0,1.3,16
418,7117.0,0.2,0.1,-0.2,1.9000000000000001,7.0,6.7,-4.1,-1.0,1.3,16
419,7137.0,0.1,0.1,-0.2,1.7000000000000002,7.0,6.800000000000001,-3.6000000000000005,-0.8,0.30000000000000004,16
420,7151.0,0.2,0.0,0.1,1.9000000000000001,7.0,7.1000000000000005,-3.8,-2.1,0.7,16
421,7167.0,0.2,0.0,0.1,1.9000000000000001,7.0,7.1000000000000005,-3.8,-2.1,0.7,16
422,7184.0,0.2,0.0,0.1,1.8,7.0,6.9,-3.2,-0.30000000000000004,0.5,16
423,7201.0,0.1,0.1,-0.1,1.8,7.0,6.800000000000001,-3.8,-0.1,0.0,16
424,7218.0,0.1,0.1,-0.1,1.8,7.0,6.9,-5.500000000000001,-0.9000000000000001,0.2,16
425,7237.0,0.1,0.0,0.0,1.9000000000000001,6.9,7.1000000000000005,-7.699999999999999,-2.0,0.5,16
426,7251.0,0.2,0.0,0.2,2.0,6.800000000000001,7.300000000000001,-8.100000000000001,-2.8,0.2,16
427,7267.0,0.30000000000000004,0.0,0.30000000000000004,2.0,6.800000000000001,7.2,-6.500000000000001,-3.1,-0.8,16
428,7284.0,0.2,0.0,0.2,1.9000000000000001,6.9,7.2,-4.7,-2.2,-2.5,16
429,7302.0,0.1,0.0,0.2,1.8,7.0,7.2,-3.9,-1.0,-3.3000000000000007,16
430,7317.0,0.1,0.1,0.1,1.8,7.0,7.1000000000000005,-2.9,1.4,-3.3000000000000007,16
431,7335.0,0.0,0.1,-0.1,1.6,7.1000000000000005,7.0,-3.0,3.8,-3.6000000000000005,16
432,7350.0,-0.1,0.2,-0.1,1.5,7.0,7.1000000000000005,-5.1000000000000005,4.2,-3.5,16
433,7367.0,-0.2,0.2,0.0,1.6,6.9,7.4,-6.1000000000000005,2.3,-0.7,16
434,7383.0,-0.1,0.1,0.30000000000000004,1.6,6.800000000000001,7.5,-6.1000000000000005,2.3,-0.7,16
435,7402.0,-0.1,0.0,0.4,1.5,6.800000000000001,7.4,-3.1,0.7,-1.0,16
436,7417.0,-0.2,0.0,0.2,1.4000000000000001,6.800000000000001,7.4,2.0,-1.0,-0.30000000000000004,16
437,7434.0,-0.2,0.0,0.2,1.4000000000000001,6.800000000000001,7.300000000000001,2.0,-1.0,-0.30000000000000004,16
438,7451.0,-0.2,-0.1,0.1,1.6,6.7,7.2,2.7,-1.4,1.2000000000000002,16
439,7467.0,-0.1,-0.1,0.1,1.7000000000000002,6.800000000000001,7.1000000000000005,3.2,-1.3,2.1,16
440,7484.0,0.0,-0.1,0.0,1.7000000000000002,6.800000000000001,7.1000000000000005,3.0,-0.2,2.1,16
441,7503.0,0.1,-0.1,0.0,1.8,6.9,7.1000000000000005,2.8,0.9000000000000001,2.2,16
442,7518.0,0.2,0.0,0.0,2.0,6.9,6.9,3.7000000000000006,0.6000000000000001,2.5,16
443,7533.0,0.30000000000000004,0.0,-0.1,2.0,7.0,6.800000000000001,5.2,-0.2,1.2000000000000002,16
444,7550.0,0.2,0.1,-0.5,1.9000000000000001,7.1000000000000005,6.5,4.9,0.1,-0.8,16
445,7567.0,0.2,0.2,-0.5,1.8,7.1000000000000005,6.6000000000000005,2.1,0.8,-1.8000000000000003,16
446,7584.0,0.1,0.2,-0.4,1.8,7.1000000000000005,6.6000000000000005,-1.2000000000000002,1.9,-2.1,16
447,7601.0,0.0,0.1,-0.4,1.6,7.0,6.7,-3.5,3.1,-2.6,16
448,7624.0,-0.1,0.1,-0.30000000000000004,1.4000000000000001,6.9,7.1000000000000005,-6.2,2.8,-2.9,16
449,7635.0,-0.2,0.0,0.1,1.4000000000000001,6.800000000000001,7.4,-7.6,5.300000000000001,0.1,16
450,7654.0,-0.1,0.0,0.4,1.5,6.800000000000001,7.5,-5.300000000000001,4.2,1.6,16
451,7667.0,-0.1,0.0,0.4,1.5,6.7,7.5,-5.300000000000001,4.2,1.6,16
452,7684.0,0.1,0.0,0.2,1.7000000000000002,6.800000000000001,7.4,-2.1,6.1000000000000005,4.9,16
453,7701.0,0.1,0.0,0.2,1.9000000000000001,6.800000000000001,7.4,-2.1,6.1000000000000005,4.9,16
454,7719.0,0.30000000000000004,-0.1,0.2,1.7000000000000002,6.800000000000001,7.300000000000001,-0.4,4.4,1.6,16
455,7740.0,0.1,0.0,0.2,1.6,6.800000000000001,7.300000000000001,1.2000000000000002,1.7,-0.8,16
456,7750.0,-0.1,-0.1,0.2,1.6,6.7,7.300000000000001,2.4000000000000004,0.0,-0.6000000000000001,16
457,7776.0,-0.1,0.0,-0.1,1.5,6.9,7.0,3.7000000000000006,1.6,-0.5,16
458,7784.0,-0.1,0.0,-0.1,1.5,6.9,6.9,3.7000000000000006,1.6,-0.5,16
459,7801.0,-0.1,0.0,-0.2,1.6,6.9,6.9,2.9,1.7,0.2,16
460,7817.0,0.0,0.0,-0.2,1.6,6.9,6.9,2.1,0.6000000000000001,0.9000000000000001,16
461,7833.0,0.0,0.1,-0.2,1.7000000000000002,6.9,7.0,1.3,-0.9000000000000001,0.8,16
462,7852.0,0.1,0.1,0.0,1.8,6.9,7.1000000000000005,-0.30000000000000004,-1.7,0.5,16
463,7867.0,0.1,0.1,0.0,1.8,7.0,7.1000000000000005,-0.30000000000000004,-1.7,0.5,16
464,7886.0,0.2,0.1,0.0,1.9000000000000001,7.0,7.2,-0.2,0.1,0.30000000000000004,16
465,7902.0,0.1,0.1,0.1,1.7000000000000002,7.0,7.300000000000001,-0.8,5.300000000000001,-1.7,16
466,7917.0,0.1,0.1,0.1,1.6,6.9,7.2,-0.8,5.300000000000001,-1.7,16
467,7933.0,-0.1,0.0,0.1,1.2000000000000002,7.0,7.0,-0.5,5.300000000000001,-1.7,16
468,7950.0,0.4,0.30000000000000004,-0.2,1.9000000000000001,7.2,7.0,-6.300000000000001,8.899999999999999,-0.9000000000000001,16
469,7971.0,0.4,0.30000000000000004,-0.2,1.9000000000000001,6.9,7.1000000000000005,-11.4,13.5,-5.1000000000000005,16
470,7984.0,0.5,0.1,0.2,2.2,6.800000000000001,8.0,-11.4,13.5,-5.1000000000000005,16
471,8002.0,0.1,-0.2,0.5,1.6,6.6000000000000005,7.7,3.5,8.3,-5.8,16
472,8020.0,0.1,-0.2,0.5,1.4000000000000001,6.800000000000001,7.300000000000001,3.5,8.3,-5.8,16
473,8034.0,0.4,0.30000000000000004,-0.2,2.9000000000000004,7.1000000000000005,6.300000000000001,12.9,7.500000000000001,-3.9,16
474,8051.0,1.1,0.0,-0.8,1.2000000000000002,7.0,6.5,15.299999999999999,4.5,-17.0,16
475,8067.0,-0.30000000000000004,0.0,-0.6000000000000001,0.4,7.4,6.5,15.899999999999999,-5.300000000000001,-29.200000000000003,16
476,8084.0,-1.2000000000000002,0.30000000000000004,-0.5,0.2,7.1000000000000005,6.5,16.700000000000003,-15.000000000000002,-25.5,16
477,8113.0,-0.8,-0.30000000000000004,-0.4,0.6000000000000001,6.7,6.6000000000000005,8.8,-30.699999999999996,-2.0,16
478,8117.0,-0.8,-0.30000000000000004,-0.4,0.6000000000000001,6.7,6.6000000000000005,8.8,-30.699999999999996,-2.0,16
479,8136.0,-0.8,-0.5,-0.30000000000000004,1.1,6.4,6.7,2.0,-22.5,11.6,16
480,8151.0,-0.1,-0.6000000000000001,-0.2,2.2,6.7,6.4,-2.7,-2.0,24.1,16
481,8170.0,1.0,-0.2,-0.6000000000000001,2.5,6.7,6.4,-17.300000000000004,20.3,10.0,16
482,8184.0,1.0,-0.2,-0.6000000000000001,2.0,6.9,6.800000000000001,-17.300000000000004,20.3,10.0,16
483,8201.0,0.2,0.1,0.0,1.1,7.1000000000000005,7.800000000000001,-24.900000000000002,21.300000000000004,-1.0,16
484,8217.0,-0.2,0.0,1.1,1.2000000000000002,6.800000000000001,8.3,-18.900000000000002,10.5,1.9,16
485,8233.0,-0.2,0.0,1.1,1.4000000000000001,6.7,8.3,-18.900000000000002,10.5,1.9,16
486,8251.0,0.0,-0.1,1.1,1.4000000000000001,6.6000000000000005,8.3,-10.0,4.4,2.2,16
487,8267.0,-0.1,-0.2,0.8,1.3,6.6000000000000005,7.9,7.9,-1.3,-0.1,16
488,8284.0,-0.1,-0.2,0.8,1.2000000000000002,6.7,7.6000000000000005,7.9,-1.3,-0.1,16
489,8304.0,-0.2,-0.1,0.30000000000000004,1.1,6.800000000000001,7.2,13.000000000000002,-1.4,-0.7,16
490,8317.0,-0.4,-0.1,0.0,0.9,6.9,6.7,14.300000000000002,-0.5,-1.0,16
491,8340.0,-0.6000000000000001,0.0,-0.5,0.7000000000000001,7.0,6.6000000000000005,7.0,2.9,0.5,16
492,8350.0,-0.6000000000000001,0.0,-0.5,0.7000000000000001,7.0,6.7,7.0,2.9,0.5,16
493,8367.0,-0.7000000000000001,0.1,-0.30000000000000004,1.0,6.9,7.0,1.8000000000000003,2.1,3.7000000000000006,16
494,8383.0,-0.4,0.0,-0.1,1.2000000000000002,6.9,7.1000000000000005,-1.3,-0.9000000000000001,6.9,16
495,8400.0,-0.1,-0.1,0.2,1.6,6.800000000000001,7.300000000000001,-1.5,-3.1,8.3,16
496,8417.0,0.1,-0.1,0.30000000000000004,1.6,6.7,7.4,-0.2,-2.8,7.8,16
497,8433.0,0.2,-0.2,0.30000000000000004,1.6,6.7,7.4,1.9,-0.6000000000000001,6.9,16
498,8450.0,0.1,-0.2,0.30000000000000004,1.5,6.7,7.2,4.2,1.4,6.9,16
499,8468.0,0.0,-0.2,0.1,1.6,6.800000000000001,7.0,6.0,1.6,7.9,16
500,8484.0,0.1,-0.1,-0.1,1.6,6.9,6.9,6.4,1.7,8.700000000000001,16
501,8500.0,0.1,0.0,-0.2,1.7000000000000002,7.0,6.9,5.0,0.4,8.8,16
502,8523.0,0.2,0.1,-0.1,1.8,7.0,7.0,3.3000000000000007,-0.5,8.2,16
503,8533.0,0.30000000000000004,0.1,0.0,1.9000000000000001,7.0,7.1000000000000005,2.2,-0.30000000000000004,6.9,16
504,8550.0,0.30000000000000004,0.0,0.1,2.0,7.0,7.300000000000001,1.9,0.5,5.0,16
505,8567.0,0.4,0.0,0.30000000000000004,2.1,6.9,7.5,2.9,0.4,2.6,16
506,8584.0,0.5,0.0,0.5,2.0,6.9,7.5,5.2,1.2000000000000002,-0.6000000000000001,16
507,8600.0,0.4,-0.1,0.5,1.9000000000000001,7.0,7.4,9.0,3.6000000000000005,-3.8,16
508,8617.0,0.30000000000000004,0.0,0.30000000000000004,1.6,7.0,7.0,12.0,4.1,-5.9,16
509,8634.0,0.1,0.0,0.0,2.4000000000000004,7.1000000000000005,3.2,11.900000000000002,1.7,-6.500000000000001,16
510,8650.0,0.8,0.1,-3.7,1.8,7.6000000000000005,4.0,4.1,-3.9,-6.0,16
511,8667.0,-1.0,0.4,-0.9,0.8,6.800000000000001,6.800000000000001,-20.400000000000002,-2.2,-6.600000000000001,16
512,8683.0,-0.30000000000000004,-0.30000000000000004,-0.2,2.3000000000000003,6.5,7.6000000000000005,-22.4,0.5,6.2,16
513,8700.0,0.8,-0.4,0.6000000000000001,2.5,6.5,8.200000000000001,-19.6,-0.8,7.500000000000001,16
514,8725.0,0.6000000000000001,-0.2,1.2000000000000002,2.0,6.800000000000001,8.0,7.300000000000001,-3.4,-6.4,16
515,8738.0,0.6000000000000001,-0.2,1.2000000000000002,1.7000000000000002,6.9,7.4,7.300000000000001,-3.4,-6.4,16
516,8750.0,-0.1,0.1,-0.1,1.4000000000000001,7.1000000000000005,6.9,18.200000000000003,-6.600000000000001,-10.1,16
517,8767.0,-0.1,0.1,-0.1,1.4000000000000001,7.1000000000000005,6.5,18.200000000000003,-6.600000000000001,-10.1,16
518,8784.0,-0.1,0.1,-0.7000000000000001,1.2000000000000002,7.1000000000000005,5.9,14.0,-5.2,-9.100000000000001,16
519,8801.0,-0.4,0.1,-0.9,1.1,7.1000000000000005,6.1000000000000005,-5.300000000000001,4.1,-5.4,16
520,8820.0,-0.2,-0.1,-0.6000000000000001,1.2000000000000002,6.9,6.4,-12.100000000000001,7.300000000000001,-3.6000000000000005,16
521,8834.0,-0.2,-0.1,-0.6000000000000001,1.3,6.9,6.7,-12.100000000000001,7.300000000000001,-3.6000000000000005,16
522,8850.0,-0.1,-0.1,-0.2,1.3,6.800000000000001,7.1000000000000005,-15.2,8.4,-3.3000000000000007,16
523,8867.0,-0.1,-0.1,0.1,1.3,6.800000000000001,7.2,-15.100000000000001,5.8,-3.8,16
524,8883.0,-0.2,-0.1,0.2,1.3,6.800000000000001,7.4,-12.600000000000001,2.9,-4.1,16
525,8900.0,-0.1,-0.1,0.4,1.4000000000000001,6.800000000000001,7.4,-9.899999999999999,-0.5,-3.9,16
526,8917.0,0.0,-0.1,0.30000000000000004,1.4000000000000001,6.800000000000001,7.4,-7.400000000000001,-1.0,-3.7000000000000006,16
527,8933.0,0.0,-0.1,0.2,1.4000000000000001,6.9,7.2,-6.9,0.9000000000000001,-3.6000000000000005,16
528,8950.0,0.1,0.0,0.1,1.5,6.9,7.1000000000000005,-8.0,5.0,-3.1,16
529,8967.0,0.1,0.0,-0.1,1.5,6.9,7.1000000000000005,-9.899999999999999,9.2,-2.7,16
530,8983.0,0.2,0.1,-0.1,1.4000000000000001,6.9,7.1000000000000005,-12.100000000000001,12.4,-2.8,16
531,9000.0,0.2,0.1,-0.1,1.4000000000000001,6.800000000000001,7.2,-14.0,13.6,-3.0,16
532,9019.0,0.2,0.0,0.1,1.4000000000000001,6.800000000000001,7.5,-14.300000000000002,12.9,-4.4,16
533,9034.0,0.2,0.0,0.1,1.3,6.7,7.5,-14.300000000000002,12.9,-4.4,16
534,9060.0,0.1,-0.1,0.2,1.2000000000000002,6.6000000000000005,7.4,-8.4,9.8,-5.7,16
535,9067.0,0.0,-0.1,-0.2,1.1,6.6000000000000005,7.2,-6.9,7.200000000000001,-6.2,16
536,9083.0,0.0,-0.1,-0.2,1.1,6.6000000000000005,7.1000000000000005,-6.9,7.200000000000001,-6.2,16
537,9100.0,0.0,-0.1,-0.30000000000000004,1.0,6.6000000000000005,7.0,-7.300000000000001,6.2,-6.1000000000000005,16
538,9117.0,-0.1,-0.1,-0.4,0.9,6.6000000000000005,7.1000000000000005,-8.8,5.9,-5.7,16
539,9134.0,-0.1,-0.1,-0.4,0.9,6.6000000000000005,7.2,-10.4,6.0,-5.4,16
540,9151.0,-0.1,0.0,-0.2,1.0,6.6000000000000005,7.4,-11.4,4.6,-4.800000000000001,16
541,9168.0,0.0,0.0,-0.1,1.1,6.6000000000000005,7.5,-11.3,2.1,-4.6,16
542,9183.0,0.1,0.0,0.0,1.2000000000000002,6.6000000000000005,7.6000000000000005,-10.299999999999999,0.0,-5.0,16
543,9200.0,0.2,0.0,0.1,1.2000000000000002,6.5,7.6000000000000005,-9.3,-2.5,-6.1000000000000005,16
544,9217.0,0.2,0.0,0.1,1.2000000000000002,6.5,7.7,-8.899999999999999,-2.9,-7.6,16
545,9233.0,0.2,-0.1,0.2,1.2000000000000002,6.4,7.800000000000001,-8.899999999999999,0.0,-8.700000000000001,16
546,9250.0,0.2,-0.1,0.30000000000000004,1.1,6.4,7.800000000000001,-8.899999999999999,3.1,-9.4,16
547,9267.0,0.1,-0.1,0.2,0.8,6.4,7.7,-9.3,6.300000000000001,-10.1,16
548,9284.0,-0.1,-0.1,0.1,0.7000000000000001,6.300000000000001,7.7,-10.5,8.700000000000001,-9.700000000000001,16
549,9300.0,-0.2,-0.1,0.0,0.6000000000000001,6.300000000000001,7.7,-11.5,9.5,-8.100000000000001,16
550,9320.0,-0.2,-0.1,0.1,0.6000000000000001,6.2,7.800000000000001,-11.8,10.1,-6.2,16
551,9333.0,-0.1,-0.1,0.1,0.6000000000000001,6.2,7.800000000000001,-9.100000000000001,5.6,-5.2,16
552,9350.0,-0.1,-0.1,0.1,0.5,6.2,7.800000000000001,-9.100000000000001,5.6,-5.2,16
553,9367.0,-0.2,-0.2,0.1,0.4,6.2,7.800000000000001,-7.200000000000001,1.4,-5.1000000000000005,16
554,9383.0,-0.30000000000000004,-0.2,0.1,0.5,6.1000000000000005,7.800000000000001,-4.7,-2.8,-4.4,16
555,9403.0,-0.2,-0.2,0.0,0.6000000000000001,6.1000000000000005,7.800000000000001,-1.0,-8.4,-2.3,16
556,9417.0,-0.2,-0.2,0.0,0.6000000000000001,6.2,7.800000000000001,-1.0,-8.4,-2.3,16
557,9433.0,-0.1,-0.1,0.0,0.6000000000000001,6.2,7.800000000000001,-0.6000000000000001,-9.2,-1.5,16
558,9452.0,0.0,0.0,0.0,0.8,6.300000000000001,7.800000000000001,-1.0,-7.300000000000001,0.7,16
559,9467.0,0.0,0.0,0.0,0.8,6.300000000000001,7.800000000000001,-1.0,-7.300000000000001,0.7,16
560,9483.0,0.1,0.0,0.1,0.9,6.300000000000001,7.800000000000001,-1.6,-5.2,1.0,16
561,9500.0,0.1,0.0,0.1,0.9,6.300000000000001,7.9,-1.5,-2.6,1.0,16
562,9517.0,0.1,0.0,0.1,0.9,6.300000000000001,7.800000000000001,-1.1,-1.5,0.4,16
563,9533.0,0.1,0.0,0.1,0.9,6.300000000000001,7.800000000000001,-0.5,-1.7,0.1,16
564,9550.0,0.0,-0.1,0.0,0.9,6.2,7.800000000000001,0.7,-2.1,-0.5,16
565,9567.0,0.0,-0.1,0.0,0.9,6.2,7.800000000000001,0.7,-2.1,-0.5,16
566,9583.0,0.1,-0.1,0.0,0.9,6.2,7.6000000000000005,1.4,-1.7,-0.5,16
567,9603.0,0.0,0.0,-0.2,0.9,6.300000000000001,7.5,1.1,-1.6,-0.6000000000000001,16
568,9617.0,0.0,0.0,-0.2,0.9,6.300000000000001,7.5,1.1,-1.6,-0.6000000000000001,16
569,9633.0,0.1,0.0,-0.2,0.9,6.300000000000001,7.5,-0.5,-1.6,-0.30000000000000004,16
570,9650.0,0.2,0.1,0.0,1.0,6.300000000000001,7.7,-3.4,-1.0,-0.8,16
571,9667.0,0.2,0.1,0.0,1.1,6.300000000000001,7.800000000000001,-3.4,-1.0,-0.8,16
572,9690.0,0.1,0.1,0.2,1.0,6.300000000000001,8.0,-4.4,-3.1,-1.7,16
573,9700.0,0.1,0.1,0.2,1.0,6.300000000000001,8.200000000000001,-4.4,-3.1,-1.7,16
574,9717.0,0.1,0.1,0.4,0.9,6.300000000000001,8.200000000000001,-3.6000000000000005,-4.2,-2.2,16
575,9733.0,0.1,0.1,0.4,0.8,6.2,8.1,-1.6,-3.7000000000000006,-3.2,16
576,9750.0,-0.1,0.0,0.2,0.7000000000000001,6.2,7.9,0.2,-3.1,-4.7,16
577,9767.0,-0.2,-0.1,0.1,0.6000000000000001,6.2,7.9,1.0,-1.7,-3.7000000000000006,16
578,9783.0,-0.30000000000000004,-0.1,0.0,0.6000000000000001,6.1000000000000005,7.7,1.3,-0.2,-1.7,16
579,9800.0,-0.30000000000000004,-0.1,-0.1,0.6000000000000001,6.1000000000000005,7.7,1.5,0.2,0.1,16
580,9817.0,-0.2,-0.1,-0.1,0.7000000000000001,6.1000000000000005,7.7,1.8000000000000003,0.0,1.5,16
581,9834.0,-0.1,-0.1,-0.2,0.8,6.2,7.6000000000000005,2.2,-1.7,2.2,16
582,9852.0,0.0,-0.1,-0.1,0.9,6.2,7.7,2.6,-3.3000000000000007,2.2,16
583,9869.0,0.0,-0.1,-0.2,0.9,6.2,7.5,4.0,-3.0,2.1,16
584,9883.0,0.0,-0.1,-0.2,0.9,6.300000000000001,7.4,4.0,-3.0,2.1,16
585,9901.0,0.0,0.0,-0.4,0.9,6.300000000000001,7.300000000000001,3.2,-3.1,2.2,16
586,9918.0,0.1,0.1,-0.30000000000000004,1.0,6.300000000000001,7.4,0.2,-4.300000000000001,2.4000000000000004,16
587,9935.0,0.1,0.1,-0.1,1.1,6.300000000000001,7.6000000000000005,0.1,-3.7000000000000006,1.8000000000000003,16
588,9951.0,0.1,0.1,-0.1,1.1,6.300000000000001,7.7,0.1,-3.7000000000000006,1.8000000000000003,16
589,9968.0,0.2,0.1,0.0,1.1,6.300000000000001,7.6000000000000005,1.3,-3.0,0.7,16
590,9983.0,0.1,0.1,-0.1,1.0,6.4,7.5,2.7,-3.1,-0.8,16
591,10000.0,0.0,0.1,-0.2,0.9,6.4,7.4,2.3,-3.9,-1.8000000000000003,16
592,10017.0,-0.1,0.1,-0.30000000000000004,0.9,6.4,7.4,0.5,-3.9,-1.7,16
593,10036.0,0.0,0.0,-0.1,0.9,6.300000000000001,7.6000000000000005,-5.0,-3.0,0.0,16
594,10050.0,0.0,0.0,-0.1,1.0,6.300000000000001,7.800000000000001,-5.0,-3.0,0.0,16
595,10067.0,0.0,0.0,0.1,1.0,6.2,8.0,-6.1000000000000005,-2.1,0.5,16
596,10084.0,0.0,-0.1,0.30000000000000004,1.0,6.2,8.1,-3.3000000000000007,0.30000000000000004,0.6000000000000001,16
597,10100.0,0.0,-0.1,0.4,1.1,6.2,8.1,-3.3000000000000007,0.30000000000000004,0.6000000000000001,16
598,10118.0,0.0,-0.1,0.30000000000000004,1.0,6.2,7.9,-0.7,0.8,0.1,16
599,10134.0,0.0,-0.1,0.1,0.9,6.2,7.7,1.7,-1.7,-0.30000000000000004,16
600,10151.0,-0.1,0.0,0.0,0.8,6.2,7.6000000000000005,1.7,-1.7,-0.30000000000000004,16
601,10167.0,-0.2,-0.1,-0.2,0.8,6.2,7.5,1.0,-0.30000000000000004,0.6000000000000001,16
602,10184.0,-0.1,0.0,-0.1,0.9,6.2,7.6000000000000005,-2.0,0.1,2.5,16
603,10203.0,-0.1,0.0,-0.1,0.9,6.2,7.7,-2.0,0.1,2.5,16
604,10217.0,-0.1,0.0,0.1,0.9,6.2,8.0,-2.0,-0.4,3.0,16
605,10233.0,0.0,0.0,0.2,1.0,6.2,8.0,-0.7,-1.7,3.5,16
606,10252.0,0.1,0.0,0.1,1.1,6.2,7.9,2.5,-4.2,3.1,16
607,10267.0,0.1,0.0,0.1,1.1,6.2,7.800000000000001,2.5,-4.2,3.1,16
608,10283.0,0.1,0.0,0.1,1.2000000000000002,6.2,7.7,2.9,-3.8,3.1,16
609,10300.0,0.1,0.0,0.0,1.2000000000000002,6.300000000000001,7.7,2.3,-2.3,3.2,16
610,10317.0,0.1,0.0,0.1,1.3,6.300000000000001,8.0,0.9000000000000001,-0.6000000000000001,3.3000000000000007,16
611,10333.0,0.30000000000000004,0.1,0.2,1.7000000000000002,6.300000000000001,7.4,2.9,-6.2,2.2,16
612,10351.0,0.5,0.0,-0.30000000000000004,1.6,6.300000000000001,7.2,8.700000000000001,-18.1,-3.0,16
613,10367.0,0.2,0.0,-0.5,1.1,6.300000000000001,6.9,11.3,-25.300000000000004,-8.0,16
614,10383.0,-0.2,-0.1,-0.7000000000000001,0.8,6.1000000000000005,7.0,8.5,-25.8,-8.5,16
615,10400.0,-0.5,-0.2,0.0,0.7000000000000001,6.1000000000000005,7.6000000000000005,-8.0,5.500000000000001,6.500000000000001,16
616,10428.0,0.0,0.0,0.30000000000000004,1.3,6.300000000000001,8.0,-13.8,16.1,12.4,16
617,10434.0,0.0,0.0,0.30000000000000004,1.6,6.2,8.1,-13.8,16.1,12.4,16
618,10450.0,0.4,0.1,0.6000000000000001,1.6,6.300000000000001,8.3,-11.2,13.3,6.699999999999999,16
619,10467.0,0.4,0.1,0.6000000000000001,1.5,6.300000000000001,8.3,-11.2,13.3,6.699999999999999,16
620,10484.0,0.2,0.1,0.5,1.3,6.300000000000001,8.1,-4.800000000000001,5.8,1.7,16
621,10500.0,0.0,0.0,0.2,1.0,6.2,7.7,0.8,-1.1,-1.8000000000000003,16
622,10518.0,-0.2,0.0,-0.1,0.9,6.300000000000001,7.300000000000001,3.3000000000000007,-4.2,-0.4,16
623,10534.0,-0.30000000000000004,0.0,-0.4,0.9,6.2,7.300000000000001,3.3000000000000007,-4.2,-0.4,16
624,10557.0,-0.2,0.0,-0.4,1.1,6.2,7.5,0.2,-1.7,1.8000000000000003,16
625,10567.0,-0.1,0.0,-0.2,1.1,6.2,7.7,-3.5,0.1,3.4,16
626,10583.0,0.0,0.0,0.0,1.2000000000000002,6.2,7.800000000000001,-4.9,2.2,4.2,16
627,10600.0,0.0,0.0,0.2,1.2000000000000002,6.1000000000000005,7.9,-4.0,1.6,4.1,16
628,10617.0,-0.1,-0.1,0.1,1.1,6.1000000000000005,7.800000000000001,0.5,-2.6,2.9,16
629,10634.0,-0.1,-0.1,0.1,1.2000000000000002,6.1000000000000005,7.7,0.5,-2.6,2.9,16
630,10655.0,-0.1,-0.1,0.0,1.3,6.1000000000000005,7.7,1.7,-5.9,3.3000000000000007,16
631,10667.0,0.0,-0.1,0.0,1.3,6.1000000000000005,7.7,2.1,-3.8,4.300000000000001,16
632,10683.0,0.0,-0.1,-0.1,1.3,6.2,7.5,2.1,-3.8,4.300000000000001,16
633,10701.0,0.0,0.0,-0.2,1.4000000000000001,6.2,7.5,1.0,-2.1,4.6,16
634,10717.0,0.1,0.1,-0.2,1.4000000000000001,6.300000000000001,7.5,-1.9,-1.4,4.6,16
635,10733.0,0.1,0.1,-0.2,1.4000000000000001,6.300000000000001,7.6000000000000005,-1.9,-1.4,4.6,16
636,10750.0,0.1,0.1,-0.1,1.5,6.2,7.7,-2.9,-2.7,4.0,16
637,10767.0,0.1,0.1,0.0,1.5,6.2,7.7,-3.0,-2.7,3.5,16
638,10784.0,0.1,0.0,0.0,1.5,6.2,7.800000000000001,-3.1,-2.2,2.8,16
639,10802.0,0.0,0.0,0.1,1.3,6.2,7.800000000000001,-3.3000000000000007,-0.9000000000000001,1.9,16
640,10820.0,0.0,0.0,0.1,1.3,6.1000000000000005,7.800000000000001,-3.1,1.3,1.8000000000000003,16
641,10834.0,-0.1,0.0,0.1,1.3,6.2,7.9,-3.3000000000000007,3.2,2.7,16
642,10853.0,-0.1,0.0,0.1,1.3,6.1000000000000005,8.0,-3.3000000000000007,3.2,2.7,16
643,10867.0,0.0,0.0,0.2,1.3,6.1000000000000005,7.9,-2.5,3.4,2.3,16
644,10883.0,0.0,0.0,0.1,1.3,6.1000000000000005,7.800000000000001,-1.6,3.0,1.4,16
645,10902.0,-0.1,0.0,0.0,1.3,6.0,7.800000000000001,-1.7,1.9,0.8,16
646,10917.0,-0.1,-0.1,0.1,1.4000000000000001,5.9,8.0,-2.2,1.1,1.3,16
647,10933.0,0.0,-0.2,0.2,1.4000000000000001,5.9,8.0,-1.8000000000000003,-0.2,2.0,16
648,10950.0,0.1,-0.2,0.2,1.6,5.9,7.9,-0.2,-1.2000000000000002,2.5,16
649,10967.0,0.2,-0.2,0.1,1.6,5.9,7.7,1.9,-1.8000000000000003,2.6,16
650,10983.0,0.2,-0.1,-0.30000000000000004,1.6,6.0,7.5,3.0,-3.0,1.6,16
651,11001.0,0.2,-0.1,-0.30000000000000004,1.6,6.1000000000000005,7.4,3.0,-3.0,1.6,16
652,11017.0,0.1,0.0,-0.4,1.6,6.1000000000000005,7.4,1.3,-4.6,1.9,16
653,11033.0,0.2,0.0,-0.30000000000000004,1.8,6.1000000000000005,7.5,-0.7,-6.4,2.3,16
654,11050.0,0.30000000000000004,0.0,-0.2,1.8,6.1000000000000005,7.5,-1.7,-7.9,2.1,16
655,11069.0,0.30000000000000004,0.1,-0.2,1.8,6.2,7.5,-1.9,-8.3,0.6000000000000001,16
656,11083.0,0.2,0.1,-0.30000000000000004,1.6,6.2,7.4,-2.9,-6.500000000000001,-1.3,16
657,11100.0,0.1,0.1,-0.30000000000000004,1.5,6.2,7.5,-5.2,-3.7000000000000006,-2.7,16
658,11125.0,-0.1,0.0,0.0,1.3,6.0,7.7,-10.0,2.8,-2.6,16
659,11133.0,-0.1,0.0,0.0,1.3,5.9,7.800000000000001,-10.0,2.8,-2.6,16
660,11151.0,-0.2,-0.1,0.0,1.3,5.7,7.9,-8.8,7.8,-1.2000000000000002,16
661,11167.0,-0.2,-0.2,0.1,1.2000000000000002,5.800000000000001,7.9,-8.8,7.8,-1.2000000000000002,16
662,11184.0,-0.30000000000000004,-0.2,0.1,1.0,5.9,7.7,-5.7,7.0,-0.7,16
663,11203.0,-0.4,0.0,-0.4,1.0,6.0,7.300000000000001,-1.8000000000000003,-0.4,1.5,16
664,11217.0,-0.4,0.0,-0.4,1.1,6.0,7.300000000000001,-1.8000000000000003,-0.4,1.5,16
665,11233.0,-0.30000000000000004,0.0,-0.6000000000000001,1.1,6.0,7.2,-4.1,-3.2,1.4,16
666,11251.0,-0.30000000000000004,0.1,-0.2,1.1,6.0,7.6000000000000005,-14.100000000000001,-1.3,2.4000000000000004,16
667,11267.0,-0.30000000000000004,0.1,-0.2,1.1,6.0,7.9,-14.100000000000001,-1.3,2.4000000000000004,16
668,11285.0,-0.2,0.1,0.30000000000000004,1.5,5.9,8.5,-17.6,1.8000000000000003,4.9,16
669,11301.0,0.1,0.1,0.7000000000000001,1.7000000000000002,5.9,9.200000000000001,-18.6,2.0,6.4,16
670,11317.0,0.2,0.1,1.2000000000000002,1.7000000000000002,5.9,9.4,-16.6,-0.30000000000000004,6.699999999999999,16
671,11333.0,0.30000000000000004,0.2,1.5,1.9000000000000001,5.9,9.600000000000001,-11.4,-2.5,6.300000000000001,16
672,11354.0,0.5,0.2,1.5,2.1,5.9,9.200000000000001,-4.0,-1.3,5.9,16
673,11367.0,0.6000000000000001,0.2,1.1,2.1,6.0,8.9,3.0,1.7,4.4,16
674,11383.0,0.6000000000000001,0.2,0.6000000000000001,1.9000000000000001,6.0,8.3,6.8,6.500000000000001,1.5,16
675,11400.0,0.4,0.2,0.2,1.6,6.0,8.0,7.200000000000001,11.6,-0.9000000000000001,16
676,11417.0,0.2,0.2,-0.1,1.7000000000000002,5.9,8.0,5.500000000000001,15.299999999999999,-1.7,16
677,11434.0,0.30000000000000004,0.0,-0.1,1.6,5.7,7.800000000000001,4.4,20.7,-2.3,16
678,11451.0,0.30000000000000004,-0.1,-0.30000000000000004,1.3,5.7,7.5,4.5,23.900000000000006,-4.300000000000001,16
679,11470.0,-0.1,-0.1,-0.7000000000000001,1.0,5.7,7.300000000000001,3.9,21.6,-8.0,16
680,11484.0,-0.1,-0.1,-0.7000000000000001,0.8,5.7,7.300000000000001,3.9,21.6,-8.0,16
681,11502.0,-0.4,-0.1,-0.8,0.5,5.800000000000001,7.300000000000001,1.8000000000000003,18.0,-8.0,16
682,11518.0,-0.4,-0.2,-0.1,0.7000000000000001,5.7,8.0,-0.9000000000000001,13.900000000000002,-6.500000000000001,16
683,11538.0,-0.1,-0.30000000000000004,0.5,0.9,5.6000000000000005,8.6,1.3,9.0,-2.5,16
684,11551.0,-0.1,-0.30000000000000004,0.5,0.9,5.6000000000000005,8.700000000000001,1.3,9.0,-2.5,16
685,11567.0,0.0,-0.30000000000000004,0.6000000000000001,1.0,5.6000000000000005,8.6,13.8,0.7,-3.7000000000000006,16
686,11583.0,0.0,-0.30000000000000004,0.6000000000000001,1.0,5.7,8.4,13.8,0.7,-3.7000000000000006,16
687,11600.0,0.0,-0.2,0.30000000000000004,0.9,5.9,8.0,16.200000000000003,-2.0,-2.9,16
688,11620.0,-0.1,-0.1,0.0,1.0,5.9,7.7,14.5,-4.0,-1.3,16
689,11636.0,0.2,0.0,-0.2,1.3,6.0,7.7,6.0,0.1,3.0,16
690,11654.0,0.2,0.0,-0.2,1.4000000000000001,6.0,7.6000000000000005,6.0,0.1,3.0,16
691,11667.0,0.5,0.0,-0.30000000000000004,1.5,6.1000000000000005,7.7,2.6,5.2,2.4000000000000004,16
692,11684.0,0.5,0.1,-0.2,1.3,6.1000000000000005,7.7,0.2,9.899999999999999,-0.1,16
693,11701.0,0.30000000000000004,0.1,-0.1,1.1,6.2,7.800000000000001,-0.5,11.6,-2.6,16
694,11719.0,0.2,0.2,-0.2,1.1,6.2,7.6000000000000005,0.2,9.600000000000001,-3.4,16
695,11740.0,0.2,0.1,-0.30000000000000004,1.1,6.1000000000000005,7.6000000000000005,0.0,-0.4,-5.2,16
696,11751.0,0.2,0.1,-0.30000000000000004,1.2000000000000002,6.1000000000000005,7.7,0.0,-0.4,-5.2,16
697,11768.0,0.4,0.1,-0.1,1.5,6.0,8.0,-0.7,-4.6,-6.2,16
698,11784.0,0.8,0.0,0.30000000000000004,1.7000000000000002,6.0,8.200000000000001,3.8,-4.5,-10.700000000000001,16
699,11800.0,0.8,0.0,0.30000000000000004,1.6,6.0,8.200000000000001,3.8,-4.5,-10.700000000000001,16
700,11817.0,0.7000000000000001,0.0,0.30000000000000004,1.5,6.1000000000000005,8.1,7.1000000000000005,-3.7000000000000006,-13.6,16
701,11837.0,0.7000000000000001,0.0,0.2,1.5,6.2,8.0,12.600000000000001,2.6,-16.5,16
702,11850.0,0.7000000000000001,0.0,0.2,1.4000000000000001,6.2,8.1,12.600000000000001,2.6,-16.5,16
703,11868.0,0.6000000000000001,0.0,0.30000000000000004,1.2000000000000002,6.2,8.0,15.000000000000002,5.8,-18.1,16
704,11884.0,0.4,0.0,0.1,1.0,6.1000000000000005,7.800000000000001,17.200000000000003,7.9,-19.0,16
705,11901.0,0.30000000000000004,-0.1,0.1,0.8,6.1000000000000005,7.9,17.6,11.6,-18.700000000000003,16
706,11924.0,0.1,-0.1,-0.1,0.6000000000000001,6.2,7.6000000000000005,16.0,23.900000000000006,-14.700000000000001,16
707,11940.0,0.1,-0.1,-0.1,0.5,6.2,7.4,16.0,23.900000000000006,-14.700000000000001,16
708,11951.0,0.1,-0.1,-0.30000000000000004,0.4,6.300000000000001,7.300000000000001,10.9,25.4,-13.900000000000002,16
709,11967.0,0.0,0.0,-0.5,0.4,6.5,7.1000000000000005,10.9,25.4,-13.900000000000002,16
710,11983.0,0.0,0.1,-0.6000000000000001,0.2,6.5,7.0,7.699999999999999,21.200000000000003,-14.300000000000002,16
711,12001.0,0.0,0.1,-0.7000000000000001,0.1,6.6000000000000005,6.9,4.5,14.400000000000002,-15.2,16
712,12017.0,-0.2,0.2,-0.8,-0.1,6.6000000000000005,6.9,0.8,6.1000000000000005,-16.1,16
713,12034.0,-0.2,0.2,-0.7000000000000001,-0.1,6.5,7.0,-3.4,0.5,-15.399999999999999,16
714,12050.0,-0.1,0.1,-0.5,0.0,6.4,7.1000000000000005,-9.700000000000001,-1.9,-13.200000000000003,16
715,12067.0,-0.1,0.1,-0.5,0.0,6.4,7.1000000000000005,-9.700000000000001,-1.9,-13.200000000000003,16
716,12084.0,-0.1,0.0,-0.5,0.0,6.4,7.300000000000001,-13.000000000000002,0.2,-13.700000000000001,16
717,12103.0,0.0,0.1,-0.5,0.0,6.300000000000001,7.300000000000001,-19.200000000000003,7.8,-15.5,16
718,12117.0,0.0,0.1,-0.5,-0.1,6.300000000000001,7.4,-19.200000000000003,7.8,-15.5,16
719,12135.0,-0.1,0.0,-0.2,-0.2,6.2,7.9,-22.3,7.300000000000001,-16.5,16
720,12156.0,-0.1,0.0,0.2,-0.1,6.2,8.3,-22.700000000000003,5.8,-15.8,16
721,12167.0,0.0,0.1,0.4,0.0,6.1000000000000005,8.4,-19.300000000000004,3.7000000000000006,-13.900000000000002,16
722,12185.0,0.1,0.1,0.5,-0.1,6.2,8.5,-13.900000000000002,6.300000000000001,-11.8,16
723,12201.0,0.0,0.1,0.6000000000000001,-0.5,6.4,8.8,-9.899999999999999,12.299999999999999,-9.0,16
724,12220.0,0.0,0.4,1.2000000000000002,-0.2,6.5,9.1,-2.1,16.3,1.9,16
725,12234.0,0.0,0.4,1.2000000000000002,0.1,6.5,9.1,-2.1,16.3,1.9,16
726,12251.0,0.5,0.4,1.1,0.5,6.4,8.700000000000001,3.2,9.4,3.5,16
727,12267.0,0.5,0.30000000000000004,0.4,0.1,6.4,8.3,7.9,3.4,-1.4,16
728,12284.0,0.5,0.30000000000000004,0.4,-0.2,6.300000000000001,8.1,10.700000000000001,-1.0,-8.4,16
729,12300.0,0.1,0.2,0.2,-0.30000000000000004,6.1000000000000005,7.9,11.5,-3.9,-11.5,16
730,12317.0,0.1,-0.2,-0.2,-0.30000000000000004,6.0,7.800000000000001,10.9,-1.5,-10.700000000000001,16
731,12336.0,0.1,-0.2,-0.2,-0.30000000000000004,6.0,7.5,10.9,-1.5,-10.700000000000001,16
732,12351.0,-0.1,-0.2,-0.4,-0.6000000000000001,6.0,7.300000000000001,9.100000000000001,1.4,-10.200000000000001,16
733,12368.0,0.0,-0.2,-0.7000000000000001,-0.4,6.0,7.1000000000000005,5.4,3.0,-5.6,16
734,12384.0,0.0,-0.2,-0.7000000000000001,-0.30000000000000004,6.1000000000000005,7.0,5.4,3.0,-5.6,16
735,12401.0,0.1,-0.1,-0.8,-0.30000000000000004,6.1000000000000005,6.9,2.9,0.1,-6.2,16
736,12417.0,0.1,-0.1,-0.8,-0.6000000000000001,6.0,7.2,0.0,-2.9,-8.3,16
737,12436.0,-0.2,-0.2,-0.6000000000000001,-0.7000000000000001,6.0,7.4,-2.1,-5.300000000000001,-10.1,16
738,12451.0,-0.30000000000000004,-0.2,-0.2,-0.7000000000000001,6.0,7.800000000000001,-1.7,-7.9,-8.5,16
739,12469.0,-0.2,-0.2,0.1,-0.4,6.0,7.9,1.7,-10.200000000000001,-5.6,16
740,12484.0,0.0,-0.2,0.1,-0.30000000000000004,6.1000000000000005,7.6000000000000005,8.100000000000001,-16.3,-3.3000000000000007,16
741,12503.0,0.0,-0.1,-0.2,-0.2,6.2,7.5,10.700000000000001,-22.700000000000003,-4.4,16
742,12517.0,0.1,-0.1,-0.2,-0.1,6.2,7.6000000000000005,10.0,-26.700000000000003,-4.300000000000001,16
743,12542.0,0.5,-0.2,0.2,0.30000000000000004,6.1000000000000005,7.9,7.9,-26.6,-3.3000000000000007,16
744,12551.0,0.5,-0.2,0.2,0.4,6.1000000000000005,8.1,6.600000000000001,-23.900000000000006,-3.4,16
745,12570.0,0.6000000000000001,-0.30000000000000004,0.4,0.4,6.1000000000000005,8.1,7.1000000000000005,-17.6,-5.0,16
746,12583.0,0.5,-0.30000000000000004,0.4,0.4,6.1000000000000005,7.9,9.4,-11.2,-7.1000000000000005,16
747,12600.0,0.5,-0.1,0.0,0.30000000000000004,6.300000000000001,7.5,10.200000000000001,-6.9,-9.700000000000001,16
748,12627.0,0.6000000000000001,-0.1,-0.2,0.4,6.300000000000001,7.5,6.300000000000001,-6.300000000000001,-15.000000000000002,16
749,12634.0,0.6000000000000001,-0.1,-0.2,0.4,6.300000000000001,7.5,6.300000000000001,-6.300000000000001,-15.000000000000002,16
750,12654.0,0.5,-0.1,0.1,0.4,6.1000000000000005,8.0,5.6,-10.600000000000001,-19.9,16
751,12667.0,0.6000000000000001,-0.30000000000000004,0.30000000000000004,0.5,6.1000000000000005,8.1,9.700000000000001,-15.6,-25.6,16
752,12686.0,0.7000000000000001,-0.4,0.5,0.7000000000000001,6.2,8.1,16.5,-22.4,-33.1,16
753,12701.0,0.9,-0.30000000000000004,0.6000000000000001,0.8,6.1000000000000005,8.0,24.400000000000002,-31.6,-42.2,16
754,12719.0,1.0,-0.5,0.4,0.6000000000000001,5.9,7.6000000000000005,32.400000000000006,-40.9,-53.300000000000004,16
755,12736.0,0.7000000000000001,-0.7000000000000001,0.1,0.1,6.2,7.2,37.400000000000006,-50.900000000000006,-63.8,16
756,12752.0,0.30000000000000004,-0.5,-0.1,-0.2,6.4,7.1000000000000005,38.7,-55.400000000000006,-68.9,16
757,12767.0,-0.4,-0.30000000000000004,0.0,-1.8,6.7,7.6000000000000005,38.800000000000004,-48.10000000000001,-66.0,16
758,12785.0,-1.9000000000000001,-0.1,0.5,-1.8,7.0,7.1000000000000005,43.800000000000004,-27.700000000000003,-44.2,16
759,12801.0,-1.3,-0.1,0.0,-0.8,6.800000000000001,6.6000000000000005,53.0,10.1,-0.9000000000000001,16
760,12817.0,0.30000000000000004,-0.5,-1.0,0.7000000000000001,6.5,5.300000000000001,47.5,37.300000000000004,25.0,16
761,12834.0,1.3,-0.5,-1.6,1.2000000000000002,6.9,5.5,33.400000000000006,49.0,25.900000000000002,16
762,12850.0,0.7000000000000001,0.0,-1.1,0.1,7.300000000000001,5.7,9.899999999999999,35.0,-7.0,16
763,12867.0,0.7000000000000001,0.0,-1.1,-0.5,7.5,5.800000000000001,9.899999999999999,35.0,-7.0,16
764,12884.0,0.0,0.2,-1.0,-0.7000000000000001,7.300000000000001,5.7,2.6,26.400000000000006,-12.200000000000001,16
765,12901.0,0.1,0.0,-1.0,-0.5,7.2,5.800000000000001,-1.0,29.200000000000003,-8.700000000000001,16
766,12922.0,0.6000000000000001,0.1,-1.0,-0.30000000000000004,7.300000000000001,5.7,-7.300000000000001,13.6,-13.3,16
767,12933.0,0.6000000000000001,0.1,-1.0,-0.6000000000000001,7.4,5.4,-7.300000000000001,13.6,-13.3,16
768,12950.0,0.4,0.4,-1.4000000000000001,-0.5,7.5,5.5,-26.9,-6.0,-25.6,16
769,12967.0,0.4,0.4,-1.4000000000000001,-0.2,7.2,5.6000000000000005,-26.9,-6.0,-25.6,16
770,12983.0,0.8,0.1,-1.3,-0.1,7.1000000000000005,6.2,-35.0,5.4,-27.6,16
771,13002.0,0.9,0.1,-0.7000000000000001,-0.30000000000000004,6.800000000000001,6.7,-38.300000000000004,14.700000000000001,-32.400000000000006,16
772,13017.0,0.8,0.0,-0.4,-0.4,6.800000000000001,6.800000000000001,-34.2,20.2,-38.800000000000004,16
773,13034.0,0.4,0.0,-0.4,-1.5,6.800000000000001,6.7,-27.400000000000002,11.8,-45.6,16
774,13051.0,-0.1,0.1,-0.5,-1.5,6.7,6.5,-23.700000000000003,-5.0,-51.70000000000001,16
775,13067.0,-0.1,0.0,-0.7000000000000001,-1.7000000000000002,6.5,6.5,-23.5,-25.1,-53.7,16
776,13084.0,-0.6000000000000001,-0.1,-0.6000000000000001,-2.3000000000000003,6.7,7.1000000000000005,-26.6,-30.5,-51.9,16
777,13100.0,-0.8,0.30000000000000004,0.0,-1.5,6.9,8.4,-30.4,-39.50000000000001,-44.2,16
778,13122.0,0.7000000000000001,0.7000000000000001,2.1,-0.5,7.0,9.700000000000001,-21.200000000000003,-84.2,-36.5,16
779,13134.0,0.7000000000000001,0.7000000000000001,2.1,-0.1,7.0,9.9,-21.200000000000003,-84.2,-36.5,16
780,13150.0,1.2000000000000002,0.5,2.2,1.4000000000000001,5.1000000000000005,9.8,-9.3,-107.30000000000001,-42.2,16
781,13168.0,0.1,0.9,1.4000000000000001,1.9000000000000001,5.1000000000000005,9.4,-2.5,-124.0,-54.50000000000001,16
782,13184.0,0.1,0.9,1.4000000000000001,-2.0,7.6000000000000005,9.700000000000001,-4.5,-144.20000000000002,-76.60000000000001,16
783,13200.0,-0.9,1.0,1.6,-0.6000000000000001,6.6000000000000005,8.3,1.5,-118.3,-66.9,16
784,13217.0,-0.1,0.30000000000000004,0.5,-0.6000000000000001,6.5,7.800000000000001,4.300000000000001,-95.9,-49.0,16
785,13237.0,-0.30000000000000004,-0.1,-0.9,-0.5,6.1000000000000005,6.7,-6.600000000000001,-65.10000000000001,-28.800000000000004,16
786,13251.0,-0.30000000000000004,-0.1,-0.9,-0.30000000000000004,6.1000000000000005,6.6000000000000005,-6.600000000000001,-65.10000000000001,-28.800000000000004,16
787,13268.0,0.0,0.1,-1.1,-0.30000000000000004,6.6000000000000005,7.0,-16.1,-62.0,-23.3,16
788,13284.0,-0.2,0.5,-0.8,-0.6000000000000001,6.6000000000000005,7.4,-19.200000000000003,-53.0,-24.8,16
789,13303.0,-0.4,0.4,-0.30000000000000004,-0.30000000000000004,6.6000000000000005,7.1000000000000005,-14.300000000000002,-47.2,-24.3,16
790,13319.0,-0.30000000000000004,0.5,-0.9,-0.2,6.800000000000001,6.5,-7.9,-52.80000000000001,-22.2,16
791,13333.0,-0.30000000000000004,0.7000000000000001,-1.3,-0.1,6.7,6.4,-8.100000000000001,-59.9,-20.8,16
792,13351.0,-0.4,0.6000000000000001,-1.5,-0.1,6.7,6.4,-10.0,-56.800000000000004,-20.3,16
793,13367.0,-0.30000000000000004,0.7000000000000001,-1.5,0.30000000000000004,6.6000000000000005,6.1000000000000005,-13.8,-51.9,-20.1,16
794,13383.0,-0.1,0.6000000000000001,-1.8,0.1,6.5,6.0,-27.800000000000004,-22.2,-22.8,16
795,13400.0,-0.6000000000000001,0.5,-2.0,-0.5,6.800000000000001,6.4,-27.800000000000004,-22.2,-22.8,16
796,13417.0,-0.8,1.0,-1.0,0.0,6.6000000000000005,8.200000000000001,-36.6,-7.0,-20.2,16
797,13434.0,-0.1,0.7000000000000001,0.30000000000000004,0.7000000000000001,6.300000000000001,8.700000000000001,-35.9,8.3,-19.6,16
798,13450.0,0.8,0.5,0.8,1.8,5.800000000000001,8.5,-24.400000000000002,18.5,-25.8,16
799,13467.0,2.7,-0.5,-0.30000000000000004,2.6,4.800000000000001,6.2,-10.0,38.7,-40.7,16
800,13486.0,-1.2000000000000002,0.6000000000000001,-0.8,-2.0,6.300000000000001,7.300000000000001,-14.300000000000002,142.50000000000003,-75.9,16
801,13501.0,-1.2000000000000002,0.6000000000000001,-0.8,-8.0,8.4,10.5,-14.300000000000002,142.50000000000003,-75.9,16
802,13518.0,-5.800000000000001,2.1,1.6,0.5,4.6000000000000005,9.700000000000001,-31.2,81.4,-42.0,16
803,13535.0,1.7000000000000002,-0.9,1.9000000000000001,-0.5,6.2,10.200000000000001,-31.7,13.900000000000002,-12.0,16
804,13551.0,0.5,0.8,2.0,-1.5,6.800000000000001,10.5,-19.700000000000003,-13.5,-24.3,16
805,13567.0,-1.2000000000000002,1.3,2.8000000000000003,-2.8000000000000003,6.6000000000000005,10.9,-6.4,0.0,-28.0,16
806,13584.0,-1.6,1.2000000000000002,2.4000000000000004,-2.0,7.0,9.700000000000001,14.900000000000002,-7.8,-21.400000000000002,16
807,13603.0,-1.0,1.9000000000000001,1.6,-2.1,7.5,9.8,33.2,-31.3,-29.0,16
808,13617.0,-1.0,1.9000000000000001,1.6,-2.0,7.300000000000001,9.5,33.2,-31.3,-29.0,16
809,13638.0,-1.0,1.5,1.1,-2.8000000000000003,7.0,8.1,36.1,-31.3,-34.900000000000006,16
810,13651.0,-2.0,1.3,-0.1,-4.1000000000000005,7.2,7.6000000000000005,15.399999999999999,-19.0,-18.4,16
811,13668.0,-3.0,1.2000000000000002,-0.6000000000000001,-2.7,6.4,7.7,15.399999999999999,-19.0,-18.4,16
812,13684.0,-1.2000000000000002,0.4,0.0,-1.4000000000000001,6.0,9.0,-1.7,-11.4,-3.1,16
813,13701.0,-0.4,0.2,1.0,-1.2000000000000002,5.9,9.600000000000001,-12.0,-1.0,1.1,16
814,13722.0,0.0,-0.5,1.4000000000000001,-1.2000000000000002,5.0,9.4,-9.2,10.5,-7.699999999999999,16
815,13734.0,0.0,-0.5,1.4000000000000001,-1.5,4.7,9.3,-9.2,10.5,-7.699999999999999,16
816,13753.0,-0.6000000000000001,-1.5,1.0,-1.8,4.2,9.1,-4.9,13.6,-6.500000000000001,16
817,13768.0,-0.6000000000000001,-1.5,1.0,-1.9000000000000001,3.9000000000000004,9.0,-4.9,13.6,-6.500000000000001,16
818,13783.0,-0.7000000000000001,-1.9000000000000001,0.7000000000000001,-1.9000000000000001,3.6,8.700000000000001,0.9000000000000001,13.900000000000002,-0.8,16
819,13800.0,-0.6000000000000001,-2.1,0.5,-1.1,3.3000000000000003,8.700000000000001,9.5,9.4,5.9,16
820,13817.0,0.2,-2.4000000000000004,0.6000000000000001,-1.1,3.4000000000000004,8.6,21.300000000000004,1.2000000000000002,12.200000000000001,16
821,13834.0,0.2,-2.4000000000000004,0.0,-0.9,3.6,7.4,34.800000000000004,-12.600000000000001,14.200000000000001,16
822,13855.0,0.2,-2.1,-0.6000000000000001,-0.8,4.1000000000000005,7.0,42.400000000000006,-24.400000000000002,15.8,16
823,13867.0,0.2,-1.8,-0.9,-0.6000000000000001,4.2,6.9,44.5,-30.699999999999996,16.5,16
824,13884.0,0.30000000000000004,-1.7000000000000002,-0.9,-0.4,4.4,6.7,43.50000000000001,-36.2,15.2,16
825,13900.0,0.4,-1.9000000000000001,-1.1,-0.2,4.3,6.6000000000000005,40.300000000000004,-40.800000000000004,13.8,16
826,13917.0,0.2,-1.6,-1.1,-0.7000000000000001,5.2,6.7,32.8,-55.5,13.3,16
827,13934.0,-0.1,-0.8,-1.0,0.0,5.7,6.800000000000001,25.0,-66.5,15.000000000000002,16
828,13950.0,0.5,-0.6000000000000001,-0.8,0.30000000000000004,6.2,7.4,18.6,-64.4,13.8,16
829,13970.0,0.4,-0.1,-0.2,0.4,6.300000000000001,7.7,13.100000000000001,-58.7,6.300000000000001,16
830,13984.0,0.4,-0.1,0.1,0.4,6.1000000000000005,7.800000000000001,10.4,-44.2,-1.4,16
831,14001.0,0.2,-0.30000000000000004,0.1,0.0,6.1000000000000005,7.6000000000000005,7.300000000000001,-27.700000000000003,-6.300000000000001,16
832,14017.0,-0.30000000000000004,-0.4,-0.5,-0.2,6.0,7.1000000000000005,-1.5,5.6,-2.8,16
833,14038.0,-0.5,-0.5,-0.8,-0.5,5.9,6.7,-4.1,22.000000000000004,3.7000000000000006,16
834,14050.0,-0.5,-0.5,-0.8,-0.6000000000000001,5.9,6.5,-4.1,22.000000000000004,3.7000000000000006,16
835,14071.0,-0.4,-0.6000000000000001,-1.1,-0.1,5.7,6.6000000000000005,-3.5,35.8,11.3,16
836,14084.0,0.1,-0.7000000000000001,-1.0,0.1,5.800000000000001,6.5,-0.1,41.0,17.1,16
837,14103.0,0.5,-0.5,-1.3,0.5,6.0,5.800000000000001,7.500000000000001,40.2,19.400000000000002,16
838,14117.0,0.6000000000000001,-0.4,-1.9000000000000001,0.0,6.2,5.300000000000001,11.700000000000001,29.200000000000003,15.899999999999999,16
839,14134.0,0.30000000000000004,-0.30000000000000004,-2.2,0.0,6.2,5.2,13.200000000000003,10.4,11.6,16
840,14150.0,0.2,-0.2,-2.3000000000000003,-0.1,6.6000000000000005,5.4,12.8,-3.8,9.2,16
841,14167.0,0.1,0.1,-1.9000000000000001,0.1,6.7,5.800000000000001,11.000000000000002,-12.600000000000001,9.2,16
842,14184.0,0.2,0.1,-1.6,0.30000000000000004,6.7,5.800000000000001,9.5,-22.700000000000003,10.1,16
843,14201.0,0.5,0.2,-1.7000000000000002,0.8,6.7,5.800000000000001,6.2,-30.9,8.5,16
844,14221.0,0.7000000000000001,0.2,-1.4000000000000001,0.30000000000000004,6.800000000000001,6.6000000000000005,0.6000000000000001,-21.7,4.9,16
845,14234.0,0.2,0.30000000000000004,-0.8,0.0,7.0,6.7,-4.0,-6.0,1.5,16
846,14251.0,-0.1,0.4,-0.7000000000000001,0.0,7.0,6.800000000000001,-8.4,2.9,2.4000000000000004,16
847,14268.0,-0.1,0.6000000000000001,-0.5,0.1,7.2,7.4,-14.700000000000001,7.9,3.4,16
848,14287.0,-0.1,1.1,0.7000000000000001,0.0,7.5,8.3,-21.400000000000002,13.399999999999999,1.5,16
849,14301.0,-0.1,1.1,0.7000000000000001,-0.2,7.6000000000000005,8.700000000000001,-21.400000000000002,13.399999999999999,1.5,16
850,14319.0,-0.2,1.2000000000000002,1.5,-0.30000000000000004,7.6000000000000005,9.600000000000001,-18.5,8.899999999999999,0.30000000000000004,16
851,14335.0,-0.30000000000000004,1.2000000000000002,2.1,-0.5,7.5,9.9,-12.100000000000001,-0.5,0.0,16
852,14351.0,-0.5,1.2000000000000002,2.3000000000000003,-0.5,7.5,10.0,-3.9,-11.2,2.0,16
853,14370.0,-0.4,1.1,2.3000000000000003,0.0,7.300000000000001,9.600000000000001,4.6,-20.2,6.500000000000001,16
854,14384.0,-0.2,1.0,1.9000000000000001,-0.1,7.300000000000001,8.9,12.200000000000001,-21.400000000000002,9.899999999999999,16
855,14400.0,-0.30000000000000004,0.9,1.3,-0.1,7.2,8.5,16.6,-16.6,12.200000000000001,16
856,14417.0,-0.30000000000000004,0.6000000000000001,0.6000000000000001,-0.30000000000000004,7.4,7.7,18.4,-5.500000000000001,16.200000000000003,16
857,14433.0,-0.9,1.1,0.1,-1.0,8.0,8.0,14.600000000000001,5.6,19.700000000000003,16
858,14451.0,-1.2000000000000002,1.5,0.6000000000000001,-0.6000000000000001,7.9,8.6,9.600000000000001,13.5,30.699999999999996,16
859,14467.0,-0.6000000000000001,1.2000000000000002,1.8,0.1,7.5,10.0,7.699999999999999,5.7,41.800000000000004,16
860,14484.0,-0.30000000000000004,0.8,2.7,0.30000000000000004,7.300000000000001,10.200000000000001,14.400000000000002,-1.4,46.6,16
861,14501.0,0.0,0.6000000000000001,2.2,0.5,7.300000000000001,10.0,24.599999999999998,-5.300000000000001,50.60000000000001,16
862,14519.0,0.0,0.6000000000000001,2.2,1.0,7.1000000000000005,9.0,30.9,-6.8,54.6,16
863,14534.0,0.30000000000000004,0.2,1.3,1.5,6.6000000000000005,8.0,29.600000000000005,-8.2,56.0,16
864,14550.0,1.0,-0.7000000000000001,0.8,2.1,6.0,8.1,13.399999999999999,-10.200000000000001,50.1,16
865,14567.0,1.0,-0.7000000000000001,0.8,2.3000000000000003,5.7,8.3,13.399999999999999,-10.200000000000001,50.1,16
866,14584.0,1.0,-1.4000000000000001,0.9,1.7000000000000002,5.0,7.300000000000001,15.000000000000002,11.3,43.900000000000006,16
867,14602.0,0.0,-2.1,-1.6,1.2000000000000002,4.800000000000001,5.6000000000000005,24.599999999999998,55.2,40.1,16
868,14617.0,0.0,-2.1,-1.6,0.8,4.800000000000001,4.9,24.599999999999998,55.2,40.1,16
869,14635.0,-0.5,-2.0,-2.6,0.1,5.1000000000000005,4.4,16.5,63.500000000000014,39.0,16
870,14650.0,-0.9,-1.7000000000000002,-2.6,0.0,5.300000000000001,5.1000000000000005,4.7,61.599999999999994,38.7,16
871,14667.0,-1.0,-1.6,-2.1,0.0,5.300000000000001,5.4,-6.600000000000001,50.2,37.400000000000006,16
872,14684.0,-0.9,-1.4000000000000001,-1.6,0.1,5.4,6.1000000000000005,-13.399999999999999,36.0,34.0,16
873,14700.0,-0.8,-1.3,-0.9,0.5,5.6000000000000005,7.2,-17.799999999999997,17.7,30.000000000000004,16
874,14717.0,-0.5,-1.1,0.0,0.8,5.6000000000000005,7.800000000000001,-19.300000000000004,-5.9,25.1,16
875,14733.0,-0.1,-1.0,0.9,1.1,5.5,8.3,-14.300000000000002,-23.700000000000003,17.5,16
876,14750.0,-0.1,-1.2000000000000002,0.9,0.8,5.5,7.800000000000001,-5.8,-25.6,10.1,16
877,14767.0,-0.5,-1.1,0.4,0.7000000000000001,5.6000000000000005,7.5,-2.7,-22.4,7.1000000000000005,16
878,14784.0,-0.6000000000000001,-1.0,0.1,0.9,5.7,7.4,-5.9,-14.300000000000002,10.8,16
879,14802.0,-0.30000000000000004,-0.8,0.1,1.4000000000000001,6.0,7.6000000000000005,-9.899999999999999,3.2,16.6,16
880,14817.0,0.0,-0.4,0.30000000000000004,1.3,6.300000000000001,7.6000000000000005,-11.4,22.6,19.0,16
881,14834.0,0.1,0.0,0.1,1.5,6.7,7.300000000000001,-11.5,30.9,17.200000000000003,16
882,14850.0,0.30000000000000004,0.30000000000000004,-0.2,1.3,6.9,7.4,-12.299999999999999,36.2,12.100000000000001,16
883,14867.0,-0.1,0.6000000000000001,0.0,0.9,7.1000000000000005,7.5,-7.699999999999999,54.6,3.7000000000000006,16
884,14888.0,-0.5,0.8,-0.5,0.2,7.300000000000001,6.9,-3.1,67.8,2.9,16
885,14901.0,-0.5,0.8,-0.5,0.2,7.300000000000001,6.9,-3.1,67.8,2.9,16
886,14917.0,-0.8,1.1,-1.0,-0.5,7.800000000000001,6.300000000000001,-2.4000000000000004,81.10000000000001,5.7,16
887,14933.0,-1.0,1.4000000000000001,-1.2000000000000002,-0.6000000000000001,8.0,6.6000000000000005,-6.500000000000001,86.7,10.5,16
888,14952.0,-0.9,1.7000000000000002,-0.7000000000000001,-0.6000000000000001,8.3,7.5,-10.700000000000001,81.0,14.600000000000001,16
889,14967.0,-0.9,2.0,0.2,-0.8,8.3,9.0,-10.600000000000001,67.60000000000001,15.5,16
890,14984.0,-1.0,2.0,1.4000000000000001,-0.7000000000000001,8.3,9.700000000000001,-4.6,50.60000000000001,17.200000000000003,16
891,15001.0,-0.7000000000000001,1.9000000000000001,2.3000000000000003,-0.6000000000000001,8.1,9.9,8.5,29.800000000000004,17.9,16
892,15017.0,-0.8,1.5,2.3000000000000003,-0.5,7.4,9.4,24.599999999999998,8.899999999999999,17.5,16
893,15034.0,-0.4,0.7000000000000001,1.1,-0.1,7.300000000000001,8.6,39.50000000000001,-5.4,27.700000000000003,16
894,15052.0,-0.4,0.7000000000000001,1.1,0.1,7.300000000000001,8.3,39.50000000000001,-5.4,27.700000000000003,16
895,15067.0,-0.1,0.6000000000000001,0.8,0.6000000000000001,7.300000000000001,7.800000000000001,36.7,-5.2,32.5,16
896,15085.0,0.9,0.5,-0.4,1.3,7.300000000000001,6.800000000000001,23.700000000000003,6.9,34.400000000000006,16
897,15100.0,0.9,0.5,-0.4,1.3,7.300000000000001,6.300000000000001,23.700000000000003,6.9,34.400000000000006,16
898,15117.0,0.7000000000000001,0.5,-1.2000000000000002,0.8,7.5,6.0,9.0,18.6,28.700000000000003,16
899,15133.0,0.4,0.7000000000000001,0.0,0.9,7.5,7.4,-25.900000000000002,15.5,28.700000000000003,16
900,15150.0,0.4,0.7000000000000001,0.0,1.4000000000000001,7.300000000000001,8.3,-25.900000000000002,15.5,28.700000000000003,16
901,15167.0,1.1,0.6000000000000001,1.5,2.3000000000000003,7.1000000000000005,9.700000000000001,-28.200000000000003,1.0,29.800000000000004,16
902,15186.0,1.7000000000000002,0.4,2.4000000000000004,2.8000000000000003,6.7,10.0,-20.599999999999998,-15.299999999999999,26.300000000000004,16
903,15200.0,2.0,0.1,2.5,2.9000000000000004,6.5,9.600000000000001,-7.200000000000001,-27.2,19.6,16
904,15217.0,2.0,-0.30000000000000004,1.7000000000000002,2.9000000000000004,6.1000000000000005,8.4,4.0,-27.800000000000004,13.700000000000001,16
905,15233.0,1.9000000000000001,-0.6000000000000001,0.7000000000000001,2.6,5.7,7.2,9.3,-22.8,8.4,16
906,15250.0,1.6,-1.0,-0.30000000000000004,2.5,5.4,6.7,8.700000000000001,-17.400000000000002,2.2,16
907,15267.0,1.5,-1.4000000000000001,-0.8,2.5,5.0,6.6000000000000005,3.6000000000000005,-13.399999999999999,-4.7,16
908,15284.0,1.4000000000000001,-1.7000000000000002,-0.8,2.1,4.800000000000001,6.6000000000000005,-0.7,-13.8,-14.200000000000001,16
909,15300.0,1.1,-1.9000000000000001,-0.8,1.9000000000000001,4.7,6.5,-1.5,-20.1,-24.400000000000002,16
910,15318.0,0.6000000000000001,-2.0,-0.9,1.3,4.6000000000000005,6.300000000000001,-0.7,-28.0,-32.1,16
911,15334.0,0.2,-2.0,-1.2000000000000002,1.0,4.7,5.800000000000001,-1.4,-36.2,-36.1,16
912,15351.0,-0.1,-1.9000000000000001,-1.5,1.0,4.800000000000001,5.800000000000001,-12.299999999999999,-50.8,-39.400000000000006,16
913,15367.0,-0.1,-1.8,-1.5,0.9,4.9,5.9,-12.299999999999999,-50.8,-39.400000000000006,16
914,15384.0,-0.30000000000000004,-1.7000000000000002,-1.4000000000000001,0.6000000000000001,4.7,6.1000000000000005,-20.5,-53.10000000000001,-40.1,16
915,15400.0,-0.7000000000000001,-1.7000000000000002,-1.3,0.4,4.7,6.2,-37.400000000000006,-41.800000000000004,-34.900000000000006,16
916,15417.0,-0.7000000000000001,-1.7000000000000002,-1.3,0.5,4.7,6.5,-37.400000000000006,-41.800000000000004,-34.900000000000006,16
917,15433.0,-0.6000000000000001,-1.7000000000000002,-0.9,0.5,4.800000000000001,6.300000000000001,-44.300000000000004,-31.6,-32.400000000000006,16
918,15450.0,-0.7000000000000001,-1.4000000000000001,-1.4000000000000001,0.4,5.0,5.9,-48.300000000000004,-15.899999999999999,-30.599999999999998,16
919,15469.0,-0.6000000000000001,-1.1,-1.8,0.2,5.2,6.2,-56.6,-0.2,-29.400000000000002,16
920,15484.0,-1.0,-0.6000000000000001,-1.3,-0.30000000000000004,5.5,7.1000000000000005,-63.2,19.300000000000004,-29.0,16
921,15512.0,-1.3,-0.5,-0.2,-0.9,5.4,7.9,-55.900000000000006,34.400000000000006,-26.799999999999997,16
922,15517.0,-1.3,-0.5,-0.2,-0.9,5.4,7.9,-55.900000000000006,34.400000000000006,-26.799999999999997,16
923,15533.0,-1.5,-0.2,-0.2,-1.1,5.4,7.800000000000001,-44.00000000000001,34.0,-21.300000000000004,16
924,15553.0,-1.6,-0.1,-0.4,-0.9,5.5,7.9,-33.300000000000004,27.6,-13.6,16
925,15567.0,-1.0,0.4,-0.5,-0.6000000000000001,5.9,7.7,-16.700000000000003,20.7,-0.1,16
926,15583.0,-1.0,0.4,-0.5,-0.7000000000000001,6.2,7.6000000000000005,-16.700000000000003,20.7,-0.1,16
927,15601.0,-1.1,0.9,-0.6000000000000001,-1.1,6.6000000000000005,7.5,-12.200000000000001,24.900000000000002,2.9,16
928,15617.0,-1.9000000000000001,1.4000000000000001,-0.5,-1.8,6.800000000000001,7.800000000000001,-11.5,33.50000000000001,11.1,16
929,15634.0,-1.9000000000000001,1.4000000000000001,-0.5,-2.0,6.9,8.0,-11.5,33.50000000000001,11.1,16
930,15651.0,-2.2,1.5,-0.2,-2.0,6.800000000000001,8.9,-14.400000000000002,32.300000000000004,18.700000000000003,16
931,15670.0,-1.5,1.1,2.7,-1.4000000000000001,6.300000000000001,11.100000000000001,-16.4,19.1,34.900000000000006,16
932,15684.0,-1.5,1.1,2.7,-1.2000000000000002,6.1000000000000005,11.8,-16.4,19.1,34.900000000000006,16
933,15703.0,-1.4000000000000001,0.7000000000000001,3.7,-1.5,5.9,12.4,-7.0,13.100000000000001,41.199999999999996,16
934,15717.0,-1.7000000000000002,0.6000000000000001,3.9000000000000004,-1.6,5.800000000000001,11.9,2.7,10.299999999999999,49.1,16
935,15734.0,-1.8,0.5,3.4000000000000004,-1.6,5.800000000000001,11.4,9.899999999999999,17.6,58.3,16
936,15750.0,-2.0,0.5,2.9000000000000004,-1.8,5.800000000000001,11.4,7.500000000000001,26.5,67.60000000000001,16
937,15767.0,-2.0,0.5,3.0,-1.1,5.7,11.700000000000001,1.4,27.700000000000003,77.5,16
938,15783.0,-1.4000000000000001,0.4,3.3000000000000003,-0.5,5.4,11.8,-1.6,20.599999999999998,85.30000000000001,16
939,15801.0,-0.6000000000000001,-0.1,3.1,0.30000000000000004,4.800000000000001,11.100000000000001,0.5,11.5,88.10000000000001,16
940,15819.0,-0.2,-0.7000000000000001,2.4000000000000004,0.7000000000000001,4.0,9.8,4.9,8.0,87.2,16
941,15833.0,0.0,-1.3,1.3,0.8,3.7,9.1,7.6,12.9,85.80000000000001,16
942,15853.0,0.0,-1.8,0.0,0.7000000000000001,3.3000000000000003,7.5,8.4,30.3,84.6,16
943,15867.0,-0.1,-1.9000000000000001,-1.4000000000000001,0.5,3.4000000000000004,5.9,5.7,53.8,83.70000000000002,16
944,15884.0,-0.2,-1.8,-2.7,0.4,3.4000000000000004,5.5,-2.1,70.7,80.8,16
945,15900.0,-0.5,-1.6,-3.1,-0.30000000000000004,3.7,5.300000000000001,-13.200000000000003,74.7,76.3,16
946,15918.0,-0.9,-1.4000000000000001,-3.3000000000000003,-0.4,4.0,5.5,-22.5,68.3,72.80000000000001,16
947,15942.0,-0.8,-0.8,-2.4000000000000004,-0.2,4.1000000000000005,6.2,-34.2,28.500000000000004,63.500000000000014,16
948,15952.0,-0.8,-0.8,-2.4000000000000004,0.0,4.1000000000000005,6.7,-34.2,28.500000000000004,63.500000000000014,16
949,15971.0,-0.6000000000000001,-0.8,-1.5,0.1,3.9000000000000004,7.800000000000001,-35.3,1.4,55.7,16
950,15984.0,-0.6000000000000001,-0.9,-0.8,0.30000000000000004,3.7,8.700000000000001,-32.5,-15.000000000000002,50.60000000000001,16
951,16000.0,-0.6000000000000001,-0.9,0.0,0.5,3.6,9.200000000000001,-27.700000000000003,-20.5,49.4,16
952,16017.0,-0.30000000000000004,-1.0,0.6000000000000001,0.9,3.7,9.200000000000001,-18.3,-12.0,50.400000000000006,16
953,16035.0,-0.1,-0.7000000000000001,0.4,1.2000000000000002,4.0,8.6,-8.700000000000001,-0.6000000000000001,50.400000000000006,16
954,16050.0,0.2,-0.4,-0.2,1.3,4.3,8.200000000000001,-3.4,8.4,49.199999999999996,16
955,16068.0,0.30000000000000004,0.0,-0.7000000000000001,1.5,4.7,7.9,-3.3000000000000007,16.5,45.7,16
956,16084.0,0.4,0.30000000000000004,-0.9,1.5,5.1000000000000005,7.800000000000001,-5.1000000000000005,24.7,41.300000000000004,16
957,16100.0,0.4,0.7000000000000001,-1.0,1.4000000000000001,5.300000000000001,7.800000000000001,-6.8,30.1,35.0,16
958,16119.0,0.5,1.0,-0.9,1.5,5.7,8.0,-8.600000000000001,33.7,28.800000000000004,16
959,16133.0,0.5,1.4000000000000001,-0.8,1.1,6.0,7.9,-8.2,35.699999999999996,23.099999999999998,16
960,16152.0,-0.1,1.8,-0.7000000000000001,0.7000000000000001,6.2,8.200000000000001,-6.699999999999999,27.6,13.900000000000002,16
961,16168.0,-0.1,1.8,-0.7000000000000001,0.6000000000000001,6.2,8.4,-6.699999999999999,27.6,13.900000000000002,16
962,16188.0,-0.2,1.9000000000000001,-0.30000000000000004,0.6000000000000001,6.4,9.0,-6.0,13.399999999999999,13.100000000000001,16
963,16200.0,-0.2,2.0,0.30000000000000004,0.8,6.300000000000001,9.5,-0.8,-20.7,13.399999999999999,16
964,16219.0,0.30000000000000004,1.8,1.7000000000000002,1.4000000000000001,6.2,10.600000000000001,5.8,-35.3,12.200000000000001,16
965,16234.0,0.30000000000000004,1.8,1.7000000000000002,1.4000000000000001,6.1000000000000005,10.600000000000001,5.8,-35.3,12.200000000000001,16
966,16254.0,0.30000000000000004,1.7000000000000002,1.8,1.5,6.0,10.700000000000001,10.1,-45.3,9.8,16
967,16267.0,0.2,1.5,1.9000000000000001,1.7000000000000002,5.9,10.8,11.1,-45.6,8.700000000000001,16
968,16284.0,0.5,1.4000000000000001,2.2,2.0,5.7,11.200000000000001,11.2,-39.50000000000001,8.100000000000001,16
969,16300.0,0.5,1.1,2.5,1.8,5.4,11.200000000000001,13.000000000000002,-31.099999999999998,5.7,16
970,16317.0,0.30000000000000004,0.9,2.4000000000000004,1.7000000000000002,5.4,10.9,15.899999999999999,-21.8,4.5,16
971,16333.0,0.2,0.8,1.8,1.8,5.300000000000001,10.100000000000001,16.3,-11.8,5.9,16
972,16351.0,0.30000000000000004,0.6000000000000001,1.3,1.9000000000000001,5.2,9.8,11.700000000000001,-4.0,5.500000000000001,16
973,16367.0,0.30000000000000004,0.6000000000000001,1.1,1.7000000000000002,5.2,9.600000000000001,5.4,1.9,1.2000000000000002,16
974,16385.0,-0.1,0.4,0.7000000000000001,1.1,4.800000000000001,9.3,-1.4,8.600000000000001,-6.300000000000001,16
975,16400.0,-0.4,0.0,0.6000000000000001,0.8,4.2,9.8,-10.200000000000001,9.2,-12.299999999999999,16
976,16417.0,-0.7000000000000001,-0.4,1.1,0.6000000000000001,3.9000000000000004,10.0,-16.1,6.699999999999999,-15.899999999999999,16
977,16434.0,-1.0,-0.8,1.3,0.2,3.5,10.3,-15.700000000000001,7.0,-16.900000000000002,16
978,16453.0,-1.2000000000000002,-1.1,1.5,0.30000000000000004,3.3000000000000003,10.3,-10.299999999999999,10.200000000000001,-12.299999999999999,16
979,16467.0,-0.5,-1.1,1.2000000000000002,0.8,3.5,10.0,9.100000000000001,13.700000000000001,0.2,16
980,16484.0,-0.5,-1.1,1.2000000000000002,1.0,3.4000000000000004,9.700000000000001,9.100000000000001,13.700000000000001,0.2,16
981,16501.0,-0.2,-1.1,0.6000000000000001,1.2000000000000002,3.5,8.8,17.5,11.4,1.7,16
982,16519.0,-0.2,-1.3,-0.4,1.0,3.3000000000000003,8.3,20.599999999999998,5.1000000000000005,-0.7,16
983,16533.0,-0.2,-1.3,-0.4,1.0,3.2,8.200000000000001,20.599999999999998,5.1000000000000005,-0.7,16
984,16551.0,-0.30000000000000004,-1.5,-0.5,1.0,3.1,8.200000000000001,17.7,4.2,0.4,16
985,16567.0,-0.2,-1.6,-0.5,1.1,3.1,8.200000000000001,14.900000000000002,3.8,1.8000000000000003,16
986,16585.0,0.0,-1.7000000000000002,-0.4,1.2000000000000002,3.1,8.200000000000001,9.3,-5.300000000000001,1.9,16
987,16600.0,0.0,-1.7000000000000002,-0.4,1.3,3.0,8.200000000000001,9.3,-5.300000000000001,1.9,16
988,16621.0,0.1,-1.8,-0.5,1.3,3.0,8.1,8.700000000000001,-5.8,1.5,16
989,16634.0,0.1,-1.8,-0.9,1.4000000000000001,3.0,7.4,9.4,-1.3,2.5,16
990,16655.0,0.2,-1.7000000000000002,-1.7000000000000002,1.3,3.2,6.300000000000001,9.100000000000001,6.9,3.7000000000000006,16
991,16667.0,0.0,-1.5,-2.5,1.2000000000000002,3.6,5.6000000000000005,4.9,20.900000000000002,5.300000000000001,16
992,16684.0,0.0,-1.2000000000000002,-3.1,1.1,4.0,5.300000000000001,-9.600000000000001,41.7,8.100000000000001,16
993,16700.0,0.0,-0.8,-3.4000000000000004,0.9,4.1000000000000005,5.2,-9.600000000000001,41.7,8.100000000000001,16
994,16718.0,-0.1,-0.5,-3.3000000000000003,0.6000000000000001,4.5,5.800000000000001,-15.6,47.400000000000006,6.600000000000001,16
995,16734.0,-0.2,-0.1,-2.9000000000000004,0.6000000000000001,4.7,6.1000000000000005,-19.0,45.400000000000006,5.500000000000001,16
996,16751.0,-0.2,0.2,-2.5,0.30000000000000004,4.800000000000001,6.5,-18.1,37.400000000000006,2.1,16
997,16768.0,-0.5,0.2,-2.0,-0.2,4.800000000000001,7.5,-14.800000000000002,30.1,0.6000000000000001,16
998,16784.0,-1.3,0.6000000000000001,-1.2000000000000002,-0.8,5.2,7.5,0.1,26.200000000000003,11.1,16
999,16802.0,-1.3,0.6000000000000001,-1.2000000000000002,-0.9,5.300000000000001,7.5,0.1,26.200000000000003,11.1,16
1000,16817.0,-1.3,0.9,-1.1,-0.7000000000000001,5.800000000000001,7.800000000000001,2.7,22.8,20.7,16
1001,16834.0,-1.0,1.3,-0.8,-0.2,6.2,8.3,2.4000000000000004,19.200000000000003,28.3,16
1002,16852.0,-0.7000000000000001,1.6,-0.5,-0.2,6.300000000000001,8.5,1.3,19.5,31.5,16
1003,16869.0,-0.8,1.7000000000000002,0.0,-0.5,6.1000000000000005,9.3,-1.1,22.5,32.6,16
1004,16884.0,-0.9,1.4000000000000001,0.8,-0.30000000000000004,5.5,10.4,-2.2,29.1,36.5,16
1005,16901.0,-0.6000000000000001,0.9,1.7000000000000002,-0.1,5.4,10.700000000000001,0.4,39.8,44.10000000000001,16
1006,16922.0,-0.2,0.8,2.6,0.1,5.4,11.3,5.300000000000001,39.2,49.300000000000004,16
1007,16934.0,-0.2,0.8,2.6,-0.1,5.6000000000000005,11.200000000000001,10.299999999999999,29.800000000000004,50.8,16
1008,16950.0,-0.5,0.9,2.4000000000000004,-0.4,5.6000000000000005,10.8,15.8,23.700000000000003,50.8,16
1009,16967.0,-0.8,1.0,1.8,-0.30000000000000004,6.0,10.4,15.899999999999999,28.1,54.699999999999996,16
1010,16987.0,-0.5,1.4000000000000001,1.8,0.2,6.300000000000001,11.200000000000001,8.100000000000001,26.799999999999997,59.300000000000004,16
1011,17000.0,-0.1,1.6,2.5,0.30000000000000004,6.2,11.5,0.8,15.8,56.800000000000004,16
1012,17017.0,-0.1,1.2000000000000002,2.9000000000000004,0.30000000000000004,5.4,11.600000000000001,-2.0,-1.0,47.5,16
1013,17033.0,-0.2,0.4,2.6,0.0,4.4,10.700000000000001,-2.2,-8.4,38.400000000000006,16
1014,17050.0,-0.9,-0.9,0.9,-0.4,3.8000000000000003,9.600000000000001,-7.6,15.399999999999999,35.599999999999994,16
1015,17067.0,-0.9,-0.9,0.9,-0.30000000000000004,3.6,9.0,-7.6,15.399999999999999,35.599999999999994,16
1016,17083.0,-0.7000000000000001,-1.0,-0.2,0.0,3.6,7.9,-8.600000000000001,44.00000000000001,42.2,16
1017,17100.0,-0.5,-0.9,-1.0,-0.4,3.8000000000000003,7.5,-9.0,65.2,45.2,16
1018,17117.0,-0.7000000000000001,-0.8,-1.3,-0.7000000000000001,3.7,7.4,-9.2,71.5,43.6,16
1019,17134.0,-1.1,-0.8,-1.4000000000000001,-1.4000000000000001,3.7,7.4,-8.4,64.7,41.0,16
1020,17150.0,-1.5,-0.9,-1.5,-1.8,3.6,7.7,-9.700000000000001,49.699999999999996,39.0,16
1021,17168.0,-1.9000000000000001,-0.9,-1.1,-1.8,3.5,8.4,-14.200000000000001,29.1,39.699999999999996,16
1022,17184.0,-1.6,-1.0,0.1,-1.1,3.3000000000000003,9.700000000000001,-16.900000000000002,7.0,43.1,16
1023,17200.0,-1.1,-1.1,0.9,-0.30000000000000004,3.3000000000000003,9.8,-10.1,-6.699999999999999,45.3,16
1024,17217.0,-0.5,-1.1,0.8,-0.1,3.3000000000000003,9.5,0.6000000000000001,-9.3,45.0,16
1025,17234.0,-0.2,-1.0,0.2,0.2,3.5,8.6,9.100000000000001,-2.8,42.900000000000006,16
1026,17250.0,-0.1,-0.9,-0.5,0.5,3.6,7.9,12.299999999999999,4.9,40.6,16
1027,17268.0,0.1,-0.9,-1.0,0.5,3.7,7.800000000000001,10.600000000000001,16.4,35.2,16
1028,17283.0,0.30000000000000004,-0.7000000000000001,-1.2000000000000002,0.9,3.9000000000000004,7.7,10.600000000000001,16.4,35.2,16
1029,17300.0,0.6000000000000001,-0.5,-1.2000000000000002,1.0,4.3,7.6000000000000005,11.2,19.799999999999997,31.7,16
1030,17317.0,0.8,0.1,-1.2000000000000002,1.1,4.7,7.5,14.900000000000002,10.4,21.900000000000002,16
1031,17334.0,0.8,0.1,-1.2000000000000002,1.1,4.9,7.4,14.900000000000002,10.4,21.900000000000002,16
1032,17350.0,0.7000000000000001,0.4,-1.3,1.0,5.1000000000000005,7.6000000000000005,15.299999999999999,4.800000000000001,15.399999999999999,16
1033,17366.0,0.6000000000000001,0.5,-1.1,0.6000000000000001,5.2,8.4,13.900000000000002,1.1,9.600000000000001,16
1034,17384.0,0.30000000000000004,0.5,-0.30000000000000004,0.4,5.4,8.700000000000001,14.600000000000001,3.5,6.600000000000001,16
1035,17400.0,0.0,0.9,0.0,0.4,6.1000000000000005,8.6,20.0,11.1,7.699999999999999,16
1036,17417.0,0.2,1.4000000000000001,0.0,1.0,6.5,8.8,23.800000000000004,13.399999999999999,8.700000000000001,16
1037,17438.0,1.0,1.9000000000000001,0.30000000000000004,1.3,6.7,8.8,24.7,3.7000000000000006,-3.4,16
1038,17450.0,1.0,1.9000000000000001,0.30000000000000004,1.1,6.800000000000001,9.200000000000001,24.7,3.7000000000000006,-3.4,16
1039,17480.0,0.2,1.4000000000000001,1.8,0.5,6.300000000000001,10.700000000000001,21.1,-25.7,-19.9,16
1040,17484.0,0.2,1.4000000000000001,1.8,0.5,6.300000000000001,10.700000000000001,21.1,-25.7,-19.9,16
1041,17500.0,0.1,1.1,2.6,0.6000000000000001,6.1000000000000005,11.3,25.8,-37.800000000000004,-20.900000000000002,16
1042,17517.0,0.2,1.0,2.7,1.2000000000000002,6.2,10.4,34.50000000000001,-42.2,-19.5,16
1043,17534.0,1.0,0.9,0.5,1.6,6.300000000000001,8.8,32.5,-28.200000000000003,-24.599999999999998,16
1044,17554.0,0.6000000000000001,1.1,0.1,1.1,6.5,8.5,12.4,-18.200000000000003,-31.7,16
1045,17567.0,0.6000000000000001,1.1,0.1,1.0,6.300000000000001,8.8,12.4,-18.200000000000003,-31.7,16
1046,17584.0,0.0,0.2,1.5,0.5,5.6000000000000005,9.9,-17.5,-1.6,-40.0,16
1047,17600.0,0.0,0.2,1.5,0.2,5.2,10.200000000000001,-17.5,-1.6,-40.0,16
1048,17616.0,-0.30000000000000004,-0.4,1.8,-0.1,4.5,10.0,-15.700000000000001,2.5,-38.60000000000001,16
1049,17634.0,-0.5,-0.9,1.5,-0.30000000000000004,4.1000000000000005,9.5,-8.8,5.8,-33.6,16
1050,17653.0,-0.6000000000000001,-1.2000000000000002,1.0,-0.2,4.0,9.1,6.500000000000001,2.0,-17.7,16
1051,17667.0,-0.4,-1.4000000000000001,0.4,0.0,3.8000000000000003,8.3,6.500000000000001,2.0,-17.7,16
1052,17686.0,-0.1,-1.6,-0.2,0.2,3.7,7.9,11.000000000000002,-5.1000000000000005,-12.4,16
1053,17700.0,0.0,-1.7000000000000002,-0.5,0.2,3.6,7.7,12.7,-13.200000000000003,-9.700000000000001,16
1054,17722.0,-0.1,-1.8,-0.7000000000000001,0.30000000000000004,3.5,7.6000000000000005,11.6,-22.8,-8.0,16
1055,17733.0,0.0,-1.9000000000000001,-0.9,0.30000000000000004,3.4000000000000004,7.1000000000000005,11.6,-22.8,-8.0,16
1056,17750.0,0.0,-2.1,-1.3,0.4,3.4000000000000004,7.0,6.699999999999999,-23.900000000000006,-9.3,16
1057,17767.0,0.1,-2.1,-1.3,0.6000000000000001,3.3000000000000003,7.0,-3.0,-20.599999999999998,-10.600000000000001,16
1058,17786.0,0.2,-2.1,-1.3,0.5,3.2,7.0,-14.400000000000002,-16.5,-12.5,16
1059,17800.0,-0.1,-2.0,-1.1,0.4,3.2,7.300000000000001,-37.6,1.3,-13.3,16
1060,17818.0,-0.1,-2.0,-1.1,0.2,3.3000000000000003,7.5,-37.6,1.3,-13.3,16
1061,17834.0,-0.2,-1.7000000000000002,-0.9,-0.1,3.7,7.5,-42.800000000000004,18.3,-9.700000000000001,16
1062,17854.0,-0.30000000000000004,-0.7000000000000001,-2.0,-0.2,4.2,6.6000000000000005,-40.5,57.400000000000006,0.0,16
1063,17867.0,-0.30000000000000004,-0.7000000000000001,-2.0,-0.4,4.4,6.0,-40.5,57.400000000000006,0.0,16
1064,17885.0,-0.4,-0.2,-2.8000000000000003,-0.5,4.9,5.9,-44.10000000000001,69.7,2.9,16
1065,17900.0,-0.30000000000000004,0.2,-2.7,-0.7000000000000001,4.9,6.800000000000001,-49.699999999999996,71.7,4.2,16
1066,17917.0,-0.30000000000000004,0.4,-1.9000000000000001,-0.7000000000000001,4.9,7.4,-50.3,62.800000000000004,4.7,16
1067,17933.0,-0.30000000000000004,0.5,-1.3,-1.0,5.0,7.7,-42.900000000000006,48.300000000000004,5.6,16
1068,17950.0,-0.4,0.7000000000000001,-1.1,-1.2000000000000002,5.1000000000000005,8.1,-34.2,30.1,6.1000000000000005,16
1069,17967.0,-0.6000000000000001,0.8,-0.8,-1.2000000000000002,5.1000000000000005,8.4,-28.3,13.6,8.0,16
1070,17984.0,-0.7000000000000001,0.8,-0.2,-1.3,5.0,9.200000000000001,-24.400000000000002,-3.9,10.700000000000001,16
1071,18000.0,-0.8,0.9,0.5,-1.2000000000000002,5.1000000000000005,10.100000000000001,-20.599999999999998,-21.0,13.5,16
1072,18018.0,-0.2,0.9,1.3,-0.5,5.1000000000000005,10.3,-10.8,-28.800000000000004,20.8,16
1073,18033.0,-0.2,0.9,1.3,-0.2,5.0,10.5,-10.8,-28.800000000000004,20.8,16
1074,18050.0,0.1,0.9,1.6,0.1,5.0,11.0,-7.9,-25.1,22.3,16
1075,18073.0,0.5,0.8,2.2,0.5,4.9,11.200000000000001,6.4,-12.9,27.3,16
1076,18084.0,0.5,0.8,2.2,0.6000000000000001,4.9,11.200000000000001,6.4,-12.9,27.3,16
1077,18106.0,0.8,0.8,2.0,1.0,5.1000000000000005,10.100000000000001,20.2,-2.0,30.4,16
1078,18118.0,1.1,0.9,-0.4,1.1,5.2,9.3,36.1,21.1,30.9,16
1079,18133.0,1.1,0.9,-0.4,1.1,5.5,8.0,36.1,21.1,30.9,16
1080,18154.0,1.1,1.1,-1.0,1.0,5.7,7.9,29.0,23.800000000000004,27.6,16
1081,18168.0,0.9,1.0,-0.2,0.8,5.6000000000000005,8.700000000000001,15.700000000000001,12.4,20.900000000000002,16
1082,18184.0,0.9,1.0,-0.2,0.8,5.5,8.9,15.700000000000001,12.4,20.900000000000002,16
1083,18201.0,0.8,0.8,0.1,0.4,5.300000000000001,8.9,19.1,4.7,19.799999999999997,16
1084,18217.0,0.30000000000000004,0.7000000000000001,0.0,-0.4,5.4,7.9,25.200000000000003,0.2,18.900000000000002,16
1085,18243.0,-1.2000000000000002,0.9,-1.2000000000000002,-1.3,5.800000000000001,7.5,18.8,8.5,24.900000000000002,16
1086,18250.0,-1.2000000000000002,0.9,-1.2000000000000002,-1.7000000000000002,6.1000000000000005,8.0,18.8,8.5,24.900000000000002,16
1087,18267.0,-1.7000000000000002,1.5,-0.4,-2.2,7.1000000000000005,9.1,6.4,14.5,38.400000000000006,16
1088,18283.0,-2.2,2.3000000000000003,0.5,-2.0,7.7,9.5,-0.4,15.299999999999999,59.20000000000001,16
1089,18300.0,-1.1,2.9000000000000004,1.4000000000000001,0.7000000000000001,7.7,10.600000000000001,-0.7,8.600000000000001,79.00000000000001,16
1090,18320.0,0.9,2.8000000000000003,2.0,2.0,7.5,11.0,4.7,-20.5,83.2,16
1091,18334.0,1.4000000000000001,2.6,2.4000000000000004,2.0,7.5,11.0,9.899999999999999,-57.60000000000001,70.8,16
1092,18351.0,1.4000000000000001,2.6,2.4000000000000004,2.0,7.5,11.0,9.899999999999999,-57.60000000000001,70.8,16
1093,18370.0,0.30000000000000004,1.9000000000000001,3.0,2.0,7.5,11.0,14.700000000000001,-87.3,58.2,16
1094,18383.0,-0.7000000000000001,-0.9,2.9000000000000004,1.0,4.2,11.200000000000001,55.400000000000006,-56.7,52.300000000000004,16
1095,18401.0,-0.7000000000000001,-0.9,2.9000000000000004,0.6000000000000001,4.0,10.200000000000001,55.400000000000006,-56.7,52.300000000000004,16
1096,18420.0,-1.3,-1.5,1.3,0.5,3.4000000000000004,8.200000000000001,69.60000000000001,-36.400000000000006,49.6,16
1097,18434.0,-1.6,-2.4000000000000004,-1.0,0.4,3.1,7.1000000000000005,59.300000000000004,0.4,48.0,16
1098,18452.0,-1.6,-2.4000000000000004,-1.0,0.4,3.1,6.800000000000001,59.300000000000004,0.4,48.0,16
1099,18467.0,-1.6,-2.4000000000000004,-1.3,0.5,3.3000000000000003,6.7,46.800000000000004,21.8,47.0,16
1100,18483.0,-1.5,-2.4000000000000004,-1.3,0.6000000000000001,3.3000000000000003,6.7,35.4,33.800000000000004,43.2,16
1101,18500.0,-1.3,-2.4000000000000004,-1.2000000000000002,0.8,3.3000000000000003,6.7,27.9,39.599999999999994,38.0,16
1102,18517.0,-1.0,-2.5,-1.4000000000000001,1.0,3.2,6.4,24.1,44.7,31.400000000000002,16
1103,18533.0,-0.8,-2.4000000000000004,-1.6,1.2000000000000002,3.7,5.9,20.3,50.400000000000006,23.800000000000004,16
1104,18550.0,-0.6000000000000001,-2.0,-2.1,1.2000000000000002,3.7,5.6000000000000005,13.900000000000002,52.400000000000006,14.700000000000001,16
1105,18566.0,-0.4,-2.0,-2.5,1.2000000000000002,3.8000000000000003,5.300000000000001,2.7,48.70000000000001,4.6,16
1106,18584.0,-0.4,-1.8,-2.6,0.8,3.9000000000000004,5.6000000000000005,-10.5,45.099999999999994,-4.0,16
1107,18600.0,-0.7000000000000001,-1.7000000000000002,-2.3000000000000003,0.6000000000000001,3.9000000000000004,5.9,-22.4,43.70000000000001,-8.899999999999999,16
1108,18620.0,-0.7000000000000001,-1.6,-1.9000000000000001,0.6000000000000001,4.1000000000000005,6.6000000000000005,-29.400000000000002,51.300000000000004,-8.700000000000001,16
1109,18633.0,-0.6000000000000001,-1.2000000000000002,-1.4000000000000001,0.5,4.7,7.0,-31.5,58.3,-6.600000000000001,16
1110,18651.0,-0.30000000000000004,-0.2,-1.4000000000000001,0.6000000000000001,5.2,6.800000000000001,-25.900000000000002,57.49999999999999,-6.2,16
1111,18667.0,-0.30000000000000004,-0.2,-1.4000000000000001,0.30000000000000004,5.300000000000001,6.800000000000001,-25.900000000000002,57.49999999999999,-6.2,16
1112,18684.0,-0.6000000000000001,0.1,-1.4000000000000001,-0.2,5.5,7.0,-23.5,58.7,-5.300000000000001,16
1113,18706.0,-0.4,0.6000000000000001,-0.8,0.0,5.800000000000001,7.5,-18.5,68.60000000000001,8.700000000000001,16
1114,18722.0,0.1,0.8,-0.7000000000000001,0.4,6.1000000000000005,7.6000000000000005,-14.900000000000002,55.7,10.600000000000001,16
1115,18736.0,0.1,0.8,-0.7000000000000001,0.5,6.2,7.5,-14.900000000000002,55.7,10.600000000000001,16
1116,18750.0,0.4,1.1,-0.9,0.4,6.2,7.6000000000000005,-12.5,40.6,7.6,16
1117,18771.0,-0.4,1.0,-0.1,-0.5,6.0,8.4,-13.900000000000002,18.5,0.0,16
1118,18784.0,-0.4,1.0,-0.1,-1.0,6.1000000000000005,8.700000000000001,-13.900000000000002,18.5,0.0,16
1119,18800.0,-1.1,1.0,0.4,-1.4000000000000001,5.9,9.4,-11.000000000000002,12.0,5.1000000000000005,16
1120,18816.0,-1.4000000000000001,0.9,1.0,-1.3,6.0,9.600000000000001,-5.9,8.4,15.700000000000001,16
1121,18833.0,-1.1,1.0,1.2000000000000002,-0.5,6.2,9.600000000000001,-0.7,2.4000000000000004,26.000000000000004,16
1122,18850.0,-0.4,1.2000000000000002,1.0,0.1,6.300000000000001,9.1,1.9,-3.6000000000000005,31.2,16
1123,18867.0,0.0,1.2000000000000002,0.6000000000000001,0.1,6.300000000000001,9.0,-1.0,-2.3,30.9,16
1124,18890.0,-0.1,1.2000000000000002,1.5,0.2,6.1000000000000005,10.4,-24.400000000000002,-6.1000000000000005,21.200000000000003,16
1125,18901.0,-0.1,1.2000000000000002,1.5,0.2,6.1000000000000005,10.4,-24.400000000000002,-6.1000000000000005,21.200000000000003,16
1126,18917.0,0.30000000000000004,0.5,4.7,0.8,5.4,12.600000000000001,-29.600000000000005,-24.599999999999998,8.8,16
1127,18933.0,0.30000000000000004,0.5,4.7,0.4,5.2,13.5,-29.600000000000005,-24.599999999999998,8.8,16
1128,18958.0,-0.2,-0.2,3.6,0.2,4.4,11.8,-2.2,-10.299999999999999,0.1,16
1129,18968.0,-0.30000000000000004,-0.6000000000000001,2.6,0.1,4.2,11.3,4.2,0.7,-2.0,16
1130,18984.0,-0.30000000000000004,-0.6000000000000001,2.6,0.1,4.2,10.700000000000001,4.2,0.7,-2.0,16
1131,19000.0,-0.30000000000000004,-0.6000000000000001,1.6,0.4,4.1000000000000005,9.5,5.7,9.5,-2.3,16
1132,19019.0,0.1,-0.7000000000000001,0.6000000000000001,0.8,4.0,8.8,4.0,17.7,-3.0,16
1133,19035.0,0.5,-0.9,0.1,0.8,3.8000000000000003,8.6,-4.0,19.9,-10.0,16
1134,19055.0,0.7000000000000001,-1.5,-0.6000000000000001,0.7000000000000001,3.2,8.0,-5.4,18.0,-12.8,16
1135,19067.0,0.7000000000000001,-1.5,-0.6000000000000001,0.4,3.2,7.7,-5.4,18.0,-12.8,16
1136,19084.0,0.30000000000000004,-1.5,-1.0,0.30000000000000004,3.2,7.4,-6.9,13.3,-13.6,16
1137,19100.0,0.0,-1.5,-1.5,0.0,3.4000000000000004,7.1000000000000005,-11.4,5.9,-10.8,16
1138,19128.0,0.30000000000000004,-1.1,-1.3,0.5,3.6,7.800000000000001,-24.0,-8.700000000000001,1.1,16
1139,19134.0,0.30000000000000004,-1.1,-1.3,0.5,3.6,7.800000000000001,-24.0,-8.700000000000001,1.1,16
1140,19150.0,0.6000000000000001,-0.7000000000000001,-0.9,1.0,4.0,7.9,-23.6,-7.0,7.400000000000001,16
1141,19167.0,0.6000000000000001,-0.5,-1.0,0.7000000000000001,4.1000000000000005,7.1000000000000005,-18.3,-2.1,9.700000000000001,16
1142,19184.0,0.7000000000000001,-0.30000000000000004,-2.0,1.5,4.1000000000000005,6.1000000000000005,-15.399999999999999,8.0,10.700000000000001,16
1143,19207.0,0.2,0.2,-4.3,0.1,4.3,4.9,-39.300000000000004,27.099999999999998,6.699999999999999,16
1144,19216.0,0.2,0.2,-4.3,-0.1,3.8000000000000003,6.5,-39.300000000000004,27.099999999999998,6.699999999999999,16
1145,19234.0,-0.30000000000000004,-0.4,-2.1,-0.4,3.8000000000000003,8.0,-54.0,-35.599999999999994,13.900000000000002,16
1146,19250.0,-0.6000000000000001,-0.1,0.2,-0.30000000000000004,4.0,9.8,-54.0,-35.599999999999994,13.900000000000002,16
1147,19266.0,-0.5,0.1,0.7000000000000001,0.5,4.2,9.5,-31.799999999999997,-78.3,17.6,16
1148,19284.0,-0.1,0.30000000000000004,0.4,0.6000000000000001,3.9000000000000004,8.9,-7.6,-111.4,16.4,16
1149,19306.0,-0.8,-0.1,-0.4,0.5,3.9000000000000004,8.5,19.0,-101.80000000000001,17.0,16
1150,19316.0,-0.8,-0.1,-0.4,0.6000000000000001,4.3,8.700000000000001,19.0,-101.80000000000001,17.0,16
1151,19338.0,-0.9,0.5,0.0,1.2000000000000002,5.0,9.200000000000001,20.599999999999998,-85.5,28.700000000000003,16
1152,19350.0,-0.5,1.0,0.30000000000000004,1.8,5.2,9.0,21.0,-63.2,37.800000000000004,16
1153,19366.0,0.2,1.3,0.30000000000000004,2.4000000000000004,5.5,9.0,20.400000000000002,-39.400000000000006,41.6,16
1154,19384.0,0.4,1.5,0.2,2.4000000000000004,5.9,9.0,16.8,-13.399999999999999,41.4,16
1155,19410.0,0.8,2.2,0.2,3.1,6.4,8.9,5.7,38.50000000000001,41.199999999999996,16
1156,19417.0,0.8,2.2,0.2,3.1,6.4,8.9,5.7,38.50000000000001,41.199999999999996,16
1157,19433.0,1.2000000000000002,2.3000000000000003,0.0,2.7,6.4,8.8,1.2000000000000002,55.3,36.300000000000004,16
1158,19451.0,0.1,2.1,0.4,2.2,6.300000000000001,9.0,-0.2,54.199999999999996,29.200000000000003,16
1159,19467.0,0.1,2.1,0.4,1.7000000000000002,6.1000000000000005,9.600000000000001,-0.2,54.199999999999996,29.200000000000003,16
1160,19486.0,0.2,2.1,0.7000000000000001,2.1,6.300000000000001,9.700000000000001,6.4,40.1,34.1,16
1161,19506.0,-0.5,2.2,1.9000000000000001,1.1,6.4,10.8,28.3,-8.899999999999999,32.2,16
1162,19522.0,-3.6,0.9,2.3000000000000003,-2.3000000000000003,5.0,11.0,47.80000000000001,-38.800000000000004,39.699999999999996,16
1163,19534.0,-3.6,0.9,2.3000000000000003,-1.4000000000000001,5.5,10.3,47.80000000000001,-38.800000000000004,39.699999999999996,16
1164,19550.0,-3.0,1.0,1.4000000000000001,0.9,5.0,9.8,65.6,-35.8,68.80000000000001,16
1165,19567.0,-1.3,0.4,1.2000000000000002,1.5,4.3,10.200000000000001,75.3,-15.299999999999999,94.80000000000001,16
1166,19584.0,-0.6000000000000001,-0.4,1.2000000000000002,1.6,4.7,8.1,73.10000000000001,-33.800000000000004,89.6,16
1167,19600.0,-1.0,-0.1,-0.8,1.0,4.3,8.1,61.0,-12.7,77.9,16
1168,19617.0,-1.3,-0.5,-0.1,1.5,4.0,11.600000000000001,9.3,94.6,85.69999999999999,16
1169,19633.0,0.0,-0.5,3.1,1.6,4.2,10.9,-20.900000000000002,132.9,78.7,16
1170,19650.0,-0.8,-0.7000000000000001,2.1,0.6000000000000001,3.5,10.600000000000001,-4.6,105.60000000000002,66.60000000000001,16
1171,19667.0,-1.3,-1.9000000000000001,1.2000000000000002,0.30000000000000004,2.5,9.0,2.2,82.3,72.30000000000001,16
1172,19685.0,-1.9000000000000001,-1.9000000000000001,-0.30000000000000004,0.5,2.9000000000000004,8.0,-4.4,71.0,73.6,16
1173,19705.0,-0.5,-1.5,-1.4000000000000001,2.5,3.4000000000000004,6.5,-13.5,86.3,80.30000000000001,16
1174,19718.0,0.1,-0.6000000000000001,0.4,1.2000000000000002,3.5,9.5,-45.2,115.60000000000001,72.60000000000001,16
1175,19733.0,0.1,-0.6000000000000001,0.4,1.1,3.2,9.200000000000001,-45.2,115.60000000000001,72.60000000000001,16
1176,19750.0,0.0,-0.8,-0.4,0.8,3.3000000000000003,7.1000000000000005,-44.2,92.39999999999999,67.60000000000001,16
1177,19767.0,-0.2,-0.6000000000000001,-2.1,0.5,3.2,6.6000000000000005,-47.900000000000006,59.20000000000001,63.4,16
1178,19784.0,-0.6000000000000001,-1.0,2.2,-0.6000000000000001,1.3,12.4,-58.1,33.800000000000004,62.4,16
1179,19804.0,-2.1,-2.9000000000000004,3.6,-0.6000000000000001,0.9,12.9,-37.6,17.9,69.5,16
1180,19817.0,1.1,-0.8,0.0,2.1,2.7,9.3,0.8,2.9,86.89999999999999,16
1181,19839.0,1.3,-1.1,-1.1,2.5,2.2,8.0,-2.3,24.0,84.2,16
1182,19850.0,1.3,-1.1,-1.1,2.7,2.2,8.200000000000001,-2.3,24.0,84.2,16
1183,19867.0,1.5,-1.1,-1.1,3.0,1.4000000000000001,8.3,-7.9,48.0,78.4,16
1184,19887.0,1.8,-0.8,-1.0,2.1,3.1,8.3,2.4000000000000004,94.10000000000001,44.6,16
1185,19905.0,1.8,-0.8,-1.0,-0.1,4.6000000000000005,9.1,2.4000000000000004,94.10000000000001,44.6,16
1186,19917.0,-0.6000000000000001,1.0,0.2,1.0,3.8000000000000003,8.0,1.1,61.300000000000004,46.6,16
1187,19934.0,0.4,0.5,-1.4000000000000001,1.4000000000000001,3.5,7.1000000000000005,4.1,-5.0,54.9,16
1188,19957.0,1.7000000000000002,-0.6000000000000001,-1.1,3.0,2.5,8.700000000000001,-22.000000000000004,-42.800000000000004,43.70000000000001,16
1189,19967.0,1.7000000000000002,-0.6000000000000001,-1.1,2.6,2.6,8.700000000000001,-22.000000000000004,-42.800000000000004,43.70000000000001,16
1190,19983.0,1.1,-0.4,-1.0,0.7000000000000001,3.5,6.800000000000001,-31.9,-66.2,36.1,16
1191,20003.0,-0.5,1.1,-3.6,1.8,4.4,6.6000000000000005,-31.9,-66.2,36.1,16
1192,20017.0,0.2,1.2000000000000002,-2.4000000000000004,1.7000000000000002,3.8000000000000003,7.300000000000001,-39.599999999999994,-55.5,45.0,16
1193,20039.0,0.4,1.2000000000000002,-2.5,2.4000000000000004,3.8000000000000003,6.800000000000001,-39.699999999999996,-60.1,49.199999999999996,16
1194,20050.0,0.4,1.2000000000000002,-2.5,2.7,3.8000000000000003,6.9,-39.699999999999996,-60.1,49.199999999999996,16
1195,20072.0,0.9,1.2000000000000002,-2.2,3.7,3.4000000000000004,7.7,-42.1,-48.2,49.9,16
1196,20084.0,2.1,1.1,-1.9000000000000001,4.3,3.3000000000000003,7.5,-45.3,8.3,32.9,16
1197,20108.0,1.3,1.1,-0.30000000000000004,3.3000000000000003,3.1,9.700000000000001,-52.5,30.799999999999997,22.5,16
1198,20117.0,1.3,1.1,-0.30000000000000004,3.3000000000000003,2.7,14.700000000000001,-52.5,30.799999999999997,22.5,16
1199,20137.0,0.8,0.8,4.0,3.9000000000000004,3.4000000000000004,9.700000000000001,-47.1,-1.9,21.8,16
1200,20150.0,1.7000000000000002,1.5,0.4,4.800000000000001,3.1,12.5,-37.0,11.6,20.8,16
1201,20167.0,1.5,0.9,4.3,3.1,2.3000000000000003,14.700000000000001,-22.3,33.800000000000004,9.0,16
1202,20183.0,1.5,0.5,5.5,4.0,2.5,15.3,1.3,21.300000000000004,7.300000000000001,16
1203,20202.0,1.9000000000000001,1.1,4.4,4.0,3.1,13.700000000000001,44.7,-24.5,-10.4,16
1204,20217.0,1.9000000000000001,1.1,4.4,4.2,3.4000000000000004,12.700000000000001,44.7,-24.5,-10.4,16
1205,20234.0,2.2,1.3,2.8000000000000003,4.4,3.8000000000000003,11.9,46.199999999999996,-17.799999999999997,-12.8,16
1206,20250.0,1.6,1.3,3.9000000000000004,3.5,3.6,13.600000000000001,24.900000000000002,48.800000000000004,-7.500000000000001,16
1207,20267.0,1.6,1.3,3.9000000000000004,3.3000000000000003,3.3000000000000003,14.4,24.900000000000002,48.800000000000004,-7.500000000000001,16
1208,20289.0,1.4000000000000001,0.7000000000000001,5.1000000000000005,3.0,2.6,14.700000000000001,32.1,73.6,-2.3,16
1209,20304.0,1.3,0.0,5.0,2.7,2.4000000000000004,14.3,51.0,89.2,-1.0,16
1210,20331.0,1.0,-0.5,4.0,2.7,2.4000000000000004,14.3,71.30000000000001,96.4,-2.7,16
1211,20334.0,1.0,-0.5,4.0,2.7,2.4000000000000004,14.3,71.30000000000001,96.4,-2.7,16
1212,20350.0,0.2,-1.4000000000000001,-0.9,0.9,2.2,8.5,97.89999999999999,54.9,-4.800000000000001,16
1213,20367.0,0.2,-1.4000000000000001,-0.9,0.7000000000000001,2.3000000000000003,7.7,97.89999999999999,54.9,-4.800000000000001,16
1214,20388.0,0.0,-1.4000000000000001,-1.9000000000000001,0.1,2.7,6.9,94.4,41.900000000000006,-5.1000000000000005,16
1215,20405.0,-0.4,-1.3,-2.3000000000000003,-0.30000000000000004,2.9000000000000004,6.800000000000001,87.40000000000002,37.1,-1.2000000000000002,16
