,ms,accelX,accelY,accelZ,accelWithGX,accelWithGY,accelWithGZ,rotRateAlpha,rotRateBeta,rotRateGamma,interval
0,181.0,0.0,0.0,-0.1,-0.7000000000000001,1.4000000000000001,9.600000000000001,-3.6000000000000005,5.9,4.9,16
1,191.0,0.0,0.0,-0.2,-0.7000000000000001,1.4000000000000001,9.600000000000001,-3.6000000000000005,5.9,4.9,16
2,208.0,0.0,0.0,-0.2,-0.8,1.4000000000000001,9.600000000000001,-3.7000000000000006,4.1,5.0,16
3,229.0,0.1,0.0,-0.1,-0.7000000000000001,1.4000000000000001,9.600000000000001,-3.2,3.1,5.2,16
4,243.0,0.0,0.0,-0.1,-0.7000000000000001,1.4000000000000001,9.600000000000001,-3.3000000000000007,3.4,5.0,16
5,257.0,0.0,-0.1,0.0,-0.7000000000000001,1.2000000000000002,9.8,-4.0,3.1,4.6,16
6,274.0,0.0,0.0,0.0,-0.8,1.3,9.700000000000001,-3.9,3.4,5.1000000000000005,16
7,298.0,0.0,0.0,0.0,-0.8,1.3,9.700000000000001,-2.8,3.5,4.9,16
8,307.0,0.1,0.0,0.0,-0.8,1.3,9.700000000000001,-2.8,3.5,4.9,16
9,325.0,0.1,0.1,0.1,-0.7000000000000001,1.4000000000000001,9.8,-2.3,2.7,5.1000000000000005,16
10,341.0,0.1,0.1,0.1,-0.7000000000000001,1.4000000000000001,9.8,-2.1,3.4,4.4,16
11,357.0,0.1,0.0,0.0,-0.7000000000000001,1.3,9.8,-2.0,4.1,4.0,16
12,374.0,0.0,0.0,-0.1,-0.9,1.2000000000000002,9.700000000000001,-2.3,3.7000000000000006,3.7000000000000006,16
13,390.0,-0.1,0.0,0.0,-0.9,1.2000000000000002,9.700000000000001,-3.1,3.0,3.8,16
14,407.0,0.0,-0.1,-0.1,-0.9,1.2000000000000002,9.700000000000001,-3.4,2.5,4.9,16
15,424.0,0.0,0.0,0.0,-0.8,1.2000000000000002,9.700000000000001,-3.2,1.5,5.300000000000001,16
16,441.0,0.1,0.0,0.0,-0.8,1.3,9.8,-3.1,1.4,5.4,16
17,457.0,0.1,0.0,0.1,-0.8,1.3,9.8,-2.6,2.0,4.9,16
18,474.0,0.0,-0.1,0.0,-0.8,1.2000000000000002,9.8,-2.0,2.7,4.2,16
19,490.0,-0.1,-0.1,-0.2,-1.0,1.0,9.600000000000001,-2.3,2.6,4.5,16
20,507.0,-0.1,-0.2,-0.1,-1.0,1.0,9.600000000000001,-3.0,0.9000000000000001,5.9,16
21,524.0,0.0,-0.1,-0.1,-0.9,1.0,9.700000000000001,-3.3000000000000007,1.1,7.0,16
22,540.0,0.0,-0.1,0.0,-0.8,1.1,9.700000000000001,-3.9,0.9000000000000001,7.0,16
23,557.0,0.0,-0.1,0.1,-0.8,1.1,9.8,-3.7000000000000006,-0.2,6.699999999999999,16
24,574.0,0.0,-0.1,0.2,-0.8,1.0,9.9,-2.3,0.1,5.9,16
25,590.0,-0.1,-0.2,0.1,-0.9,1.0,9.9,-1.5,0.8,5.6,16
26,608.0,-0.1,-0.2,0.1,-1.0,0.9,9.8,-1.7,1.3,6.699999999999999,16
27,625.0,-0.2,-0.2,0.0,-1.0,0.9,9.600000000000001,-1.2000000000000002,2.2,7.6,16
28,641.0,-0.2,-0.2,-0.2,-1.0,0.9,9.600000000000001,-0.6000000000000001,2.4000000000000004,8.5,16
29,657.0,-0.1,-0.1,-0.2,-1.0,1.0,9.5,-0.7,-0.4,9.5,16
30,674.0,0.0,0.0,0.0,-0.9,1.2000000000000002,9.700000000000001,-1.2000000000000002,-2.8,9.5,16
31,690.0,0.2,0.1,0.1,-0.7000000000000001,1.2000000000000002,9.9,-1.8000000000000003,-3.1,7.500000000000001,16
32,707.0,0.0,-0.1,0.30000000000000004,-0.8,1.1,10.0,-2.8,-0.4,5.1000000000000005,16
33,725.0,-0.30000000000000004,-0.2,0.1,-1.2000000000000002,0.8,9.8,-3.6000000000000005,1.9,4.7,16
34,743.0,-0.4,-0.30000000000000004,0.0,-1.2000000000000002,0.7000000000000001,9.8,-2.2,1.9,6.4,16
35,757.0,-0.30000000000000004,-0.30000000000000004,0.0,-1.2000000000000002,0.7000000000000001,9.8,0.8,-0.7,9.100000000000001,16
36,774.0,0.0,-0.2,0.0,-1.0,0.8,9.8,4.1,-2.0,11.700000000000001,16
37,791.0,0.2,0.1,-0.2,-0.6000000000000001,1.2000000000000002,9.5,6.0,-1.8000000000000003,11.4,16
38,807.0,0.2,0.1,-0.30000000000000004,-0.6000000000000001,1.2000000000000002,9.5,5.1000000000000005,-1.3,8.5,16
39,824.0,0.1,0.0,-0.30000000000000004,-0.7000000000000001,1.2000000000000002,9.4,2.1,-0.30000000000000004,5.0,16
40,840.0,-0.1,-0.1,-0.30000000000000004,-0.9,1.0,9.5,-1.3,0.4,3.4,16
41,857.0,-0.2,-0.2,0.0,-1.1,0.9,9.700000000000001,-2.7,0.30000000000000004,3.2,16
42,874.0,-0.4,-0.30000000000000004,0.0,-1.2000000000000002,0.8,9.700000000000001,-2.0,-0.5,3.4,16
43,892.0,-0.5,-0.30000000000000004,-0.1,-1.3,0.8,9.600000000000001,-0.30000000000000004,-4.4,4.2,16
44,907.0,-0.4,-0.2,0.0,-1.3,0.8,9.700000000000001,0.8,-7.8,4.9,16
45,924.0,-0.2,-0.1,0.1,-1.1,1.0,9.8,0.6000000000000001,-7.1000000000000005,4.5,16
46,941.0,-0.2,0.0,0.1,-1.0,1.0,9.9,-1.0,-4.2,2.4000000000000004,16
47,958.0,-0.30000000000000004,-0.1,0.1,-1.1,1.0,9.8,-2.7,-2.2,1.1,16
48,975.0,-0.2,0.0,0.2,-1.1,1.0,10.100000000000001,-3.8,-3.0,0.9000000000000001,16
49,990.0,-0.2,0.0,0.4,-1.1,1.0,10.100000000000001,-4.0,-5.2,0.6000000000000001,16
50,1007.0,-0.1,0.0,0.6000000000000001,-1.0,1.0,10.4,-2.1,-4.9,-0.4,16
51,1024.0,-0.1,0.0,0.5,-1.0,1.0,10.3,0.8,-0.2,-2.0,16
52,1043.0,-0.30000000000000004,0.0,-0.1,-1.2000000000000002,1.0,9.8,2.6,3.4,-3.0,16
53,1059.0,-0.4,0.0,-0.7000000000000001,-1.3,1.0,9.200000000000001,1.6,2.4000000000000004,-2.4000000000000004,16
54,1075.0,-0.30000000000000004,0.0,-0.7000000000000001,-1.1,1.1,9.3,-0.8,-2.6,-0.8,16
55,1091.0,-0.2,0.1,-0.4,-1.1,1.1,9.3,-2.4000000000000004,-7.9,-0.2,16
56,1108.0,0.0,0.30000000000000004,0.2,-0.9,1.3,9.8,-2.4000000000000004,-8.700000000000001,-1.3,16
57,1124.0,0.0,0.30000000000000004,0.30000000000000004,-0.8,1.3,10.100000000000001,0.8,-5.500000000000001,-3.2,16
58,1142.0,0.1,0.4,0.1,-0.8,1.4000000000000001,9.8,4.800000000000001,-0.2,-6.4,16
59,1159.0,0.0,0.5,-0.7000000000000001,-0.9,1.6,9.1,5.6,1.0,-10.9,16
60,1174.0,-0.2,0.4,-0.7000000000000001,-1.0,1.5,8.9,4.4,-6.4,-14.0,16
61,1191.0,-0.2,0.1,-0.1,-0.9,1.3,9.9,5.0,-15.100000000000001,-14.100000000000001,16
62,1209.0,-0.1,0.2,0.30000000000000004,-0.9,1.3,9.9,8.2,-19.400000000000002,-13.100000000000001,16
63,1224.0,0.0,0.30000000000000004,0.9,-0.8,1.5,10.5,13.5,-19.0,-13.900000000000002,16
64,1240.0,-0.4,-0.2,0.8,-0.9,1.1,10.600000000000001,15.399999999999999,-10.5,-13.200000000000003,16
65,1257.0,-0.30000000000000004,0.0,0.9,-1.1,1.3,10.600000000000001,16.900000000000002,0.0,-6.9,16
66,1274.0,-0.2,0.30000000000000004,0.1,-1.0,1.7000000000000002,10.0,22.1,0.9000000000000001,-2.5,16
67,1290.0,-0.30000000000000004,0.30000000000000004,-0.4,-1.0,1.8,9.5,27.700000000000003,-5.8,-0.7,16
68,1309.0,0.0,0.5,-0.7000000000000001,-0.4,2.3000000000000003,8.8,32.0,-14.700000000000001,0.8,16
69,1324.0,0.30000000000000004,0.7000000000000001,-0.9,-0.4,2.3000000000000003,8.8,31.9,-21.0,-2.1,16
70,1341.0,0.5,0.9,-1.1,-0.2,2.6,8.6,25.0,-22.9,-8.100000000000001,16
71,1357.0,0.30000000000000004,0.6000000000000001,-0.7000000000000001,-0.2,2.5,8.8,14.300000000000002,-19.700000000000003,-13.100000000000001,16
72,1374.0,-0.1,0.4,-0.6000000000000001,-0.6000000000000001,2.2,9.1,5.7,-14.600000000000001,-14.300000000000002,16
73,1390.0,-0.6000000000000001,0.1,-0.4,-1.1,1.9000000000000001,9.3,1.3,-11.5,-10.600000000000001,16
74,1407.0,-0.6000000000000001,0.30000000000000004,-0.5,-1.1,2.0,9.200000000000001,-0.2,-10.0,-4.0,16
75,1424.0,-0.7000000000000001,0.30000000000000004,-0.6000000000000001,-1.2000000000000002,1.7000000000000002,9.1,-0.7,-13.900000000000002,0.9000000000000001,16
76,1443.0,-0.9,-0.1,-0.5,-1.2000000000000002,1.7000000000000002,9.1,-3.6000000000000005,-15.6,7.300000000000001,16
77,1457.0,-0.7000000000000001,0.2,0.1,-1.1,1.8,9.600000000000001,-6.300000000000001,-12.600000000000001,16.900000000000002,16
78,1475.0,0.0,1.0,0.5,0.0,2.9000000000000004,10.5,-3.4,-9.600000000000001,20.8,16
79,1491.0,0.4,1.0,1.1,0.1,2.8000000000000003,10.700000000000001,1.8000000000000003,-8.600000000000001,15.6,16
80,1507.0,0.30000000000000004,0.9,1.0,0.1,2.8000000000000003,10.700000000000001,9.0,-4.1,8.3,16
81,1524.0,0.0,0.9,0.30000000000000004,-0.2,2.7,10.200000000000001,16.3,0.7,2.7,16
82,1540.0,-0.1,0.7000000000000001,-0.1,-0.4,2.7,9.5,20.2,-0.5,-1.5,16
83,1557.0,-0.5,0.30000000000000004,-0.6000000000000001,-0.7000000000000001,2.4000000000000004,9.0,20.1,-4.2,-3.1,16
84,1574.0,-0.6000000000000001,0.2,-0.6000000000000001,-0.8,2.3000000000000003,9.0,16.3,-7.200000000000001,-1.6,16
85,1590.0,-0.5,0.30000000000000004,-0.5,-0.7000000000000001,2.4000000000000004,9.200000000000001,9.8,-8.100000000000001,0.9000000000000001,16
86,1607.0,-0.30000000000000004,0.4,-0.2,-0.5,2.5,9.4,3.0,-9.4,2.5,16
87,1624.0,0.1,0.5,0.30000000000000004,-0.1,2.6,9.8,-2.4000000000000004,-11.900000000000002,2.3,16
88,1640.0,0.30000000000000004,0.5,0.9,0.1,2.6,10.3,-5.9,-14.200000000000001,0.0,16
89,1658.0,0.4,0.30000000000000004,1.4000000000000001,0.30000000000000004,2.3000000000000003,11.100000000000001,-7.9,-12.200000000000001,-3.3000000000000007,16
90,1674.0,0.30000000000000004,0.2,1.5,0.30000000000000004,2.3000000000000003,11.100000000000001,-9.0,-6.600000000000001,-6.0,16
91,1690.0,0.1,-0.1,1.2000000000000002,0.1,2.0,11.0,-9.0,0.2,-7.300000000000001,16
92,1707.0,-0.1,-0.5,0.7000000000000001,-0.2,1.5,10.0,-7.300000000000001,4.800000000000001,-6.1000000000000005,16
93,1724.0,-0.1,-0.5,0.30000000000000004,-0.2,1.5,10.0,-3.9,6.600000000000001,-3.0,16
94,1741.0,-0.1,-0.5,-0.30000000000000004,-0.30000000000000004,1.5,9.5,-0.7,3.6000000000000005,0.2,16
95,1757.0,-0.1,-0.4,-0.6000000000000001,-0.2,1.6,9.1,1.5,-3.2,2.0,16
96,1774.0,0.2,-0.30000000000000004,-0.6000000000000001,0.30000000000000004,1.7000000000000002,9.200000000000001,2.5,-11.2,2.9,16
97,1792.0,0.4,-0.30000000000000004,-0.4,0.30000000000000004,1.7000000000000002,9.200000000000001,1.6,-17.6,2.8,16
98,1807.0,0.7000000000000001,-0.30000000000000004,0.30000000000000004,0.6000000000000001,1.7000000000000002,9.9,-0.6000000000000001,-17.799999999999997,1.9,16
99,1824.0,0.8,-0.2,0.30000000000000004,0.8,1.7000000000000002,9.9,-2.0,-10.0,-0.6000000000000001,16
100,1841.0,0.7000000000000001,-0.30000000000000004,0.2,0.8,1.7000000000000002,9.9,-2.2,-3.9,-3.9,16
101,1857.0,0.5,-0.4,-0.2,0.6000000000000001,1.6,9.5,-1.9,-3.5,-6.1000000000000005,16
102,1874.0,0.4,-0.5,-0.2,0.5,1.5,9.4,-0.5,-6.600000000000001,-7.1000000000000005,16
103,1890.0,0.4,-0.6000000000000001,-0.1,0.6000000000000001,1.3,9.600000000000001,1.9,-8.8,-7.699999999999999,16
104,1907.0,0.4,-0.6000000000000001,0.0,0.6000000000000001,1.3,9.600000000000001,4.5,-8.5,-7.699999999999999,16
105,1924.0,0.5,-0.6000000000000001,-0.2,0.7000000000000001,1.4000000000000001,9.5,7.200000000000001,-5.7,-8.3,16
106,1940.0,0.30000000000000004,-0.7000000000000001,-0.6000000000000001,0.5,1.3,9.1,8.4,-4.5,-9.3,16
107,1959.0,0.30000000000000004,-0.7000000000000001,-0.6000000000000001,0.5,1.3,9.1,7.500000000000001,-7.200000000000001,-8.700000000000001,16
108,1975.0,0.5,-0.6000000000000001,-0.4,0.7000000000000001,1.4000000000000001,9.200000000000001,5.1000000000000005,-9.600000000000001,-7.300000000000001,16
109,1991.0,0.7000000000000001,-0.30000000000000004,0.1,0.9,1.6,9.600000000000001,1.4,-11.4,-6.600000000000001,16
110,2011.0,1.0,-0.2,0.30000000000000004,1.4000000000000001,1.9000000000000001,10.0,-1.4,-10.8,-7.1000000000000005,16
111,2024.0,1.0,-0.1,0.4,1.4000000000000001,1.9000000000000001,10.0,-2.8,-8.899999999999999,-8.600000000000001,16
112,2041.0,0.9,0.0,0.30000000000000004,1.4000000000000001,2.0,10.0,-2.7,-7.1000000000000005,-10.600000000000001,16
113,2057.0,0.8,0.1,0.0,1.1,2.0,9.4,-1.2000000000000002,-4.300000000000001,-13.6,16
114,2074.0,0.6000000000000001,0.1,-0.30000000000000004,1.1,2.0,9.4,0.0,-1.5,-16.3,16
115,2091.0,0.30000000000000004,0.0,-0.6000000000000001,0.8,2.0,9.1,0.7,-1.0,-17.5,16
116,2107.0,0.0,-0.1,-1.0,0.6000000000000001,1.9000000000000001,8.8,0.5,-0.8,-16.900000000000002,16
117,2124.0,-0.1,0.0,-0.8,0.5,2.0,8.8,0.1,-3.2,-15.2,16
118,2140.0,-0.1,0.0,-0.8,0.5,2.0,8.8,0.5,-3.8,-13.8,16
119,2157.0,-0.1,0.1,-0.9,0.5,2.1,8.700000000000001,1.0,-3.4,-12.200000000000001,16
120,2176.0,0.0,0.2,-0.9,0.5,2.3000000000000003,8.5,0.5,-2.6,-11.4,16
121,2195.0,-0.1,0.30000000000000004,-1.1,0.5,2.3000000000000003,8.6,-1.5,-2.4000000000000004,-11.000000000000002,16
122,2208.0,-0.1,0.30000000000000004,-0.8,0.5,2.3000000000000003,8.6,-4.300000000000001,-4.300000000000001,-10.600000000000001,16
123,2224.0,-0.1,0.4,-0.6000000000000001,0.5,2.4000000000000004,8.9,-6.600000000000001,-4.1,-10.299999999999999,16
124,2241.0,-0.2,0.5,0.0,0.4,2.4000000000000004,9.700000000000001,-8.3,-4.800000000000001,-9.600000000000001,16
125,2257.0,-0.2,0.5,0.30000000000000004,0.4,2.4000000000000004,9.700000000000001,-8.5,-2.4000000000000004,-8.5,16
126,2275.0,-0.2,0.4,0.2,0.4,2.4000000000000004,9.8,-6.8,1.2000000000000002,-7.0,16
127,2294.0,-0.1,0.6000000000000001,0.30000000000000004,0.5,2.5,9.700000000000001,-3.9,1.5,-5.1000000000000005,16
128,2308.0,-0.1,0.6000000000000001,0.2,0.5,2.5,9.700000000000001,-1.1,2.9,-4.1,16
129,2324.0,-0.1,0.6000000000000001,0.2,0.4,2.5,9.700000000000001,0.8,2.9,-3.3000000000000007,16
130,2340.0,-0.1,0.5,0.2,0.4,2.5,9.8,2.3,5.2,-2.2,16
131,2357.0,-0.1,0.4,0.1,0.30000000000000004,2.3000000000000003,9.700000000000001,3.0,7.699999999999999,-1.0,16
132,2374.0,-0.1,0.30000000000000004,0.2,0.30000000000000004,2.3000000000000003,9.700000000000001,3.4,9.5,0.4,16
133,2390.0,-0.30000000000000004,0.1,0.4,0.1,2.1,9.9,4.300000000000001,11.700000000000001,3.3000000000000007,16
134,2407.0,-0.5,-0.30000000000000004,0.5,0.0,1.9000000000000001,10.200000000000001,6.4,14.900000000000002,9.0,16
135,2424.0,-0.30000000000000004,-0.2,0.6000000000000001,0.0,1.9000000000000001,10.200000000000001,10.1,18.200000000000003,16.6,16
136,2442.0,-0.30000000000000004,0.0,0.4,0.0,2.1,10.0,14.100000000000001,19.9,21.0,16
137,2458.0,-0.1,-0.1,0.30000000000000004,0.1,2.1,10.0,17.200000000000003,20.5,25.1,16
138,2475.0,0.1,-0.1,0.1,0.30000000000000004,2.1,9.5,18.5,23.2,28.400000000000002,16
139,2490.0,0.2,-0.1,-0.1,0.30000000000000004,2.1,9.5,18.4,27.5,29.200000000000003,16
140,2507.0,1.0,-0.1,-0.6000000000000001,0.8,2.2,9.1,16.8,30.1,27.2,16
141,2524.0,2.1,-0.1,-0.2,1.8,2.3000000000000003,9.600000000000001,14.0,30.3,14.0,16
142,2540.0,1.8,0.0,0.1,1.8,2.3000000000000003,9.600000000000001,12.100000000000001,32.5,-7.400000000000001,16
143,2557.0,1.1,0.1,0.7000000000000001,1.1,2.4000000000000004,10.100000000000001,13.5,35.4,-24.7,16
144,2574.0,0.30000000000000004,0.0,0.8,0.5,2.5,10.3,19.1,33.7,-36.300000000000004,16
145,2592.0,-1.3,-1.7000000000000002,0.9,-1.2000000000000002,1.8,10.600000000000001,24.8,25.5,-37.800000000000004,16
146,2607.0,-0.6000000000000001,-0.4,1.3,-1.2000000000000002,1.8,10.600000000000001,27.9,20.3,-26.300000000000004,16
147,2624.0,-1.2000000000000002,0.8,1.1,-1.4000000000000001,3.3000000000000003,10.700000000000001,27.6,22.8,-17.9,16
148,2640.0,-1.6,0.9,0.6000000000000001,-2.2,3.6,9.9,25.6,23.800000000000004,-9.0,16
149,2657.0,-0.9,0.6000000000000001,-0.6000000000000001,-1.6,3.4000000000000004,8.8,15.2,16.900000000000002,-2.0,16
150,2674.0,-0.1,0.30000000000000004,-0.8,-0.9,3.1,8.6,-4.4,11.900000000000002,2.2,16
151,2690.0,0.0,-0.1,-0.8,-0.9,2.7,8.6,-27.2,10.200000000000001,7.200000000000001,16
152,2707.0,0.1,-0.2,-0.6000000000000001,-0.5,2.3000000000000003,8.8,-44.5,4.1,8.899999999999999,16
153,2724.0,-0.4,-0.8,0.7000000000000001,-1.0,1.7000000000000002,10.100000000000001,-47.2,2.7,10.299999999999999,16
154,2740.0,-1.7000000000000002,-2.5,1.4000000000000001,-2.2,0.1,10.8,-34.400000000000006,7.300000000000001,23.6,16
155,2757.0,-0.5,-1.2000000000000002,1.1,-1.0,1.4000000000000001,10.100000000000001,-11.2,21.400000000000002,47.900000000000006,16
156,2774.0,-0.2,-0.9,0.5,-1.0,1.4000000000000001,10.100000000000001,15.5,28.400000000000002,57.9,16
157,2790.0,0.1,-0.6000000000000001,-0.5,-0.8,1.8,9.1,41.0,19.300000000000004,58.3,16
158,2807.0,0.6000000000000001,-0.1,-2.3000000000000003,-0.30000000000000004,2.3000000000000003,8.0,58.2,4.6,54.9,16
159,2824.0,0.4,0.2,-3.0,-0.2,3.0,6.4,49.4,-15.899999999999999,41.199999999999996,16
160,2840.0,0.4,0.30000000000000004,-2.7,-0.30000000000000004,3.1,6.6000000000000005,22.2,-22.1,28.3,16
161,2857.0,0.8,0.1,-1.2000000000000002,0.2,3.0,7.6000000000000005,-8.0,-15.899999999999999,17.300000000000004,16
162,2874.0,0.6000000000000001,0.2,0.6000000000000001,0.0,2.9000000000000004,10.9,-26.300000000000004,-5.8,7.500000000000001,16
163,2890.0,0.5,0.30000000000000004,1.6,0.0,2.9000000000000004,10.9,-28.600000000000005,0.8,-1.1,16
164,2908.0,-0.2,-0.2,1.6,-0.5,2.5,11.200000000000001,-17.0,5.9,-8.8,16
165,2925.0,-0.9,-0.5,0.4,-1.8,2.0,9.5,-7.400000000000001,2.3,-11.900000000000002,16
166,2940.0,-1.2000000000000002,-0.6000000000000001,0.1,-1.8,2.0,9.5,-8.0,-0.4,-10.600000000000001,16
167,2957.0,-1.3,-0.6000000000000001,0.2,-1.9000000000000001,1.9000000000000001,9.600000000000001,-10.600000000000001,-2.8,-8.2,16
168,2975.0,-1.2000000000000002,-0.6000000000000001,0.2,-1.8,1.9000000000000001,9.700000000000001,-9.2,-6.9,-6.4,16
169,2991.0,-1.0,-0.5,-0.1,-1.5,2.0,9.200000000000001,-6.1000000000000005,-11.8,-3.9,16
170,3009.0,-1.0,-0.5,-0.2,-1.5,2.0,9.200000000000001,-3.1,-16.6,-1.2000000000000002,16
171,3024.0,-0.8,-0.30000000000000004,-0.30000000000000004,-1.3,2.1,9.1,-0.6000000000000001,-21.400000000000002,0.7,16
172,3040.0,-0.6000000000000001,-0.2,-0.30000000000000004,-0.8,2.3000000000000003,9.1,-0.1,-22.9,1.6,16
173,3057.0,-0.4,-0.2,-0.4,-0.8,2.3000000000000003,9.1,-0.9000000000000001,-19.700000000000003,2.6,16
174,3074.0,-0.2,0.0,-0.5,-0.5,2.4000000000000004,9.0,-3.1,-14.800000000000002,2.8,16
175,3090.0,0.0,0.2,-0.7000000000000001,-0.30000000000000004,2.6,8.8,-5.7,-10.200000000000001,2.0,16
176,3111.0,0.0,0.4,-0.7000000000000001,-0.4,2.8000000000000003,9.0,-8.8,-9.700000000000001,-0.9000000000000001,16
177,3125.0,-0.30000000000000004,0.30000000000000004,-0.1,-0.5,2.7,9.5,-11.2,-11.5,-4.4,16
178,3140.0,-0.4,0.30000000000000004,0.1,-0.5,2.7,9.5,-11.2,-12.7,-6.2,16
179,3158.0,-0.6000000000000001,0.1,0.1,-0.7000000000000001,2.4000000000000004,9.5,-9.8,-11.8,-6.500000000000001,16
180,3175.0,-0.5,0.2,-0.1,-0.5,2.6,9.3,-8.600000000000001,-9.3,-4.2,16
181,3191.0,-0.4,0.30000000000000004,-0.2,-0.5,2.6,9.3,-6.699999999999999,-8.3,-2.3,16
182,3207.0,-0.4,0.4,0.0,-0.5,2.7,9.4,-3.5,-10.5,-0.9000000000000001,16
183,3224.0,-0.4,0.30000000000000004,0.1,-0.5,2.6,9.600000000000001,0.9000000000000001,-11.6,0.4,16
184,3240.0,-0.5,0.2,0.2,-0.6000000000000001,2.5,9.700000000000001,4.1,-11.8,1.4,16
185,3257.0,-0.8,0.2,0.4,-0.7000000000000001,2.5,9.9,5.8,-11.3,3.0,16
186,3274.0,-0.7000000000000001,0.1,0.4,-0.6000000000000001,2.5,9.9,6.699999999999999,-9.899999999999999,5.300000000000001,16
187,3290.0,-0.4,0.2,0.30000000000000004,-0.4,2.6,9.9,7.300000000000001,-8.100000000000001,7.200000000000001,16
188,3308.0,-0.2,0.30000000000000004,0.4,-0.2,2.7,9.9,9.0,-6.699999999999999,7.200000000000001,16
189,3325.0,-0.2,0.2,-0.2,-0.1,2.7,9.600000000000001,10.5,-3.5,5.1000000000000005,16
190,3340.0,-0.30000000000000004,0.1,-0.5,-0.30000000000000004,2.6,9.0,8.5,-2.0,3.0,16
191,3357.0,-0.5,0.0,-0.7000000000000001,-0.5,2.5,8.8,4.9,-4.6,1.6,16
192,3374.0,-0.5,-0.1,-0.4,-0.5,2.4000000000000004,8.9,2.7,-10.700000000000001,2.2,16
193,3390.0,-0.2,-0.1,-0.2,0.1,2.3000000000000003,9.200000000000001,2.6,-18.200000000000003,2.8,16
194,3407.0,-0.1,-0.2,-0.30000000000000004,0.1,2.3000000000000003,9.200000000000001,1.0,-24.200000000000003,2.6,16
195,3424.0,0.2,-0.1,0.2,0.4,2.4000000000000004,9.5,-4.300000000000001,-28.400000000000002,0.7,16
196,3440.0,0.1,-0.2,1.0,0.4,2.3000000000000003,10.100000000000001,-10.4,-28.500000000000004,-1.6,16
197,3457.0,0.2,-0.2,1.9000000000000001,0.6000000000000001,2.1,11.600000000000001,-11.900000000000002,-27.6,-2.4000000000000004,16
198,3474.0,0.2,-0.30000000000000004,2.2,0.6000000000000001,2.1,11.600000000000001,-8.8,-23.800000000000004,-3.2,16
199,3492.0,0.1,-0.5,1.8,0.6000000000000001,1.9000000000000001,11.5,-2.6,-18.0,-2.9,16
200,3509.0,-0.30000000000000004,-1.1,1.0,0.1,1.7000000000000002,10.5,3.9,-16.6,-1.3,16
201,3524.0,-0.5,-0.6000000000000001,1.0,0.1,1.7000000000000002,10.5,10.200000000000001,-14.200000000000001,3.4,16
202,3541.0,0.2,-0.6000000000000001,-0.7000000000000001,0.6000000000000001,1.8,9.0,12.8,-7.1000000000000005,8.3,16
203,3557.0,0.7000000000000001,-0.2,-0.1,1.2000000000000002,2.2,9.1,13.100000000000001,-13.6,6.4,16
204,3574.0,0.9,-0.2,0.0,1.4000000000000001,2.3000000000000003,9.5,15.6,-13.100000000000001,0.30000000000000004,16
205,3591.0,0.7000000000000001,-0.30000000000000004,0.0,1.4000000000000001,2.3000000000000003,9.5,17.300000000000004,-10.0,-6.4,16
206,3611.0,0.30000000000000004,-0.6000000000000001,-0.30000000000000004,1.1,2.1,9.200000000000001,18.900000000000002,-10.700000000000001,-10.5,16
207,3624.0,0.1,-0.8,-0.9,0.9,1.9000000000000001,8.6,19.9,-14.300000000000002,-10.200000000000001,16
208,3641.0,0.1,-0.8,-0.7000000000000001,0.9,1.9000000000000001,8.6,15.8,-21.500000000000004,-7.8,16
209,3657.0,0.5,-0.6000000000000001,0.2,1.3,2.1,9.5,12.5,-27.5,-5.8,16
210,3674.0,1.0,-0.30000000000000004,0.9,1.8,2.3000000000000003,10.0,10.1,-27.800000000000004,-8.5,16
211,3695.0,1.1,-0.1,0.6000000000000001,2.0,2.6,9.8,7.6,-23.400000000000002,-14.0,16
212,3708.0,0.9,-0.2,0.4,2.0,2.6,9.8,5.300000000000001,-20.7,-21.500000000000004,16
213,3724.0,0.0,-0.7000000000000001,0.6000000000000001,1.2000000000000002,2.3000000000000003,9.9,5.1000000000000005,-19.700000000000003,-25.0,16
214,3741.0,-0.30000000000000004,-0.9,0.1,0.8,1.9000000000000001,9.4,4.0,-10.1,-21.500000000000004,16
215,3757.0,-0.30000000000000004,-0.9,-0.9,0.8,1.9000000000000001,8.5,-2.3,-2.1,-16.200000000000003,16
216,3774.0,-0.30000000000000004,-0.2,-1.2000000000000002,0.8,2.4000000000000004,8.1,-9.4,-0.4,-12.600000000000001,16
217,3790.0,0.1,0.4,-1.4000000000000001,1.0,3.0,8.1,-13.700000000000001,-4.6,-13.200000000000003,16
218,3807.0,0.4,0.4,-2.0,1.1,2.2,6.800000000000001,-16.1,-9.899999999999999,-17.5,16
219,3824.0,-0.2,-0.7000000000000001,-2.7,1.1,2.2,6.800000000000001,-21.7,-14.200000000000001,-21.6,16
220,3840.0,-0.4,0.4,-1.7000000000000002,0.4,1.7000000000000002,7.0,-35.1,-20.5,-11.6,16
221,3857.0,0.8,0.8,-1.4000000000000001,1.8,3.0,8.0,-41.6,-10.200000000000001,-9.3,16
222,3874.0,0.6000000000000001,0.6000000000000001,-1.4000000000000001,1.8,3.0,8.0,-40.7,-11.5,-13.399999999999999,16
223,3891.0,0.9,1.0,-0.5,2.1,3.2,8.8,-38.300000000000004,-17.400000000000002,-18.5,16
224,3907.0,0.4,0.4,-1.1,1.8,2.8000000000000003,8.4,-37.7,-14.400000000000002,-22.4,16
225,3925.0,0.2,0.4,-1.2000000000000002,1.5,2.5,8.200000000000001,-37.6,-19.6,-22.5,16
226,3941.0,0.0,0.5,-0.8,1.4000000000000001,2.5,8.6,-35.699999999999996,-28.900000000000002,-23.900000000000006,16
227,3958.0,-0.30000000000000004,0.1,0.0,1.3,2.2,9.1,-33.2,-38.7,-25.1,16
228,3974.0,-1.1,0.1,1.7000000000000002,0.5,1.9000000000000001,10.9,-30.200000000000003,-25.7,-18.700000000000003,16
229,3990.0,0.0,0.30000000000000004,1.1,1.5,2.0,10.5,-23.6,-17.7,-10.1,16
230,4007.0,1.0,0.8,0.4,2.5,2.5,9.9,-15.700000000000001,-16.5,-9.2,16
231,4024.0,0.8,0.8,0.2,2.5,2.6,9.8,-10.700000000000001,-18.200000000000003,-14.600000000000001,16
232,4041.0,0.2,0.6000000000000001,-0.2,2.0,2.2,9.3,-6.600000000000001,-22.6,-17.9,16
233,4057.0,0.1,0.4,-0.1,2.0,2.2,9.3,-0.4,-36.7,-16.700000000000003,16
234,4075.0,0.5,0.30000000000000004,0.5,2.4000000000000004,2.1,9.8,10.9,-58.2,-10.700000000000001,16
235,4091.0,0.4,0.2,1.4000000000000001,2.5,2.1,10.8,23.800000000000004,-68.2,-6.500000000000001,16
236,4110.0,0.0,1.0,1.6,2.4000000000000004,3.1,10.5,35.9,-47.7,-3.1,16
237,4125.0,0.1,1.1,0.9,2.4000000000000004,3.1,10.5,38.400000000000006,-17.9,-5.300000000000001,16
238,4140.0,0.1,1.3,-0.7000000000000001,2.5,3.4000000000000004,9.0,29.200000000000003,3.5,-8.2,16
239,4157.0,0.0,1.3,-1.0,2.3000000000000003,3.5,8.200000000000001,15.700000000000001,10.600000000000001,-8.899999999999999,16
240,4173.0,-0.4,0.7000000000000001,-0.6000000000000001,1.8,3.0,8.6,4.7,14.300000000000002,-4.5,16
241,4191.0,-0.5,0.5,0.5,1.6,2.8000000000000003,9.4,0.6000000000000001,19.400000000000002,2.5,16
242,4210.0,0.1,0.7000000000000001,1.1,1.0,1.1,10.700000000000001,7.8,19.1,6.4,16
243,4225.0,0.1,-0.1,1.0,2.7,3.2,10.600000000000001,18.5,18.0,11.2,16
244,4240.0,1.1,1.4000000000000001,1.6,2.7,3.2,10.600000000000001,23.5,28.200000000000003,17.9,16
245,4257.0,0.30000000000000004,1.5,0.30000000000000004,2.6,4.1000000000000005,10.200000000000001,27.3,40.9,9.8,16
246,4274.0,0.0,1.0,-0.5,1.8,3.5,8.8,23.2,41.6,4.4,16
247,4290.0,-0.30000000000000004,0.7000000000000001,-0.9,1.4000000000000001,3.3000000000000003,8.4,13.100000000000001,34.400000000000006,5.8,16
248,4307.0,-0.4,0.4,-0.4,1.3,3.0,8.700000000000001,5.0,21.300000000000004,7.6,16
249,4324.0,0.1,0.5,0.7000000000000001,1.9000000000000001,3.0,10.3,6.500000000000001,3.7000000000000006,9.700000000000001,16
250,4340.0,0.2,0.4,1.1,1.9000000000000001,3.0,10.3,12.299999999999999,-8.2,9.8,16
251,4357.0,0.2,0.1,1.5,2.0,2.8000000000000003,10.700000000000001,16.5,-9.2,9.5,16
252,4374.0,0.1,-0.2,1.1,1.8,2.3000000000000003,10.700000000000001,19.300000000000004,-0.9000000000000001,10.0,16
253,4390.0,0.1,-0.5,1.5,1.8,2.3000000000000003,10.700000000000001,20.400000000000002,13.700000000000001,11.8,16
254,4407.0,-0.2,-0.9,0.2,1.6,1.9000000000000001,9.700000000000001,21.900000000000002,25.6,17.5,16
255,4424.0,-0.9,-0.8,-1.5,1.1,2.0,8.200000000000001,35.599999999999994,11.2,20.599999999999998,16
256,4440.0,-1.3,-0.6000000000000001,-1.5,0.4,2.4000000000000004,7.6000000000000005,46.7,-22.1,23.2,16
257,4457.0,-1.2000000000000002,-0.9,-1.5,0.6000000000000001,2.3000000000000003,7.6000000000000005,52.7,-47.5,27.0,16
258,4474.0,-0.5,-0.9,-0.9,1.4000000000000001,2.3000000000000003,8.0,54.1,-62.1,32.2,16
259,4491.0,0.4,-0.8,-2.9000000000000004,2.2,3.4000000000000004,7.300000000000001,51.2,-73.4,32.400000000000006,16
260,4508.0,-0.4,0.0,-1.5,2.6,3.1,8.0,44.9,-100.80000000000001,27.800000000000004,16
261,4524.0,-0.1,-0.5,-0.6000000000000001,2.6,3.1,8.0,34.900000000000006,-103.49999999999999,25.6,16
262,4540.0,1.3,-0.30000000000000004,1.8,4.0,3.1,9.5,24.8,-97.50000000000001,25.5,16
263,4557.0,1.5,-0.7000000000000001,3.2,4.9,2.9000000000000004,11.4,25.1,-70.8,17.0,16
264,4574.0,1.5,-0.7000000000000001,3.0,4.9,2.9000000000000004,11.4,31.5,-42.60000000000001,9.5,16
265,4590.0,0.6000000000000001,-0.6000000000000001,0.6000000000000001,4.3,3.1,9.600000000000001,33.6,-22.5,2.1,16
266,4608.0,0.0,-0.7000000000000001,-1.4000000000000001,3.5,2.9000000000000004,6.6000000000000005,22.3,-14.300000000000002,-2.1,16
267,4624.0,0.0,-0.9,-1.7000000000000002,3.5,2.9000000000000004,6.6000000000000005,7.500000000000001,-12.5,-4.300000000000001,16
268,4640.0,-1.0,-2.3000000000000003,-1.4000000000000001,3.1,1.8,6.800000000000001,-1.6,-15.2,-5.4,16
269,4657.0,-1.0,-0.9,-1.2000000000000002,2.6,2.6,7.1000000000000005,-1.3,-17.7,4.1,16
270,4678.0,-1.3,-1.6,-1.1,2.5,2.1,7.300000000000001,3.6000000000000005,-27.400000000000002,8.3,16
271,4692.0,-1.4000000000000001,-1.7000000000000002,-0.8,2.5,2.1,7.300000000000001,15.100000000000001,-49.50000000000001,14.700000000000001,16
272,4707.0,-1.2000000000000002,-2.0,-0.1,2.7,1.8,7.800000000000001,28.3,-63.10000000000001,23.6,16
273,4723.0,-0.1,-1.8,-0.5,4.2,2.3000000000000003,7.1000000000000005,36.8,-59.699999999999996,32.5,16
274,4740.0,-0.1,-1.5,-0.7000000000000001,4.2,2.3000000000000003,7.1000000000000005,37.50000000000001,-52.80000000000001,33.400000000000006,16
275,4757.0,-0.5,-1.2000000000000002,-1.7000000000000002,4.0,2.6,6.1000000000000005,30.699999999999996,-45.2,33.300000000000004,16
276,4774.0,-0.6000000000000001,-0.30000000000000004,-2.3000000000000003,4.0,3.3000000000000003,5.6000000000000005,18.5,-39.599999999999994,31.9,16
277,4791.0,-0.1,0.30000000000000004,-2.4000000000000004,4.800000000000001,4.2,5.5,1.4,-41.800000000000004,29.400000000000002,16
278,4807.0,0.0,0.5,-1.8,4.800000000000001,4.2,5.5,-17.200000000000003,-44.9,26.300000000000004,16
279,4823.0,0.0,0.2,0.0,5.0,4.0,7.0,-28.700000000000003,-45.6,22.2,16
280,4840.0,-0.1,-0.2,0.7000000000000001,4.9,3.4000000000000004,8.200000000000001,-29.400000000000002,-43.00000000000001,19.400000000000002,16
281,4860.0,-0.30000000000000004,0.2,1.5,5.1000000000000005,3.9000000000000004,8.700000000000001,-24.3,-34.2,20.400000000000002,16
282,4878.0,-0.1,0.6000000000000001,1.2000000000000002,5.1000000000000005,3.9000000000000004,8.700000000000001,-19.9,-23.3,20.0,16
283,4892.0,0.2,1.1,0.9,5.300000000000001,4.3,8.4,-23.6,-11.4,15.000000000000002,16
284,4908.0,0.2,0.9,1.4000000000000001,5.4,3.9000000000000004,9.4,-31.3,-0.7,10.200000000000001,16
285,4924.0,0.1,0.7000000000000001,2.0,5.4,3.9000000000000004,9.4,-34.7,8.4,6.500000000000001,16
286,4942.0,-0.2,0.6000000000000001,2.6,5.1000000000000005,3.7,10.100000000000001,-29.600000000000005,15.5,5.1000000000000005,16
287,4959.0,-0.2,0.7000000000000001,2.1,4.9,3.7,9.4,-21.900000000000002,19.0,5.500000000000001,16
288,4978.0,-0.4,0.7000000000000001,1.4000000000000001,4.800000000000001,3.7,9.0,-20.7,26.799999999999997,7.1000000000000005,16
289,4991.0,-0.2,0.7000000000000001,1.1,4.800000000000001,3.7,9.0,-25.6,35.9,9.899999999999999,16
290,5007.0,0.2,0.7000000000000001,0.6000000000000001,5.1000000000000005,3.6,8.6,-32.2,41.4,10.299999999999999,16
291,5024.0,0.2,0.7000000000000001,0.6000000000000001,5.0,3.5,8.5,-33.7,40.9,6.9,16
292,5042.0,0.4,0.5,0.4,5.2,3.2,8.5,-29.600000000000005,30.5,2.8,16
293,5060.0,0.7000000000000001,0.1,0.30000000000000004,5.4,2.9000000000000004,8.5,-23.6,22.000000000000004,-2.6,16
294,5074.0,0.5,-0.5,-0.5,5.1000000000000005,1.8,7.5,-20.1,16.900000000000002,-7.1000000000000005,16
295,5090.0,0.4,-0.8,-0.7000000000000001,5.1000000000000005,1.8,7.5,-19.799999999999997,7.200000000000001,-6.0,16
296,5107.0,-0.1,-1.2000000000000002,-0.30000000000000004,4.7,1.4000000000000001,7.7,-18.3,-3.9,-0.4,16
297,5124.0,0.5,-1.2000000000000002,-0.4,5.0,1.3,7.800000000000001,-11.5,-18.0,7.9,16
298,5140.0,0.9,-1.2000000000000002,-0.4,5.800000000000001,1.3,7.6000000000000005,-3.4,-33.7,12.0,16
299,5157.0,1.1,-1.2000000000000002,-1.0,6.1000000000000005,1.2000000000000002,7.1000000000000005,-0.30000000000000004,-44.8,13.5,16
300,5173.0,1.6,-0.4,-1.1,6.6000000000000005,1.7000000000000002,7.0,1.0,-54.50000000000001,12.299999999999999,16
301,5190.0,1.2000000000000002,0.2,-0.4,6.4,2.6,7.7,2.4000000000000004,-66.9,5.300000000000001,16
302,5207.0,0.9,0.2,0.1,6.4,2.6,7.7,6.600000000000001,-72.2,-0.7,16
303,5224.0,-0.1,-0.5,-0.4,5.7,2.0,7.4,12.4,-65.10000000000001,-1.6,16
304,5240.0,-0.6000000000000001,-1.1,-2.0,5.2,1.5,6.0,13.900000000000002,-55.60000000000001,3.7000000000000006,16
305,5257.0,-0.2,-1.9000000000000001,-2.5,6.2,0.30000000000000004,4.3,11.2,-53.2,10.200000000000001,16
306,5274.0,0.30000000000000004,-2.2,-3.0,6.2,0.30000000000000004,4.3,10.9,-62.0,13.000000000000002,16
307,5290.0,0.7000000000000001,-2.3000000000000003,-4.5,6.800000000000001,0.1,2.9000000000000004,16.8,-95.30000000000001,8.899999999999999,16
308,5307.0,1.2000000000000002,-3.3000000000000003,-3.7,7.4,-1.3,3.1,23.2,-161.5,-1.9,16
309,5324.0,0.30000000000000004,-3.9000000000000004,-3.0,7.4,-1.3,3.1,30.200000000000003,-215.4,-5.300000000000001,16
310,5340.0,-0.1,-4.5,-2.5,6.6000000000000005,-2.6,3.6,30.200000000000003,-215.4,-5.300000000000001,16
311,5357.0,-1.2000000000000002,-4.0,-0.2,6.5,-2.2,4.5,17.300000000000004,-219.7,40.1,16
312,5376.0,-1.5,-4.1000000000000005,-0.1,7.0,-1.9000000000000001,4.3,-2.7,-175.10000000000002,54.199999999999996,16
313,5391.0,-1.1,-3.9000000000000004,-0.2,7.0,-1.9000000000000001,4.3,-15.700000000000001,-144.5,72.9,16
314,5408.0,-0.4,-3.0,0.30000000000000004,7.9,-1.5,4.1000000000000005,-30.5,-129.00000000000003,87.40000000000002,16
315,5424.0,-0.2,-2.3000000000000003,1.9000000000000001,8.8,-0.8,5.7,-41.7,-103.60000000000001,90.80000000000001,16
316,5440.0,0.1,-1.9000000000000001,1.9000000000000001,8.8,-0.8,5.7,-52.400000000000006,-65.10000000000001,90.5,16
317,5457.0,0.4,-1.8,0.7000000000000001,9.1,-0.9,4.7,-65.5,-35.699999999999996,86.4,16
318,5474.0,-0.1,-1.6,0.1,9.0,-1.2000000000000002,4.0,-78.2,-25.900000000000002,79.8,16
319,5491.0,0.0,-1.6,0.2,9.1,-1.7000000000000002,4.1000000000000005,-89.2,-24.200000000000003,79.5,16
320,5507.0,0.2,-1.7000000000000002,0.6000000000000001,9.1,-1.7000000000000002,4.1000000000000005,-98.3,-28.0,79.7,16
321,5524.0,1.0,-1.2000000000000002,1.7000000000000002,9.600000000000001,-1.8,4.9,-102.60000000000001,-31.6,80.10000000000001,16
322,5540.0,1.3,-0.9,1.9000000000000001,10.200000000000001,-1.6,5.300000000000001,-104.2,-28.500000000000004,76.60000000000001,16
323,5557.0,0.6000000000000001,-1.2000000000000002,2.1,9.600000000000001,-2.1,5.4,-107.19999999999999,-20.8,74.30000000000001,16
324,5574.0,1.3,0.6000000000000001,2.2,10.200000000000001,-1.0,5.4,-116.1,-8.5,72.7,16
325,5590.0,1.0,0.2,1.9000000000000001,9.9,-1.5,5.1000000000000005,-121.30000000000001,-4.6,69.5,16
326,5607.0,1.0,0.5,2.2,9.9,-1.5,5.5,-125.00000000000001,-6.9,68.2,16
327,5623.0,1.0,0.7000000000000001,2.5,9.9,-1.5,5.5,-123.30000000000003,-10.200000000000001,69.9,16
328,5640.0,1.2000000000000002,1.1,3.2,9.9,-1.5,6.0,-116.2,-15.000000000000002,71.8,16
329,5657.0,1.8,1.7000000000000002,4.6000000000000005,10.8,-1.2000000000000002,7.6000000000000005,-105.5,-14.800000000000002,73.5,16
330,5674.0,2.1,1.8,4.800000000000001,10.8,-1.2000000000000002,7.6000000000000005,-94.9,0.6000000000000001,75.60000000000001,16
331,5690.0,1.9000000000000001,2.4000000000000004,3.9000000000000004,10.600000000000001,-1.0,6.800000000000001,-81.90000000000002,6.600000000000001,76.1,16
332,5707.0,1.5,2.8000000000000003,3.1,10.3,-0.8,6.1000000000000005,-70.10000000000001,2.1,73.4,16
333,5724.0,1.5,2.8000000000000003,3.1,10.100000000000001,-0.9,5.9,-57.1,-11.5,74.7,16
334,5740.0,2.2,3.0,3.6,10.600000000000001,-0.9,6.2,-41.50000000000001,-22.1,78.2,16
335,5757.0,3.6,3.7,4.0,11.600000000000001,-0.6000000000000001,6.5,-22.000000000000004,-30.3,76.60000000000001,16
336,5774.0,4.2,4.1000000000000005,3.6,12.9,0.7000000000000001,7.1000000000000005,-2.5,-38.300000000000004,64.60000000000001,16
337,5790.0,4.5,5.1000000000000005,4.7,12.9,0.7000000000000001,7.1000000000000005,12.100000000000001,-34.300000000000004,45.5,16
338,5807.0,4.5,4.0,2.6,12.9,-0.1,5.4,19.6,-16.1,27.099999999999998,16
339,5824.0,3.9000000000000004,3.2,1.3,11.9,-1.5,3.5,15.5,-0.30000000000000004,8.8,16
340,5840.0,3.4000000000000004,2.7,0.9,11.9,-1.5,3.5,5.9,6.0,-0.6000000000000001,16
341,5857.0,3.5,1.9000000000000001,1.2000000000000002,11.9,-2.2,3.8000000000000003,-1.6,6.1000000000000005,-1.8000000000000003,16
342,5873.0,3.8000000000000003,1.7000000000000002,2.5,12.3,-2.5,4.7,0.0,0.30000000000000004,-0.9000000000000001,16
343,5890.0,3.8000000000000003,1.9000000000000001,3.1,12.4,-2.2,5.7,14.5,-5.500000000000001,0.8,16
344,5907.0,3.6,2.7,3.4000000000000004,12.200000000000001,-1.5,6.0,38.0,-13.6,0.6000000000000001,16
345,5924.0,3.1,3.5,3.0,11.9,-0.7000000000000001,5.800000000000001,63.2,-21.7,-3.9,16
346,5940.0,2.4000000000000004,3.9000000000000004,1.9000000000000001,10.8,0.1,4.0,84.0,-27.3,-12.7,16
347,5957.0,1.9000000000000001,3.8000000000000003,1.2000000000000002,10.8,0.1,4.0,96.7,-33.300000000000004,-24.5,16
348,5973.0,0.9,3.1,-0.4,10.0,-0.30000000000000004,2.6,99.9,-41.7,-34.0,16
349,5990.0,1.5,2.4000000000000004,-0.2,10.200000000000001,-0.8,2.3000000000000003,94.0,-50.3,-40.4,16
350,6008.0,1.6,1.1,0.6000000000000001,10.8,-2.2,3.4000000000000004,89.9,-50.900000000000006,-46.7,16
351,6027.0,1.7000000000000002,0.5,0.5,10.9,-2.4000000000000004,2.9000000000000004,90.70000000000002,-48.10000000000001,-48.9,16
352,6040.0,1.6,0.2,0.1,10.9,-2.4000000000000004,2.9000000000000004,90.30000000000001,-40.5,-51.4,16
353,6057.0,1.2000000000000002,-0.1,-0.5,10.700000000000001,-2.4000000000000004,2.0,86.8,-39.0,-53.8,16
354,6075.0,1.3,-0.1,-0.5,10.700000000000001,-2.4000000000000004,2.0,78.7,-39.2,-56.50000000000001,16
355,6094.0,1.8,-0.30000000000000004,0.2,11.200000000000001,-2.3000000000000003,2.5,66.9,-35.5,-63.30000000000001,16
356,6107.0,2.0,-0.9,1.8,11.5,-2.6,3.8000000000000003,57.00000000000001,-23.3,-71.6,16
357,6124.0,1.7000000000000002,-1.7000000000000002,1.9000000000000001,11.0,-3.2,4.4,52.80000000000001,-4.2,-79.19999999999999,16
358,6141.0,1.3,-1.9000000000000001,1.8,11.0,-3.2,4.4,49.699999999999996,13.8,-84.69999999999999,16
359,6157.0,0.5,-2.3000000000000003,1.7000000000000002,10.3,-3.3000000000000003,4.4,46.9,25.4,-86.60000000000001,16
360,6174.0,-0.1,-2.5,1.7000000000000002,9.4,-3.1,4.5,46.0,33.6,-84.2,16
361,6190.0,-0.30000000000000004,-2.5,1.6,9.4,-3.1,4.5,48.10000000000001,35.4,-81.60000000000001,16
362,6207.0,-0.5,-2.8000000000000003,1.3,9.1,-3.1,4.3,52.80000000000001,28.0,-79.5,16
363,6224.0,-0.7000000000000001,-3.2,1.4000000000000001,9.0,-3.1,4.4,57.20000000000001,19.200000000000003,-77.20000000000002,16
364,6240.0,-0.9,-3.3000000000000003,1.5,8.6,-3.2,4.6000000000000005,62.0,13.200000000000003,-73.30000000000001,16
365,6259.0,-1.4000000000000001,-3.6,1.4000000000000001,8.200000000000001,-3.2,4.5,66.5,9.700000000000001,-67.5,16
366,6275.0,-1.8,-3.6,1.1,7.9,-3.0,4.3,69.20000000000002,7.200000000000001,-61.0,16
367,6293.0,-1.9000000000000001,-3.5,0.8,7.5,-2.6,3.8000000000000003,69.4,5.0,-55.0,16
368,6307.0,-2.0,-3.5,0.6000000000000001,7.5,-2.6,3.8000000000000003,68.0,3.1,-49.699999999999996,16
369,6324.0,-2.1,-3.5,0.30000000000000004,7.300000000000001,-2.4000000000000004,3.5,65.4,3.2,-44.10000000000001,16
370,6342.0,-2.0,-3.4000000000000004,-0.1,7.300000000000001,-2.2,3.1,63.2,1.6,-38.50000000000001,16
371,6357.0,-2.1,-3.3000000000000003,-0.2,7.1000000000000005,-1.8,2.8000000000000003,61.199999999999996,0.6000000000000001,-34.300000000000004,16
372,6376.0,-2.5,-3.2,-0.6000000000000001,6.7,-1.7000000000000002,2.4000000000000004,59.00000000000001,1.2000000000000002,-30.799999999999997,16
373,6390.0,-2.7,-3.3000000000000003,-0.9,6.7,-1.7000000000000002,2.4000000000000004,55.60000000000001,1.4,-26.300000000000004,16
374,6409.0,-2.9000000000000004,-3.2,-1.2000000000000002,6.300000000000001,-1.6,1.7000000000000002,49.9,1.2000000000000002,-20.0,16
375,6423.0,-3.0,-3.3000000000000003,-1.3,6.300000000000001,-1.6,1.7000000000000002,43.900000000000006,0.1,-12.9,16
376,6442.0,-3.0,-3.4000000000000004,-1.7000000000000002,6.300000000000001,-1.6,1.4000000000000001,37.9,-1.9,-5.0,16
377,6459.0,-2.9000000000000004,-3.5,-1.8,6.300000000000001,-1.8,1.1,30.4,-4.6,4.4,16
378,6474.0,-2.7,-3.4000000000000004,-1.7000000000000002,6.5,-1.7000000000000002,1.2000000000000002,21.300000000000004,-5.8,14.700000000000001,16
379,6490.0,-2.0,-3.3000000000000003,-1.4000000000000001,7.2,-1.7000000000000002,1.4000000000000001,12.5,-5.500000000000001,23.400000000000002,16
380,6507.0,-1.3,-3.0,-1.2000000000000002,7.800000000000001,-1.6,1.6,5.2,-3.9,28.700000000000003,16
381,6524.0,-1.2000000000000002,-2.8000000000000003,-1.3,8.1,-1.5,1.5,-1.9,-3.7000000000000006,32.300000000000004,16
382,6540.0,-1.2000000000000002,-2.7,-1.4000000000000001,8.1,-1.5,1.5,-11.4,-3.6000000000000005,36.8,16
383,6557.0,-0.7000000000000001,-2.5,-1.3,8.5,-1.4000000000000001,1.5,-22.000000000000004,-3.8,41.1,16
384,6574.0,0.0,-2.6,-0.9,9.1,-1.6,1.8,-32.8,-3.9,43.300000000000004,16
385,6590.0,0.2,-2.7,-0.7000000000000001,9.5,-2.0,2.1,-43.50000000000001,-0.9000000000000001,44.4,16
386,6608.0,0.6000000000000001,-2.9000000000000004,-0.5,9.9,-2.3000000000000003,2.3000000000000003,-53.9,3.7000000000000006,45.3,16
387,6624.0,0.6000000000000001,-3.2,-0.5,9.9,-2.7,2.4000000000000004,-63.70000000000001,6.8,46.9,16
388,6640.0,0.5,-3.2,-0.6000000000000001,9.8,-3.1,2.2,-73.30000000000001,8.3,52.60000000000001,16
389,6657.0,0.8,-2.9000000000000004,-0.5,10.100000000000001,-3.0,2.4000000000000004,-81.7,6.0,59.20000000000001,16
390,6674.0,1.4000000000000001,-2.4000000000000004,-0.1,10.600000000000001,-2.9000000000000004,2.7,-87.80000000000001,1.9,63.900000000000006,16
391,6692.0,1.8,-2.0,0.30000000000000004,11.100000000000001,-2.8000000000000003,3.0,-92.60000000000001,-1.8000000000000003,65.10000000000001,16
392,6707.0,1.4000000000000001,-1.5,0.9,10.5,-2.5,3.9000000000000004,-96.0,-2.8,64.7,16
393,6725.0,1.1,-1.2000000000000002,1.2000000000000002,10.5,-2.5,3.9000000000000004,-96.7,-1.1,66.2,16
394,6740.0,0.7000000000000001,-0.4,1.8,10.0,-2.1,4.4,-91.6,0.7,70.2,16
395,6757.0,0.7000000000000001,0.9,2.1,10.100000000000001,-0.5,4.800000000000001,-77.60000000000001,1.1,73.4,16
396,6774.0,0.9,1.5,2.1,10.100000000000001,-0.5,4.800000000000001,-57.60000000000001,-2.9,72.0,16
397,6791.0,1.3,2.1,1.5,10.4,-0.1,4.3,-37.7,-11.1,65.0,16
398,6808.0,1.7000000000000002,2.1,0.9,10.8,-0.2,3.7,-24.400000000000002,-19.1,54.50000000000001,16
399,6823.0,1.7000000000000002,1.9000000000000001,0.7000000000000001,10.9,-0.5,3.3000000000000003,-19.200000000000003,-23.5,44.00000000000001,16
400,6840.0,1.7000000000000002,1.3,0.30000000000000004,10.9,-1.1,2.9000000000000004,-20.900000000000002,-25.6,37.0,16
401,6857.0,2.0,0.9,0.6000000000000001,11.100000000000001,-1.6,2.9000000000000004,-27.3,-25.6,34.0,16
402,6873.0,2.3000000000000003,0.9,1.0,11.700000000000001,-1.7000000000000002,3.4000000000000004,-33.7,-21.0,32.9,16
403,6890.0,2.5,1.2000000000000002,1.1,11.700000000000001,-1.7000000000000002,3.4000000000000004,-39.300000000000004,-14.400000000000002,30.1,16
404,6907.0,2.9000000000000004,1.9000000000000001,1.2000000000000002,12.0,-1.1,3.4000000000000004,-44.7,-6.0,22.000000000000004,16
405,6923.0,2.5,2.3000000000000003,1.3,12.0,-0.7000000000000001,3.5,-50.3,4.2,8.2,16
406,6940.0,2.0,2.3000000000000003,1.2000000000000002,11.200000000000001,-0.6000000000000001,3.4000000000000004,-56.0,16.8,-5.300000000000001,16
407,6957.0,0.8,2.1,0.9,10.200000000000001,-0.8,3.2,-60.1,27.2,-14.400000000000002,16
408,6974.0,-0.1,1.8,0.9,9.3,-1.1,3.2,-60.2,34.1,-17.200000000000003,16
409,6991.0,-0.4,1.8,0.7000000000000001,8.6,-1.0,2.7,-55.7,36.400000000000006,-16.900000000000002,16
410,7007.0,-0.6000000000000001,1.9000000000000001,0.30000000000000004,8.6,-1.0,2.7,-47.60000000000001,30.000000000000004,-16.5,16
411,7024.0,-0.6000000000000001,1.7000000000000002,0.2,8.6,-1.1,2.6,-39.699999999999996,21.400000000000002,-16.3,16
412,7043.0,-0.5,1.6,0.2,8.700000000000001,-1.1,2.6,-32.8,15.6,-15.700000000000001,16
413,7058.0,-0.6000000000000001,1.4000000000000001,0.1,8.6,-1.3,2.4000000000000004,-28.200000000000003,13.200000000000003,-14.800000000000002,16
414,7075.0,-0.7000000000000001,1.4000000000000001,-0.1,8.6,-1.3,2.4000000000000004,-27.800000000000004,15.899999999999999,-12.7,16
415,7091.0,-0.6000000000000001,1.5,-0.30000000000000004,8.5,-1.2000000000000002,2.2,-29.0,17.200000000000003,-10.299999999999999,16
416,7107.0,-0.4,1.4000000000000001,-0.2,8.8,-1.4000000000000001,2.4000000000000004,-28.700000000000003,14.5,-8.0,16
417,7126.0,-0.30000000000000004,1.3,0.0,9.1,-1.3,2.5,-26.5,12.0,-5.300000000000001,16
418,7140.0,0.0,1.4000000000000001,0.0,9.1,-1.3,2.5,-21.8,9.5,-2.9,16
419,7157.0,0.30000000000000004,1.5,-0.1,9.5,-1.0,2.3000000000000003,-16.1,6.9,-1.9,16
420,7178.0,0.30000000000000004,1.8,-0.30000000000000004,9.600000000000001,-0.9,2.3000000000000003,-11.900000000000002,5.2,-2.4000000000000004,16
421,7190.0,0.4,1.7000000000000002,-0.2,9.600000000000001,-0.9,2.3000000000000003,-9.4,4.2,-3.9,16
422,7207.0,0.4,1.6,0.1,9.600000000000001,-1.0,2.6,-8.4,9.0,-4.6,16
423,7223.0,0.30000000000000004,1.5,-0.2,9.5,-1.2000000000000002,2.3000000000000003,-6.2,13.6,-5.0,16
424,7241.0,0.30000000000000004,1.3,-0.30000000000000004,9.5,-1.2000000000000002,2.3000000000000003,-2.0,11.3,-4.7,16
425,7257.0,0.4,1.0,-0.30000000000000004,9.5,-1.5,2.3000000000000003,3.0,6.9,-2.5,16
426,7274.0,0.9,1.0,-0.1,10.4,-1.4000000000000001,2.7,8.4,1.3,-0.4,16
427,7290.0,1.1,1.0,0.1,10.5,-1.3,2.7,13.000000000000002,-1.5,-0.6000000000000001,16
428,7307.0,1.3,1.1,0.1,10.5,-1.3,2.7,14.800000000000002,0.8,-2.7,16
429,7323.0,1.1,1.1,-0.1,10.4,-1.2000000000000002,2.6,13.700000000000001,4.2,-5.500000000000001,16
430,7342.0,1.0,1.0,-0.1,10.200000000000001,-1.3,2.6,11.4,6.4,-7.9,16
431,7359.0,1.0,0.6000000000000001,0.0,10.3,-1.7000000000000002,2.6,9.100000000000001,6.4,-9.600000000000001,16
432,7373.0,1.2000000000000002,0.2,0.30000000000000004,10.5,-2.0,2.9000000000000004,7.6,5.4,-10.9,16
433,7392.0,1.1,-0.2,0.5,10.4,-2.6,3.3000000000000003,7.6,4.6,-11.700000000000001,16
434,7408.0,1.2000000000000002,-0.6000000000000001,0.6000000000000001,10.600000000000001,-2.8000000000000003,3.6,6.8,4.1,-10.5,16
435,7424.0,1.2000000000000002,-0.7000000000000001,0.8,10.600000000000001,-2.8000000000000003,3.6,5.6,4.4,-7.300000000000001,16
436,7440.0,1.3,-0.7000000000000001,1.2000000000000002,10.600000000000001,-2.9000000000000004,3.9000000000000004,6.699999999999999,3.7000000000000006,-3.2,16
437,7457.0,1.4000000000000001,-0.6000000000000001,1.5,10.8,-2.6,4.4,12.0,0.30000000000000004,1.8000000000000003,16
438,7474.0,1.4000000000000001,-0.4,1.5,10.8,-2.6,4.4,20.2,-5.0,6.600000000000001,16
439,7490.0,1.4000000000000001,0.1,1.6,10.8,-2.2,4.4,30.1,-13.000000000000002,9.899999999999999,16
440,7508.0,1.4000000000000001,0.9,1.8,10.700000000000001,-0.9,4.7,40.4,-20.400000000000002,10.0,16
441,7524.0,1.3,1.3,1.9000000000000001,10.700000000000001,-0.9,4.7,50.1,-22.9,5.7,16
442,7540.0,1.1,1.7000000000000002,1.8,10.600000000000001,-0.4,4.6000000000000005,58.0,-21.0,-3.4,16
443,7557.0,0.5,1.2000000000000002,1.3,10.200000000000001,-0.5,4.3,62.1,-14.300000000000002,-14.800000000000002,16
444,7574.0,-0.30000000000000004,0.30000000000000004,1.0,8.9,-1.8,3.7,63.10000000000001,-5.7,-22.5,16
445,7590.0,-0.6000000000000001,-0.2,0.9,8.9,-1.8,3.7,65.2,0.0,-24.200000000000003,16
446,7607.0,-0.9,-1.0,0.7000000000000001,8.6,-2.4000000000000004,3.6,71.0,-0.9000000000000001,-20.3,16
447,7626.0,-0.6000000000000001,-1.4000000000000001,0.7000000000000001,9.1,-2.9000000000000004,3.6,80.2,-7.8,-13.200000000000003,16
448,7644.0,-0.2,-1.5,0.6000000000000001,9.600000000000001,-2.8000000000000003,3.3000000000000003,90.5,-15.8,-6.0,16
449,7659.0,0.2,-1.4000000000000001,0.4,9.600000000000001,-2.8000000000000003,3.3000000000000003,98.50000000000001,-21.8,-0.2,16
450,7674.0,0.9,-1.1,-0.1,10.3,-2.5,2.9000000000000004,100.6,-26.300000000000004,0.0,16
451,7691.0,0.9,-0.9,-0.30000000000000004,10.4,-1.9000000000000001,2.4000000000000004,96.0,-27.400000000000002,-5.4,16
452,7708.0,0.8,-0.8,-0.4,10.4,-1.9000000000000001,2.4000000000000004,86.89999999999999,-25.200000000000003,-12.299999999999999,16
453,7731.0,0.1,-0.8,-0.5,9.8,-1.7000000000000002,2.2,60.1,-13.100000000000001,-25.300000000000004,16
454,7741.0,0.0,-0.9,-0.5,9.700000000000001,-1.7000000000000002,2.1,60.1,-13.100000000000001,-25.300000000000004,16
455,7758.0,0.0,-0.9,-0.5,9.700000000000001,-1.7000000000000002,2.1,44.7,-5.6,-30.9,16
456,7774.0,-0.1,-1.3,-0.30000000000000004,9.600000000000001,-1.8,2.3000000000000003,30.599999999999998,0.4,-37.2,16
457,7792.0,-0.4,-1.8,-0.1,9.4,-2.1,2.5,19.200000000000003,4.9,-42.60000000000001,16
458,7810.0,-0.9,-2.2,0.0,8.6,-2.6,2.9000000000000004,10.8,8.3,-45.099999999999994,16
459,7824.0,-1.1,-2.4000000000000004,0.1,8.6,-2.6,2.9000000000000004,5.500000000000001,10.1,-44.8,16
460,7840.0,-1.5,-2.5,0.1,8.200000000000001,-2.7,2.9000000000000004,2.9,11.1,-42.3,16
461,7857.0,-1.9000000000000001,-2.5,-0.2,7.6000000000000005,-2.5,2.5,1.2000000000000002,11.5,-38.60000000000001,16
462,7874.0,-2.1,-2.5,-0.4,7.6000000000000005,-2.5,2.5,-0.6000000000000001,10.700000000000001,-34.1,16
463,7890.0,-2.1,-2.3000000000000003,-0.4,7.5,-2.3000000000000003,2.5,-2.4000000000000004,9.8,-29.300000000000004,16
464,7907.0,-2.2,-2.3000000000000003,-0.30000000000000004,7.4,-2.2,2.6,-3.1,10.1,-25.4,16
465,7924.0,-2.6,-2.1,-0.4,6.800000000000001,-1.8,2.5,-2.6,12.5,-21.0,16
466,7944.0,-2.7,-2.0,-0.6000000000000001,6.800000000000001,-1.8,2.5,0.8,10.700000000000001,-10.4,16
467,7957.0,-2.9000000000000004,-1.9000000000000001,-0.8,6.6000000000000005,-1.7000000000000002,2.3000000000000003,0.8,10.700000000000001,-10.4,16
468,7976.0,-2.7,-2.0,-1.1,6.9,-2.0,1.8,1.7,6.8,-4.300000000000001,16
469,7992.0,-2.6,-2.2,-1.2000000000000002,6.9,-2.0,1.8,0.30000000000000004,0.8,2.0,16
470,8016.0,-1.7000000000000002,-2.8000000000000003,-1.0,7.800000000000001,-2.8000000000000003,2.1,-8.8,-6.9,20.599999999999998,16
471,8025.0,-1.3,-2.8000000000000003,-0.8,7.800000000000001,-2.8000000000000003,2.1,-8.8,-6.9,20.599999999999998,16
472,8042.0,-0.30000000000000004,-2.5,-0.5,9.5,-2.6,2.4000000000000004,-12.5,-9.600000000000001,29.500000000000004,16
473,8058.0,0.2,-2.3000000000000003,-0.5,9.5,-2.6,2.4000000000000004,-16.3,-12.9,34.7,16
474,8074.0,0.9,-2.2,-0.5,10.200000000000001,-2.6,2.3000000000000003,-22.9,-15.6,36.6,16
475,8090.0,1.1,-2.2,-0.4,10.600000000000001,-2.6,2.5,-33.7,-14.400000000000002,37.400000000000006,16
476,8110.0,1.2000000000000002,-1.9000000000000001,-0.2,10.700000000000001,-2.5,2.6,-46.1,-9.100000000000001,37.400000000000006,16
477,8124.0,1.4000000000000001,-1.8,-0.1,10.9,-2.6,2.6,-59.20000000000001,-5.0,36.300000000000004,16
478,8140.0,1.5,-1.9000000000000001,0.30000000000000004,10.9,-2.9000000000000004,2.9000000000000004,-72.30000000000001,0.30000000000000004,35.599999999999994,16
479,8157.0,1.3,-1.7000000000000002,1.0,10.700000000000001,-2.9000000000000004,4.1000000000000005,-81.60000000000001,5.4,36.400000000000006,16
480,8174.0,1.2000000000000002,-1.6,1.5,10.700000000000001,-2.9000000000000004,4.1000000000000005,-83.89999999999999,8.4,38.7,16
481,8191.0,1.0,-1.0,2.0,10.5,-2.7,4.6000000000000005,-77.7,9.8,42.900000000000006,16
482,8207.0,0.9,-0.6000000000000001,2.2,10.3,-2.2,4.9,-62.800000000000004,6.9,48.0,16
483,8224.0,0.9,0.5,2.2,10.3,-1.4000000000000001,4.9,-41.7,-0.7,51.1,16
484,8241.0,1.0,1.5,1.8,10.4,-0.7000000000000001,4.6000000000000005,-18.900000000000002,-9.700000000000001,49.800000000000004,16
485,8257.0,0.8,2.3000000000000003,0.8,10.3,-0.1,3.8000000000000003,-1.8000000000000003,-15.5,44.10000000000001,16
486,8276.0,1.0,2.6,0.2,10.4,0.4,2.5,6.1000000000000005,-17.200000000000003,35.8,16
487,8290.0,1.1,2.6,-0.1,10.4,0.4,2.5,6.4,-14.600000000000001,25.0,16
488,8307.0,1.0,2.2,-0.7000000000000001,10.4,0.1,2.0,-0.4,-8.4,13.000000000000002,16
489,8324.0,0.9,1.6,-1.0,10.4,-0.9,1.6,-12.4,-2.2,3.2,16
490,8342.0,1.2000000000000002,1.0,-0.7000000000000001,10.700000000000001,-1.4000000000000001,1.9000000000000001,-25.1,2.0,-3.5,16
491,8357.0,1.3,0.8,-0.5,10.700000000000001,-1.4000000000000001,1.9000000000000001,-35.599999999999994,5.2,-8.600000000000001,16
492,8373.0,1.6,0.6000000000000001,0.1,10.9,-1.6,2.4000000000000004,-42.5,7.699999999999999,-13.8,16
493,8390.0,1.7000000000000002,0.6000000000000001,0.4,11.100000000000001,-1.7000000000000002,2.9000000000000004,-46.800000000000004,11.8,-20.400000000000002,16
494,8407.0,1.3,0.4,0.5,10.8,-1.8,3.0,-49.9,18.1,-27.800000000000004,16
495,8423.0,0.4,0.2,0.30000000000000004,10.100000000000001,-1.9000000000000001,2.9000000000000004,-53.2,24.5,-32.5,16
496,8440.0,0.0,0.1,0.30000000000000004,9.4,-1.9000000000000001,2.9000000000000004,-55.400000000000006,27.700000000000003,-33.7,16
497,8457.0,-0.5,0.1,0.4,9.0,-1.9000000000000001,3.0,-53.2,27.400000000000002,-32.7,16
498,8474.0,-0.7000000000000001,0.30000000000000004,0.4,8.8,-1.7000000000000002,3.1,-46.300000000000004,24.8,-31.2,16
499,8490.0,-1.0,0.4,0.0,8.5,-1.5,2.9000000000000004,-37.400000000000006,21.200000000000003,-30.1,16
500,8508.0,-1.1,0.4,-0.5,8.3,-1.4000000000000001,2.2,-30.5,17.7,-29.500000000000004,16
501,8524.0,-1.2000000000000002,0.30000000000000004,-0.7000000000000001,8.3,-1.4000000000000001,2.2,-26.9,15.5,-29.1,16
502,8542.0,-1.3,0.2,-0.9,8.1,-1.5,2.0,-25.8,14.200000000000001,-28.600000000000005,16
503,8558.0,-1.6,-0.1,-1.1,7.6000000000000005,-1.9000000000000001,1.6,-26.700000000000003,14.5,-27.0,16
504,8573.0,-1.8,-0.30000000000000004,-1.2000000000000002,7.6000000000000005,-1.9000000000000001,1.6,-29.0,14.800000000000002,-22.8,16
505,8590.0,-2.0,-0.4,-1.2000000000000002,7.4,-2.0,1.6,-31.9,14.5,-15.399999999999999,16
506,8608.0,-1.8,-0.30000000000000004,-1.1,7.7,-1.9000000000000001,1.9000000000000001,-33.50000000000001,12.7,-7.1000000000000005,16
507,8624.0,-1.6,-0.30000000000000004,-1.0,7.7,-1.9000000000000001,1.9000000000000001,-33.400000000000006,10.5,-0.1,16
508,8640.0,-1.2000000000000002,-0.1,-0.7000000000000001,8.0,-1.8,2.2,-31.5,8.3,5.0,16
509,8657.0,-1.1,0.1,-0.5,8.200000000000001,-1.7000000000000002,2.4000000000000004,-29.0,8.0,8.600000000000001,16
510,8674.0,-1.0,0.30000000000000004,-0.6000000000000001,8.3,-1.5,2.4000000000000004,-26.799999999999997,9.100000000000001,12.600000000000001,16
511,8690.0,-1.0,0.4,-0.5,8.3,-1.5,2.4000000000000004,-25.0,9.0,16.1,16
512,8707.0,-1.0,0.4,-0.5,8.200000000000001,-1.5,2.4000000000000004,-22.1,6.9,19.6,16
513,8723.0,-0.9,0.2,-0.4,8.5,-2.0,2.8000000000000003,-18.5,2.9,25.5,16
514,8743.0,-0.7000000000000001,0.2,-0.1,8.5,-2.0,2.8000000000000003,-14.600000000000001,-0.9000000000000001,32.8,16
515,8758.0,0.1,0.2,0.4,9.1,-2.0,3.2,-9.100000000000001,-2.7,39.9,16
516,8773.0,1.0,0.7000000000000001,0.8,9.9,-1.8,3.6,-1.0,-2.5,43.800000000000004,16
517,8790.0,1.6,1.1,0.7000000000000001,10.700000000000001,-1.3,3.4000000000000004,8.3,-2.8,42.900000000000006,16
518,8808.0,1.6,1.3,0.5,10.700000000000001,-1.3,3.4000000000000004,15.8,-4.1,38.800000000000004,16
519,8823.0,1.5,1.3,0.1,10.600000000000001,-1.3,3.0,18.900000000000002,-6.2,34.50000000000001,16
520,8840.0,1.7000000000000002,1.1,0.0,10.8,-1.6,2.9000000000000004,16.1,-6.699999999999999,31.5,16
521,8858.0,1.8,0.5,0.5,11.0,-2.5,3.6,11.000000000000002,-4.800000000000001,29.900000000000006,16
522,8873.0,2.0,0.2,0.8,11.0,-2.5,3.6,6.699999999999999,-3.4,30.599999999999998,16
523,8891.0,2.3000000000000003,-0.1,1.5,11.3,-2.9000000000000004,4.2,5.500000000000001,-2.1,33.6,16
524,8907.0,2.4000000000000004,0.4,1.9000000000000001,11.5,-2.4000000000000004,4.800000000000001,9.600000000000001,-0.9000000000000001,37.800000000000004,16
525,8924.0,2.4000000000000004,0.7000000000000001,1.9000000000000001,11.5,-2.4000000000000004,4.800000000000001,18.900000000000002,-4.7,41.0,16
526,8940.0,2.5,1.3,2.0,11.5,-1.9000000000000001,4.9,31.3,-13.8,42.5,16
527,8957.0,2.4000000000000004,2.0,2.3000000000000003,11.3,-0.8,5.300000000000001,45.2,-23.400000000000002,41.900000000000006,16
528,8974.0,2.2,2.5,2.4000000000000004,11.3,-0.8,5.300000000000001,60.2,-30.599999999999998,38.900000000000006,16
529,8990.0,2.3000000000000003,3.6,2.5,11.3,0.2,5.4,74.4,-32.9,31.0,16
530,9007.0,2.3000000000000003,3.9000000000000004,2.2,11.4,0.8,5.300000000000001,84.69999999999999,-29.0,15.100000000000001,16
531,9023.0,2.0,3.5,1.7000000000000002,11.100000000000001,0.4,4.6000000000000005,88.60000000000001,-20.2,-3.7000000000000006,16
532,9046.0,0.30000000000000004,1.4000000000000001,0.4,9.3,-1.6,3.4000000000000004,87.60000000000001,-12.600000000000001,-15.8,16
533,9057.0,0.0,0.9,0.30000000000000004,9.3,-1.6,3.4000000000000004,86.7,-11.3,-17.799999999999997,16
534,9076.0,0.1,0.4,0.6000000000000001,9.600000000000001,-2.2,3.8000000000000003,91.10000000000001,-17.400000000000002,-12.8,16
535,9091.0,0.8,0.4,0.6000000000000001,10.3,-2.0,3.6,100.1,-26.200000000000003,-8.600000000000001,16
536,9107.0,1.1,0.5,0.5,10.3,-2.0,3.6,108.3,-33.0,-9.100000000000001,16
537,9124.0,1.4000000000000001,0.4,0.0,10.700000000000001,-1.9000000000000001,3.2,110.80000000000001,-36.400000000000006,-14.200000000000001,16
538,9140.0,1.3,0.2,-0.30000000000000004,10.700000000000001,-1.9000000000000001,2.7,105.60000000000002,-35.8,-20.3,16
539,9158.0,1.3,0.1,-0.6000000000000001,10.700000000000001,-1.8,2.4000000000000004,95.1,-33.800000000000004,-26.200000000000003,16
540,9173.0,1.2000000000000002,0.1,-0.7000000000000001,10.700000000000001,-1.7000000000000002,2.3000000000000003,81.4,-31.7,-33.2,16
541,9190.0,1.3,-0.1,-0.7000000000000001,10.9,-1.7000000000000002,2.3000000000000003,64.9,-27.700000000000003,-41.1,16
542,9207.0,1.3,-0.30000000000000004,-0.5,10.9,-1.7000000000000002,2.3000000000000003,46.6,-21.1,-50.2,16
543,9224.0,1.0,-0.9,-0.30000000000000004,10.700000000000001,-2.0,2.5,28.500000000000004,-13.000000000000002,-58.7,16
544,9240.0,0.7000000000000001,-1.5,0.30000000000000004,10.5,-2.4000000000000004,2.9000000000000004,12.8,-4.300000000000001,-64.60000000000001,16
545,9257.0,0.1,-1.9000000000000001,0.8,9.600000000000001,-2.7,3.7,3.3000000000000007,3.0,-68.5,16
546,9273.0,-0.2,-2.0,0.9,9.600000000000001,-2.7,3.7,-0.7,6.300000000000001,-70.3,16
547,9290.0,-0.6000000000000001,-2.2,1.1,9.200000000000001,-2.7,4.0,-0.6000000000000001,8.100000000000001,-70.7,16
548,9307.0,-0.8,-2.3000000000000003,0.9,8.8,-2.6,3.8000000000000003,2.6,8.100000000000001,-70.7,16
549,9323.0,-0.9,-2.4000000000000004,0.8,8.8,-2.6,3.8000000000000003,6.4,7.500000000000001,-70.8,16
550,9340.0,-1.1,-2.5,0.6000000000000001,8.5,-2.6,3.4000000000000004,6.4,7.500000000000001,-70.8,16
551,9361.0,-1.6,-2.9000000000000004,-0.30000000000000004,8.200000000000001,-2.6,2.9000000000000004,7.300000000000001,9.0,-69.3,16
552,9376.0,-2.1,-3.1,-0.6000000000000001,7.2,-2.6,2.4000000000000004,4.4,9.899999999999999,-67.2,16
553,9393.0,-2.6,-3.2,-0.8,6.9,-2.6,2.3000000000000003,-1.5,12.5,-58.0,16
554,9407.0,-2.8000000000000003,-3.3000000000000003,-0.8,6.9,-2.6,2.3000000000000003,-1.5,12.5,-58.0,16
555,9423.0,-3.3000000000000003,-3.6,-1.1,6.0,-2.8000000000000003,1.9000000000000001,-2.9,13.200000000000003,-51.1,16
556,9443.0,-3.4000000000000004,-3.8000000000000003,-1.3,6.0,-2.9000000000000004,1.9000000000000001,-3.4,10.8,-42.0,16
557,9459.0,-3.4000000000000004,-3.9000000000000004,-1.2000000000000002,6.0,-2.9000000000000004,1.9000000000000001,-2.9,7.1000000000000005,-31.3,16
558,9478.0,-3.4000000000000004,-4.1000000000000005,-1.4000000000000001,6.0,-3.1,1.9000000000000001,-1.6,3.0,-19.9,16
559,9493.0,-3.2,-4.1000000000000005,-1.7000000000000002,6.300000000000001,-3.2,1.4000000000000001,-1.9,-3.9,-6.300000000000001,16
560,9507.0,-3.0,-4.0,-1.7000000000000002,6.300000000000001,-3.2,1.4000000000000001,-6.1000000000000005,-10.600000000000001,7.9,16
561,9524.0,-2.2,-3.6,-1.5,6.9,-3.0,1.5,-14.0,-14.400000000000002,20.400000000000002,16
562,9540.0,-1.8,-3.4000000000000004,-1.3,7.7,-2.7,1.7000000000000002,-23.400000000000002,-15.899999999999999,28.200000000000003,16
563,9557.0,-1.3,-3.1,-0.8,8.0,-2.6,2.1,-32.8,-13.700000000000001,33.2,16
564,9573.0,-1.0,-3.0,-0.6000000000000001,8.3,-2.7,2.3000000000000003,-40.800000000000004,-10.700000000000001,38.50000000000001,16
565,9591.0,-0.4,-3.0,-0.4,8.700000000000001,-2.8000000000000003,2.5,-46.7,-10.8,44.2,16
566,9610.0,0.30000000000000004,-3.0,-0.30000000000000004,10.0,-3.2,2.6,-52.1,-12.8,50.0,16
567,9626.0,0.7000000000000001,-3.0,-0.2,10.0,-3.2,2.6,-65.7,-19.700000000000003,59.80000000000001,16
568,9644.0,1.3,-3.0,0.1,10.600000000000001,-3.5,2.8000000000000003,-65.7,-19.700000000000003,59.80000000000001,16
569,9660.0,2.0,-2.9000000000000004,0.6000000000000001,11.700000000000001,-3.6,3.5,-75.1,-20.7,64.4,16
570,9675.0,2.3000000000000003,-2.6,0.9,11.700000000000001,-3.6,3.5,-84.6,-18.5,68.0,16
571,9690.0,2.9000000000000004,-1.5,1.8,12.200000000000001,-3.0,4.2,-91.7,-12.5,68.1,16
572,9707.0,2.8000000000000003,-0.2,2.7,12.4,-2.2,5.0,-94.4,-0.5,62.1,16
573,9723.0,2.5,0.5,2.7,11.9,-1.3,5.2,-91.7,13.5,52.400000000000006,16
574,9740.0,1.3,1.5,2.4000000000000004,10.9,-0.6000000000000001,5.0,-83.80000000000001,22.2,42.5,16
575,9757.0,0.1,2.0,1.8,9.8,-0.2,4.6000000000000005,-70.7,22.000000000000004,35.8,16
576,9774.0,-0.2,2.0,1.7000000000000002,9.4,-0.30000000000000004,4.4,-53.10000000000001,11.6,33.0,16
577,9790.0,0.1,1.9000000000000001,1.8,9.4,-0.30000000000000004,4.4,-33.300000000000004,-1.0,31.7,16
578,9807.0,0.7000000000000001,1.6,1.8,9.9,-0.7000000000000001,4.4,-13.5,-11.000000000000002,29.200000000000003,16
579,9823.0,1.0,1.2000000000000002,1.3,10.200000000000001,-1.0,4.1000000000000005,2.0,-16.900000000000002,25.200000000000003,16
580,9842.0,1.1,1.0,0.9,10.4,-1.5,3.4000000000000004,8.2,-18.4,22.1,16
581,9857.0,1.4000000000000001,0.6000000000000001,0.30000000000000004,10.700000000000001,-1.8,2.8000000000000003,5.300000000000001,-15.399999999999999,20.1,16
582,9876.0,1.8,0.6000000000000001,-0.2,11.0,-1.9000000000000001,2.4000000000000004,-4.7,-9.899999999999999,18.0,16
583,9890.0,1.9000000000000001,0.9,-0.5,11.100000000000001,-1.5,1.9000000000000001,-19.700000000000003,-2.5,13.200000000000003,16
584,9907.0,1.7000000000000002,1.1,-0.5,11.100000000000001,-1.5,1.9000000000000001,-37.300000000000004,6.4,5.8,16
585,9923.0,0.9,1.4000000000000001,-0.2,10.4,-1.3,2.1,-54.50000000000001,15.8,-1.6,16
586,9942.0,0.1,1.5,0.5,9.700000000000001,-1.2000000000000002,2.7,-65.2,22.6,-6.600000000000001,16
587,9957.0,-0.2,1.5,0.8,8.700000000000001,-1.2000000000000002,3.6,-66.9,25.4,-9.2,16
588,9974.0,-0.7000000000000001,1.4000000000000001,1.1,8.700000000000001,-1.2000000000000002,3.6,-61.0,24.7,-10.0,16
589,9990.0,-1.1,1.4000000000000001,1.1,8.3,-1.3,3.6,-49.699999999999996,21.400000000000002,-8.5,16
590,10007.0,-1.2000000000000002,1.5,0.9,8.1,-1.2000000000000002,3.4000000000000004,-35.5,14.300000000000002,-4.5,16
591,10024.0,-0.9,1.6,0.5,8.4,-1.1,3.0,-23.0,6.699999999999999,-1.3,16
592,10040.0,-0.6000000000000001,1.7000000000000002,0.0,8.6,-1.0,2.6,-16.3,3.2,0.2,16
593,10058.0,-0.4,1.8,-0.30000000000000004,8.9,-1.0,2.1,-15.700000000000001,3.1,0.0,16
594,10078.0,-0.4,1.7000000000000002,-0.4,8.9,-1.0,2.1,-18.3,5.1000000000000005,-0.9000000000000001,16
595,10091.0,-0.4,1.6,-0.4,8.9,-1.0,2.1,-21.8,8.600000000000001,-1.2000000000000002,16
596,10108.0,-0.4,1.6,-0.5,8.9,-1.1,2.1,-24.900000000000002,10.600000000000001,-0.9000000000000001,16
597,10123.0,-0.30000000000000004,1.5,-0.2,8.9,-1.3,2.5,-26.1,9.899999999999999,-0.2,16
598,10140.0,-0.30000000000000004,1.4000000000000001,0.0,8.9,-1.3,2.5,-24.8,8.0,0.9000000000000001,16
599,10157.0,-0.30000000000000004,1.5,0.5,9.0,-1.3,2.9000000000000004,-20.400000000000002,6.0,2.4000000000000004,16
600,10173.0,-0.30000000000000004,1.5,0.7000000000000001,9.0,-1.2000000000000002,3.3000000000000003,-13.3,4.6,4.5,16
601,10191.0,-0.2,1.6,0.8,9.0,-1.2000000000000002,3.3000000000000003,-4.1,3.7000000000000006,7.1000000000000005,16
602,10207.0,0.0,1.8,0.5,9.200000000000001,-1.0,3.1,5.500000000000001,2.3,8.4,16
603,10233.0,0.30000000000000004,1.5,0.0,9.4,-1.1,2.7,11.8,0.6000000000000001,8.600000000000001,16
604,10240.0,0.5,1.3,-0.1,9.700000000000001,-1.5,2.5,14.0,-0.4,10.1,16
605,10257.0,0.9,1.0,0.30000000000000004,10.100000000000001,-1.7000000000000002,2.8000000000000003,16.700000000000003,-0.6000000000000001,12.8,16
606,10274.0,1.5,1.3,0.4,10.5,-1.5,3.0,21.7,-0.8,14.600000000000001,16
607,10290.0,1.9000000000000001,1.7000000000000002,0.2,11.200000000000001,-1.0,2.6,26.6,-2.4000000000000004,12.100000000000001,16
608,10307.0,2.0,1.8,0.0,11.200000000000001,-1.0,2.6,27.099999999999998,-2.8,6.600000000000001,16
609,10323.0,2.1,1.5,-0.1,11.3,-1.1,2.6,22.9,-0.7,0.30000000000000004,16
610,10342.0,1.9000000000000001,1.1,0.30000000000000004,11.200000000000001,-1.5,2.9000000000000004,16.900000000000002,4.300000000000001,-5.0,16
611,10357.0,1.8,0.30000000000000004,0.5,11.0,-2.8000000000000003,3.5,13.3,7.699999999999999,-8.2,16
612,10373.0,1.8,-0.2,0.7000000000000001,11.0,-2.8000000000000003,3.5,12.200000000000001,7.500000000000001,-7.6,16
613,10390.0,1.9000000000000001,-0.8,1.4000000000000001,11.100000000000001,-3.3000000000000003,4.0,14.200000000000001,6.600000000000001,-2.7,16
614,10407.0,1.8,-0.4,1.9000000000000001,10.9,-2.4000000000000004,4.9,21.6,5.300000000000001,4.0,16
615,10426.0,1.5,0.8,2.0,10.600000000000001,-1.4000000000000001,4.9,34.2,2.6,8.3,16
616,10441.0,1.3,1.3,1.9000000000000001,10.600000000000001,-1.4000000000000001,4.9,48.2,-1.5,8.5,16
617,10458.0,0.9,2.1,1.6,10.3,-0.6000000000000001,4.7,59.9,-3.7000000000000006,3.8,16
618,10474.0,0.5,1.9000000000000001,1.3,9.700000000000001,-0.7000000000000001,4.3,68.5,-4.2,-4.800000000000001,16
619,10490.0,0.30000000000000004,1.5,1.1,9.700000000000001,-0.7000000000000001,4.3,74.5,-2.1,-13.200000000000003,16
620,10507.0,-0.1,0.5,0.9,9.3,-1.4000000000000001,4.1000000000000005,78.4,2.2,-18.5,16
621,10523.0,-0.5,-0.5,0.7000000000000001,8.8,-2.8000000000000003,3.9000000000000004,82.9,3.8,-18.200000000000003,16
622,10546.0,-0.4,-1.1,0.5,9.1,-3.0,3.8000000000000003,89.6,0.0,-12.600000000000001,16
623,10557.0,-0.1,-1.2000000000000002,0.5,9.1,-3.0,3.8000000000000003,98.8,-9.2,-4.7,16
624,10574.0,0.6000000000000001,-1.0,0.0,9.700000000000001,-2.9000000000000004,3.5,107.9,-21.300000000000004,1.4,16
625,10593.0,1.1,-0.6000000000000001,-0.4,10.700000000000001,-2.0,2.6,111.4,-32.8,3.2,16
626,10607.0,1.3,-0.4,-0.6000000000000001,10.700000000000001,-2.0,2.6,106.9,-41.0,0.2,16
627,10624.0,1.5,0.0,-0.6000000000000001,11.0,-1.5,2.5,94.80000000000001,-43.2,-8.3,16
628,10640.0,1.3,0.2,-0.4,10.600000000000001,-1.1,2.7,76.80000000000001,-37.0,-20.400000000000002,16
629,10657.0,1.0,0.1,-0.30000000000000004,10.600000000000001,-1.1,2.7,55.900000000000006,-25.300000000000004,-33.400000000000006,16
630,10675.0,0.5,-0.30000000000000004,-0.30000000000000004,10.200000000000001,-1.2000000000000002,2.7,34.2,-11.4,-45.2,16
631,10692.0,-0.1,-1.0,0.0,9.700000000000001,-1.6,2.8000000000000003,14.900000000000002,0.1,-54.0,16
632,10707.0,-0.5,-1.8,0.8,9.0,-2.6,4.2,4.5,3.6000000000000005,-58.400000000000006,16
633,10723.0,-0.7000000000000001,-2.1,1.3,9.0,-2.6,4.2,6.300000000000001,-2.2,-59.300000000000004,16
634,10745.0,-1.3,-2.7,1.9000000000000001,8.5,-3.0,4.7,17.400000000000002,-13.200000000000003,-57.400000000000006,16
635,10757.0,-1.7000000000000002,-3.0,2.2,7.9,-3.1,4.9,30.9,-20.7,-51.9,16
636,10774.0,-1.8,-3.0,2.0,7.9,-3.1,4.9,40.800000000000004,-20.900000000000002,-46.0,16
637,10790.0,-2.2,-2.9000000000000004,1.3,7.5,-2.9000000000000004,4.3,45.0,-16.900000000000002,-39.9,16
638,10807.0,-2.3000000000000003,-2.8000000000000003,0.5,7.4,-2.7,3.6,43.2,-12.200000000000001,-34.1,16
639,10826.0,-2.2,-2.7,0.1,7.4,-2.4000000000000004,2.4000000000000004,38.1,-8.600000000000001,-30.1,16
640,10840.0,-2.3000000000000003,-2.6,-0.4,7.4,-2.4000000000000004,2.4000000000000004,31.400000000000002,-6.699999999999999,-27.6,16
641,10857.0,-2.6,-2.8000000000000003,-0.6000000000000001,7.1000000000000005,-2.3000000000000003,2.2,23.900000000000006,-5.500000000000001,-24.900000000000002,16
642,10877.0,-2.9000000000000004,-2.9000000000000004,-0.6000000000000001,6.7,-2.4000000000000004,2.1,15.6,-2.5,-20.7,16
643,10890.0,-2.9000000000000004,-2.9000000000000004,-0.7000000000000001,6.7,-2.4000000000000004,2.1,7.200000000000001,2.8,-15.100000000000001,16
644,10907.0,-3.1,-2.8000000000000003,-0.7000000000000001,6.5,-2.4000000000000004,2.1,-0.4,8.8,-8.700000000000001,16
645,10923.0,-3.0,-2.8000000000000003,-0.8,6.5,-2.4000000000000004,2.0,-6.4,12.600000000000001,-1.1,16
646,10940.0,-2.9000000000000004,-2.9000000000000004,-0.9,6.6000000000000005,-2.5,2.0,-9.700000000000001,11.000000000000002,7.300000000000001,16
647,10957.0,-2.6,-3.0,-1.1,6.800000000000001,-2.7,1.8,-11.700000000000001,4.800000000000001,17.5,16
648,10973.0,-1.8,-2.9000000000000004,-0.9,7.4,-2.8000000000000003,1.8,-14.100000000000001,-3.3000000000000007,28.900000000000002,16
649,10991.0,-0.7000000000000001,-2.7,-0.5,9.200000000000001,-2.7,2.4000000000000004,-17.799999999999997,-8.899999999999999,37.6,16
650,11007.0,-0.2,-2.6,-0.4,9.200000000000001,-2.7,2.4000000000000004,-23.3,-10.0,43.1,16
651,11026.0,0.7000000000000001,-2.4000000000000004,-0.2,10.0,-2.7,2.5,-31.7,-7.300000000000001,45.6,16
652,11040.0,1.2000000000000002,-2.3000000000000003,-0.1,10.5,-2.8000000000000003,2.5,-43.6,-1.9,44.9,16
653,11058.0,1.3,-2.2,-0.1,10.8,-3.2,2.8000000000000003,-57.699999999999996,5.300000000000001,43.50000000000001,16
654,11073.0,1.3,-2.4000000000000004,0.0,10.8,-3.2,2.8000000000000003,-71.6,10.700000000000001,42.800000000000004,16
655,11093.0,1.2000000000000002,-2.5,0.30000000000000004,10.700000000000001,-3.5,3.0,-83.30000000000001,14.400000000000002,44.8,16
656,11111.0,1.0,-2.3000000000000003,0.8,10.3,-3.6,3.9000000000000004,-90.80000000000001,15.700000000000001,49.699999999999996,16
657,11124.0,0.9,-2.0,1.1,10.3,-3.6,3.9000000000000004,-92.90000000000002,14.900000000000002,56.400000000000006,16
658,11140.0,1.0,-1.2000000000000002,1.6,10.3,-3.1,4.3,-87.89999999999999,11.1,63.500000000000014,16
659,11157.0,1.3,0.0,2.3000000000000003,10.5,-2.4000000000000004,4.800000000000001,-75.5,5.300000000000001,67.7,16
660,11173.0,1.2000000000000002,0.7000000000000001,2.5,10.5,-1.5,5.2,-56.400000000000006,0.8,67.2,16
661,11190.0,0.8,2.1,2.1,10.100000000000001,-0.5,5.0,-33.800000000000004,-3.7000000000000006,63.10000000000001,16
662,11207.0,0.7000000000000001,2.9000000000000004,1.0,9.9,0.1,4.0,-14.5,-9.4,57.3,16
663,11227.0,1.3,2.9000000000000004,0.0,10.9,0.1,2.4000000000000004,-5.8,-11.2,50.400000000000006,16
664,11240.0,1.7000000000000002,2.9000000000000004,-0.30000000000000004,10.9,0.1,2.4000000000000004,-5.6,-9.100000000000001,40.800000000000004,16
665,11258.0,2.4000000000000004,2.5,-0.5,11.5,-0.2,2.2,-9.8,-4.9,28.700000000000003,16
666,11273.0,2.7,2.0,-0.8,11.8,-0.7000000000000001,1.9000000000000001,-17.200000000000003,0.4,16.200000000000003,16
667,11290.0,2.6,1.9000000000000001,-0.9,11.8,-1.0,1.7000000000000002,-27.700000000000003,6.600000000000001,5.2,16
668,11307.0,2.2,1.8,-1.2000000000000002,11.5,-1.1,1.5,-40.6,11.4,-4.7,16
669,11323.0,1.7000000000000002,1.6,-0.7000000000000001,11.100000000000001,-1.2000000000000002,1.7000000000000002,-54.6,14.900000000000002,-14.0,16
670,11340.0,1.4000000000000001,1.5,-0.30000000000000004,10.600000000000001,-1.5,2.4000000000000004,-65.6,19.700000000000003,-21.8,16
671,11357.0,0.5,1.1,0.5,9.8,-1.8,3.0,-70.6,24.8,-26.5,16
672,11374.0,-0.30000000000000004,1.0,0.9,9.200000000000001,-1.8,3.4000000000000004,-69.3,27.9,-28.600000000000005,16
673,11390.0,-0.7000000000000001,1.1,1.1,8.700000000000001,-1.7000000000000002,3.7,-62.0,28.700000000000003,-28.400000000000002,16
674,11407.0,-0.9,1.1,1.2000000000000002,8.3,-1.6,3.5,-49.199999999999996,26.000000000000004,-27.0,16
675,11423.0,-1.0,1.1,0.7000000000000001,8.3,-1.6,3.5,-33.7,19.700000000000003,-25.4,16
676,11440.0,-1.2000000000000002,1.0,-0.1,8.1,-1.6,2.9000000000000004,-21.0,11.900000000000002,-24.0,16
677,11458.0,-1.2000000000000002,0.9,-0.6000000000000001,8.1,-1.7000000000000002,2.0,-15.000000000000002,6.0,-22.2,16
678,11474.0,-1.1,0.9,-0.8,8.1,-1.7000000000000002,2.0,-13.200000000000003,3.1,-20.0,16
679,11491.0,-0.8,0.7000000000000001,-0.9,8.4,-1.7000000000000002,1.8,-14.900000000000002,3.6000000000000005,-19.0,16
680,11507.0,-0.7000000000000001,0.7000000000000001,-1.3,8.6,-1.8,1.2000000000000002,-21.300000000000004,9.8,-19.1,16
681,11525.0,-0.7000000000000001,0.7000000000000001,-1.5,8.6,-1.8,1.2000000000000002,-30.1,16.1,-19.300000000000004,16
682,11542.0,-0.9,0.6000000000000001,-1.8,8.4,-1.8,1.0,-38.800000000000004,18.0,-19.0,16
683,11557.0,-0.9,0.4,-1.4000000000000001,8.3,-1.9000000000000001,1.2000000000000002,-45.9,17.1,-16.8,16
684,11574.0,-0.8,0.5,-0.9,8.5,-1.8,1.9000000000000001,-48.400000000000006,15.2,-13.5,16
685,11594.0,-0.6000000000000001,0.7000000000000001,-0.7000000000000001,8.700000000000001,-1.7000000000000002,2.0,-47.0,13.000000000000002,-10.5,16
686,11607.0,-0.5,0.7000000000000001,-0.7000000000000001,8.700000000000001,-1.7000000000000002,2.0,-44.8,12.7,-8.5,16
687,11623.0,-0.8,0.8,-0.9,8.3,-1.6,2.0,-44.8,13.900000000000002,-7.0,16
688,11640.0,-0.9,0.9,-0.8,8.3,-1.6,2.0,-46.6,14.800000000000002,-4.300000000000001,16
689,11657.0,-0.8,0.7000000000000001,-0.4,8.4,-1.7000000000000002,2.3000000000000003,-47.400000000000006,14.5,-0.30000000000000004,16
690,11673.0,-0.5,0.5,0.30000000000000004,8.6,-1.9000000000000001,2.8000000000000003,-43.800000000000004,12.299999999999999,5.0,16
691,11690.0,-0.30000000000000004,0.4,0.6000000000000001,8.8,-2.1,3.3000000000000003,-33.50000000000001,7.0,11.700000000000001,16
692,11708.0,0.30000000000000004,0.4,1.1,9.4,-2.3000000000000003,3.8000000000000003,-18.8,0.30000000000000004,18.900000000000002,16
693,11723.0,1.1,0.5,1.3,10.100000000000001,-2.2,4.0,-3.1,-5.2,23.900000000000006,16
694,11740.0,1.5,0.7000000000000001,1.2000000000000002,10.600000000000001,-2.0,3.8000000000000003,9.8,-8.600000000000001,25.4,16
695,11757.0,1.9000000000000001,1.0,0.7000000000000001,11.0,-1.8,3.4000000000000004,16.200000000000003,-9.0,23.6,16
696,11773.0,2.0,1.0,0.2,11.100000000000001,-1.8,3.0,15.700000000000001,-8.0,20.599999999999998,16
697,11790.0,2.2,0.6000000000000001,0.30000000000000004,11.3,-2.1,3.0,10.600000000000001,-5.9,17.6,16
698,11808.0,2.3000000000000003,0.30000000000000004,0.7000000000000001,11.4,-2.7,3.5,5.500000000000001,-2.6,16.1,16
699,11823.0,2.3000000000000003,0.2,0.9,11.4,-2.7,3.5,3.3000000000000007,-1.2000000000000002,16.6,16
700,11840.0,2.3000000000000003,0.2,1.0,11.5,-2.7,3.9000000000000004,3.3000000000000007,-1.2000000000000002,16.6,16
701,11857.0,2.4000000000000004,0.7000000000000001,1.5,11.600000000000001,-2.2,4.4,8.700000000000001,-5.2,19.799999999999997,16
702,11873.0,2.4000000000000004,0.8,1.7000000000000002,11.600000000000001,-2.2,4.4,13.700000000000001,-8.2,19.799999999999997,16
703,11890.0,2.2,1.1,2.0,11.4,-2.0,4.7,19.799999999999997,-9.8,19.1,16
704,11907.0,1.9000000000000001,1.7000000000000002,2.3000000000000003,11.200000000000001,-1.6,5.0,29.0,-12.100000000000001,17.799999999999997,16
705,11923.0,1.5,2.4000000000000004,2.5,10.600000000000001,-0.4,5.300000000000001,42.0,-14.700000000000001,14.400000000000002,16
706,11941.0,1.4000000000000001,2.6,2.5,10.600000000000001,-0.4,5.300000000000001,56.9,-16.200000000000003,8.100000000000001,16
707,11957.0,1.3,2.5,2.2,10.5,-0.30000000000000004,5.1000000000000005,71.7,-16.0,-1.7,16
708,11975.0,0.7000000000000001,1.5,1.3,9.700000000000001,-1.7000000000000002,3.8000000000000003,82.50000000000001,-13.700000000000001,-11.2,16
709,11990.0,0.4,1.0,0.9,9.700000000000001,-1.7000000000000002,3.8000000000000003,88.60000000000001,-11.700000000000001,-15.399999999999999,16
710,12007.0,0.1,0.2,0.5,9.4,-2.3000000000000003,3.5,93.3,-13.8,-14.5,16
711,12024.0,0.30000000000000004,-0.30000000000000004,0.30000000000000004,9.600000000000001,-2.7,3.4000000000000004,99.10000000000001,-19.700000000000003,-10.8,16
712,12040.0,0.6000000000000001,-0.4,0.2,10.0,-2.8000000000000003,3.2,104.2,-26.6,-7.8,16
713,12058.0,1.1,-0.2,-0.1,10.5,-2.5,2.9000000000000004,105.20000000000002,-30.799999999999997,-8.899999999999999,16
714,12075.0,1.3,-0.2,-0.5,10.700000000000001,-2.3000000000000003,2.5,99.9,-32.400000000000006,-14.5,16
715,12093.0,0.9,-0.30000000000000004,-0.7000000000000001,10.100000000000001,-2.2,2.2,87.7,-29.300000000000004,-21.7,16
716,12107.0,0.5,-0.30000000000000004,-0.7000000000000001,10.100000000000001,-2.2,2.2,72.0,-23.2,-28.1,16
717,12123.0,0.0,-0.4,-0.5,9.700000000000001,-2.1,2.3000000000000003,55.900000000000006,-16.6,-32.7,16
718,12140.0,-0.2,-0.6000000000000001,-0.1,9.4,-2.1,2.6,42.400000000000006,-11.3,-36.2,16
719,12158.0,-0.30000000000000004,-0.8,0.30000000000000004,9.200000000000001,-2.2,3.2,34.0,-8.3,-39.699999999999996,16
720,12174.0,-0.4,-0.9,0.4,9.200000000000001,-2.2,3.2,30.5,-8.0,-43.70000000000001,16
721,12190.0,-0.6000000000000001,-1.3,0.4,9.1,-2.4000000000000004,3.2,29.200000000000003,-9.2,-47.400000000000006,16
722,12209.0,-0.8,-1.5,0.4,8.9,-2.6,3.2,27.700000000000003,-10.299999999999999,-50.3,16
723,12224.0,-1.3,-2.0,0.5,8.4,-2.8000000000000003,3.3000000000000003,24.8,-8.5,-51.0,16
724,12240.0,-1.8,-2.3000000000000003,0.4,8.0,-2.9000000000000004,3.2,20.3,-4.4,-49.199999999999996,16
725,12257.0,-2.2,-2.5,0.30000000000000004,7.6000000000000005,-3.0,3.1,15.700000000000001,-1.0,-45.7,16
726,12274.0,-2.4000000000000004,-2.6,0.30000000000000004,7.300000000000001,-3.1,3.0,11.8,0.7,-40.800000000000004,16
727,12292.0,-2.5,-2.7,0.30000000000000004,7.1000000000000005,-3.1,3.0,9.5,0.6000000000000001,-35.599999999999994,16
728,12308.0,-2.7,-2.7,0.30000000000000004,7.0,-3.0,3.1,8.5,-0.1,-30.599999999999998,16
729,12324.0,-2.7,-2.6,0.4,6.800000000000001,-2.8000000000000003,3.1,8.2,-0.2,-25.8,16
730,12341.0,-2.8000000000000003,-2.6,0.30000000000000004,6.800000000000001,-2.8000000000000003,3.1,7.699999999999999,1.7,-21.300000000000004,16
731,12358.0,-2.9000000000000004,-2.5,-0.1,6.7,-2.8000000000000003,2.8000000000000003,6.0,4.9,-15.899999999999999,16
732,12375.0,-2.8000000000000003,-2.5,-0.30000000000000004,6.7,-2.6,2.6,3.2,7.0,-10.4,16
733,12393.0,-2.6,-2.9000000000000004,-0.6000000000000001,7.1000000000000005,-3.2,2.2,0.30000000000000004,6.600000000000001,-4.6,16
734,12409.0,-2.4000000000000004,-3.0,-0.6000000000000001,7.1000000000000005,-3.2,2.2,-3.3000000000000007,4.300000000000001,3.2,16
735,12426.0,-1.7000000000000002,-3.1,-0.5,7.6000000000000005,-3.4000000000000004,2.3000000000000003,-7.0,0.30000000000000004,11.700000000000001,16
736,12440.0,-1.2000000000000002,-3.1,-0.4,9.0,-3.3000000000000003,2.6,-10.299999999999999,-4.0,18.5,16
737,12457.0,-0.4,-2.8000000000000003,-0.2,9.0,-3.3000000000000003,2.6,-14.200000000000001,-6.300000000000001,22.000000000000004,16
738,12475.0,0.0,-2.7,-0.2,9.4,-3.3000000000000003,2.6,-20.599999999999998,-5.500000000000001,23.3,16
739,12493.0,0.2,-2.7,-0.5,9.600000000000001,-3.4000000000000004,2.4000000000000004,-30.799999999999997,-1.8000000000000003,24.3,16
740,12507.0,0.30000000000000004,-3.0,-0.8,9.8,-4.2,2.1,-45.0,3.0,25.5,16
741,12524.0,0.30000000000000004,-3.3000000000000003,-0.6000000000000001,9.8,-4.2,2.1,-61.300000000000004,6.500000000000001,29.0,16
742,12541.0,0.2,-3.6,0.1,9.600000000000001,-4.7,2.6,-75.5,10.4,36.6,16
743,12558.0,0.2,-3.1,1.0,9.9,-4.3,4.0,-79.9,10.4,48.800000000000004,16
744,12575.0,0.5,-2.6,1.3,9.9,-4.3,4.0,-73.6,5.2,61.50000000000001,16
745,12590.0,0.7000000000000001,-1.9000000000000001,1.6,10.200000000000001,-3.4000000000000004,4.5,-58.900000000000006,-2.4000000000000004,70.6,16
746,12607.0,1.1,0.4,2.0,10.4,-2.3000000000000003,4.7,-39.699999999999996,-7.699999999999999,74.80000000000001,16
747,12623.0,1.1,1.2000000000000002,1.7000000000000002,10.4,-1.1,4.4,-20.2,-9.899999999999999,73.7,16
748,12640.0,1.0,2.4000000000000004,0.6000000000000001,10.3,-0.2,3.4000000000000004,-5.2,-10.700000000000001,69.10000000000001,16
749,12656.0,1.1,3.0,-0.2,10.200000000000001,0.2,2.6,2.9,-12.100000000000001,62.0,16
750,12673.0,1.3,3.0,-0.5,10.600000000000001,0.2,2.1,5.4,-14.200000000000001,52.900000000000006,16
751,12690.0,2.0,2.7,-0.6000000000000001,11.100000000000001,-0.1,2.0,4.7,-15.399999999999999,43.1,16
752,12707.0,2.8000000000000003,2.2,-0.5,11.8,-0.7000000000000001,2.0,2.4000000000000004,-16.0,33.400000000000006,16
753,12723.0,3.3000000000000003,2.0,-0.4,12.3,-1.0,2.0,-1.3,-15.2,23.3,16
754,12740.0,3.4000000000000004,2.1,-0.5,12.700000000000001,-0.9,2.0,-8.4,-11.700000000000001,11.2,16
755,12757.0,3.4000000000000004,2.3000000000000003,-0.6000000000000001,12.700000000000001,-0.7000000000000001,1.8,-21.0,-5.0,-4.1,16
756,12773.0,2.7,2.0,-0.6000000000000001,12.3,-0.8,1.7000000000000002,-39.2,7.0,-21.400000000000002,16
757,12790.0,1.3,1.4000000000000001,-0.2,10.100000000000001,-1.6,2.4000000000000004,-58.7,22.000000000000004,-35.9,16
758,12807.0,0.6000000000000001,1.2000000000000002,0.1,10.100000000000001,-1.6,2.4000000000000004,-71.7,34.300000000000004,-44.7,16
759,12824.0,-0.5,0.8,0.5,9.1,-1.8,2.9000000000000004,-74.5,41.199999999999996,-48.2,16
760,12840.0,-1.2000000000000002,0.6000000000000001,0.7000000000000001,8.4,-2.0,3.2,-67.5,40.800000000000004,-46.800000000000004,16
761,12857.0,-1.4000000000000001,0.5,0.5,8.0,-2.0,3.0,-54.800000000000004,34.7,-42.800000000000004,16
762,12873.0,-1.4000000000000001,0.5,0.30000000000000004,8.0,-2.0,3.0,-40.2,24.7,-38.1,16
763,12890.0,-1.3,0.30000000000000004,-0.1,8.0,-2.0,2.7,-27.6,15.2,-34.800000000000004,16
764,12906.0,-1.3,0.2,-0.4,8.1,-2.1,2.3000000000000003,-22.5,10.700000000000001,-31.6,16
765,12924.0,-1.4000000000000001,0.1,-0.6000000000000001,8.0,-2.1,2.1,-23.2,12.600000000000001,-28.400000000000002,16
766,12940.0,-1.5,0.1,-1.0,7.9,-2.1,1.8,-26.9,16.1,-24.8,16
767,12957.0,-1.6,0.2,-1.3,7.7,-2.0,1.3,-32.400000000000006,19.0,-21.1,16
768,12973.0,-1.7000000000000002,0.2,-1.4000000000000001,7.7,-2.0,1.3,-39.400000000000006,21.1,-17.6,16
769,12990.0,-1.6,0.2,-1.1,7.7,-1.9000000000000001,1.6,-45.3,21.6,-13.700000000000001,16
770,13007.0,-1.7000000000000002,0.30000000000000004,-0.7000000000000001,7.6000000000000005,-1.9000000000000001,2.0,-46.800000000000004,21.0,-9.8,16
771,13024.0,-1.8,0.30000000000000004,-0.5,7.5,-1.8,2.3000000000000003,-43.50000000000001,19.1,-5.7,16
772,13040.0,-1.8,0.4,-0.30000000000000004,7.4,-1.8,2.5,-38.800000000000004,17.5,-0.7,16
773,13056.0,-1.8,0.5,-0.30000000000000004,7.4,-1.8,2.6,-33.7,16.3,5.0,16
774,13073.0,-1.3,0.4,-0.1,8.1,-2.0,2.8000000000000003,-29.1,15.100000000000001,10.9,16
775,13090.0,-1.0,0.30000000000000004,-0.1,8.1,-2.0,2.8000000000000003,-24.1,13.8,16.200000000000003,16
776,13106.0,-0.8,0.0,0.0,8.3,-2.4000000000000004,2.9000000000000004,-17.9,10.5,22.6,16
777,13124.0,-0.30000000000000004,-0.1,0.2,8.700000000000001,-2.6,3.0,-10.299999999999999,5.2,31.799999999999997,16
778,13141.0,0.2,0.0,0.2,10.3,-2.4000000000000004,3.2,-0.2,-2.8,41.50000000000001,16
779,13157.0,1.3,0.4,0.4,10.3,-2.4000000000000004,3.2,10.200000000000001,-11.4,48.0,16
780,13175.0,2.4000000000000004,1.0,0.30000000000000004,11.200000000000001,-2.0,3.2,18.200000000000003,-16.200000000000003,48.9,16
781,13191.0,3.1,1.2000000000000002,0.1,12.4,-1.9000000000000001,2.9000000000000004,21.300000000000004,-18.5,44.10000000000001,16
782,13207.0,3.3000000000000003,1.1,0.1,12.4,-1.9000000000000001,2.9000000000000004,17.5,-16.8,36.9,16
783,13223.0,3.7,0.6000000000000001,0.30000000000000004,12.700000000000001,-2.3000000000000003,3.0,8.3,-10.700000000000001,29.500000000000004,16
784,13240.0,3.4000000000000004,0.1,0.8,12.600000000000001,-2.9000000000000004,3.4000000000000004,-1.5,-2.7,25.5,16
785,13256.0,3.3000000000000003,0.2,1.5,12.3,-2.8000000000000003,4.6000000000000005,-4.9,2.0,26.700000000000003,16
786,13274.0,3.3000000000000003,0.6000000000000001,1.8,12.3,-2.8000000000000003,4.6000000000000005,-0.30000000000000004,1.7,28.700000000000003,16
787,13291.0,3.1,1.5,2.0,12.200000000000001,-2.1,4.800000000000001,10.700000000000001,-3.2,28.3,16
788,13307.0,2.8000000000000003,2.2,2.1,11.600000000000001,-1.0,5.0,25.200000000000003,-10.600000000000001,24.3,16
789,13325.0,2.5,2.4000000000000004,2.2,11.600000000000001,-1.0,5.0,40.4,-16.4,17.400000000000002,16
790,13340.0,1.8,2.8000000000000003,2.2,11.0,-0.6000000000000001,5.1000000000000005,55.1,-18.4,9.100000000000001,16
791,13357.0,0.9,2.6,1.9000000000000001,10.3,-0.6000000000000001,5.0,68.9,-16.8,0.7,16
792,13373.0,0.2,2.1,1.0,9.1,-1.2000000000000002,3.7,80.10000000000001,-14.700000000000001,-5.6,16
793,13390.0,0.0,1.7000000000000002,0.6000000000000001,9.1,-1.2000000000000002,3.7,87.60000000000001,-14.400000000000002,-8.899999999999999,16
794,13407.0,-0.1,1.0,0.1,9.0,-1.8,3.2,93.49999999999999,-18.0,-9.100000000000001,16
795,13423.0,0.0,0.4,-0.2,9.4,-2.5,2.8000000000000003,100.4,-26.1,-7.200000000000001,16
796,13440.0,0.2,0.2,-0.2,9.4,-2.5,2.8000000000000003,107.10000000000001,-35.699999999999996,-5.0,16
797,13457.0,0.7000000000000001,0.1,-0.30000000000000004,9.9,-2.5,2.7,111.20000000000002,-43.6,-4.7,16
798,13473.0,1.0,0.1,-0.7000000000000001,10.3,-2.3000000000000003,2.4000000000000004,110.0,-47.400000000000006,-7.8,16
799,13490.0,0.9,-0.1,-1.2000000000000002,10.3,-2.3000000000000003,1.6,100.0,-47.400000000000006,-12.5,16
800,13507.0,0.8,-0.1,-1.2000000000000002,10.3,-2.3000000000000003,1.6,82.8,-43.900000000000006,-16.900000000000002,16
801,13523.0,1.1,0.1,-0.8,10.5,-2.1,1.8,62.199999999999996,-37.800000000000004,-21.6,16
802,13540.0,1.3,0.30000000000000004,-0.2,10.700000000000001,-1.6,2.5,43.2,-28.900000000000002,-30.200000000000003,16
803,13556.0,1.1,0.2,-0.1,10.700000000000001,-1.6,2.5,26.200000000000003,-18.6,-41.1,16
804,13573.0,0.5,-0.2,0.1,10.3,-1.8,2.7,11.000000000000002,-9.5,-50.900000000000006,16
805,13590.0,-0.1,-0.8,0.5,9.8,-2.2,3.0,-0.30000000000000004,-2.9,-57.49999999999999,16
806,13607.0,-0.6000000000000001,-1.4000000000000001,1.0,8.9,-2.7,3.8000000000000003,-6.300000000000001,1.1,-60.300000000000004,16
807,13623.0,-0.9,-1.6,1.2000000000000002,8.9,-2.7,3.8000000000000003,-7.200000000000001,2.8,-60.2,16
808,13640.0,-1.2000000000000002,-1.8,1.5,8.6,-2.8000000000000003,4.0,-3.5,2.0,-58.7,16
809,13657.0,-1.5,-2.0,1.6,8.200000000000001,-3.0,4.2,3.1,-0.5,-56.6,16
810,13675.0,-1.5,-2.2,1.5,8.200000000000001,-3.0,4.2,9.899999999999999,-2.9,-53.599999999999994,16
811,13690.0,-1.6,-2.4000000000000004,1.3,8.1,-3.1,4.0,15.6,-4.6,-50.1,16
812,13709.0,-1.6,-2.6,1.0,8.1,-3.0,3.8000000000000003,19.799999999999997,-5.4,-46.6,16
813,13723.0,-1.7000000000000002,-2.6,0.4,8.0,-2.8000000000000003,2.8000000000000003,20.7,-4.5,-43.300000000000004,16
814,13740.0,-1.7000000000000002,-2.5,0.1,8.0,-2.8000000000000003,2.8000000000000003,17.799999999999997,-3.0,-41.1,16
815,13757.0,-1.8,-2.5,-0.2,7.9,-2.7,2.5,12.200000000000001,-1.5,-39.599999999999994,16
816,13773.0,-2.1,-2.5,-0.5,7.5,-2.5,2.1,4.7,2.4000000000000004,-38.300000000000004,16
817,13790.0,-2.2,-2.5,-0.5,7.5,-2.5,2.1,-2.8,6.600000000000001,-36.400000000000006,16
818,13807.0,-2.6,-2.6,-0.8,7.1000000000000005,-2.6,2.0,-9.899999999999999,9.899999999999999,-33.9,16
819,13824.0,-2.8000000000000003,-2.8000000000000003,-0.9,6.800000000000001,-2.7,1.8,-16.4,11.2,-29.300000000000004,16
820,13840.0,-3.0,-3.2,-0.8,6.6000000000000005,-3.1,1.9000000000000001,-21.8,10.200000000000001,-21.6,16
821,13857.0,-2.9000000000000004,-3.7,-0.5,6.7,-3.5,2.2,-23.900000000000006,6.9,-10.9,16
822,13874.0,-2.4000000000000004,-3.8000000000000003,-0.2,7.0,-3.7,2.5,-21.7,1.3,1.3,16
823,13892.0,-1.8,-3.6,-0.2,8.1,-3.6,2.6,-17.799999999999997,-5.4,13.000000000000002,16
824,13906.0,-1.4000000000000001,-3.4000000000000004,-0.2,8.1,-3.6,2.6,-16.8,-9.0,23.0,16
825,13923.0,-0.8,-3.0,-0.30000000000000004,8.6,-3.4000000000000004,2.4000000000000004,-19.300000000000004,-8.700000000000001,30.200000000000003,16
826,13942.0,-0.4,-2.8000000000000003,-0.5,9.0,-3.3000000000000003,2.3000000000000003,-23.400000000000002,-8.5,34.800000000000004,16
827,13957.0,-0.30000000000000004,-2.8000000000000003,-0.6000000000000001,9.3,-3.3000000000000003,2.0,-29.200000000000003,-8.3,38.400000000000006,16
828,13974.0,-0.1,-3.0,-0.9,9.4,-3.7,1.8,-37.6,-8.5,42.900000000000006,16
829,13991.0,-0.1,-3.4000000000000004,-0.6000000000000001,9.4,-4.2,1.8,-48.0,-7.8,50.400000000000006,16
830,14006.0,0.30000000000000004,-3.3000000000000003,0.1,10.100000000000001,-4.5,3.0,-56.9,-6.699999999999999,61.8,16
831,14024.0,0.7000000000000001,-3.0,0.6000000000000001,10.100000000000001,-4.5,3.0,-59.1,-7.400000000000001,74.0,16
832,14042.0,1.2000000000000002,-2.0,1.2000000000000002,10.600000000000001,-3.9000000000000004,3.5,-52.300000000000004,-9.3,84.4,16
833,14056.0,1.7000000000000002,-0.4,0.9,11.0,-3.0,3.4000000000000004,-39.9,-14.200000000000001,90.4,16
834,14073.0,1.8,0.30000000000000004,0.8,11.200000000000001,-1.9000000000000001,3.1,-29.200000000000003,-19.300000000000004,91.4,16
835,14090.0,1.8,1.9000000000000001,0.7000000000000001,11.100000000000001,-0.9,3.0,-20.900000000000002,-21.1,88.50000000000001,16
836,14107.0,1.7000000000000002,3.5,0.7000000000000001,11.0,0.4,2.9000000000000004,-13.200000000000003,-20.5,81.3,16
837,14123.0,1.9000000000000001,4.3,0.2,11.3,1.3,2.1,-7.699999999999999,-20.3,68.4,16
838,14141.0,2.1,4.3,0.0,11.3,1.3,2.1,-8.0,-18.3,51.50000000000001,16
839,14157.0,2.5,3.6,0.2,11.700000000000001,0.7000000000000001,2.2,-13.3,-11.1,34.0,16
840,14173.0,2.5,2.6,0.30000000000000004,11.8,-0.2,2.3000000000000003,-18.4,-3.1,19.400000000000002,16
841,14190.0,2.6,2.1,0.4,11.9,-1.0,2.4000000000000004,-21.1,0.5,10.299999999999999,16
842,14206.0,2.8000000000000003,1.7000000000000002,0.4,12.100000000000001,-1.4000000000000001,2.4000000000000004,-22.1,1.1,4.1,16
843,14223.0,3.2,1.9000000000000001,0.2,12.4,-1.3,2.2,-24.8,0.6000000000000001,-3.8,16
844,14240.0,3.1,1.9000000000000001,0.2,11.700000000000001,-1.4000000000000001,2.3000000000000003,-33.0,3.8,-15.5,16
845,14257.0,2.3000000000000003,1.6,0.4,11.700000000000001,-1.4000000000000001,2.3000000000000003,-45.8,13.3,-27.0,16
846,14273.0,1.2000000000000002,1.3,0.9,10.8,-1.6,2.7,-57.60000000000001,26.400000000000006,-35.3,16
847,14290.0,0.2,1.2000000000000002,1.2000000000000002,9.200000000000001,-1.6,3.2,-62.7,37.50000000000001,-40.4,16
848,14307.0,-0.2,1.1,1.1,9.200000000000001,-1.6,3.2,-60.7,43.50000000000001,-42.900000000000006,16
849,14323.0,-1.0,1.1,0.9,8.6,-1.6,3.1,-52.80000000000001,42.60000000000001,-43.00000000000001,16
850,14340.0,-1.3,1.0,0.8,8.1,-1.6,2.9000000000000004,-41.199999999999996,34.900000000000006,-40.9,16
851,14357.0,-1.6,0.7000000000000001,0.4,7.9,-1.8,2.8000000000000003,-29.500000000000004,25.300000000000004,-37.2,16
852,14373.0,-1.6,0.6000000000000001,0.4,7.9,-1.8,2.8000000000000003,-18.900000000000002,17.300000000000004,-33.7,16
853,14390.0,-1.5,0.4,0.2,7.9,-1.9000000000000001,2.6,-10.600000000000001,12.600000000000001,-31.0,16
854,14407.0,-1.5,0.30000000000000004,-0.1,8.0,-2.0,2.3000000000000003,-7.9,12.4,-28.500000000000004,16
855,14423.0,-1.5,0.0,-0.4,7.9,-2.2,2.1,-9.8,16.0,-24.7,16
856,14441.0,-1.6,-0.1,-0.7000000000000001,7.800000000000001,-2.3000000000000003,1.8,-13.100000000000001,18.700000000000003,-19.300000000000004,16
857,14457.0,-1.4000000000000001,0.0,-1.1,7.9,-2.2,1.6,-16.1,18.700000000000003,-13.100000000000001,16
858,14474.0,-1.0,0.2,-1.1,8.5,-1.8,1.6,-18.900000000000002,15.8,-8.8,16
859,14490.0,-0.9,0.30000000000000004,-1.0,8.5,-1.8,1.6,-21.200000000000003,14.300000000000002,-6.9,16
860,14506.0,-0.9,0.5,-0.9,8.5,-1.7000000000000002,1.7000000000000002,-23.5,16.3,-6.0,16
861,14523.0,-1.1,0.6000000000000001,-0.9,8.200000000000001,-1.6,1.7000000000000002,-26.200000000000003,19.5,-5.2,16
862,14540.0,-1.2000000000000002,0.5,-1.0,8.200000000000001,-1.6,1.7000000000000002,-28.200000000000003,21.200000000000003,-3.4,16
863,14557.0,-1.2000000000000002,0.30000000000000004,-0.9,8.1,-1.8,1.8,-28.600000000000005,20.2,-0.1,16
864,14573.0,-1.1,-0.1,-0.5,8.1,-2.2,2.1,-26.000000000000004,16.5,5.6,16
865,14590.0,-0.9,-0.2,-0.30000000000000004,8.4,-2.5,2.5,-19.799999999999997,12.600000000000001,14.0,16
866,14611.0,0.30000000000000004,-0.30000000000000004,0.1,9.700000000000001,-2.7,2.8000000000000003,-10.4,6.9,23.0,16
867,14624.0,0.7000000000000001,-0.30000000000000004,0.1,9.700000000000001,-2.7,2.8000000000000003,1.0,-1.0,30.200000000000003,16
868,14640.0,1.4000000000000001,0.0,-0.2,10.9,-2.4000000000000004,2.3000000000000003,9.899999999999999,-7.699999999999999,35.699999999999996,16
869,14657.0,2.1,0.4,-0.5,11.5,-2.2,2.2,13.399999999999999,-11.900000000000002,38.60000000000001,16
870,14674.0,2.4000000000000004,0.5,-0.5,11.5,-2.2,2.2,11.8,-13.5,38.0,16
871,14690.0,2.7,0.6000000000000001,-0.5,11.8,-2.1,2.1,5.300000000000001,-11.700000000000001,34.7,16
872,14707.0,2.7,0.6000000000000001,-0.30000000000000004,11.9,-2.2,2.3000000000000003,-4.1,-7.500000000000001,31.3,16
873,14723.0,2.7,0.7000000000000001,0.4,11.9,-2.3000000000000003,2.9000000000000004,-11.8,-1.6,28.400000000000002,16
874,14740.0,2.5,1.0,1.1,11.700000000000001,-2.0,3.5,-14.100000000000001,3.2,26.1,16
875,14757.0,2.3000000000000003,1.2000000000000002,1.6,11.5,-1.7000000000000002,4.4,-9.8,3.7000000000000006,24.3,16
876,14775.0,2.4000000000000004,1.4000000000000001,2.0,11.5,-1.7000000000000002,4.7,-0.4,0.7,22.5,16
877,14790.0,2.3000000000000003,1.4000000000000001,2.1,11.5,-1.7000000000000002,4.7,14.0,-5.500000000000001,20.2,16
878,14807.0,2.2,1.4000000000000001,2.3000000000000003,11.4,-1.8,4.9,32.2,-13.6,18.3,16
879,14823.0,1.8,1.9000000000000001,2.0,10.9,-1.0,4.4,51.300000000000004,-20.5,16.8,16
880,14840.0,1.6,2.2,1.6,10.9,-1.0,4.4,67.7,-25.900000000000002,13.6,16
881,14857.0,1.2000000000000002,2.6,0.8,10.5,-0.5,3.6,76.80000000000001,-28.1,7.6,16
882,14874.0,0.8,2.4000000000000004,0.2,10.0,-0.9,2.8000000000000003,78.3,-26.200000000000003,-1.1,16
883,14890.0,0.6000000000000001,2.0,0.1,10.0,-0.9,2.8000000000000003,77.00000000000001,-23.6,-9.4,16
884,14906.0,0.1,0.9,0.1,9.5,-1.7000000000000002,2.8000000000000003,76.1,-22.1,-13.900000000000002,16
885,14923.0,-0.30000000000000004,0.1,0.30000000000000004,9.200000000000001,-2.3000000000000003,2.9000000000000004,78.80000000000001,-24.7,-13.100000000000001,16
886,14940.0,-0.30000000000000004,-0.2,0.4,9.1,-2.8000000000000003,3.0,84.9,-31.0,-8.899999999999999,16
887,14957.0,0.1,-0.4,0.4,9.4,-2.9000000000000004,3.0,91.4,-37.6,-4.300000000000001,16
888,14973.0,0.6000000000000001,-0.30000000000000004,0.1,9.9,-2.7,2.7,94.10000000000001,-42.7,-1.9,16
889,14990.0,0.9,0.0,0.0,10.5,-2.1,2.5,90.70000000000002,-45.0,-3.1,16
890,15010.0,1.0,0.4,0.1,10.600000000000001,-1.7000000000000002,2.5,83.10000000000001,-43.800000000000004,-7.1000000000000005,16
891,15025.0,1.0,0.5,0.1,10.600000000000001,-1.7000000000000002,2.5,72.7,-38.900000000000006,-13.8,16
892,15040.0,0.7000000000000001,0.6000000000000001,0.1,10.4,-1.4000000000000001,2.5,59.9,-31.0,-22.8,16
893,15056.0,0.5,0.6000000000000001,0.1,10.100000000000001,-1.4000000000000001,2.4000000000000004,45.2,-21.7,-32.5,16
894,15073.0,0.0,0.2,0.2,9.8,-1.5,2.5,30.4,-11.3,-41.199999999999996,16
895,15090.0,-0.2,0.0,0.30000000000000004,9.4,-1.7000000000000002,2.7,18.8,-3.6000000000000005,-48.0,16
896,15108.0,-0.8,-0.7000000000000001,0.9,8.8,-2.3000000000000003,3.3000000000000003,13.6,-0.7,-53.0,16
897,15127.0,-1.2000000000000002,-1.2000000000000002,1.0,8.5,-2.6,3.4000000000000004,12.4,0.5,-55.400000000000006,16
898,15140.0,-1.3,-1.5,1.1,8.5,-2.6,3.4000000000000004,13.3,1.0,-55.60000000000001,16
899,15157.0,-1.4000000000000001,-1.9000000000000001,0.9,8.4,-2.8000000000000003,3.3000000000000003,15.299999999999999,1.7,-54.4,16
900,15174.0,-1.5,-2.2,0.4,8.200000000000001,-3.0,2.7,15.700000000000001,1.0,-52.400000000000006,16
901,15190.0,-1.6,-2.2,0.30000000000000004,8.200000000000001,-3.0,2.7,13.200000000000003,-0.2,-50.0,16
902,15206.0,-1.9000000000000001,-2.3000000000000003,0.1,7.9,-2.9000000000000004,2.5,8.0,0.4,-47.2,16
903,15223.0,-2.2,-2.4000000000000004,0.2,7.4,-2.8000000000000003,2.5,1.6,3.2,-43.800000000000004,16
904,15240.0,-2.3000000000000003,-2.4000000000000004,0.1,7.4,-2.8000000000000003,2.5,-4.6,7.1000000000000005,-40.300000000000004,16
905,15256.0,-2.7,-2.4000000000000004,0.0,7.1000000000000005,-2.8000000000000003,2.5,-9.8,11.4,-36.1,16
906,15273.0,-3.0,-2.4000000000000004,-0.2,6.800000000000001,-2.7,2.4000000000000004,-12.7,13.700000000000001,-31.400000000000002,16
907,15290.0,-2.9000000000000004,-2.5,-0.30000000000000004,6.800000000000001,-2.8000000000000003,2.2,-13.700000000000001,12.0,-25.6,16
908,15307.0,-2.7,-3.0,-0.4,7.0,-3.1,2.2,-14.100000000000001,8.3,-18.8,16
909,15328.0,-2.6,-3.4000000000000004,-0.2,7.0,-3.5,2.3000000000000003,-13.700000000000001,3.7000000000000006,-9.899999999999999,16
910,15340.0,-2.1,-3.5,0.0,7.9,-3.6,2.5,-12.299999999999999,-0.30000000000000004,2.1,16
911,15356.0,-1.7000000000000002,-3.3000000000000003,0.0,7.9,-3.6,2.5,-10.700000000000001,-3.1,13.900000000000002,16
912,15375.0,-0.7000000000000001,-2.6,0.0,8.700000000000001,-3.2,2.5,-9.899999999999999,-5.500000000000001,22.000000000000004,16
913,15391.0,0.1,-2.2,-0.2,9.4,-2.8000000000000003,2.3000000000000003,-10.5,-7.699999999999999,24.200000000000003,16
914,15407.0,0.2,-2.3000000000000003,-0.30000000000000004,9.8,-2.9000000000000004,2.1,-14.5,-7.1000000000000005,23.0,16
915,15424.0,0.1,-2.5,-0.7000000000000001,9.700000000000001,-3.2,1.8,-22.9,-3.6000000000000005,23.0,16
916,15440.0,0.1,-3.0,-0.8,9.700000000000001,-3.7,1.6,-34.60000000000001,-0.5,26.700000000000003,16
917,15459.0,0.4,-3.4000000000000004,-0.4,10.200000000000001,-4.6000000000000005,2.3000000000000003,-45.8,1.8000000000000003,34.0,16
918,15474.0,0.6000000000000001,-3.5,0.0,10.200000000000001,-4.6000000000000005,2.3000000000000003,-52.400000000000006,2.1,43.900000000000006,16
919,15490.0,1.1,-2.7,0.7000000000000001,10.5,-4.3,2.9000000000000004,-52.2,-0.1,54.1,16
920,15508.0,1.5,-1.4000000000000001,1.1,10.9,-3.5,3.3000000000000003,-45.6,-4.0,60.300000000000004,16
921,15526.0,1.4000000000000001,0.0,1.1,10.700000000000001,-1.4000000000000001,3.3000000000000003,-36.9,-5.300000000000001,60.7,16
922,15540.0,1.2000000000000002,0.7000000000000001,1.0,10.700000000000001,-1.4000000000000001,3.3000000000000003,-28.500000000000004,-2.8,57.49999999999999,16
923,15556.0,0.6000000000000001,1.8,0.4,10.200000000000001,-0.6000000000000001,2.9000000000000004,-20.5,-0.5,52.300000000000004,16
924,15574.0,0.8,2.1,0.0,10.5,-0.4,2.2,-13.8,-2.7,45.7,16
925,15590.0,1.0,1.9000000000000001,0.0,10.5,-0.4,2.2,-8.899999999999999,-5.500000000000001,38.800000000000004,16
926,15606.0,1.7000000000000002,1.6,0.0,11.0,-0.8,2.2,-4.7,-7.6,31.6,16
927,15624.0,2.0,1.1,-0.1,11.3,-1.2000000000000002,2.1,-1.7,-9.899999999999999,24.3,16
928,15640.0,2.1,1.0,-0.2,11.5,-1.5,2.0,-1.9,-9.4,17.7,16
929,15657.0,2.1,1.0,-0.4,11.5,-1.5,1.7000000000000002,-7.0,-5.6,10.299999999999999,16
930,15673.0,1.6,1.1,-1.0,11.3,-1.5,1.3,-18.6,2.0,2.0,16
931,15690.0,0.9,1.1,-1.1,10.0,-1.5,1.3,-35.599999999999994,11.700000000000001,-6.1000000000000005,16
932,15711.0,0.1,0.9,-0.5,9.3,-1.7000000000000002,1.9000000000000001,-51.70000000000001,20.3,-12.200000000000001,16
933,15726.0,-0.30000000000000004,0.8,-0.1,9.3,-1.7000000000000002,1.9000000000000001,-61.10000000000001,26.300000000000004,-15.6,16
934,15740.0,-0.8,0.8,0.5,8.4,-1.7000000000000002,2.7,-60.900000000000006,29.1,-16.200000000000003,16
935,15757.0,-1.2000000000000002,0.8,0.4,8.1,-1.7000000000000002,2.7,-53.7,27.9,-15.399999999999999,16
936,15773.0,-1.3,0.8,0.4,8.1,-1.7000000000000002,2.7,-43.300000000000004,23.0,-12.9,16
937,15790.0,-1.5,0.8,0.2,7.9,-1.7000000000000002,2.6,-32.9,16.8,-8.899999999999999,16
938,15809.0,-1.3,0.8,0.0,8.200000000000001,-1.6,2.1,-24.200000000000003,10.4,-4.300000000000001,16
939,15825.0,-1.2000000000000002,0.8,-0.2,8.200000000000001,-1.6,2.1,-18.6,5.500000000000001,-0.7,16
940,15840.0,-1.1,0.8,-0.30000000000000004,8.3,-1.7000000000000002,1.9000000000000001,-18.6,5.500000000000001,-0.7,16
941,15857.0,-0.9,0.9,-0.5,8.6,-1.5,1.8,-21.0,7.1000000000000005,4.800000000000001,16
942,15873.0,-0.7000000000000001,1.0,-0.5,8.6,-1.5,1.8,-25.200000000000003,10.8,6.8,16
943,15891.0,-0.4,1.1,-0.4,8.9,-1.4000000000000001,1.9000000000000001,-28.3,12.9,7.1000000000000005,16
944,15907.0,-0.30000000000000004,1.2000000000000002,-0.30000000000000004,9.0,-1.4000000000000001,2.1,-29.500000000000004,13.8,6.300000000000001,16
945,15923.0,-0.5,1.2000000000000002,-0.2,8.700000000000001,-1.5,2.2,-28.700000000000003,13.000000000000002,6.2,16
946,15941.0,-0.6000000000000001,1.2000000000000002,-0.1,8.700000000000001,-1.5,2.2,-27.0,11.900000000000002,7.6,16
947,15959.0,-0.4,1.2000000000000002,0.1,8.8,-1.5,2.4000000000000004,-24.1,11.1,10.1,16
948,15974.0,-0.2,1.4000000000000001,0.2,9.1,-1.3,2.6,-19.799999999999997,11.700000000000001,12.4,16
949,15990.0,-0.1,1.5,0.2,9.1,-1.3,2.6,-14.800000000000002,11.700000000000001,13.6,16
950,16006.0,0.2,1.3,0.1,9.3,-1.5,2.5,-10.299999999999999,10.4,14.400000000000002,16
951,16023.0,0.4,1.0,0.1,9.5,-1.7000000000000002,2.5,-5.6,8.4,16.700000000000003,16
952,16040.0,0.7000000000000001,1.0,0.1,9.9,-1.8,2.6,1.1,3.8,19.799999999999997,16
953,16056.0,1.4000000000000001,1.0,0.1,10.5,-1.9000000000000001,2.6,8.0,-1.6,22.4,16
954,16073.0,2.2,1.2000000000000002,0.2,11.200000000000001,-1.8,2.6,13.399999999999999,-5.2,23.0,16
955,16090.0,2.8000000000000003,1.7000000000000002,0.0,12.100000000000001,-1.0,2.3000000000000003,16.1,-5.2,19.6,16
956,16107.0,2.9000000000000004,1.9000000000000001,-0.2,12.100000000000001,-1.0,2.3000000000000003,14.700000000000001,-3.0,11.3,16
957,16124.0,2.9000000000000004,1.9000000000000001,-0.4,12.100000000000001,-1.0,2.1,7.699999999999999,1.9,0.30000000000000004,16
958,16140.0,2.3000000000000003,1.3,-0.4,11.700000000000001,-1.4000000000000001,2.1,-2.9,10.4,-9.2,16
959,16157.0,1.6,0.5,0.0,10.700000000000001,-2.6,2.8000000000000003,-10.9,16.5,-13.5,16
960,16173.0,1.4000000000000001,0.1,0.2,10.700000000000001,-2.6,2.8000000000000003,-12.7,16.900000000000002,-12.299999999999999,16
961,16190.0,1.5,-0.30000000000000004,0.9,10.700000000000001,-3.0,3.3000000000000003,-8.4,12.7,-7.0,16
962,16207.0,1.6,-0.2,1.5,10.9,-2.6,4.4,2.2,5.8,-0.5,16
963,16227.0,1.6,0.7000000000000001,1.7000000000000002,10.8,-1.8,4.4,17.200000000000003,-0.6000000000000001,4.6,16
964,16240.0,1.5,1.1,1.6,10.8,-1.8,4.4,33.0,-6.9,5.300000000000001,16
965,16257.0,1.1,1.7000000000000002,1.3,10.600000000000001,-1.2000000000000002,4.1000000000000005,45.3,-11.000000000000002,1.9,16
966,16275.0,0.6000000000000001,1.8,0.9,9.700000000000001,-1.0,3.5,52.900000000000006,-11.4,-3.6000000000000005,16
967,16290.0,0.30000000000000004,1.6,0.7000000000000001,9.700000000000001,-1.0,3.5,57.60000000000001,-11.000000000000002,-9.700000000000001,16
968,16306.0,-0.1,0.8,0.4,9.3,-1.5,3.2,60.400000000000006,-10.600000000000001,-13.100000000000001,16
969,16323.0,-0.1,0.0,0.4,9.4,-2.6,3.2,63.500000000000014,-12.5,-12.600000000000001,16
970,16344.0,0.0,-0.30000000000000004,0.4,9.4,-2.6,3.2,68.2,-16.5,-9.899999999999999,16
971,16357.0,0.30000000000000004,-0.6000000000000001,0.4,9.700000000000001,-2.8000000000000003,3.2,73.9,-22.000000000000004,-6.8,16
972,16373.0,0.6000000000000001,-0.4,0.0,10.0,-2.6,2.9000000000000004,78.2,-27.400000000000002,-5.300000000000001,16
973,16397.0,0.8,-0.1,-0.4,10.4,-2.0,2.3000000000000003,77.60000000000001,-32.2,-6.699999999999999,16
974,16407.0,0.9,0.0,-0.4,10.4,-2.0,2.3000000000000003,70.9,-34.50000000000001,-10.600000000000001,16
975,16423.0,1.1,0.1,-0.1,10.600000000000001,-1.8,2.4000000000000004,60.00000000000001,-31.400000000000002,-17.200000000000003,16
976,16444.0,0.7000000000000001,0.2,0.0,10.100000000000001,-1.6,2.5,46.7,-22.8,-26.000000000000004,16
977,16457.0,0.5,0.1,0.0,10.100000000000001,-1.6,2.5,32.400000000000006,-12.8,-34.900000000000006,16
978,16483.0,-0.4,-0.4,0.4,9.200000000000001,-1.9000000000000001,3.0,11.8,-0.2,-47.60000000000001,16
979,16490.0,-0.7000000000000001,-0.6000000000000001,0.6000000000000001,9.200000000000001,-1.9000000000000001,3.0,11.8,-0.2,-47.60000000000001,16
980,16507.0,-1.0,-1.2000000000000002,0.9,8.6,-2.5,3.6,9.5,1.8000000000000003,-49.9,16
981,16523.0,-1.1,-1.4000000000000001,1.0,8.6,-2.5,3.6,11.2,2.4000000000000004,-50.0,16
982,16540.0,-1.3,-1.7000000000000002,0.9,8.4,-2.6,3.5,15.700000000000001,1.1,-48.400000000000006,16
983,16556.0,-1.5,-2.0,0.30000000000000004,8.200000000000001,-2.7,2.6,20.2,-1.4,-45.400000000000006,16
984,16573.0,-1.5,-2.0,0.0,8.200000000000001,-2.7,2.6,20.2,-4.1,-42.3,16
985,16590.0,-1.4000000000000001,-2.1,-0.30000000000000004,8.3,-2.7,2.3000000000000003,15.000000000000002,-4.800000000000001,-39.9,16
986,16606.0,-1.5,-2.3000000000000003,-0.30000000000000004,8.3,-2.7,2.3000000000000003,6.8,-2.2,-37.7,16
987,16623.0,-1.6,-2.3000000000000003,-0.2,8.0,-2.7,2.4000000000000004,-2.1,2.0,-35.2,16
988,16640.0,-1.7000000000000002,-2.3000000000000003,-0.2,8.0,-2.7,2.4000000000000004,-9.4,6.4,-32.6,16
989,16659.0,-2.1,-2.1,-0.1,7.7,-2.5,2.5,-14.200000000000001,9.600000000000001,-28.900000000000002,16
990,16675.0,-2.3000000000000003,-1.8,-0.2,7.2,-2.0,2.3000000000000003,-15.100000000000001,11.1,-25.200000000000003,16
991,16690.0,-2.4000000000000004,-1.7000000000000002,-0.4,7.2,-2.0,2.3000000000000003,-14.200000000000001,10.700000000000001,-21.6,16
992,16707.0,-2.6,-1.6,-0.6000000000000001,7.0,-1.8,2.2,-12.8,9.2,-18.1,16
993,16723.0,-2.7,-1.9000000000000001,-0.9,6.9,-2.0,1.9000000000000001,-11.4,5.0,-13.700000000000001,16
994,16740.0,-2.6,-2.2,-0.9,6.9,-2.5,1.8,-11.4,0.4,-7.0,16
995,16757.0,-2.5,-2.8000000000000003,-0.6000000000000001,7.1000000000000005,-3.0,2.0,-11.700000000000001,-3.4,2.9,16
996,16773.0,-1.8,-2.9000000000000004,-0.4,7.5,-3.2,2.2,-11.000000000000002,-6.9,15.100000000000001,16
997,16790.0,-0.7000000000000001,-2.5,-0.30000000000000004,9.3,-2.8000000000000003,2.4000000000000004,-10.700000000000001,-11.1,26.1,16
998,16806.0,-0.2,-2.3000000000000003,-0.1,9.3,-2.8000000000000003,2.4000000000000004,-11.700000000000001,-14.0,33.1,16
999,16824.0,0.4,-1.6,0.2,9.9,-2.4000000000000004,2.7,-13.200000000000003,-13.200000000000003,35.1,16
1000,16840.0,0.7000000000000001,-1.2000000000000002,0.0,10.100000000000001,-2.0,2.6,-15.899999999999999,-8.899999999999999,33.1,16
1001,16856.0,0.7000000000000001,-1.3,-0.30000000000000004,10.3,-2.2,2.1,-22.4,-4.300000000000001,30.5,16
1002,16873.0,0.9,-2.1,-0.9,10.4,-3.0,1.7000000000000002,-33.6,-1.9,30.4,16
1003,16890.0,1.0,-2.8000000000000003,-0.4,10.5,-3.8000000000000003,1.8,-45.9,-1.0,35.1,16
1004,16906.0,1.5,-2.9000000000000004,0.7000000000000001,11.4,-4.1000000000000005,3.5,-51.70000000000001,-3.7000000000000006,44.10000000000001,16
1005,16924.0,1.9000000000000001,-2.5,1.2000000000000002,11.4,-4.1000000000000005,3.5,-49.6,-6.699999999999999,53.50000000000001,16
1006,16940.0,2.4000000000000004,-1.0,1.6,11.8,-3.1,3.9000000000000004,-42.7,-7.500000000000001,58.800000000000004,16
1007,16958.0,2.1,0.9,1.3,11.8,-1.7000000000000002,3.7,-35.699999999999996,-6.1000000000000005,56.10000000000001,16
1008,16976.0,1.4000000000000001,2.4000000000000004,0.9,10.600000000000001,0.5,3.1,-31.7,-1.1,47.60000000000001,16
1009,16990.0,1.0,2.8000000000000003,0.7000000000000001,10.600000000000001,0.5,3.1,-29.700000000000006,5.6,36.0,16
1010,17006.0,0.4,2.6,0.2,10.0,0.5,2.7,-28.1,8.600000000000001,24.200000000000003,16
1011,17023.0,0.2,1.8,0.5,9.8,-0.8,3.0,-23.900000000000006,6.8,16.6,16
1012,17040.0,0.4,1.4000000000000001,0.6000000000000001,9.8,-0.8,3.0,-15.100000000000001,0.9000000000000001,12.9,16
1013,17057.0,1.0,0.8,0.8,10.3,-1.4000000000000001,3.1,-3.2,-7.400000000000001,10.299999999999999,16
1014,17073.0,1.5,0.4,0.5,10.8,-1.8,2.9000000000000004,5.1000000000000005,-12.8,7.300000000000001,16
1015,17090.0,1.7000000000000002,0.5,0.30000000000000004,11.200000000000001,-1.9000000000000001,2.5,4.5,-10.9,3.6000000000000005,16
1016,17107.0,2.0,0.7000000000000001,-0.2,11.5,-1.7000000000000002,2.1,-4.0,-4.0,-2.4000000000000004,16
1017,17123.0,2.0,0.8,-0.7000000000000001,11.600000000000001,-1.6,1.7000000000000002,-17.300000000000004,4.7,-11.5,16
1018,17141.0,1.0,0.6000000000000001,-1.0,10.0,-1.7000000000000002,1.4000000000000001,-34.2,13.399999999999999,-21.900000000000002,16
1019,17156.0,0.4,0.5,-0.9,10.0,-1.7000000000000002,1.4000000000000001,-51.4,22.9,-29.1,16
1020,17173.0,-0.6000000000000001,0.4,-0.2,9.1,-1.7000000000000002,2.0,-62.6,31.3,-32.2,16
1021,17190.0,-1.2000000000000002,0.30000000000000004,0.0,8.0,-1.8,2.4000000000000004,-63.4,34.0,-32.400000000000006,16
1022,17207.0,-1.5,0.2,0.0,8.0,-1.8,2.4000000000000004,-58.3,32.1,-31.099999999999998,16
1023,17223.0,-2.1,0.0,0.0,7.5,-2.0,2.4000000000000004,-50.60000000000001,27.5,-27.2,16
1024,17241.0,-2.3000000000000003,-0.1,0.1,7.2,-2.1,2.5,-40.800000000000004,21.400000000000002,-20.0,16
1025,17257.0,-2.2,-0.1,-0.2,7.300000000000001,-2.1,2.3000000000000003,-30.200000000000003,15.299999999999999,-11.6,16
1026,17273.0,-2.2,-0.1,-0.30000000000000004,7.300000000000001,-2.1,2.3000000000000003,-21.7,9.899999999999999,-3.1,16
1027,17293.0,-1.8,0.1,-0.5,7.5,-2.0,2.1,-16.700000000000003,6.500000000000001,4.6,16
1028,17306.0,-1.3,0.4,-0.8,8.3,-1.6,1.7000000000000002,-14.700000000000001,5.4,10.8,16
1029,17324.0,-0.9,0.5,-0.9,8.6,-1.7000000000000002,1.7000000000000002,-14.600000000000001,4.300000000000001,14.700000000000001,16
1030,17340.0,-0.7000000000000001,0.5,-0.8,8.6,-1.7000000000000002,1.7000000000000002,-16.0,3.1,17.1,16
1031,17357.0,-0.6000000000000001,0.6000000000000001,-0.6000000000000001,8.700000000000001,-1.7000000000000002,1.9000000000000001,-17.400000000000002,3.4,19.300000000000004,16
1032,17374.0,-0.4,0.8,-0.2,8.9,-1.5,2.4000000000000004,-16.900000000000002,3.8,21.900000000000002,16
1033,17390.0,-0.30000000000000004,0.9,-0.1,8.9,-1.5,2.4000000000000004,-13.700000000000001,3.5,24.3,16
1034,17406.0,-0.1,1.3,0.0,9.1,-1.3,2.5,-9.0,3.2,25.900000000000002,16
1035,17428.0,0.2,1.5,-0.1,9.5,-1.1,2.3000000000000003,-3.6000000000000005,2.9,26.1,16
1036,17440.0,0.30000000000000004,1.5,-0.2,9.5,-1.1,2.3000000000000003,1.0,2.1,25.8,16
1037,17463.0,0.8,1.3,-0.2,9.700000000000001,-1.3,2.3000000000000003,8.600000000000001,-0.7,27.0,16
1038,17473.0,1.0,1.3,-0.1,10.100000000000001,-1.4000000000000001,2.4000000000000004,8.600000000000001,-0.7,27.0,16
1039,17492.0,1.5,1.5,-0.1,10.9,-1.1,2.4000000000000004,13.900000000000002,-3.2,27.400000000000002,16
1040,17506.0,1.7000000000000002,1.7000000000000002,-0.2,10.9,-1.1,2.4000000000000004,19.300000000000004,-6.0,25.200000000000003,16
1041,17524.0,2.1,2.0,-0.4,11.200000000000001,-0.8,2.2,21.8,-8.0,19.1,16
1042,17540.0,2.1,1.8,-0.7000000000000001,11.3,-1.4000000000000001,2.0,18.200000000000003,-6.2,10.8,16
1043,17558.0,2.0,1.0,-0.30000000000000004,11.100000000000001,-2.0,2.5,9.0,-0.9000000000000001,3.9,16
1044,17576.0,1.8,0.7000000000000001,0.0,11.100000000000001,-2.0,2.5,-0.5,7.1000000000000005,0.1,16
1045,17590.0,1.7000000000000002,0.4,0.2,10.9,-2.6,2.9000000000000004,-4.800000000000001,9.600000000000001,0.5,16
1046,17607.0,1.9000000000000001,-0.6000000000000001,0.9,11.3,-3.5,3.9000000000000004,-4.4,6.2,5.4,16
1047,17623.0,2.1,-0.7000000000000001,1.4000000000000001,11.3,-3.5,3.9000000000000004,1.1,0.5,13.100000000000001,16
1048,17642.0,2.4000000000000004,0.30000000000000004,2.0,11.600000000000001,-2.9000000000000004,4.5,13.3,-4.6,20.3,16
1049,17657.0,2.3000000000000003,1.5,1.9000000000000001,11.4,-1.0,4.4,30.1,-11.700000000000001,19.9,16
1050,17673.0,2.2,1.9000000000000001,1.7000000000000002,11.4,-1.0,4.4,43.300000000000004,-18.0,14.700000000000001,16
1051,17690.0,1.6,2.5,1.5,11.0,-0.5,4.2,50.400000000000006,-17.9,6.600000000000001,16
1052,17706.0,1.1,2.6,1.2000000000000002,10.600000000000001,-0.2,4.0,53.300000000000004,-12.9,-3.5,16
1053,17725.0,0.4,1.7000000000000002,0.8,9.5,-1.4000000000000001,3.5,54.6,-8.2,-14.200000000000001,16
1054,17740.0,0.1,1.1,0.7000000000000001,9.5,-1.4000000000000001,3.5,55.400000000000006,-5.7,-19.799999999999997,16
1055,17760.0,-0.1,0.1,0.6000000000000001,9.3,-2.2,3.4000000000000004,57.60000000000001,-6.0,-19.300000000000004,16
1056,17776.0,0.1,-0.4,0.8,9.700000000000001,-2.8000000000000003,3.6,63.70000000000001,-11.000000000000002,-15.000000000000002,16
1057,17790.0,0.30000000000000004,-0.5,0.8,9.700000000000001,-2.8000000000000003,3.6,73.9,-19.9,-10.600000000000001,16
1058,17806.0,0.7000000000000001,-0.2,0.30000000000000004,10.100000000000001,-2.5,3.2,83.2,-30.000000000000004,-8.8,16
1059,17823.0,1.0,0.0,-0.30000000000000004,10.4,-2.1,2.6,84.4,-36.9,-11.6,16
1060,17842.0,1.1,0.1,-0.4,10.600000000000001,-1.8,2.3000000000000003,75.5,-37.50000000000001,-17.799999999999997,16
1061,17856.0,1.0,0.1,-0.30000000000000004,10.600000000000001,-1.8,2.3000000000000003,60.7,-31.3,-25.7,16
1062,17873.0,0.5,0.0,-0.1,10.3,-1.7000000000000002,2.4000000000000004,43.800000000000004,-21.7,-33.6,16
1063,17893.0,0.2,-0.30000000000000004,0.1,9.8,-1.9000000000000001,2.8000000000000003,27.6,-12.200000000000001,-40.800000000000004,16
1064,17906.0,0.1,-0.4,0.2,9.8,-1.9000000000000001,2.8000000000000003,14.200000000000001,-3.9,-47.400000000000006,16
1065,17923.0,-0.2,-0.9,0.6000000000000001,9.5,-2.1,3.1,5.0,1.5,-52.7,16
1066,17940.0,-0.6000000000000001,-1.3,0.9,9.3,-2.3000000000000003,3.4000000000000004,0.1,4.7,-56.9,16
1067,17958.0,-1.2000000000000002,-1.9000000000000001,1.1,8.3,-2.9000000000000004,3.7,-2.2,8.2,-58.800000000000004,16
1068,17973.0,-1.5,-2.1,1.1,8.3,-2.9000000000000004,3.7,-2.8,11.2,-57.699999999999996,16
1069,17990.0,-1.9000000000000001,-2.3000000000000003,1.1,7.9,-3.0,3.7,-1.7,12.200000000000001,-54.0,16
1070,18007.0,-2.0,-2.4000000000000004,1.0,7.5,-3.0,3.6,1.1,12.9,-49.300000000000004,16
1071,18023.0,-2.1,-2.5,0.8,7.5,-3.0,3.6,5.6,12.4,-44.5,16
1072,18040.0,-2.3000000000000003,-2.5,0.4,7.4,-2.9000000000000004,3.2,10.0,9.600000000000001,-39.0,16
1073,18056.0,-2.4000000000000004,-2.6,-0.1,7.2,-2.9000000000000004,2.9000000000000004,12.7,7.200000000000001,-33.0,16
1074,18075.0,-2.5,-2.6,-0.4,7.1000000000000005,-2.8000000000000003,2.5,13.399999999999999,6.1000000000000005,-26.5,16
1075,18092.0,-2.7,-2.3000000000000003,-1.0,6.800000000000001,-2.5,1.8,10.1,2.1,-14.5,16
1076,18106.0,-2.8000000000000003,-2.2,-1.1,6.800000000000001,-2.5,1.8,10.1,2.1,-14.5,16
1077,18125.0,-3.0,-2.1,-1.3,6.4,-2.3000000000000003,1.4000000000000001,6.1000000000000005,1.1,-8.5,16
1078,18140.0,-3.1,-2.1,-1.4000000000000001,6.4,-2.3000000000000003,1.4000000000000001,1.1,-0.1,-1.7,16
1079,18160.0,-2.9000000000000004,-2.2,-1.4000000000000001,6.6000000000000005,-2.4000000000000004,1.4000000000000001,-4.4,-3.0,6.600000000000001,16
1080,18173.0,-2.1,-2.4000000000000004,-1.0,7.1000000000000005,-2.6,1.6,-9.0,-5.6,15.299999999999999,16
1081,18190.0,-1.7000000000000002,-2.4000000000000004,-0.9,7.800000000000001,-2.8000000000000003,1.9000000000000001,-11.3,-8.4,23.6,16
1082,18207.0,-0.8,-2.3000000000000003,-0.6000000000000001,8.5,-2.8000000000000003,2.0,-12.100000000000001,-12.8,30.699999999999996,16
1083,18224.0,-0.1,-2.0,-0.4,9.200000000000001,-2.7,2.2,-13.3,-16.4,35.2,16
1084,18240.0,0.4,-1.4000000000000001,-0.2,10.100000000000001,-2.0,2.3000000000000003,-17.6,-15.8,37.0,16
1085,18256.0,0.6000000000000001,-1.1,-0.2,10.100000000000001,-2.0,2.3000000000000003,-25.0,-11.5,35.1,16
1086,18273.0,0.9,-1.0,-0.30000000000000004,10.4,-2.0,2.3000000000000003,-35.5,-5.500000000000001,30.3,16
1087,18292.0,0.7000000000000001,-1.7000000000000002,-0.2,10.3,-2.5,2.3000000000000003,-47.5,1.6,26.9,16
1088,18307.0,0.7000000000000001,-2.0,0.0,10.200000000000001,-3.3000000000000003,2.5,-56.800000000000004,4.300000000000001,28.800000000000004,16
1089,18324.0,1.1,-2.7,0.5,10.600000000000001,-4.0,2.9000000000000004,-61.199999999999996,1.5,35.5,16
1090,18345.0,1.9000000000000001,-2.9000000000000004,1.2000000000000002,11.200000000000001,-4.5,3.4000000000000004,-61.0,-4.800000000000001,44.5,16
1091,18357.0,2.4000000000000004,-2.1,2.0,11.9,-3.3000000000000003,4.5,-55.5,-9.8,53.400000000000006,16
1092,18374.0,2.5,-1.2000000000000002,2.2,11.9,-3.3000000000000003,4.5,-45.5,-12.100000000000001,58.3,16
1093,18395.0,2.0,2.0,1.9000000000000001,11.3,0.0,4.1000000000000005,-25.6,-1.5,45.7,16
1094,18406.0,1.6,2.8000000000000003,1.5,11.3,0.0,4.1000000000000005,-25.6,-1.5,45.7,16
1095,18423.0,0.8,3.0,0.6000000000000001,9.9,0.2,2.8000000000000003,-20.8,6.300000000000001,29.700000000000006,16
1096,18440.0,0.4,2.5,0.30000000000000004,9.9,0.2,2.8000000000000003,-18.8,10.9,16.6,16
1097,18456.0,0.0,1.4000000000000001,0.2,9.4,-0.8,2.6,-14.900000000000002,9.8,11.900000000000002,16
1098,18473.0,0.6000000000000001,0.8,0.5,10.5,-1.9000000000000001,2.9000000000000004,-4.300000000000001,0.30000000000000004,13.100000000000001,16
1099,18492.0,1.6,0.5,0.4,11.100000000000001,-2.0,2.6,9.100000000000001,-12.0,13.3,16
1100,18507.0,1.8,0.5,0.2,11.100000000000001,-2.0,2.6,17.0,-18.700000000000003,9.899999999999999,16
1101,18523.0,1.8,0.4,-0.4,11.100000000000001,-2.0,1.7000000000000002,12.9,-16.200000000000003,4.1,16
1102,18540.0,1.6,0.5,-0.6000000000000001,11.100000000000001,-2.0,1.7000000000000002,-1.5,-5.7,-2.5,16
1103,18556.0,1.0,0.6000000000000001,-0.9,10.600000000000001,-1.9000000000000001,1.4000000000000001,-22.000000000000004,9.3,-9.0,16
1104,18573.0,0.2,0.7000000000000001,-0.7000000000000001,9.9,-1.8,1.5,-41.900000000000006,23.0,-14.5,16
1105,18590.0,-0.5,0.6000000000000001,-0.1,8.700000000000001,-1.9000000000000001,2.5,-52.7,30.4,-17.7,16
1106,18606.0,-0.8,0.5,0.1,8.700000000000001,-1.9000000000000001,2.5,-52.5,31.099999999999998,-18.200000000000003,16
1107,18623.0,-1.4000000000000001,0.5,0.30000000000000004,8.1,-2.0,2.7,-44.2,27.2,-15.6,16
1108,18640.0,-1.7000000000000002,0.5,0.1,7.7,-1.9000000000000001,2.5,-31.2,18.700000000000003,-10.700000000000001,16
1109,18656.0,-1.7000000000000002,0.5,0.0,7.7,-1.9000000000000001,2.5,-18.5,9.3,-5.4,16
1110,18673.0,-1.4000000000000001,0.6000000000000001,-0.30000000000000004,7.9,-1.8,2.3000000000000003,-10.1,3.7000000000000006,-1.0,16
1111,18690.0,-1.3,0.6000000000000001,-0.7000000000000001,8.0,-1.8,1.9000000000000001,-7.300000000000001,2.7,2.8,16
1112,18706.0,-1.2000000000000002,0.5,-0.9,8.200000000000001,-1.9000000000000001,1.5,-8.700000000000001,3.2,7.1000000000000005,16
1113,18723.0,-1.1,0.5,-0.9,8.200000000000001,-1.9000000000000001,1.5,-11.6,3.9,12.200000000000001,16
1114,18741.0,-0.7000000000000001,0.9,-0.7000000000000001,8.5,-1.7000000000000002,1.7000000000000002,-13.700000000000001,3.0,16.8,16
1115,18759.0,-0.2,1.1,-0.4,9.200000000000001,-1.4000000000000001,2.1,-13.100000000000001,1.2000000000000002,18.4,16
1116,18773.0,0.0,1.2000000000000002,-0.30000000000000004,9.200000000000001,-1.4000000000000001,2.1,-11.3,1.1,17.799999999999997,16
1117,18790.0,-0.1,1.4000000000000001,-0.4,9.200000000000001,-1.3,2.1,-9.899999999999999,1.8000000000000003,16.8,16
1118,18807.0,-0.30000000000000004,1.4000000000000001,-0.4,9.1,-1.3,2.1,-9.100000000000001,2.3,16.5,16
1119,18824.0,-0.30000000000000004,1.5,-0.30000000000000004,8.9,-1.3,2.2,-7.500000000000001,2.1,17.6,16
1120,18840.0,-0.1,1.7000000000000002,-0.1,9.1,-1.1,2.3000000000000003,-4.4,1.2000000000000002,18.0,16
1121,18857.0,0.0,1.8,-0.1,9.200000000000001,-1.0,2.3000000000000003,-0.1,0.1,16.900000000000002,16
1122,18892.0,0.4,1.2000000000000002,-0.1,9.5,-1.7000000000000002,2.3000000000000003,5.4,-1.9,17.7,16
1123,18906.0,0.9,1.0,0.1,10.0,-1.9000000000000001,2.5,9.4,-4.4,20.400000000000002,16
1124,18923.0,1.5,1.0,0.30000000000000004,10.5,-2.0,2.7,15.8,-8.8,22.6,16
1125,18941.0,2.1,1.5,0.2,11.5,-1.3,2.5,21.400000000000002,-11.700000000000001,23.2,16
1126,18957.0,2.3000000000000003,1.8,0.0,11.5,-1.3,2.5,24.400000000000002,-12.8,19.300000000000004,16
1127,18973.0,2.7,2.0,-0.30000000000000004,11.8,-1.0,2.2,22.4,-12.5,11.6,16
1128,18990.0,2.7,1.8,-0.4,11.8,-1.5,2.0,13.900000000000002,-7.6,1.2000000000000002,16
1129,19009.0,2.4000000000000004,1.0,-0.1,11.5,-2.2,2.6,2.0,-1.2000000000000002,-7.9,16
1130,19023.0,2.1,0.6000000000000001,0.30000000000000004,11.5,-2.2,2.6,-8.2,5.6,-12.8,16
1131,19040.0,1.8,0.1,0.9,11.200000000000001,-2.7,3.1,-11.4,9.2,-13.100000000000001,16
1132,19056.0,1.7000000000000002,0.1,1.2000000000000002,11.0,-2.8000000000000003,3.6,-8.4,9.100000000000001,-11.000000000000002,16
1133,19073.0,1.5,0.5,1.5,10.8,-2.4000000000000004,3.9000000000000004,-0.9000000000000001,7.1000000000000005,-9.600000000000001,16
1134,19092.0,1.3,0.9,1.4000000000000001,10.700000000000001,-2.0,3.9000000000000004,8.600000000000001,2.3,-10.5,16
1135,19106.0,1.0,0.7000000000000001,1.5,10.200000000000001,-2.0,4.1000000000000005,16.8,-2.2,-12.0,16
1136,19123.0,0.8,0.8,1.6,10.200000000000001,-2.0,4.1000000000000005,24.3,-3.4,-12.600000000000001,16
1137,19140.0,0.7000000000000001,0.9,1.8,10.100000000000001,-1.8,4.3,33.0,-4.1,-13.200000000000003,16
1138,19157.0,0.5,0.9,1.5,10.0,-1.7000000000000002,4.2,43.2,-3.9,-15.6,16
1139,19174.0,0.30000000000000004,0.8,1.3,9.8,-1.7000000000000002,3.8000000000000003,51.70000000000001,-4.1,-18.3,16
1140,19191.0,0.1,0.2,0.7000000000000001,9.600000000000001,-2.0,3.4000000000000004,57.800000000000004,-5.7,-19.700000000000003,16
1141,19216.0,0.1,-0.6000000000000001,0.5,9.600000000000001,-2.8000000000000003,3.2,69.9,-14.400000000000002,-16.5,16
1142,19229.0,0.1,-0.8,0.5,9.600000000000001,-3.0,3.1,69.9,-14.400000000000002,-16.5,16
1143,19240.0,0.1,-0.9,0.4,9.600000000000001,-3.0,3.1,77.20000000000002,-21.6,-13.700000000000001,16
1144,19262.0,0.4,-0.8,0.1,9.8,-2.8000000000000003,2.8000000000000003,81.3,-26.700000000000003,-12.100000000000001,16
1145,19273.0,0.5,-0.7000000000000001,-0.30000000000000004,10.100000000000001,-2.6,2.4000000000000004,79.39999999999999,-29.200000000000003,-13.8,16
1146,19290.0,0.2,-0.7000000000000001,-0.5,9.700000000000001,-2.3000000000000003,2.0,71.30000000000001,-27.3,-17.1,16
1147,19310.0,0.0,-0.6000000000000001,-0.5,9.600000000000001,-2.2,2.1,45.0,-16.4,-25.200000000000003,16
