,ms,accelX,accelY,accelZ,accelWithGX,accelWithGY,accelWithGZ,rotRateAlpha,rotRateBeta,rotRateGamma,interval
0,200.0,0.0,0.0,0.4,1.3,4.6000000000000005,8.700000000000001,-0.2,5.0,-1.6,16
1,217.0,0.0,0.0,0.4,1.3,4.6000000000000005,8.700000000000001,-0.2,5.0,-1.6,16
2,233.0,-0.1,0.1,0.4,1.1,4.6000000000000005,8.9,-1.2000000000000002,1.8000000000000003,-1.3,16
3,250.0,-0.2,0.1,0.4,1.1,4.6000000000000005,8.9,-0.8,0.9000000000000001,-0.4,16
4,267.0,-0.1,0.1,0.4,1.1,4.6000000000000005,8.9,0.5,-0.5,0.2,16
5,283.0,0.0,0.1,0.1,1.2000000000000002,4.7,8.5,1.2000000000000002,-5.300000000000001,0.2,16
6,300.0,0.0,0.1,-0.1,1.2000000000000002,4.7,8.4,-0.5,-4.300000000000001,0.4,16
7,317.0,0.0,0.1,-0.1,1.2000000000000002,4.7,8.4,-0.5,-4.300000000000001,0.4,16
8,333.0,-0.1,0.1,-0.1,1.2000000000000002,4.7,8.5,-0.7,-2.5,1.1,16
9,350.0,-0.1,0.1,-0.1,1.1,4.800000000000001,8.4,-0.2,-1.0,1.7,16
10,367.0,-0.1,0.2,-0.2,1.1,4.800000000000001,8.4,-0.2,-1.0,1.7,16
11,383.0,-0.2,0.1,-0.1,1.0,4.800000000000001,8.4,-0.9000000000000001,2.1,3.0,16
12,400.0,-0.2,0.1,0.1,0.9,4.7,8.700000000000001,-1.7,3.8,5.300000000000001,16
13,417.0,-0.30000000000000004,0.1,0.1,0.9,4.7,8.700000000000001,-1.7,3.8,5.300000000000001,16
14,433.0,-0.30000000000000004,0.0,0.2,0.9,4.6000000000000005,8.700000000000001,-2.0,3.0,6.2,16
15,450.0,-0.4,0.0,0.1,0.8,4.5,8.700000000000001,-1.8000000000000003,1.9,7.9,16
16,467.0,-0.4,0.0,0.1,0.8,4.5,8.700000000000001,-1.8000000000000003,1.9,7.9,16
17,484.0,-0.30000000000000004,0.0,0.1,0.8,4.5,8.700000000000001,-1.4,2.5,9.100000000000001,16
18,500.0,-0.30000000000000004,-0.1,0.1,0.8,4.4,8.700000000000001,-0.30000000000000004,7.300000000000001,12.100000000000001,16
19,517.0,-0.30000000000000004,-0.1,0.1,0.8,4.4,8.700000000000001,-0.30000000000000004,7.300000000000001,12.100000000000001,16
20,533.0,-0.2,-0.2,0.2,0.9,4.3,8.8,0.4,8.4,12.8,16
21,550.0,-0.1,-0.2,0.2,1.1,4.3,8.700000000000001,1.5,4.4,12.200000000000001,16
22,567.0,0.0,-0.2,0.1,1.1,4.3,8.700000000000001,1.5,4.4,12.200000000000001,16
23,583.0,0.1,-0.1,-0.1,1.2000000000000002,4.4,8.5,1.2000000000000002,3.0,11.900000000000002,16
24,600.0,0.2,-0.1,-0.30000000000000004,1.4000000000000001,4.4,8.3,-0.6000000000000001,6.300000000000001,11.4,16
25,617.0,0.30000000000000004,-0.1,-0.30000000000000004,1.4000000000000001,4.4,8.3,-0.6000000000000001,6.300000000000001,11.4,16
26,633.0,0.30000000000000004,0.0,-0.1,1.5,4.4,8.4,-0.4,8.700000000000001,11.5,16
27,650.0,0.30000000000000004,0.0,-0.1,1.5,4.5,8.4,2.2,9.2,10.4,16
28,667.0,0.30000000000000004,0.0,-0.1,1.5,4.5,8.4,2.2,9.2,10.4,16
29,683.0,0.1,0.0,-0.2,1.3,4.5,8.3,1.0,11.8,10.200000000000001,16
30,700.0,0.0,0.0,0.0,1.1,4.4,8.700000000000001,-1.1,17.7,11.1,16
31,717.0,0.0,-0.1,0.1,1.1,4.4,8.700000000000001,-1.1,17.7,11.1,16
32,733.0,-0.1,-0.2,0.4,1.0,4.3,8.9,0.8,19.5,11.2,16
33,750.0,-0.1,-0.1,0.4,0.9,4.5,9.0,5.300000000000001,17.0,12.100000000000001,16
34,767.0,-0.1,0.1,0.30000000000000004,0.9,4.6000000000000005,8.8,4.300000000000001,13.6,13.6,16
35,783.0,0.0,0.1,0.1,0.9,4.6000000000000005,8.8,4.300000000000001,13.6,13.6,16
36,800.0,0.1,0.1,0.0,1.2000000000000002,4.6000000000000005,8.700000000000001,-1.2000000000000002,8.700000000000001,17.300000000000004,16
37,817.0,0.2,0.1,0.0,1.3,4.5,8.700000000000001,-1.6,8.100000000000001,18.200000000000003,16
38,833.0,0.30000000000000004,0.0,0.1,1.3,4.5,8.700000000000001,-1.6,8.100000000000001,18.200000000000003,16
39,850.0,0.4,0.0,0.0,1.4000000000000001,4.5,8.700000000000001,-0.5,8.2,18.4,16
40,867.0,0.6000000000000001,0.0,-0.1,1.6,4.4,8.5,-0.30000000000000004,9.899999999999999,17.0,16
41,883.0,0.6000000000000001,-0.1,-0.2,1.6,4.4,8.5,-0.30000000000000004,9.899999999999999,17.0,16
42,900.0,0.6000000000000001,-0.1,-0.1,1.7000000000000002,4.3,8.5,-2.3,10.700000000000001,15.6,16
43,917.0,0.5,-0.2,0.0,1.5,4.1000000000000005,8.8,-2.8,14.700000000000001,12.200000000000001,16
44,933.0,0.4,-0.30000000000000004,0.2,1.5,4.1000000000000005,8.8,-2.8,14.700000000000001,12.200000000000001,16
45,950.0,0.30000000000000004,-0.30000000000000004,0.4,1.4000000000000001,4.1000000000000005,9.0,-0.4,16.1,10.5,16
46,967.0,0.2,-0.30000000000000004,0.4,1.2000000000000002,4.1000000000000005,9.1,3.0,14.100000000000001,6.0,16
47,983.0,0.1,-0.30000000000000004,0.30000000000000004,1.2000000000000002,4.1000000000000005,9.1,3.0,14.100000000000001,6.0,16
48,1000.0,0.0,-0.1,0.30000000000000004,1.0,4.2,9.0,2.4000000000000004,12.4,4.7,16
49,1017.0,-0.1,-0.1,0.30000000000000004,1.0,4.3,9.0,1.5,8.100000000000001,5.300000000000001,16
50,1034.0,0.0,-0.1,0.2,1.0,4.3,9.0,1.5,8.100000000000001,5.300000000000001,16
51,1050.0,0.2,-0.1,0.0,1.1,4.3,8.8,0.9000000000000001,5.4,4.800000000000001,16
52,1067.0,0.2,0.0,-0.1,1.2000000000000002,4.4,8.700000000000001,-1.2000000000000002,7.9,3.2,16
53,1083.0,0.2,0.1,-0.1,1.2000000000000002,4.4,8.700000000000001,-1.2000000000000002,7.9,3.2,16
54,1100.0,0.2,0.2,0.0,1.1,4.5,8.8,-0.6000000000000001,8.600000000000001,3.5,16
55,1117.0,0.2,0.1,0.1,1.2000000000000002,4.4,8.9,-0.30000000000000004,8.899999999999999,3.8,16
56,1133.0,0.30000000000000004,0.1,0.1,1.2000000000000002,4.4,8.9,-0.30000000000000004,8.899999999999999,3.8,16
57,1150.0,0.2,0.1,0.30000000000000004,1.2000000000000002,4.5,9.0,-0.9000000000000001,7.6,3.0,16
58,1167.0,0.1,0.2,0.4,1.0,4.6000000000000005,9.200000000000001,-4.5,1.8000000000000003,3.0,16
59,1183.0,0.1,0.2,0.4,1.0,4.6000000000000005,9.200000000000001,-4.5,1.8000000000000003,3.0,16
60,1200.0,0.0,0.2,0.5,1.0,4.6000000000000005,9.3,-6.0,0.1,3.8,16
61,1217.0,-0.1,0.2,0.4,0.9,4.5,9.3,-6.300000000000001,-2.6,4.9,16
62,1233.0,-0.1,0.2,0.30000000000000004,0.9,4.5,9.3,-6.300000000000001,-1.3,5.500000000000001,16
63,1250.0,-0.1,0.2,0.4,0.9,4.5,9.3,-6.300000000000001,-1.3,5.500000000000001,16
64,1267.0,-0.1,0.1,0.30000000000000004,0.9,4.4,9.200000000000001,-6.4,-4.5,5.4,16
65,1283.0,-0.1,0.1,0.1,0.9,4.4,9.0,-8.5,-7.8,4.4,16
66,1300.0,-0.1,0.1,-0.1,0.9,4.4,9.0,-8.5,-7.8,4.4,16
67,1317.0,-0.2,0.1,-0.1,0.8,4.4,8.8,-11.1,-8.700000000000001,4.1,16
68,1333.0,-0.30000000000000004,0.1,-0.2,0.7000000000000001,4.3,8.8,-10.299999999999999,-9.3,4.4,16
69,1350.0,-0.4,0.1,-0.2,0.7000000000000001,4.3,8.8,-10.299999999999999,-9.3,4.4,16
70,1367.0,-0.6000000000000001,0.2,-0.30000000000000004,0.5,4.4,8.700000000000001,-9.3,-10.299999999999999,5.500000000000001,16
71,1383.0,-0.6000000000000001,0.1,-0.4,0.5,4.2,8.3,-7.9,-20.1,9.4,16
72,1400.0,-0.6000000000000001,0.0,-0.7000000000000001,0.5,4.2,8.3,-7.9,-20.1,9.4,16
73,1417.0,-0.5,0.1,-1.2000000000000002,0.6000000000000001,4.2,7.800000000000001,-11.1,-26.9,10.200000000000001,16
74,1433.0,-0.5,0.2,-1.5,0.8,4.2,7.4,-21.200000000000003,-25.300000000000004,15.5,16
75,1450.0,-0.5,0.2,-1.4000000000000001,0.8,4.2,7.4,-21.200000000000003,-25.300000000000004,15.5,16
76,1467.0,-0.30000000000000004,0.0,-0.9,1.0,4.0,7.800000000000001,-21.300000000000004,-17.799999999999997,19.6,16
77,1483.0,-0.2,-0.30000000000000004,-0.4,1.3,3.5,8.700000000000001,-4.300000000000001,-1.4,23.900000000000006,16
78,1500.0,-0.2,-0.4,-0.2,1.3,3.5,8.700000000000001,-4.300000000000001,-1.4,23.900000000000006,16
79,1517.0,0.0,-0.5,-0.30000000000000004,1.5,3.4000000000000004,8.700000000000001,6.0,2.9,24.1,16
80,1533.0,0.2,-0.6000000000000001,-0.6000000000000001,1.8,3.3000000000000003,8.200000000000001,8.899999999999999,8.8,22.4,16
81,1550.0,0.30000000000000004,-0.6000000000000001,-0.7000000000000001,1.8,3.3000000000000003,8.200000000000001,8.899999999999999,8.8,22.4,16
82,1567.0,0.2,-0.5,-0.6000000000000001,1.7000000000000002,3.4000000000000004,8.200000000000001,1.9,10.600000000000001,22.000000000000004,16
83,1583.0,0.2,-0.5,-0.30000000000000004,1.8,3.3000000000000003,8.700000000000001,-12.0,7.300000000000001,22.9,16
84,1600.0,0.30000000000000004,-0.6000000000000001,-0.2,1.8,3.3000000000000003,8.700000000000001,-12.0,7.300000000000001,22.9,16
85,1617.0,0.5,-0.6000000000000001,-0.1,2.0,3.2,8.8,-15.399999999999999,4.4,21.300000000000004,16
86,1633.0,0.6000000000000001,-0.5,-0.2,2.2,3.2,8.700000000000001,-18.0,0.5,14.300000000000002,16
87,1650.0,0.7000000000000001,-0.4,-0.30000000000000004,2.2,3.2,8.700000000000001,-18.6,2.0,10.0,16
88,1667.0,0.6000000000000001,-0.30000000000000004,-0.2,2.2,3.2,8.700000000000001,-18.6,2.0,10.0,16
89,1683.0,0.4,-0.2,0.0,1.9000000000000001,3.4000000000000004,8.9,-17.1,2.0,5.2,16
90,1700.0,0.2,-0.1,0.0,1.8,3.3000000000000003,9.0,-16.700000000000003,3.2,4.800000000000001,16
91,1717.0,0.2,-0.2,0.0,1.8,3.3000000000000003,9.0,-16.700000000000003,3.2,4.800000000000001,16
92,1733.0,0.0,-0.2,0.1,1.7000000000000002,3.2,9.0,-17.7,5.1000000000000005,4.4,16
93,1750.0,-0.2,-0.2,0.4,1.3,3.2,9.700000000000001,-16.3,13.399999999999999,4.300000000000001,16
94,1767.0,-0.2,-0.1,0.7000000000000001,1.3,3.2,9.700000000000001,-16.3,13.399999999999999,4.300000000000001,16
95,1783.0,-0.4,-0.1,0.9,1.1,3.2,10.0,-12.0,15.399999999999999,5.7,16
96,1800.0,-0.4,-0.1,0.8,1.0,3.1,9.9,-2.9,14.900000000000002,7.6,16
97,1817.0,-0.5,-0.1,0.7000000000000001,1.0,3.1,9.9,-2.9,14.900000000000002,7.6,16
98,1833.0,-0.6000000000000001,0.0,0.6000000000000001,0.8,3.2,9.8,-2.0,13.399999999999999,8.5,16
99,1850.0,-0.6000000000000001,0.1,0.4,0.9,3.3000000000000003,9.5,-3.8,4.4,12.299999999999999,16
100,1867.0,-0.5,0.1,0.30000000000000004,0.9,3.3000000000000003,9.5,-3.8,4.4,12.299999999999999,16
101,1884.0,-0.30000000000000004,0.2,0.1,1.0,3.3000000000000003,9.4,-4.2,2.5,13.399999999999999,16
102,1900.0,-0.1,0.30000000000000004,-0.1,1.3,3.4000000000000004,9.1,-1.2000000000000002,3.3000000000000007,14.5,16
103,1917.0,0.0,0.30000000000000004,-0.2,1.3,3.4000000000000004,9.1,-1.2000000000000002,3.3000000000000007,14.5,16
104,1934.0,0.2,0.2,-0.4,1.5,3.4000000000000004,8.9,0.0,6.4,14.400000000000002,16
105,1950.0,0.30000000000000004,0.30000000000000004,-0.4,1.6,3.4000000000000004,8.9,0.4,16.3,13.399999999999999,16
106,1967.0,0.30000000000000004,0.30000000000000004,-0.30000000000000004,1.6,3.4000000000000004,8.9,0.4,16.3,13.399999999999999,16
107,1983.0,0.30000000000000004,0.2,0.1,1.6,3.4000000000000004,9.3,1.7,20.1,13.900000000000002,16
108,2000.0,0.4,0.0,0.2,1.7000000000000002,3.2,9.4,2.1,17.5,12.7,16
109,2017.0,0.5,0.0,0.2,1.7000000000000002,3.2,9.4,2.1,17.5,12.7,16
110,2033.0,0.5,0.0,0.30000000000000004,1.7000000000000002,3.1,9.600000000000001,1.2000000000000002,15.5,11.1,16
111,2050.0,0.4,0.0,0.30000000000000004,1.6,3.2,9.600000000000001,3.2,11.4,8.0,16
112,2067.0,0.4,0.1,0.30000000000000004,1.6,3.2,9.600000000000001,3.2,11.4,8.0,16
113,2085.0,0.4,0.1,0.30000000000000004,1.6,3.2,9.600000000000001,5.300000000000001,10.4,7.8,16
114,2100.0,0.5,0.0,0.0,1.7000000000000002,3.3000000000000003,9.200000000000001,6.0,6.1000000000000005,5.7,16
115,2117.0,0.5,0.1,-0.1,1.7000000000000002,3.3000000000000003,9.200000000000001,6.0,6.1000000000000005,5.7,16
116,2134.0,0.4,0.2,-0.2,1.6,3.4000000000000004,9.1,5.0,5.4,4.5,16
117,2160.0,0.4,0.2,-0.30000000000000004,1.6,3.4000000000000004,9.0,5.500000000000001,5.0,2.7,16
118,2167.0,0.4,0.2,-0.30000000000000004,1.6,3.4000000000000004,9.0,5.500000000000001,5.0,2.7,16
119,2184.0,0.4,0.2,-0.30000000000000004,1.6,3.5,9.0,5.8,6.300000000000001,1.2000000000000002,16
120,2200.0,0.30000000000000004,0.2,-0.30000000000000004,1.6,3.5,8.9,6.1000000000000005,7.400000000000001,-0.4,16
121,2217.0,0.2,0.30000000000000004,0.0,1.4000000000000001,3.7,9.3,7.300000000000001,9.0,-0.8,16
122,2234.0,0.1,0.30000000000000004,0.1,1.4000000000000001,3.7,9.3,7.300000000000001,9.0,-0.8,16
123,2250.0,0.2,0.30000000000000004,0.0,1.4000000000000001,3.7,9.3,6.8,6.8,-0.4,16
124,2267.0,0.1,0.30000000000000004,0.0,1.3,3.7,9.200000000000001,4.800000000000001,5.2,-0.5,16
125,2285.0,0.1,0.2,0.1,1.3,3.6,9.3,3.1,5.2,-0.30000000000000004,16
126,2300.0,0.0,0.1,0.4,1.2000000000000002,3.6,9.5,4.1,4.5,-0.1,16
127,2317.0,0.0,0.0,0.4,1.2000000000000002,3.5,9.600000000000001,9.700000000000001,-1.1,-0.6000000000000001,16
128,2334.0,0.0,0.0,0.30000000000000004,1.2000000000000002,3.5,9.600000000000001,9.700000000000001,-1.1,-0.6000000000000001,16
129,2350.0,0.0,0.0,-0.1,1.2000000000000002,3.5,9.3,10.700000000000001,-4.9,-1.7,16
130,2367.0,0.0,0.0,-0.30000000000000004,1.1,3.6,8.9,9.0,-5.2,-2.7,16
131,2384.0,-0.1,0.0,-0.30000000000000004,1.1,3.6,8.9,9.0,-5.2,-2.7,16
132,2400.0,-0.1,0.0,-0.2,1.1,3.7,9.0,9.2,-2.4000000000000004,-2.0,16
133,2417.0,-0.2,-0.1,-0.1,1.1,3.5,9.0,11.4,-1.4,-2.1,16
134,2434.0,-0.1,-0.2,-0.2,1.1,3.5,9.0,11.4,-1.4,-2.1,16
135,2450.0,-0.1,-0.1,-0.2,1.1,3.6,8.9,11.1,-1.6,-3.9,16
136,2467.0,-0.2,0.0,-0.1,0.9,3.8000000000000003,9.0,8.700000000000001,-2.3,-5.7,16
137,2484.0,-0.30000000000000004,0.0,-0.1,0.9,3.8000000000000003,9.0,8.700000000000001,-2.3,-5.7,16
138,2501.0,-0.30000000000000004,0.1,0.0,0.9,3.8000000000000003,9.0,7.8,-2.2,-5.8,16
139,2517.0,-0.30000000000000004,0.2,0.1,0.7000000000000001,4.0,9.200000000000001,7.6,-1.0,-4.1,16
140,2534.0,-0.4,0.2,0.1,0.7000000000000001,4.0,9.200000000000001,7.6,-1.0,-4.1,16
141,2552.0,-0.4,0.2,0.30000000000000004,0.7000000000000001,4.1000000000000005,9.3,7.6,-0.6000000000000001,-2.0,16
142,2570.0,-0.4,0.0,0.4,0.7000000000000001,3.9000000000000004,9.4,8.700000000000001,-5.0,1.3,16
143,2583.0,-0.30000000000000004,0.0,0.30000000000000004,0.7000000000000001,3.9000000000000004,9.4,8.700000000000001,-5.0,1.3,16
144,2600.0,-0.30000000000000004,-0.1,0.2,0.8,3.8000000000000003,9.3,8.8,-7.300000000000001,1.7,16
145,2618.0,-0.30000000000000004,-0.2,0.1,0.8,3.8000000000000003,9.1,10.8,-8.8,3.0,16
146,2634.0,-0.30000000000000004,-0.2,0.1,0.8,3.8000000000000003,9.1,10.8,-8.8,3.0,16
147,2650.0,-0.2,-0.30000000000000004,-0.30000000000000004,0.9,3.7,8.8,12.200000000000001,-10.700000000000001,3.1,16
148,2677.0,0.2,-0.2,-0.7000000000000001,1.4000000000000001,3.8000000000000003,8.200000000000001,8.5,-8.0,1.2000000000000002,16
149,2684.0,0.2,-0.2,-0.7000000000000001,1.6,3.8000000000000003,8.1,5.300000000000001,-3.9,-0.4,16
150,2700.0,0.4,-0.2,-0.9,1.6,3.8000000000000003,8.1,5.300000000000001,-3.9,-0.4,16
151,2717.0,0.2,-0.1,-0.7000000000000001,1.5,3.9000000000000004,8.0,2.2,1.9,-1.8000000000000003,16
152,2734.0,-0.1,0.1,0.0,1.1,4.1000000000000005,8.9,1.9,7.300000000000001,2.6,16
153,2750.0,-0.1,0.0,0.1,1.1,4.1000000000000005,8.9,1.9,7.300000000000001,2.6,16
154,2774.0,0.2,-0.30000000000000004,-0.2,1.3,3.7,8.700000000000001,-1.9,-1.1,2.3,16
155,2784.0,0.2,-0.4,-0.2,1.4000000000000001,3.6,8.700000000000001,-5.7,-3.2,-1.0,16
156,2800.0,0.2,-0.4,-0.1,1.4000000000000001,3.6,8.700000000000001,-5.7,-3.2,-1.0,16
157,2830.0,0.0,-0.1,0.0,1.2000000000000002,3.8000000000000003,8.8,-6.699999999999999,-3.4,-4.0,16
158,2834.0,0.0,-0.1,0.0,1.1,3.8000000000000003,8.8,-5.1000000000000005,-2.1,-3.6000000000000005,16
159,2851.0,-0.1,-0.1,0.0,1.1,3.8000000000000003,8.8,-5.1000000000000005,-2.1,-3.6000000000000005,16
160,2867.0,0.0,-0.1,-0.1,1.2000000000000002,3.8000000000000003,8.8,-2.6,-1.3,-3.4,16
161,2883.0,0.0,-0.2,-0.2,1.2000000000000002,3.7,8.6,-2.0,2.7,-5.2,16
162,2900.0,0.0,-0.2,-0.2,1.2000000000000002,3.7,8.6,-2.0,2.7,-5.2,16
163,2917.0,-0.1,-0.1,-0.1,1.2000000000000002,3.7,8.700000000000001,-2.7,4.2,-6.300000000000001,16
164,2933.0,-0.2,0.0,0.1,1.0,3.8000000000000003,9.0,-1.2000000000000002,3.1,-5.6,16
165,2950.0,-0.2,0.0,0.1,1.0,3.8000000000000003,9.0,-1.2000000000000002,3.1,-5.6,16
166,2970.0,-0.1,-0.1,0.0,1.0,3.8000000000000003,8.9,-1.1,1.2000000000000002,-5.0,16
167,2983.0,-0.1,-0.1,0.0,1.0,3.8000000000000003,8.9,-3.5,1.2000000000000002,-5.2,16
168,3000.0,-0.1,-0.1,0.0,1.0,3.8000000000000003,8.9,-3.5,1.2000000000000002,-5.2,16
169,3017.0,-0.1,0.0,0.2,1.0,3.8000000000000003,9.0,-2.9,1.5,-5.0,16
170,3034.0,-0.1,0.0,0.30000000000000004,1.0,3.8000000000000003,9.1,1.1,1.9,-4.2,16
171,3050.0,-0.1,-0.1,0.30000000000000004,1.0,3.8000000000000003,9.1,1.1,1.9,-4.2,16
172,3077.0,0.0,-0.1,0.1,1.0,3.8000000000000003,9.0,0.30000000000000004,1.0,-5.0,16
173,3085.0,-0.1,0.0,0.1,0.9,3.8000000000000003,9.1,-1.9,1.7,-4.6,16
174,3101.0,-0.1,0.0,0.30000000000000004,0.9,3.8000000000000003,9.3,-1.6,0.8,-3.9,16
175,3117.0,-0.1,-0.1,0.4,0.9,3.8000000000000003,9.3,-1.6,0.8,-3.9,16
176,3134.0,-0.1,-0.1,0.2,0.9,3.7,9.200000000000001,0.1,-0.4,-3.7000000000000006,16
177,3155.0,-0.2,-0.1,0.30000000000000004,0.8,3.8000000000000003,9.200000000000001,4.5,0.30000000000000004,-2.9,16
178,3178.0,-0.2,0.0,0.2,0.8,3.8000000000000003,9.1,5.9,-1.2000000000000002,-2.0,16
179,3184.0,-0.1,0.0,0.0,0.8,3.8000000000000003,9.1,5.9,-1.2000000000000002,-2.0,16
180,3201.0,0.0,0.0,-0.2,0.9,3.9000000000000004,8.8,2.1,-1.0,-0.5,16
181,3217.0,-0.1,0.0,-0.1,0.9,3.9000000000000004,8.8,2.1,-1.0,-0.5,16
182,3234.0,-0.1,0.0,0.2,0.9,3.9000000000000004,9.0,0.9000000000000001,0.2,0.9000000000000001,16
183,3250.0,-0.1,-0.1,0.2,1.0,3.8000000000000003,9.1,3.8,-3.2,2.9,16
184,3273.0,0.1,-0.1,-0.1,1.0,3.8000000000000003,8.9,3.4,-3.7000000000000006,2.4000000000000004,16
185,3284.0,0.0,0.0,-0.1,1.0,3.8000000000000003,8.9,3.4,-3.7000000000000006,2.4000000000000004,16
186,3301.0,0.0,0.0,0.0,1.1,3.9000000000000004,9.0,2.2,-2.9,3.8,16
187,3317.0,0.1,0.0,0.0,1.1,3.9000000000000004,9.0,2.2,-2.9,3.8,16
188,3334.0,0.1,0.0,-0.30000000000000004,1.1,3.9000000000000004,8.700000000000001,2.3,-4.300000000000001,3.8,16
189,3350.0,0.1,0.0,-0.2,1.2000000000000002,3.9000000000000004,8.8,-0.8,1.3,4.300000000000001,16
190,3374.0,0.1,0.0,0.0,1.1,3.9000000000000004,8.9,0.2,0.8,4.4,16
191,3384.0,0.1,0.0,0.0,1.1,3.9000000000000004,8.9,0.2,0.8,4.4,16
192,3401.0,0.1,-0.1,0.0,1.2000000000000002,3.8000000000000003,8.8,1.9,-0.5,4.4,16
193,3417.0,0.1,-0.1,-0.1,1.2000000000000002,3.8000000000000003,8.8,1.9,-0.5,4.4,16
194,3434.0,0.1,0.0,-0.2,1.2000000000000002,3.8000000000000003,8.700000000000001,0.2,0.0,4.0,16
195,3450.0,0.1,0.0,-0.1,1.2000000000000002,3.9000000000000004,8.8,-1.7,1.4,4.4,16
196,3475.0,0.0,0.0,0.1,1.2000000000000002,3.9000000000000004,9.0,-1.9,2.6,5.7,16
197,3484.0,0.1,0.0,0.2,1.2000000000000002,3.9000000000000004,9.0,-1.9,2.6,5.7,16
198,3500.0,0.1,-0.2,0.2,1.3,3.6,9.0,-0.2,-0.2,4.5,16
199,3517.0,0.2,-0.2,0.1,1.3,3.6,9.0,-0.9000000000000001,-0.9000000000000001,2.9,16
200,3534.0,0.2,-0.1,0.1,1.3,3.7,9.0,-0.9000000000000001,-0.9000000000000001,2.9,16
201,3550.0,0.1,0.0,0.0,1.2000000000000002,3.9000000000000004,8.8,-1.7,-1.5,1.6,16
202,3571.0,0.1,0.1,-0.1,1.2000000000000002,3.9000000000000004,8.9,-1.4,1.8000000000000003,2.0,16
203,3584.0,0.0,0.0,0.0,1.2000000000000002,3.9000000000000004,8.9,-1.4,1.8000000000000003,2.0,16
204,3600.0,0.0,0.0,0.1,1.2000000000000002,3.8000000000000003,9.0,0.0,3.1,2.0,16
205,3617.0,0.0,0.0,0.0,1.1,3.8000000000000003,8.9,1.5,3.7000000000000006,0.8,16
206,3634.0,0.0,0.0,0.0,1.1,3.8000000000000003,8.9,1.5,3.7000000000000006,0.8,16
207,3651.0,0.0,0.1,0.0,1.1,3.9000000000000004,8.9,1.3,3.7000000000000006,0.4,16
208,3673.0,-0.1,0.1,-0.1,1.1,4.0,8.9,0.30000000000000004,4.4,1.1,16
209,3684.0,-0.1,0.1,0.0,1.1,4.0,8.9,0.30000000000000004,4.4,1.1,16
210,3700.0,-0.1,0.1,0.1,1.0,4.0,9.0,0.1,4.9,2.2,16
211,3717.0,0.0,0.0,0.1,1.2000000000000002,3.8000000000000003,9.0,-0.9000000000000001,1.6,2.8,16
212,3734.0,0.1,0.0,0.0,1.2000000000000002,3.8000000000000003,9.0,-0.9000000000000001,1.6,2.8,16
213,3750.0,0.1,0.0,-0.1,1.2000000000000002,3.8000000000000003,8.9,-1.9,0.4,1.7,16
214,3771.0,0.1,0.1,0.0,1.2000000000000002,3.9000000000000004,9.0,-2.8,3.0,1.9,16
215,3784.0,0.1,0.1,0.1,1.2000000000000002,3.9000000000000004,9.0,-2.8,3.0,1.9,16
216,3800.0,0.1,0.0,0.2,1.1,3.9000000000000004,9.1,-1.0,3.7000000000000006,2.5,16
217,3823.0,0.1,0.0,0.1,1.2000000000000002,3.8000000000000003,9.1,0.0,2.7,2.1,16
218,3839.0,0.1,0.0,0.1,1.2000000000000002,3.8000000000000003,9.1,-0.8,1.0,1.6,16
219,3850.0,0.1,0.0,0.1,1.2000000000000002,3.8000000000000003,9.1,-0.8,1.0,1.6,16
220,3867.0,0.1,0.0,0.0,1.2000000000000002,3.8000000000000003,9.0,-1.5,-1.5,0.6000000000000001,16
221,3883.0,0.1,0.0,0.0,1.2000000000000002,3.8000000000000003,9.0,-1.5,-1.5,0.6000000000000001,16
222,3900.0,0.1,0.0,0.1,1.2000000000000002,3.8000000000000003,9.1,-0.9000000000000001,0.6000000000000001,0.7,16
223,3917.0,0.1,0.0,0.0,1.2000000000000002,3.9000000000000004,8.9,0.8,-0.30000000000000004,0.30000000000000004,16
224,3933.0,0.1,0.0,-0.1,1.2000000000000002,3.9000000000000004,8.9,0.8,-0.30000000000000004,0.30000000000000004,16
225,3950.0,0.1,0.0,0.0,1.2000000000000002,3.9000000000000004,8.9,-0.1,0.4,0.30000000000000004,16
226,3968.0,0.1,0.0,-0.2,1.2000000000000002,3.9000000000000004,8.700000000000001,-1.5,-0.8,-0.8,16
227,3983.0,0.1,0.0,-0.30000000000000004,1.2000000000000002,3.9000000000000004,8.700000000000001,-1.5,-0.8,-0.8,16
228,4000.0,0.1,0.0,-0.1,1.2000000000000002,3.8000000000000003,8.8,-2.6,2.4000000000000004,-0.8,16
229,4017.0,0.0,0.0,0.1,1.1,3.8000000000000003,9.1,-1.8000000000000003,4.7,-0.9000000000000001,16
230,4034.0,0.0,0.0,0.1,1.1,3.8000000000000003,9.1,-1.8000000000000003,4.7,-0.9000000000000001,16
231,4050.0,0.0,-0.1,0.2,1.1,3.7,9.200000000000001,-0.7,4.1,-1.4,16
232,4073.0,-0.1,0.0,0.30000000000000004,1.0,3.8000000000000003,9.200000000000001,0.2,2.7,-1.7,16
233,4084.0,-0.1,0.0,0.0,0.9,3.8000000000000003,9.0,0.2,1.0,-2.5,16
234,4103.0,-0.2,0.0,0.0,0.9,3.8000000000000003,9.0,0.2,1.0,-2.5,16
235,4117.0,-0.2,0.0,0.2,0.8,3.8000000000000003,9.200000000000001,-0.30000000000000004,2.5,-1.6,16
236,4134.0,-0.2,0.0,0.1,0.9,3.8000000000000003,9.0,2.3,-1.0,-0.8,16
237,4155.0,-0.1,0.0,-0.2,0.9,3.8000000000000003,9.0,2.3,-1.0,-0.8,16
238,4173.0,-0.2,0.1,-0.2,0.9,3.9000000000000004,8.8,1.4,0.30000000000000004,-0.6000000000000001,16
239,4183.0,-0.2,0.1,-0.1,0.8,3.9000000000000004,8.9,1.1,0.6000000000000001,1.2000000000000002,16
240,4200.0,-0.2,0.1,-0.1,0.8,3.9000000000000004,8.9,1.1,0.6000000000000001,1.2000000000000002,16
241,4217.0,-0.1,0.0,-0.30000000000000004,0.9,3.9000000000000004,8.8,1.2000000000000002,0.8,2.1,16
242,4233.0,-0.1,0.0,-0.30000000000000004,0.9,3.9000000000000004,8.700000000000001,-1.2000000000000002,2.9,3.0,16
243,4250.0,-0.1,0.1,-0.2,0.9,3.9000000000000004,8.700000000000001,-1.2000000000000002,2.9,3.0,16
244,4267.0,-0.1,0.0,0.0,0.9,3.9000000000000004,8.9,-1.4,3.3000000000000007,4.1,16
245,4283.0,0.0,0.0,-0.1,1.0,3.8000000000000003,8.9,-2.6,3.4,4.6,16
246,4300.0,0.0,0.0,-0.1,1.0,3.8000000000000003,8.9,-2.6,3.4,4.6,16
247,4317.0,0.0,0.0,0.1,0.9,3.8000000000000003,9.0,-2.8,4.4,4.7,16
248,4333.0,0.0,0.0,0.2,0.9,3.8000000000000003,9.1,-2.2,3.3000000000000007,4.7,16
249,4350.0,0.0,0.0,0.2,1.0,3.8000000000000003,9.1,-1.3,2.6,4.5,16
250,4367.0,0.0,0.0,0.1,1.0,3.8000000000000003,9.1,-0.9000000000000001,2.2,4.1,16
251,4383.0,0.0,0.0,0.1,1.0,3.8000000000000003,9.1,-1.6,2.6,4.7,16
252,4401.0,0.0,0.0,0.1,1.0,3.8000000000000003,9.1,-1.6,2.6,4.7,16
253,4417.0,0.0,0.0,0.1,1.0,3.8000000000000003,9.1,-1.0,1.8000000000000003,4.7,16
254,4434.0,0.1,0.0,0.0,1.0,3.8000000000000003,9.1,-0.5,1.2000000000000002,4.300000000000001,16
255,4450.0,0.1,0.0,0.1,1.0,3.8000000000000003,9.1,-0.5,1.2000000000000002,4.300000000000001,16
256,4469.0,0.0,0.1,0.0,1.0,3.9000000000000004,9.1,-0.1,0.9000000000000001,4.4,16
257,4485.0,0.0,0.1,0.0,1.0,3.9000000000000004,9.0,0.2,1.7,4.800000000000001,16
258,4501.0,0.1,0.0,0.0,1.0,3.8000000000000003,9.0,0.6000000000000001,2.2,5.0,16
259,4517.0,0.1,0.0,-0.1,1.0,3.8000000000000003,9.0,0.7,2.1,5.0,16
260,4534.0,0.0,0.1,-0.1,1.0,3.8000000000000003,8.9,0.6000000000000001,2.3,4.9,16
261,4550.0,0.0,0.0,0.1,1.0,3.8000000000000003,9.1,0.1,2.3,6.0,16
262,4571.0,0.1,-0.1,0.1,1.0,3.7,9.1,0.1,1.5,5.8,16
263,4585.0,0.1,-0.1,0.1,1.0,3.7,9.1,0.1,1.5,5.8,16
264,4601.0,0.1,-0.1,0.0,1.1,3.7,8.9,0.2,-0.4,4.9,16
265,4617.0,0.1,-0.1,-0.1,1.1,3.7,8.9,0.2,-0.4,4.9,16
266,4634.0,0.1,-0.1,-0.1,1.1,3.7,8.9,-0.6000000000000001,1.1,4.9,16
267,4650.0,0.1,-0.1,0.1,1.1,3.6,9.1,1.3,2.4000000000000004,4.1,16
268,4672.0,0.1,-0.1,0.0,1.1,3.7,9.0,1.7,2.5,3.5,16
269,4685.0,0.1,-0.1,0.0,1.1,3.7,9.0,1.7,2.5,3.5,16
270,4701.0,0.0,0.0,0.0,1.0,3.7,9.0,0.9000000000000001,1.6,3.2,16
271,4717.0,0.0,0.0,0.0,1.0,3.7,9.0,0.9000000000000001,1.6,3.2,16
272,4734.0,0.1,0.0,0.0,1.1,3.7,9.0,0.6000000000000001,2.1,2.9,16
273,4751.0,0.0,0.0,0.0,1.0,3.8000000000000003,8.9,1.8000000000000003,2.0,2.9,16
274,4769.0,0.0,0.1,-0.1,1.0,3.9000000000000004,8.9,1.3,2.8,3.5,16
275,4784.0,0.0,0.1,0.0,1.0,3.9000000000000004,8.9,1.3,2.8,3.5,16
276,4802.0,0.0,0.0,0.1,1.1,3.8000000000000003,9.0,0.7,1.2000000000000002,4.300000000000001,16
277,4825.0,0.1,0.0,0.0,1.1,3.8000000000000003,9.0,-0.30000000000000004,0.5,4.1,16
278,4837.0,0.1,0.0,0.0,1.1,3.8000000000000003,9.0,-0.30000000000000004,0.5,4.1,16
279,4850.0,0.1,0.0,0.1,1.1,3.7,9.0,0.8,0.1,3.3000000000000007,16
280,4867.0,0.1,0.0,0.0,1.1,3.7,9.0,0.8,0.1,3.3000000000000007,16
281,4883.0,0.1,0.0,-0.1,1.1,3.8000000000000003,8.9,0.7,0.7,3.2,16
282,4900.0,0.1,-0.1,0.0,1.2000000000000002,3.7,9.0,0.9000000000000001,1.9,2.3,16
283,4917.0,0.1,-0.1,-0.1,1.2000000000000002,3.7,9.0,0.9000000000000001,1.9,2.3,16
284,4933.0,0.1,-0.1,-0.2,1.2000000000000002,3.7,8.9,1.1,1.4,1.0,16
285,4950.0,0.0,0.0,-0.1,1.1,3.8000000000000003,8.8,0.30000000000000004,2.2,0.30000000000000004,16
286,4967.0,0.0,0.1,-0.1,1.0,3.8000000000000003,8.9,0.1,2.3,0.5,16
287,4983.0,0.0,0.1,-0.1,1.0,3.9000000000000004,8.9,0.4,1.1,0.7,16
288,5000.0,0.0,0.1,-0.30000000000000004,1.0,3.9000000000000004,8.700000000000001,-0.2,1.2000000000000002,1.0,16
289,5017.0,0.0,0.1,-0.30000000000000004,1.0,3.9000000000000004,8.700000000000001,-0.2,1.2000000000000002,1.0,16
290,5033.0,-0.1,0.1,0.0,0.9,3.9000000000000004,9.0,-2.9,5.9,3.4,16
291,5050.0,0.0,-0.1,0.30000000000000004,0.9,3.7,9.3,-1.4,6.1000000000000005,4.300000000000001,16
292,5067.0,0.0,-0.2,0.30000000000000004,1.0,3.6,9.3,0.7,3.7000000000000006,3.4,16
293,5084.0,0.1,-0.2,0.1,1.1,3.6,9.200000000000001,0.4,1.8000000000000003,1.8000000000000003,16
294,5103.0,0.0,-0.1,0.1,1.0,3.7,9.1,-0.8,1.4,0.9000000000000001,16
295,5117.0,0.0,0.0,0.2,1.0,3.7,9.200000000000001,0.2,1.5,1.2000000000000002,16
296,5134.0,0.1,-0.1,0.2,1.0,3.7,9.200000000000001,0.2,1.5,1.2000000000000002,16
297,5156.0,0.0,0.0,0.1,1.0,3.7,9.1,1.9,2.1,-0.1,16
298,5168.0,0.0,0.0,0.1,0.9,3.8000000000000003,9.1,2.0,1.2000000000000002,0.1,16
299,5183.0,0.0,0.1,0.0,0.9,3.8000000000000003,9.1,2.0,1.2000000000000002,0.1,16
300,5200.0,0.0,0.1,0.0,1.0,3.8000000000000003,9.0,1.6,0.1,0.6000000000000001,16
301,5217.0,0.0,0.0,-0.2,1.0,3.8000000000000003,8.8,0.0,0.0,1.1,16
302,5233.0,0.0,0.0,-0.2,1.0,3.8000000000000003,8.8,0.0,0.0,1.1,16
303,5250.0,-0.1,0.0,-0.1,0.9,3.8000000000000003,8.9,-0.2,1.8000000000000003,1.5,16
304,5267.0,0.0,0.0,0.0,0.9,3.7,9.0,1.7,2.7,1.7,16
305,5283.0,0.0,0.0,0.0,0.9,3.7,9.0,1.7,2.7,1.7,16
306,5300.0,0.0,0.0,-0.2,0.9,3.7,8.9,0.8,1.6,1.4,16
307,5317.0,-0.1,0.0,0.0,0.9,3.7,9.1,-1.1,1.7,1.9,16
308,5333.0,-0.1,0.0,0.1,0.9,3.7,9.1,-1.1,1.7,1.9,16
309,5350.0,0.0,0.0,0.0,0.9,3.7,9.0,-0.30000000000000004,0.7,1.7,16
310,5367.0,0.0,0.1,0.0,0.9,3.8000000000000003,9.0,0.4,2.1,1.5,16
311,5384.0,0.0,0.1,0.0,0.9,3.8000000000000003,9.0,0.4,2.1,1.5,16
312,5400.0,-0.1,0.1,0.0,0.9,3.9000000000000004,9.0,-0.1,2.4000000000000004,2.0,16
313,5417.0,-0.1,0.1,0.0,0.9,3.9000000000000004,9.0,-0.5,3.0,2.7,16
314,5434.0,0.0,0.0,0.1,0.9,3.8000000000000003,9.200000000000001,-0.4,2.5,3.4,16
315,5450.0,0.0,0.0,0.1,0.9,3.8000000000000003,9.200000000000001,0.0,1.5,3.4,16
316,5468.0,0.0,0.0,0.1,0.9,3.8000000000000003,9.1,-0.2,0.4,3.1,16
317,5484.0,0.0,0.0,0.1,0.9,3.8000000000000003,9.1,-1.0,-0.6000000000000001,2.5,16
318,5501.0,0.0,0.0,0.1,0.9,3.8000000000000003,9.1,-1.0,-0.6000000000000001,2.5,16
319,5517.0,0.0,0.0,0.0,0.9,3.8000000000000003,9.1,-0.5,-0.6000000000000001,2.5,16
320,5534.0,0.0,0.0,0.0,0.9,3.8000000000000003,9.1,-0.1,-0.2,2.6,16
321,5550.0,0.0,0.0,0.0,0.9,3.8000000000000003,9.1,0.30000000000000004,0.2,2.6,16
322,5570.0,0.0,0.0,0.0,0.9,3.8000000000000003,9.0,0.5,-0.6000000000000001,2.2,16
323,5584.0,0.0,0.1,-0.1,0.9,3.9000000000000004,8.9,-0.30000000000000004,-1.4,2.2,16
324,5601.0,0.0,0.1,-0.1,0.9,3.9000000000000004,8.9,-0.30000000000000004,-1.4,2.2,16
325,5617.0,0.0,0.1,-0.2,0.9,3.9000000000000004,8.9,-0.6000000000000001,-1.3,2.6,16
326,5634.0,0.0,0.1,-0.1,1.0,3.8000000000000003,8.9,-0.30000000000000004,1.0,4.1,16
327,5651.0,0.0,0.1,-0.1,1.0,3.8000000000000003,8.9,-0.30000000000000004,1.0,4.1,16
328,5671.0,0.1,0.0,-0.1,1.0,3.8000000000000003,8.9,-0.6000000000000001,1.2000000000000002,4.2,16
329,5686.0,0.0,0.0,-0.1,1.0,3.8000000000000003,8.9,-1.3,2.4000000000000004,4.300000000000001,16
330,5702.0,0.1,0.0,0.0,1.0,3.8000000000000003,9.0,-1.0,2.9,4.6,16
331,5717.0,0.0,0.0,0.0,1.0,3.8000000000000003,9.0,-1.0,2.9,4.6,16
332,5734.0,0.1,-0.1,0.0,1.0,3.7,8.9,-0.4,2.0,3.9,16
333,5750.0,0.1,-0.1,-0.1,1.0,3.7,8.9,-0.4,2.0,3.9,16
334,5771.0,0.1,0.0,-0.1,1.0,3.7,8.9,-1.3,3.4,3.4,16
335,5785.0,0.0,0.0,-0.1,1.0,3.7,9.0,-1.5,4.0,3.5,16
336,5800.0,0.0,-0.1,0.0,1.0,3.7,9.0,-1.5,4.0,3.5,16
337,5826.0,0.1,-0.1,0.1,1.0,3.6,9.1,-0.5,3.1,2.6,16
338,5833.0,0.1,-0.1,0.1,1.0,3.6,9.1,-0.7,2.2,1.5,16
339,5850.0,0.1,-0.1,0.1,1.0,3.6,9.1,-0.7,2.2,1.5,16
340,5867.0,0.1,-0.1,0.1,1.0,3.6,9.200000000000001,-1.0,1.6,0.8,16
341,5883.0,0.1,0.0,0.1,1.0,3.7,9.200000000000001,-0.7,0.5,0.5,16
342,5902.0,0.0,0.0,0.0,1.0,3.7,9.0,-0.7,-0.8,0.30000000000000004,16
343,5917.0,0.0,0.0,-0.1,1.0,3.7,9.0,-0.7,-0.8,0.30000000000000004,16
344,5933.0,0.0,0.0,0.0,1.0,3.7,9.0,-1.4,0.7,0.5,16
345,5950.0,0.0,0.0,0.1,1.0,3.7,9.1,0.6000000000000001,-1.0,0.0,16
346,5967.0,0.0,0.0,0.1,1.0,3.7,9.1,0.6000000000000001,-1.0,0.0,16
347,5983.0,0.0,0.1,-0.1,1.0,3.7,9.0,0.8,-2.0,-0.4,16
348,6000.0,0.0,0.1,-0.2,1.0,3.8000000000000003,8.9,-1.5,1.2000000000000002,0.5,16
349,6017.0,0.0,0.1,-0.1,1.0,3.8000000000000003,8.9,-1.5,1.2000000000000002,0.5,16
350,6033.0,0.0,0.0,0.0,1.0,3.7,9.0,-1.3,2.6,1.1,16
351,6051.0,0.0,0.0,0.1,1.0,3.7,9.1,-0.1,3.2,0.9000000000000001,16
352,6073.0,0.0,0.0,0.1,0.9,3.7,9.1,0.7,3.2,0.30000000000000004,16
353,6083.0,0.0,0.0,0.1,0.9,3.7,9.1,0.7,3.2,0.30000000000000004,16
354,6100.0,0.0,0.0,0.0,1.0,3.7,9.0,-0.8,1.0,-0.1,16
355,6117.0,0.1,0.0,0.0,1.0,3.7,9.0,-0.8,1.0,-0.1,16
356,6134.0,0.1,0.0,0.0,1.0,3.7,9.1,-1.3,2.3,-0.30000000000000004,16
357,6153.0,0.1,-0.1,0.1,1.0,3.6,9.1,1.2000000000000002,2.6,-0.7,16
358,6170.0,0.1,-0.1,0.0,1.0,3.6,9.0,1.5,2.5,-1.6,16
359,6183.0,0.1,-0.1,-0.1,1.0,3.6,9.0,1.5,2.5,-1.6,16
360,6200.0,0.1,0.0,-0.1,0.9,3.7,9.0,-0.2,3.9,-2.3,16
361,6217.0,0.0,0.0,0.0,0.9,3.7,9.0,-0.2,3.9,-2.3,16
362,6233.0,0.0,-0.1,0.2,0.9,3.7,9.200000000000001,0.7,4.1,-1.7,16
363,6250.0,0.0,-0.1,0.1,0.9,3.6,9.1,0.6000000000000001,-0.7,-2.8,16
364,6268.0,0.1,-0.1,0.0,0.9,3.6,9.1,0.6000000000000001,-0.7,-2.8,16
365,6283.0,0.0,0.0,0.0,0.9,3.6,9.0,-1.0,-1.2000000000000002,-3.4,16
366,6300.0,0.0,0.0,0.1,0.8,3.7,9.200000000000001,-0.30000000000000004,0.9000000000000001,-2.4000000000000004,16
367,6317.0,-0.1,0.0,0.2,0.8,3.7,9.200000000000001,1.9,0.4,-2.4000000000000004,16
368,6333.0,-0.1,0.0,0.1,0.8,3.6,9.200000000000001,1.9,0.4,-2.4000000000000004,16
369,6350.0,0.0,0.0,0.0,0.8,3.7,9.1,2.5,-0.9000000000000001,-2.7,16
370,6367.0,-0.1,0.0,-0.1,0.8,3.7,9.0,1.4,-1.0,-2.9,16
371,6388.0,-0.1,0.1,0.0,0.8,3.8000000000000003,9.0,-0.6000000000000001,-1.4,-1.8000000000000003,16
372,6400.0,-0.1,0.1,-0.1,0.8,3.8000000000000003,9.0,-0.6000000000000001,-1.4,-1.8000000000000003,16
373,6417.0,-0.1,0.1,0.0,0.8,3.8000000000000003,9.0,-0.5,-0.8,-1.3,16
374,6434.0,-0.1,0.1,0.0,0.8,3.8000000000000003,9.0,0.30000000000000004,0.1,-0.9000000000000001,16
375,6451.0,-0.1,0.1,0.0,0.7000000000000001,3.8000000000000003,9.1,1.1,-0.1,-0.5,16
376,6472.0,-0.1,0.0,-0.1,0.8,3.7,9.0,0.5,-1.1,0.2,16
377,6483.0,-0.1,0.0,-0.1,0.8,3.7,9.0,0.5,-1.1,0.2,16
378,6500.0,-0.1,0.0,-0.1,0.8,3.7,8.9,0.4,-0.8,-0.30000000000000004,16
379,6517.0,-0.1,0.1,0.0,0.7000000000000001,3.9000000000000004,9.0,0.8,1.2000000000000002,0.5,16
380,6533.0,-0.2,0.1,0.0,0.7000000000000001,3.9000000000000004,9.0,0.8,1.2000000000000002,0.5,16
381,6552.0,-0.30000000000000004,0.2,-0.1,0.6000000000000001,3.9000000000000004,9.0,1.1,0.9000000000000001,1.5,16
382,6568.0,-0.2,0.1,0.1,0.6000000000000001,3.8000000000000003,9.3,0.2,1.4,4.800000000000001,16
383,6584.0,-0.2,0.1,0.2,0.6000000000000001,3.8000000000000003,9.3,0.2,1.4,4.800000000000001,16
384,6600.0,-0.1,0.0,0.1,0.7000000000000001,3.8000000000000003,9.200000000000001,1.1,-2.9,5.0,16
385,6617.0,0.0,0.1,-0.1,0.8,3.9000000000000004,8.9,-0.9000000000000001,-4.7,6.300000000000001,16
386,6634.0,0.0,0.1,-0.1,0.8,3.9000000000000004,8.9,-0.9000000000000001,-4.7,6.300000000000001,16
387,6651.0,0.1,0.0,-0.2,1.0,3.8000000000000003,8.9,-2.0,-3.7000000000000006,7.0,16
388,6668.0,0.2,-0.1,-0.2,1.0,3.7,8.9,-2.2,-0.30000000000000004,7.0,16
389,6684.0,0.1,-0.2,0.1,1.0,3.6,9.200000000000001,-1.1,3.5,6.699999999999999,16
390,6700.0,0.1,-0.2,0.30000000000000004,1.0,3.5,9.3,1.4,3.2,5.7,16
391,6717.0,0.2,-0.30000000000000004,0.1,1.1,3.4000000000000004,9.1,1.2000000000000002,-0.6000000000000001,2.5,16
392,6733.0,0.2,-0.30000000000000004,0.0,1.1,3.4000000000000004,9.1,1.2000000000000002,-0.6000000000000001,2.5,16
393,6750.0,0.1,-0.2,0.1,1.0,3.5,9.1,-0.30000000000000004,-0.2,1.3,16
394,6767.0,0.0,-0.2,0.1,0.9,3.5,9.200000000000001,1.5,-1.3,0.30000000000000004,16
395,6783.0,0.0,-0.2,0.1,0.9,3.5,9.200000000000001,1.5,-1.3,0.30000000000000004,16
396,6800.0,0.0,-0.1,0.0,1.0,3.6,9.0,2.5,-0.7,-0.30000000000000004,16
397,6820.0,0.0,0.0,-0.1,0.9,3.6,9.0,2.5,-0.7,-0.8,16
398,6834.0,0.0,0.0,-0.2,0.9,3.7,8.9,0.5,-1.9,-0.4,16
399,6850.0,0.0,0.1,-0.30000000000000004,0.9,3.8000000000000003,8.700000000000001,0.5,-1.9,-0.4,16
400,6867.0,0.0,0.1,-0.30000000000000004,0.9,3.8000000000000003,8.700000000000001,-1.1,-0.8,0.5,16
401,6884.0,0.0,0.1,-0.1,0.9,3.8000000000000003,9.0,-1.5,3.6000000000000005,2.3,16
402,6900.0,0.0,0.1,0.0,0.9,3.8000000000000003,9.0,-1.5,3.6000000000000005,2.3,16
403,6917.0,0.0,0.0,0.1,0.9,3.7,9.1,0.0,3.2,2.7,16
404,6933.0,0.0,0.0,-0.1,0.9,3.7,9.0,-1.2000000000000002,1.5,2.1,16
405,6950.0,0.0,0.0,-0.1,0.9,3.7,9.0,-1.2000000000000002,1.5,2.1,16
406,6967.0,-0.1,-0.1,0.0,0.9,3.6,9.0,-2.5,1.7,1.8000000000000003,16
407,6985.0,-0.1,-0.1,0.1,0.8,3.6,9.200000000000001,-1.1,4.2,1.9,16
408,7000.0,-0.1,-0.1,0.2,0.8,3.6,9.200000000000001,-1.1,4.2,1.9,16
409,7017.0,-0.1,-0.1,0.2,0.8,3.5,9.200000000000001,0.6000000000000001,3.3000000000000007,1.3,16
410,7034.0,-0.1,-0.1,0.0,0.8,3.6,9.0,0.6000000000000001,1.0,0.30000000000000004,16
411,7051.0,-0.1,0.0,0.0,0.8,3.6,9.0,0.6000000000000001,1.0,0.30000000000000004,16
412,7067.0,-0.1,0.1,-0.1,0.8,3.7,9.0,-0.7,0.6000000000000001,0.6000000000000001,16
413,7085.0,-0.1,0.1,0.0,0.8,3.8000000000000003,9.1,-1.1,1.9,2.5,16
414,7101.0,-0.1,0.1,0.1,0.8,3.8000000000000003,9.1,-1.1,1.9,2.5,16
415,7117.0,0.0,0.1,0.0,0.8,3.8000000000000003,9.1,-0.2,1.0,3.2,16
416,7134.0,0.0,0.0,-0.2,0.9,3.7,8.9,-1.7,1.1,3.3000000000000007,16
417,7154.0,0.1,0.0,-0.1,0.9,3.7,8.9,-1.7,1.1,3.3000000000000007,16
418,7170.0,0.1,0.0,-0.1,0.9,3.7,9.0,-1.7,0.9000000000000001,3.1,16
419,7183.0,0.1,0.1,-0.1,0.9,3.7,8.9,-2.3,1.7,3.4,16
420,7200.0,0.1,0.0,-0.2,0.9,3.7,8.9,-2.3,1.7,3.4,16
421,7217.0,0.1,-0.1,-0.1,1.0,3.6,8.9,-3.4,3.5,3.6000000000000005,16
422,7235.0,0.1,-0.1,0.2,1.0,3.5,9.1,-3.1,4.2,3.2,16
423,7252.0,0.1,0.0,0.1,0.9,3.6,9.200000000000001,-0.7,2.1,1.7,16
424,7268.0,0.1,0.0,0.1,0.9,3.6,9.200000000000001,-0.7,2.1,1.7,16
425,7287.0,0.0,0.0,0.1,0.9,3.7,9.200000000000001,-1.4,1.8000000000000003,2.0,16
426,7300.0,0.0,0.0,0.1,0.9,3.6,9.200000000000001,-2.3,-0.4,2.3,16
427,7317.0,0.0,0.0,0.1,0.9,3.6,9.200000000000001,-2.3,-0.4,2.3,16
428,7333.0,0.1,0.0,0.1,0.9,3.6,9.200000000000001,-2.1,0.30000000000000004,2.2,16
429,7351.0,0.1,0.0,0.1,1.0,3.6,9.200000000000001,-0.6000000000000001,-0.1,1.1,16
430,7368.0,0.1,0.0,0.1,1.0,3.6,9.200000000000001,-0.6000000000000001,-0.1,1.1,16
431,7384.0,0.1,0.1,0.1,1.0,3.6,9.200000000000001,-0.5,0.4,1.0,16
432,7400.0,0.0,0.0,0.0,0.9,3.6,9.1,-0.5,-1.7,0.8,16
433,7417.0,0.0,0.0,0.0,0.9,3.6,9.1,-0.5,-1.7,0.8,16
434,7433.0,0.1,0.0,0.0,1.0,3.6,9.1,-0.7,-1.0,0.6000000000000001,16
435,7450.0,0.1,0.0,-0.1,1.0,3.6,9.0,-0.4,-0.8,-0.6000000000000001,16
436,7467.0,0.1,0.0,-0.1,1.0,3.6,9.0,-0.4,-0.8,-0.6000000000000001,16
437,7483.0,0.0,0.1,0.0,0.9,3.6,9.1,0.1,1.3,-0.7,16
438,7500.0,0.0,0.0,0.1,0.9,3.6,9.200000000000001,0.9000000000000001,-0.4,-0.4,16
439,7517.0,0.0,0.0,0.0,0.9,3.6,9.200000000000001,0.9000000000000001,-0.4,-0.4,16
440,7534.0,0.0,0.0,0.0,0.9,3.6,9.1,-0.1,-1.1,-0.5,16
441,7550.0,0.0,0.0,0.1,0.9,3.6,9.200000000000001,-0.4,-1.5,-0.4,16
442,7567.0,0.0,0.0,0.1,0.9,3.6,9.200000000000001,-0.4,-1.5,-0.4,16
443,7584.0,0.0,-0.1,0.0,1.0,3.5,9.200000000000001,0.7,-1.6,-0.7,16
444,7600.0,0.0,-0.1,-0.1,1.0,3.6,9.1,1.0,-0.4,-1.3,16
445,7617.0,0.0,0.0,0.0,1.0,3.6,9.1,1.0,-0.4,-1.3,16
446,7633.0,0.0,0.0,-0.1,0.9,3.6,9.0,0.7,-0.7,-1.4,16
447,7651.0,0.0,0.0,-0.1,0.9,3.6,9.0,0.1,-0.7,-1.5,16
448,7667.0,0.0,-0.1,-0.1,0.9,3.5,9.0,-0.2,0.0,-1.6,16
449,7684.0,0.0,0.0,0.0,0.9,3.6,9.1,0.0,0.4,-2.0,16
450,7700.0,0.0,0.0,0.0,0.9,3.6,9.1,0.7,1.0,-1.9,16
451,7718.0,0.0,0.0,0.0,0.9,3.6,9.1,1.0,0.0,-1.6,16
452,7733.0,-0.1,0.0,0.0,0.9,3.6,9.1,1.0,0.0,-1.6,16
453,7750.0,-0.1,0.0,-0.1,0.9,3.6,9.0,0.0,-0.4,-1.3,16
454,7767.0,-0.1,0.0,0.0,0.8,3.6,9.0,-0.8,-1.1,-1.0,16
455,7784.0,0.0,0.0,0.0,0.9,3.6,9.1,-0.9000000000000001,-0.5,-0.7,16
456,7800.0,-0.1,0.0,0.0,0.9,3.6,9.1,-0.1,0.1,-0.7,16
457,7817.0,-0.1,0.0,0.0,0.8,3.6,9.1,0.6000000000000001,0.2,-0.5,16
458,7842.0,-0.1,0.0,0.0,0.8,3.6,9.1,0.30000000000000004,0.7,-0.2,16
459,7850.0,0.0,0.0,0.0,0.8,3.6,9.1,0.30000000000000004,0.7,-0.2,16
460,7867.0,0.0,0.0,0.0,0.8,3.7,9.1,0.9000000000000001,0.1,-0.1,16
461,7883.0,0.0,0.1,0.1,0.8,3.7,9.1,0.9000000000000001,0.1,-0.1,16
462,7900.0,-0.1,0.1,0.0,0.8,3.7,9.1,1.1,-0.5,0.4,16
463,7917.0,-0.1,0.1,0.0,0.8,3.7,9.1,0.2,0.2,1.8000000000000003,16
464,7934.0,0.0,0.0,0.0,0.8,3.7,9.1,0.2,0.2,1.8000000000000003,16
465,7951.0,0.0,0.0,0.0,0.9,3.7,9.1,0.6000000000000001,-0.4,1.8000000000000003,16
466,7979.0,0.0,0.1,-0.1,0.9,3.7,9.0,0.6000000000000001,-1.8000000000000003,2.5,16
467,7983.0,0.0,0.1,-0.1,0.9,3.7,9.0,0.6000000000000001,-1.8000000000000003,2.5,16
468,8001.0,0.0,0.0,-0.1,0.9,3.7,9.0,-0.4,-0.4,3.2,16
469,8017.0,0.0,-0.1,0.0,0.9,3.5,9.1,0.4,0.30000000000000004,3.4,16
470,8033.0,0.0,-0.1,0.0,0.9,3.5,9.1,0.4,0.30000000000000004,3.4,16
471,8050.0,0.0,-0.1,0.0,1.0,3.5,9.1,0.9000000000000001,0.5,2.8,16
472,8067.0,0.0,0.0,0.1,0.9,3.6,9.200000000000001,0.7,0.30000000000000004,2.7,16
473,8086.0,0.0,0.0,0.1,1.0,3.6,9.200000000000001,0.8,-1.6,2.9,16
474,8100.0,0.1,0.0,0.1,1.0,3.6,9.200000000000001,0.8,-1.6,2.9,16
475,8117.0,0.1,0.0,-0.1,1.1,3.6,9.0,-0.30000000000000004,-3.4,2.0,16
476,8133.0,0.1,0.0,-0.1,1.1,3.6,9.0,-0.30000000000000004,-3.4,2.0,16
477,8157.0,0.2,0.0,-0.1,1.1,3.6,9.0,-0.6000000000000001,-2.4000000000000004,1.8000000000000003,16
478,8167.0,0.2,-0.1,-0.1,1.2000000000000002,3.6,8.9,0.0,-1.6,1.4,16
479,8185.0,0.2,-0.1,-0.2,1.2000000000000002,3.5,8.9,0.6000000000000001,-0.4,1.0,16
480,8200.0,0.1,-0.1,-0.2,1.2000000000000002,3.5,8.9,0.30000000000000004,0.0,0.1,16
481,8217.0,0.1,-0.1,-0.1,1.1,3.5,8.9,-0.9000000000000001,0.4,-0.30000000000000004,16
482,8235.0,0.1,-0.1,0.0,1.1,3.5,9.0,-1.4,0.8,-0.4,16
483,8250.0,0.1,-0.1,0.0,1.1,3.5,9.0,-0.9000000000000001,0.30000000000000004,-0.9000000000000001,16
484,8267.0,0.1,-0.1,0.0,1.1,3.5,9.0,-0.9000000000000001,1.1,-1.4,16
485,8284.0,0.0,-0.1,0.0,1.1,3.5,9.1,-1.2000000000000002,2.4000000000000004,-1.8000000000000003,16
486,8314.0,0.0,0.0,0.1,1.0,3.5,9.200000000000001,-0.8,0.2,-2.0,16
487,8317.0,0.0,0.0,0.1,1.0,3.5,9.200000000000001,-0.8,0.2,-2.0,16
488,8333.0,0.0,0.0,0.1,1.0,3.6,9.200000000000001,-0.6000000000000001,-0.9000000000000001,-2.3,16
489,8350.0,0.0,0.0,0.0,1.0,3.6,9.1,-0.4,-2.2,-2.5,16
490,8376.0,0.0,0.1,-0.2,1.0,3.7,8.9,-0.8,-0.8,-2.3,16
491,8383.0,0.0,0.1,-0.2,0.9,3.8000000000000003,9.0,-0.8,-0.8,-2.3,16
492,8401.0,-0.1,0.2,-0.1,0.9,3.8000000000000003,9.0,-1.1,1.1,-1.4,16
493,8418.0,-0.1,0.2,0.0,0.9,3.7,9.1,-0.9000000000000001,1.5,-0.5,16
494,8433.0,0.0,0.1,0.0,1.0,3.7,9.1,-1.8000000000000003,0.4,-0.4,16
495,8450.0,0.0,0.1,0.0,1.0,3.7,9.1,-1.8000000000000003,0.4,-0.4,16
496,8467.0,-0.1,0.1,0.1,0.9,3.7,9.200000000000001,-2.0,-0.30000000000000004,-0.5,16
497,8483.0,-0.1,0.1,0.1,0.9,3.6,9.1,-1.2000000000000002,-1.7,-0.1,16
498,8500.0,0.0,0.1,0.0,0.9,3.6,9.1,-1.2000000000000002,-1.7,-0.1,16
499,8517.0,0.0,0.0,0.0,1.0,3.6,9.1,-1.2000000000000002,0.0,0.0,16
500,8533.0,-0.1,0.0,0.1,0.9,3.6,9.200000000000001,0.4,0.8,0.2,16
501,8550.0,-0.1,0.0,0.1,0.9,3.6,9.200000000000001,0.4,0.8,0.2,16
502,8567.0,-0.1,0.0,0.0,0.9,3.6,9.1,0.4,-0.1,0.4,16
503,8583.0,-0.1,-0.1,0.0,0.9,3.5,9.0,-0.6000000000000001,-0.9000000000000001,0.0,16
504,8601.0,-0.1,-0.1,-0.1,0.9,3.5,9.0,-0.6000000000000001,-0.9000000000000001,0.0,16
505,8617.0,-0.1,-0.1,-0.1,0.9,3.5,9.0,0.1,-0.6000000000000001,-0.1,16
506,8633.0,-0.1,0.0,-0.30000000000000004,0.9,3.5,8.8,0.0,0.2,-0.1,16
507,8650.0,-0.1,0.0,-0.2,0.8,3.6,8.8,-1.6,2.4000000000000004,0.5,16
508,8667.0,-0.2,-0.1,0.0,0.8,3.5,9.0,-2.4000000000000004,4.4,1.4,16
509,8683.0,-0.1,-0.2,0.2,0.8,3.4000000000000004,9.200000000000001,-1.6,4.0,1.8000000000000003,16
510,8701.0,-0.1,-0.1,0.1,0.8,3.5,9.1,-0.6000000000000001,1.5,0.7,16
511,8717.0,-0.1,-0.1,0.0,0.8,3.5,9.1,-0.6000000000000001,1.5,0.7,16
512,8734.0,-0.2,0.1,0.0,0.7000000000000001,3.6,9.1,-1.2000000000000002,1.4,1.2000000000000002,16
513,8753.0,-0.1,0.1,0.0,0.8,3.6,9.1,-1.2000000000000002,0.8,4.1,16
514,8767.0,-0.1,0.0,0.0,0.8,3.6,9.1,-1.2000000000000002,0.8,4.1,16
515,8787.0,0.0,0.0,0.0,0.8,3.5,9.1,-1.2000000000000002,0.0,4.5,16
516,8801.0,0.0,0.0,-0.1,0.9,3.5,9.0,-2.1,-0.30000000000000004,4.300000000000001,16
517,8817.0,0.0,0.0,-0.1,0.9,3.5,9.0,-2.1,-0.30000000000000004,4.300000000000001,16
518,8836.0,0.1,0.0,-0.1,1.0,3.5,9.0,-2.5,-0.1,4.6,16
519,8850.0,0.1,0.0,-0.1,1.0,3.5,8.9,-2.8,1.0,4.4,16
520,8867.0,0.1,0.0,-0.1,1.0,3.5,8.9,-2.8,1.0,4.4,16
521,8884.0,0.1,0.0,-0.1,1.0,3.5,9.0,-3.0,1.4,4.2,16
522,8901.0,0.1,0.0,-0.1,1.0,3.4000000000000004,9.0,-3.5,1.9,3.8,16
523,8917.0,0.1,0.0,0.0,1.0,3.4000000000000004,9.0,-3.5,1.9,3.8,16
524,8934.0,0.1,0.0,0.0,1.1,3.4000000000000004,9.1,-3.6000000000000005,2.0,3.6000000000000005,16
525,8950.0,0.1,0.0,0.1,1.1,3.5,9.200000000000001,-4.1,1.8000000000000003,3.2,16
526,8967.0,0.1,0.0,0.1,1.1,3.5,9.200000000000001,-4.1,1.8000000000000003,3.2,16
527,8984.0,0.1,0.1,0.2,1.0,3.5,9.3,-4.2,1.7,3.5,16
528,9000.0,0.1,0.0,0.2,1.1,3.4000000000000004,9.4,-3.1,0.4,3.4,16
529,9018.0,0.1,0.0,0.30000000000000004,1.1,3.4000000000000004,9.4,-3.1,0.4,3.4,16
530,9033.0,0.1,0.0,0.2,1.1,3.4000000000000004,9.4,-2.4000000000000004,-0.6000000000000001,2.6,16
531,9050.0,0.1,0.0,0.1,1.1,3.4000000000000004,9.200000000000001,-2.2,-1.4,1.3,16
532,9067.0,0.1,0.0,0.1,1.1,3.4000000000000004,9.200000000000001,-2.2,-1.4,1.3,16
533,9084.0,0.1,0.0,0.1,1.1,3.4000000000000004,9.200000000000001,-2.2,-0.8,1.3,16
534,9105.0,0.1,0.0,0.1,1.1,3.4000000000000004,9.3,-1.8000000000000003,-0.2,1.1,16
535,9118.0,0.1,-0.1,0.1,1.2000000000000002,3.3000000000000003,9.200000000000001,-0.8,-1.5,0.0,16
536,9135.0,0.1,-0.1,0.0,1.2000000000000002,3.3000000000000003,9.200000000000001,-0.8,-1.5,0.0,16
537,9162.0,0.1,-0.1,-0.1,1.2000000000000002,3.3000000000000003,9.0,-1.3,-1.9,-2.2,16
538,9170.0,0.1,-0.1,-0.1,1.2000000000000002,3.3000000000000003,9.0,-1.3,-1.9,-2.2,16
539,9183.0,0.1,0.0,-0.2,1.2000000000000002,3.3000000000000003,9.0,-1.6,-0.4,-2.7,16
540,9200.0,0.0,0.0,-0.1,1.1,3.3000000000000003,9.1,-1.7,1.4,-3.0,16
541,9217.0,0.0,0.0,0.0,1.0,3.3000000000000003,9.1,-0.8,1.7,-3.2,16
542,9234.0,0.0,0.0,0.0,1.0,3.3000000000000003,9.1,-0.8,1.7,-3.2,16
543,9251.0,0.0,0.0,0.0,1.0,3.3000000000000003,9.1,-1.4,1.1,-3.7000000000000006,16
544,9268.0,-0.1,0.1,0.1,0.9,3.4000000000000004,9.3,-2.0,-0.5,-3.6000000000000005,16
545,9283.0,-0.1,0.1,0.1,0.9,3.4000000000000004,9.3,-2.0,-0.5,-3.6000000000000005,16
546,9300.0,-0.1,0.1,0.1,0.9,3.4000000000000004,9.3,-2.2,-0.7,-3.3000000000000007,16
547,9317.0,-0.1,0.1,0.1,0.9,3.4000000000000004,9.4,-1.3,-0.5,-2.8,16
548,9333.0,-0.1,0.1,0.2,0.9,3.4000000000000004,9.4,-1.3,-0.5,-2.8,16
549,9350.0,0.0,0.1,0.0,1.0,3.4000000000000004,9.3,-0.4,-2.0,-2.8,16
550,9367.0,0.0,0.1,-0.1,1.0,3.4000000000000004,9.200000000000001,-2.3,-0.30000000000000004,-2.5,16
551,9383.0,0.0,0.1,0.0,1.0,3.4000000000000004,9.200000000000001,-2.3,-0.30000000000000004,-2.5,16
552,9400.0,-0.1,0.0,0.1,0.9,3.3000000000000003,9.3,-1.3,0.4,-2.3,16
553,9417.0,0.0,-0.1,0.1,0.9,3.3000000000000003,9.3,0.7,-0.8,-2.8,16
554,9433.0,0.0,0.0,-0.1,1.0,3.3000000000000003,9.1,1.6,-1.1,-3.7000000000000006,16
555,9450.0,-0.1,0.1,-0.1,0.9,3.4000000000000004,9.0,0.30000000000000004,0.1,-3.7000000000000006,16
556,9475.0,-0.1,0.0,0.0,0.8,3.4000000000000004,9.200000000000001,-0.2,0.6000000000000001,-2.4000000000000004,16
557,9483.0,-0.1,0.0,0.0,0.8,3.4000000000000004,9.200000000000001,-0.2,0.6000000000000001,-2.4000000000000004,16
558,9501.0,-0.1,0.0,0.1,0.9,3.3000000000000003,9.3,0.1,0.8,-1.9,16
559,9517.0,-0.1,-0.1,0.0,0.8,3.3000000000000003,9.200000000000001,0.8,-0.4,-2.4000000000000004,16
560,9533.0,-0.1,-0.1,0.0,0.8,3.3000000000000003,9.200000000000001,0.8,-0.4,-2.4000000000000004,16
561,9550.0,-0.1,0.0,0.0,0.8,3.3000000000000003,9.200000000000001,-0.1,-0.1,-1.6,16
562,9574.0,-0.1,-0.1,0.0,0.8,3.3000000000000003,9.3,-0.4,-0.7,-1.0,16
563,9583.0,0.0,-0.1,0.0,0.9,3.3000000000000003,9.200000000000001,-0.5,-1.7,-1.1,16
564,9601.0,0.0,-0.1,0.0,0.9,3.2,9.200000000000001,-0.6000000000000001,0.5,-1.3,16
565,9617.0,-0.1,-0.1,0.0,0.9,3.2,9.3,0.7,0.7,-1.8000000000000003,16
566,9633.0,-0.1,0.0,-0.1,0.8,3.3000000000000003,9.200000000000001,1.5,-0.8,-2.1,16
567,9650.0,-0.1,0.1,-0.1,0.9,3.4000000000000004,9.1,0.9000000000000001,-0.1,-1.5,16
568,9674.0,0.0,0.1,-0.2,0.9,3.4000000000000004,9.0,-0.5,-1.1,-1.0,16
569,9684.0,0.0,0.1,-0.2,0.9,3.4000000000000004,9.0,-0.5,-1.1,-1.0,16
570,9700.0,0.0,0.1,-0.2,0.9,3.4000000000000004,9.0,-1.0,0.5,-0.8,16
571,9717.0,0.0,0.1,0.0,0.9,3.4000000000000004,9.1,-1.1,2.5,-0.4,16
572,9733.0,0.0,0.0,0.0,0.9,3.4000000000000004,9.200000000000001,-0.30000000000000004,3.0,-0.1,16
573,9750.0,0.0,0.0,0.0,0.9,3.3000000000000003,9.200000000000001,0.5,1.7,-0.2,16
574,9767.0,0.0,0.0,-0.1,0.9,3.4000000000000004,9.1,-0.30000000000000004,1.1,-0.1,16
575,9784.0,0.0,0.0,0.0,0.9,3.4000000000000004,9.200000000000001,-1.2000000000000002,0.9000000000000001,0.5,16
576,9800.0,0.1,0.0,0.0,0.9,3.3000000000000003,9.200000000000001,-1.6,-0.30000000000000004,0.9000000000000001,16
577,9830.0,0.1,-0.1,0.0,1.0,3.3000000000000003,9.200000000000001,-1.9,1.0,0.1,16
578,9835.0,0.1,-0.1,0.0,1.0,3.3000000000000003,9.3,-1.1,2.1,0.0,16
579,9853.0,0.1,0.0,0.1,1.0,3.3000000000000003,9.3,-0.1,1.8000000000000003,0.0,16
580,9868.0,0.1,0.0,0.1,1.0,3.3000000000000003,9.3,-0.1,1.8000000000000003,0.0,16
581,9884.0,0.1,0.0,0.1,1.0,3.3000000000000003,9.3,-0.2,0.0,-0.2,16
582,9900.0,0.1,-0.1,0.1,1.0,3.3000000000000003,9.3,-0.2,0.0,-0.2,16
583,9917.0,0.1,0.0,0.0,1.0,3.3000000000000003,9.3,-0.9000000000000001,-1.5,-0.6000000000000001,16
584,9936.0,0.0,0.0,0.0,0.9,3.3000000000000003,9.200000000000001,-0.9000000000000001,-1.4,-1.2000000000000002,16
585,9950.0,0.0,0.0,0.0,0.9,3.3000000000000003,9.200000000000001,-0.9000000000000001,-1.4,-1.2000000000000002,16
586,9970.0,0.0,0.0,0.0,1.0,3.3000000000000003,9.200000000000001,-0.2,-1.1,-1.3,16
587,9984.0,0.0,0.0,-0.1,0.9,3.3000000000000003,9.1,-0.1,-0.7,-1.2000000000000002,16
588,10000.0,0.0,0.0,-0.1,0.9,3.3000000000000003,9.1,-0.7,-0.6000000000000001,-0.7,16
589,10017.0,0.0,0.0,0.0,0.9,3.3000000000000003,9.200000000000001,-1.2000000000000002,-0.7,-0.6000000000000001,16
590,10033.0,0.0,0.0,0.0,0.9,3.3000000000000003,9.200000000000001,-1.4,-1.4,-1.0,16
591,10051.0,0.0,0.0,-0.2,1.0,3.3000000000000003,8.9,-1.7,-1.8000000000000003,-1.6,16
592,10073.0,0.0,0.0,-0.2,1.0,3.3000000000000003,8.9,-1.7,-1.8000000000000003,-1.6,16
593,10084.0,0.0,0.0,-0.2,0.9,3.3000000000000003,8.9,-2.9,0.6000000000000001,-1.2000000000000002,16
594,10101.0,0.0,0.0,0.1,0.9,3.2,9.4,-2.0,3.5,-0.5,16
595,10117.0,0.0,-0.1,0.2,0.9,3.2,9.4,-2.0,3.5,-0.5,16
596,10133.0,0.0,-0.1,0.2,0.9,3.2,9.4,-0.6000000000000001,1.3,-1.4,16
597,10151.0,0.0,0.0,0.0,0.8,3.3000000000000003,9.200000000000001,-2.1,-0.7,-1.8000000000000003,16
598,10172.0,-0.1,0.1,0.1,0.8,3.3000000000000003,9.3,-2.6,-0.4,-0.9000000000000001,16
599,10185.0,-0.1,0.1,0.1,0.8,3.3000000000000003,9.3,-2.6,-0.4,-0.9000000000000001,16
600,10201.0,0.0,0.0,0.1,0.9,3.2,9.3,0.1,-0.30000000000000004,-0.1,16
601,10217.0,0.0,0.0,0.1,0.9,3.2,9.3,0.1,-0.30000000000000004,-0.1,16
602,10233.0,0.0,0.0,0.0,0.9,3.2,9.200000000000001,0.5,-0.30000000000000004,-0.30000000000000004,16
603,10251.0,0.0,0.0,-0.1,0.9,3.3000000000000003,9.1,-0.7,-0.30000000000000004,-0.4,16
604,10282.0,0.0,0.0,0.0,0.9,3.3000000000000003,9.200000000000001,-1.4,0.8,0.0,16
605,10291.0,0.0,0.0,0.1,0.9,3.2,9.3,-0.7,1.4,0.5,16
606,10300.0,0.0,0.0,0.1,0.9,3.2,9.3,1.0,0.8,0.4,16
607,10317.0,0.0,0.0,0.1,0.9,3.2,9.3,1.0,0.8,0.4,16
608,10333.0,0.0,0.0,-0.1,0.9,3.2,9.200000000000001,2.0,0.1,0.0,16
609,10350.0,0.0,0.0,-0.2,0.9,3.3000000000000003,9.1,-0.2,0.8,-0.1,16
610,10374.0,0.0,0.1,-0.1,0.9,3.3000000000000003,9.200000000000001,-1.1,1.7,0.5,16
611,10383.0,0.0,0.0,0.0,0.9,3.3000000000000003,9.200000000000001,-1.1,1.7,0.5,16
612,10402.0,0.0,0.0,0.1,0.9,3.2,9.200000000000001,0.7,-0.9000000000000001,0.9000000000000001,16
613,10417.0,0.0,0.0,0.0,0.9,3.2,9.200000000000001,0.7,-0.9000000000000001,0.9000000000000001,16
614,10433.0,0.1,-0.1,-0.2,0.9,3.2,9.0,0.6000000000000001,-2.3,0.5,16
615,10453.0,0.0,-0.1,-0.4,1.0,3.2,8.8,-0.30000000000000004,-2.9,-0.30000000000000004,16
616,10472.0,0.0,0.1,-0.4,0.9,3.3000000000000003,8.9,-3.9,1.7,1.0,16
617,10483.0,0.0,0.1,-0.2,0.9,3.3000000000000003,8.9,-3.9,1.7,1.0,16
618,10500.0,0.0,0.0,0.1,0.9,3.3000000000000003,9.200000000000001,-4.2,5.500000000000001,2.5,16
619,10518.0,0.1,-0.1,0.30000000000000004,0.9,3.1,9.600000000000001,-1.7,5.9,2.0,16
620,10533.0,0.1,-0.1,0.4,0.9,3.1,9.600000000000001,-1.7,5.9,2.0,16
621,10550.0,0.1,-0.1,0.4,0.9,3.1,9.600000000000001,-1.1,4.2,0.9000000000000001,16
622,10575.0,0.1,0.0,0.4,1.0,3.2,9.700000000000001,-0.5,0.30000000000000004,-0.5,16
623,10583.0,0.1,0.0,0.4,1.0,3.2,9.700000000000001,-0.5,0.30000000000000004,-0.5,16
624,10600.0,0.1,0.0,0.30000000000000004,1.0,3.2,9.600000000000001,0.5,-0.30000000000000004,-0.8,16
625,10618.0,0.1,0.1,0.30000000000000004,0.9,3.3000000000000003,9.600000000000001,3.6000000000000005,-0.9000000000000001,-0.8,16
626,10633.0,0.1,0.1,0.30000000000000004,0.9,3.3000000000000003,9.600000000000001,3.6000000000000005,-0.9000000000000001,-0.8,16
627,10650.0,0.1,0.0,0.1,1.0,3.3000000000000003,9.4,4.2,-2.4000000000000004,-0.8,16
628,10673.0,0.1,0.0,-0.1,0.9,3.3000000000000003,9.200000000000001,3.9,-3.0,-1.2000000000000002,16
629,10683.0,0.0,0.0,-0.1,0.9,3.3000000000000003,9.200000000000001,3.9,-3.0,-1.2000000000000002,16
630,10700.0,0.0,0.0,-0.1,0.9,3.3000000000000003,9.200000000000001,4.800000000000001,-1.8000000000000003,-0.8,16
631,10717.0,0.0,0.0,-0.2,0.9,3.2,9.0,4.9,-1.8000000000000003,-0.5,16
632,10735.0,0.0,-0.1,-0.30000000000000004,0.9,3.2,9.0,4.9,-1.8000000000000003,-0.5,16
633,10750.0,0.0,-0.1,-0.30000000000000004,0.9,3.2,8.9,2.3,-2.4000000000000004,-1.1,16
634,10771.0,-0.1,0.0,-0.1,0.8,3.3000000000000003,9.1,-0.5,-2.9,-0.8,16
635,10783.0,-0.1,0.0,-0.1,0.8,3.3000000000000003,9.1,-0.5,-2.9,-0.8,16
636,10800.0,-0.1,-0.1,0.1,0.8,3.2,9.200000000000001,0.6000000000000001,-1.7,0.1,16
637,10817.0,-0.1,-0.1,0.0,0.9,3.1,9.1,3.5,-2.8,0.7,16
638,10842.0,0.0,-0.1,-0.1,1.0,3.2,9.0,2.8,-4.1,0.0,16
639,10850.0,0.0,-0.1,-0.2,1.0,3.2,9.0,2.8,-4.1,0.0,16
640,10866.0,0.1,0.0,-0.2,1.1,3.3000000000000003,9.0,0.9000000000000001,-5.1000000000000005,-0.8,16
641,10883.0,0.1,0.0,-0.1,1.1,3.3000000000000003,9.0,0.9000000000000001,-5.1000000000000005,-0.8,16
642,10900.0,0.2,0.0,-0.2,1.2000000000000002,3.3000000000000003,9.0,0.8,-4.1,-1.4,16
643,10916.0,0.2,0.0,-0.2,1.2000000000000002,3.3000000000000003,9.0,0.30000000000000004,-1.6,-2.3,16
644,10934.0,0.2,0.1,-0.1,1.2000000000000002,3.4000000000000004,9.0,-0.2,1.2000000000000002,-2.7,16
645,10950.0,0.1,0.1,0.1,1.1,3.4000000000000004,9.200000000000001,-0.2,3.4,-2.7,16
646,10968.0,0.1,0.1,0.2,1.1,3.4000000000000004,9.3,0.30000000000000004,4.4,-2.5,16
647,10983.0,0.1,0.0,0.2,1.1,3.4000000000000004,9.4,0.2,4.7,-2.7,16
648,11000.0,0.0,0.0,0.30000000000000004,1.0,3.3000000000000003,9.5,0.1,2.7,-3.4,16
649,11016.0,-0.1,0.0,0.4,1.0,3.4000000000000004,9.600000000000001,0.4,0.7,-4.0,16
650,11033.0,-0.1,0.1,0.30000000000000004,0.9,3.4000000000000004,9.600000000000001,1.5,-0.8,-3.8,16
651,11051.0,0.0,0.1,0.30000000000000004,0.9,3.4000000000000004,9.5,2.5,-3.1,-3.5,16
652,11076.0,0.0,0.0,0.1,0.9,3.4000000000000004,9.3,3.7000000000000006,-4.1,-3.3000000000000007,16
653,11083.0,0.0,0.0,0.1,0.9,3.4000000000000004,9.3,3.7000000000000006,-4.1,-3.3000000000000007,16
654,11101.0,-0.1,0.0,0.0,0.9,3.4000000000000004,9.200000000000001,3.4,-4.4,-3.0,16
655,11118.0,-0.1,0.0,0.0,0.9,3.4000000000000004,9.200000000000001,3.6000000000000005,-3.6000000000000005,-2.3,16
656,11133.0,-0.1,0.0,0.0,0.9,3.3000000000000003,9.200000000000001,3.9,-2.5,-0.8,16
657,11152.0,-0.1,-0.1,0.0,0.9,3.3000000000000003,9.200000000000001,3.9,-2.5,-0.8,16
658,11171.0,-0.1,-0.1,0.0,0.9,3.3000000000000003,9.200000000000001,4.5,-3.1,-0.8,16
659,11184.0,-0.1,-0.2,-0.1,0.9,3.3000000000000003,9.1,4.7,-4.300000000000001,-1.3,16
660,11200.0,-0.1,-0.1,-0.2,0.9,3.3000000000000003,9.0,4.2,-5.2,-1.8000000000000003,16
661,11217.0,-0.1,0.0,-0.30000000000000004,0.9,3.4000000000000004,8.9,2.6,-4.6,-1.7,16
662,11234.0,-0.1,-0.1,-0.2,0.9,3.4000000000000004,8.9,0.9000000000000001,-2.4000000000000004,-0.7,16
663,11250.0,-0.1,-0.1,-0.2,0.9,3.4000000000000004,8.9,0.9000000000000001,-2.4000000000000004,-0.7,16
664,11269.0,-0.1,-0.1,-0.2,0.9,3.4000000000000004,8.9,0.5,-0.6000000000000001,-1.0,16
665,11283.0,-0.1,0.0,-0.1,0.8,3.4000000000000004,9.0,0.0,4.0,-1.0,16
666,11301.0,-0.2,0.0,0.0,0.8,3.4000000000000004,9.0,0.0,4.0,-1.0,16
667,11317.0,-0.2,0.0,0.1,0.8,3.5,9.200000000000001,0.2,4.4,-0.6000000000000001,16
668,11336.0,-0.2,0.0,0.2,0.8,3.5,9.3,0.7,2.9,-0.4,16
669,11351.0,-0.1,0.1,0.2,0.8,3.5,9.3,1.3,1.4,0.1,16
670,11372.0,-0.1,0.1,0.1,0.8,3.6,9.200000000000001,1.5,-0.4,0.7,16
671,11384.0,-0.1,0.1,0.1,0.8,3.6,9.200000000000001,1.5,-0.4,0.7,16
672,11404.0,-0.1,0.1,0.1,0.9,3.5,9.200000000000001,2.3,0.0,2.4000000000000004,16
673,11417.0,-0.1,0.1,0.1,0.9,3.5,9.200000000000001,2.3,0.0,2.4000000000000004,16
674,11433.0,0.1,0.0,0.1,1.0,3.5,9.200000000000001,3.3000000000000007,-1.5,2.3,16
675,11452.0,0.1,0.0,0.0,1.1,3.5,9.1,4.6,-3.3000000000000007,1.4,16
676,11468.0,0.1,0.0,-0.1,1.1,3.5,9.1,4.6,-3.3000000000000007,1.4,16
677,11483.0,0.1,0.0,-0.1,1.1,3.5,9.0,3.8,-3.3000000000000007,1.6,16
678,11500.0,0.2,0.0,-0.1,1.1,3.4000000000000004,9.0,1.9,-0.1,2.0,16
679,11517.0,0.2,-0.1,-0.1,1.1,3.4000000000000004,9.0,1.9,-0.1,2.0,16
680,11534.0,0.1,-0.1,0.0,1.1,3.4000000000000004,9.1,1.9,0.30000000000000004,1.1,16
681,11552.0,0.1,-0.1,-0.1,1.1,3.5,9.0,1.8000000000000003,0.0,-0.6000000000000001,16
682,11575.0,0.0,0.0,-0.1,1.0,3.5,9.0,1.6,-0.2,-0.7,16
683,11583.0,0.0,0.0,-0.1,1.0,3.5,9.0,1.6,-0.2,-0.7,16
684,11601.0,0.0,0.0,-0.1,1.1,3.6,8.9,0.0,0.2,-0.4,16
685,11617.0,0.0,0.1,-0.1,1.1,3.6,8.9,0.0,0.2,-0.4,16
686,11633.0,0.0,0.0,-0.1,1.1,3.6,9.0,-0.4,1.4,-0.2,16
687,11650.0,0.0,0.0,0.0,1.0,3.6,9.1,0.0,1.6,-0.1,16
688,11669.0,0.0,0.1,0.0,1.0,3.6,9.1,0.0,1.6,-0.1,16
689,11683.0,0.0,0.1,0.0,1.0,3.6,9.1,1.5,2.1,0.2,16
690,11700.0,0.1,0.0,-0.1,1.1,3.6,9.0,-1.2000000000000002,0.1,0.7,16
691,11716.0,0.1,0.0,-0.1,1.1,3.6,9.0,-1.2000000000000002,0.1,0.7,16
692,11733.0,0.1,0.0,0.0,1.1,3.6,9.0,-2.7,0.0,0.6000000000000001,16
693,11750.0,0.1,0.0,0.1,1.1,3.5,9.200000000000001,-1.7,0.1,0.8,16
694,11769.0,0.1,-0.1,0.1,1.1,3.4000000000000004,9.200000000000001,-0.6000000000000001,-0.6000000000000001,0.4,16
695,11783.0,0.1,-0.1,0.1,1.1,3.4000000000000004,9.200000000000001,-0.6000000000000001,-0.6000000000000001,0.4,16
696,11800.0,0.1,-0.1,0.1,1.1,3.4000000000000004,9.3,0.2,-1.6,-0.7,16
697,11817.0,0.1,0.0,0.2,1.1,3.5,9.3,1.2000000000000002,-3.4,-0.8,16
698,11842.0,0.1,0.0,0.1,1.1,3.5,9.200000000000001,1.6,-4.5,-0.8,16
699,11851.0,0.1,0.0,0.0,1.1,3.5,9.200000000000001,1.6,-4.5,-0.8,16
700,11866.0,0.1,0.0,0.0,1.2000000000000002,3.5,9.1,1.1,-4.2,-1.1,16
701,11883.0,0.1,0.0,0.0,1.2000000000000002,3.5,9.1,0.7,-3.5,-1.2000000000000002,16
702,11902.0,0.0,0.0,0.0,1.1,3.6,9.1,0.7,-3.3000000000000007,-1.1,16
703,11921.0,0.0,0.1,-0.1,1.1,3.6,9.0,0.9000000000000001,-2.8,-0.8,16
704,11935.0,0.0,0.0,-0.1,1.1,3.6,9.0,0.9000000000000001,-2.8,-0.8,16
705,11950.0,0.0,0.0,-0.1,1.1,3.6,9.0,0.4,-2.6,-0.8,16
706,11972.0,0.0,0.0,0.0,1.1,3.5,9.1,0.6000000000000001,-0.1,-0.8,16
707,11988.0,0.0,-0.1,0.1,1.1,3.5,9.200000000000001,2.1,-0.4,-1.1,16
708,12000.0,0.0,-0.1,0.1,1.1,3.5,9.200000000000001,2.1,-0.4,-1.1,16
709,12017.0,0.0,-0.1,0.0,1.1,3.5,9.1,3.1,-2.2,-2.0,16
710,12035.0,-0.1,0.0,0.0,1.0,3.6,9.0,2.4000000000000004,-1.8000000000000003,-1.7,16
711,12051.0,-0.1,0.0,0.0,1.0,3.6,9.0,2.4000000000000004,-1.8000000000000003,-1.7,16
712,12071.0,-0.1,0.0,0.1,1.0,3.6,9.1,3.4,-0.4,-0.5,16
713,12089.0,-0.1,0.0,0.1,1.0,3.6,9.1,3.8,-0.4,0.0,16
714,12100.0,-0.1,0.0,0.0,1.0,3.6,9.1,3.8,-0.4,0.0,16
715,12117.0,-0.1,0.0,0.1,1.0,3.5,9.200000000000001,3.3000000000000007,-1.7,0.5,16
716,12133.0,-0.1,-0.1,0.1,1.0,3.5,9.200000000000001,3.3000000000000007,-1.7,0.5,16
717,12158.0,0.1,-0.1,0.1,1.2000000000000002,3.5,9.1,2.2,-4.800000000000001,-0.7,16
718,12171.0,0.2,-0.1,0.1,1.3,3.5,9.200000000000001,2.0,-3.5,-2.0,16
719,12183.0,0.1,-0.1,0.1,1.3,3.5,9.200000000000001,2.0,-3.5,-2.0,16
720,12200.0,0.1,0.0,0.2,1.2000000000000002,3.6,9.3,2.7,-2.2,-2.8,16
721,12216.0,0.1,0.0,0.2,1.3,3.6,9.200000000000001,5.2,-4.5,-4.2,16
722,12233.0,0.1,0.0,0.1,1.3,3.6,9.200000000000001,5.2,-4.5,-4.2,16
723,12250.0,0.2,0.0,-0.1,1.3,3.6,9.0,4.5,-5.500000000000001,-5.500000000000001,16
724,12269.0,0.1,0.1,-0.2,1.2000000000000002,3.8000000000000003,9.0,1.4,-2.6,-6.2,16
725,12286.0,0.0,0.1,0.0,1.2000000000000002,3.7,9.0,1.7,-2.8,-5.4,16
726,12300.0,0.0,0.0,0.0,1.2000000000000002,3.7,9.0,1.7,-2.8,-5.4,16
727,12316.0,0.1,-0.1,-0.1,1.3,3.6,9.0,2.3,-3.4,-5.6,16
728,12334.0,0.1,-0.1,-0.2,1.3,3.6,8.8,2.5,-3.4,-6.500000000000001,16
729,12352.0,0.0,0.0,-0.30000000000000004,1.3,3.7,8.8,1.5,-3.7000000000000006,-7.1000000000000005,16
730,12370.0,0.0,0.0,-0.30000000000000004,1.2000000000000002,3.7,8.700000000000001,0.1,-3.4,-6.9,16
731,12384.0,0.0,0.0,-0.4,1.2000000000000002,3.7,8.6,-3.4,-1.5,-6.300000000000001,16
732,12400.0,0.0,0.0,-0.4,1.2000000000000002,3.7,8.6,-3.4,-1.5,-6.300000000000001,16
733,12418.0,-0.1,0.0,-0.30000000000000004,1.1,3.7,8.6,-4.5,0.0,-5.9,16
734,12434.0,0.0,0.0,-0.30000000000000004,1.2000000000000002,3.7,8.700000000000001,-6.0,1.0,-4.7,16
735,12450.0,0.0,0.0,-0.2,1.2000000000000002,3.7,8.700000000000001,-6.0,1.0,-4.7,16
736,12470.0,0.0,0.0,-0.1,1.2000000000000002,3.7,8.8,-6.300000000000001,1.8000000000000003,-4.6,16
737,12484.0,-0.1,0.1,0.1,1.1,3.7,9.0,-6.0,3.0,-3.4,16
738,12501.0,-0.1,0.1,0.1,1.1,3.7,9.0,-6.0,3.0,-3.4,16
739,12517.0,-0.1,0.1,0.1,1.1,3.7,9.1,-6.4,2.5,-2.5,16
740,12534.0,-0.1,0.0,0.2,1.0,3.6,9.3,-6.8,1.3,-1.5,16
741,12550.0,-0.1,0.0,0.30000000000000004,1.0,3.6,9.3,-6.8,1.3,-1.5,16
742,12566.0,-0.1,0.0,0.4,1.0,3.6,9.4,-5.500000000000001,1.0,-1.2000000000000002,16
743,12583.0,-0.1,-0.1,0.4,1.0,3.5,9.4,-1.3,-2.4000000000000004,-2.2,16
744,12600.0,-0.1,-0.1,0.30000000000000004,1.0,3.5,9.4,-1.3,-2.4000000000000004,-2.2,16
745,12617.0,-0.1,0.0,0.1,1.0,3.6,9.200000000000001,-0.5,-2.5,-2.7,16
746,12633.0,-0.1,0.1,0.0,1.0,3.7,9.1,0.1,-0.1,-1.7,16
747,12650.0,-0.1,0.1,0.0,1.0,3.7,9.1,0.1,-0.1,-1.7,16
748,12666.0,-0.1,0.1,0.0,1.0,3.7,9.1,0.0,-0.30000000000000004,-0.7,16
749,12683.0,-0.1,0.0,0.0,1.0,3.6,9.1,-1.1,-0.9000000000000001,0.2,16
750,12700.0,-0.1,0.0,0.0,1.0,3.6,9.1,-1.1,-0.9000000000000001,0.2,16
751,12716.0,-0.1,0.0,0.0,1.0,3.6,9.1,-0.5,-1.3,0.4,16
752,12734.0,-0.1,0.0,0.0,1.0,3.6,9.0,0.7,-2.3,1.5,16
753,12750.0,0.0,0.0,-0.2,1.1,3.6,8.9,-0.5,-2.0,1.9,16
754,12772.0,0.0,0.0,-0.2,1.1,3.6,8.9,-2.0,-1.2000000000000002,2.2,16
755,12784.0,0.0,0.0,-0.2,1.1,3.6,8.9,-2.0,-1.2000000000000002,2.2,16
756,12801.0,0.1,-0.1,-0.1,1.2000000000000002,3.5,9.0,-2.5,0.0,2.3,16
757,12817.0,0.1,-0.1,-0.1,1.2000000000000002,3.5,9.0,-2.5,0.0,2.3,16
758,12839.0,0.1,-0.1,-0.1,1.3,3.4000000000000004,9.0,-2.0,1.2000000000000002,0.30000000000000004,16
759,12852.0,0.1,0.0,-0.1,1.2000000000000002,3.5,9.0,-2.0,2.6,-0.1,16
760,12867.0,0.1,0.0,0.0,1.2000000000000002,3.5,9.0,-2.0,2.6,-0.1,16
761,12886.0,0.1,0.0,0.0,1.2000000000000002,3.5,9.1,-2.0,3.2,-0.2,16
762,12900.0,0.1,0.0,0.2,1.2000000000000002,3.5,9.3,-1.5,3.9,-0.30000000000000004,16
763,12916.0,0.1,0.0,0.2,1.2000000000000002,3.5,9.3,-1.5,3.9,-0.30000000000000004,16
764,12933.0,0.1,0.0,0.1,1.2000000000000002,3.5,9.200000000000001,-1.2000000000000002,2.1,-0.7,16
765,12950.0,0.1,0.1,0.1,1.2000000000000002,3.6,9.200000000000001,-1.3,1.0,0.0,16
766,12967.0,0.1,0.0,0.1,1.2000000000000002,3.6,9.200000000000001,-1.3,1.0,0.0,16
767,12983.0,0.1,0.0,0.1,1.2000000000000002,3.5,9.200000000000001,-1.3,0.5,0.1,16
768,13000.0,0.0,0.0,0.1,1.2000000000000002,3.5,9.200000000000001,-0.8,0.1,0.7,16
769,13016.0,0.1,0.0,0.1,1.2000000000000002,3.5,9.200000000000001,-0.8,0.1,0.7,16
770,13035.0,0.1,0.0,-0.1,1.2000000000000002,3.5,9.1,-0.8,-0.30000000000000004,0.8,16
771,13050.0,0.1,-0.1,0.1,1.2000000000000002,3.4000000000000004,9.3,-0.4,1.0,0.5,16
772,13067.0,0.1,-0.1,0.1,1.2000000000000002,3.4000000000000004,9.3,-0.4,1.0,0.5,16
773,13088.0,0.1,-0.1,0.1,1.2000000000000002,3.4000000000000004,9.200000000000001,0.6000000000000001,-0.5,0.0,16
774,13100.0,0.1,-0.1,-0.1,1.2000000000000002,3.4000000000000004,9.0,-0.30000000000000004,-0.1,-1.1,16
775,13117.0,0.1,0.0,-0.1,1.2000000000000002,3.4000000000000004,9.0,-0.30000000000000004,-0.1,-1.1,16
776,13133.0,0.0,0.0,0.0,1.2000000000000002,3.4000000000000004,9.1,-0.8,1.0,-1.2000000000000002,16
777,13152.0,0.0,-0.1,0.1,1.1,3.4000000000000004,9.1,0.30000000000000004,0.5,-1.1,16
778,13169.0,0.0,-0.1,0.0,1.1,3.4000000000000004,9.1,0.30000000000000004,0.5,-1.1,16
779,13183.0,0.1,-0.1,-0.1,1.2000000000000002,3.4000000000000004,9.1,-0.2,-0.1,-1.8000000000000003,16
780,13200.0,0.0,0.0,0.0,1.1,3.4000000000000004,9.1,-0.6000000000000001,0.4,-2.8,16
781,13218.0,0.0,0.0,-0.1,1.1,3.5,9.0,-0.5,2.0,-2.8,16
782,13234.0,0.0,0.0,-0.1,1.1,3.5,9.0,-0.5,2.0,-2.8,16
783,13250.0,-0.1,0.0,-0.1,1.0,3.5,9.1,0.30000000000000004,3.9,-2.5,16
784,13268.0,-0.1,0.0,0.0,1.0,3.5,9.1,0.2,3.3000000000000007,-2.4000000000000004,16
785,13284.0,-0.1,0.0,-0.1,1.0,3.5,9.0,-0.4,2.2,-2.3,16
786,13300.0,-0.1,0.0,-0.1,1.0,3.5,9.0,-1.5,0.4,-1.9,16
787,13317.0,0.0,-0.1,-0.1,1.0,3.4000000000000004,9.0,-2.2,-2.0,-1.6,16
788,13333.0,0.0,-0.1,-0.2,1.1,3.4000000000000004,8.9,-2.2,-2.0,-1.6,16
789,13350.0,0.0,0.0,-0.2,1.1,3.4000000000000004,8.9,-2.7,-0.9000000000000001,-1.9,16
790,13367.0,-0.1,0.1,0.0,1.0,3.5,8.9,-3.0,1.8000000000000003,-1.2000000000000002,16
791,13389.0,0.0,0.1,0.1,1.0,3.6,9.1,-3.2,3.6000000000000005,0.2,16
792,13400.0,0.0,0.0,0.2,1.1,3.4000000000000004,9.3,-3.3000000000000007,2.8,0.9000000000000001,16
793,13418.0,0.1,0.0,0.2,1.1,3.4000000000000004,9.3,-3.7000000000000006,0.5,0.5,16
794,13433.0,0.1,0.0,0.2,1.1,3.4000000000000004,9.3,-4.2,-1.3,-0.5,16
795,13450.0,0.0,0.0,0.30000000000000004,1.1,3.4000000000000004,9.4,-4.0,-0.9000000000000001,-0.8,16
796,13466.0,0.0,0.0,0.30000000000000004,1.0,3.4000000000000004,9.5,0.1,0.5,-1.1,16
797,13486.0,0.0,0.0,0.2,1.0,3.4000000000000004,9.4,1.5,0.4,-1.4,16
798,13500.0,-0.1,0.0,0.2,1.0,3.4000000000000004,9.4,1.5,0.4,-1.4,16
799,13516.0,-0.1,0.0,0.1,0.9,3.4000000000000004,9.3,1.7,-1.2000000000000002,-1.8000000000000003,16
800,13534.0,-0.1,0.0,0.1,0.9,3.4000000000000004,9.3,1.7,-1.2000000000000002,-1.8000000000000003,16
801,13550.0,-0.1,0.0,-0.1,0.9,3.4000000000000004,9.200000000000001,1.7,-2.2,-1.8000000000000003,16
802,13571.0,-0.1,0.1,-0.1,0.9,3.5,9.0,1.7,-1.2000000000000002,-1.0,16
803,13587.0,-0.2,0.1,-0.1,0.9,3.5,9.0,1.7,-1.2000000000000002,-1.0,16
804,13600.0,-0.30000000000000004,0.2,0.1,0.7000000000000001,3.6,9.200000000000001,1.8000000000000003,1.0,0.8,16
805,13617.0,-0.5,0.1,0.30000000000000004,0.5,3.5,9.5,3.0,-0.9000000000000001,5.300000000000001,16
806,13634.0,-0.5,0.0,0.30000000000000004,0.5,3.5,9.5,3.0,-0.9000000000000001,5.300000000000001,16
807,13651.0,-0.5,0.0,0.4,0.4,3.4000000000000004,9.600000000000001,2.6,-3.7000000000000006,7.1000000000000005,16
808,13668.0,-0.6000000000000001,0.0,0.4,0.4,3.4000000000000004,9.700000000000001,1.5,-7.699999999999999,9.2,16
809,13684.0,-0.5,-0.1,0.4,0.5,3.3000000000000003,9.600000000000001,0.4,-12.9,11.000000000000002,16
810,13700.0,-0.2,-0.30000000000000004,0.1,0.8,3.1,9.4,0.0,-17.300000000000004,11.2,16
811,13717.0,0.0,-0.30000000000000004,-0.30000000000000004,1.0,3.1,9.0,-0.4,-19.300000000000004,9.4,16
812,13734.0,0.1,-0.2,-0.6000000000000001,1.4000000000000001,3.2,8.5,0.9000000000000001,-14.700000000000001,4.4,16
813,13750.0,0.2,-0.2,-0.7000000000000001,1.4000000000000001,3.2,8.5,0.9000000000000001,-14.700000000000001,4.4,16
814,13767.0,0.4,-0.1,-0.9,1.6,3.2,8.200000000000001,1.2000000000000002,-10.8,2.1,16
815,13785.0,0.5,0.0,-1.1,1.8,3.4000000000000004,8.0,-1.8000000000000003,0.9000000000000001,-2.3,16
816,13803.0,0.5,0.0,-1.0,1.8,3.4000000000000004,8.0,-1.8000000000000003,0.9000000000000001,-2.3,16
817,13816.0,0.5,0.1,-0.9,1.8,3.4000000000000004,8.1,-3.6000000000000005,6.8,-3.9,16
818,13833.0,0.5,0.1,-0.7000000000000001,1.7000000000000002,3.4000000000000004,8.5,-6.2,13.700000000000001,-6.0,16
819,13850.0,0.5,0.1,-0.6000000000000001,1.7000000000000002,3.4000000000000004,8.5,-6.2,13.700000000000001,-6.0,16
820,13868.0,0.6000000000000001,0.1,-0.30000000000000004,1.7000000000000002,3.4000000000000004,8.700000000000001,-6.9,15.6,-6.600000000000001,16
821,13883.0,0.6000000000000001,0.1,-0.1,1.7000000000000002,3.4000000000000004,9.0,-8.2,12.7,-7.500000000000001,16
822,13900.0,0.6000000000000001,0.1,-0.1,1.7000000000000002,3.4000000000000004,9.0,-8.2,12.7,-7.500000000000001,16
823,13916.0,0.6000000000000001,0.1,0.0,1.6,3.4000000000000004,9.0,-10.299999999999999,11.900000000000002,-7.500000000000001,16
824,13933.0,0.6000000000000001,-0.1,0.2,1.6,3.1,9.4,-11.6,10.1,-7.9,16
825,13951.0,0.7000000000000001,-0.1,0.2,1.6,3.1,9.4,-11.6,10.1,-7.9,16
826,13968.0,0.7000000000000001,-0.2,0.2,1.7000000000000002,3.0,9.4,-10.8,7.699999999999999,-9.3,16
827,13984.0,0.7000000000000001,-0.1,0.2,1.6,3.0,9.3,-10.700000000000001,6.8,-11.8,16
828,14000.0,0.6000000000000001,-0.2,0.1,1.6,3.0,9.3,-10.700000000000001,6.8,-11.8,16
829,14017.0,0.6000000000000001,-0.2,0.1,1.5,2.9000000000000004,9.3,-11.2,6.600000000000001,-13.100000000000001,16
830,14035.0,0.4,-0.2,0.2,1.3,2.8000000000000003,9.5,-9.899999999999999,8.2,-16.6,16
831,14051.0,0.30000000000000004,-0.2,0.2,1.3,2.8000000000000003,9.5,-9.899999999999999,8.2,-16.6,16
832,14066.0,0.2,-0.1,0.30000000000000004,1.1,2.9000000000000004,9.600000000000001,-7.6,9.5,-17.7,16
833,14083.0,0.0,0.0,0.30000000000000004,0.7000000000000001,3.0,9.600000000000001,-5.300000000000001,9.8,-18.200000000000003,16
834,14100.0,-0.1,0.0,0.30000000000000004,0.7000000000000001,3.0,9.600000000000001,-5.300000000000001,9.8,-18.200000000000003,16
835,14117.0,-0.2,0.1,0.30000000000000004,0.6000000000000001,3.1,9.600000000000001,-5.7,8.0,-17.6,16
836,14133.0,-0.2,0.1,0.30000000000000004,0.5,3.1,9.600000000000001,-6.300000000000001,5.2,-17.0,16
837,14151.0,-0.2,0.2,0.2,0.5,3.1,9.5,-6.500000000000001,3.1,-15.8,16
838,14170.0,-0.2,0.2,0.2,0.4,3.1,9.5,-5.6,4.4,-15.000000000000002,16
839,14183.0,-0.2,0.2,0.2,0.4,3.1,9.5,-5.6,4.4,-15.000000000000002,16
840,14200.0,-0.30000000000000004,0.2,0.2,0.30000000000000004,3.1,9.600000000000001,-2.0,5.9,-12.9,16
841,14217.0,-0.30000000000000004,0.2,0.2,0.2,3.1,9.600000000000001,-2.0,5.9,-12.9,16
842,14233.0,-0.30000000000000004,0.2,0.1,0.2,3.1,9.5,-0.9000000000000001,4.5,-12.100000000000001,16
843,14250.0,-0.30000000000000004,0.2,0.0,0.2,3.1,9.4,-1.2000000000000002,3.7000000000000006,-11.5,16
844,14268.0,-0.30000000000000004,0.2,0.0,0.1,3.1,9.5,-1.6,3.9,-10.4,16
845,14283.0,-0.30000000000000004,0.1,0.0,0.1,3.1,9.4,-1.2000000000000002,3.1,-9.4,16
846,14300.0,-0.30000000000000004,0.1,0.0,0.1,3.1,9.3,0.4,1.0,-7.500000000000001,16
847,14317.0,-0.2,0.1,-0.2,0.1,3.1,9.3,0.4,1.0,-7.500000000000001,16
848,14334.0,-0.2,0.1,-0.30000000000000004,0.1,3.1,9.1,-0.6000000000000001,1.2000000000000002,-6.2,16
849,14351.0,-0.1,0.1,-0.30000000000000004,0.2,3.1,9.1,-2.1,2.8,-4.2,16
850,14367.0,-0.1,0.1,-0.30000000000000004,0.2,3.1,9.1,-2.1,2.8,-4.2,16
851,14383.0,0.0,0.1,-0.2,0.2,3.1,9.200000000000001,-2.4000000000000004,4.7,-3.2,16
852,14400.0,0.0,0.0,-0.1,0.30000000000000004,3.0,9.3,-2.5,3.7000000000000006,-1.9,16
853,14416.0,0.1,0.0,-0.1,0.30000000000000004,3.0,9.3,-2.5,3.7000000000000006,-1.9,16
854,14433.0,0.1,0.0,-0.1,0.4,3.0,9.3,-2.7,3.2,-1.8000000000000003,16
855,14450.0,0.2,0.0,0.0,0.5,3.0,9.3,-3.2,2.3,-1.4,16
856,14467.0,0.2,0.0,-0.1,0.5,3.0,9.3,-3.2,2.3,-1.4,16
857,14483.0,0.2,0.0,0.0,0.5,2.9000000000000004,9.4,-3.5,3.0,-1.2000000000000002,16
858,14501.0,0.2,0.0,0.2,0.5,2.9000000000000004,9.5,-2.1,1.2000000000000002,-1.6,16
859,14517.0,0.2,0.0,0.1,0.5,2.9000000000000004,9.5,-2.1,1.2000000000000002,-1.6,16
860,14533.0,0.30000000000000004,0.0,0.0,0.5,2.9000000000000004,9.4,-2.3,-0.30000000000000004,-1.9,16
861,14551.0,0.2,0.0,0.0,0.4,2.9000000000000004,9.5,-4.1,2.0,-1.4,16
862,14569.0,0.1,0.0,0.30000000000000004,0.4,2.9000000000000004,9.5,-4.1,2.0,-1.4,16
863,14583.0,0.1,-0.1,0.30000000000000004,0.4,2.8000000000000003,9.700000000000001,-2.3,1.6,-1.2000000000000002,16
864,14600.0,0.1,-0.1,0.2,0.4,2.8000000000000003,9.600000000000001,-0.6000000000000001,-0.9000000000000001,-1.5,16
865,14616.0,0.1,-0.1,0.1,0.4,2.8000000000000003,9.5,-0.4,-2.3,-2.0,16
866,14633.0,0.1,0.0,0.0,0.4,2.9000000000000004,9.4,-1.3,-2.6,-2.1,16
867,14650.0,0.1,0.0,0.0,0.4,2.9000000000000004,9.4,-1.9,-2.3,-1.6,16
868,14668.0,0.1,0.0,0.0,0.4,2.9000000000000004,9.5,-1.6,-1.5,-1.0,16
869,14685.0,0.1,-0.1,0.0,0.4,2.8000000000000003,9.5,-0.9000000000000001,-0.8,-1.2000000000000002,16
870,14700.0,0.0,-0.1,0.1,0.4,2.7,9.5,-0.30000000000000004,-0.4,-1.8000000000000003,16
871,14717.0,0.0,-0.1,0.1,0.30000000000000004,2.8000000000000003,9.5,0.9000000000000001,-1.2000000000000002,-2.4000000000000004,16
872,14733.0,0.0,-0.1,0.1,0.30000000000000004,2.8000000000000003,9.5,0.9000000000000001,-1.2000000000000002,-2.4000000000000004,16
873,14750.0,0.0,-0.1,0.0,0.30000000000000004,2.8000000000000003,9.4,1.1,-1.8000000000000003,-2.7,16
874,14766.0,-0.1,0.0,-0.1,0.30000000000000004,2.8000000000000003,9.3,0.30000000000000004,-1.5,-3.1,16
875,14783.0,-0.1,0.0,-0.1,0.30000000000000004,2.8000000000000003,9.3,0.30000000000000004,-1.5,-3.1,16
876,14800.0,-0.1,0.0,-0.1,0.2,2.9000000000000004,9.3,0.30000000000000004,-0.4,-2.8,16
877,14817.0,-0.1,0.0,-0.1,0.2,2.9000000000000004,9.4,0.6000000000000001,2.0,-1.9,16
878,14842.0,-0.1,0.0,0.0,0.2,2.9000000000000004,9.4,0.6000000000000001,2.0,-1.9,16
879,14851.0,-0.1,0.1,0.0,0.2,2.9000000000000004,9.4,1.0,2.0,-1.7,16
880,14866.0,-0.1,0.1,-0.1,0.1,3.0,9.3,0.1,1.3,-0.7,16
881,14884.0,-0.1,0.1,-0.1,0.1,3.0,9.3,0.1,1.3,-0.7,16
882,14901.0,-0.1,0.1,0.0,0.1,3.0,9.4,-0.5,2.0,0.0,16
883,14917.0,-0.2,0.1,0.1,0.0,2.9000000000000004,9.600000000000001,0.4,4.4,1.6,16
884,14934.0,-0.2,0.0,0.30000000000000004,0.0,2.9000000000000004,9.700000000000001,2.5,3.0,2.1,16
885,14951.0,-0.2,0.0,0.2,0.0,2.9000000000000004,9.700000000000001,2.5,3.0,2.1,16
886,14967.0,-0.1,0.1,0.0,0.2,3.0,9.200000000000001,2.5,-3.9,2.7,16
887,14983.0,0.0,0.1,-0.2,0.2,3.0,9.200000000000001,2.5,-3.9,2.7,16
888,15000.0,0.1,0.1,-0.30000000000000004,0.30000000000000004,3.1,9.1,0.0,-3.7000000000000006,3.8,16
889,15017.0,0.1,0.1,-0.30000000000000004,0.30000000000000004,2.9000000000000004,9.200000000000001,-1.5,0.7,5.300000000000001,16
890,15033.0,0.1,-0.1,-0.1,0.4,2.8000000000000003,9.3,-0.30000000000000004,2.9,5.1000000000000005,16
891,15050.0,0.1,-0.1,-0.1,0.4,2.8000000000000003,9.3,-0.30000000000000004,2.9,5.1000000000000005,16
892,15067.0,0.1,-0.1,0.0,0.4,2.8000000000000003,9.3,0.6000000000000001,2.7,4.300000000000001,16
893,15083.0,0.1,-0.1,0.0,0.4,2.8000000000000003,9.3,0.5,1.3,3.5,16
894,15103.0,0.2,-0.1,-0.1,0.5,2.8000000000000003,9.3,-2.3,-0.7,2.2,16
895,15116.0,0.2,-0.1,-0.1,0.5,2.8000000000000003,9.3,-2.3,-0.7,2.2,16
896,15133.0,0.30000000000000004,-0.1,0.0,0.6000000000000001,2.8000000000000003,9.3,-2.5,0.1,1.4,16
897,15150.0,0.30000000000000004,-0.1,0.0,0.6000000000000001,2.8000000000000003,9.4,-1.3,1.9,0.2,16
898,15166.0,0.2,0.0,0.0,0.5,2.9000000000000004,9.4,0.30000000000000004,4.0,-0.6000000000000001,16
899,15183.0,0.1,0.1,0.1,0.4,2.9000000000000004,9.5,1.5,4.1,-0.5,16
900,15200.0,0.1,0.1,0.2,0.4,2.9000000000000004,9.5,1.5,4.1,-0.5,16
901,15217.0,0.1,0.0,0.1,0.4,2.9000000000000004,9.5,0.2,1.0,-0.4,16
902,15233.0,0.1,0.0,0.1,0.4,2.9000000000000004,9.5,-0.8,-3.1,-0.5,16
903,15250.0,0.1,0.0,0.1,0.4,2.9000000000000004,9.5,-0.8,-3.1,-0.5,16
904,15266.0,0.2,0.1,-0.1,0.5,2.9000000000000004,9.4,0.4,-6.600000000000001,-1.1,16
905,15283.0,0.30000000000000004,0.1,-0.30000000000000004,0.6000000000000001,3.0,9.1,0.6000000000000001,-7.500000000000001,-1.6,16
906,15300.0,0.30000000000000004,0.30000000000000004,-0.4,0.7000000000000001,3.2,8.9,-0.7,-6.0,-1.7,16
907,15316.0,0.4,0.30000000000000004,-0.30000000000000004,0.8,3.2,9.0,-1.4,-5.7,-1.8000000000000003,16
908,15333.0,0.5,0.4,-0.5,1.1,3.4000000000000004,8.700000000000001,-2.3,-11.1,-4.4,16
909,15351.0,0.6000000000000001,0.4,-0.6000000000000001,1.1,3.4000000000000004,8.700000000000001,-2.3,-11.1,-4.4,16
910,15367.0,0.7000000000000001,0.6000000000000001,-0.8,1.2000000000000002,3.5,8.4,-5.1000000000000005,-11.2,-6.4,16
911,15385.0,0.7000000000000001,0.7000000000000001,-0.7000000000000001,1.4000000000000001,3.8000000000000003,8.700000000000001,-9.100000000000001,-4.1,-8.2,16
912,15400.0,0.7000000000000001,0.8,-0.5,1.4000000000000001,3.8000000000000003,8.700000000000001,-9.100000000000001,-4.1,-8.2,16
913,15417.0,0.7000000000000001,0.7000000000000001,-0.30000000000000004,1.4000000000000001,3.7,8.9,-7.400000000000001,-0.2,-7.500000000000001,16
914,15433.0,0.9,0.5,-0.1,1.6,3.4000000000000004,9.200000000000001,-4.0,3.5,-10.200000000000001,16
915,15450.0,0.9,0.5,0.0,1.6,3.4000000000000004,9.200000000000001,-4.0,3.5,-10.200000000000001,16
916,15467.0,0.9,0.5,0.2,1.5,3.5,9.4,-4.0,3.0,-12.5,16
917,15483.0,0.9,0.6000000000000001,0.30000000000000004,1.6,3.5,9.5,-4.7,-3.2,-13.900000000000002,16
918,15500.0,0.9,0.5,0.30000000000000004,1.6,3.5,9.5,-4.7,-3.2,-13.900000000000002,16
919,15517.0,1.1,0.4,0.2,1.8,3.3000000000000003,9.5,-6.1000000000000005,-7.0,-15.000000000000002,16
920,15533.0,1.3,0.2,0.1,1.9000000000000001,3.2,9.4,-7.500000000000001,-9.700000000000001,-17.200000000000003,16
921,15552.0,1.3,0.1,0.2,2.0,2.9000000000000004,9.5,-7.8,-10.4,-22.700000000000003,16
922,15566.0,1.3,0.0,0.30000000000000004,2.0,2.9000000000000004,9.5,-7.8,-10.4,-22.700000000000003,16
923,15583.0,1.4000000000000001,-0.30000000000000004,0.2,2.1,2.7,9.5,-5.7,-11.900000000000002,-26.200000000000003,16
924,15600.0,1.4000000000000001,-0.5,0.0,2.2,2.2,9.3,-2.8,-14.600000000000001,-37.300000000000004,16
925,15617.0,1.4000000000000001,-0.6000000000000001,0.0,2.2,2.2,9.3,-2.8,-14.600000000000001,-37.300000000000004,16
926,15633.0,1.2000000000000002,-0.7000000000000001,0.0,2.1,2.2,9.3,0.30000000000000004,-16.4,-43.6,16
927,15650.0,1.1,-0.6000000000000001,-0.1,1.9000000000000001,2.2,9.200000000000001,6.0,-20.3,-48.800000000000004,16
928,15667.0,1.2000000000000002,-0.5,-0.30000000000000004,2.0,2.4000000000000004,8.9,13.200000000000003,-26.400000000000006,-52.7,16
929,15683.0,1.5,-0.30000000000000004,-1.2000000000000002,2.3000000000000003,2.6,8.3,17.5,-33.0,-56.0,16
930,15700.0,1.7000000000000002,0.0,-1.8,2.6,3.0,7.4,7.400000000000001,-18.4,-54.50000000000001,16
931,15717.0,1.7000000000000002,-0.1,-1.7000000000000002,2.6,3.0,7.4,7.400000000000001,-18.4,-54.50000000000001,16
932,15734.0,1.6,-0.6000000000000001,-0.5,2.6,2.6,8.200000000000001,1.1,4.0,-50.7,16
933,15760.0,1.8,-1.6,1.1,2.5,1.5,10.200000000000001,6.699999999999999,9.8,-52.400000000000006,16
934,15767.0,1.8,-1.6,1.1,2.5,1.5,10.200000000000001,6.699999999999999,9.8,-52.400000000000006,16
935,15783.0,1.9000000000000001,-1.7000000000000002,1.1,2.6,1.5,10.3,10.1,0.4,-59.300000000000004,16
936,15800.0,1.7000000000000002,-1.3,0.9,2.4000000000000004,2.0,10.0,-6.1000000000000005,-17.300000000000004,-68.1,16
937,15817.0,1.7000000000000002,-1.1,0.8,2.4000000000000004,2.0,10.0,-6.1000000000000005,-17.300000000000004,-68.1,16
938,15833.0,1.6,-1.0,0.9,2.3000000000000003,2.1,10.100000000000001,-19.200000000000003,-25.200000000000003,-69.4,16
939,15850.0,1.5,-1.0,1.1,2.2,1.9000000000000001,10.4,-30.599999999999998,-37.1,-73.4,16
940,15866.0,1.4000000000000001,-1.1,1.2000000000000002,2.2,1.9000000000000001,10.4,-30.599999999999998,-37.1,-73.4,16
941,15884.0,1.3,-1.1,1.1,2.1,1.8,10.4,-22.8,-39.9,-78.2,16
942,15901.0,1.0,-0.7000000000000001,0.30000000000000004,1.9000000000000001,2.5,9.1,-6.4,-46.7,-89.0,16
943,15916.0,0.9,-0.4,-0.2,1.9000000000000001,2.5,9.1,-6.4,-46.7,-89.0,16
944,15933.0,0.7000000000000001,0.1,-0.8,1.7000000000000002,2.9000000000000004,8.5,-5.500000000000001,-40.9,-90.5,16
945,15950.0,0.30000000000000004,0.4,-0.9,1.2000000000000002,3.4000000000000004,8.3,-8.8,-28.600000000000005,-85.80000000000001,16
946,15966.0,0.2,0.5,-0.9,1.2000000000000002,3.4000000000000004,8.3,-8.8,-28.600000000000005,-85.80000000000001,16
947,15983.0,0.0,0.5,-0.7000000000000001,1.0,3.4000000000000004,8.4,-10.0,-22.9,-81.10000000000001,16
948,16000.0,-0.1,0.4,-0.5,0.9,3.3000000000000003,8.700000000000001,-10.600000000000001,-19.400000000000002,-76.89999999999999,16
949,16016.0,-0.1,0.4,-0.4,0.9,3.3000000000000003,8.8,-10.700000000000001,-18.1,-73.9,16
950,16033.0,-0.2,0.5,-0.30000000000000004,0.8,3.4000000000000004,8.9,-11.6,-17.1,-71.6,16
951,16050.0,-0.30000000000000004,0.7000000000000001,-0.1,0.7000000000000001,3.5,9.0,-12.7,-14.300000000000002,-68.3,16
952,16066.0,-0.4,0.8,0.2,0.5,3.6,9.4,-13.3,-10.9,-63.2,16
953,16083.0,-0.5,0.7000000000000001,0.7000000000000001,0.4,3.6,9.9,-10.600000000000001,-9.700000000000001,-57.400000000000006,16
954,16100.0,-0.4,0.5,0.9,0.5,3.4000000000000004,10.100000000000001,-5.6,-13.8,-53.599999999999994,16
955,16117.0,-0.30000000000000004,0.6000000000000001,0.5,0.7000000000000001,3.6,9.600000000000001,-1.0,-24.3,-51.2,16
956,16134.0,-0.2,0.7000000000000001,0.30000000000000004,0.7000000000000001,3.6,9.600000000000001,-1.0,-24.3,-51.2,16
957,16159.0,-0.30000000000000004,1.1,-0.1,0.6000000000000001,4.1000000000000005,9.1,-2.9,-19.799999999999997,-45.8,16
958,16166.0,-0.30000000000000004,1.1,-0.1,0.6000000000000001,4.1000000000000005,9.1,-2.9,-19.799999999999997,-45.8,16
959,16185.0,-0.30000000000000004,1.2000000000000002,0.1,0.7000000000000001,4.1000000000000005,9.3,-2.4000000000000004,-12.4,-41.300000000000004,16
960,16200.0,-0.30000000000000004,1.2000000000000002,0.30000000000000004,0.6000000000000001,4.2,9.5,-0.6000000000000001,-5.8,-36.9,16
961,16216.0,-0.30000000000000004,1.3,0.6000000000000001,0.4,4.3,10.100000000000001,-3.0,5.0,-28.0,16
962,16233.0,-0.4,1.3,0.9,0.4,4.3,10.100000000000001,-3.0,5.0,-28.0,16
963,16251.0,-0.7000000000000001,1.3,1.2000000000000002,0.1,4.3,10.4,-7.0,6.699999999999999,-22.3,16
964,16266.0,-0.9,1.1,2.1,-0.30000000000000004,3.9000000000000004,11.9,-13.6,14.700000000000001,-7.699999999999999,16
965,16284.0,-1.1,1.0,2.7,-0.30000000000000004,3.9000000000000004,11.9,-13.6,14.700000000000001,-7.699999999999999,16
966,16300.0,-1.3,0.6000000000000001,3.6,-0.6000000000000001,3.6,12.700000000000001,-10.0,13.700000000000001,-1.4,16
967,16316.0,-1.5,0.1,3.8000000000000003,-0.9,2.7,13.3,-1.8000000000000003,-1.0,9.3,16
968,16333.0,-1.5,-0.2,3.9000000000000004,-0.9,2.7,13.3,-1.8000000000000003,-1.0,9.3,16
969,16350.0,-1.6,-1.1,3.7,-0.9,2.0,13.200000000000001,0.7,-11.4,11.700000000000001,16
970,16372.0,-1.7000000000000002,-1.8,3.3000000000000003,-1.0,0.8,12.4,15.5,-29.900000000000006,7.8,16
971,16383.0,-1.8,-2.1,2.9000000000000004,-1.0,0.8,12.4,15.5,-29.900000000000006,7.8,16
972,16400.0,-2.0,-2.3000000000000003,1.6,-1.1,0.6000000000000001,11.3,26.700000000000003,-38.0,3.7000000000000006,16
973,16416.0,-2.0,-2.3000000000000003,0.8,-1.1,0.7000000000000001,10.0,33.800000000000004,-41.7,0.5,16
974,16433.0,-2.0,-2.2,-0.6000000000000001,-1.0,0.9,8.700000000000001,35.1,-37.1,-1.3,16
975,16450.0,-1.9000000000000001,-2.0,-1.6,-0.8,1.1,7.9,32.6,-28.700000000000003,-2.0,16
976,16475.0,-1.8,-1.6,-2.5,-0.6000000000000001,1.8,6.7,21.8,-12.200000000000001,-1.5,16
977,16484.0,-1.8,-1.6,-2.5,-0.6000000000000001,1.8,6.7,21.8,-12.200000000000001,-1.5,16
978,16500.0,-1.7000000000000002,-1.3,-2.7,-0.5,2.0,6.5,14.5,0.4,0.7,16
979,16516.0,-1.6,-1.2000000000000002,-2.5,-0.5,2.1,6.6000000000000005,8.8,11.000000000000002,3.4,16
980,16533.0,-1.5,-1.2000000000000002,-2.5,-0.4,2.2,6.7,5.8,16.8,5.7,16
981,16550.0,-1.4000000000000001,-0.9,-2.5,-0.30000000000000004,2.5,6.6000000000000005,4.300000000000001,19.0,7.9,16
982,16566.0,-1.2000000000000002,-0.5,-2.5,-0.2,2.8000000000000003,6.6000000000000005,0.9000000000000001,19.400000000000002,11.700000000000001,16
983,16583.0,-1.0,-0.4,-2.5,0.0,2.9000000000000004,6.6000000000000005,-4.6,17.1,17.0,16
984,16602.0,-0.6000000000000001,-0.4,-2.6,0.30000000000000004,2.9000000000000004,6.5,-12.200000000000001,12.7,21.500000000000004,16
985,16617.0,-0.30000000000000004,-0.4,-2.6,0.6000000000000001,2.8000000000000003,6.5,-20.0,9.5,23.2,16
986,16633.0,-0.2,-0.30000000000000004,-2.4000000000000004,0.7000000000000001,2.9000000000000004,6.7,-23.400000000000002,10.700000000000001,23.0,16
987,16650.0,-0.2,0.1,-2.1,0.7000000000000001,3.2,7.0,-21.300000000000004,14.200000000000001,23.2,16
988,16666.0,-0.2,0.30000000000000004,-2.0,0.7000000000000001,3.5,7.2,-17.300000000000004,17.200000000000003,25.0,16
989,16683.0,0.0,0.7000000000000001,-1.6,0.8,3.7,7.800000000000001,-14.100000000000001,22.9,27.6,16
990,16700.0,0.0,0.8,-1.3,0.8,3.7,7.800000000000001,-13.900000000000002,25.7,29.400000000000002,16
991,16716.0,0.2,0.9,-1.0,1.0,3.8000000000000003,8.1,-15.6,23.800000000000004,29.500000000000004,16
992,16733.0,0.30000000000000004,1.0,-0.2,1.0,3.8000000000000003,9.5,-17.799999999999997,29.200000000000003,29.1,16
993,16750.0,0.30000000000000004,1.0,0.30000000000000004,1.0,3.8000000000000003,9.5,-17.799999999999997,29.200000000000003,29.1,16
994,16766.0,0.5,0.9,1.6,1.1,3.7,10.5,-10.8,34.300000000000004,29.1,16
995,16783.0,0.7000000000000001,0.7000000000000001,2.5,1.3,3.5,11.600000000000001,15.899999999999999,38.400000000000006,23.099999999999998,16
996,16800.0,0.8,0.7000000000000001,2.4000000000000004,1.3,3.5,11.600000000000001,15.899999999999999,38.400000000000006,23.099999999999998,16
997,16816.0,1.0,0.7000000000000001,2.1,1.4000000000000001,3.6,11.4,15.5,39.400000000000006,16.3,16
998,16836.0,0.7000000000000001,0.9,2.4000000000000004,0.7000000000000001,3.8000000000000003,12.200000000000001,-4.6,38.7,2.4000000000000004,16
999,16851.0,0.2,1.0,3.5,0.30000000000000004,4.0,12.9,-3.2,25.900000000000002,-1.0,16
1000,16875.0,0.2,1.3,3.8000000000000003,0.2,4.3,13.0,4.7,6.4,-3.4,16
1001,16883.0,0.1,1.5,3.4000000000000004,0.2,4.3,13.0,4.7,6.4,-3.4,16
1002,16900.0,0.1,1.9000000000000001,2.2,0.30000000000000004,4.9,11.200000000000001,8.4,-12.100000000000001,-4.300000000000001,16
1003,16919.0,0.1,2.0,1.6,0.30000000000000004,4.9,11.200000000000001,3.0,-10.5,0.8,16
1004,16933.0,0.1,1.3,2.0,0.30000000000000004,4.6000000000000005,11.3,-5.1000000000000005,-5.9,8.0,16
1005,16951.0,0.2,0.4,1.9000000000000001,0.4,3.9000000000000004,11.3,-4.1,-22.000000000000004,15.100000000000001,16
1006,16968.0,0.30000000000000004,0.0,1.8,0.6000000000000001,3.1,11.200000000000001,-4.1,-22.000000000000004,15.100000000000001,16
1007,16985.0,0.2,-1.0,1.1,0.6000000000000001,2.3000000000000003,10.700000000000001,1.5,-24.200000000000003,14.200000000000001,16
1008,17000.0,0.0,-1.6,1.1,0.5,1.7000000000000002,10.4,10.600000000000001,-10.8,8.2,16
1009,17017.0,-0.2,-1.9000000000000001,1.5,0.4,1.1,10.8,10.600000000000001,-10.8,8.2,16
1010,17033.0,-0.5,-2.2,1.2000000000000002,0.1,0.9,10.700000000000001,23.099999999999998,-14.800000000000002,3.3000000000000007,16
1011,17050.0,-0.6000000000000001,-2.0,0.1,0.0,1.2000000000000002,9.0,35.4,-24.0,-2.2,16
1012,17066.0,-0.6000000000000001,-1.9000000000000001,-0.5,0.0,1.2000000000000002,9.0,35.4,-24.0,-2.2,16
1013,17083.0,-0.6000000000000001,-1.9000000000000001,-1.1,0.0,1.4000000000000001,8.4,29.700000000000006,-20.1,-2.5,16
1014,17100.0,-0.6000000000000001,-1.8,-1.4000000000000001,0.1,1.6,7.9,9.0,-9.700000000000001,-2.4000000000000004,16
1015,17116.0,-0.7000000000000001,-1.7000000000000002,-1.4000000000000001,0.1,1.6,7.9,9.0,-9.700000000000001,-2.4000000000000004,16
1016,17133.0,-0.7000000000000001,-1.7000000000000002,-1.2000000000000002,0.1,1.6,8.0,-0.1,-1.7,-2.0,16
1017,17150.0,-0.7000000000000001,-1.7000000000000002,-1.2000000000000002,0.1,1.6,8.0,-14.5,-3.2,-5.9,16
1018,17171.0,-0.5,-1.4000000000000001,-1.3,0.30000000000000004,1.9000000000000001,8.0,-19.6,-5.500000000000001,-10.9,16
1019,17183.0,-0.4,-1.1,-1.3,0.30000000000000004,1.9000000000000001,8.0,-19.6,-5.500000000000001,-10.9,16
1020,17200.0,-0.5,-0.5,-1.5,0.2,2.9000000000000004,7.7,-17.5,-6.1000000000000005,-20.599999999999998,16
1021,17216.0,-0.5,-0.2,-1.6,0.2,2.9000000000000004,7.7,-17.5,-6.1000000000000005,-20.599999999999998,16
1022,17234.0,-0.7000000000000001,0.5,-1.6,0.1,3.4000000000000004,7.7,-13.8,0.4,-21.6,16
1023,17251.0,-0.8,1.0,-1.3,-0.2,4.3,8.1,-1.5,10.5,-14.700000000000001,16
1024,17270.0,-0.8,1.3,-1.0,-0.2,4.4,8.3,2.6,10.1,-8.8,16
1025,17283.0,-0.8,1.3,-0.8,-0.2,4.4,8.3,2.6,10.1,-8.8,16
1026,17300.0,-0.7000000000000001,1.2000000000000002,-0.4,-0.1,4.2,9.0,2.2,-0.5,0.5,16
1027,17317.0,-0.7000000000000001,1.0,-0.2,-0.1,4.1000000000000005,9.1,0.8,-8.3,3.3000000000000007,16
1028,17333.0,-0.7000000000000001,0.9,-0.1,-0.1,4.1000000000000005,9.1,0.8,-8.3,3.3000000000000007,16
1029,17350.0,-0.7000000000000001,0.9,0.0,-0.1,4.0,9.200000000000001,0.7,-14.300000000000002,5.8,16
1030,17371.0,-0.7000000000000001,0.7000000000000001,0.2,0.0,3.8000000000000003,9.3,6.699999999999999,-28.900000000000002,12.0,16
1031,17383.0,-0.7000000000000001,0.6000000000000001,0.1,0.0,3.8000000000000003,9.3,6.699999999999999,-28.900000000000002,12.0,16
1032,17400.0,-0.5,0.5,-0.30000000000000004,0.30000000000000004,3.7,9.1,10.9,-38.300000000000004,15.299999999999999,16
1033,17416.0,-0.4,0.4,-0.5,0.6000000000000001,3.6,8.6,11.700000000000001,-44.6,18.1,16
1034,17433.0,-0.2,0.30000000000000004,-0.9,0.9,3.5,8.3,7.500000000000001,-45.7,20.400000000000002,16
1035,17450.0,-0.30000000000000004,0.30000000000000004,-0.7000000000000001,1.0,3.5,8.3,0.7,-38.1,22.3,16
1036,17475.0,-0.30000000000000004,0.30000000000000004,0.0,1.0,3.2,9.3,-6.8,-16.5,26.1,16
1037,17483.0,-0.4,0.0,0.30000000000000004,1.0,3.2,9.3,-6.8,-16.5,26.1,16
1038,17500.0,-0.1,0.0,1.2000000000000002,1.3,3.1,10.100000000000001,-2.3,3.3000000000000007,28.700000000000003,16
1039,17519.0,-0.5,0.0,1.8,0.6000000000000001,3.3000000000000003,10.5,11.000000000000002,17.7,25.0,16
1040,17534.0,-0.8,0.2,1.2000000000000002,0.6000000000000001,3.3000000000000003,10.5,11.000000000000002,17.7,25.0,16
1041,17550.0,-1.1,0.4,1.5,0.30000000000000004,3.6,10.5,6.8,30.3,29.200000000000003,16
1042,17574.0,-1.5,-0.1,2.1,-0.4,2.9000000000000004,11.5,-1.9,34.300000000000004,38.60000000000001,16
1043,17583.0,-1.5,-0.2,2.3000000000000003,-0.4,2.9000000000000004,11.5,-1.9,34.300000000000004,38.60000000000001,16
1044,17600.0,-1.4000000000000001,-0.5,2.4000000000000004,-0.30000000000000004,2.7,11.600000000000001,-1.0,24.7,40.7,16
1045,17617.0,-1.4000000000000001,-0.9,1.7000000000000002,-0.30000000000000004,1.9000000000000001,10.5,-5.300000000000001,1.8000000000000003,40.800000000000004,16
1046,17633.0,-1.4000000000000001,-1.2000000000000002,1.2000000000000002,-0.30000000000000004,1.9000000000000001,10.5,-5.300000000000001,1.8000000000000003,40.800000000000004,16
1047,17650.0,-1.3,-1.9000000000000001,1.0,-0.1,1.3,10.3,-9.0,1.5,39.699999999999996,16
1048,17675.0,-1.5,-2.6,0.6000000000000001,-0.4,0.4,9.9,1.9,10.0,29.300000000000004,16
1049,17686.0,-1.5,-2.6,0.5,-0.5,0.4,9.700000000000001,9.3,17.0,23.6,16
1050,17702.0,-1.7000000000000002,-2.5,0.30000000000000004,-0.5,0.4,9.700000000000001,9.3,17.0,23.6,16
1051,17716.0,-1.9000000000000001,-2.0,-0.5,-0.6000000000000001,1.2000000000000002,8.6,10.299999999999999,20.900000000000002,22.3,16
1052,17734.0,-1.7000000000000002,-1.7000000000000002,-0.7000000000000001,-0.6000000000000001,1.2000000000000002,8.6,10.299999999999999,20.900000000000002,22.3,16
1053,17750.0,-1.8,-1.3,-1.0,-0.8,1.6,8.4,6.699999999999999,24.900000000000002,25.0,16
1054,17772.0,-1.4000000000000001,-0.9,-1.0,-0.30000000000000004,2.2,7.9,2.4000000000000004,11.4,34.60000000000001,16
1055,17786.0,-1.0,-0.6000000000000001,-1.8,0.1,2.4000000000000004,7.2,-0.9000000000000001,5.300000000000001,38.900000000000006,16
1056,17801.0,-0.7000000000000001,-0.5,-2.2,0.1,2.4000000000000004,7.2,-0.9000000000000001,5.300000000000001,38.900000000000006,16
1057,17816.0,-0.30000000000000004,-0.1,-2.7,0.6000000000000001,2.7,6.7,-6.600000000000001,5.4,42.7,16
1058,17834.0,-0.1,0.0,-2.7,0.8,2.9000000000000004,6.5,-13.100000000000001,11.900000000000002,47.5,16
1059,17854.0,0.2,0.30000000000000004,-2.0,1.1,3.0,7.4,-19.700000000000003,28.400000000000002,57.800000000000004,16
1060,17868.0,0.30000000000000004,0.30000000000000004,-1.6,1.1,3.0,7.4,-19.700000000000003,28.400000000000002,57.800000000000004,16
1061,17883.0,0.4,0.2,-1.3,1.3,2.9000000000000004,8.0,-18.8,28.800000000000004,60.900000000000006,16
1062,17900.0,0.8,0.2,-1.0,1.6,2.8000000000000003,8.200000000000001,-19.1,25.6,60.900000000000006,16
1063,17918.0,1.0,0.2,-0.6000000000000001,1.8,2.7,8.5,-21.400000000000002,21.300000000000004,58.400000000000006,16
1064,17933.0,1.1,0.30000000000000004,-0.4,1.9000000000000001,2.7,8.9,-23.6,14.200000000000001,53.400000000000006,16
1065,17950.0,1.2000000000000002,0.4,-0.1,2.0,2.8000000000000003,9.200000000000001,-24.8,8.700000000000001,48.6,16
1066,17975.0,1.2000000000000002,0.5,0.5,2.1,2.7,9.9,-18.0,2.9,39.50000000000001,16
1067,17984.0,1.2000000000000002,0.5,0.5,2.1,2.7,9.9,-18.0,2.9,39.50000000000001,16
1068,18000.0,1.2000000000000002,0.30000000000000004,0.9,2.1,2.6,10.200000000000001,-11.2,2.3,33.800000000000004,16
1069,18017.0,1.1,0.30000000000000004,0.9,2.1,2.5,10.3,-4.6,1.3,27.3,16
1070,18033.0,0.9,0.4,0.9,1.8,2.5,10.4,-5.1000000000000005,5.6,16.6,16
1071,18050.0,0.8,0.4,1.0,1.8,2.5,10.4,-5.1000000000000005,5.6,16.6,16
1072,18074.0,0.30000000000000004,0.2,2.2,1.3,2.3000000000000003,11.8,-13.5,9.0,11.900000000000002,16
1073,18083.0,0.30000000000000004,0.0,2.6,1.2000000000000002,2.0,12.3,-10.4,4.0,7.0,16
1074,18100.0,0.2,-0.1,2.8000000000000003,1.2000000000000002,2.0,12.3,-10.4,4.0,7.0,16
1075,18116.0,0.1,-0.1,2.8000000000000003,1.1,2.0,12.4,-7.500000000000001,-0.5,1.6,16
1076,18133.0,-0.30000000000000004,0.1,3.0,0.6000000000000001,2.1,13.0,-5.0,12.7,-0.6000000000000001,16
1077,18152.0,-0.5,0.0,3.7,0.30000000000000004,1.9000000000000001,13.200000000000001,1.8000000000000003,8.5,-1.1,16
1078,18178.0,-0.7000000000000001,-0.2,3.4000000000000004,0.1,1.9000000000000001,12.9,9.100000000000001,1.3,-1.1,16
1079,18185.0,-0.8,-0.2,3.1,0.0,1.6,12.600000000000001,17.5,-2.4000000000000004,0.5,16
1080,18200.0,-0.9,-0.5,2.9000000000000004,0.0,1.6,12.600000000000001,17.5,-2.4000000000000004,0.5,16
1081,18216.0,-0.8,-1.0,1.8,0.0,1.2000000000000002,11.600000000000001,28.1,-10.700000000000001,0.0,16
1082,18233.0,-0.7000000000000001,-1.2000000000000002,0.4,0.2,1.0,10.4,33.0,-17.200000000000003,-1.6,16
1083,18250.0,-0.7000000000000001,-1.2000000000000002,-0.2,0.30000000000000004,1.1,9.3,32.2,-19.300000000000004,-2.3,16
1084,18271.0,-0.8,-1.5,-1.0,0.1,0.9,8.6,21.200000000000003,-8.4,1.1,16
1085,18285.0,-1.1,-1.5,-0.8,0.1,0.9,8.6,21.200000000000003,-8.4,1.1,16
1086,18306.0,-0.8,-1.8,-0.8,0.5,0.6000000000000001,8.5,16.5,-16.0,9.2,16
1087,18318.0,-0.5,-1.9000000000000001,-1.1,0.5,0.6000000000000001,8.5,16.5,-16.0,9.2,16
1088,18333.0,-0.8,-1.8,-1.5,0.4,0.7000000000000001,8.0,13.900000000000002,-10.0,9.0,16
1089,18350.0,-0.8,-1.7000000000000002,-1.4000000000000001,0.4,0.9,8.0,8.2,-5.500000000000001,11.000000000000002,16
1090,18367.0,-0.8,-1.4000000000000001,-1.2000000000000002,0.4,1.1,8.200000000000001,3.6000000000000005,-2.6,13.399999999999999,16
1091,18383.0,-0.7000000000000001,-1.2000000000000002,-1.1,0.4,1.2000000000000002,8.3,-1.5,-6.300000000000001,15.5,16
1092,18404.0,-0.5,-1.1,-1.3,0.9,1.5,8.0,-13.100000000000001,-17.400000000000002,15.100000000000001,16
1093,18416.0,-0.4,-1.0,-1.4000000000000001,0.9,1.5,8.0,-13.100000000000001,-17.400000000000002,15.100000000000001,16
1094,18433.0,-0.2,-0.6000000000000001,-1.6,1.1,1.6,7.800000000000001,-17.1,-17.9,12.5,16
1095,18451.0,-0.2,-0.30000000000000004,-1.7000000000000002,1.3,2.1,7.800000000000001,-20.599999999999998,-4.7,8.8,16
1096,18473.0,-0.1,-0.1,-1.3,1.3,2.2,8.3,-18.200000000000003,6.600000000000001,8.5,16
1097,18484.0,-0.1,0.0,-0.9,1.3,2.2,8.3,-18.200000000000003,6.600000000000001,8.5,16
1098,18505.0,-0.1,0.1,-0.5,1.2000000000000002,2.3000000000000003,8.9,-7.6,16.8,5.9,16
1099,18517.0,-0.1,0.1,-0.5,1.2000000000000002,2.3000000000000003,8.9,-7.6,16.8,5.9,16
1100,18533.0,-0.2,0.4,-0.4,1.1,2.5,9.0,-7.6,17.300000000000004,4.4,16
1101,18550.0,-0.30000000000000004,0.7000000000000001,-0.30000000000000004,1.0,2.9000000000000004,9.200000000000001,-11.900000000000002,8.4,5.9,16
1102,18572.0,-0.2,1.0,-0.30000000000000004,1.1,3.0,9.1,-13.200000000000003,2.3,8.2,16
1103,18583.0,-0.1,1.0,-0.4,1.1,3.0,9.1,-13.200000000000003,2.3,8.2,16
1104,18600.0,0.1,1.0,-0.4,1.5,2.9000000000000004,9.0,-13.399999999999999,2.6,13.6,16
1105,18617.0,0.2,1.0,-0.4,1.5,2.9000000000000004,9.0,-13.399999999999999,2.6,13.6,16
1106,18633.0,0.5,0.8,-0.4,1.6,2.8000000000000003,9.1,-13.100000000000001,7.699999999999999,14.600000000000001,16
1107,18651.0,0.5,0.8,-0.1,1.5,2.6,9.5,-13.5,22.000000000000004,16.4,16
1108,18674.0,0.4,0.8,0.1,1.5,2.6,9.5,-13.5,22.000000000000004,16.4,16
1109,18685.0,0.2,0.6000000000000001,0.6000000000000001,1.3,2.5,10.0,-14.900000000000002,29.800000000000004,19.5,16
1110,18702.0,0.1,0.2,1.5,1.0,1.7000000000000002,11.3,-13.700000000000001,32.400000000000006,24.200000000000003,16
1111,18717.0,0.0,0.0,1.7000000000000002,1.0,1.7000000000000002,11.3,-13.700000000000001,32.400000000000006,24.200000000000003,16
1112,18733.0,0.1,-0.2,1.8,1.0,1.5,11.4,-12.9,25.200000000000003,22.2,16
1113,18750.0,0.1,0.0,1.5,0.9,1.6,11.200000000000001,-16.4,18.700000000000003,20.0,16
1114,18773.0,-0.1,0.2,1.1,0.6000000000000001,1.6,10.8,-36.5,13.5,23.2,16
1115,18783.0,-0.2,0.1,1.1,0.6000000000000001,1.6,10.8,-36.5,13.5,23.2,16
1116,18800.0,-0.30000000000000004,-0.30000000000000004,1.4000000000000001,0.5,1.2000000000000002,11.0,-44.00000000000001,13.399999999999999,25.4,16
1117,18817.0,-0.30000000000000004,-0.5,1.6,0.4,0.7000000000000001,11.3,-44.5,11.3,25.300000000000004,16
1118,18833.0,-0.1,-0.9,1.9000000000000001,0.6000000000000001,0.2,11.600000000000001,-35.9,6.300000000000001,21.200000000000003,16
1119,18851.0,-0.1,-1.3,1.7000000000000002,0.6000000000000001,-0.2,11.5,-21.300000000000004,2.7,14.600000000000001,16
1120,18866.0,-0.2,-1.5,1.5,0.5,-0.5,11.200000000000001,-3.9,2.5,7.500000000000001,16
1121,18883.0,-0.6000000000000001,-1.6,0.7000000000000001,0.1,-0.6000000000000001,10.600000000000001,12.600000000000001,6.500000000000001,1.3,16
1122,18903.0,-1.2000000000000002,-1.5,0.2,-0.4,-0.5,10.0,20.400000000000002,15.399999999999999,-0.6000000000000001,16
1123,18916.0,-1.5,-1.5,0.30000000000000004,-1.0,-0.4,10.100000000000001,23.5,23.6,0.7,16
1124,18933.0,-2.0,-1.4000000000000001,0.4,-1.5,-0.30000000000000004,10.100000000000001,25.200000000000003,21.8,3.4,16
1125,18949.0,-2.1,-1.3,0.0,-1.7000000000000002,-0.2,9.9,25.300000000000004,17.7,7.300000000000001,16
1126,18972.0,-2.0,-1.2000000000000002,-0.4,-1.7000000000000002,0.2,9.200000000000001,15.000000000000002,9.100000000000001,12.8,16
1127,18985.0,-1.9000000000000001,-1.1,-0.6000000000000001,-1.7000000000000002,0.2,9.200000000000001,15.000000000000002,9.100000000000001,12.8,16
1128,19002.0,-1.7000000000000002,-0.8,-1.1,-1.5,0.4,8.700000000000001,4.7,0.8,14.100000000000001,16
1129,19017.0,-1.5,-0.5,-1.3,-1.1,0.8,8.5,-14.400000000000002,0.5,16.5,16
1130,19035.0,-1.3,-0.30000000000000004,-1.0,-0.9,1.0,8.700000000000001,-15.100000000000001,-0.5,17.9,16
1131,19049.0,-1.1,-0.2,-1.1,-0.9,1.0,8.700000000000001,-15.100000000000001,-0.5,17.9,16
1132,19073.0,-0.7000000000000001,0.1,-1.6,-0.2,1.4000000000000001,7.9,-10.700000000000001,-3.8,18.3,16
1133,19083.0,-0.5,0.2,-1.9000000000000001,-0.2,1.4000000000000001,7.9,-10.700000000000001,-3.8,18.3,16
1134,19100.0,-0.30000000000000004,0.6000000000000001,-2.1,0.0,1.7000000000000002,7.7,-11.000000000000002,3.4,18.8,16
1135,19116.0,-0.2,1.0,-1.9000000000000001,0.1,2.2,8.0,-11.4,14.300000000000002,23.400000000000002,16
1136,19133.0,-0.2,1.1,-1.7000000000000002,0.1,2.2,8.0,-11.4,14.300000000000002,23.400000000000002,16
1137,19150.0,-0.1,1.2000000000000002,-1.4000000000000001,0.1,2.3000000000000003,8.200000000000001,-10.700000000000001,17.0,27.099999999999998,16
1138,19167.0,-0.1,1.2000000000000002,-1.2000000000000002,0.1,2.2,8.6,-10.600000000000001,17.9,30.200000000000003,16
1139,19184.0,0.0,1.2000000000000002,-0.8,0.1,2.2,8.9,-10.0,4.4,31.5,16
1140,19200.0,0.0,1.2000000000000002,-0.6000000000000001,0.2,2.2,9.0,-10.0,4.4,31.5,16
1141,19216.0,0.0,1.4000000000000001,-0.6000000000000001,0.1,2.3000000000000003,9.1,-7.9,-4.0,31.2,16
1142,19234.0,0.0,1.5,-0.5,0.30000000000000004,2.4000000000000004,9.200000000000001,-2.1,-5.7,33.800000000000004,16
1143,19250.0,0.1,1.4000000000000001,-0.4,0.30000000000000004,2.4000000000000004,9.200000000000001,-2.1,-5.7,33.800000000000004,16
1144,19269.0,0.2,1.3,-0.4,0.4,2.3000000000000003,9.3,3.0,-10.5,33.0,16
1145,19288.0,0.4,1.3,-0.4,0.7000000000000001,2.3000000000000003,9.1,7.1000000000000005,-16.1,28.600000000000005,16
1146,19301.0,0.4,1.3,-0.6000000000000001,0.7000000000000001,2.3000000000000003,9.1,7.1000000000000005,-16.1,28.600000000000005,16
1147,19317.0,0.5,1.2000000000000002,-0.1,0.9,2.2,9.4,5.500000000000001,-15.000000000000002,26.300000000000004,16
1148,19333.0,0.6000000000000001,1.0,0.2,1.2000000000000002,1.9000000000000001,10.100000000000001,6.0,-15.700000000000001,23.0,16
1149,19350.0,0.7000000000000001,0.8,0.5,1.2000000000000002,1.9000000000000001,10.100000000000001,7.699999999999999,-12.299999999999999,19.300000000000004,16
1150,19369.0,0.8,0.6000000000000001,0.9,1.3,1.8,10.5,12.600000000000001,-9.600000000000001,13.6,16
1151,19383.0,0.8,0.6000000000000001,1.0,1.4000000000000001,1.7000000000000002,10.700000000000001,15.5,-8.600000000000001,6.300000000000001,16
1152,19400.0,0.8,0.7000000000000001,1.2000000000000002,1.4000000000000001,1.9000000000000001,10.8,14.900000000000002,-3.1,-0.6000000000000001,16
1153,19417.0,0.6000000000000001,0.8,1.4000000000000001,1.0,2.0,11.3,10.200000000000001,14.700000000000001,-4.2,16
1154,19433.0,-0.2,0.7000000000000001,4.0,0.5,2.0,12.8,16.900000000000002,50.1,-0.2,16
1155,19451.0,-0.5,0.5,4.7,-0.1,1.9000000000000001,14.3,16.900000000000002,50.1,-0.2,16
1156,19475.0,-1.2000000000000002,-0.4,5.2,-1.2000000000000002,1.0,14.9,31.9,49.1,6.0,16
1157,19483.0,-1.3,-0.8,5.1000000000000005,-1.3,0.4,14.8,40.4,37.50000000000001,8.2,16
1158,19500.0,-1.1,-1.2000000000000002,5.0,-1.3,0.4,14.8,40.4,37.50000000000001,8.2,16
1159,19516.0,-0.7000000000000001,-1.5,3.5,-0.9,0.30000000000000004,13.8,55.3,10.0,5.4,16
1160,19533.0,-0.4,-1.0,0.5,-0.30000000000000004,1.2000000000000002,9.1,54.1,-30.4,3.4,16
1161,19550.0,-0.30000000000000004,-0.8,-0.7000000000000001,-0.30000000000000004,1.2000000000000002,9.1,54.1,-30.4,3.4,16
1162,19568.0,-0.30000000000000004,-0.6000000000000001,-1.5,-0.2,1.5,8.3,40.800000000000004,-17.6,11.8,16
1163,19586.0,-0.1,-1.0,-1.2000000000000002,0.1,1.1,8.700000000000001,28.3,16.4,30.000000000000004,16
1164,19600.0,0.1,-1.5,-0.5,0.1,1.1,8.700000000000001,28.3,16.4,30.000000000000004,16
1165,19617.0,0.1,-1.8,-0.2,0.1,0.7000000000000001,9.3,28.800000000000004,26.000000000000004,35.4,16
1166,19633.0,0.4,-2.1,-0.2,0.6000000000000001,0.30000000000000004,9.200000000000001,20.8,10.200000000000001,36.2,16
1167,19650.0,0.8,-2.1,-0.6000000000000001,0.8,0.5,8.8,10.200000000000001,-0.7,31.400000000000002,16
1168,19670.0,0.9,-2.0,-0.8,0.8,0.5,8.8,10.200000000000001,-0.7,31.400000000000002,16
1169,19683.0,1.0,-1.3,-1.0,1.0,0.9,8.6,-0.4,-9.2,26.000000000000004,16
1170,19699.0,1.0,-0.9,-1.0,1.2000000000000002,2.0,8.5,-6.1000000000000005,-13.200000000000003,21.6,16
1171,19716.0,1.0,-0.4,-1.1,1.2000000000000002,2.0,8.5,-6.9,-13.000000000000002,19.1,16
1172,19733.0,1.1,-0.2,-1.1,1.3,2.2,8.5,-4.1,-14.800000000000002,16.4,16
1173,19749.0,1.1,-0.1,-1.3,1.4000000000000001,2.4000000000000004,8.200000000000001,1.6,-19.0,10.9,16
1174,19767.0,1.0,0.2,-1.8,1.4000000000000001,2.6,7.800000000000001,6.1000000000000005,-19.700000000000003,4.7,16
1175,19783.0,0.7000000000000001,0.5,-1.9000000000000001,1.2000000000000002,2.9000000000000004,7.6000000000000005,9.700000000000001,-12.7,0.5,16
1176,19800.0,0.2,0.5,-1.6,0.5,3.1,8.0,19.200000000000003,6.1000000000000005,0.7,16
1177,19817.0,0.0,0.5,-1.4000000000000001,0.5,3.1,8.0,19.200000000000003,6.1000000000000005,0.7,16
1178,19833.0,-0.30000000000000004,0.4,-1.1,0.1,3.1,8.3,23.800000000000004,11.700000000000001,4.300000000000001,16
1179,19855.0,-0.4,0.0,-0.5,-0.1,2.6,9.0,23.3,9.0,12.4,16
1180,19867.0,-0.4,-0.2,-0.4,-0.1,2.6,9.0,23.3,9.0,12.4,16
1181,19888.0,-0.2,-0.5,-0.5,0.0,2.4000000000000004,9.0,20.2,2.3,13.900000000000002,16
1182,19900.0,-0.2,-0.6000000000000001,-0.4,0.0,2.4000000000000004,9.1,10.600000000000001,4.2,16.6,16
1183,19916.0,-0.30000000000000004,-0.5,-0.30000000000000004,0.0,2.4000000000000004,9.1,10.600000000000001,4.2,16.6,16
1184,19933.0,-0.4,-0.30000000000000004,0.4,0.0,2.5,9.600000000000001,6.600000000000001,8.4,20.400000000000002,16
1185,19950.0,-0.4,-0.2,0.8,-0.1,2.8000000000000003,10.0,3.6000000000000005,3.1,27.800000000000004,16
1186,19969.0,-0.4,-0.1,0.6000000000000001,-0.1,2.8000000000000003,10.0,3.6000000000000005,3.1,27.800000000000004,16
1187,19983.0,-0.4,0.0,0.4,0.0,2.9000000000000004,9.700000000000001,-3.9,3.3000000000000007,32.1,16
1188,20002.0,-0.5,0.4,0.4,-0.2,3.2,9.9,-34.7,10.4,46.6,16
1189,20016.0,-0.6000000000000001,0.4,0.6000000000000001,-0.2,3.2,9.9,-34.7,10.4,46.6,16
1190,20033.0,-0.7000000000000001,-0.30000000000000004,1.3,-0.4,2.5,10.600000000000001,-52.1,13.399999999999999,56.6,16
1191,20049.0,-0.4,-1.4000000000000001,2.7,0.30000000000000004,0.4,12.5,-54.0,0.6000000000000001,54.6,16
1192,20070.0,0.0,-2.3000000000000003,3.0,0.5,-0.2,12.3,-36.5,-16.3,38.0,16
1193,20084.0,0.1,-2.4000000000000004,2.5,0.5,-0.2,12.3,-36.5,-16.3,38.0,16
1194,20100.0,-0.1,-2.2,1.5,0.5,-0.2,11.5,-19.5,-18.1,20.599999999999998,16
1195,20117.0,-1.3,-1.7000000000000002,0.7000000000000001,-0.7000000000000001,0.5,10.200000000000001,6.300000000000001,8.2,1.3,16
1196,20133.0,-1.1,-1.4000000000000001,0.5,-0.7000000000000001,0.5,10.200000000000001,6.300000000000001,8.2,1.3,16
1197,20152.0,-1.9000000000000001,-0.9,0.2,-1.1,1.0,10.0,17.799999999999997,27.5,-2.1,16
1198,20171.0,-1.9000000000000001,-0.9,0.2,-1.1,1.0,10.0,17.799999999999997,27.5,-2.1,16
1199,20190.0,-2.2,0.4,-1.1,-2.1,2.7,8.5,26.000000000000004,39.0,18.200000000000003,16
1200,20200.0,-2.2,0.5,-1.0,-2.1,2.7,8.5,26.000000000000004,39.0,18.200000000000003,16
1201,20216.0,-1.8,0.2,-1.2000000000000002,-1.6,2.4000000000000004,8.200000000000001,19.5,23.700000000000003,41.6,16
1202,20233.0,-1.5,0.0,-1.4000000000000001,-1.6,2.4000000000000004,8.200000000000001,19.5,23.700000000000003,41.6,16
1203,20249.0,-1.0,-0.30000000000000004,-2.4000000000000004,-1.2000000000000002,2.2,7.4,12.5,6.300000000000001,47.80000000000001,16
1204,20266.0,-0.8,-0.30000000000000004,-2.6,-0.5,2.3000000000000003,6.7,-8.100000000000001,-10.5,53.8,16
1205,20283.0,-0.5,-0.1,-2.8000000000000003,-0.5,2.3000000000000003,6.7,-8.100000000000001,-10.5,53.8,16
1206,20299.0,-0.4,0.2,-2.6,-0.30000000000000004,2.5,6.800000000000001,-10.8,-12.9,56.300000000000004,16
1207,20316.0,0.0,0.5,-2.7,0.4,3.0,6.6000000000000005,-7.9,-4.0,62.4,16
1208,20333.0,0.2,0.6000000000000001,-2.8000000000000003,0.4,3.0,6.6000000000000005,-7.9,-4.0,62.4,16
1209,20349.0,0.4,0.9,-2.9000000000000004,0.7000000000000001,3.2,6.5,-15.8,6.500000000000001,66.1,16
1210,20368.0,0.4,0.8,-1.2000000000000002,0.8,2.9000000000000004,8.9,-34.7,25.200000000000003,73.2,16
1211,20383.0,0.5,0.7000000000000001,-0.4,0.8,2.9000000000000004,8.9,-34.7,25.200000000000003,73.2,16
1212,20400.0,0.8,0.30000000000000004,1.1,1.0,2.4000000000000004,10.200000000000001,-32.6,23.6,72.0,16
1213,20416.0,1.2000000000000002,-0.2,2.2,1.7000000000000002,1.7000000000000002,12.0,-10.700000000000001,7.0,51.6,16
1214,20433.0,1.4000000000000001,-0.30000000000000004,2.5,1.7000000000000002,1.7000000000000002,12.0,-10.700000000000001,7.0,51.6,16
1215,20449.0,1.3,0.0,2.4000000000000004,1.7000000000000002,1.8,12.0,2.8,-7.400000000000001,35.2,16
1216,20467.0,1.1,0.6000000000000001,1.6,1.4000000000000001,2.9000000000000004,10.9,19.0,-18.6,13.8,16
1217,20490.0,0.8,1.1,1.0,1.1,3.3000000000000003,10.3,20.900000000000002,-15.299999999999999,10.1,16
1218,20501.0,0.5,1.3,0.7000000000000001,1.1,3.3000000000000003,10.3,20.900000000000002,-15.299999999999999,10.1,16
1219,20518.0,0.1,1.6,0.5,0.6000000000000001,3.7,10.4,12.0,3.8,16.6,16
1220,20533.0,0.0,1.4000000000000001,1.2000000000000002,0.6000000000000001,3.7,10.4,12.0,3.8,16.6,16
1221,20550.0,0.0,1.3,1.1,0.6000000000000001,3.5,10.700000000000001,8.8,4.5,19.5,16
1222,20569.0,0.0,1.3,1.1,0.6000000000000001,3.5,10.600000000000001,0.7,4.7,21.6,16
1223,20584.0,-0.1,1.2000000000000002,1.5,0.5,3.4000000000000004,11.0,-10.600000000000001,16.900000000000002,26.300000000000004,16
1224,20600.0,-0.4,0.7000000000000001,2.6,0.2,3.0,12.100000000000001,-14.0,24.1,31.3,16
1225,20616.0,-0.5,-0.2,3.6,0.0,2.3000000000000003,13.0,-13.000000000000002,21.1,35.5,16
1226,20633.0,-0.8,-1.3,3.5,-0.2,1.3,13.200000000000001,-4.6,13.5,36.1,16
1227,20650.0,-0.7000000000000001,-1.8,2.9000000000000004,-0.30000000000000004,0.5,12.700000000000001,7.1000000000000005,5.1000000000000005,34.1,16
1228,20666.0,-0.6000000000000001,-2.4000000000000004,1.9000000000000001,-0.2,-0.1,11.9,14.800000000000002,-1.1,28.700000000000003,16
1229,20684.0,-0.6000000000000001,-2.4000000000000004,0.5,-0.1,0.0,9.8,18.1,-14.100000000000001,12.8,16
1230,20700.0,-0.7000000000000001,-2.2,0.0,-0.1,0.0,9.8,18.1,-14.100000000000001,12.8,16
1231,20716.0,-1.0,-1.9000000000000001,-0.6000000000000001,-0.4,0.30000000000000004,9.1,14.900000000000002,-8.600000000000001,9.5,16
1232,20733.0,-1.2000000000000002,-1.6,-0.9,-0.6000000000000001,0.8,8.700000000000001,12.4,7.0,11.900000000000002,16
1233,20750.0,-1.2000000000000002,-1.4000000000000001,-1.0,-0.6000000000000001,0.8,8.700000000000001,12.4,7.0,11.900000000000002,16
1234,20773.0,-1.1,-1.5,-0.7000000000000001,-0.6000000000000001,0.8,8.9,9.8,16.0,14.900000000000002,16
1235,20783.0,-0.9,-1.4000000000000001,-0.5,-0.6000000000000001,0.8,8.9,6.300000000000001,20.5,16.6,16
1236,20799.0,-0.7000000000000001,-1.4000000000000001,-0.2,-0.30000000000000004,0.9,9.3,3.0,14.300000000000002,15.299999999999999,16
1237,20816.0,-0.4,-1.1,-0.6000000000000001,-0.1,1.1,9.200000000000001,4.5,-1.6,11.3,16
1238,20834.0,-0.2,-0.5,-1.7000000000000002,0.4,2.0,7.5,2.7,-19.200000000000003,4.2,16
1239,20852.0,-0.1,0.0,-2.3000000000000003,0.4,2.5,7.2,-0.4,-13.6,4.2,16
1240,20868.0,-0.2,0.30000000000000004,-2.4000000000000004,0.4,2.5,7.2,-0.4,-13.6,4.2,16
1241,20883.0,-0.2,0.7000000000000001,-2.4000000000000004,0.30000000000000004,3.0,7.300000000000001,-3.0,-6.2,7.8,16
1242,20899.0,-0.30000000000000004,0.7000000000000001,-2.2,0.30000000000000004,3.0,7.300000000000001,-5.4,2.6,13.700000000000001,16
1243,20916.0,-0.1,0.4,-1.7000000000000002,0.4,2.8000000000000003,7.800000000000001,-5.6,7.8,19.200000000000003,16
1244,20934.0,0.1,0.2,-1.3,0.6000000000000001,2.4000000000000004,8.5,-4.2,12.9,21.1,16
1245,20949.0,0.1,0.1,-1.0,0.6000000000000001,2.4000000000000004,8.5,-4.2,12.9,21.1,16
1246,20968.0,0.0,0.1,-0.4,0.5,2.3000000000000003,9.0,-1.7,14.400000000000002,20.900000000000002,16
1247,20983.0,0.1,0.0,0.0,0.7000000000000001,2.3000000000000003,9.5,7.1000000000000005,1.7,19.1,16
1248,21001.0,0.2,0.0,0.0,0.7000000000000001,2.3000000000000003,9.5,7.1000000000000005,1.7,19.1,16
1249,21016.0,0.5,0.1,-0.2,1.0,2.4000000000000004,9.3,10.1,-4.7,17.200000000000003,16
1250,21033.0,0.6000000000000001,0.2,-0.5,1.2000000000000002,2.5,9.1,12.4,-9.2,15.000000000000002,16
1251,21049.0,0.7000000000000001,0.30000000000000004,-0.5,1.5,2.8000000000000003,8.9,13.700000000000001,-11.3,13.399999999999999,16
1252,21066.0,0.9,0.4,-0.6000000000000001,1.5,2.8000000000000003,8.9,15.5,-6.8,12.100000000000001,16
1253,21083.0,0.7000000000000001,0.4,-0.30000000000000004,1.4000000000000001,2.8000000000000003,9.0,16.3,3.2,11.5,16
1254,21100.0,0.30000000000000004,0.30000000000000004,0.4,0.8,2.8000000000000003,10.3,16.6,24.8,13.100000000000001,16
1255,21117.0,0.1,0.2,1.1,0.8,2.8000000000000003,10.3,16.6,24.8,13.100000000000001,16
1256,21133.0,-0.1,0.0,1.8,0.5,2.6,11.0,19.200000000000003,26.799999999999997,14.700000000000001,16
1257,21153.0,-0.30000000000000004,0.0,1.4000000000000001,0.1,2.7,10.700000000000001,15.399999999999999,12.8,15.899999999999999,16
1258,21170.0,-0.4,0.1,1.3,0.0,2.9000000000000004,10.600000000000001,4.300000000000001,14.100000000000001,18.8,16
1259,21183.0,-0.5,0.2,1.1,0.0,2.9000000000000004,10.600000000000001,4.300000000000001,14.100000000000001,18.8,16
1260,21200.0,-0.7000000000000001,0.2,1.4000000000000001,-0.30000000000000004,2.9000000000000004,10.9,-9.100000000000001,15.100000000000001,23.3,16
1261,21216.0,-0.9,0.2,1.4000000000000001,-0.5,2.8000000000000003,10.8,-21.7,14.700000000000001,29.300000000000004,16
1262,21235.0,-1.1,-0.5,2.2,-0.7000000000000001,2.2,11.5,-32.1,22.3,37.400000000000006,16
1263,21250.0,-1.0,-1.6,3.4000000000000004,-0.6000000000000001,0.2,13.200000000000001,-21.0,14.200000000000001,39.699999999999996,16
1264,21266.0,-0.8,-2.2,3.6,-0.6000000000000001,0.2,13.200000000000001,-21.0,14.200000000000001,39.699999999999996,16
1265,21283.0,-0.5,-2.8000000000000003,2.6,-0.30000000000000004,-0.4,12.600000000000001,-2.9,-10.8,27.2,16
1266,21301.0,-0.7000000000000001,-2.3000000000000003,0.6000000000000001,-0.5,0.30000000000000004,9.5,16.6,-31.0,0.8,16
1267,21316.0,-1.0,-2.0,-0.30000000000000004,-0.5,0.30000000000000004,9.5,16.6,-31.0,0.8,16
1268,21333.0,-1.7000000000000002,-1.3,-0.9,-1.1,0.9,8.700000000000001,18.0,-12.7,-1.3,16
1269,21349.0,-2.1,-0.8,-1.0,-1.7000000000000002,1.8,8.5,22.000000000000004,9.700000000000001,9.600000000000001,16
1270,21373.0,-2.0,-0.6000000000000001,-1.3,-1.5,2.0,8.1,21.900000000000002,11.4,16.900000000000002,16
1271,21383.0,-1.9000000000000001,-0.5,-1.5,-1.5,2.0,8.1,21.900000000000002,11.4,16.900000000000002,16
1272,21399.0,-1.6,-0.4,-1.9000000000000001,-1.2000000000000002,2.2,7.7,3.8,16.6,32.0,16
1273,21416.0,-1.5,-0.4,-1.8,-1.2000000000000002,2.2,7.7,3.8,16.6,32.0,16
1274,21433.0,-1.3,-0.6000000000000001,-1.1,-1.0,2.0,8.200000000000001,-5.0,12.0,37.400000000000006,16
1275,21450.0,-0.9,-0.5,-1.1,-0.30000000000000004,2.1,8.200000000000001,-5.4,-4.0,41.900000000000006,16
1276,21466.0,-0.7000000000000001,-0.4,-1.3,-0.30000000000000004,2.1,8.200000000000001,-5.4,-4.0,41.900000000000006,16
1277,21483.0,-0.4,-0.2,-1.9000000000000001,-0.1,2.3000000000000003,7.7,-5.8,-10.9,42.3,16
1278,21500.0,-0.2,0.2,-2.4000000000000004,0.2,2.6,7.2,-8.4,-13.200000000000003,43.00000000000001,16
1279,21516.0,-0.1,0.4,-2.4000000000000004,0.5,2.8000000000000003,7.1000000000000005,-11.6,-9.100000000000001,43.900000000000006,16
1280,21533.0,0.0,0.6000000000000001,-2.1,0.5,3.0,7.300000000000001,-13.200000000000003,-1.4,45.6,16
1281,21550.0,0.0,0.8,-1.8,0.6000000000000001,3.1,7.6000000000000005,-13.000000000000002,7.400000000000001,47.7,16
1282,21569.0,0.1,0.8,-1.0,0.7000000000000001,3.1,8.6,-12.4,15.100000000000001,49.4,16
1283,21584.0,0.1,0.8,-0.7000000000000001,0.7000000000000001,3.1,8.6,-12.4,15.100000000000001,49.4,16
1284,21601.0,0.2,1.0,-0.5,0.8,3.2,9.0,-9.8,16.5,48.10000000000001,16
1285,21618.0,0.30000000000000004,1.0,0.4,0.9,3.2,10.0,-8.3,15.899999999999999,43.300000000000004,16
1286,21633.0,0.30000000000000004,1.0,0.5,0.9,3.2,10.0,-8.3,15.899999999999999,43.300000000000004,16
1287,21651.0,0.5,1.1,1.2000000000000002,1.0,3.2,10.4,-6.4,12.5,39.9,16
1288,21666.0,0.6000000000000001,1.1,1.3,1.1,3.3000000000000003,11.0,4.0,7.300000000000001,31.5,16
1289,21683.0,0.6000000000000001,1.1,1.5,1.1,3.3000000000000003,11.0,4.0,7.300000000000001,31.5,16
1290,21700.0,0.7000000000000001,1.1,1.6,1.3,3.4000000000000004,10.8,7.699999999999999,9.2,28.0,16
1291,21716.0,0.7000000000000001,1.1,1.3,1.2000000000000002,3.3000000000000003,11.100000000000001,11.1,16.4,22.6,16
1292,21733.0,0.7000000000000001,1.0,1.6,1.2000000000000002,3.3000000000000003,11.100000000000001,11.1,16.4,22.6,16
1293,21750.0,0.6000000000000001,0.8,2.1,1.1,3.1,11.5,14.400000000000002,19.5,20.8,16
1294,21767.0,0.7000000000000001,0.6000000000000001,2.4000000000000004,1.0,3.1,11.600000000000001,17.7,9.4,13.399999999999999,16
1295,21783.0,0.6000000000000001,0.7000000000000001,2.0,1.0,3.1,11.600000000000001,17.7,9.4,13.399999999999999,16
1296,21801.0,0.4,0.9,2.3000000000000003,0.8,3.4000000000000004,11.600000000000001,12.4,15.299999999999999,12.5,16
1297,21816.0,-0.2,0.8,3.0,0.1,3.3000000000000003,12.600000000000001,18.4,17.300000000000004,16.4,16
1298,21843.0,-0.30000000000000004,0.4,3.3000000000000003,0.0,2.9000000000000004,12.5,29.0,5.9,17.799999999999997,16
1299,21854.0,-0.30000000000000004,-0.1,2.4000000000000004,0.0,2.5,11.9,36.400000000000006,-6.500000000000001,18.6,16
1300,21867.0,-0.30000000000000004,-0.5,2.1,0.0,2.0,10.8,44.300000000000004,-20.3,17.7,16
1301,21883.0,-0.30000000000000004,-0.8,1.2000000000000002,0.0,2.0,10.8,44.300000000000004,-20.3,17.7,16
1302,21900.0,-0.30000000000000004,-1.2000000000000002,-0.2,0.2,1.8,9.5,41.7,-21.0,17.6,16
1303,21916.0,-0.30000000000000004,-1.6,-0.9,0.30000000000000004,1.4000000000000001,8.200000000000001,24.599999999999998,-18.1,17.9,16
1304,21933.0,-0.30000000000000004,-1.7000000000000002,-1.2000000000000002,0.2,1.2000000000000002,8.200000000000001,24.599999999999998,-18.1,17.9,16
1305,21949.0,-0.4,-1.9000000000000001,-1.2000000000000002,0.2,1.2000000000000002,8.200000000000001,17.6,-9.899999999999999,18.8,16
1306,21967.0,-0.5,-2.2,-0.9,0.2,1.0,8.4,14.800000000000002,1.6,19.400000000000002,16
1307,21983.0,-0.6000000000000001,-2.2,-0.8,0.1,0.9,8.5,15.299999999999999,10.600000000000001,18.700000000000003,16
1308,22000.0,-0.7000000000000001,-2.1,-0.9,-0.1,1.0,8.5,14.100000000000001,17.400000000000002,18.0,16
1309,22016.0,-1.0,-1.9000000000000001,-1.0,-0.30000000000000004,1.3,8.4,9.2,24.900000000000002,18.700000000000003,16
1310,22033.0,-1.1,-1.8,-0.9,-0.6000000000000001,1.4000000000000001,8.4,-0.8,30.9,21.8,16
1311,22049.0,-1.2000000000000002,-1.7000000000000002,-0.5,-0.8,1.4000000000000001,8.8,-11.5,32.8,26.400000000000006,16
1312,22069.0,-0.8,-1.8,-0.1,-0.6000000000000001,1.3,9.1,-17.7,29.0,29.0,16
1313,22083.0,-0.4,-1.7000000000000002,-0.30000000000000004,0.1,1.4000000000000001,8.8,-20.2,-5.1000000000000005,20.8,16
1314,22100.0,-0.2,-1.6,-0.7000000000000001,0.1,1.4000000000000001,8.8,-20.2,-5.1000000000000005,20.8,16
1315,22116.0,0.1,-0.9,-1.4000000000000001,0.4,1.8,8.1,-20.0,-18.900000000000002,13.100000000000001,16
1316,22134.0,0.1,-0.1,-2.0,0.6000000000000001,3.0,7.5,-12.9,-6.9,4.7,16
1317,22152.0,0.1,0.7000000000000001,-1.7000000000000002,0.6000000000000001,3.0,7.5,-12.9,-6.9,4.7,16
1318,22169.0,0.1,1.0,-1.6,0.6000000000000001,3.6,7.7,-4.800000000000001,2.7,6.2,16
1319,22185.0,0.2,1.3,-1.5,0.7000000000000001,4.2,7.9,6.699999999999999,14.5,13.399999999999999,16
1320,22199.0,0.2,1.4000000000000001,-1.4000000000000001,0.7000000000000001,4.2,7.9,6.699999999999999,14.5,13.399999999999999,16
1321,22217.0,0.30000000000000004,1.4000000000000001,-1.1,0.7000000000000001,4.2,8.200000000000001,6.4,15.8,16.1,16
1322,22233.0,0.4,1.3,-0.4,0.8,4.1000000000000005,9.200000000000001,6.300000000000001,10.5,20.400000000000002,16
1323,22250.0,0.4,1.2000000000000002,-0.1,0.8,4.1000000000000005,9.200000000000001,6.300000000000001,10.5,20.400000000000002,16
1324,22266.0,0.6000000000000001,0.9,0.0,0.9,3.9000000000000004,9.3,8.700000000000001,1.3,21.6,16
1325,22285.0,0.9,0.6000000000000001,-0.30000000000000004,1.4000000000000001,3.5,9.1,9.0,-4.1,18.3,16
1326,22302.0,1.0,0.6000000000000001,-0.1,1.4000000000000001,3.5,9.3,8.4,1.4,16.3,16
1327,22316.0,0.9,0.5,0.1,1.4000000000000001,3.5,9.3,8.4,1.4,16.3,16
1328,22333.0,0.7000000000000001,0.4,0.5,1.2000000000000002,3.4000000000000004,10.0,10.200000000000001,13.100000000000001,13.3,16
1329,22350.0,0.7000000000000001,0.30000000000000004,0.7000000000000001,1.2000000000000002,3.4000000000000004,10.0,10.200000000000001,13.100000000000001,13.3,16
1330,22366.0,0.5,0.1,1.1,0.9,3.2,10.4,13.000000000000002,14.5,10.299999999999999,16
1331,22383.0,0.30000000000000004,0.30000000000000004,0.8,0.5,3.5,9.9,8.4,12.4,7.1000000000000005,16
1332,22400.0,0.1,0.4,0.6000000000000001,0.5,3.5,9.9,8.4,12.4,7.1000000000000005,16
1333,22416.0,-0.1,0.5,0.8,0.30000000000000004,3.6,10.0,-0.7,21.300000000000004,10.200000000000001,16
1334,22433.0,-0.6000000000000001,0.0,1.3,-0.2,3.3000000000000003,10.4,-9.100000000000001,27.800000000000004,14.200000000000001,16
1335,22449.0,-0.5,-0.5,1.4000000000000001,-0.4,2.9000000000000004,10.5,-11.3,36.7,18.5,16
1336,22467.0,-0.6000000000000001,-0.8,1.2000000000000002,-0.5,2.4000000000000004,10.600000000000001,-11.3,36.7,18.5,16
1337,22483.0,-1.0,-1.2000000000000002,1.3,-0.8,1.9000000000000001,10.700000000000001,-5.9,48.300000000000004,18.6,16
1338,22501.0,-1.3,-1.5,2.1,-1.5,1.3,11.700000000000001,4.2,49.699999999999996,21.500000000000004,16
1339,22517.0,-1.3,-1.8,2.4000000000000004,-1.5,1.3,11.700000000000001,4.2,49.699999999999996,21.500000000000004,16
1340,22533.0,-1.4000000000000001,-2.2,2.0,-1.8,0.9,11.700000000000001,13.100000000000001,25.900000000000002,19.700000000000003,16
1341,22550.0,-1.3,-2.1,0.5,-1.5,1.1,9.3,12.9,-23.5,12.0,16
1342,22568.0,-1.3,-1.9000000000000001,-0.30000000000000004,-1.5,1.1,9.3,12.9,-23.5,12.0,16
1343,22583.0,-1.4000000000000001,-1.5,-1.2000000000000002,-1.6,1.5,8.200000000000001,3.8,-17.799999999999997,13.100000000000001,16
1344,22599.0,-1.3,-1.2000000000000002,-1.2000000000000002,-1.5,1.9000000000000001,8.200000000000001,-11.3,4.2,20.8,16
1345,22616.0,-1.3,-1.1,-1.1,-1.5,1.9000000000000001,8.200000000000001,-11.3,4.2,20.8,16
1346,22633.0,-1.2000000000000002,-0.9,-1.1,-1.5,2.0,8.4,-13.3,6.600000000000001,24.0,16
1347,22649.0,-0.9,-0.7000000000000001,-1.3,-1.0,2.4000000000000004,7.9,-20.1,6.600000000000001,29.600000000000005,16
