,ms,accelX,accelY,accelZ,accelWithGX,accelWithGY,accelWithGZ,rotRateAlpha,rotRateBeta,rotRateGamma,interval
0,125.0,0.0,0.0,-0.1,-0.6000000000000001,1.0,9.4,-0.5,-0.5,-5.500000000000001,16
1,141.0,0.0,0.0,-0.1,-0.6000000000000001,1.0,9.4,-0.5,-0.5,-5.500000000000001,16
2,158.0,0.0,0.1,-0.1,-0.6000000000000001,1.1,9.3,-2.0,-4.2,0.9000000000000001,16
3,175.0,0.0,0.2,0.0,-0.4,1.2000000000000002,9.5,-2.6,-8.700000000000001,5.8,16
4,222.0,0.30000000000000004,0.30000000000000004,0.4,-0.1,1.5,9.9,-0.30000000000000004,-10.1,5.300000000000001,16
5,237.0,0.30000000000000004,0.30000000000000004,0.30000000000000004,-0.1,1.5,9.9,1.7,-9.3,3.9,16
6,241.0,0.30000000000000004,0.30000000000000004,0.2,0.0,1.5,9.8,3.7000000000000006,-9.4,1.6,16
7,257.0,0.2,0.30000000000000004,0.1,0.0,1.5,9.8,3.7000000000000006,-9.4,1.6,16
8,274.0,0.1,0.30000000000000004,0.1,-0.1,1.6,9.700000000000001,5.1000000000000005,-10.9,-0.6000000000000001,16
9,292.0,0.1,0.30000000000000004,0.2,0.0,1.6,9.9,6.4,-13.3,-2.0,16
10,308.0,0.1,0.30000000000000004,0.2,0.0,1.6,9.9,8.5,-14.900000000000002,-3.7000000000000006,16
11,328.0,0.0,0.2,0.30000000000000004,0.0,1.7000000000000002,10.0,11.900000000000002,-16.900000000000002,-6.300000000000001,16
12,342.0,0.0,0.2,0.30000000000000004,0.0,1.7000000000000002,10.0,11.900000000000002,-16.900000000000002,-6.300000000000001,16
13,357.0,-0.1,0.1,0.4,-0.1,1.6,10.100000000000001,18.3,-16.700000000000003,-7.1000000000000005,16
14,375.0,-0.30000000000000004,-0.2,-0.1,-0.30000000000000004,1.5,9.600000000000001,20.8,-17.400000000000002,-6.2,16
15,391.0,-0.5,-0.2,-0.2,-0.5,1.5,9.4,20.8,-17.400000000000002,-6.2,16
16,407.0,-0.5,-0.2,-0.4,-0.30000000000000004,1.5,9.200000000000001,21.200000000000003,-19.300000000000004,-1.4,16
17,424.0,-0.30000000000000004,-0.1,-0.5,-0.1,1.7000000000000002,9.200000000000001,12.8,-22.000000000000004,9.0,16
18,441.0,-0.2,-0.1,-0.30000000000000004,0.2,1.6,9.4,12.8,-22.000000000000004,9.0,16
19,457.0,-0.1,-0.4,-0.1,0.30000000000000004,1.2000000000000002,9.700000000000001,6.2,-22.000000000000004,12.0,16
20,474.0,0.30000000000000004,-0.30000000000000004,0.5,0.8,1.5,10.200000000000001,-1.2000000000000002,-23.6,21.900000000000002,16
21,492.0,0.7000000000000001,0.1,0.6000000000000001,0.8,1.5,10.200000000000001,1.4,-29.0,18.1,16
22,508.0,1.3,0.2,0.8,2.1,1.9000000000000001,10.700000000000001,1.4,-29.0,18.1,16
23,524.0,1.4000000000000001,0.1,1.2000000000000002,2.2,1.9000000000000001,10.8,5.0,-34.2,9.100000000000001,16
24,541.0,1.2000000000000002,0.0,0.9,2.1,1.8,10.600000000000001,7.699999999999999,-30.4,-6.600000000000001,16
25,557.0,1.0,-0.1,0.7000000000000001,1.8,1.4000000000000001,10.3,7.699999999999999,-30.4,-6.600000000000001,16
26,574.0,0.5,-0.7000000000000001,0.4,1.5,0.9,10.0,6.0,-25.7,-11.1,16
27,593.0,0.1,-1.0,-0.1,1.3,0.8,9.5,2.5,-10.5,-7.500000000000001,16
28,609.0,0.30000000000000004,-0.7000000000000001,-0.7000000000000001,1.5,1.0,9.0,0.9000000000000001,-7.1000000000000005,-3.3000000000000007,16
29,626.0,0.5,-0.5,-0.8,2.0,1.3,8.9,0.9000000000000001,-7.1000000000000005,-3.3000000000000007,16
30,641.0,1.0,-0.2,-0.7000000000000001,2.4000000000000004,1.5,9.1,-5.0,-4.800000000000001,-2.8,16
31,657.0,1.4000000000000001,0.0,-0.2,2.7,1.7000000000000002,9.600000000000001,-9.899999999999999,-2.1,-7.500000000000001,16
32,674.0,1.5,0.1,0.30000000000000004,2.8000000000000003,1.9000000000000001,10.200000000000001,-9.899999999999999,-2.1,-7.500000000000001,16
33,691.0,1.3,0.30000000000000004,0.6000000000000001,2.7,2.0,10.4,-14.400000000000002,4.7,-13.5,16
34,708.0,1.3,0.4,0.7000000000000001,2.6,1.9000000000000001,10.5,-16.700000000000003,10.8,-27.099999999999998,16
35,724.0,0.9,-0.4,1.0,2.2,1.1,10.8,-10.1,13.000000000000002,-31.0,16
36,741.0,0.30000000000000004,-1.3,1.0,1.3,0.0,11.100000000000001,-10.1,13.000000000000002,-31.0,16
37,758.0,0.30000000000000004,-1.1,1.3,1.9000000000000001,1.0,10.700000000000001,17.0,19.700000000000003,-16.5,16
38,774.0,1.1,-0.1,-0.1,2.3000000000000003,1.6,9.700000000000001,17.300000000000004,14.200000000000001,-31.5,16
39,791.0,1.2000000000000002,-0.1,-0.30000000000000004,2.5,1.6,9.3,17.300000000000004,14.200000000000001,-31.5,16
40,808.0,1.2000000000000002,-0.1,-0.8,2.2,1.7000000000000002,8.9,15.700000000000001,11.6,-48.9,16
41,824.0,0.4,0.0,-0.9,1.3,1.7000000000000002,8.9,5.500000000000001,9.899999999999999,-77.9,16
42,841.0,-0.2,-0.30000000000000004,-0.7000000000000001,1.3,1.7000000000000002,8.9,5.500000000000001,9.899999999999999,-77.9,16
43,858.0,-1.2000000000000002,-0.7000000000000001,-0.4,-0.7000000000000001,1.0,9.4,0.6000000000000001,14.100000000000001,-76.60000000000001,16
44,875.0,-1.7000000000000002,-0.9,-0.4,-0.9,0.9,9.4,2.1,24.200000000000003,-49.1,16
45,892.0,-1.5,-1.1,-0.5,-0.9,0.7000000000000001,9.3,8.8,25.1,-34.60000000000001,16
46,907.0,-1.3,-1.1,-0.6000000000000001,-0.5,0.9,8.9,8.8,25.1,-34.60000000000001,16
47,927.0,-0.5,-0.5,-1.0,0.0,1.6,8.5,16.5,24.1,-22.9,16
48,941.0,-0.30000000000000004,0.1,-1.8,0.0,2.1,7.7,25.300000000000004,26.000000000000004,-15.299999999999999,16
49,959.0,-0.30000000000000004,0.2,-2.7,-0.1,2.3000000000000003,6.9,22.9,24.400000000000002,-17.400000000000002,16
50,974.0,-0.4,0.0,-3.0,-0.4,2.0,6.5,22.9,24.400000000000002,-17.400000000000002,16
51,991.0,-0.7000000000000001,-0.2,-3.0,-0.7000000000000001,1.9000000000000001,6.5,9.3,15.2,-17.5,16
52,1010.0,-1.0,-0.1,-2.7,-1.0,2.0,6.800000000000001,2.2,8.600000000000001,-11.000000000000002,16
53,1025.0,-1.1,0.1,-2.4000000000000004,-1.1,2.3000000000000003,7.300000000000001,2.2,8.600000000000001,-11.000000000000002,16
54,1043.0,-1.1,0.30000000000000004,-1.6,-0.9,2.4000000000000004,8.0,-3.1,0.5,-2.9,16
55,1065.0,-0.5,0.2,-0.5,-0.5,2.2,9.0,-3.3000000000000007,-12.299999999999999,6.500000000000001,16
56,1074.0,-0.6000000000000001,0.1,0.0,-0.6000000000000001,2.2,9.600000000000001,-0.1,-7.699999999999999,8.0,16
57,1091.0,-0.7000000000000001,0.1,0.30000000000000004,-0.7000000000000001,2.2,9.700000000000001,-0.1,-7.699999999999999,8.0,16
58,1108.0,-0.7000000000000001,0.2,0.1,-0.7000000000000001,2.3000000000000003,9.4,3.0,9.8,11.4,16
59,1124.0,-0.8,0.1,-0.4,-0.8,2.2,9.0,0.0,13.399999999999999,12.8,16
60,1148.0,-0.9,0.0,-0.5,-0.9,2.1,9.0,0.0,13.399999999999999,12.8,16
61,1157.0,-0.8,-0.1,0.1,-0.7000000000000001,2.0,9.8,-4.7,11.1,16.4,16
62,1174.0,-0.4,-0.1,1.2000000000000002,-0.4,2.0,10.700000000000001,-5.1000000000000005,-4.1,24.3,16
63,1191.0,-0.2,-0.1,1.7000000000000002,-0.4,2.0,10.700000000000001,-5.1000000000000005,-4.1,24.3,16
64,1208.0,0.30000000000000004,0.1,2.3000000000000003,0.5,2.2,11.9,-2.2,-9.600000000000001,26.300000000000004,16
65,1224.0,0.4,0.2,2.6,0.5,2.2,12.200000000000001,-5.2,-13.6,23.2,16
66,1241.0,0.2,0.1,2.9000000000000004,0.30000000000000004,2.1,12.4,-10.299999999999999,-11.8,21.300000000000004,16
67,1258.0,0.0,0.0,3.0,0.0,1.8,12.600000000000001,-10.299999999999999,-11.8,21.300000000000004,16
68,1274.0,-0.4,-0.4,3.0,-0.2,1.4000000000000001,12.600000000000001,-14.900000000000002,-7.8,20.5,16
69,1291.0,-0.4,-0.6000000000000001,3.1,-0.2,1.3,12.9,-15.2,-2.5,27.3,16
70,1308.0,-0.30000000000000004,-0.5,3.4000000000000004,-0.1,1.4000000000000001,13.3,-15.2,-2.5,27.3,16
71,1327.0,-0.4,-0.5,3.6,-0.2,1.4000000000000001,13.200000000000001,-4.5,-5.6,33.50000000000001,16
72,1341.0,-0.5,-0.5,3.4000000000000004,-0.2,1.4000000000000001,13.200000000000001,9.8,-9.600000000000001,39.50000000000001,16
73,1357.0,-0.4,-0.8,2.8000000000000003,0.30000000000000004,1.1,12.100000000000001,28.1,-2.1,49.699999999999996,16
74,1374.0,0.2,-1.0,1.8,0.8,1.0,11.0,28.1,-2.1,49.699999999999996,16
75,1392.0,0.5,-1.1,0.30000000000000004,0.9,0.9,9.600000000000001,30.9,9.5,50.3,16
76,1407.0,0.5,-1.2000000000000002,-1.2000000000000002,0.8,0.9,8.5,25.1,16.3,46.50000000000001,16
77,1427.0,0.2,-1.2000000000000002,-1.6,0.6000000000000001,1.0,8.1,20.900000000000002,5.4,45.099999999999994,16
78,1441.0,0.30000000000000004,-1.2000000000000002,-1.5,0.7000000000000001,1.0,8.5,20.900000000000002,5.4,45.099999999999994,16
79,1457.0,0.4,-1.3,-0.7000000000000001,0.9,1.0,9.1,20.900000000000002,-19.700000000000003,41.4,16
80,1474.0,0.4,-1.3,-0.2,1.0,1.0,9.5,21.7,-22.000000000000004,38.1,16
81,1491.0,0.30000000000000004,-1.3,-0.1,0.9,1.1,9.600000000000001,21.7,-22.000000000000004,38.1,16
82,1509.0,0.1,-1.3,-0.1,0.8,1.2000000000000002,9.5,20.3,-18.0,34.2,16
83,1524.0,-0.1,-1.2000000000000002,-0.2,0.6000000000000001,1.2000000000000002,9.4,15.5,-5.0,27.2,16
84,1541.0,-0.2,-1.2000000000000002,-0.30000000000000004,0.5,1.2000000000000002,9.1,15.5,-5.0,27.2,16
85,1557.0,-0.4,-1.4000000000000001,-0.9,0.4,1.0,8.4,15.8,-0.4,24.5,16
86,1574.0,-0.5,-1.5,-1.7000000000000002,0.2,1.0,7.7,16.4,-0.4,23.0,16
87,1591.0,-0.6000000000000001,-1.5,-2.0,0.2,1.0,7.7,16.4,-0.4,23.0,16
88,1608.0,-0.6000000000000001,-1.4000000000000001,-2.0,0.30000000000000004,1.2000000000000002,7.6000000000000005,14.200000000000001,-4.1,23.800000000000004,16
89,1626.0,-0.4,-1.2000000000000002,-1.8,0.5,1.3,7.7,12.5,-7.699999999999999,24.0,16
90,1641.0,-0.30000000000000004,-1.1,-1.8,0.6000000000000001,1.4000000000000001,7.6000000000000005,10.8,-8.700000000000001,19.799999999999997,16
91,1657.0,-0.4,-1.2000000000000002,-1.8,0.6000000000000001,1.4000000000000001,7.5,10.8,-8.700000000000001,19.799999999999997,16
92,1675.0,-0.4,-1.2000000000000002,-2.1,0.4,1.4000000000000001,7.4,6.4,-4.300000000000001,17.200000000000003,16
93,1691.0,-0.7000000000000001,-1.0,-1.8,0.30000000000000004,1.6,7.6000000000000005,-4.7,2.7,14.300000000000002,16
94,1707.0,-0.6000000000000001,-0.9,-1.6,0.30000000000000004,1.6,7.6000000000000005,-4.7,2.7,14.300000000000002,16
95,1724.0,-0.5,-0.8,-1.5,0.30000000000000004,1.7000000000000002,8.0,-8.8,6.300000000000001,12.299999999999999,16
96,1741.0,-0.7000000000000001,-0.7000000000000001,-1.3,0.1,1.7000000000000002,8.1,-12.200000000000001,9.899999999999999,9.700000000000001,16
97,1757.0,-0.7000000000000001,-0.8,-1.1,0.1,1.5,8.3,-15.399999999999999,17.1,10.1,16
98,1775.0,-0.6000000000000001,-0.8,-1.0,0.4,1.5,8.6,-15.399999999999999,17.1,10.1,16
99,1795.0,-0.30000000000000004,-0.7000000000000001,-0.6000000000000001,0.5,1.6,8.8,-13.3,17.1,10.600000000000001,16
100,1810.0,-0.1,-0.6000000000000001,-0.8,0.7000000000000001,1.6,8.4,-6.300000000000001,7.699999999999999,11.2,16
101,1824.0,0.30000000000000004,-0.5,-1.1,1.1,1.7000000000000002,8.3,-10.9,-3.7000000000000006,9.5,16
102,1842.0,0.5,-0.4,-0.8,1.5,1.8,9.0,-10.9,-3.7000000000000006,9.5,16
103,1859.0,1.0,-0.2,0.4,2.1,1.8,10.200000000000001,-19.200000000000003,-16.0,6.0,16
104,1874.0,1.7000000000000002,-0.1,2.0,2.6,1.8,11.600000000000001,-36.300000000000004,-24.1,-11.2,16
105,1891.0,1.8,-0.1,2.7,2.8000000000000003,1.7000000000000002,12.700000000000001,-36.300000000000004,-24.1,-11.2,16
106,1908.0,1.7000000000000002,-0.2,3.5,2.5,1.5,12.9,-43.70000000000001,-12.4,-24.0,16
107,1924.0,1.0,-0.4,2.8000000000000003,1.7000000000000002,1.1,12.3,-58.0,21.500000000000004,-46.300000000000004,16
108,1942.0,0.1,-0.5,2.1,0.8,0.9,11.8,-64.60000000000001,27.9,-50.5,16
109,1959.0,-0.30000000000000004,-0.5,2.0,0.2,0.7000000000000001,11.700000000000001,-64.60000000000001,27.9,-50.5,16
110,1974.0,-0.8,-0.4,2.3000000000000003,-0.4,0.7000000000000001,12.200000000000001,-66.9,25.200000000000003,-50.400000000000006,16
111,1991.0,-1.6,-0.30000000000000004,3.0,-1.1,0.5,12.9,-61.9,22.700000000000003,-41.0,16
112,2009.0,-2.1,-0.5,3.6,-1.7000000000000002,0.2,13.4,-49.699999999999996,29.1,-27.800000000000004,16
113,2024.0,-2.3000000000000003,-0.7000000000000001,3.4000000000000004,-1.8,-0.2,13.0,-49.699999999999996,29.1,-27.800000000000004,16
114,2042.0,-1.6,-0.9,2.2,-1.3,-0.30000000000000004,11.8,-7.0,29.300000000000004,13.3,16
115,2060.0,-0.7000000000000001,-0.8,0.7000000000000001,-0.5,-0.2,10.5,15.100000000000001,11.6,34.0,16
116,2075.0,0.0,-0.7000000000000001,0.1,0.8,0.30000000000000004,9.700000000000001,15.100000000000001,11.6,34.0,16
117,2091.0,1.5,-0.1,-0.30000000000000004,2.1,0.9,9.700000000000001,42.400000000000006,-35.5,53.9,16
118,2107.0,2.1,0.30000000000000004,0.0,2.1,0.9,9.700000000000001,42.400000000000006,-35.5,53.9,16
119,2132.0,3.3000000000000003,1.1,0.7000000000000001,3.9000000000000004,2.1,10.600000000000001,48.0,-38.50000000000001,34.900000000000006,16
120,2141.0,3.4000000000000004,1.2000000000000002,0.6000000000000001,4.1000000000000005,2.5,10.200000000000001,48.0,-38.50000000000001,34.900000000000006,16
121,2157.0,3.0,1.3,-0.30000000000000004,3.7,2.6,9.200000000000001,33.400000000000006,1.6,-9.700000000000001,16
122,2175.0,2.6,1.2000000000000002,-1.0,3.7,2.6,9.200000000000001,33.400000000000006,1.6,-9.700000000000001,16
123,2191.0,1.6,0.7000000000000001,-1.9000000000000001,1.8,1.9000000000000001,7.7,19.400000000000002,20.8,-31.400000000000002,16
124,2207.0,0.5,0.1,-2.2,0.8,1.4000000000000001,7.5,0.2,38.50000000000001,-53.7,16
125,2224.0,-0.1,-0.5,-2.2,0.2,0.9,7.5,1.4,36.400000000000006,-52.80000000000001,16
126,2243.0,-0.2,-0.6000000000000001,-2.3000000000000003,-0.1,0.7000000000000001,7.4,1.4,36.400000000000006,-52.80000000000001,16
127,2261.0,-0.5,-0.8,-2.4000000000000004,-0.5,0.7000000000000001,7.2,6.300000000000001,31.0,-48.9,16
128,2274.0,-0.7000000000000001,-0.7000000000000001,-2.5,-0.6000000000000001,0.8,7.2,11.4,21.7,-35.699999999999996,16
129,2291.0,-0.7000000000000001,-0.6000000000000001,-2.4000000000000004,-0.6000000000000001,0.8,7.2,11.4,21.7,-35.699999999999996,16
130,2311.0,-0.5,-0.30000000000000004,-2.2,-0.4,1.3,7.5,11.6,18.3,-29.200000000000003,16
131,2326.0,-0.30000000000000004,-0.1,-2.0,-0.30000000000000004,1.6,7.7,11.4,10.700000000000001,-21.200000000000003,16
132,2341.0,-0.2,0.1,-1.8,-0.30000000000000004,1.6,7.7,11.4,10.700000000000001,-21.200000000000003,16
133,2357.0,-0.2,0.30000000000000004,-1.0,-0.5,2.1,9.0,10.200000000000001,7.699999999999999,-19.1,16
134,2374.0,-0.30000000000000004,0.5,-0.1,-0.6000000000000001,2.2,9.700000000000001,9.3,7.0,-18.1,16
135,2391.0,-0.4,0.6000000000000001,0.4,-0.6000000000000001,2.3000000000000003,10.100000000000001,9.100000000000001,15.100000000000001,-19.200000000000003,16
136,2410.0,-0.2,0.5,0.6000000000000001,-0.5,2.2,10.200000000000001,7.9,23.2,-19.9,16
137,2424.0,0.1,0.5,0.7000000000000001,-0.2,2.2,10.100000000000001,7.9,23.2,-19.9,16
138,2441.0,0.30000000000000004,0.4,0.2,-0.30000000000000004,2.2,9.600000000000001,4.5,35.4,-23.700000000000003,16
139,2458.0,0.2,0.5,-0.6000000000000001,-0.5,2.3000000000000003,8.9,1.5,27.700000000000003,-27.3,16
140,2474.0,0.0,0.4,-0.8,-0.9,2.1,8.9,1.5,27.700000000000003,-27.3,16
141,2491.0,-0.6000000000000001,-0.30000000000000004,-0.6000000000000001,-1.7000000000000002,0.2,9.0,-1.9,9.2,-30.699999999999996,16
142,2507.0,-1.3,-0.1,2.5,-1.5,1.7000000000000002,12.4,-11.2,-23.5,-15.899999999999999,16
143,2525.0,-0.2,-0.8,3.2,-0.7000000000000001,0.9,12.9,-2.1,-8.899999999999999,-9.4,16
144,2541.0,-0.1,-1.0,3.4000000000000004,-0.6000000000000001,0.8,13.5,-2.1,-8.899999999999999,-9.4,16
145,2558.0,0.2,-0.9,3.2,-0.5,0.8,12.100000000000001,12.0,21.400000000000002,2.5,16
146,2574.0,1.0,-0.7000000000000001,0.6000000000000001,0.5,1.1,10.3,10.4,8.5,-0.8,16
147,2591.0,1.5,-0.5,1.0,0.2,1.5,11.0,10.4,8.5,-0.8,16
148,2607.0,-0.5,-0.30000000000000004,2.6,-1.6,1.5,12.8,10.4,-9.899999999999999,-16.5,16
149,2624.0,-2.4000000000000004,-0.5,3.8000000000000003,-3.1,1.3,13.5,11.700000000000001,9.700000000000001,0.8,16
150,2641.0,-2.7,-0.6000000000000001,3.9000000000000004,-3.1,1.3,13.5,11.700000000000001,9.700000000000001,0.8,16
151,2658.0,-1.2000000000000002,-1.1,2.7,-0.9,0.7000000000000001,11.700000000000001,14.800000000000002,28.200000000000003,28.3,16
152,2677.0,0.7000000000000001,-1.3,0.7000000000000001,-0.4,0.7000000000000001,9.8,21.200000000000003,53.300000000000004,41.4,16
153,2691.0,0.4,-1.1,-1.7000000000000002,-0.6000000000000001,1.0,7.9,18.200000000000003,43.800000000000004,41.199999999999996,16
154,2707.0,0.30000000000000004,-0.9,-2.3000000000000003,-0.9,1.2000000000000002,7.2,18.200000000000003,43.800000000000004,41.199999999999996,16
155,2724.0,-0.1,-0.8,-2.2,-1.3,1.2000000000000002,7.7,11.6,20.400000000000002,40.6,16
156,2741.0,-0.4,-1.1,-1.0,-1.3,1.0,8.9,-2.3,-21.6,39.599999999999994,16
157,2757.0,-0.2,-1.2000000000000002,-0.2,-1.3,1.0,8.9,-2.3,-21.6,39.599999999999994,16
158,2774.0,0.0,-1.2000000000000002,0.4,-0.7000000000000001,0.9,10.0,-4.300000000000001,-24.1,39.599999999999994,16
159,2792.0,0.30000000000000004,-1.1,0.0,-0.4,1.0,9.5,3.3000000000000007,-15.000000000000002,36.2,16
160,2808.0,0.4,-1.1,-0.9,-0.4,1.0,9.5,3.3000000000000007,-15.000000000000002,36.2,16
161,2825.0,0.30000000000000004,-1.1,-1.3,-0.2,1.1,8.200000000000001,6.4,-13.6,32.1,16
162,2846.0,0.5,-1.0,-1.6,0.0,1.1,7.9,8.0,-16.200000000000003,27.9,16
163,2857.0,0.5,-1.1,-1.8,0.0,1.1,7.9,8.3,-17.7,23.2,16
164,2874.0,0.1,-1.2000000000000002,-1.8,-0.1,1.0,7.6000000000000005,7.6,-19.300000000000004,20.0,16
165,2891.0,0.5,-1.2000000000000002,-2.1,0.2,1.0,7.5,7.0,-18.3,20.0,16
166,2907.0,0.30000000000000004,-1.4000000000000001,-2.0,-0.1,0.8,7.6000000000000005,3.5,-13.100000000000001,17.6,16
167,2924.0,-0.1,-1.5,-1.9000000000000001,-0.30000000000000004,0.7000000000000001,7.6000000000000005,0.5,-7.1000000000000005,23.2,16
168,2941.0,-0.1,-1.4000000000000001,-2.1,-0.30000000000000004,0.9,7.1000000000000005,0.5,-7.1000000000000005,23.2,16
169,2958.0,-0.1,-1.6,-2.8000000000000003,-1.2000000000000002,0.0,6.7,-1.4,-11.2,27.5,16
170,2974.0,-2.7,-1.5,-1.5,-2.1,0.8,8.1,4.300000000000001,-85.0,54.800000000000004,16
171,2991.0,-1.2000000000000002,-0.9,-1.2000000000000002,0.9,1.6,8.6,4.300000000000001,-85.0,54.800000000000004,16
172,3007.0,1.4000000000000001,0.0,-0.6000000000000001,1.8,2.3000000000000003,9.200000000000001,-2.8,-62.50000000000001,60.2,16
173,3032.0,0.7000000000000001,0.30000000000000004,1.2000000000000002,1.5,2.5,10.3,0.5,-48.9,24.5,16
174,3042.0,0.7000000000000001,0.30000000000000004,1.2000000000000002,1.4000000000000001,2.2,10.4,10.9,-27.6,6.500000000000001,16
175,3057.0,0.30000000000000004,-0.1,0.4,0.9,2.0,9.1,10.9,-27.6,6.500000000000001,16
176,3075.0,-0.30000000000000004,-0.4,-1.3,0.5,1.8,7.9,18.5,-20.5,-7.500000000000001,16
177,3091.0,-0.6000000000000001,-0.6000000000000001,-1.7000000000000002,0.5,1.7000000000000002,7.7,4.2,-39.0,-15.5,16
178,3107.0,-0.5,-0.6000000000000001,-1.3,0.9,1.7000000000000002,9.1,4.2,-39.0,-15.5,16
179,3124.0,0.1,-0.5,0.7000000000000001,1.7000000000000002,1.8,10.5,-7.500000000000001,-47.1,-15.299999999999999,16
180,3143.0,0.9,-0.30000000000000004,1.9000000000000001,2.3000000000000003,2.0,11.4,-17.400000000000002,-39.400000000000006,-20.1,16
181,3158.0,1.2000000000000002,0.4,2.2,2.7,2.5,11.600000000000001,-21.900000000000002,-34.400000000000006,-26.300000000000004,16
182,3178.0,1.2000000000000002,0.7000000000000001,1.5,2.7,2.7,11.0,-31.5,-31.6,-35.8,16
183,3192.0,1.0,0.5,0.7000000000000001,2.4000000000000004,2.2,9.700000000000001,-31.5,-31.6,-35.8,16
184,3208.0,0.4,-0.2,-0.1,1.9000000000000001,1.4000000000000001,9.4,-75.3,-15.5,-49.0,16
185,3224.0,0.1,-0.8,0.0,1.0,0.4,10.600000000000001,-75.3,-15.5,-49.0,16
186,3241.0,-0.2,0.6000000000000001,4.0,1.6,1.7000000000000002,13.9,-83.30000000000001,-31.7,-39.599999999999994,16
187,3257.0,0.0,-0.2,4.4,1.8,1.1,14.4,-46.9,-28.200000000000003,-27.700000000000003,16
188,3274.0,-0.1,-0.4,5.4,1.7000000000000002,0.7000000000000001,14.8,-22.8,0.2,-17.9,16
189,3291.0,-0.1,-0.7000000000000001,3.9000000000000004,1.7000000000000002,0.5,12.3,-22.8,0.2,-17.9,16
190,3307.0,0.30000000000000004,-0.6000000000000001,0.8,2.0,0.7000000000000001,9.8,-2.4000000000000004,21.400000000000002,-7.1000000000000005,16
191,3324.0,0.30000000000000004,-0.4,-0.4,2.2,1.0,8.700000000000001,13.8,5.1000000000000005,4.7,16
192,3341.0,1.0,-0.2,-0.9,3.3000000000000003,1.1,8.9,13.8,5.1000000000000005,4.7,16
193,3358.0,2.2,0.1,-0.5,4.3,1.6,9.0,14.700000000000001,-10.4,9.5,16
194,3375.0,2.8000000000000003,0.5,-0.7000000000000001,4.4,1.9000000000000001,9.200000000000001,-7.9,-5.1000000000000005,-7.9,16
195,3391.0,2.4000000000000004,0.8,0.0,4.4,1.9000000000000001,9.200000000000001,-7.9,-5.1000000000000005,-7.9,16
196,3409.0,2.1,1.1,1.7000000000000002,3.6,2.0,11.0,-20.3,11.3,-23.3,16
197,3426.0,1.4000000000000001,0.2,0.7000000000000001,2.7,1.2000000000000002,9.9,-18.3,30.3,-39.699999999999996,16
198,3441.0,0.4,-0.2,-1.2000000000000002,1.7000000000000002,1.1,8.3,-5.500000000000001,41.800000000000004,-59.699999999999996,16
199,3457.0,0.0,0.0,-2.0,0.9,1.0,7.2,-5.500000000000001,41.800000000000004,-59.699999999999996,16
200,3474.0,-0.9,-0.8,-2.8000000000000003,0.2,0.2,7.0,3.4,25.4,-63.2,16
201,3491.0,-2.4000000000000004,-3.2,-2.4000000000000004,-0.9,-1.6,6.800000000000001,2.7,23.2,-39.0,16
202,3507.0,-1.5,-2.5,-3.6,-0.9,-1.6,6.800000000000001,2.7,23.2,-39.0,16
203,3524.0,0.0,0.5,-3.4000000000000004,0.1,2.3000000000000003,6.1000000000000005,-12.100000000000001,37.50000000000001,-24.200000000000003,16
204,3541.0,-0.8,1.4000000000000001,-3.1,0.30000000000000004,2.8000000000000003,6.800000000000001,-11.000000000000002,17.6,-24.1,16
205,3557.0,-0.30000000000000004,1.7000000000000002,-2.6,0.30000000000000004,2.8000000000000003,6.800000000000001,-11.000000000000002,17.6,-24.1,16
206,3574.0,0.9,1.6,-3.1,2.3000000000000003,2.4000000000000004,6.300000000000001,-0.6000000000000001,3.8,-23.5,16
207,3591.0,0.1,0.9,-2.2,1.6,2.0,7.5,4.300000000000001,-18.4,-34.2,16
208,3608.0,0.6000000000000001,0.4,-1.3,1.6,1.8,8.5,3.8,-26.5,-38.800000000000004,16
209,3624.0,0.6000000000000001,0.7000000000000001,-0.2,1.7000000000000002,2.0,9.4,7.300000000000001,-23.099999999999998,-39.9,16
210,3641.0,1.0,0.8,0.0,2.2,2.4000000000000004,9.5,7.300000000000001,-23.099999999999998,-39.9,16
211,3658.0,1.4000000000000001,1.1,-0.1,2.7,2.7,9.8,17.400000000000002,-24.599999999999998,-58.60000000000001,16
212,3676.0,1.3,0.1,-0.6000000000000001,2.5,1.6,8.8,11.8,-18.900000000000002,-69.4,16
213,3691.0,1.1,-0.1,-1.0,1.9000000000000001,1.5,8.5,11.8,-18.900000000000002,-69.4,16
214,3707.0,-0.8,-0.1,-0.6000000000000001,-0.30000000000000004,1.7000000000000002,9.4,8.700000000000001,-36.7,-70.9,16
215,3724.0,-2.2,0.1,0.30000000000000004,-0.30000000000000004,1.7000000000000002,9.4,7.400000000000001,-53.7,-64.0,16
216,3741.0,-4.0,0.6000000000000001,2.1,-2.1,2.2,10.9,14.100000000000001,-60.2,-43.00000000000001,16
217,3757.0,-4.0,0.2,3.8000000000000003,-1.4000000000000001,1.6,13.200000000000001,24.5,-56.50000000000001,-15.000000000000002,16
218,3774.0,-1.3,-0.8,3.9000000000000004,1.1,1.2000000000000002,13.5,41.7,-43.50000000000001,32.0,16
219,3791.0,0.4,-0.4,4.800000000000001,2.5,1.7000000000000002,14.100000000000001,46.0,-32.5,35.5,16
220,3807.0,0.6000000000000001,-0.2,4.7,2.4000000000000004,2.0,13.600000000000001,46.0,-32.5,35.5,16
221,3827.0,-0.2,-0.30000000000000004,3.6,1.7000000000000002,1.9000000000000001,12.5,52.400000000000006,-22.8,32.5,16
222,3841.0,-0.9,-0.6000000000000001,2.4000000000000004,1.3,1.9000000000000001,11.600000000000001,58.5,-30.1,35.8,16
223,3859.0,-1.0,-0.5,2.1,1.3,1.9000000000000001,11.600000000000001,58.5,-30.1,35.8,16
224,3874.0,-0.8,-0.5,2.6,1.9000000000000001,2.2,11.9,60.1,-45.5,38.60000000000001,16
225,3891.0,-0.6000000000000001,-1.1,2.2,1.8,0.9,9.8,67.9,-62.7,44.300000000000004,16
226,3907.0,-1.5,-2.9000000000000004,-0.9,1.8,0.9,9.8,67.9,-62.7,44.300000000000004,16
227,3924.0,-0.2,-0.1,2.2,2.9000000000000004,1.9000000000000001,10.0,73.6,-78.3,52.300000000000004,16
228,3941.0,-0.5,-1.9000000000000001,0.30000000000000004,2.7,1.3,8.5,78.5,-63.70000000000001,52.300000000000004,16
229,3958.0,-1.6,-2.3000000000000003,-1.0,2.2,1.4000000000000001,7.5,85.1,-70.2,67.10000000000001,16
230,3974.0,-1.1,-1.3,-1.0,2.2,1.4000000000000001,7.5,85.1,-70.2,67.10000000000001,16
231,3991.0,-0.5,-1.5,-1.0,3.6,2.0,7.0,88.7,-81.4,68.1,16
232,4010.0,-0.6000000000000001,-2.2,0.1,4.0,1.7000000000000002,7.4,95.60000000000002,-83.2,69.4,16
233,4025.0,-0.2,-1.9000000000000001,-1.2000000000000002,4.5,2.1,6.5,95.9,-87.60000000000001,68.9,16
234,4041.0,-0.5,-1.7000000000000002,-1.1,4.1000000000000005,2.5,6.2,95.9,-87.60000000000001,68.9,16
235,4057.0,-1.3,-1.6,-1.1,4.0,2.3000000000000003,6.0,99.39999999999999,-98.50000000000001,66.4,16
236,4074.0,-1.5,-2.4000000000000004,-1.1,4.1000000000000005,1.7000000000000002,5.6000000000000005,114.80000000000001,-116.6,69.60000000000001,16
237,4091.0,-1.5,-2.8000000000000003,-1.2000000000000002,4.1000000000000005,1.7000000000000002,5.6000000000000005,114.80000000000001,-116.6,69.60000000000001,16
238,4108.0,-1.5,-2.9000000000000004,-2.3000000000000003,4.7,1.4000000000000001,3.5,114.99999999999999,-104.50000000000001,73.0,16
239,4124.0,-1.5,-2.7,-3.1,4.9,1.6,2.6,87.50000000000001,-78.7,74.89999999999999,16
240,4141.0,-1.3,-2.8000000000000003,-3.5,5.4,1.4000000000000001,2.1,67.10000000000001,-73.9,71.9,16
241,4157.0,-1.1,-2.9000000000000004,-3.2,5.5,1.4000000000000001,2.6,67.10000000000001,-73.9,71.9,16
242,4174.0,-1.5,-3.0,-2.6,5.300000000000001,1.0,2.8000000000000003,49.0,-64.2,66.60000000000001,16
243,4191.0,-2.5,-4.0,-1.8,4.7,0.30000000000000004,3.2,37.7,-66.0,73.2,16
244,4208.0,-2.1,-3.2,-1.6,4.7,0.30000000000000004,3.2,37.7,-66.0,73.2,16
245,4225.0,-2.5,-3.7,-1.2000000000000002,4.9,0.0,3.6,38.0,-70.3,79.6,16
246,4241.0,-2.4000000000000004,-3.7,-0.5,5.4,-0.2,4.0,54.6,-84.0,98.8,16
247,4257.0,-2.1,-3.8000000000000003,-0.2,5.4,-0.2,4.0,54.6,-84.0,98.8,16
248,4274.0,-1.6,-3.6,0.2,6.6000000000000005,-0.4,3.9000000000000004,61.8,-81.3,104.50000000000001,16
249,4291.0,-1.0,-3.4000000000000004,-0.2,7.5,-0.4,3.3000000000000003,64.9,-76.80000000000001,109.10000000000001,16
250,4308.0,-0.1,-3.3000000000000003,-0.7000000000000001,8.4,-0.6000000000000001,2.7,42.2,-62.50000000000001,108.3,16
251,4324.0,0.2,-3.3000000000000003,-0.7000000000000001,9.200000000000001,-0.9,2.7,42.2,-62.50000000000001,108.3,16
252,4341.0,1.2000000000000002,-3.4000000000000004,-0.1,10.200000000000001,-1.5,3.5,17.200000000000003,-56.9,107.00000000000001,16
253,4358.0,2.2,-3.8000000000000003,1.0,11.100000000000001,-2.1,4.2,-37.9,-35.3,106.0,16
254,4374.0,3.2,-3.8000000000000003,1.6,12.200000000000001,-2.4000000000000004,4.800000000000001,-65.2,-17.7,105.5,16
255,4391.0,4.0,-3.7,1.7000000000000002,13.200000000000001,-2.7,4.6000000000000005,-65.2,-17.7,105.5,16
256,4407.0,4.3,-4.0,1.0,13.0,-3.6,4.0,-91.30000000000001,0.8,95.60000000000002,16
257,4424.0,3.4000000000000004,-5.0,0.5,12.3,-4.800000000000001,3.9000000000000004,-160.8,17.400000000000002,84.6,16
258,4441.0,3.0,-5.300000000000001,0.9,11.600000000000001,-5.4,5.2,-160.8,17.400000000000002,84.6,16
259,4458.0,2.5,-4.6000000000000005,3.3000000000000003,11.200000000000001,-4.7,7.7,-195.00000000000003,25.200000000000003,94.0,16
260,4475.0,2.3000000000000003,-3.7,4.7,11.200000000000001,-4.7,7.7,-209.00000000000003,36.400000000000006,108.39999999999999,16
261,4492.0,2.6,-0.5,6.2,11.4,-2.2,9.8,-161.5,42.800000000000004,131.6,16
262,4509.0,2.9000000000000004,0.1,5.7,11.8,-1.7000000000000002,9.200000000000001,-161.5,42.800000000000004,131.6,16
263,4528.0,3.4000000000000004,0.9,4.800000000000001,12.100000000000001,-1.6,8.3,-115.3,27.5,132.6,16
264,4541.0,3.8000000000000003,1.1,4.0,12.4,-1.8,7.5,-15.700000000000001,-15.6,123.00000000000001,16
265,4559.0,6.6000000000000005,2.5,2.1,15.100000000000001,-0.7000000000000001,5.800000000000001,16.8,-37.7,109.00000000000001,16
266,4574.0,3.9000000000000004,1.6,2.5,11.100000000000001,-2.3000000000000003,6.800000000000001,16.8,-37.7,109.00000000000001,16
267,4591.0,1.9000000000000001,0.7000000000000001,3.5,11.100000000000001,-2.3000000000000003,6.800000000000001,34.0,-38.50000000000001,98.0,16
268,4612.0,3.8000000000000003,3.2,1.1,12.200000000000001,-0.5,4.7,11.5,9.5,81.3,16
269,4629.0,2.8000000000000003,3.4000000000000004,0.9,11.3,-0.4,4.7,-5.300000000000001,38.50000000000001,61.10000000000001,16
270,4646.0,2.2,3.5,0.30000000000000004,10.100000000000001,-0.4,3.9000000000000004,-5.300000000000001,38.50000000000001,61.10000000000001,16
271,4659.0,1.0,3.6,-0.6000000000000001,9.0,-0.5,3.3000000000000003,-30.3,62.1,32.5,16
272,4675.0,0.5,3.5,-0.9,8.1,-0.7000000000000001,3.0,-30.3,62.1,32.5,16
273,4691.0,-0.1,3.3000000000000003,-1.0,7.800000000000001,-0.9,3.3000000000000003,-35.3,53.0,24.1,16
274,4707.0,-0.5,3.1,-0.4,7.4,-1.1,3.7,-31.3,30.799999999999997,14.700000000000001,16
275,4725.0,-0.6000000000000001,3.0,-0.30000000000000004,7.4,-1.1,3.7,-28.1,26.700000000000003,13.3,16
276,4741.0,-0.6000000000000001,2.8000000000000003,-0.2,7.2,-1.5,3.9000000000000004,-28.1,26.700000000000003,13.3,16
277,4757.0,-0.4,2.8000000000000003,-0.5,7.4,-1.6,3.7,-27.800000000000004,29.400000000000002,12.299999999999999,16
278,4774.0,0.0,3.0,-0.9,7.800000000000001,-1.3,3.3000000000000003,-30.799999999999997,34.2,7.1000000000000005,16
279,4791.0,0.4,3.3000000000000003,-1.2000000000000002,8.1,-1.2000000000000002,2.9000000000000004,-30.799999999999997,34.2,7.1000000000000005,16
280,4807.0,0.4,3.0,-1.6,8.0,-1.4000000000000001,2.5,-33.7,30.599999999999998,-0.5,16
281,4824.0,0.6000000000000001,2.9000000000000004,-1.7000000000000002,8.200000000000001,-1.6,2.6,-47.400000000000006,26.000000000000004,-14.400000000000002,16
282,4841.0,0.7000000000000001,2.7,-1.5,8.200000000000001,-1.6,2.6,-47.400000000000006,26.000000000000004,-14.400000000000002,16
283,4857.0,0.7000000000000001,2.2,-1.2000000000000002,8.3,-2.4000000000000004,3.1,-54.800000000000004,28.400000000000002,-20.3,16
284,4874.0,0.8,1.6,-0.8,8.3,-2.9000000000000004,3.4000000000000004,-60.7,31.9,-23.900000000000006,16
285,4891.0,0.7000000000000001,1.0,-0.7000000000000001,8.3,-3.5,3.5,-63.900000000000006,35.2,-22.1,16
286,4908.0,0.7000000000000001,0.7000000000000001,-0.6000000000000001,8.3,-3.9000000000000004,3.6,-63.900000000000006,35.2,-22.1,16
287,4924.0,0.9,0.30000000000000004,-0.4,8.5,-4.5,3.9000000000000004,-63.30000000000001,32.400000000000006,-16.1,16
288,4941.0,1.2000000000000002,-0.30000000000000004,0.2,8.9,-4.9,4.4,-53.50000000000001,16.0,4.5,16
289,4957.0,1.5,-0.5,0.5,8.9,-4.9,4.4,-53.50000000000001,16.0,4.5,16
290,4974.0,1.9000000000000001,-0.9,1.0,9.5,-5.7,5.1000000000000005,-40.4,4.0,18.1,16
291,4991.0,2.2,-0.9,1.1,9.8,-5.7,5.1000000000000005,-3.5,-26.400000000000006,52.900000000000006,16
292,5012.0,3.2,-0.30000000000000004,1.1,10.8,-5.300000000000001,4.9,17.9,-45.5,68.5,16
293,5024.0,4.0,0.0,1.0,12.200000000000001,-4.9,4.7,17.9,-45.5,68.5,16
294,5041.0,5.5,0.4,0.7000000000000001,13.200000000000001,-4.800000000000001,4.3,38.7,-65.7,75.9,16
295,5059.0,5.9,0.8,0.2,13.4,-4.4,3.8000000000000003,60.900000000000006,-88.50000000000001,75.5,16
296,5074.0,5.9,1.2000000000000002,0.0,13.4,-4.4,3.8000000000000003,60.900000000000006,-88.50000000000001,75.5,16
297,5092.0,5.800000000000001,2.4000000000000004,0.0,13.3,-2.6,3.5,60.400000000000006,-89.70000000000002,72.0,16
298,5110.0,5.800000000000001,3.7,0.0,13.4,-1.6,3.3000000000000003,56.400000000000006,-85.0,47.3,16
299,5124.0,5.800000000000001,4.1000000000000005,-0.1,13.4,-1.6,3.3000000000000003,56.400000000000006,-85.0,47.3,16
300,5145.0,5.6000000000000005,3.8000000000000003,-0.1,13.4,-1.5,3.0,44.300000000000004,-83.89999999999999,-6.0,16
301,5161.0,5.0,3.2,0.30000000000000004,12.5,-2.5,3.7,44.300000000000004,-83.89999999999999,-6.0,16
302,5174.0,3.5,1.7000000000000002,1.5,11.4,-3.6,4.5,32.8,-64.7,-48.9,16
303,5191.0,2.8000000000000003,1.0,1.9000000000000001,11.4,-3.6,4.5,32.8,-64.7,-48.9,16
304,5212.0,1.4000000000000001,-0.2,2.0,9.9,-4.9,4.9,42.900000000000006,-47.0,-57.1,16
305,5227.0,1.2000000000000002,-0.30000000000000004,2.0,9.600000000000001,-4.9,4.7,51.9,-44.8,-55.7,16
306,5242.0,0.8,-0.2,1.6,9.3,-4.6000000000000005,4.3,61.300000000000004,-46.9,-55.0,16
307,5258.0,0.5,-0.1,1.3,9.0,-4.2,3.8000000000000003,61.300000000000004,-46.9,-55.0,16
308,5274.0,0.2,0.2,0.8,8.9,-3.7,3.4000000000000004,68.60000000000001,-52.400000000000006,-55.3,16
309,5291.0,0.0,0.4,0.4,9.0,-3.5,3.0,69.9,-64.80000000000001,-63.70000000000001,16
310,5307.0,0.0,0.2,0.4,9.0,-3.5,3.0,69.9,-64.80000000000001,-63.70000000000001,16
311,5324.0,-0.1,-0.30000000000000004,0.8,8.9,-3.8000000000000003,3.2,63.10000000000001,-64.80000000000001,-70.8,16
312,5341.0,-0.6000000000000001,-0.8,0.7000000000000001,8.700000000000001,-3.9000000000000004,3.0,44.7,-53.400000000000006,-84.2,16
313,5358.0,-0.9,-1.3,0.8,8.5,-4.1000000000000005,3.1,34.7,-48.70000000000001,-89.4,16
314,5374.0,-1.1,-1.6,1.0,8.200000000000001,-4.4,3.1,34.7,-48.70000000000001,-89.4,16
315,5391.0,-1.5,-2.1,1.1,8.0,-4.5,3.1,24.400000000000002,-42.1,-92.50000000000001,16
316,5407.0,-1.7000000000000002,-2.5,1.1,7.9,-4.6000000000000005,3.2,5.1000000000000005,-31.7,-96.0,16
317,5424.0,-1.9000000000000001,-2.8000000000000003,1.4000000000000001,7.9,-4.6000000000000005,3.2,5.1000000000000005,-31.7,-96.0,16
318,5442.0,-2.4000000000000004,-3.0,1.7000000000000002,7.1000000000000005,-4.6000000000000005,3.5,-2.8,-24.400000000000002,-95.9,16
319,5457.0,-2.9000000000000004,-3.2,1.7000000000000002,6.7,-4.6000000000000005,3.5,-13.200000000000003,-9.5,-92.50000000000001,16
320,5478.0,-3.4000000000000004,-3.5,1.9000000000000001,6.4,-4.6000000000000005,3.7,-17.0,-0.30000000000000004,-88.8,16
321,5491.0,-3.5,-3.6,2.0,6.2,-4.6000000000000005,3.8000000000000003,-17.0,-0.30000000000000004,-88.8,16
322,5507.0,-3.5,-4.0,1.7000000000000002,6.300000000000001,-4.9,3.6,-18.900000000000002,8.700000000000001,-84.6,16
323,5524.0,-3.1,-4.9,1.6,6.6000000000000005,-5.6000000000000005,3.6,-20.2,15.5,-77.1,16
324,5543.0,-3.2,-5.7,1.4000000000000001,6.5,-6.1000000000000005,3.4000000000000004,-21.8,18.700000000000003,-70.2,16
325,5557.0,-3.4000000000000004,-6.0,1.2000000000000002,6.300000000000001,-6.5,3.2,-21.8,18.700000000000003,-70.2,16
326,5574.0,-3.4000000000000004,-6.4,0.9,6.300000000000001,-6.7,3.0,-28.400000000000002,20.2,-45.7,16
327,5593.0,-3.1,-6.7,0.6000000000000001,6.6000000000000005,-6.9,2.8000000000000003,-35.0,19.799999999999997,-31.3,16
328,5609.0,-2.9000000000000004,-6.800000000000001,0.6000000000000001,6.9,-7.2,2.8000000000000003,-35.0,19.799999999999997,-31.3,16
329,5628.0,-2.2,-7.1000000000000005,0.4,7.6000000000000005,-7.5,2.7,-43.70000000000001,21.6,-16.8,16
330,5643.0,-1.4000000000000001,-7.5,0.2,8.1,-8.0,2.7,-65.4,26.9,9.100000000000001,16
331,5658.0,-1.2000000000000002,-7.6000000000000005,0.2,8.1,-8.0,2.7,-65.4,26.9,9.100000000000001,16
332,5675.0,-1.4000000000000001,-7.4,0.30000000000000004,7.800000000000001,-7.800000000000001,3.0,-77.3,31.0,23.099999999999998,16
333,5691.0,-2.3000000000000003,-5.9,0.5,6.9,-6.6000000000000005,3.3000000000000003,-89.5,36.8,62.0,16
334,5708.0,-2.4000000000000004,-3.8000000000000003,1.2000000000000002,7.0,-5.2,3.9000000000000004,-80.8,29.700000000000006,82.3,16
335,5724.0,-1.9000000000000001,-3.1,1.5,8.0,-4.4,4.5,-80.8,29.700000000000006,82.3,16
336,5742.0,-0.4,-2.1,2.1,9.200000000000001,-4.0,4.9,-60.900000000000006,18.1,95.80000000000001,16
337,5761.0,1.1,-1.7000000000000002,2.1,10.4,-4.0,4.7,-2.5,-1.4,100.2,16
338,5780.0,1.7000000000000002,-1.6,1.7000000000000002,11.100000000000001,-4.2,3.9000000000000004,24.7,-6.300000000000001,96.0,16
339,5791.0,2.2,-1.6,0.30000000000000004,11.200000000000001,-4.4,2.5,24.7,-6.300000000000001,96.0,16
340,5807.0,1.9000000000000001,-1.4000000000000001,-1.4000000000000001,10.700000000000001,-4.3,1.1,40.300000000000004,-15.000000000000002,85.80000000000001,16
341,5824.0,1.2000000000000002,-0.7000000000000001,-2.5,10.100000000000001,-3.9000000000000004,0.2,23.0,-16.5,83.10000000000001,16
342,5846.0,0.7000000000000001,0.2,-2.6,9.600000000000001,-3.3000000000000003,0.1,-4.300000000000001,-14.0,80.50000000000001,16
343,5858.0,0.7000000000000001,0.6000000000000001,-2.1,9.4,-2.8000000000000003,0.8,-4.300000000000001,-14.0,80.50000000000001,16
344,5874.0,0.6000000000000001,1.3,-1.0,9.200000000000001,-2.5,1.7000000000000002,-58.1,9.5,68.3,16
345,5891.0,0.4,1.6,-0.5,8.8,-2.2,2.5,-58.1,9.5,68.3,16
346,5908.0,-0.1,2.1,0.4,8.200000000000001,-2.1,3.1,-74.0,23.5,59.699999999999996,16
347,5924.0,-0.6000000000000001,2.2,1.0,7.9,-2.2,3.6,-79.6,36.6,46.199999999999996,16
348,5941.0,-0.6000000000000001,2.2,1.3,7.9,-2.2,3.6,-79.6,36.6,46.199999999999996,16
349,5957.0,-0.7000000000000001,1.9000000000000001,1.9000000000000001,7.4,-2.7,4.5,-71.30000000000001,38.300000000000004,41.900000000000006,16
350,5977.0,-1.0,2.0,1.9000000000000001,7.2,-2.8000000000000003,4.4,-57.699999999999996,40.1,40.1,16
351,5991.0,-0.9,2.1,1.2000000000000002,7.300000000000001,-2.7,3.8000000000000003,-26.700000000000003,36.5,43.4,16
352,6007.0,-0.6000000000000001,2.2,0.8,7.7,-2.8000000000000003,3.1,-26.700000000000003,36.5,43.4,16
353,6024.0,0.0,2.2,0.1,8.1,-2.9000000000000004,2.7,-17.300000000000004,30.9,44.2,16
354,6041.0,0.4,2.3000000000000003,-0.4,8.3,-2.8000000000000003,2.4000000000000004,-14.0,27.0,43.300000000000004,16
355,6058.0,0.7000000000000001,2.5,-0.6000000000000001,8.3,-2.8000000000000003,2.4000000000000004,-14.0,27.0,43.300000000000004,16
356,6074.0,1.3,2.6,-0.8,9.200000000000001,-2.8000000000000003,2.1,-17.7,27.9,42.0,16
357,6091.0,1.9000000000000001,2.5,-0.7000000000000001,9.600000000000001,-3.0,2.2,-21.8,29.500000000000004,39.50000000000001,16
358,6108.0,2.4000000000000004,2.3000000000000003,-0.8,10.0,-3.3000000000000003,2.1,-25.5,36.5,34.60000000000001,16
359,6127.0,2.8000000000000003,1.9000000000000001,-1.0,10.3,-3.7,1.9000000000000001,-27.5,38.1,32.7,16
360,6141.0,2.9000000000000004,1.6,-1.1,10.4,-4.3,1.9000000000000001,-27.5,38.1,32.7,16
361,6157.0,3.2,0.8,-0.9,10.600000000000001,-5.1000000000000005,2.1,-26.300000000000004,24.5,38.400000000000006,16
362,6174.0,3.7,0.1,-0.5,11.0,-5.800000000000001,2.5,-17.1,4.7,49.4,16
363,6192.0,4.1000000000000005,-0.2,-0.1,11.700000000000001,-6.300000000000001,3.2,-17.1,4.7,49.4,16
364,6209.0,5.2,0.0,0.7000000000000001,12.700000000000001,-6.0,3.7,-1.7,-17.6,65.6,16
365,6224.0,5.800000000000001,0.5,0.9,12.700000000000001,-6.0,3.7,18.5,-36.2,83.80000000000001,16
366,6244.0,8.1,2.5,0.7000000000000001,15.0,-4.0,3.5,57.3,-69.80000000000001,95.20000000000002,16
367,6257.0,8.8,3.1,0.4,16.0,-3.1,3.1,57.3,-69.80000000000001,95.20000000000002,16
368,6276.0,9.5,4.2,0.2,16.5,-2.3000000000000003,3.0,64.50000000000001,-77.00000000000001,60.2,16
369,6293.0,9.5,4.9,0.30000000000000004,16.5,-1.6,3.1,58.400000000000006,-65.5,28.3,16
370,6308.0,9.200000000000001,5.1000000000000005,0.30000000000000004,15.9,-1.4000000000000001,3.0,58.400000000000006,-65.5,28.3,16
371,6324.0,8.0,4.7,0.0,15.0,-1.8,2.6,48.9,-47.7,-8.0,16
372,6340.0,6.6000000000000005,3.5,-0.5,14.0,-2.9000000000000004,2.2,19.300000000000004,-15.299999999999999,-74.80000000000001,16
373,6357.0,6.0,2.6,-0.5,13.100000000000001,-4.2,2.4000000000000004,19.300000000000004,-15.299999999999999,-74.80000000000001,16
374,6374.0,4.5,0.7000000000000001,-0.1,12.0,-5.4,2.7,5.6,-10.200000000000001,-97.2,16
375,6391.0,3.0,-0.6000000000000001,0.4,10.9,-6.2,3.2,-5.0,-13.8,-109.2,16
376,6408.0,2.3000000000000003,-1.1,0.7000000000000001,10.9,-6.2,3.2,-5.0,-13.8,-109.2,16
377,6424.0,1.4000000000000001,-1.4000000000000001,1.3,9.600000000000001,-6.300000000000001,4.0,-0.30000000000000004,-22.3,-102.10000000000001,16
378,6440.0,0.7000000000000001,-1.3,1.6,9.3,-5.9,4.2,9.700000000000001,-36.0,-93.4,16
379,6458.0,0.30000000000000004,-0.9,2.0,9.1,-5.4,4.4,34.2,-66.3,-81.3,16
380,6474.0,0.1,-0.7000000000000001,2.2,8.9,-4.9,4.6000000000000005,34.2,-66.3,-81.3,16
381,6492.0,-0.30000000000000004,-0.6000000000000001,2.4000000000000004,8.8,-4.6000000000000005,4.5,45.3,-76.80000000000001,-80.7,16
382,6509.0,-0.5,-0.6000000000000001,2.5,8.8,-4.4,4.5,55.1,-77.60000000000001,-87.40000000000002,16
383,6527.0,-0.6000000000000001,-0.7000000000000001,2.5,8.8,-4.4,4.5,55.1,-77.60000000000001,-87.40000000000002,16
384,6542.0,-0.7000000000000001,-1.3,2.7,8.8,-4.7,4.4,54.199999999999996,-70.3,-94.4,16
385,6559.0,-1.0,-2.0,2.6,8.5,-5.0,4.2,45.400000000000006,-44.300000000000004,-108.2,16
386,6575.0,-1.6,-2.6,2.2,8.1,-5.2,3.9000000000000004,38.50000000000001,-31.2,-112.0,16
387,6591.0,-1.9000000000000001,-3.0,2.1,7.6000000000000005,-5.5,3.6,38.50000000000001,-31.2,-112.0,16
388,6608.0,-2.5,-3.5,1.8,7.2,-5.5,3.4000000000000004,30.9,-20.400000000000002,-112.7,16
389,6624.0,-3.0,-3.8000000000000003,1.7000000000000002,6.800000000000001,-5.5,3.3000000000000003,16.700000000000003,-7.6,-108.3,16
390,6642.0,-3.5,-4.0,1.6,6.4,-5.300000000000001,3.3000000000000003,11.000000000000002,-2.9,-104.2,16
391,6657.0,-3.7,-4.0,1.7000000000000002,6.0,-5.1000000000000005,3.3000000000000003,11.000000000000002,-2.9,-104.2,16
392,6674.0,-4.2,-4.1000000000000005,1.6,5.7,-4.9,3.3000000000000003,2.6,7.300000000000001,-95.20000000000002,16
393,6691.0,-4.6000000000000005,-4.2,1.6,5.300000000000001,-4.800000000000001,3.3000000000000003,0.2,13.100000000000001,-90.70000000000002,16
394,6708.0,-4.800000000000001,-4.2,1.5,4.9,-4.7,3.1,0.2,13.100000000000001,-90.70000000000002,16
395,6727.0,-5.1000000000000005,-4.5,1.2000000000000002,4.800000000000001,-4.9,2.9000000000000004,-1.4,17.5,-85.60000000000001,16
396,6746.0,-5.0,-5.2,0.8,4.800000000000001,-5.300000000000001,2.7,-5.9,20.0,-72.10000000000001,16
397,6757.0,-4.9,-5.6000000000000005,0.7000000000000001,4.800000000000001,-5.300000000000001,2.7,-5.9,20.0,-72.10000000000001,16
398,6774.0,-4.7,-6.300000000000001,0.7000000000000001,5.1000000000000005,-6.300000000000001,2.7,-9.100000000000001,20.1,-61.10000000000001,16
399,6791.0,-4.3,-6.7,0.6000000000000001,5.5,-6.6000000000000005,2.6,-14.300000000000002,23.3,-30.3,16
400,6807.0,-3.5,-6.9,0.1,6.1000000000000005,-6.800000000000001,2.3000000000000003,-19.0,25.5,-13.700000000000001,16
401,6824.0,-3.1,-7.0,-0.1,7.0,-6.9,1.9000000000000001,-19.0,25.5,-13.700000000000001,16
402,6841.0,-1.8,-7.0,-0.8,8.1,-7.1000000000000005,1.4000000000000001,-26.700000000000003,29.400000000000002,1.3,16
403,6858.0,-0.5,-7.4,-1.4000000000000001,9.1,-7.7,0.9,-50.60000000000001,33.400000000000006,20.400000000000002,16
404,6874.0,-0.1,-7.7,-1.8,9.1,-7.7,0.9,-50.60000000000001,33.400000000000006,20.400000000000002,16
405,6891.0,-0.6000000000000001,-7.800000000000001,-2.7,8.1,-8.0,-0.2,-72.4,36.6,28.500000000000004,16
406,6907.0,-2.6,-6.5,-2.6,6.5,-7.0,0.30000000000000004,-132.8,44.8,66.60000000000001,16
407,6924.0,-3.2,-5.6000000000000005,-2.0,6.5,-7.0,0.30000000000000004,-132.8,44.8,66.60000000000001,16
408,6941.0,-2.4000000000000004,-4.2,0.0,7.7,-5.7,3.7,-146.9,34.1,95.30000000000001,16
409,6957.0,-0.30000000000000004,-3.6,2.3000000000000003,9.5,-5.7,5.4,-138.50000000000003,13.200000000000003,118.60000000000001,16
410,6974.0,2.0,-2.9000000000000004,3.9000000000000004,11.5,-5.5,6.5,-60.2,-27.800000000000004,141.8,16
411,6991.0,3.2,-2.6,4.2,11.5,-5.5,6.5,-60.2,-27.800000000000004,141.8,16
412,7009.0,4.5,-2.2,3.4000000000000004,13.5,-5.6000000000000005,5.0,-3.4,-40.9,139.70000000000002,16
413,7024.0,4.0,-1.9000000000000001,1.3,12.600000000000001,-5.4,3.2,71.10000000000001,-55.7,123.00000000000001,16
414,7041.0,2.6,-0.8,-0.2,11.4,-4.7,2.1,73.5,-56.9,121.70000000000002,16
415,7058.0,2.4000000000000004,-0.1,-0.30000000000000004,11.200000000000001,-3.7,1.9000000000000001,73.5,-56.9,121.70000000000002,16
416,7074.0,2.8000000000000003,1.3,-0.5,11.5,-2.7,1.5,66.4,-47.60000000000001,121.6,16
417,7098.0,3.0,2.7,-1.3,11.5,-1.9000000000000001,0.8,27.700000000000003,1.5,97.60000000000001,16
418,7107.0,3.0,3.2,-1.8,11.5,-1.9000000000000001,0.8,27.700000000000003,1.5,97.60000000000001,16
419,7124.0,2.8000000000000003,4.0,-2.3000000000000003,10.8,-0.9,0.1,-6.600000000000001,33.2,75.5,16
420,7143.0,2.0,4.1000000000000005,-2.2,10.0,-1.0,0.30000000000000004,-72.9,84.2,27.099999999999998,16
421,7157.0,1.5,4.0,-2.0,10.0,-1.0,0.30000000000000004,-72.9,84.2,27.099999999999998,16
422,7174.0,0.6000000000000001,3.4000000000000004,-1.8,8.3,-2.0,0.8,-92.10000000000001,95.5,8.600000000000001,16
423,7191.0,-0.1,2.8000000000000003,-1.8,7.800000000000001,-2.6,0.9,-103.49999999999999,98.7,-3.2,16
424,7208.0,-0.5,2.2,-1.6,7.4,-3.1,1.1,-114.3,87.00000000000001,-9.700000000000001,16
425,7224.0,-0.7000000000000001,2.0,-1.4000000000000001,7.0,-3.5,1.5,-114.3,87.00000000000001,-9.700000000000001,16
426,7241.0,-1.0,1.9000000000000001,-0.9,6.800000000000001,-3.5,1.9000000000000001,-115.60000000000001,77.00000000000001,-6.300000000000001,16
427,7257.0,-1.0,2.0,-0.4,6.9,-3.4000000000000004,2.3000000000000003,-110.9,52.400000000000006,5.0,16
428,7274.0,-0.9,2.1,-0.1,6.9,-3.4000000000000004,2.3000000000000003,-110.9,52.400000000000006,5.0,16
429,7290.0,-0.6000000000000001,2.1,0.5,7.2,-3.6,3.2,-106.4,39.8,9.3,16
430,7308.0,-0.30000000000000004,2.0,1.1,7.5,-3.9000000000000004,3.5,-100.5,29.200000000000003,13.700000000000001,16
431,7324.0,0.2,1.5,1.5,7.9,-4.4,3.7,-87.00000000000001,11.700000000000001,25.200000000000003,16
432,7340.0,0.6000000000000001,1.3,1.7000000000000002,8.5,-5.0,4.0,-87.00000000000001,11.700000000000001,25.200000000000003,16
433,7358.0,1.5,0.7000000000000001,2.4000000000000004,9.3,-5.7,4.6000000000000005,-80.0,1.5,33.400000000000006,16
434,7374.0,2.5,0.0,3.3000000000000003,10.200000000000001,-6.300000000000001,5.300000000000001,-55.8,-27.9,58.60000000000001,16
435,7391.0,3.9000000000000004,-0.2,4.3,10.200000000000001,-6.300000000000001,5.300000000000001,-34.7,-46.50000000000001,75.2,16
436,7407.0,4.7,0.0,4.800000000000001,12.8,-6.300000000000001,6.6000000000000005,-34.7,-46.50000000000001,75.2,16
437,7424.0,6.800000000000001,1.0,5.6000000000000005,14.5,-5.300000000000001,7.2,-8.899999999999999,-64.50000000000001,89.8,16
438,7440.0,8.9,2.6,5.9,16.1,-4.1000000000000005,7.300000000000001,47.3,-78.9,85.60000000000001,16
439,7457.0,9.8,3.3000000000000003,5.9,17.3,-3.2,7.2,47.3,-78.9,85.60000000000001,16
440,7474.0,10.5,4.2,5.7,17.5,-2.7,7.1000000000000005,68.4,-70.3,58.3,16
441,7490.0,9.8,4.4,4.9,16.6,-2.5,6.4,91.90000000000002,-18.5,-22.2,16
442,7508.0,7.6000000000000005,3.8000000000000003,3.3000000000000003,14.8,-2.8000000000000003,5.2,94.3,11.000000000000002,-56.800000000000004,16
443,7524.0,6.4,3.4000000000000004,2.4000000000000004,13.100000000000001,-3.3000000000000003,3.9000000000000004,94.3,11.000000000000002,-56.800000000000004,16
444,7540.0,4.5,2.4000000000000004,0.7000000000000001,11.8,-4.0,3.0,90.9,32.8,-81.4,16
445,7557.0,3.1,1.0,0.1,10.9,-4.9,2.9000000000000004,80.60000000000001,36.0,-107.9,16
446,7574.0,2.5,0.30000000000000004,0.1,10.100000000000001,-5.9,3.2,80.60000000000001,36.0,-107.9,16
447,7590.0,1.4000000000000001,-1.3,0.4,9.3,-6.9,3.6,84.69999999999999,21.300000000000004,-110.5,16
448,7607.0,0.2,-2.6,0.5,8.4,-7.6000000000000005,3.7,113.7,-23.700000000000003,-93.3,16
449,7624.0,-0.9,-3.4000000000000004,0.5,7.6000000000000005,-7.9,3.7,132.1,-51.300000000000004,-75.1,16
450,7641.0,-1.4000000000000001,-3.4000000000000004,0.5,7.1000000000000005,-7.5,3.7,132.1,-51.300000000000004,-75.1,16
451,7657.0,-1.9000000000000001,-2.9000000000000004,0.4,7.0,-6.800000000000001,3.5,149.4,-77.9,-54.300000000000004,16
452,7674.0,-1.8,-2.5,0.30000000000000004,7.0,-6.800000000000001,3.5,163.5,-100.4,-35.3,16
453,7693.0,-1.2000000000000002,-1.7000000000000002,0.1,8.200000000000001,-5.0,3.0,171.8,-116.9,-23.900000000000006,16
454,7709.0,-0.6000000000000001,-1.1,0.0,8.700000000000001,-4.4,2.7,174.6,-127.40000000000002,-21.900000000000002,16
455,7724.0,-0.30000000000000004,-0.9,-0.1,9.0,-4.1000000000000005,2.4000000000000004,162.10000000000002,-125.7,-37.7,16
456,7741.0,-0.30000000000000004,-0.9,-0.30000000000000004,9.0,-4.1000000000000005,2.4000000000000004,145.10000000000002,-115.3,-49.699999999999996,16
457,7757.0,-0.6000000000000001,-1.2000000000000002,-0.4,8.8,-4.0,1.8,145.10000000000002,-115.3,-49.699999999999996,16
458,7774.0,-1.0,-1.5,-0.5,8.6,-4.1000000000000005,1.6,122.39999999999999,-100.4,-60.7,16
459,7790.0,-1.2000000000000002,-1.9000000000000001,-0.30000000000000004,8.5,-4.2,1.6,68.1,-64.80000000000001,-77.80000000000001,16
460,7807.0,-1.3,-2.1,-0.2,8.4,-4.3,1.6,68.1,-64.80000000000001,-77.80000000000001,16
461,7824.0,-1.6,-2.5,0.0,8.200000000000001,-4.5,1.8,41.300000000000004,-46.7,-85.30000000000001,16
462,7840.0,-1.9000000000000001,-3.1,0.2,7.9,-4.6000000000000005,2.0,-5.7,-13.100000000000001,-98.0,16
463,7858.0,-2.2,-3.3000000000000003,0.4,7.9,-4.6000000000000005,2.0,-5.7,-13.100000000000001,-98.0,16
464,7874.0,-2.8000000000000003,-3.7,0.7000000000000001,6.800000000000001,-4.800000000000001,2.6,-23.099999999999998,1.9,-101.9,16
465,7890.0,-3.7,-4.0,0.9,6.1000000000000005,-4.7,2.7,-35.699999999999996,16.700000000000003,-103.10000000000001,16
466,7908.0,-4.3,-4.0,0.7000000000000001,5.5,-4.6000000000000005,2.6,-46.0,37.2,-97.50000000000001,16
467,7924.0,-4.4,-4.2,0.5,5.4,-4.9,2.4000000000000004,-46.0,37.2,-97.50000000000001,16
468,7941.0,-4.4,-5.2,0.30000000000000004,5.4,-5.6000000000000005,2.3000000000000003,-48.2,39.1,-93.00000000000001,16
469,7957.0,-4.4,-6.2,0.0,5.4,-6.4,2.3000000000000003,-55.0,38.800000000000004,-78.7,16
470,7974.0,-4.4,-6.800000000000001,0.0,5.4,-6.4,2.3000000000000003,-55.0,38.800000000000004,-78.7,16
471,7990.0,-4.6000000000000005,-7.6000000000000005,-0.1,5.0,-7.800000000000001,2.3000000000000003,-59.20000000000001,37.6,-65.3,16
472,8007.0,-4.5,-8.200000000000001,-0.2,5.0,-8.200000000000001,2.4000000000000004,-69.80000000000001,32.2,-22.9,16
473,8025.0,-4.7,-8.1,-0.2,4.9,-8.0,2.4000000000000004,-75.5,31.5,4.7,16
474,8040.0,-4.5,-7.7,-0.5,5.5,-7.6000000000000005,2.1,-75.5,31.5,4.7,16
475,8057.0,-3.2,-7.2,-0.5,6.6000000000000005,-7.6000000000000005,2.3000000000000003,-81.2,25.1,31.2,16
476,8074.0,-2.1,-6.9,0.0,7.4,-7.800000000000001,2.8000000000000003,-90.19999999999999,12.100000000000001,67.8,16
477,8091.0,-1.9000000000000001,-6.9,0.2,7.4,-7.800000000000001,2.8000000000000003,-90.19999999999999,12.100000000000001,67.8,16
478,8107.0,-2.1,-6.5,0.8,7.1000000000000005,-7.800000000000001,3.9000000000000004,-90.19999999999999,9.100000000000001,85.60000000000001,16
479,8124.0,-2.1,-5.5,1.7000000000000002,7.300000000000001,-7.2,4.6000000000000005,-66.4,-4.4,137.60000000000002,16
480,8141.0,-0.9,-3.9000000000000004,2.3000000000000003,8.4,-6.300000000000001,4.9,-36.2,-20.1,162.9,16
481,8157.0,0.2,-3.2,2.3000000000000003,10.3,-5.7,4.7,-36.2,-20.1,162.9,16
482,8174.0,2.7,-2.0,1.8,12.200000000000001,-5.2,4.0,0.30000000000000004,-40.6,178.3,16
483,8190.0,3.8000000000000003,-1.5,1.5,12.200000000000001,-5.2,4.0,35.699999999999996,-62.4,180.39999999999998,16
484,8207.0,5.2,-0.8,0.7000000000000001,13.600000000000001,-4.9,3.3000000000000003,62.7,-79.5,170.50000000000003,16
485,8224.0,5.4,0.0,0.0,13.9,-4.2,1.8,76.1,-87.2,154.2,16
486,8240.0,5.0,1.0,-0.4,13.4,-3.6,1.5,55.8,-72.60000000000001,119.7,16
487,8258.0,4.7,1.4000000000000001,-0.4,13.4,-3.6,1.5,55.8,-72.60000000000001,119.7,16
488,8274.0,4.3,2.3000000000000003,-0.1,12.5,-2.6,2.0,25.300000000000004,-46.800000000000004,101.7,16
489,8290.0,3.9000000000000004,3.0,0.5,12.0,-2.2,2.6,-10.1,-11.6,81.3,16
490,8307.0,3.0,3.4000000000000004,1.2000000000000002,11.0,-2.0,3.2,-65.3,65.0,32.8,16
491,8324.0,1.6,3.3000000000000003,1.6,9.8,-2.1,3.6,-74.30000000000001,90.70000000000002,13.5,16
492,8342.0,0.9,3.2,1.4000000000000001,8.5,-2.4000000000000004,3.4000000000000004,-74.30000000000001,90.70000000000002,13.5,16
493,8357.0,-0.30000000000000004,2.9000000000000004,0.9,7.5,-2.6,3.0,-66.7,112.80000000000001,-2.4000000000000004,16
494,8374.0,-0.8,2.9000000000000004,0.5,7.5,-2.6,3.0,-66.7,112.80000000000001,-2.4000000000000004,16
495,8390.0,-1.3,2.7,-0.30000000000000004,6.5,-2.9000000000000004,2.0,-57.60000000000001,108.39999999999999,-1.3,16
496,8409.0,-1.4000000000000001,2.5,-0.9,6.4,-3.2,1.7000000000000002,-48.800000000000004,96.1,2.1,16
497,8425.0,-1.3,2.2,-1.1,6.4,-3.5,1.7000000000000002,-35.1,61.50000000000001,9.700000000000001,16
498,8441.0,-1.3,2.0,-1.1,6.4,-3.5,1.7000000000000002,-35.1,61.50000000000001,9.700000000000001,16
499,8463.0,-1.1,1.6,-1.0,6.4,-4.0,1.9000000000000001,-25.900000000000002,32.6,22.8,16
500,8478.0,-0.9,1.5,-0.9,6.7,-4.3,2.0,-23.6,23.099999999999998,32.1,16
501,8491.0,-0.30000000000000004,1.6,-0.7000000000000001,7.2,-4.2,2.2,-23.3,19.9,42.1,16
502,8507.0,0.2,1.8,-0.7000000000000001,8.1,-4.1000000000000005,2.1,-23.3,19.9,42.1,16
503,8526.0,1.8,1.9000000000000001,-0.8,9.4,-4.4,2.1,-25.1,17.9,48.2,16
504,8541.0,3.1,1.3,-0.4,10.3,-5.0,2.5,-34.7,15.299999999999999,45.8,16
505,8557.0,3.5,1.0,-0.1,10.3,-5.0,2.5,-34.7,15.299999999999999,45.8,16
506,8576.0,4.2,0.4,0.5,11.4,-6.2,3.3000000000000003,-36.0,15.399999999999999,45.9,16
507,8593.0,4.800000000000001,0.2,0.8,11.9,-6.300000000000001,3.5,-22.6,3.5,57.1,16
508,8607.0,5.300000000000001,0.30000000000000004,0.9,11.9,-6.300000000000001,3.5,-22.6,3.5,57.1,16
509,8624.0,6.300000000000001,0.9,1.2000000000000002,13.600000000000001,-5.6000000000000005,3.9000000000000004,-9.100000000000001,-10.200000000000001,64.0,16
510,8642.0,7.5,1.8,1.3,14.5,-4.9,3.9000000000000004,7.500000000000001,-24.200000000000003,66.80000000000001,16
511,8664.0,8.5,2.5,1.1,15.3,-4.4,3.7,40.800000000000004,-47.2,49.4,16
512,8675.0,8.8,3.0,0.9,15.600000000000001,-4.0,3.5,52.5,-48.50000000000001,31.400000000000002,16
513,8693.0,8.5,3.3000000000000003,0.6000000000000001,14.9,-3.4000000000000004,3.0,52.5,-48.50000000000001,31.400000000000002,16
514,8709.0,7.300000000000001,4.2,-0.5,14.0,-2.5,1.9000000000000001,58.0,-30.000000000000004,-5.8,16
515,8728.0,6.4,4.7,-1.9000000000000001,13.5,-2.0,0.8,46.4,-24.1,-28.3,16
516,8743.0,6.2,4.5,-2.4000000000000004,13.100000000000001,-2.4000000000000004,0.30000000000000004,46.4,-24.1,-28.3,16
517,8757.0,5.5,3.3000000000000003,-2.2,12.700000000000001,-3.6,0.8,28.3,-23.700000000000003,-53.50000000000001,16
518,8774.0,4.6000000000000005,1.4000000000000001,-1.0,12.100000000000001,-4.9,1.8,3.1,-26.5,-91.10000000000001,16
519,8791.0,4.0,0.7000000000000001,-0.5,11.100000000000001,-5.800000000000001,2.5,3.1,-26.5,-91.10000000000001,16
520,8807.0,2.6,-0.2,0.1,10.4,-6.1000000000000005,2.8000000000000003,3.8,-28.200000000000003,-96.7,16
521,8824.0,1.9000000000000001,-0.7000000000000001,0.4,10.0,-6.2,2.9000000000000004,16.700000000000003,-43.1,-92.90000000000002,16
522,8840.0,1.5,-0.8,0.5,10.0,-6.2,2.9000000000000004,16.700000000000003,-43.1,-92.90000000000002,16
523,8857.0,0.7000000000000001,-0.7000000000000001,1.0,9.1,-5.6000000000000005,3.5,24.400000000000002,-52.400000000000006,-89.70000000000002,16
524,8876.0,0.2,-0.4,1.3,8.9,-5.2,3.6,33.1,-59.9,-86.2,16
525,8891.0,0.0,-0.30000000000000004,1.4000000000000001,8.9,-5.2,3.6,47.5,-67.2,-85.20000000000002,16
526,8910.0,-0.30000000000000004,-0.4,1.6,8.8,-4.6000000000000005,3.6,51.0,-66.80000000000001,-87.60000000000001,16
527,8924.0,-0.4,-0.5,1.6,8.700000000000001,-4.6000000000000005,3.5,51.0,-66.80000000000001,-87.60000000000001,16
528,8943.0,-0.6000000000000001,-1.0,1.5,8.700000000000001,-4.800000000000001,3.3000000000000003,51.2,-59.5,-95.30000000000001,16
529,8959.0,-0.9,-1.5,1.4000000000000001,8.5,-4.9,3.1,48.10000000000001,-54.699999999999996,-98.60000000000001,16
530,8974.0,-1.1,-1.7000000000000002,1.4000000000000001,8.4,-5.1000000000000005,3.0,48.10000000000001,-54.699999999999996,-98.60000000000001,16
531,8990.0,-1.4000000000000001,-2.2,1.3,8.200000000000001,-5.2,2.8000000000000003,44.300000000000004,-50.5,-101.20000000000002,16
532,9007.0,-1.6,-2.8000000000000003,1.3,8.1,-5.4,2.7,32.6,-42.2,-104.60000000000001,16
533,9027.0,-2.0,-3.2,1.3,7.9,-5.5,2.7,24.3,-36.0,-105.20000000000002,16
534,9042.0,-2.3000000000000003,-3.4000000000000004,1.3,7.4,-5.4,2.6,24.3,-36.0,-105.20000000000002,16
535,9059.0,-2.8000000000000003,-3.5,1.3,7.1000000000000005,-5.2,2.6,4.9,-21.300000000000004,-103.8,16
536,9074.0,-3.0,-3.6,1.3,7.1000000000000005,-5.2,2.6,4.9,-21.300000000000004,-103.8,16
537,9094.0,-3.3000000000000003,-3.8000000000000003,1.4000000000000001,6.6000000000000005,-5.1000000000000005,2.7,-5.4,-12.5,-102.89999999999999,16
538,9107.0,-3.5,-4.2,1.4000000000000001,6.5,-5.300000000000001,2.7,-14.900000000000002,-2.6,-102.10000000000001,16
539,9126.0,-3.5,-5.1000000000000005,1.4000000000000001,6.6000000000000005,-5.9,2.7,-30.3,12.299999999999999,-99.2,16
540,9141.0,-3.4000000000000004,-5.7,1.4000000000000001,6.6000000000000005,-6.7,2.7,-30.3,12.299999999999999,-99.2,16
541,9157.0,-3.5,-6.800000000000001,1.3,6.300000000000001,-7.4,2.8000000000000003,-36.400000000000006,18.3,-94.2,16
542,9174.0,-3.8000000000000003,-7.6000000000000005,1.2000000000000002,6.1000000000000005,-7.800000000000001,2.6,-45.7,29.700000000000006,-70.0,16
543,9191.0,-3.8000000000000003,-8.1,0.8,6.0,-8.200000000000001,2.4000000000000004,-51.2,30.799999999999997,-52.60000000000001,16
544,9208.0,-3.9000000000000004,-8.200000000000001,0.6000000000000001,5.800000000000001,-8.200000000000001,2.2,-51.2,30.799999999999997,-52.60000000000001,16
545,9224.0,-4.0,-8.0,0.4,5.9,-8.1,2.2,-58.60000000000001,31.3,-33.2,16
546,9242.0,-3.5,-7.800000000000001,0.5,6.4,-8.0,2.5,-75.3,31.400000000000002,6.0,16
547,9257.0,-3.2,-7.7,0.7000000000000001,6.7,-8.0,2.7,-75.3,31.400000000000002,6.0,16
548,9274.0,-3.1,-7.4,0.7000000000000001,6.6000000000000005,-7.9,2.8000000000000003,-81.2,35.1,21.8,16
549,9291.0,-3.4000000000000004,-6.800000000000001,0.8,6.1000000000000005,-7.5,3.0,-84.5,42.7,58.5,16
550,9310.0,-3.9000000000000004,-5.6000000000000005,0.8,5.7,-6.800000000000001,3.1,-76.1,39.300000000000004,83.2,16
551,9336.0,-3.0,-4.3,0.9,6.300000000000001,-6.1000000000000005,3.3000000000000003,-59.00000000000001,25.300000000000004,108.10000000000001,16
552,9340.0,-2.0,-3.9000000000000004,1.0,7.9,-5.7,3.3000000000000003,-59.00000000000001,25.300000000000004,108.10000000000001,16
553,9358.0,0.2,-3.2,1.0,9.700000000000001,-5.6000000000000005,3.3000000000000003,-6.4,-15.899999999999999,134.70000000000002,16
554,9377.0,2.2,-2.9000000000000004,0.8,11.3,-5.7,3.0,20.3,-32.300000000000004,134.9,16
555,9391.0,2.7,-2.8000000000000003,0.5,12.100000000000001,-5.800000000000001,2.3000000000000003,20.3,-32.300000000000004,134.9,16
556,9407.0,3.1,-2.5,-0.5,12.100000000000001,-5.800000000000001,1.4000000000000001,49.6,-48.50000000000001,124.39999999999999,16
557,9424.0,2.6,-1.7000000000000002,-1.4000000000000001,11.5,-5.4,0.6000000000000001,41.900000000000006,-49.4,119.60000000000002,16
558,9440.0,2.1,-1.2000000000000002,-1.5,10.700000000000001,-4.7,0.6000000000000001,41.900000000000006,-49.4,119.60000000000002,16
559,9457.0,1.6,0.0,-0.8,10.5,-4.1000000000000005,1.3,-2.4000000000000004,-30.1,115.20000000000002,16
560,9474.0,1.8,1.0,0.4,10.4,-3.5,2.2,-23.400000000000002,-7.300000000000001,109.2,16
561,9493.0,1.8,1.6,0.9,10.3,-2.9000000000000004,3.0,-23.400000000000002,-7.300000000000001,109.2,16
562,9510.0,1.6,2.5,1.5,9.9,-2.3000000000000003,3.3000000000000003,-37.2,19.200000000000003,98.7,16
563,9524.0,1.2000000000000002,3.3000000000000003,1.3,9.4,-1.9000000000000001,3.1,-41.6,57.1,70.10000000000001,16
564,9541.0,1.0,3.5,1.1,9.4,-1.9000000000000001,3.1,-37.6,63.10000000000001,55.3,16
565,9557.0,0.5,3.3000000000000003,0.4,8.4,-2.4000000000000004,2.3000000000000003,-37.6,63.10000000000001,55.3,16
566,9574.0,0.1,2.7,-0.1,7.9,-3.0,2.0,-32.0,62.900000000000006,37.1,16
567,9591.0,-0.4,2.3000000000000003,-0.4,7.5,-3.4000000000000004,1.8,-30.9,58.60000000000001,36.300000000000004,16
568,9607.0,-0.5,2.1,-0.5,7.2,-3.8000000000000003,1.9000000000000001,-30.9,58.60000000000001,36.300000000000004,16
569,9624.0,-0.6000000000000001,1.9000000000000001,-0.5,7.2,-4.0,1.9000000000000001,-29.400000000000002,52.2,39.9,16
570,9641.0,-0.2,1.9000000000000001,-0.6000000000000001,7.4,-4.0,1.8,-25.200000000000003,39.1,53.50000000000001,16
571,9657.0,0.1,2.0,-0.6000000000000001,7.4,-4.0,1.8,-25.200000000000003,39.1,53.50000000000001,16
572,9677.0,0.7000000000000001,2.4000000000000004,-0.6000000000000001,8.200000000000001,-3.6,1.9000000000000001,-24.8,34.7,59.80000000000001,16
573,9690.0,1.5,2.8000000000000003,-0.8,9.0,-3.5,1.7000000000000002,-26.5,29.500000000000004,65.7,16
574,9707.0,2.1,2.9000000000000004,-0.8,9.0,-3.5,1.7000000000000002,-26.5,29.500000000000004,65.7,16
575,9725.0,3.9000000000000004,2.2,-0.4,10.8,-4.4,2.1,-30.4,22.2,59.60000000000001,16
576,9743.0,4.3,1.9000000000000001,-0.30000000000000004,11.4,-5.1000000000000005,2.2,-30.4,22.2,59.60000000000001,16
577,9758.0,5.2,1.2000000000000002,-0.2,12.100000000000001,-5.7,2.3000000000000003,-26.000000000000004,5.2,59.9,16
578,9776.0,6.300000000000001,0.7000000000000001,0.30000000000000004,12.9,-6.300000000000001,2.7,-19.700000000000003,-10.5,64.10000000000001,16
579,9790.0,6.800000000000001,0.6000000000000001,0.7000000000000001,13.8,-6.5,3.3000000000000003,-19.700000000000003,-10.5,64.10000000000001,16
580,9810.0,8.0,0.9,1.5,14.8,-6.2,3.8000000000000003,5.4,-41.7,73.8,16
581,9825.0,9.200000000000001,1.8,1.9000000000000001,15.8,-5.5,4.1000000000000005,22.6,-53.300000000000004,72.4,16
582,9844.0,10.0,3.3000000000000003,2.1,16.400000000000002,-4.3,4.3,39.0,-56.6,62.300000000000004,16
583,9857.0,10.200000000000001,4.2,2.0,16.8,-2.8000000000000003,4.0,39.0,-56.6,62.300000000000004,16
584,9874.0,10.600000000000001,5.5,1.5,17.2,-1.8,3.6,59.00000000000001,-44.9,6.8,16
585,9892.0,10.600000000000001,5.7,1.2000000000000002,17.2,-1.8,3.6,59.00000000000001,-44.9,6.8,16
586,9907.0,9.200000000000001,5.1000000000000005,0.30000000000000004,15.4,-2.4000000000000004,2.4000000000000004,58.800000000000004,-31.799999999999997,-37.1,16
587,9924.0,7.0,3.5,-0.6000000000000001,13.8,-3.7,1.7000000000000002,36.400000000000006,-1.3,-109.00000000000001,16
588,9940.0,4.800000000000001,1.6,-1.1,12.200000000000001,-5.0,1.4000000000000001,22.9,6.8,-124.3,16
589,9957.0,3.8000000000000003,0.8,-1.2000000000000002,10.700000000000001,-5.800000000000001,1.4000000000000001,22.9,6.8,-124.3,16
590,9974.0,2.0,-0.2,-1.0,9.600000000000001,-6.300000000000001,1.7000000000000002,14.5,6.2,-127.80000000000001,16
591,9990.0,0.9,-0.8,-0.5,9.1,-6.4,2.2,17.5,-23.2,-113.4,16
592,10007.0,0.7000000000000001,-1.0,-0.1,9.1,-6.4,2.2,17.5,-23.2,-113.4,16
593,10026.0,0.30000000000000004,-1.0,0.8,8.9,-6.1000000000000005,3.5,29.300000000000004,-45.2,-104.00000000000001,16
594,10041.0,0.1,-1.0,1.4000000000000001,8.9,-5.800000000000001,3.8000000000000003,65.2,-83.30000000000001,-92.10000000000001,16
595,10059.0,-0.2,-1.0,1.6,8.8,-5.4,3.7,79.6,-94.3,-90.0,16
596,10075.0,-0.30000000000000004,-0.9,1.5,8.8,-5.1000000000000005,3.4000000000000004,79.6,-94.3,-90.0,16
597,10091.0,-0.30000000000000004,-0.9,1.3,9.0,-4.9,3.1,86.60000000000001,-99.00000000000001,-89.70000000000002,16
598,10107.0,-0.2,-1.1,1.2000000000000002,9.200000000000001,-4.800000000000001,2.9000000000000004,77.80000000000001,-92.3,-97.00000000000001,16
599,10124.0,-0.30000000000000004,-1.3,1.2000000000000002,9.200000000000001,-4.9,2.8000000000000003,77.80000000000001,-92.3,-97.00000000000001,16
600,10141.0,-0.5,-1.8,1.3,9.1,-4.9,2.7,66.0,-82.39999999999999,-102.5,16
601,10158.0,-0.9,-2.3000000000000003,1.3,8.9,-5.1000000000000005,2.6,36.2,-56.10000000000001,-111.9,16
602,10175.0,-1.2000000000000002,-2.8000000000000003,1.3,8.700000000000001,-5.2,2.4000000000000004,19.700000000000003,-42.2,-115.10000000000002,16
603,10191.0,-1.4000000000000001,-3.0,1.4000000000000001,8.5,-5.300000000000001,2.6,19.700000000000003,-42.2,-115.10000000000002,16
604,10209.0,-1.7000000000000002,-3.6,1.6,8.200000000000001,-5.5,2.8000000000000003,4.4,-29.500000000000004,-117.60000000000001,16
605,10225.0,-2.3000000000000003,-4.0,1.9000000000000001,7.7,-5.5,3.0,-15.899999999999999,-7.500000000000001,-119.0,16
606,10243.0,-3.1,-4.3,2.0,7.1000000000000005,-5.4,3.1,-20.599999999999998,1.2000000000000002,-116.5,16
607,10258.0,-3.4000000000000004,-4.4,2.1,6.5,-5.300000000000001,3.2,-20.599999999999998,1.2000000000000002,-116.5,16
608,10274.0,-3.9000000000000004,-4.7,2.1,6.1000000000000005,-5.300000000000001,3.2,-21.8,11.2,-105.9,16
609,10291.0,-4.1000000000000005,-5.1000000000000005,2.0,6.0,-5.4,3.2,-19.799999999999997,13.399999999999999,-98.7,16
610,10307.0,-4.1000000000000005,-5.300000000000001,2.0,6.1000000000000005,-5.7,3.1,-19.799999999999997,13.399999999999999,-98.7,16
611,10326.0,-3.7,-6.1000000000000005,1.7000000000000002,6.4,-6.2,3.0,-16.700000000000003,13.100000000000001,-91.6,16
612,10341.0,-3.5,-7.0,1.5,6.5,-6.800000000000001,2.8000000000000003,-11.6,10.8,-75.4,16
613,10357.0,-3.5,-7.300000000000001,1.4000000000000001,6.4,-7.1000000000000005,2.6,-11.6,10.8,-75.4,16
614,10374.0,-3.7,-7.7,0.9,6.2,-7.4,2.1,-12.4,12.200000000000001,-63.70000000000001,16
615,10390.0,-3.8000000000000003,-7.9,0.30000000000000004,6.1000000000000005,-7.4,1.7000000000000002,-26.6,17.6,-33.300000000000004,16
616,10407.0,-3.8000000000000003,-7.800000000000001,0.1,6.1000000000000005,-7.4,1.7000000000000002,-26.6,17.6,-33.300000000000004,16
617,10424.0,-3.5,-7.6000000000000005,-0.30000000000000004,6.6000000000000005,-7.2,1.3,-40.0,22.3,-17.0,16
618,10441.0,-2.7,-7.6000000000000005,-0.4,7.2,-7.300000000000001,1.3,-54.6,26.200000000000003,-2.9,16
619,10457.0,-2.4000000000000004,-7.7,-0.4,7.300000000000001,-7.6000000000000005,1.5,-79.3,32.9,16.6,16
620,10474.0,-2.6,-7.800000000000001,-0.30000000000000004,6.6000000000000005,-8.0,1.7000000000000002,-79.3,32.9,16.6,16
621,10490.0,-3.7,-7.9,0.0,5.5,-7.9,2.1,-87.10000000000001,34.300000000000004,32.5,16
622,10507.0,-4.7,-6.7,0.30000000000000004,5.0,-7.1000000000000005,2.4000000000000004,-86.1,26.9,93.60000000000001,16
623,10526.0,-3.5,-5.4,0.7000000000000001,6.2,-6.5,2.8000000000000003,-73.30000000000001,8.8,124.7,16
624,10541.0,-2.3000000000000003,-4.9,1.2000000000000002,8.1,-6.300000000000001,3.6,-73.30000000000001,8.8,124.7,16
625,10557.0,-0.1,-4.3,2.1,9.8,-6.4,4.3,-53.0,-10.700000000000001,145.7,16
626,10574.0,0.9,-4.2,2.5,9.8,-6.4,4.3,-26.1,-24.900000000000002,158.10000000000002,16
627,10592.0,2.4000000000000004,-4.0,2.4000000000000004,12.100000000000001,-6.800000000000001,4.0,6.0,-34.1,165.5,16
628,10607.0,3.2,-3.5,1.6,12.3,-6.6000000000000005,3.1,37.9,-41.1,170.40000000000003,16
629,10624.0,3.2,-2.3000000000000003,0.6000000000000001,12.200000000000001,-5.9,2.1,78.80000000000001,-50.5,177.4,16
630,10640.0,3.1,-0.5,-0.2,12.200000000000001,-5.9,2.1,82.3,-50.400000000000006,176.9,16
631,10657.0,3.1,0.30000000000000004,-0.5,11.700000000000001,-3.8000000000000003,1.1,82.3,-50.400000000000006,176.9,16
632,10674.0,3.2,1.8,-0.7000000000000001,11.700000000000001,-2.9000000000000004,1.0,75.7,-43.4,172.00000000000003,16
633,10690.0,3.3000000000000003,3.0,-0.8,11.600000000000001,-2.3000000000000003,1.0,40.9,-7.400000000000001,147.7,16
634,10707.0,3.5,3.5,-0.8,11.600000000000001,-1.7000000000000002,1.1,40.9,-7.400000000000001,147.7,16
635,10724.0,3.7,4.4,-0.6000000000000001,11.5,-1.4000000000000001,1.4000000000000001,20.1,13.000000000000002,129.5,16
636,10741.0,3.4000000000000004,4.7,-0.2,10.9,-1.4000000000000001,1.8,-5.2,38.800000000000004,85.5,16
637,10757.0,3.0,4.6000000000000005,0.0,10.9,-1.4000000000000001,1.8,-5.2,38.800000000000004,85.5,16
638,10774.0,2.3000000000000003,4.2,0.0,9.600000000000001,-2.3000000000000003,2.0,-7.300000000000001,43.800000000000004,69.10000000000001,16
639,10791.0,1.9000000000000001,3.8000000000000003,-0.30000000000000004,9.3,-2.7,1.9000000000000001,-6.600000000000001,45.5,59.00000000000001,16
640,10808.0,1.9000000000000001,3.6,-0.6000000000000001,9.200000000000001,-2.9000000000000004,1.7000000000000002,-9.5,46.0,51.300000000000004,16
641,10824.0,2.0,3.6,-0.6000000000000001,9.4,-2.9000000000000004,1.7000000000000002,-9.5,46.0,51.300000000000004,16
642,10841.0,2.5,3.8000000000000003,-0.8,9.600000000000001,-2.7,1.5,-13.900000000000002,47.7,48.6,16
643,10857.0,2.7,4.1000000000000005,-1.1,9.700000000000001,-2.5,1.3,-27.6,53.9,36.400000000000006,16
644,10874.0,2.7,4.2,-1.3,9.700000000000001,-2.5,1.3,-27.6,53.9,36.400000000000006,16
645,10890.0,3.1,4.1000000000000005,-1.3,10.200000000000001,-2.9000000000000004,1.3,-37.0,55.60000000000001,29.0,16
646,10907.0,3.9000000000000004,3.4000000000000004,-1.0,10.8,-3.7,1.6,-53.10000000000001,52.7,14.800000000000002,16
647,10924.0,4.1000000000000005,2.9000000000000004,-0.7000000000000001,10.8,-3.7,1.6,-55.5,51.70000000000001,11.900000000000002,16
648,10940.0,4.6000000000000005,2.1,-0.2,11.600000000000001,-5.1000000000000005,2.3000000000000003,-55.5,51.70000000000001,11.900000000000002,16
649,10957.0,5.4,1.4000000000000001,0.0,12.5,-5.800000000000001,2.6,-53.300000000000004,46.300000000000004,12.7,16
650,10977.0,6.4,0.8,0.5,12.5,-5.800000000000001,2.6,-37.2,20.2,18.4,16
651,10996.0,7.0,0.9,1.2000000000000002,13.700000000000001,-6.1000000000000005,3.5,-21.8,7.9,22.000000000000004,16
652,11013.0,7.6000000000000005,1.7000000000000002,1.2000000000000002,14.200000000000001,-5.5,3.6,-2.6,-6.600000000000001,22.700000000000003,16
653,11026.0,8.0,2.1,1.1,14.9,-4.800000000000001,3.5,16.5,-22.000000000000004,17.5,16
654,11042.0,8.5,3.0,1.1,15.3,-4.1000000000000005,3.5,33.300000000000004,-31.9,4.9,16
655,11057.0,8.5,3.4000000000000004,1.1,15.4,-3.4000000000000004,3.5,33.300000000000004,-31.9,4.9,16
656,11074.0,8.1,3.8000000000000003,0.8,14.9,-2.9000000000000004,3.0,48.800000000000004,-36.5,-13.200000000000003,16
657,11090.0,6.800000000000001,4.1000000000000005,-0.5,13.8,-2.5,1.8,65.4,-32.0,-57.00000000000001,16
658,11107.0,6.0,4.2,-1.4000000000000001,13.8,-2.5,1.8,65.4,-32.0,-57.00000000000001,16
659,11128.0,5.0,3.7,-2.6,12.5,-3.0,-0.1,57.1,-33.6,-78.80000000000001,16
660,11145.0,4.3,2.2,-2.1,12.200000000000001,-4.1000000000000005,0.7000000000000001,18.5,-40.5,-121.30000000000001,16
661,11161.0,3.4000000000000004,0.30000000000000004,-0.7000000000000001,11.600000000000001,-5.300000000000001,1.7000000000000002,4.5,-35.0,-135.7,16
662,11174.0,2.8000000000000003,-0.6000000000000001,-0.30000000000000004,10.8,-6.4,2.2,4.5,-35.0,-135.7,16
663,11191.0,1.5,-2.0,0.0,9.9,-7.1000000000000005,2.4000000000000004,-3.2,-25.6,-142.7,16
664,11209.0,0.4,-2.9000000000000004,0.6000000000000001,9.200000000000001,-7.4,2.8000000000000003,-4.4,-15.299999999999999,-134.6,16
665,11224.0,-0.1,-3.1,0.7000000000000001,9.200000000000001,-7.4,2.8000000000000003,0.8,-12.600000000000001,-124.10000000000001,16
666,11241.0,-0.8,-2.9000000000000004,0.8,8.3,-6.7,2.9000000000000004,0.8,-12.600000000000001,-124.10000000000001,16
667,11257.0,-1.1,-2.6,0.8,8.3,-6.1000000000000005,2.9000000000000004,14.200000000000001,-20.3,-106.0,16
668,11274.0,-1.1,-2.5,0.8,8.3,-6.1000000000000005,2.9000000000000004,14.200000000000001,-20.3,-106.0,16
669,11292.0,-1.3,-2.4000000000000004,1.1,8.200000000000001,-5.6000000000000005,3.2,20.400000000000002,-27.400000000000002,-102.2,16
670,11307.0,-1.6,-2.6,1.3,8.0,-5.5,3.3000000000000003,26.300000000000004,-33.800000000000004,-99.9,16
671,11325.0,-1.9000000000000001,-2.9000000000000004,1.4000000000000001,7.800000000000001,-5.5,3.3000000000000003,34.60000000000001,-40.5,-95.0,16
672,11341.0,-2.3000000000000003,-3.2,1.7000000000000002,7.800000000000001,-5.5,3.3000000000000003,36.8,-39.599999999999994,-91.6,16
673,11357.0,-2.5,-3.4000000000000004,1.8,7.300000000000001,-5.5,3.5,36.8,-39.599999999999994,-91.6,16
674,11374.0,-2.8000000000000003,-3.6,1.7000000000000002,7.1000000000000005,-5.4,3.3000000000000003,37.800000000000004,-31.6,-84.1,16
675,11391.0,-2.9000000000000004,-3.6,1.6,6.9,-5.2,3.1,34.7,-25.900000000000002,-80.4,16
676,11407.0,-3.3000000000000003,-3.7,1.5,6.5,-5.0,3.0,34.7,-25.900000000000002,-80.4,16
677,11424.0,-3.6,-3.6,1.4000000000000001,6.300000000000001,-4.800000000000001,2.9000000000000004,31.2,-19.6,-76.89999999999999,16
678,11441.0,-4.0,-3.5,1.3,6.0,-4.5,2.8000000000000003,24.1,-8.100000000000001,-70.7,16
679,11457.0,-4.2,-3.5,1.2000000000000002,6.0,-4.5,2.8000000000000003,24.1,-8.100000000000001,-70.7,16
680,11474.0,-4.4,-3.7,1.0,5.6000000000000005,-4.5,2.5,21.200000000000003,-3.4,-67.7,16
681,11490.0,-4.2,-4.4,0.8,5.9,-5.2,2.3000000000000003,14.600000000000001,-1.3,-61.599999999999994,16
682,11507.0,-3.8000000000000003,-5.6000000000000005,0.7000000000000001,6.1000000000000005,-6.0,2.3000000000000003,9.600000000000001,0.9000000000000001,-56.10000000000001,16
683,11526.0,-3.7,-6.1000000000000005,0.7000000000000001,6.2,-6.800000000000001,2.2,4.1,4.9,-46.7,16
684,11540.0,-3.7,-7.0,0.5,6.2,-7.300000000000001,1.9000000000000001,4.1,4.9,-46.7,16
685,11557.0,-3.5,-7.300000000000001,-0.1,6.300000000000001,-7.6000000000000005,1.5,-15.700000000000001,14.300000000000002,-16.8,16
686,11574.0,-3.4000000000000004,-7.4,-0.4,6.4,-7.6000000000000005,1.1,-15.700000000000001,14.300000000000002,-16.8,16
687,11591.0,-3.2,-7.300000000000001,-0.7000000000000001,6.9,-7.7,1.1,-33.0,16.8,-0.7,16
688,11607.0,-2.3000000000000003,-7.4,-0.5,7.6000000000000005,-8.1,1.4000000000000001,-74.4,21.400000000000002,26.5,16
689,11624.0,-1.9000000000000001,-7.6000000000000005,-0.2,7.6000000000000005,-8.1,1.4000000000000001,-74.4,21.400000000000002,26.5,16
690,11641.0,-1.7000000000000002,-8.3,0.4,7.7,-9.4,2.5,-92.60000000000001,26.5,37.300000000000004,16
691,11657.0,-2.6,-8.200000000000001,1.0,6.6000000000000005,-9.3,3.2,-106.60000000000001,34.50000000000001,53.10000000000001,16
692,11674.0,-3.8000000000000003,-6.6000000000000005,1.6,5.800000000000001,-8.200000000000001,3.8000000000000003,-107.9,39.8,112.9,16
693,11691.0,-3.5,-5.5,2.0,6.6000000000000005,-6.800000000000001,4.5,-107.9,39.8,112.9,16
694,11707.0,-1.5,-3.4000000000000004,2.7,8.6,-5.7,5.0,-86.5,23.3,145.8,16
695,11724.0,1.2000000000000002,-2.0,3.1,10.9,-5.1000000000000005,5.2,-5.4,-24.900000000000002,172.29999999999998,16
696,11740.0,3.6,-0.9,2.9000000000000004,12.700000000000001,-4.6000000000000005,4.800000000000001,43.6,-43.300000000000004,164.1,16
697,11757.0,4.2,-0.6000000000000001,2.3000000000000003,13.3,-4.6000000000000005,3.6,43.6,-43.300000000000004,164.1,16
698,11774.0,4.4,-0.4,0.5,12.9,-4.6000000000000005,1.9000000000000001,85.20000000000002,-55.1,148.20000000000002,16
699,11791.0,3.3000000000000003,0.0,-1.3,11.9,-4.5,0.4,107.8,-65.2,117.7,16
700,11807.0,2.7,0.30000000000000004,-1.9000000000000001,10.8,-4.1000000000000005,-0.4,107.8,-65.2,117.7,16
701,11824.0,2.0,1.2000000000000002,-2.3000000000000003,10.4,-3.5,-0.30000000000000004,85.69999999999999,-58.3,110.10000000000001,16
702,11841.0,1.9000000000000001,2.3000000000000003,-1.5,10.3,-2.8000000000000003,0.4,8.5,-10.8,94.9,16
703,11863.0,2.0,3.2,-0.7000000000000001,10.200000000000001,-2.2,1.2000000000000002,-29.1,25.1,81.2,16
704,11876.0,2.0,3.5,-0.30000000000000004,10.0,-1.8,1.9000000000000001,-29.1,25.1,81.2,16
705,11890.0,1.7000000000000002,4.0,0.4,9.600000000000001,-1.7000000000000002,2.5,-58.1,57.400000000000006,64.2,16
706,11907.0,1.2000000000000002,3.8000000000000003,1.0,9.0,-2.0,3.0,-77.20000000000002,89.4,28.3,16
707,11927.0,0.4,3.1,1.1,8.200000000000001,-2.7,3.2,-70.6,93.49999999999999,17.799999999999997,16
708,11940.0,0.0,2.8000000000000003,1.0,7.6000000000000005,-3.3000000000000003,3.0,-70.6,93.49999999999999,17.799999999999997,16
709,11957.0,-0.4,2.3000000000000003,0.30000000000000004,7.300000000000001,-3.7,2.5,-46.300000000000004,85.30000000000001,20.5,16
710,11974.0,-0.4,2.2,-0.1,7.300000000000001,-3.7,2.5,-46.300000000000004,85.30000000000001,20.5,16
711,11991.0,-0.2,2.3000000000000003,-0.7000000000000001,7.5,-3.7,1.7000000000000002,-35.699999999999996,71.7,27.2,16
712,12010.0,0.30000000000000004,2.6,-1.0,7.800000000000001,-3.4000000000000004,1.6,-28.0,56.800000000000004,34.0,16
713,12024.0,0.9,3.1,-1.0,8.200000000000001,-3.1,1.5,-21.200000000000003,34.1,40.300000000000004,16
714,12040.0,1.2000000000000002,3.2,-1.1,8.8,-3.1,1.6,-21.200000000000003,34.1,40.300000000000004,16
715,12058.0,2.1,3.1,-0.9,9.5,-3.5,1.7000000000000002,-22.700000000000003,28.500000000000004,38.50000000000001,16
716,12074.0,3.0,2.3000000000000003,-0.6000000000000001,10.200000000000001,-4.3,2.1,-28.600000000000005,24.5,31.799999999999997,16
717,12091.0,3.7,1.4000000000000001,-0.2,10.8,-5.2,2.4000000000000004,-27.9,23.700000000000003,32.2,16
718,12107.0,4.1000000000000005,1.1,-0.2,11.5,-5.800000000000001,2.4000000000000004,-27.9,23.700000000000003,32.2,16
719,12124.0,5.0,0.7000000000000001,-0.1,12.100000000000001,-6.0,2.5,-23.700000000000003,18.0,36.0,16
720,12140.0,5.800000000000001,1.0,0.0,12.8,-5.800000000000001,2.5,-4.1,-9.5,47.60000000000001,16
721,12157.0,6.4,1.2000000000000002,0.0,13.8,-5.5,2.5,-4.1,-9.5,47.60000000000001,16
722,12174.0,7.6000000000000005,1.7000000000000002,0.1,14.9,-5.0,2.6,8.5,-30.4,49.4,16
723,12190.0,8.700000000000001,2.4000000000000004,0.4,15.700000000000001,-4.6000000000000005,2.8000000000000003,28.0,-57.800000000000004,31.0,16
724,12209.0,9.1,2.5,0.4,16.0,-4.4,2.7,31.0,-57.49999999999999,12.0,16
725,12225.0,8.700000000000001,2.5,0.1,15.200000000000001,-4.3,2.2,31.0,-57.49999999999999,12.0,16
726,12240.0,7.300000000000001,2.8000000000000003,-0.6000000000000001,14.100000000000001,-3.8000000000000003,1.3,27.3,-47.7,-5.300000000000001,16
727,12258.0,6.1000000000000005,3.6,-2.0,13.3,-3.1,0.0,7.699999999999999,-29.900000000000006,-31.5,16
728,12275.0,5.5,4.1000000000000005,-2.7,13.0,-2.5,-0.7000000000000001,-8.600000000000001,-34.7,-49.800000000000004,16
729,12291.0,5.5,3.9000000000000004,-2.3000000000000003,13.100000000000001,-3.0,0.1,-8.600000000000001,-34.7,-49.800000000000004,16
730,12307.0,5.1000000000000005,2.1,-0.5,12.9,-4.5,1.5,-27.9,-45.099999999999994,-96.1,16
731,12324.0,4.7,0.9,0.30000000000000004,12.9,-4.5,1.5,-27.9,-45.099999999999994,-96.1,16
732,12340.0,2.9000000000000004,-0.8,1.6,10.600000000000001,-6.9,3.3000000000000003,-21.500000000000004,-43.4,-108.50000000000001,16
733,12357.0,1.4000000000000001,-1.7000000000000002,1.9000000000000001,9.8,-7.2,3.2,12.200000000000001,-46.1,-101.9,16
734,12374.0,1.0,-1.8,1.7000000000000002,9.8,-7.2,3.2,12.200000000000001,-46.1,-101.9,16
735,12390.0,0.8,-1.4000000000000001,1.7000000000000002,9.8,-6.1000000000000005,3.1,27.2,-54.199999999999996,-93.2,16
736,12407.0,1.1,-0.9,2.1,10.200000000000001,-5.5,3.4000000000000004,39.2,-61.10000000000001,-88.60000000000001,16
737,12424.0,1.0,-0.6000000000000001,2.3000000000000003,10.100000000000001,-5.1000000000000005,3.4000000000000004,56.300000000000004,-56.800000000000004,-96.60000000000001,16
738,12441.0,0.8,-0.6000000000000001,2.3000000000000003,10.100000000000001,-5.1000000000000005,3.4000000000000004,56.300000000000004,-56.800000000000004,-96.60000000000001,16
739,12457.0,0.30000000000000004,-0.8,2.0,9.600000000000001,-4.800000000000001,3.0,59.20000000000001,-48.70000000000001,-103.40000000000002,16
740,12475.0,-0.2,-1.2000000000000002,1.8,9.4,-4.9,2.8000000000000003,55.5,-33.2,-116.69999999999999,16
741,12490.0,-0.6000000000000001,-1.9000000000000001,1.8,9.1,-5.2,2.9000000000000004,51.300000000000004,-25.0,-122.20000000000002,16
742,12509.0,-0.8,-2.4000000000000004,1.8,8.8,-5.6000000000000005,2.8000000000000003,51.300000000000004,-25.0,-122.20000000000002,16
743,12524.0,-1.4000000000000001,-3.1,1.6,8.3,-5.800000000000001,2.5,47.80000000000001,-17.200000000000003,-124.7,16
744,12542.0,-2.0,-3.8000000000000003,1.3,8.0,-6.0,2.3000000000000003,38.300000000000004,-8.600000000000001,-122.30000000000001,16
745,12560.0,-2.5,-4.2,1.1,7.6000000000000005,-6.1000000000000005,2.2,31.9,-7.300000000000001,-119.0,16
746,12577.0,-2.7,-4.4,1.1,7.2,-6.0,2.2,31.9,-7.300000000000001,-119.0,16
747,12597.0,-3.5,-4.5,1.2000000000000002,6.800000000000001,-5.800000000000001,2.3000000000000003,19.400000000000002,-3.9,-110.0,16
748,12607.0,-3.8000000000000003,-4.5,1.2000000000000002,6.300000000000001,-5.5,2.3000000000000003,14.100000000000001,-0.5,-105.4,16
749,12624.0,-4.2,-4.5,1.3,5.800000000000001,-5.2,2.4000000000000004,14.100000000000001,-0.5,-105.4,16
750,12640.0,-4.6000000000000005,-4.6000000000000005,1.2000000000000002,5.5,-5.1000000000000005,2.2,9.2,3.6000000000000005,-100.30000000000001,16
751,12660.0,-4.6000000000000005,-5.1000000000000005,1.0,5.4,-5.5,2.2,0.0,9.4,-90.4,16
752,12676.0,-4.7,-6.0,0.9,5.4,-6.0,2.1,-4.6,11.8,-83.5,16
753,12691.0,-4.6000000000000005,-6.5,0.8,5.4,-6.7,2.0,-4.6,11.8,-83.5,16
754,12710.0,-4.6000000000000005,-7.4,0.6000000000000001,5.300000000000001,-7.2,1.9000000000000001,-15.700000000000001,15.899999999999999,-60.1,16
755,12728.0,-4.6000000000000005,-7.9,0.30000000000000004,5.300000000000001,-7.6000000000000005,1.7000000000000002,-25.200000000000003,18.5,-42.900000000000006,16
756,12742.0,-4.7,-8.0,0.1,5.2,-7.6000000000000005,1.4000000000000001,-25.200000000000003,18.5,-42.900000000000006,16
757,12757.0,-4.6000000000000005,-7.800000000000001,-0.30000000000000004,5.4,-7.5,1.1,-38.1,21.8,-23.6,16
758,12775.0,-3.9000000000000004,-7.6000000000000005,-0.30000000000000004,6.0,-7.5,1.3,-73.9,24.5,10.299999999999999,16
759,12791.0,-3.5,-7.7,-0.1,6.0,-7.5,1.3,-73.9,24.5,10.299999999999999,16
760,12807.0,-3.0,-8.4,0.6000000000000001,6.6000000000000005,-8.8,2.6,-90.19999999999999,27.099999999999998,21.400000000000002,16
761,12824.0,-3.5,-8.9,1.3,6.0,-9.4,3.3000000000000003,-107.7,37.50000000000001,51.70000000000001,16
762,12840.0,-4.6000000000000005,-8.4,1.8,4.9,-9.200000000000001,3.8000000000000003,-106.20000000000002,41.7,81.2,16
763,12858.0,-5.0,-7.9,2.0,4.800000000000001,-8.700000000000001,4.2,-106.20000000000002,41.7,81.2,16
764,12874.0,-3.8000000000000003,-6.9,2.3000000000000003,6.4,-8.4,4.5,-95.0,36.7,118.3,16
765,12891.0,-0.9,-5.9,2.7,8.8,-8.200000000000001,4.800000000000001,-43.900000000000006,0.2,179.0,16
766,12908.0,0.6000000000000001,-5.4,2.8000000000000003,8.8,-8.200000000000001,4.800000000000001,-43.900000000000006,0.2,179.0,16
767,12926.0,3.1,-4.7,2.9000000000000004,12.600000000000001,-7.9,4.800000000000001,-5.8,-22.000000000000004,192.1,16
768,12943.0,4.3,-3.9000000000000004,2.4000000000000004,13.200000000000001,-7.7,4.1000000000000005,81.3,-58.0,197.10000000000002,16
769,12957.0,4.6000000000000005,-2.9000000000000004,1.1,13.3,-7.2,2.9000000000000004,114.10000000000001,-68.7,196.5,16
770,12974.0,4.5,-2.1,0.30000000000000004,12.9,-6.1000000000000005,1.7000000000000002,114.10000000000001,-68.7,196.5,16
771,12991.0,4.3,-0.1,-1.0,12.600000000000001,-4.800000000000001,0.7000000000000001,130.0,-72.0,193.70000000000002,16
772,13009.0,4.3,1.8,-1.6,12.4,-3.5,0.30000000000000004,107.5,-51.6,174.6,16
773,13024.0,4.4,2.6,-1.7000000000000002,12.5,-2.5,0.30000000000000004,107.5,-51.6,174.6,16
774,13041.0,4.7,3.9000000000000004,-1.6,12.4,-1.9000000000000001,0.6000000000000001,77.7,-25.300000000000004,155.20000000000002,16
775,13057.0,4.7,4.6000000000000005,-1.2000000000000002,12.100000000000001,-1.7000000000000002,1.1,14.100000000000001,39.599999999999994,102.7,16
776,13074.0,4.5,4.7,-0.9,12.100000000000001,-1.7000000000000002,1.1,14.100000000000001,39.599999999999994,102.7,16
777,13090.0,3.7,4.6000000000000005,-0.7000000000000001,10.5,-2.1,1.8,-6.4,66.0,75.8,16
778,13107.0,2.7,4.1000000000000005,-0.8,9.5,-2.6,1.7000000000000002,-16.1,81.90000000000002,53.8,16
779,13124.0,1.8,3.6,-1.3,8.700000000000001,-3.1,1.4000000000000001,-15.8,85.69999999999999,32.5,16
780,13141.0,1.2000000000000002,3.3000000000000003,-1.9000000000000001,8.1,-3.3000000000000003,1.0,-13.8,76.60000000000001,31.5,16
781,13158.0,1.2000000000000002,3.3000000000000003,-2.1,8.0,-3.5,0.8,-13.8,76.60000000000001,31.5,16
782,13174.0,1.3,3.1,-2.2,8.1,-3.6,0.8,-14.400000000000002,51.4,34.900000000000006,16
783,13191.0,1.7000000000000002,3.2,-2.1,8.3,-3.7,1.0,-15.6,41.7,36.1,16
784,13208.0,1.9000000000000001,3.2,-2.0,8.700000000000001,-3.7,1.2000000000000002,-15.6,41.7,36.1,16
785,13224.0,2.6,3.3000000000000003,-1.8,9.200000000000001,-3.7,1.4000000000000001,-17.400000000000002,34.60000000000001,36.1,16
786,13240.0,3.3000000000000003,3.2,-1.5,9.700000000000001,-3.8000000000000003,1.6,-22.3,28.200000000000003,32.9,16
787,13257.0,3.7,3.2,-1.5,10.4,-4.0,1.6,-22.3,28.200000000000003,32.9,16
788,13273.0,4.6000000000000005,3.0,-1.4000000000000001,11.200000000000001,-4.2,1.6,-24.200000000000003,26.799999999999997,30.1,16
789,13291.0,5.4,2.9000000000000004,-1.4000000000000001,11.8,-4.3,1.6,-29.500000000000004,26.400000000000006,21.1,16
790,13308.0,5.800000000000001,2.8000000000000003,-1.4000000000000001,11.8,-4.3,1.6,-32.400000000000006,23.6,14.700000000000001,16
791,13324.0,6.5,2.5,-1.2000000000000002,13.0,-4.800000000000001,1.9000000000000001,-32.400000000000006,23.6,14.700000000000001,16
792,13341.0,7.1000000000000005,2.3000000000000003,-0.8,13.600000000000001,-5.0,2.2,-33.0,19.0,7.699999999999999,16
793,13357.0,7.5,2.1,-0.30000000000000004,13.8,-5.1000000000000005,2.6,-23.2,3.4,-9.2,16
794,13373.0,7.300000000000001,2.2,-0.1,13.5,-4.800000000000001,2.8000000000000003,-23.2,3.4,-9.2,16
795,13394.0,6.9,2.4000000000000004,-0.1,13.4,-4.7,2.7,-13.200000000000003,-3.1,-17.9,16
796,13407.0,6.800000000000001,2.4000000000000004,-0.1,13.5,-4.7,2.7,3.2,-18.200000000000003,-38.60000000000001,16
797,13424.0,6.7,2.3000000000000003,0.0,13.5,-4.7,2.7,3.2,-18.200000000000003,-38.60000000000001,16
798,13441.0,6.4,1.9000000000000001,0.0,13.3,-5.0,2.6,8.8,-20.0,-50.2,16
799,13457.0,6.0,1.5,-0.5,13.100000000000001,-5.2,2.0,14.100000000000001,-19.9,-61.0,16
800,13474.0,5.7,1.3,-0.9,13.100000000000001,-5.2,2.0,16.8,-20.7,-70.6,16
801,13490.0,4.9,1.0,-1.2000000000000002,12.4,-5.5,1.5,15.399999999999999,-27.400000000000002,-79.19999999999999,16
802,13507.0,4.4,0.30000000000000004,-0.8,12.200000000000001,-5.9,1.9000000000000001,13.000000000000002,-39.2,-87.2,16
803,13524.0,3.8000000000000003,-0.5,-0.1,11.8,-6.4,2.4000000000000004,10.8,-60.400000000000006,-100.1,16
804,13543.0,3.0,-1.2000000000000002,0.5,11.4,-6.7,2.8000000000000003,12.200000000000001,-65.2,-102.0,16
805,13559.0,2.6,-1.4000000000000001,0.8,10.9,-6.800000000000001,3.2,12.200000000000001,-65.2,-102.0,16
806,13574.0,1.9000000000000001,-1.6,1.5,10.5,-6.6000000000000005,3.6,15.000000000000002,-68.1,-101.6,16
807,13590.0,1.5,-1.7000000000000002,1.8,10.5,-6.6000000000000005,3.6,20.5,-69.4,-100.30000000000001,16
808,13607.0,0.9,-1.6,2.1,9.9,-5.9,3.8000000000000003,28.400000000000002,-69.00000000000001,-98.60000000000001,16
809,13625.0,0.5,-1.4000000000000001,2.1,9.700000000000001,-5.5,3.7,36.1,-67.3,-98.3,16
810,13641.0,0.0,-1.3,2.1,9.4,-5.2,3.6,46.0,-60.5,-103.7,16
811,13658.0,-0.2,-1.4000000000000001,2.0,9.4,-5.2,3.6,46.0,-60.5,-103.7,16
812,13674.0,-0.5,-1.7000000000000002,1.9000000000000001,9.0,-5.1000000000000005,3.1,47.0,-55.2,-108.39999999999999,16
813,13690.0,-0.9,-2.3000000000000003,1.6,8.8,-5.300000000000001,2.8000000000000003,45.6,-48.70000000000001,-113.1,16
814,13707.0,-1.3,-2.9000000000000004,1.4000000000000001,8.6,-5.5,2.5,37.300000000000004,-38.400000000000006,-120.00000000000001,16
815,13724.0,-1.5,-3.2,1.3,8.3,-5.7,2.4000000000000004,37.300000000000004,-38.400000000000006,-120.00000000000001,16
816,13740.0,-2.0,-3.9000000000000004,1.2000000000000002,7.9,-5.9,2.3000000000000003,31.2,-34.0,-121.2,16
817,13757.0,-2.5,-4.3,1.2000000000000002,7.5,-6.0,2.2,17.200000000000003,-26.200000000000003,-119.1,16
818,13774.0,-2.8000000000000003,-4.6000000000000005,1.2000000000000002,7.5,-6.0,2.2,17.200000000000003,-26.200000000000003,-119.1,16
819,13790.0,-3.4000000000000004,-4.9,1.4000000000000001,6.6000000000000005,-5.9,2.4000000000000004,9.2,-21.500000000000004,-115.7,16
820,13807.0,-4.1000000000000005,-4.9,1.5,6.0,-5.6000000000000005,2.4000000000000004,-5.9,-8.2,-105.0,16
821,13824.0,-4.6000000000000005,-4.9,1.5,5.5,-5.300000000000001,2.5,-12.200000000000001,-1.1,-98.39999999999999,16
822,13842.0,-4.800000000000001,-4.9,1.6,5.1000000000000005,-5.2,2.5,-12.200000000000001,-1.1,-98.39999999999999,16
823,13857.0,-5.2,-5.1000000000000005,1.5,4.800000000000001,-5.2,2.4000000000000004,-17.400000000000002,6.4,-91.90000000000002,16
824,13874.0,-5.300000000000001,-5.6000000000000005,1.2000000000000002,4.7,-5.6000000000000005,2.2,-26.000000000000004,15.899999999999999,-78.3,16
825,13890.0,-5.4,-6.0,1.1,4.7,-5.6000000000000005,2.2,-26.000000000000004,15.899999999999999,-78.3,16
826,13907.0,-5.6000000000000005,-6.9,0.9,4.3,-6.800000000000001,2.1,-31.0,18.6,-69.3,16
827,13924.0,-5.9,-7.7,0.8,3.9000000000000004,-7.300000000000001,2.0,-40.7,21.300000000000004,-38.60000000000001,16
828,13942.0,-6.0,-8.200000000000001,0.6000000000000001,3.9000000000000004,-7.800000000000001,1.9000000000000001,-46.800000000000004,19.300000000000004,-16.5,16
829,13958.0,-5.800000000000001,-8.4,0.5,4.3,-8.1,2.0,-46.800000000000004,19.300000000000004,-16.5,16
830,13974.0,-5.300000000000001,-8.4,0.8,4.7,-8.1,2.2,-54.800000000000004,18.1,7.300000000000001,16
831,13990.0,-4.3,-8.1,0.8,5.6000000000000005,-8.200000000000001,2.3000000000000003,-70.9,23.400000000000002,51.1,16
832,14007.0,-3.8000000000000003,-8.1,0.8,5.6000000000000005,-8.200000000000001,2.3000000000000003,-70.9,23.400000000000002,51.1,16
833,14024.0,-3.2,-8.200000000000001,0.8,6.5,-8.9,2.6,-79.00000000000001,26.6,68.60000000000001,16
834,14042.0,-3.0,-8.0,1.1,6.5,-8.9,3.0,-87.7,28.400000000000002,110.0,16
835,14058.0,-2.8000000000000003,-7.1000000000000005,1.7000000000000002,6.800000000000001,-8.6,3.5,-81.0,22.6,136.3,16
836,14075.0,-1.4000000000000001,-5.9,2.5,7.9,-8.1,4.2,-63.10000000000001,10.600000000000001,161.5,16
837,14090.0,-0.30000000000000004,-5.5,2.7,9.700000000000001,-8.0,4.6000000000000005,-63.10000000000001,10.600000000000001,161.5,16
838,14107.0,2.3000000000000003,-4.800000000000001,2.8000000000000003,11.8,-7.9,4.5,-2.6,-22.8,192.0,16
839,14124.0,3.6,-4.4,2.7,11.8,-7.9,4.5,-2.6,-22.8,192.0,16
840,14141.0,5.5,-3.3000000000000003,2.0,14.8,-7.0,3.2,32.0,-36.9,194.10000000000002,16
841,14157.0,6.5,-1.9000000000000001,0.5,15.3,-6.2,1.8,81.7,-56.0,173.6,16
842,14176.0,6.6000000000000005,-0.4,-0.9,15.0,-5.300000000000001,0.7000000000000001,78.4,-57.800000000000004,153.0,16
843,14190.0,6.1000000000000005,0.2,-1.1,14.0,-4.5,0.6000000000000001,78.4,-57.800000000000004,153.0,16
844,14207.0,5.1000000000000005,1.5,-0.6000000000000001,13.0,-3.7,1.2000000000000002,57.3,-44.7,132.2,16
845,14224.0,4.1000000000000005,2.5,0.2,12.0,-3.1,1.9000000000000001,-4.800000000000001,25.200000000000003,93.2,16
846,14240.0,3.6,2.9000000000000004,0.4,12.0,-3.1,1.9000000000000001,-4.800000000000001,25.200000000000003,93.2,16
847,14257.0,2.4000000000000004,3.1,0.7000000000000001,9.9,-3.0,2.5,-31.099999999999998,64.7,74.89999999999999,16
848,14274.0,1.5,2.9000000000000004,0.5,9.0,-3.3000000000000003,2.5,-53.8,112.7,52.2,16
849,14292.0,0.8,2.7,0.2,8.3,-3.6,2.3000000000000003,-50.0,115.7,48.6,16
850,14307.0,0.5,2.6,-0.1,7.800000000000001,-3.9000000000000004,2.0,-50.0,115.7,48.6,16
851,14324.0,0.30000000000000004,2.5,-0.6000000000000001,7.5,-4.0,1.6,-40.2,107.5,49.6,16
852,14340.0,0.30000000000000004,2.7,-1.4000000000000001,7.4,-3.9000000000000004,1.1,-15.5,69.4,59.5,16
853,14357.0,0.4,2.8000000000000003,-1.7000000000000002,7.4,-3.9000000000000004,1.1,-15.5,69.4,59.5,16
854,14374.0,0.9,3.1,-2.0,7.9,-3.6,0.7000000000000001,-6.8,43.50000000000001,64.10000000000001,16
855,14391.0,1.4000000000000001,3.4000000000000004,-1.9000000000000001,8.200000000000001,-3.5,0.9,-4.300000000000001,9.0,66.9,16
856,14407.0,1.6,3.5,-1.7000000000000002,8.200000000000001,-3.5,0.9,-4.300000000000001,9.0,66.9,16
857,14423.0,2.0,3.8000000000000003,-1.3,8.6,-3.2,1.6,-9.600000000000001,5.2,66.60000000000001,16
858,14440.0,2.6,4.1000000000000005,-0.8,9.1,-3.1,1.9000000000000001,-16.1,7.500000000000001,65.89999999999999,16
859,14457.0,3.4000000000000004,4.2,-0.6000000000000001,9.700000000000001,-3.2,1.9000000000000001,-29.800000000000004,19.799999999999997,59.00000000000001,16
860,14474.0,3.9000000000000004,4.1000000000000005,-0.5,9.700000000000001,-3.2,1.9000000000000001,-29.800000000000004,19.799999999999997,59.00000000000001,16
861,14490.0,4.800000000000001,3.4000000000000004,-0.1,11.200000000000001,-4.4,2.6,-36.2,23.2,53.10000000000001,16
862,14507.0,6.2,2.6,0.5,12.4,-5.2,3.1,-29.1,9.2,48.400000000000006,16
863,14524.0,7.7,2.3000000000000003,1.1,12.4,-5.2,3.1,-12.100000000000001,-4.6,49.9,16
864,14540.0,8.6,2.4000000000000004,0.9,15.3,-5.1000000000000005,3.1,-12.100000000000001,-4.6,49.9,16
865,14557.0,10.700000000000001,3.1,0.5,16.900000000000002,-4.4,2.8000000000000003,5.7,-19.6,47.0,16
866,14574.0,11.3,3.6,0.4,17.6,-3.6,2.7,16.900000000000002,-27.3,5.300000000000001,16
867,14591.0,11.8,4.4,0.30000000000000004,17.900000000000002,-3.5,2.5,16.900000000000002,-27.3,5.300000000000001,16
868,14609.0,11.5,3.6,0.2,17.400000000000002,-4.5,2.6,10.0,-16.700000000000003,-30.9,16
869,14625.0,9.8,2.1,0.30000000000000004,16.0,-5.4,2.6,-9.700000000000001,28.600000000000005,-92.8,16
870,14641.0,7.6000000000000005,1.5,-0.30000000000000004,14.3,-5.6000000000000005,2.1,-12.299999999999999,50.400000000000006,-106.60000000000001,16
871,14657.0,6.5,1.5,-0.9,12.8,-5.2,1.1,-12.299999999999999,50.400000000000006,-106.60000000000001,16
872,14674.0,5.0,1.7000000000000002,-2.1,12.100000000000001,-5.0,0.4,-11.8,55.60000000000001,-114.3,16
873,14691.0,4.3,1.2000000000000002,-2.1,11.8,-5.300000000000001,0.6000000000000001,-11.6,20.5,-133.0,16
874,14707.0,3.9000000000000004,0.6000000000000001,-1.7000000000000002,11.3,-6.2,1.4000000000000001,-11.6,20.5,-133.0,16
875,14723.0,2.9000000000000004,-0.9,-0.6000000000000001,10.5,-7.1000000000000005,2.4000000000000004,-5.1000000000000005,-2.6,-142.20000000000002,16
876,14740.0,1.5,-2.1,0.4,9.600000000000001,-7.6000000000000005,2.9000000000000004,25.200000000000003,-41.1,-141.8,16
877,14757.0,0.2,-2.8000000000000003,0.6000000000000001,8.8,-7.800000000000001,3.0,40.6,-57.3,-133.10000000000002,16
878,14773.0,-0.30000000000000004,-2.9000000000000004,0.7000000000000001,8.200000000000001,-7.6000000000000005,3.1,40.6,-57.3,-133.10000000000002,16
879,14790.0,-1.2000000000000002,-2.8000000000000003,0.9,7.7,-7.1000000000000005,3.2,51.6,-68.2,-122.0,16
880,14807.0,-1.6,-2.5,1.2000000000000002,7.6000000000000005,-6.5,3.4000000000000004,63.599999999999994,-76.0,-100.70000000000002,16
881,14826.0,-1.8,-2.1,1.4000000000000001,7.6000000000000005,-5.9,3.3000000000000003,67.60000000000001,-75.3,-93.60000000000001,16
882,14840.0,-1.8,-2.1,1.3,7.7,-5.6000000000000005,3.2,67.60000000000001,-75.3,-93.60000000000001,16
883,14857.0,-1.9000000000000001,-2.2,1.3,7.7,-5.5,3.1,69.20000000000002,-74.89999999999999,-87.3,16
884,14874.0,-1.9000000000000001,-2.3000000000000003,1.4000000000000001,7.7,-5.5,3.1,69.20000000000002,-74.89999999999999,-87.3,16
885,14891.0,-1.8,-2.8000000000000003,1.6,7.9,-5.800000000000001,3.1,68.60000000000001,-76.1,-86.00000000000001,16
886,14907.0,-2.0,-3.3000000000000003,1.8,7.9,-5.9,3.1,67.10000000000001,-76.1,-84.5,16
887,14924.0,-2.1,-3.5,1.8,7.800000000000001,-5.9,2.9000000000000004,61.10000000000001,-69.3,-78.4,16
888,14940.0,-2.2,-3.6,1.8,7.800000000000001,-5.800000000000001,2.7,61.10000000000001,-69.3,-78.4,16
889,14957.0,-2.3000000000000003,-3.7,1.6,7.7,-5.6000000000000005,2.4000000000000004,54.300000000000004,-64.4,-75.7,16
890,14974.0,-2.4000000000000004,-3.6,1.4000000000000001,7.6000000000000005,-5.300000000000001,2.2,28.900000000000002,-48.10000000000001,-73.9,16
891,14991.0,-2.6,-3.5,1.5,7.5,-5.0,2.1,11.6,-36.400000000000006,-75.3,16
892,15007.0,-2.8000000000000003,-3.5,1.5,7.1000000000000005,-4.9,2.2,11.6,-36.400000000000006,-75.3,16
893,15024.0,-3.3000000000000003,-3.7,1.7000000000000002,6.7,-4.9,2.3000000000000003,-6.0,-22.700000000000003,-77.4,16
894,15044.0,-3.7,-4.1000000000000005,1.9000000000000001,6.4,-5.1000000000000005,2.5,-36.300000000000004,5.9,-77.60000000000001,16
895,15058.0,-3.7,-4.4,1.9000000000000001,6.4,-5.6000000000000005,2.6,-36.300000000000004,5.9,-77.60000000000001,16
896,15077.0,-3.7,-5.4,2.0,6.4,-6.300000000000001,2.7,-46.0,15.399999999999999,-76.4,16
897,15091.0,-3.8000000000000003,-6.4,2.0,6.2,-7.0,2.8000000000000003,-57.400000000000006,26.700000000000003,-65.7,16
898,15109.0,-4.1000000000000005,-7.1000000000000005,1.9000000000000001,6.2,-7.0,2.8000000000000003,-57.400000000000006,26.700000000000003,-65.7,16
899,15125.0,-4.1000000000000005,-7.300000000000001,1.8,5.9,-7.800000000000001,2.8000000000000003,-60.8,28.900000000000002,-52.5,16
900,15142.0,-3.8000000000000003,-7.7,1.7000000000000002,6.2,-8.1,2.9000000000000004,-64.30000000000001,28.3,-35.699999999999996,16
901,15157.0,-3.7,-7.4,1.9000000000000001,6.2,-7.7,3.1,-74.0,30.3,0.30000000000000004,16
902,15174.0,-3.7,-7.0,1.9000000000000001,6.4,-7.4,3.2,-74.0,30.3,0.30000000000000004,16
903,15190.0,-3.1,-6.7,2.0,6.9,-7.300000000000001,3.4000000000000004,-77.1,31.099999999999998,15.5,16
904,15207.0,-2.6,-6.4,2.1,7.2,-7.2,3.6,-78.2,38.1,37.50000000000001,16
905,15224.0,-2.5,-6.1000000000000005,2.1,7.2,-7.2,3.6,-78.2,38.1,37.50000000000001,16
906,15240.0,-2.6,-5.5,2.1,6.9,-6.4,3.8000000000000003,-73.5,42.3,48.50000000000001,16
907,15258.0,-2.8000000000000003,-4.3,2.0,7.0,-5.6000000000000005,3.7,-47.80000000000001,42.0,78.60000000000001,16
908,15274.0,-2.5,-3.7,1.8,7.0,-5.6000000000000005,3.7,-47.80000000000001,42.0,78.60000000000001,16
909,15290.0,-0.9,-3.0,1.4000000000000001,9.600000000000001,-5.1000000000000005,3.1,-26.000000000000004,26.6,93.4,16
910,15307.0,1.2000000000000002,-2.8000000000000003,0.8,11.0,-5.4,2.6,-2.7,5.0,102.60000000000001,16
911,15324.0,2.2,-2.9000000000000004,0.7000000000000001,11.600000000000001,-5.800000000000001,2.4000000000000004,36.8,-38.50000000000001,111.20000000000002,16
912,15340.0,2.4000000000000004,-2.8000000000000003,0.6000000000000001,11.600000000000001,-5.800000000000001,2.4000000000000004,36.8,-38.50000000000001,111.20000000000002,16
913,15357.0,2.9000000000000004,-1.9000000000000001,0.7000000000000001,12.4,-4.800000000000001,2.2,52.60000000000001,-55.1,117.80000000000001,16
914,15374.0,3.7,-0.30000000000000004,0.5,12.9,-3.6,1.9000000000000001,68.5,-64.60000000000001,119.7,16
915,15390.0,3.9000000000000004,0.6000000000000001,0.2,12.9,-3.6,1.9000000000000001,68.5,-64.60000000000001,119.7,16
916,15407.0,4.2,2.4000000000000004,-1.1,13.200000000000001,-1.2000000000000002,-0.5,59.9,-46.800000000000004,109.8,16
917,15424.0,3.8000000000000003,3.6,-2.9000000000000004,12.5,-0.6000000000000001,-1.9000000000000001,37.0,-21.200000000000003,92.10000000000001,16
918,15440.0,2.7,4.0,-3.8000000000000003,11.3,-0.5,-2.3000000000000003,-43.6,31.799999999999997,45.400000000000006,16
919,15457.0,1.9000000000000001,3.9000000000000004,-3.6,11.3,-0.5,-2.3000000000000003,-43.6,31.799999999999997,45.400000000000006,16
920,15473.0,0.30000000000000004,3.4000000000000004,-1.8,8.6,-1.5,0.30000000000000004,-76.3,47.3,27.400000000000002,16
921,15490.0,-1.0,2.6,-0.2,7.6000000000000005,-2.3000000000000003,1.4000000000000001,-79.1,50.1,15.100000000000001,16
922,15508.0,-1.7000000000000002,2.0,0.30000000000000004,6.9,-2.7,1.7000000000000002,-60.6,44.5,20.1,16
923,15523.0,-1.9000000000000001,1.9000000000000001,0.2,6.6000000000000005,-2.9000000000000004,1.6,-60.6,44.5,20.1,16
924,15541.0,-1.9000000000000001,2.0,-0.1,6.800000000000001,-2.9000000000000004,1.5,-41.1,36.1,27.800000000000004,16
925,15559.0,-1.4000000000000001,2.0,-0.1,7.1000000000000005,-3.0,1.5,-10.299999999999999,20.5,41.6,16
926,15577.0,-0.9,1.8,0.0,7.5,-3.3000000000000003,1.7000000000000002,0.9000000000000001,18.3,47.3,16
927,15590.0,-0.7000000000000001,1.7000000000000002,0.0,7.7,-3.6,1.6,0.9000000000000001,18.3,47.3,16
928,15607.0,-0.4,1.7000000000000002,-0.2,7.9,-3.5,1.4000000000000001,17.799999999999997,20.3,64.10000000000001,16
929,15624.0,-0.1,2.0,-0.5,7.9,-3.5,1.4000000000000001,17.799999999999997,20.3,64.10000000000001,16
930,15642.0,0.7000000000000001,2.6,-1.1,9.1,-2.9000000000000004,0.6000000000000001,22.5,18.8,73.10000000000001,16
931,15659.0,1.8,2.9000000000000004,-1.4000000000000001,9.9,-3.0,0.6000000000000001,23.5,13.8,78.60000000000001,16
932,15673.0,2.8000000000000003,2.6,-1.1,10.600000000000001,-3.5,0.9,17.7,1.8000000000000003,78.9,16
933,15692.0,3.5,1.8,-0.6000000000000001,11.100000000000001,-4.3,1.4000000000000001,16.5,-3.6000000000000005,79.7,16
934,15708.0,4.1000000000000005,1.4000000000000001,-0.4,12.0,-5.2,1.8,16.5,-3.6000000000000005,79.7,16
935,15723.0,5.5,0.5,0.0,13.3,-6.0,2.0,19.9,-18.1,85.5,16
936,15740.0,7.4,0.30000000000000004,0.30000000000000004,13.3,-6.0,2.0,23.400000000000002,-24.1,85.5,16
937,15757.0,8.200000000000001,0.7000000000000001,0.5,15.700000000000001,-5.4,2.6,23.400000000000002,-24.1,85.5,16
938,15774.0,8.8,2.1,0.30000000000000004,16.1,-4.5,2.1,29.200000000000003,-23.3,79.5,16
939,15790.0,9.0,2.6,-0.1,16.1,-3.9000000000000004,1.7000000000000002,32.2,-34.1,44.4,16
940,15807.0,8.8,3.2,-0.2,16.1,-3.9000000000000004,1.7000000000000002,32.2,-34.1,44.4,16
941,15824.0,8.200000000000001,3.5,0.5,15.200000000000001,-3.2,2.8000000000000003,25.300000000000004,-34.900000000000006,22.2,16
942,15840.0,7.6000000000000005,3.8000000000000003,1.2000000000000002,14.8,-2.9000000000000004,3.2,17.200000000000003,-13.399999999999999,-24.0,16
943,15858.0,6.6000000000000005,3.8000000000000003,1.0,14.0,-2.8000000000000003,3.0,17.6,1.5,-48.800000000000004,16
944,15874.0,5.9,3.6,0.7000000000000001,13.0,-3.2,2.3000000000000003,17.6,1.5,-48.800000000000004,16
945,15890.0,4.5,2.6,-0.4,12.0,-3.9000000000000004,1.5,17.200000000000003,11.6,-70.7,16
946,15908.0,3.3000000000000003,1.3,-0.8,11.200000000000001,-4.800000000000001,1.3,10.600000000000001,8.5,-100.30000000000001,16
947,15923.0,2.8000000000000003,0.6000000000000001,-0.9,11.200000000000001,-4.800000000000001,1.3,10.600000000000001,8.5,-100.30000000000001,16
948,15940.0,1.5,-0.5,-0.7000000000000001,9.5,-6.1000000000000005,1.6,9.4,0.0,-105.4,16
949,15957.0,0.5,-1.1,-0.30000000000000004,8.9,-6.300000000000001,1.9000000000000001,15.5,-23.400000000000002,-98.3,16
950,15975.0,0.1,-1.3,-0.1,8.9,-6.300000000000001,1.9000000000000001,15.5,-23.400000000000002,-98.3,16
951,15991.0,-0.5,-1.4000000000000001,0.7000000000000001,8.200000000000001,-6.1000000000000005,3.0,23.099999999999998,-36.8,-91.10000000000001,16
952,16011.0,-0.9,-1.2000000000000002,1.3,8.0,-5.6000000000000005,3.3000000000000003,32.8,-46.7,-83.2,16
953,16023.0,-1.2000000000000002,-1.0,1.4000000000000001,7.9,-5.2,3.3000000000000003,52.900000000000006,-53.50000000000001,-72.50000000000001,16
954,16044.0,-1.3,-0.8,1.3,7.9,-4.7,3.0,52.900000000000006,-53.50000000000001,-72.50000000000001,16
955,16057.0,-1.4000000000000001,-0.6000000000000001,1.0,7.9,-4.4,2.6,58.400000000000006,-52.7,-70.6,16
956,16073.0,-1.5,-0.7000000000000001,0.8,7.9,-4.4,2.4000000000000004,57.49999999999999,-48.400000000000006,-73.8,16
957,16090.0,-1.5,-0.8,0.7000000000000001,7.9,-4.4,2.4000000000000004,57.49999999999999,-48.400000000000006,-73.8,16
958,16107.0,-1.7000000000000002,-1.3,0.6000000000000001,7.7,-4.6000000000000005,2.1,53.10000000000001,-45.3,-76.60000000000001,16
959,16124.0,-2.0,-1.7000000000000002,0.6000000000000001,7.6000000000000005,-4.800000000000001,2.1,47.7,-43.4,-78.80000000000001,16
960,16140.0,-2.2,-2.2,0.6000000000000001,7.5,-4.9,2.0,36.0,-38.800000000000004,-79.9,16
961,16157.0,-2.3000000000000003,-2.4000000000000004,0.6000000000000001,7.300000000000001,-5.0,1.9000000000000001,36.0,-38.800000000000004,-79.9,16
962,16173.0,-2.7,-2.7,0.7000000000000001,7.0,-5.0,2.0,27.700000000000003,-35.599999999999994,-79.3,16
963,16190.0,-2.9000000000000004,-2.8000000000000003,0.7000000000000001,7.0,-5.0,2.0,19.0,-31.3,-78.0,16
964,16207.0,-3.3000000000000003,-2.9000000000000004,0.8,6.7,-4.9,2.0,9.5,-24.5,-75.3,16
965,16226.0,-3.6,-2.9000000000000004,0.8,6.2,-4.7,2.0,-1.0,-16.6,-72.2,16
966,16242.0,-3.8000000000000003,-3.1,1.0,6.2,-4.800000000000001,2.1,-11.700000000000001,-8.5,-68.60000000000001,16
967,16257.0,-3.6,-3.6,1.0,6.300000000000001,-5.2,2.2,-28.200000000000003,3.6000000000000005,-63.500000000000014,16
968,16273.0,-3.5,-4.1000000000000005,1.1,6.6000000000000005,-5.9,2.2,-28.200000000000003,3.6000000000000005,-63.500000000000014,16
969,16293.0,-3.2,-5.2,1.0,6.7,-6.7,2.2,-34.50000000000001,6.0,-59.60000000000001,16
970,16307.0,-3.1,-6.0,1.0,6.800000000000001,-7.300000000000001,2.2,-46.7,7.300000000000001,-43.2,16
971,16324.0,-3.1,-6.4,1.0,6.800000000000001,-7.300000000000001,2.2,-54.50000000000001,6.699999999999999,-28.700000000000003,16
972,16340.0,-2.8000000000000003,-6.9,1.1,7.0,-7.9,2.4000000000000004,-54.50000000000001,6.699999999999999,-28.700000000000003,16
973,16358.0,-2.8000000000000003,-6.4,1.4000000000000001,7.2,-7.5,2.7,-64.4,9.899999999999999,-12.9,16
974,16374.0,-2.1,-6.0,1.7000000000000002,7.800000000000001,-7.4,3.0,-82.39999999999999,19.700000000000003,11.5,16
975,16390.0,-1.7000000000000002,-6.1000000000000005,1.8,8.4,-7.7,3.4000000000000004,-82.39999999999999,19.700000000000003,11.5,16
976,16407.0,-1.3,-6.300000000000001,2.3000000000000003,8.3,-8.0,3.7,-89.10000000000001,27.400000000000002,18.6,16
977,16424.0,-1.8,-6.2,2.3000000000000003,7.7,-7.9,3.9000000000000004,-89.0,46.6,39.0,16
978,16440.0,-2.3000000000000003,-5.800000000000001,2.3000000000000003,7.7,-7.9,3.9000000000000004,-89.0,46.6,39.0,16
979,16457.0,-3.1,-4.4,2.2,6.6000000000000005,-6.1000000000000005,3.9000000000000004,-78.9,49.4,58.0,16
980,16474.0,-2.2,-3.1,2.2,7.800000000000001,-5.5,4.0,-60.300000000000004,40.6,79.9,16
981,16491.0,0.0,-2.5,2.2,9.5,-5.4,3.9000000000000004,-1.0,1.0,106.5,16
982,16508.0,0.9,-2.4000000000000004,2.0,10.9,-5.6000000000000005,3.5,-1.0,1.0,106.5,16
983,16526.0,2.2,-2.3000000000000003,1.4000000000000001,11.600000000000001,-5.800000000000001,2.8000000000000003,30.4,-16.3,108.10000000000001,16
984,16547.0,2.6,-2.0,0.30000000000000004,11.700000000000001,-5.7,1.9000000000000001,72.10000000000001,-37.400000000000006,103.89999999999999,16
985,16557.0,2.3000000000000003,-1.2000000000000002,-0.6000000000000001,11.4,-5.2,1.1,74.30000000000001,-41.199999999999996,101.30000000000001,16
986,16574.0,2.1,-0.6000000000000001,-0.9,10.8,-4.4,0.7000000000000001,74.30000000000001,-41.199999999999996,101.30000000000001,16
987,16590.0,1.6,0.7000000000000001,-0.9,10.4,-3.4000000000000004,0.9,65.10000000000001,-38.300000000000004,98.39999999999999,16
988,16607.0,1.4000000000000001,1.9000000000000001,-0.5,10.200000000000001,-2.7,1.2000000000000002,28.0,-3.6000000000000005,85.60000000000001,16
989,16624.0,1.3,2.3000000000000003,-0.4,9.8,-2.2,1.4000000000000001,28.0,-3.6000000000000005,85.60000000000001,16
990,16640.0,0.9,2.8000000000000003,-0.2,9.200000000000001,-2.1,1.7000000000000002,10.0,18.5,74.0,16
991,16657.0,0.2,2.8000000000000003,0.0,8.5,-2.3000000000000003,1.9000000000000001,-6.4,45.0,52.900000000000006,16
992,16673.0,-0.1,2.8000000000000003,0.0,8.5,-2.3000000000000003,1.9000000000000001,-6.4,45.0,52.900000000000006,16
993,16690.0,-0.6000000000000001,2.5,-0.1,7.6000000000000005,-2.8000000000000003,1.9000000000000001,-2.0,45.8,47.5,16
994,16707.0,-0.8,2.4000000000000004,-0.6000000000000001,7.300000000000001,-2.9000000000000004,1.6,15.8,35.1,45.7,16
995,16723.0,-0.8,2.4000000000000004,-1.0,7.300000000000001,-3.1,1.3,22.6,26.400000000000006,47.1,16
996,16740.0,-0.7000000000000001,2.3000000000000003,-1.2000000000000002,7.5,-3.2,1.1,22.6,26.400000000000006,47.1,16
997,16757.0,-0.2,2.2,-1.5,7.800000000000001,-3.4000000000000004,1.0,26.200000000000003,19.6,48.50000000000001,16
998,16773.0,0.4,2.1,-1.7000000000000002,8.200000000000001,-3.5,0.8,21.0,18.4,49.6,16
999,16790.0,0.6000000000000001,2.1,-1.8,8.200000000000001,-3.5,0.8,21.0,18.4,49.6,16
1000,16807.0,1.1,2.3000000000000003,-1.9000000000000001,8.8,-3.5,0.7000000000000001,13.399999999999999,23.5,49.9,16
1001,16824.0,1.5,2.6,-2.1,9.1,-3.3000000000000003,0.7000000000000001,-3.9,32.400000000000006,48.50000000000001,16
1002,16840.0,2.2,2.7,-2.0,9.700000000000001,-3.3000000000000003,0.7000000000000001,-11.700000000000001,34.1,45.400000000000006,16
1003,16857.0,2.6,2.7,-2.0,10.4,-3.6,0.9,-11.700000000000001,34.1,45.400000000000006,16
1004,16874.0,3.4000000000000004,2.2,-1.7000000000000002,10.8,-4.1000000000000005,1.2000000000000002,-18.1,34.800000000000004,39.9,16
1005,16890.0,3.9000000000000004,1.6,-1.6,11.200000000000001,-4.800000000000001,1.3,-20.3,29.900000000000006,30.9,16
1006,16908.0,4.2,1.1,-1.5,11.200000000000001,-4.800000000000001,1.3,-20.3,29.900000000000006,30.9,16
1007,16923.0,5.1000000000000005,0.2,-1.3,12.700000000000001,-6.4,1.6,-13.900000000000002,17.7,31.3,16
1008,16941.0,6.1000000000000005,-0.2,-1.2000000000000002,13.4,-6.6000000000000005,1.6,3.8,-11.3,37.7,16
1009,16957.0,6.800000000000001,0.30000000000000004,-1.2000000000000002,13.9,-6.1000000000000005,1.5,9.899999999999999,-24.1,38.400000000000006,16
1010,16974.0,7.1000000000000005,0.7000000000000001,-1.2000000000000002,14.4,-5.6000000000000005,1.6,9.899999999999999,-24.1,38.400000000000006,16
1011,16991.0,7.4,1.3,-0.8,14.600000000000001,-5.1000000000000005,2.0,11.3,-36.400000000000006,33.400000000000006,16
1012,17011.0,7.2,2.1,-0.2,14.5,-4.4,2.4000000000000004,5.2,-35.699999999999996,13.100000000000001,16
1013,17024.0,7.2,2.4000000000000004,0.0,14.5,-4.4,2.4000000000000004,5.2,-35.699999999999996,13.100000000000001,16
1014,17040.0,6.9,3.0,0.2,14.0,-3.4000000000000004,2.7,2.0,-26.799999999999997,-1.9,16
1015,17057.0,6.1000000000000005,3.3000000000000003,0.2,13.4,-3.1,2.6,-0.5,-10.200000000000001,-41.50000000000001,16
1016,17074.0,5.6000000000000005,3.3000000000000003,0.2,12.700000000000001,-3.3000000000000003,2.5,1.5,-10.1,-62.7,16
1017,17090.0,4.6000000000000005,2.5,0.1,12.100000000000001,-4.0,2.5,1.5,-10.1,-62.7,16
1018,17107.0,3.6,1.3,0.1,11.4,-4.800000000000001,2.5,4.5,-13.399999999999999,-80.9,16
1019,17123.0,2.4000000000000004,0.30000000000000004,0.2,10.600000000000001,-5.4,2.6,11.6,-20.2,-99.60000000000001,16
1020,17140.0,1.9000000000000001,-0.2,0.2,10.600000000000001,-5.4,2.6,11.6,-20.2,-99.60000000000001,16
1021,17157.0,1.2000000000000002,-1.1,0.2,9.5,-6.4,2.6,15.5,-26.300000000000004,-100.2,16
1022,17173.0,0.4,-1.6,0.5,9.0,-6.4,2.7,23.099999999999998,-41.1,-90.80000000000001,16
1023,17190.0,-0.5,-1.4000000000000001,0.7000000000000001,8.4,-6.0,2.9000000000000004,28.3,-48.400000000000006,-82.50000000000001,16
1024,17207.0,-0.7000000000000001,-1.2000000000000002,0.9,8.3,-5.4,3.0,28.3,-48.400000000000006,-82.50000000000001,16
1025,17225.0,-0.7000000000000001,-0.7000000000000001,1.1,8.5,-4.800000000000001,3.0,34.0,-55.900000000000006,-76.1,16
1026,17241.0,-0.7000000000000001,-0.5,1.1,8.6,-4.4,2.9000000000000004,37.300000000000004,-59.5,-77.1,16
1027,17257.0,-0.8,-0.5,1.1,8.6,-4.4,2.9000000000000004,37.300000000000004,-59.5,-77.1,16
1028,17273.0,-0.9,-0.7000000000000001,1.2000000000000002,8.5,-4.4,2.8000000000000003,32.8,-53.7,-82.7,16
1029,17290.0,-1.4000000000000001,-1.3,1.1,8.200000000000001,-4.6000000000000005,2.6,18.3,-34.900000000000006,-95.1,16
1030,17307.0,-1.8,-2.0,1.1,7.9,-4.9,2.6,9.600000000000001,-25.8,-98.3,16
1031,17323.0,-2.1,-2.2,1.2000000000000002,7.5,-5.1000000000000005,2.6,9.600000000000001,-25.8,-98.3,16
1032,17340.0,-2.6,-2.8000000000000003,1.2000000000000002,7.1000000000000005,-5.300000000000001,2.6,3.0,-18.200000000000003,-99.30000000000001,16
1033,17360.0,-3.1,-3.2,1.2000000000000002,6.7,-5.4,2.6,-4.4,-11.000000000000002,-94.4,16
1034,17376.0,-3.7,-3.3000000000000003,1.2000000000000002,6.300000000000001,-5.300000000000001,2.6,-6.2,-9.100000000000001,-89.10000000000001,16
1035,17391.0,-3.9000000000000004,-3.3000000000000003,1.2000000000000002,5.9,-5.0,2.6,-6.2,-9.100000000000001,-89.10000000000001,16
1036,17408.0,-4.3,-3.2,1.2000000000000002,5.6000000000000005,-4.7,2.6,-9.100000000000001,-4.0,-76.3,16
1037,17423.0,-4.4,-3.1,1.2000000000000002,5.6000000000000005,-4.7,2.6,-9.100000000000001,-4.0,-76.3,16
1038,17442.0,-4.5,-3.3000000000000003,1.1,5.6000000000000005,-4.6000000000000005,2.4000000000000004,-10.4,-1.2000000000000002,-71.19999999999999,16
1039,17460.0,-4.4,-3.5,1.0,5.6000000000000005,-4.6000000000000005,2.4000000000000004,-12.600000000000001,1.3,-67.4,16
1040,17474.0,-3.9000000000000004,-5.0,0.8,6.0,-6.0,2.2,-20.1,4.7,-58.1,16
1041,17491.0,-3.7,-6.0,0.8,6.2,-6.9,2.2,-24.900000000000002,6.1000000000000005,-48.0,16
1042,17507.0,-3.5,-6.5,0.7000000000000001,6.5,-7.5,2.1,-24.900000000000002,6.1000000000000005,-48.0,16
1043,17525.0,-3.2,-6.9,0.6000000000000001,6.7,-7.7,2.0,-38.900000000000006,10.700000000000001,-17.200000000000003,16
1044,17542.0,-2.9000000000000004,-6.7,0.30000000000000004,7.0,-7.5,1.8,-51.6,15.2,-0.6000000000000001,16
1045,17557.0,-2.6,-6.4,0.2,7.5,-7.1000000000000005,1.8,-51.6,15.2,-0.6000000000000001,16
1046,17574.0,-1.9000000000000001,-6.0,0.5,8.1,-7.2,2.3000000000000003,-67.3,19.700000000000003,11.4,16
1047,17591.0,-1.4000000000000001,-6.5,1.1,8.4,-7.800000000000001,2.8000000000000003,-92.50000000000001,28.400000000000002,22.2,16
1048,17608.0,-1.4000000000000001,-6.800000000000001,1.3,8.0,-8.5,3.3000000000000003,-92.50000000000001,28.400000000000002,22.2,16
1049,17625.0,-2.1,-7.2,1.8,7.2,-8.9,3.8000000000000003,-97.7,34.2,31.6,16
1050,17640.0,-3.2,-6.800000000000001,2.3000000000000003,6.1000000000000005,-8.6,4.3,-85.69999999999999,38.800000000000004,76.80000000000001,16
1051,17657.0,-3.8000000000000003,-5.300000000000001,2.7,5.7,-7.6000000000000005,4.7,-64.7,31.6,111.9,16
1052,17673.0,-3.2,-4.3,2.8000000000000003,6.9,-6.5,4.800000000000001,-64.7,31.6,111.9,16
1053,17690.0,-1.0,-2.8000000000000003,2.7,8.9,-5.7,4.7,-35.0,15.5,142.10000000000002,16
1054,17707.0,1.7000000000000002,-1.7000000000000002,2.7,11.0,-5.300000000000001,4.6000000000000005,37.6,-19.700000000000003,161.9,16
1055,17723.0,2.9000000000000004,-1.3,2.4000000000000004,12.5,-5.0,4.0,37.6,-19.700000000000003,161.9,16
1056,17740.0,4.1000000000000005,-0.7000000000000001,1.3,12.9,-4.9,2.7,76.2,-31.6,152.9,16
1057,17757.0,4.1000000000000005,-0.30000000000000004,-0.6000000000000001,12.700000000000001,-4.7,1.1,122.79999999999998,-45.2,124.3,16
1058,17777.0,3.6,0.5,-2.3000000000000003,12.100000000000001,-4.3,-0.2,117.60000000000001,-46.6,111.0,16
1059,17790.0,3.2,0.9,-2.8000000000000003,11.4,-3.7,-1.0,117.60000000000001,-46.6,111.0,16
1060,17807.0,2.7,1.9000000000000001,-3.4000000000000004,10.9,-3.0,-1.3,93.89999999999999,-39.8,98.7,16
1061,17823.0,2.3000000000000003,2.7,-3.1,10.5,-2.5,-0.9,9.4,7.0,70.9,16
1062,17840.0,2.1,3.0,-2.8000000000000003,10.0,-2.4000000000000004,-0.2,9.4,7.0,70.9,16
1063,17857.0,1.4000000000000001,3.1,-1.8,9.200000000000001,-2.5,0.7000000000000001,-33.0,37.50000000000001,54.50000000000001,16
1064,17874.0,0.5,2.8000000000000003,-0.8,8.3,-2.9000000000000004,1.6,-81.50000000000001,79.00000000000001,32.0,16
1065,17891.0,-0.4,2.6,-0.1,7.5,-3.2,2.2,-83.2,83.80000000000001,29.700000000000006,16
1066,17907.0,-0.6000000000000001,2.5,0.2,7.1000000000000005,-3.5,2.6,-83.2,83.80000000000001,29.700000000000006,16
1067,17924.0,-0.7000000000000001,2.3000000000000003,0.2,7.0,-3.7,2.6,-74.5,78.4,32.300000000000004,16
1068,17940.0,-0.4,2.2,0.1,7.1000000000000005,-3.9000000000000004,2.6,-45.0,51.6,43.50000000000001,16
1069,17957.0,-0.2,2.1,0.1,7.4,-4.1000000000000005,2.6,-45.0,51.6,43.50000000000001,16
1070,17974.0,0.30000000000000004,2.1,0.2,7.7,-4.1000000000000005,2.7,-29.400000000000002,36.1,49.699999999999996,16
1071,17991.0,0.8,2.3000000000000003,0.1,8.1,-4.0,2.5,-2.3,13.5,60.6,16
1072,18011.0,1.4000000000000001,2.6,-0.1,8.5,-3.9000000000000004,2.4000000000000004,5.2,9.700000000000001,64.50000000000001,16
1073,18023.0,1.7000000000000002,2.8000000000000003,-0.2,9.0,-3.6,2.2,5.2,9.700000000000001,64.50000000000001,16
1074,18040.0,2.7,3.2,-0.5,9.9,-3.5,2.1,8.5,11.4,65.89999999999999,16
1075,18058.0,4.1000000000000005,3.3000000000000003,-0.6000000000000001,11.0,-3.6,2.0,8.8,16.0,53.300000000000004,16
1076,18073.0,4.7,3.0,-0.7000000000000001,11.8,-4.2,1.9000000000000001,8.8,16.0,53.300000000000004,16
1077,18090.0,5.4,2.2,-0.9,12.100000000000001,-5.0,1.8,8.2,18.200000000000003,41.300000000000004,16
1078,18107.0,5.4,1.4000000000000001,-1.2000000000000002,12.100000000000001,-5.6000000000000005,1.6,9.4,18.200000000000003,27.9,16
1079,18129.0,5.6000000000000005,1.0,-1.5,12.200000000000001,-5.9,1.4000000000000001,12.0,10.9,29.1,16
1080,18141.0,5.9,1.1,-1.5,12.700000000000001,-5.800000000000001,1.3,12.0,10.9,29.1,16
1081,18162.0,6.5,1.7000000000000002,-1.5,13.3,-5.2,1.3,16.8,-10.5,26.9,16
1082,18173.0,6.9,2.0,-1.5,13.3,-5.2,1.3,16.8,-10.5,26.9,16
1083,18190.0,7.5,2.2,-1.5,14.4,-4.9,1.4000000000000001,16.200000000000003,-21.8,16.4,16
1084,18207.0,7.7,2.0,-1.1,14.3,-5.0,1.9000000000000001,11.700000000000001,-27.5,1.4,16
1085,18223.0,7.0,2.0,-0.6000000000000001,13.700000000000001,-4.800000000000001,2.1,2.2,-19.300000000000004,-25.5,16
1086,18241.0,5.9,2.5,-0.8,13.700000000000001,-4.800000000000001,2.1,2.2,-19.300000000000004,-25.5,16
1087,18257.0,5.5,2.7,-0.9,12.5,-3.8000000000000003,1.8,-1.1,-14.700000000000001,-35.5,16
1088,18273.0,5.0,2.9000000000000004,-0.7000000000000001,12.3,-3.7,1.9000000000000001,-5.7,-22.000000000000004,-60.5,16
1089,18290.0,4.5,2.3000000000000003,-0.2,12.0,-4.2,2.3000000000000003,-4.300000000000001,-32.2,-77.20000000000002,16
1090,18307.0,4.2,1.6,0.1,11.700000000000001,-5.2,2.7,-4.300000000000001,-32.2,-77.20000000000002,16
1091,18323.0,3.3000000000000003,0.30000000000000004,0.8,11.0,-6.0,3.3000000000000003,-0.6000000000000001,-40.1,-89.9,16
1092,18340.0,2.2,-0.6000000000000001,1.2000000000000002,10.3,-6.4,3.3000000000000003,17.0,-49.4,-95.0,16
1093,18358.0,1.8,-0.9,1.1,10.3,-6.4,3.3000000000000003,17.0,-49.4,-95.0,16
1094,18373.0,1.1,-1.3,1.2000000000000002,9.5,-6.5,3.3000000000000003,26.1,-58.400000000000006,-89.4,16
1095,18390.0,0.7000000000000001,-1.1,1.5,9.4,-6.0,3.5,42.0,-74.89999999999999,-76.80000000000001,16
1096,18407.0,0.6000000000000001,-0.6000000000000001,1.9000000000000001,9.5,-5.4,3.7,49.6,-79.00000000000001,-74.80000000000001,16
1097,18424.0,0.6000000000000001,-0.4,1.9000000000000001,9.5,-4.9,3.6,49.6,-79.00000000000001,-74.80000000000001,16
1098,18440.0,0.4,-0.2,1.8,9.600000000000001,-4.6000000000000005,3.4000000000000004,54.300000000000004,-79.1,-77.7,16
1099,18457.0,0.30000000000000004,-0.4,1.8,9.600000000000001,-4.6000000000000005,3.2,50.60000000000001,-68.7,-92.3,16
1100,18474.0,0.2,-0.7000000000000001,1.8,9.600000000000001,-4.6000000000000005,3.2,50.60000000000001,-68.7,-92.3,16
1101,18491.0,-0.30000000000000004,-1.4000000000000001,1.6,9.1,-5.2,2.9000000000000004,43.70000000000001,-58.800000000000004,-101.50000000000001,16
1102,18508.0,-0.8,-2.2,1.7000000000000002,8.9,-5.5,2.9000000000000004,27.6,-38.900000000000006,-113.60000000000001,16
1103,18526.0,-1.3,-2.9000000000000004,1.6,8.5,-5.800000000000001,2.7,20.900000000000002,-31.3,-116.69999999999999,16
1104,18541.0,-1.6,-3.2,1.5,8.1,-5.9,2.6,20.900000000000002,-31.3,-116.69999999999999,16
1105,18557.0,-2.2,-3.7,1.5,7.7,-6.0,2.5,14.400000000000002,-25.5,-117.7,16
1106,18573.0,-2.8000000000000003,-4.0,1.5,7.2,-5.9,2.5,1.8000000000000003,-16.8,-114.6,16
1107,18591.0,-3.4000000000000004,-4.3,1.7000000000000002,6.7,-5.9,2.7,-4.0,-11.5,-111.0,16
1108,18607.0,-3.7,-4.3,1.8,6.2,-5.6000000000000005,2.7,-4.0,-11.5,-111.0,16
1109,18624.0,-4.3,-4.2,1.7000000000000002,5.7,-5.300000000000001,2.7,-12.5,2.0,-101.30000000000001,16
1110,18640.0,-4.6000000000000005,-4.4,1.6,5.5,-5.300000000000001,2.6,-15.5,6.600000000000001,-96.30000000000001,16
1111,18657.0,-4.6000000000000005,-4.7,1.4000000000000001,5.5,-5.6000000000000005,2.4000000000000004,-15.5,6.600000000000001,-96.30000000000001,16
1112,18673.0,-4.6000000000000005,-5.5,1.2000000000000002,5.4,-6.2,2.3000000000000003,-18.900000000000002,9.100000000000001,-91.8,16
1113,18691.0,-4.6000000000000005,-6.5,1.1,5.4,-6.9,2.2,-26.700000000000003,10.200000000000001,-75.8,16
1114,18707.0,-4.6000000000000005,-7.1000000000000005,1.1,5.4,-6.9,2.2,-26.700000000000003,10.200000000000001,-75.8,16
1115,18723.0,-4.7,-7.800000000000001,1.1,5.2,-7.9,2.2,-31.0,12.100000000000001,-61.0,16
1116,18740.0,-4.7,-8.0,0.7000000000000001,5.2,-8.1,2.0,-43.300000000000004,18.1,-21.300000000000004,16
1117,18757.0,-4.6000000000000005,-8.0,0.6000000000000001,5.300000000000001,-8.1,1.9000000000000001,-53.8,20.8,0.30000000000000004,16
