,ms,accelX,accelY,accelZ,accelWithGX,accelWithGY,accelWithGZ,rotRateAlpha,rotRateBeta,rotRateGamma,interval
0,150.0,0.0,0.0,0.1,0.9,4.3,8.9,2.4000000000000004,0.9000000000000001,-0.9000000000000001,16
1,158.0,0.0,0.0,0.0,1.0,4.3,8.8,2.2,-1.3,-0.5,16
2,168.0,0.0,0.0,0.0,1.0,4.3,8.8,2.2,-1.3,-0.5,16
3,184.0,0.0,0.0,0.0,1.0,4.3,8.8,1.5,-3.3000000000000007,-0.4,16
4,200.0,0.0,0.0,0.0,1.0,4.3,8.8,1.5,-3.3000000000000007,-0.4,16
5,217.0,0.1,0.0,-0.1,1.1,4.3,8.8,2.1,-5.2,-0.4,16
6,234.0,0.1,0.0,-0.2,1.1,4.3,8.6,2.8,-3.8,-0.4,16
7,251.0,0.0,-0.1,-0.2,1.1,4.3,8.6,1.5,-2.1,-0.6000000000000001,16
8,269.0,0.1,0.0,-0.1,1.1,4.3,8.8,0.30000000000000004,1.2000000000000002,-0.8,16
9,284.0,0.0,0.0,0.0,1.1,4.3,8.9,0.30000000000000004,1.2000000000000002,-0.8,16
10,301.0,0.0,0.0,0.30000000000000004,1.1,4.3,9.1,-0.30000000000000004,-1.3,-1.6,16
11,318.0,0.1,0.0,0.1,1.1,4.3,9.0,-0.30000000000000004,-4.5,-2.3,16
12,336.0,0.1,0.0,0.0,1.2000000000000002,4.3,8.8,-2.4000000000000004,-5.8,-3.9,16
13,350.0,0.1,0.0,0.0,1.2000000000000002,4.3,8.8,-2.4000000000000004,-5.8,-3.9,16
14,367.0,0.1,0.0,0.1,1.2000000000000002,4.3,8.8,-1.6,-5.0,-4.300000000000001,16
15,384.0,0.0,0.1,0.0,1.1,4.4,8.8,2.2,-2.2,-4.4,16
16,400.0,0.0,0.1,0.0,1.1,4.4,8.8,2.2,-2.2,-4.4,16
17,417.0,-0.1,0.1,0.0,1.1,4.4,8.8,2.9,-2.4000000000000004,-3.6000000000000005,16
18,435.0,0.0,0.1,-0.1,1.1,4.4,8.6,0.4,-7.500000000000001,-2.3,16
19,451.0,0.0,0.0,-0.1,1.1,4.4,8.6,0.4,-7.500000000000001,-2.3,16
20,467.0,0.0,0.0,-0.2,1.2000000000000002,4.3,8.6,-1.7,-7.9,-1.8000000000000003,16
21,484.0,0.1,-0.1,-0.2,1.2000000000000002,4.2,8.6,-1.4,-4.7,-1.9,16
22,501.0,0.0,-0.1,-0.2,1.2000000000000002,4.2,8.6,-1.4,-4.7,-1.9,16
23,517.0,0.0,-0.1,-0.2,1.2000000000000002,4.2,8.6,0.0,-2.4000000000000004,-2.1,16
24,534.0,0.0,-0.1,-0.1,1.1,4.2,8.6,1.3,0.7,-2.6,16
25,550.0,0.0,-0.1,-0.1,1.1,4.2,8.6,1.3,0.7,-2.6,16
26,567.0,0.0,-0.1,0.1,1.1,4.2,8.8,1.0,0.8,-3.0,16
27,584.0,-0.1,-0.1,0.0,1.1,4.2,8.8,1.0,-0.9000000000000001,-3.8,16
28,600.0,-0.1,-0.1,0.0,1.1,4.2,8.8,-0.2,-2.0,-4.6,16
29,617.0,-0.1,0.0,0.0,1.1,4.3,8.8,-1.0,-3.0,-5.0,16
30,634.0,-0.1,0.0,0.0,1.1,4.3,8.700000000000001,-0.9000000000000001,-3.2,-4.9,16
31,650.0,-0.1,0.0,0.0,1.1,4.3,8.700000000000001,-0.1,-2.5,-4.6,16
32,667.0,0.0,0.1,-0.1,1.1,4.4,8.6,0.0,-1.3,-4.4,16
33,684.0,0.0,0.1,0.0,1.1,4.4,8.700000000000001,-0.5,0.7,-4.1,16
34,700.0,-0.1,0.1,0.1,1.1,4.4,8.8,-0.5,0.9000000000000001,-3.8,16
35,717.0,-0.1,0.1,0.0,1.1,4.4,8.8,0.6000000000000001,-1.1,-4.0,16
36,734.0,0.0,0.1,-0.1,1.1,4.4,8.6,-1.0,-1.0,-3.9,16
37,751.0,0.0,0.1,-0.1,1.1,4.4,8.6,-2.8,-1.3,-4.0,16
38,767.0,0.0,0.1,0.0,1.2000000000000002,4.4,8.700000000000001,-4.4,-1.7,-3.6000000000000005,16
39,784.0,0.1,-0.1,0.2,1.2000000000000002,4.3,8.9,-5.1000000000000005,-1.2000000000000002,-3.4,16
40,800.0,0.1,-0.2,0.30000000000000004,1.3,4.1000000000000005,9.1,-2.1,-2.7,-6.1000000000000005,16
41,817.0,0.2,-0.2,0.30000000000000004,1.3,4.1000000000000005,9.1,-2.1,-2.7,-6.1000000000000005,16
42,834.0,0.1,-0.1,0.0,1.3,4.2,8.9,-0.4,-4.800000000000001,-7.8,16
43,850.0,0.2,-0.1,-0.1,1.3,4.3,8.6,-0.8,-5.4,-8.8,16
44,867.0,0.1,0.0,-0.2,1.3,4.3,8.6,-1.8000000000000003,-3.8,-9.3,16
45,884.0,0.1,0.0,-0.1,1.3,4.3,8.700000000000001,-1.2000000000000002,-3.0,-9.0,16
46,900.0,0.1,0.1,-0.2,1.3,4.4,8.5,0.2,-3.4,-8.8,16
47,917.0,0.2,0.1,-0.30000000000000004,1.3,4.4,8.5,0.2,-3.4,-8.8,16
48,934.0,0.2,0.1,-0.30000000000000004,1.4000000000000001,4.4,8.4,-1.2000000000000002,-3.8,-8.700000000000001,16
49,950.0,0.2,0.1,-0.4,1.4000000000000001,4.3,8.3,-5.7,-4.6,-8.899999999999999,16
50,967.0,0.2,0.1,-0.4,1.4000000000000001,4.3,8.3,-5.7,-4.6,-8.899999999999999,16
51,984.0,0.2,0.0,-0.30000000000000004,1.4000000000000001,4.3,8.4,-7.1000000000000005,-3.4,-9.0,16
52,1000.0,0.2,-0.1,-0.30000000000000004,1.5,4.1000000000000005,8.4,-7.400000000000001,-1.7,-11.900000000000002,16
53,1017.0,0.30000000000000004,-0.1,-0.30000000000000004,1.5,4.1000000000000005,8.4,-7.400000000000001,-1.7,-11.900000000000002,16
54,1034.0,0.30000000000000004,-0.1,-0.2,1.5,4.1000000000000005,8.4,-7.8,1.7,-14.100000000000001,16
55,1050.0,0.2,0.0,0.0,1.4000000000000001,4.2,8.6,-7.400000000000001,3.5,-16.200000000000003,16
56,1067.0,0.2,0.0,0.0,1.4000000000000001,4.2,8.700000000000001,-6.300000000000001,5.7,-17.5,16
57,1084.0,0.1,0.0,0.2,1.3,4.2,8.8,-5.1000000000000005,7.1000000000000005,-18.4,16
58,1100.0,0.2,-0.1,0.2,1.3,4.1000000000000005,8.9,-4.2,5.8,-19.6,16
59,1117.0,0.2,-0.1,0.1,1.3,4.1000000000000005,8.8,-4.300000000000001,2.4000000000000004,-21.200000000000003,16
60,1134.0,0.30000000000000004,0.0,-0.1,1.4000000000000001,4.1000000000000005,8.700000000000001,-6.2,-0.4,-21.900000000000002,16
61,1150.0,0.4,0.0,-0.1,1.4000000000000001,4.2,8.700000000000001,-8.100000000000001,-1.1,-22.1,16
62,1167.0,0.4,0.0,0.0,1.5,4.1000000000000005,8.700000000000001,-9.100000000000001,-0.4,-22.000000000000004,16
63,1184.0,0.4,-0.2,0.1,1.5,3.9000000000000004,8.9,-8.5,1.2000000000000002,-22.700000000000003,16
64,1200.0,0.30000000000000004,-0.30000000000000004,0.2,1.4000000000000001,3.8000000000000003,9.0,-7.0,1.5,-24.3,16
65,1217.0,0.2,-0.4,0.2,1.2000000000000002,3.7,9.0,-6.0,0.4,-26.1,16
66,1234.0,0.0,-0.4,0.2,1.0,3.6,9.0,-6.4,-1.4,-27.700000000000003,16
67,1250.0,-0.1,-0.30000000000000004,0.1,0.9,3.6,9.0,-6.9,-2.7,-29.400000000000002,16
68,1267.0,-0.30000000000000004,-0.2,0.30000000000000004,0.7000000000000001,3.7,9.1,-8.5,-0.4,-30.4,16
69,1284.0,-0.4,-0.2,0.5,0.5,3.7,9.3,-8.600000000000001,2.3,-30.799999999999997,16
70,1300.0,-0.6000000000000001,-0.30000000000000004,0.8,0.30000000000000004,3.7,9.700000000000001,-7.0,2.7,-30.5,16
71,1317.0,-0.6000000000000001,-0.4,0.9,0.1,3.5,9.700000000000001,0.0,-2.8,-32.8,16
72,1334.0,-0.6000000000000001,-0.4,0.8,0.1,3.5,9.700000000000001,0.0,-2.8,-32.8,16
73,1350.0,-0.6000000000000001,-0.1,0.4,0.0,3.8000000000000003,9.5,2.2,-5.500000000000001,-34.7,16
74,1367.0,-0.7000000000000001,0.30000000000000004,0.2,0.0,4.4,9.1,1.0,-7.200000000000001,-32.0,16
75,1384.0,-0.6000000000000001,0.4,0.1,0.0,4.4,9.1,1.0,-7.200000000000001,-32.0,16
76,1400.0,-0.5,0.5,-0.1,0.0,4.5,8.9,-1.3,-8.0,-29.300000000000004,16
77,1417.0,-0.4,0.5,-0.2,0.1,4.5,8.8,-5.6,-6.4,-23.800000000000004,16
78,1434.0,-0.4,0.5,-0.2,0.1,4.5,8.8,-5.6,-6.4,-23.800000000000004,16
79,1450.0,-0.4,0.5,0.0,0.1,4.4,8.9,-6.0,-4.4,-20.7,16
80,1467.0,-0.5,0.4,0.1,0.0,4.2,9.3,-6.0,-1.0,-15.399999999999999,16
81,1484.0,-0.5,0.30000000000000004,0.2,0.0,4.2,9.3,-6.0,-1.0,-15.399999999999999,16
82,1500.0,-0.5,0.2,0.4,0.0,4.2,9.4,-4.9,-1.9,-13.399999999999999,16
83,1517.0,-0.5,0.1,0.30000000000000004,-0.1,4.1000000000000005,9.4,-4.0,-3.9,-11.6,16
84,1534.0,-0.4,0.1,0.30000000000000004,0.0,4.0,9.3,-4.9,-7.0,-10.4,16
85,1550.0,-0.4,0.0,0.1,0.1,3.9000000000000004,9.200000000000001,-7.200000000000001,-11.6,-9.899999999999999,16
86,1567.0,-0.30000000000000004,0.0,-0.1,0.1,3.9000000000000004,9.0,-9.8,-16.6,-9.3,16
87,1584.0,-0.2,0.0,-0.30000000000000004,0.30000000000000004,3.8000000000000003,8.8,-11.700000000000001,-20.8,-8.700000000000001,16
88,1600.0,0.0,-0.1,-0.6000000000000001,0.5,3.7,8.5,-12.100000000000001,-21.300000000000004,-8.5,16
89,1617.0,0.0,-0.1,-0.8,0.6000000000000001,3.7,8.3,-11.900000000000002,-18.5,-8.700000000000001,16
90,1634.0,0.1,-0.1,-0.8,0.7000000000000001,3.6,8.200000000000001,-11.5,-13.700000000000001,-8.5,16
91,1650.0,0.1,-0.1,-0.9,0.7000000000000001,3.6,8.0,-12.8,-9.2,-8.3,16
92,1667.0,0.1,-0.2,-0.7000000000000001,0.7000000000000001,3.5,8.200000000000001,-15.399999999999999,-3.6000000000000005,-8.0,16
93,1684.0,0.0,-0.2,-0.5,0.7000000000000001,3.4000000000000004,8.5,-17.9,-0.6000000000000001,-8.8,16
94,1700.0,-0.1,-0.2,-0.1,0.5,3.4000000000000004,8.9,-19.200000000000003,1.3,-9.600000000000001,16
95,1717.0,-0.2,-0.2,0.30000000000000004,0.4,3.3000000000000003,9.200000000000001,-18.1,2.4000000000000004,-10.4,16
96,1734.0,-0.30000000000000004,-0.30000000000000004,0.6000000000000001,0.30000000000000004,3.2,9.600000000000001,-12.600000000000001,0.6000000000000001,-12.4,16
97,1750.0,-0.30000000000000004,-0.30000000000000004,0.6000000000000001,0.30000000000000004,3.2,9.600000000000001,-12.600000000000001,0.6000000000000001,-12.4,16
98,1767.0,-0.4,-0.2,0.5,0.2,3.2,9.600000000000001,-9.4,-2.1,-14.100000000000001,16
99,1784.0,-0.4,0.0,0.4,0.1,3.5,9.5,-4.1,-3.9,-14.5,16
100,1800.0,-0.4,0.2,0.4,0.1,3.5,9.5,-4.1,-3.9,-14.5,16
101,1817.0,-0.4,0.30000000000000004,0.30000000000000004,0.1,3.7,9.4,-2.5,-3.3000000000000007,-12.200000000000001,16
102,1834.0,-0.30000000000000004,0.30000000000000004,0.30000000000000004,0.2,3.7,9.3,-2.6,-3.2,-7.8,16
103,1850.0,-0.30000000000000004,0.30000000000000004,0.30000000000000004,0.2,3.7,9.3,-2.6,-3.2,-7.8,16
104,1867.0,-0.30000000000000004,0.30000000000000004,0.2,0.2,3.6,9.3,-3.5,-4.5,-6.699999999999999,16
105,1884.0,-0.30000000000000004,0.2,0.2,0.2,3.5,9.4,-3.9,-2.6,-3.9,16
106,1901.0,-0.30000000000000004,0.2,0.30000000000000004,0.2,3.5,9.4,-3.9,-2.6,-3.9,16
107,1918.0,-0.30000000000000004,0.1,0.4,0.2,3.5,9.5,-2.2,-2.0,-2.8,16
108,1939.0,-0.2,0.0,0.5,0.30000000000000004,3.4000000000000004,9.600000000000001,-0.6000000000000001,-2.6,-2.2,16
109,1951.0,-0.2,0.0,0.5,0.30000000000000004,3.4000000000000004,9.600000000000001,0.6000000000000001,-3.7000000000000006,-2.3,16
110,1967.0,-0.1,0.0,0.5,0.4,3.4000000000000004,9.600000000000001,1.5,-6.0,-2.8,16
111,1984.0,-0.1,0.0,0.2,0.4,3.4000000000000004,9.5,2.4000000000000004,-8.600000000000001,-3.4,16
112,2001.0,0.0,0.0,0.2,0.5,3.4000000000000004,9.4,3.0,-9.0,-3.9,16
113,2017.0,0.0,0.1,0.2,0.5,3.5,9.4,4.9,-9.5,-4.1,16
114,2039.0,0.0,0.30000000000000004,0.0,0.6000000000000001,3.7,9.3,6.699999999999999,-11.1,-3.9,16
115,2055.0,0.0,0.30000000000000004,0.1,0.7000000000000001,3.8000000000000003,9.200000000000001,7.699999999999999,-11.5,-1.8000000000000003,16
116,2070.0,0.1,0.30000000000000004,0.1,0.7000000000000001,3.8000000000000003,9.200000000000001,7.699999999999999,-11.5,-1.8000000000000003,16
117,2084.0,0.1,0.30000000000000004,0.0,0.8,3.8000000000000003,9.200000000000001,7.6,-11.8,-1.0,16
118,2101.0,0.1,0.2,0.0,0.8,3.8000000000000003,9.200000000000001,6.9,-11.3,-0.8,16
119,2117.0,0.0,0.2,0.2,0.8,3.8000000000000003,9.3,5.9,-12.100000000000001,-0.4,16
120,2142.0,0.0,0.1,0.2,0.8,3.8000000000000003,9.4,6.8,-14.200000000000001,0.4,16
121,2151.0,0.0,0.1,0.1,0.8,3.7,9.200000000000001,7.200000000000001,-15.700000000000001,0.8,16
122,2172.0,-0.2,0.0,0.2,0.7000000000000001,3.6,9.4,7.300000000000001,-14.200000000000001,1.9,16
123,2184.0,-0.2,-0.1,0.2,0.7000000000000001,3.6,9.4,7.300000000000001,-14.200000000000001,1.9,16
124,2200.0,-0.1,-0.2,0.2,0.8,3.5,9.3,8.8,-15.100000000000001,1.3,16
125,2217.0,-0.1,-0.2,-0.1,0.9,3.5,9.1,9.4,-15.100000000000001,-0.2,16
126,2234.0,-0.1,-0.2,-0.2,0.9,3.5,8.9,9.0,-13.5,-1.6,16
127,2250.0,-0.1,-0.1,-0.2,0.9,3.6,8.8,8.899999999999999,-12.200000000000001,-2.2,16
128,2267.0,-0.1,-0.1,-0.30000000000000004,0.9,3.7,8.700000000000001,9.4,-10.600000000000001,-2.4000000000000004,16
129,2284.0,-0.1,0.0,-0.5,1.0,3.7,8.5,9.3,-8.3,-2.7,16
130,2300.0,-0.1,0.1,-0.6000000000000001,1.0,3.9000000000000004,8.4,7.699999999999999,-6.2,-2.6,16
131,2317.0,-0.1,0.2,-0.4,0.9,4.0,8.5,6.300000000000001,-4.6,-1.4,16
132,2334.0,-0.1,0.2,-0.5,1.0,4.0,8.4,5.300000000000001,-5.0,-0.30000000000000004,16
133,2350.0,0.0,0.2,-0.6000000000000001,1.1,4.0,8.3,3.1,-3.5,0.5,16
134,2367.0,0.0,0.2,-0.6000000000000001,1.1,4.1000000000000005,8.3,0.7,-1.3,1.1,16
135,2384.0,-0.1,0.1,-0.4,1.0,4.0,8.4,-0.6000000000000001,0.5,2.4000000000000004,16
136,2400.0,-0.1,0.0,-0.4,1.0,3.9000000000000004,8.5,-0.7,1.0,3.7000000000000006,16
137,2417.0,0.0,-0.1,-0.5,1.0,3.8000000000000003,8.3,-1.1,0.1,3.8,16
138,2434.0,0.0,-0.1,-0.5,1.1,3.8000000000000003,8.200000000000001,-3.3000000000000007,1.0,3.7000000000000006,16
139,2450.0,0.1,-0.1,-0.5,1.2000000000000002,3.8000000000000003,8.3,-5.0,2.0,3.6000000000000005,16
140,2467.0,0.2,-0.1,-0.6000000000000001,1.3,3.8000000000000003,8.200000000000001,-6.1000000000000005,2.6,2.7,16
141,2484.0,0.2,0.0,-0.6000000000000001,1.3,3.8000000000000003,8.1,-7.699999999999999,6.9,2.0,16
142,2500.0,0.2,0.1,-0.30000000000000004,1.2000000000000002,3.9000000000000004,8.3,-9.2,13.000000000000002,2.4000000000000004,16
143,2517.0,0.2,0.1,-0.1,1.2000000000000002,3.8000000000000003,8.6,-9.600000000000001,18.4,3.4,16
144,2534.0,0.2,-0.1,0.2,1.2000000000000002,3.7,8.9,-9.2,20.1,3.2,16
145,2551.0,0.1,0.0,0.5,1.0,3.7,9.200000000000001,-9.4,19.9,2.5,16
146,2568.0,0.0,0.0,0.7000000000000001,0.9,3.7,9.5,-9.4,19.5,2.5,16
147,2584.0,0.0,0.0,0.9,0.9,3.7,9.8,-7.9,16.5,2.0,16
148,2602.0,0.0,0.1,0.9,0.8,3.7,9.8,-6.0,13.3,1.6,16
149,2618.0,-0.1,0.2,0.9,0.7000000000000001,3.8000000000000003,9.8,-4.2,10.9,1.7,16
150,2634.0,-0.2,0.2,0.8,0.6000000000000001,3.9000000000000004,9.700000000000001,-3.0,7.9,2.8,16
151,2656.0,-0.1,0.2,0.6000000000000001,0.6000000000000001,3.8000000000000003,9.700000000000001,-2.8,6.1000000000000005,4.1,16
152,2667.0,-0.1,0.1,0.6000000000000001,0.7000000000000001,3.7,9.600000000000001,-3.1,4.5,4.4,16
153,2684.0,0.0,0.1,0.5,0.7000000000000001,3.7,9.5,-3.1,3.6000000000000005,3.7000000000000006,16
154,2701.0,0.0,0.1,0.5,0.7000000000000001,3.7,9.5,-1.8000000000000003,4.0,3.1,16
155,2718.0,-0.1,0.1,0.4,0.6000000000000001,3.7,9.4,0.2,5.4,2.6,16
156,2734.0,-0.1,0.1,0.5,0.6000000000000001,3.7,9.5,1.6,6.699999999999999,2.5,16
157,2761.0,-0.2,0.0,0.4,0.5,3.6,9.4,3.4,6.300000000000001,1.0,16
158,2768.0,-0.2,0.0,0.4,0.5,3.6,9.4,3.4,6.300000000000001,1.0,16
159,2784.0,-0.2,0.0,0.5,0.5,3.7,9.5,4.5,6.600000000000001,0.6000000000000001,16
160,2801.0,-0.2,0.1,0.4,0.4,3.7,9.5,6.500000000000001,5.0,0.2,16
161,2819.0,-0.2,0.1,0.2,0.4,3.8000000000000003,9.200000000000001,7.6,4.4,0.9000000000000001,16
162,2834.0,-0.2,0.1,0.2,0.4,3.8000000000000003,9.200000000000001,7.6,4.4,0.9000000000000001,16
163,2855.0,-0.1,0.0,0.0,0.5,3.8000000000000003,9.1,7.300000000000001,3.4,1.2000000000000002,16
164,2870.0,-0.1,0.0,-0.1,0.5,3.8000000000000003,9.0,7.6,3.3000000000000007,1.4,16
165,2886.0,0.0,0.0,-0.2,0.5,3.8000000000000003,8.8,8.0,2.6,2.0,16
166,2900.0,0.1,0.0,-0.4,0.7000000000000001,3.8000000000000003,8.6,7.0,3.5,2.6,16
167,2918.0,0.2,-0.1,-0.5,0.7000000000000001,3.8000000000000003,8.5,5.4,5.2,2.9,16
168,2935.0,0.2,-0.1,-0.5,0.8,3.7,8.5,3.8,5.8,3.3000000000000007,16
169,2960.0,0.30000000000000004,-0.2,-0.4,0.9,3.6,8.5,1.9,7.1000000000000005,4.2,16
170,2967.0,0.30000000000000004,-0.30000000000000004,-0.4,0.9,3.6,8.5,1.9,7.1000000000000005,4.2,16
171,2984.0,0.4,-0.30000000000000004,-0.4,0.9,3.5,8.5,0.7,7.200000000000001,3.3000000000000007,16
172,3001.0,0.30000000000000004,-0.30000000000000004,-0.30000000000000004,0.9,3.5,8.6,-0.6000000000000001,7.699999999999999,2.4000000000000004,16
173,3017.0,0.30000000000000004,-0.2,-0.2,0.9,3.6,8.700000000000001,-1.5,7.300000000000001,2.0,16
174,3034.0,0.30000000000000004,-0.2,-0.1,0.9,3.6,8.700000000000001,-2.5,7.500000000000001,1.8000000000000003,16
175,3055.0,0.30000000000000004,-0.2,0.1,0.9,3.5,8.9,-3.0,8.0,1.4,16
176,3067.0,0.30000000000000004,-0.2,0.1,0.9,3.6,9.0,-3.0,6.8,0.4,16
177,3084.0,0.30000000000000004,-0.1,0.1,0.9,3.6,9.0,-3.4,6.1000000000000005,-0.6000000000000001,16
178,3101.0,0.2,0.0,0.2,0.8,3.7,9.1,-4.0,6.300000000000001,-1.1,16
179,3117.0,0.2,0.1,0.2,0.8,3.8000000000000003,9.200000000000001,-4.2,5.1000000000000005,-1.4,16
180,3134.0,0.2,0.1,0.2,0.7000000000000001,3.8000000000000003,9.200000000000001,-4.5,3.7000000000000006,-1.5,16
181,3171.0,0.1,0.2,0.4,0.6000000000000001,3.9000000000000004,9.3,-4.1,1.6,-0.8,16
182,3186.0,0.1,0.2,0.30000000000000004,0.7000000000000001,3.8000000000000003,9.3,-3.1,-0.8,-1.4,16
183,3201.0,0.1,0.1,0.30000000000000004,0.7000000000000001,3.8000000000000003,9.3,-3.1,-0.8,-1.4,16
184,3217.0,0.1,0.1,0.2,0.7000000000000001,3.8000000000000003,9.3,-2.1,-1.2000000000000002,-2.2,16
185,3234.0,0.1,0.2,0.2,0.7000000000000001,3.9000000000000004,9.0,-0.8,-1.5,-2.9,16
186,3253.0,0.1,0.2,0.0,0.7000000000000001,3.9000000000000004,9.0,-0.1,-1.2000000000000002,-3.5,16
187,3267.0,0.1,0.2,0.0,0.7000000000000001,3.9000000000000004,9.1,-0.5,-0.1,-3.5,16
188,3284.0,0.1,0.2,0.1,0.7000000000000001,3.9000000000000004,9.0,-0.2,-1.0,-4.0,16
189,3301.0,0.1,0.2,0.0,0.7000000000000001,3.9000000000000004,9.0,-0.2,-1.0,-4.0,16
190,3317.0,0.1,0.2,0.0,0.7000000000000001,3.9000000000000004,9.0,0.0,0.8,-4.1,16
191,3334.0,0.1,0.1,0.1,0.7000000000000001,3.9000000000000004,9.1,0.4,1.8000000000000003,-4.1,16
192,3354.0,0.1,0.1,0.2,0.7000000000000001,3.8000000000000003,9.200000000000001,1.1,0.7,-4.4,16
193,3368.0,0.1,0.0,0.2,0.7000000000000001,3.8000000000000003,9.200000000000001,1.1,0.7,-4.4,16
194,3384.0,0.1,0.0,0.2,0.6000000000000001,3.8000000000000003,9.200000000000001,1.1,-0.7,-4.800000000000001,16
195,3402.0,0.0,0.1,0.2,0.6000000000000001,3.8000000000000003,9.3,1.0,-1.4,-4.6,16
196,3417.0,0.0,0.0,0.1,0.6000000000000001,3.8000000000000003,9.200000000000001,1.2000000000000002,-2.5,-3.9,16
197,3434.0,0.0,-0.1,0.1,0.5,3.7,9.200000000000001,0.7,-1.7,-3.2,16
198,3456.0,-0.1,-0.2,0.2,0.5,3.5,9.3,1.2000000000000002,0.2,-2.9,16
199,3468.0,-0.1,-0.30000000000000004,0.2,0.5,3.5,9.3,1.2000000000000002,0.2,-2.9,16
200,3484.0,-0.2,-0.30000000000000004,0.2,0.4,3.5,9.3,1.7,-0.6000000000000001,-3.6000000000000005,16
201,3501.0,-0.2,-0.30000000000000004,0.1,0.4,3.5,9.200000000000001,1.4,-1.4,-4.300000000000001,16
202,3517.0,-0.2,-0.2,0.1,0.30000000000000004,3.5,9.200000000000001,0.9000000000000001,-2.3,-4.6,16
203,3534.0,-0.30000000000000004,-0.2,0.1,0.30000000000000004,3.5,9.200000000000001,1.0,-2.1,-4.800000000000001,16
204,3554.0,-0.30000000000000004,-0.2,0.0,0.2,3.5,9.1,3.3000000000000007,-2.9,-5.9,16
205,3567.0,-0.30000000000000004,-0.2,0.0,0.2,3.5,9.1,3.3000000000000007,-2.9,-5.9,16
206,3584.0,-0.2,-0.1,-0.30000000000000004,0.2,3.6,8.8,3.1,-3.9,-6.1000000000000005,16
207,3601.0,-0.2,0.0,-0.5,0.30000000000000004,3.7,8.6,1.2000000000000002,-3.7000000000000006,-5.6,16
208,3617.0,-0.2,0.1,-0.5,0.30000000000000004,3.8000000000000003,8.5,-1.7,-1.8000000000000003,-4.9,16
209,3636.0,-0.2,0.0,-0.30000000000000004,0.2,3.8000000000000003,8.700000000000001,-3.1,1.2000000000000002,-4.2,16
210,3656.0,-0.2,0.1,-0.2,0.2,3.8000000000000003,8.8,-1.8000000000000003,1.8000000000000003,-3.6000000000000005,16
211,3668.0,-0.2,0.1,-0.2,0.2,3.8000000000000003,8.8,-1.8000000000000003,1.8000000000000003,-3.6000000000000005,16
212,3686.0,-0.2,0.2,-0.30000000000000004,0.2,3.9000000000000004,8.700000000000001,-3.4,3.5,-2.8,16
213,3701.0,-0.30000000000000004,0.1,-0.1,0.0,3.8000000000000003,9.0,-6.9,7.0,0.0,16
214,3717.0,-0.30000000000000004,0.1,0.0,0.0,3.8000000000000003,9.0,-6.9,7.0,0.0,16
215,3734.0,-0.2,0.0,0.1,0.1,3.7,9.200000000000001,-7.0,6.600000000000001,0.9000000000000001,16
216,3758.0,-0.2,-0.1,0.2,0.0,3.6,9.3,-7.500000000000001,8.2,1.3,16
217,3767.0,-0.2,0.0,0.2,0.0,3.6,9.3,-7.500000000000001,8.2,1.3,16
218,3784.0,-0.30000000000000004,0.0,0.5,-0.1,3.6,9.600000000000001,-7.400000000000001,9.0,2.5,16
219,3801.0,-0.2,-0.2,0.6000000000000001,-0.1,3.5,9.8,-6.0,7.300000000000001,3.4,16
220,3817.0,-0.1,-0.2,0.6000000000000001,0.1,3.3000000000000003,9.8,-4.7,3.9,3.2,16
221,3834.0,0.0,-0.30000000000000004,0.4,0.1,3.3000000000000003,9.600000000000001,-3.8,1.0,1.2000000000000002,16
222,3853.0,0.0,-0.2,0.4,0.2,3.3000000000000003,9.600000000000001,-2.3,-0.9000000000000001,-1.0,16
223,3872.0,0.0,-0.2,0.1,0.2,3.4000000000000004,9.200000000000001,2.9,-3.3000000000000007,-4.7,16
224,3885.0,0.0,-0.1,-0.1,0.2,3.4000000000000004,9.200000000000001,2.9,-3.3000000000000007,-4.7,16
225,3900.0,-0.1,0.0,-0.30000000000000004,0.1,3.5,8.9,4.0,-1.4,-5.6,16
226,3917.0,-0.1,0.1,-0.30000000000000004,0.0,3.6,8.9,4.4,2.0,-5.0,16
227,3934.0,-0.2,0.0,-0.2,0.0,3.6,9.0,5.4,3.5,-3.4,16
228,3953.0,-0.1,0.0,-0.2,0.0,3.6,9.0,5.4,3.5,-1.5,16
229,3967.0,-0.1,-0.1,-0.30000000000000004,0.0,3.5,8.9,3.7000000000000006,3.0,0.4,16
230,3984.0,-0.1,-0.1,-0.2,0.0,3.5,9.0,0.7,2.6,3.0,16
231,4000.0,-0.1,-0.2,0.0,0.0,3.4000000000000004,9.1,-1.4,1.4,5.500000000000001,16
232,4017.0,0.0,-0.30000000000000004,0.0,0.1,3.3000000000000003,9.200000000000001,-2.9,0.2,7.300000000000001,16
233,4034.0,0.1,-0.30000000000000004,0.1,0.2,3.2,9.3,-3.8,0.1,8.3,16
234,4050.0,0.1,-0.4,0.2,0.2,3.1,9.4,-4.4,-1.0,8.700000000000001,16
235,4067.0,0.1,-0.4,0.2,0.30000000000000004,3.1,9.4,-4.800000000000001,-3.2,8.4,16
236,4085.0,0.2,-0.4,0.2,0.4,3.1,9.4,-5.7,-5.2,7.200000000000001,16
237,4102.0,0.30000000000000004,-0.30000000000000004,0.1,0.5,3.1,9.3,-6.1000000000000005,-6.9,5.1000000000000005,16
238,4117.0,0.30000000000000004,-0.2,-0.1,0.5,3.2,9.1,-4.2,-5.300000000000001,0.5,16
239,4134.0,0.2,-0.1,-0.1,0.5,3.2,9.1,-4.2,-5.300000000000001,0.5,16
240,4162.0,0.2,0.0,-0.1,0.5,3.3000000000000003,9.1,-2.4000000000000004,-1.8000000000000003,-1.0,16
241,4167.0,0.2,0.0,-0.1,0.5,3.3000000000000003,9.1,-2.4000000000000004,-1.8000000000000003,-1.0,16
242,4184.0,0.1,0.1,-0.1,0.4,3.4000000000000004,9.1,-0.7,0.6000000000000001,-3.9,16
243,4200.0,0.0,0.2,-0.1,0.30000000000000004,3.5,9.1,-1.3,1.1,-5.0,16
244,4217.0,-0.1,0.30000000000000004,0.0,0.1,3.6,9.200000000000001,-2.1,3.0,-4.2,16
245,4234.0,-0.1,0.30000000000000004,0.0,0.1,3.6,9.200000000000001,-2.1,3.0,-4.2,16
246,4251.0,-0.2,0.2,0.2,0.1,3.6,9.4,-1.7,3.5,-2.3,16
247,4268.0,-0.2,0.1,0.2,0.1,3.5,9.5,-1.3,1.7,-1.0,16
248,4284.0,-0.1,0.1,0.2,0.1,3.4000000000000004,9.4,-2.1,-0.6000000000000001,-0.4,16
249,4300.0,-0.1,0.0,0.1,0.1,3.4000000000000004,9.3,-3.7000000000000006,-1.8000000000000003,0.1,16
250,4317.0,-0.1,0.0,0.2,0.1,3.3000000000000003,9.4,-4.4,-1.8000000000000003,0.7,16
251,4334.0,-0.1,-0.1,0.2,0.1,3.3000000000000003,9.5,-3.3000000000000007,-0.9000000000000001,1.2000000000000002,16
252,4351.0,-0.1,-0.1,0.2,0.1,3.2,9.5,-0.9000000000000001,-0.7,0.9000000000000001,16
253,4367.0,-0.1,-0.1,0.2,0.1,3.2,9.5,0.1,-1.7,0.5,16
254,4384.0,-0.1,-0.1,0.2,0.1,3.2,9.4,1.0,-3.2,0.1,16
255,4401.0,-0.1,-0.1,-0.1,0.2,3.2,9.200000000000001,0.6000000000000001,-5.1000000000000005,-0.6000000000000001,16
256,4417.0,0.0,-0.1,0.0,0.2,3.2,9.200000000000001,0.4,-3.2,-1.3,16
257,4434.0,0.0,0.0,-0.1,0.2,3.3000000000000003,9.200000000000001,1.6,-3.0,-2.3,16
258,4454.0,0.0,0.1,-0.1,0.30000000000000004,3.4000000000000004,9.1,2.2,-1.5,-2.4000000000000004,16
259,4467.0,0.0,0.1,-0.2,0.30000000000000004,3.5,9.1,2.4000000000000004,-0.2,-2.3,16
260,4484.0,0.1,0.1,-0.2,0.30000000000000004,3.5,9.0,1.3,-0.9000000000000001,-2.7,16
261,4500.0,0.0,0.2,-0.1,0.30000000000000004,3.5,9.1,-0.30000000000000004,1.3,-2.7,16
262,4517.0,0.0,0.2,0.1,0.2,3.5,9.3,0.30000000000000004,1.5,-2.3,16
263,4534.0,0.0,0.1,0.1,0.2,3.5,9.3,1.4,0.4,-2.0,16
264,4554.0,0.0,0.1,0.1,0.30000000000000004,3.5,9.3,1.9,1.3,-2.4000000000000004,16
265,4568.0,-0.1,0.1,0.1,0.2,3.5,9.3,1.8000000000000003,0.5,-2.6,16
266,4587.0,-0.1,0.1,0.2,0.1,3.5,9.4,2.6,-1.0,-1.4,16
267,4601.0,-0.1,0.0,0.1,0.1,3.5,9.4,2.6,-1.0,-1.4,16
268,4617.0,-0.1,0.0,0.0,0.1,3.4000000000000004,9.3,2.7,-1.8000000000000003,-1.5,16
269,4634.0,-0.1,-0.1,0.0,0.1,3.3000000000000003,9.3,3.5,-1.8000000000000003,-1.4,16
270,4651.0,-0.1,-0.1,0.0,0.1,3.3000000000000003,9.3,3.5,-1.8000000000000003,-1.4,16
271,4667.0,-0.1,-0.1,-0.30000000000000004,0.1,3.4000000000000004,9.0,3.6000000000000005,-2.5,-1.5,16
272,4684.0,-0.1,-0.1,-0.2,0.1,3.4000000000000004,9.0,2.3,-0.4,-1.2000000000000002,16
273,4701.0,-0.1,-0.1,-0.2,0.1,3.4000000000000004,9.0,1.8000000000000003,0.2,-1.3,16
274,4717.0,-0.1,0.0,-0.30000000000000004,0.1,3.4000000000000004,8.9,1.3,0.4,-1.7,16
275,4734.0,-0.1,0.0,-0.1,0.1,3.5,9.0,1.0,2.4000000000000004,-1.4,16
276,4754.0,0.0,0.0,-0.2,0.1,3.5,8.9,0.1,1.3,-1.0,16
277,4771.0,0.0,0.0,-0.30000000000000004,0.1,3.5,8.9,0.1,1.3,-1.0,16
278,4784.0,-0.1,0.1,-0.1,0.1,3.5,9.0,-1.2000000000000002,3.3000000000000007,-1.1,16
279,4801.0,-0.1,0.1,-0.1,0.0,3.6,9.1,-1.1,3.3000000000000007,-0.6000000000000001,16
280,4817.0,0.0,0.1,0.0,0.1,3.5,9.200000000000001,0.0,3.4,0.5,16
281,4834.0,0.0,0.0,0.0,0.1,3.5,9.200000000000001,0.2,2.6,0.8,16
282,4854.0,0.1,0.0,0.0,0.2,3.4000000000000004,9.200000000000001,-2.3,1.3,0.1,16
283,4869.0,0.1,0.0,0.1,0.2,3.4000000000000004,9.200000000000001,-2.3,1.3,0.1,16
284,4889.0,0.1,0.0,0.2,0.2,3.5,9.4,-2.4000000000000004,0.7,0.2,16
285,4900.0,0.1,0.0,0.30000000000000004,0.2,3.5,9.5,-1.2000000000000002,0.1,0.5,16
286,4917.0,0.1,0.0,0.2,0.30000000000000004,3.4000000000000004,9.4,-0.1,-1.2000000000000002,0.2,16
287,4934.0,0.2,0.0,0.2,0.30000000000000004,3.4000000000000004,9.4,-0.1,-2.1,-0.5,16
288,4952.0,0.1,0.0,0.2,0.30000000000000004,3.5,9.4,0.6000000000000001,-2.8,-1.2000000000000002,16
289,4968.0,0.1,0.1,0.1,0.30000000000000004,3.5,9.4,0.6000000000000001,-2.8,-1.2000000000000002,16
290,4984.0,0.1,0.0,0.0,0.30000000000000004,3.5,9.3,1.7,-3.0,-1.3,16
291,5002.0,0.1,0.0,-0.1,0.30000000000000004,3.5,9.1,2.0,-2.9,-1.7,16
292,5017.0,0.1,0.0,-0.1,0.30000000000000004,3.5,9.1,2.0,-2.1,-2.1,16
293,5034.0,0.1,0.0,-0.1,0.30000000000000004,3.5,9.1,2.0,-2.1,-2.1,16
294,5062.0,0.1,0.0,-0.30000000000000004,0.30000000000000004,3.5,8.8,0.6000000000000001,-0.6000000000000001,-2.4000000000000004,16
295,5067.0,0.1,0.0,-0.30000000000000004,0.30000000000000004,3.5,8.8,0.6000000000000001,-0.6000000000000001,-2.4000000000000004,16
296,5084.0,0.0,0.0,-0.2,0.30000000000000004,3.5,8.9,0.1,1.6,-2.1,16
297,5100.0,0.0,0.0,-0.1,0.2,3.4000000000000004,9.1,-0.2,3.3000000000000007,-1.5,16
298,5117.0,0.0,-0.1,0.0,0.2,3.4000000000000004,9.1,-0.2,3.3000000000000007,-1.5,16
299,5134.0,-0.1,-0.1,0.0,0.1,3.4000000000000004,9.200000000000001,-0.7,2.9,-1.9,16
300,5150.0,-0.1,-0.1,0.0,0.1,3.4000000000000004,9.200000000000001,-0.8,2.0,-2.2,16
301,5167.0,-0.2,0.0,0.0,0.0,3.4000000000000004,9.200000000000001,-0.8,1.1,-2.0,16
302,5186.0,-0.1,0.0,0.1,0.0,3.4000000000000004,9.200000000000001,-0.4,1.5,-1.6,16
303,5200.0,-0.1,0.0,0.0,0.0,3.4000000000000004,9.200000000000001,-0.30000000000000004,1.1,-1.3,16
304,5217.0,-0.1,0.0,0.0,0.0,3.5,9.200000000000001,-1.0,1.4,-1.0,16
305,5234.0,-0.1,0.0,0.1,0.0,3.5,9.3,-1.3,0.9000000000000001,-0.5,16
306,5250.0,-0.1,0.0,0.2,0.0,3.5,9.3,-1.3,0.30000000000000004,0.1,16
307,5267.0,-0.1,0.0,0.2,0.0,3.5,9.4,-0.7,-0.2,0.4,16
308,5284.0,0.0,0.0,0.1,0.1,3.4000000000000004,9.3,0.1,-0.6000000000000001,0.4,16
309,5300.0,0.0,0.0,0.1,0.1,3.5,9.3,0.7,-0.5,0.2,16
310,5317.0,0.0,0.0,0.1,0.1,3.5,9.3,1.2000000000000002,-0.6000000000000001,0.30000000000000004,16
311,5334.0,0.0,0.1,-0.1,0.2,3.5,9.200000000000001,1.5,-0.5,0.4,16
312,5350.0,0.1,0.1,0.0,0.2,3.5,9.1,1.3,1.0,0.6000000000000001,16
313,5368.0,0.1,0.0,0.0,0.2,3.5,9.200000000000001,1.4,2.1,0.8,16
314,5384.0,0.1,0.0,0.0,0.2,3.4000000000000004,9.200000000000001,1.7,2.1,0.8,16
315,5401.0,0.1,-0.1,-0.1,0.2,3.4000000000000004,9.1,2.1,1.7,0.2,16
316,5417.0,0.1,0.0,-0.1,0.2,3.4000000000000004,9.1,2.3,1.4,-0.4,16
317,5434.0,0.1,0.0,-0.1,0.2,3.5,9.0,2.5,2.1,-0.8,16
318,5453.0,0.1,0.0,-0.2,0.2,3.4000000000000004,9.0,3.4,2.0,-1.5,16
319,5469.0,0.1,0.0,-0.30000000000000004,0.2,3.6,8.700000000000001,3.4,2.3,-2.9,16
320,5484.0,0.1,0.1,-0.4,0.2,3.6,8.700000000000001,3.4,2.3,-2.9,16
321,5501.0,0.0,0.2,-0.30000000000000004,0.2,3.8000000000000003,8.700000000000001,0.9000000000000001,4.6,-2.0,16
322,5518.0,0.0,0.2,-0.1,0.0,3.7,9.200000000000001,-2.6,7.699999999999999,0.5,16
323,5534.0,0.0,0.2,0.1,0.0,3.7,9.200000000000001,-2.6,7.699999999999999,0.5,16
324,5551.0,-0.1,0.1,0.2,0.0,3.7,9.3,-2.5,7.8,1.3,16
325,5568.0,-0.1,0.2,0.2,-0.1,3.7,9.4,-2.7,7.1000000000000005,2.3,16
326,5584.0,-0.1,0.1,0.30000000000000004,-0.1,3.7,9.4,-3.7000000000000006,6.8,3.4,16
327,5601.0,-0.2,0.1,0.5,-0.2,3.6,9.700000000000001,-3.6000000000000005,5.7,4.800000000000001,16
328,5618.0,-0.1,0.0,0.6000000000000001,-0.2,3.6,9.8,-2.0,3.5,5.9,16
329,5634.0,-0.1,0.0,0.6000000000000001,-0.1,3.5,9.8,-0.2,1.6,6.699999999999999,16
330,5651.0,-0.1,0.0,0.5,-0.1,3.5,9.700000000000001,1.3,0.0,6.699999999999999,16
331,5667.0,-0.1,0.0,0.4,-0.1,3.5,9.600000000000001,2.6,-0.8,6.600000000000001,16
332,5684.0,-0.1,0.0,0.2,-0.1,3.5,9.5,3.1,-0.1,6.699999999999999,16
333,5701.0,-0.1,0.0,0.30000000000000004,-0.1,3.5,9.600000000000001,4.1,1.9,7.0,16
334,5717.0,-0.1,-0.1,0.30000000000000004,-0.1,3.5,9.600000000000001,5.8,1.9,7.200000000000001,16
335,5734.0,-0.1,-0.1,0.30000000000000004,-0.1,3.5,9.600000000000001,7.1000000000000005,1.5,7.200000000000001,16
336,5751.0,-0.1,-0.1,0.30000000000000004,-0.1,3.5,9.600000000000001,8.0,1.8000000000000003,7.699999999999999,16
337,5767.0,-0.1,-0.2,0.30000000000000004,-0.2,3.5,9.600000000000001,8.8,1.6,8.100000000000001,16
338,5784.0,-0.1,-0.2,0.30000000000000004,-0.2,3.4000000000000004,9.600000000000001,10.1,0.2,8.3,16
339,5801.0,-0.1,-0.30000000000000004,0.1,-0.1,3.3000000000000003,9.4,11.6,-2.8,7.8,16
340,5817.0,0.0,-0.30000000000000004,-0.2,-0.1,3.4000000000000004,9.1,12.0,-6.0,7.200000000000001,16
341,5834.0,0.0,-0.30000000000000004,-0.4,0.0,3.4000000000000004,8.8,11.5,-8.700000000000001,6.600000000000001,16
342,5851.0,0.1,-0.30000000000000004,-0.9,0.1,3.4000000000000004,8.4,10.1,-10.200000000000001,6.1000000000000005,16
343,5867.0,0.1,-0.30000000000000004,-1.0,0.2,3.4000000000000004,8.1,8.600000000000001,-8.700000000000001,5.9,16
344,5884.0,0.2,-0.30000000000000004,-1.2000000000000002,0.30000000000000004,3.5,7.9,6.9,-6.300000000000001,5.300000000000001,16
345,5901.0,0.30000000000000004,-0.2,-1.4000000000000001,0.5,3.6,7.7,4.6,-4.5,4.6,16
346,5918.0,0.4,0.0,-1.5,0.6000000000000001,3.7,7.6000000000000005,1.2000000000000002,-2.1,3.8,16
347,5935.0,0.4,0.1,-1.5,0.6000000000000001,3.8000000000000003,7.6000000000000005,-2.8,1.8000000000000003,3.5,16
348,5952.0,0.4,0.2,-1.2000000000000002,0.6000000000000001,3.9000000000000004,7.800000000000001,-6.1000000000000005,6.699999999999999,3.8,16
349,5967.0,0.4,0.2,-0.8,0.6000000000000001,3.9000000000000004,8.200000000000001,-7.9,10.600000000000001,4.1,16
350,5984.0,0.5,0.2,-0.6000000000000001,0.6000000000000001,3.9000000000000004,8.5,-8.8,12.9,3.8,16
351,6001.0,0.5,0.2,-0.4,0.6000000000000001,3.9000000000000004,8.700000000000001,-9.700000000000001,14.600000000000001,2.8,16
352,6017.0,0.4,0.4,0.0,0.5,4.0,9.0,-10.600000000000001,16.200000000000003,2.1,16
353,6034.0,0.30000000000000004,0.4,0.2,0.2,4.0,9.600000000000001,-10.4,16.6,2.3,16
354,6051.0,0.30000000000000004,0.4,0.5,0.2,4.0,9.600000000000001,-9.0,16.3,2.9,16
355,6067.0,0.2,0.5,0.6000000000000001,0.1,4.0,9.700000000000001,-7.699999999999999,15.700000000000001,3.7000000000000006,16
356,6084.0,0.1,0.5,0.7000000000000001,0.0,4.0,9.9,-6.8,14.5,4.800000000000001,16
357,6100.0,0.0,0.4,0.9,-0.1,3.9000000000000004,10.0,-5.7,10.700000000000001,6.1000000000000005,16
358,6117.0,0.1,0.2,0.8,0.0,3.8000000000000003,10.0,-4.7,4.6,6.500000000000001,16
359,6134.0,0.30000000000000004,0.2,0.5,0.1,3.7,9.700000000000001,-4.300000000000001,-0.30000000000000004,6.1000000000000005,16
360,6159.0,0.30000000000000004,0.2,0.2,0.2,3.6,9.4,-3.6000000000000005,-0.5,5.6,16
361,6168.0,0.30000000000000004,0.1,0.2,0.2,3.6,9.4,-3.6000000000000005,-0.5,5.6,16
362,6184.0,0.4,0.0,0.1,0.30000000000000004,3.5,9.3,-1.7,0.4,5.300000000000001,16
363,6200.0,0.4,-0.1,0.0,0.30000000000000004,3.4000000000000004,9.200000000000001,-0.30000000000000004,1.3,4.4,16
364,6217.0,0.5,-0.1,0.0,0.4,3.4000000000000004,9.200000000000001,0.1,1.5,3.0,16
365,6234.0,0.5,-0.1,-0.1,0.4,3.4000000000000004,9.1,-0.1,0.4,1.2000000000000002,16
366,6250.0,0.4,-0.1,-0.1,0.4,3.4000000000000004,9.1,-0.5,0.2,-0.30000000000000004,16
367,6267.0,0.4,-0.1,-0.1,0.30000000000000004,3.4000000000000004,9.1,-0.30000000000000004,0.2,-1.4,16
368,6284.0,0.30000000000000004,0.0,-0.1,0.30000000000000004,3.5,9.0,0.1,0.0,-2.0,16
369,6303.0,0.2,0.0,-0.1,0.2,3.5,9.200000000000001,-0.6000000000000001,0.7,-1.4,16
370,6317.0,0.2,0.0,0.0,0.2,3.5,9.200000000000001,-0.6000000000000001,0.7,-1.4,16
371,6334.0,0.1,0.0,0.1,0.1,3.5,9.200000000000001,-0.9000000000000001,-0.9000000000000001,-0.8,16
372,6350.0,0.2,0.0,0.0,0.1,3.5,9.200000000000001,-1.7,-2.9,-0.7,16
373,6368.0,0.1,0.0,0.0,0.1,3.5,9.200000000000001,-2.8,-3.6000000000000005,-0.8,16
374,6384.0,0.1,0.1,0.1,0.1,3.5,9.200000000000001,-3.5,-3.6000000000000005,-0.6000000000000001,16
375,6400.0,0.0,0.0,0.1,0.1,3.5,9.3,-3.4,-2.5,-0.1,16
376,6417.0,0.0,0.0,0.1,0.1,3.4000000000000004,9.3,-2.4000000000000004,-2.4000000000000004,-0.30000000000000004,16
377,6434.0,0.1,-0.1,0.1,0.1,3.4000000000000004,9.4,-1.5,-2.8,-1.0,16
378,6453.0,0.0,0.0,0.0,0.1,3.5,9.200000000000001,-0.5,-3.6000000000000005,-3.1,16
379,6467.0,0.0,0.0,0.0,0.1,3.5,9.200000000000001,-0.5,-3.6000000000000005,-3.1,16
380,6484.0,0.0,0.1,0.0,0.0,3.5,9.200000000000001,-0.30000000000000004,-1.8000000000000003,-3.2,16
381,6501.0,-0.1,0.1,0.0,0.0,3.6,9.200000000000001,0.30000000000000004,0.0,-3.1,16
382,6518.0,-0.1,0.1,0.0,-0.1,3.6,9.200000000000001,1.0,0.5,-3.1,16
383,6534.0,-0.2,0.2,-0.1,-0.1,3.6,9.200000000000001,1.0,0.1,-3.0,16
384,6568.0,-0.2,0.1,0.0,-0.2,3.6,9.200000000000001,-0.30000000000000004,0.7,-1.6,16
385,6585.0,-0.2,0.2,0.0,-0.2,3.6,9.200000000000001,0.30000000000000004,0.1,-0.8,16
386,6600.0,-0.1,0.2,-0.1,-0.2,3.7,9.200000000000001,1.3,-0.1,-0.2,16
387,6617.0,-0.1,0.2,-0.2,-0.2,3.7,9.0,1.2000000000000002,-0.2,0.2,16
388,6634.0,-0.1,0.2,-0.1,-0.2,3.7,9.1,0.30000000000000004,1.4,1.3,16
389,6650.0,-0.1,0.2,-0.1,-0.2,3.7,9.1,0.6000000000000001,1.0,2.2,16
390,6667.0,-0.1,0.1,-0.1,-0.1,3.7,9.1,0.5,0.8,2.8,16
391,6684.0,-0.1,0.1,-0.1,-0.1,3.7,9.1,0.2,1.9,3.3000000000000007,16
392,6700.0,0.0,0.1,-0.1,-0.1,3.6,9.0,0.1,1.7,3.9,16
393,6717.0,0.0,0.0,-0.1,0.0,3.6,9.1,-0.1,3.2,4.5,16
394,6734.0,0.0,0.0,-0.1,0.0,3.5,9.1,0.1,2.9,4.4,16
395,6750.0,0.1,-0.1,-0.1,0.0,3.5,9.0,-0.5,3.2,4.1,16
396,6767.0,0.1,-0.1,-0.1,0.0,3.5,9.0,-0.9000000000000001,4.0,3.8,16
397,6784.0,0.1,-0.1,-0.1,0.0,3.4000000000000004,9.0,-1.5,4.0,3.8,16
398,6800.0,0.1,-0.1,0.0,0.1,3.4000000000000004,9.1,-1.6,4.4,3.5,16
399,6817.0,0.1,-0.1,0.0,0.1,3.4000000000000004,9.200000000000001,-1.0,3.2,3.3000000000000007,16
400,6834.0,0.2,-0.1,-0.1,0.1,3.4000000000000004,9.1,-1.0,2.2,3.1,16
401,6852.0,0.2,-0.1,-0.1,0.2,3.4000000000000004,9.1,-2.0,2.5,2.9,16
402,6868.0,0.2,-0.1,0.0,0.2,3.4000000000000004,9.1,-2.4000000000000004,2.0,2.7,16
403,6884.0,0.30000000000000004,-0.1,0.0,0.2,3.4000000000000004,9.1,-2.5,0.8,2.2,16
404,6901.0,0.30000000000000004,-0.1,0.0,0.2,3.4000000000000004,9.1,-2.9,1.0,1.9,16
405,6917.0,0.30000000000000004,-0.1,0.0,0.2,3.4000000000000004,9.1,-2.9,1.0,1.9,16
406,6934.0,0.30000000000000004,-0.1,0.1,0.30000000000000004,3.4000000000000004,9.200000000000001,-2.7,0.30000000000000004,1.4,16
407,6951.0,0.30000000000000004,-0.1,0.1,0.30000000000000004,3.4000000000000004,9.200000000000001,-2.8,-0.2,0.8,16
408,6968.0,0.2,0.0,0.1,0.2,3.4000000000000004,9.3,-3.2,-0.30000000000000004,0.1,16
409,6985.0,0.1,0.0,0.1,0.2,3.4000000000000004,9.3,-3.2,-0.30000000000000004,0.1,16
410,7000.0,0.1,0.0,0.2,0.2,3.4000000000000004,9.4,-2.6,-0.6000000000000001,0.2,16
411,7017.0,0.1,-0.1,0.1,0.2,3.3000000000000003,9.3,-2.4000000000000004,-1.0,0.0,16
412,7034.0,0.0,-0.1,0.2,0.1,3.3000000000000003,9.4,-2.5,-0.6000000000000001,-0.4,16
413,7050.0,0.0,0.0,0.2,0.0,3.4000000000000004,9.4,-1.8000000000000003,-1.9,-0.5,16
414,7067.0,0.0,0.0,0.1,0.0,3.4000000000000004,9.3,-1.6,-2.7,-0.4,16
415,7085.0,0.0,0.0,0.0,0.0,3.4000000000000004,9.3,-1.9,-2.2,-0.4,16
416,7103.0,-0.1,0.0,0.0,0.0,3.4000000000000004,9.3,-2.0,-2.2,-0.5,16
417,7118.0,-0.1,0.0,0.0,0.0,3.4000000000000004,9.200000000000001,-1.6,-2.2,-0.5,16
418,7134.0,0.0,0.0,0.0,0.0,3.4000000000000004,9.200000000000001,-1.1,-2.6,-0.4,16
419,7150.0,0.0,0.1,-0.2,0.1,3.4000000000000004,9.1,-1.2000000000000002,-3.6000000000000005,-0.6000000000000001,16
420,7168.0,0.0,0.1,-0.30000000000000004,0.1,3.5,9.0,-1.8000000000000003,-3.1,-0.6000000000000001,16
421,7184.0,0.0,0.1,-0.30000000000000004,0.1,3.5,9.0,-2.4000000000000004,-1.1,0.0,16
422,7200.0,-0.1,0.1,-0.1,0.0,3.5,9.1,-2.4000000000000004,1.1,1.0,16
423,7217.0,-0.1,0.0,0.0,0.0,3.4000000000000004,9.1,-2.5,2.3,1.7,16
424,7234.0,-0.1,0.0,0.0,0.0,3.4000000000000004,9.200000000000001,-3.3000000000000007,2.5,2.0,16
425,7250.0,-0.1,0.0,0.1,0.0,3.3000000000000003,9.3,-4.0,2.3,2.2,16
426,7267.0,-0.1,-0.1,0.2,-0.1,3.3000000000000003,9.4,-3.6000000000000005,1.0,2.4000000000000004,16
427,7286.0,-0.1,-0.1,0.2,0.0,3.2,9.4,-2.5,-0.1,2.5,16
428,7300.0,-0.1,-0.1,0.0,0.0,3.2,9.3,-2.1,0.0,2.4000000000000004,16
429,7317.0,-0.1,0.0,0.0,0.0,3.3000000000000003,9.200000000000001,-2.1,0.9000000000000001,2.8,16
430,7336.0,-0.1,0.0,0.0,0.0,3.2,9.3,-2.6,1.1,3.5,16
431,7351.0,-0.1,0.0,0.0,0.0,3.2,9.3,-2.6,1.1,3.5,16
432,7367.0,0.0,-0.1,0.0,0.0,3.2,9.200000000000001,-3.0,0.8,3.4,16
433,7384.0,-0.1,0.0,0.0,0.0,3.2,9.200000000000001,-3.4,0.9000000000000001,3.2,16
434,7401.0,-0.1,0.0,0.0,0.0,3.3000000000000003,9.200000000000001,-3.5,1.7,3.3000000000000007,16
435,7417.0,0.0,0.0,0.1,0.0,3.3000000000000003,9.3,-2.7,2.3,3.6000000000000005,16
436,7434.0,0.0,0.0,0.0,0.1,3.3000000000000003,9.200000000000001,-2.1,1.8000000000000003,2.9,16
437,7451.0,0.0,0.0,-0.1,0.1,3.3000000000000003,9.200000000000001,-2.1,1.8000000000000003,2.9,16
438,7467.0,0.0,0.1,-0.1,0.1,3.4000000000000004,9.1,-2.7,1.7,2.5,16
439,7484.0,0.0,0.2,-0.1,0.1,3.4000000000000004,9.200000000000001,-3.0,2.5,2.4000000000000004,16
440,7500.0,0.0,0.2,-0.1,0.0,3.4000000000000004,9.200000000000001,-2.5,3.8,2.9,16
441,7518.0,0.0,0.1,0.0,0.1,3.4000000000000004,9.200000000000001,-2.1,5.6,3.5,16
442,7534.0,0.1,0.1,0.1,0.1,3.3000000000000003,9.3,-2.0,5.4,3.8,16
443,7557.0,0.2,0.0,0.1,0.2,3.2,9.3,-2.9,2.7,2.6,16
444,7567.0,0.2,0.0,0.1,0.2,3.2,9.3,-2.9,2.7,2.6,16
445,7584.0,0.2,0.0,0.0,0.2,3.2,9.3,-2.7,3.6000000000000005,2.0,16
446,7601.0,0.2,0.0,0.1,0.2,3.2,9.4,-1.5,5.500000000000001,1.8000000000000003,16
447,7617.0,0.1,-0.1,0.2,0.1,3.1,9.5,0.30000000000000004,6.0,1.8000000000000003,16
448,7634.0,0.1,-0.1,0.2,0.1,3.1,9.5,1.3,5.9,1.5,16
449,7651.0,0.1,-0.1,0.2,0.1,3.1,9.600000000000001,1.6,4.1,1.2000000000000002,16
450,7668.0,0.1,0.0,0.2,0.1,3.2,9.5,1.2000000000000002,1.2000000000000002,1.4,16
451,7684.0,0.1,0.0,0.0,0.1,3.2,9.4,-0.30000000000000004,-1.1,2.0,16
452,7700.0,0.1,0.0,0.0,0.2,3.2,9.3,-1.9,-2.3,2.6,16
453,7719.0,0.2,-0.1,0.1,0.2,3.1,9.4,-2.3,-2.6,3.1,16
454,7737.0,0.30000000000000004,-0.2,0.0,0.30000000000000004,3.0,9.4,-1.8000000000000003,-3.6000000000000005,3.0,16
455,7755.0,0.30000000000000004,-0.2,-0.1,0.4,3.0,9.3,-2.2,-4.1,0.5,16
456,7768.0,0.30000000000000004,-0.2,-0.1,0.4,3.0,9.3,-2.2,-4.1,0.5,16
457,7785.0,0.2,-0.1,0.0,0.4,3.0,9.3,-2.6,-3.1,-0.8,16
458,7801.0,0.2,-0.1,0.0,0.30000000000000004,3.0,9.4,-1.9,-2.0,-2.2,16
459,7817.0,0.2,-0.1,0.1,0.30000000000000004,3.0,9.4,-0.6000000000000001,-1.2000000000000002,-3.7000000000000006,16
460,7834.0,0.1,0.0,0.1,0.2,3.1,9.5,0.8,-0.4,-5.300000000000001,16
461,7851.0,0.0,0.0,0.1,0.1,3.1,9.5,1.7,0.0,-6.600000000000001,16
462,7867.0,-0.1,0.0,0.2,0.0,3.2,9.5,2.0,1.1,-7.400000000000001,16
463,7884.0,-0.2,0.0,0.30000000000000004,-0.1,3.2,9.600000000000001,2.9,1.9,-7.8,16
464,7900.0,-0.30000000000000004,0.1,0.30000000000000004,-0.2,3.3000000000000003,9.600000000000001,5.8,-0.4,-7.500000000000001,16
465,7917.0,-0.30000000000000004,0.1,0.2,-0.2,3.3000000000000003,9.600000000000001,5.8,-0.4,-7.500000000000001,16
466,7934.0,-0.30000000000000004,0.2,0.0,-0.30000000000000004,3.4000000000000004,9.4,5.7,-1.8000000000000003,-6.600000000000001,16
467,7950.0,-0.4,0.2,0.0,-0.30000000000000004,3.4000000000000004,9.4,5.0,-1.6,-5.2,16
468,7967.0,-0.4,0.2,0.0,-0.30000000000000004,3.4000000000000004,9.4,5.2,-2.3,-3.6000000000000005,16
469,7984.0,-0.30000000000000004,0.2,-0.2,-0.30000000000000004,3.5,9.200000000000001,5.6,-3.6000000000000005,-1.9,16
470,8000.0,-0.30000000000000004,0.2,-0.4,-0.30000000000000004,3.5,9.0,4.7,-3.8,-0.2,16
471,8017.0,-0.30000000000000004,0.2,-0.4,-0.30000000000000004,3.5,8.9,2.6,-2.9,1.7,16
472,8034.0,-0.2,0.1,-0.30000000000000004,-0.2,3.4000000000000004,9.0,1.1,-1.5,3.6000000000000005,16
473,8051.0,-0.1,0.0,-0.2,-0.2,3.3000000000000003,9.0,0.4,-0.9000000000000001,4.7,16
474,8067.0,-0.1,-0.1,-0.2,-0.1,3.2,9.1,0.6000000000000001,-0.2,4.9,16
475,8084.0,-0.1,-0.2,-0.1,-0.1,3.2,9.1,1.2000000000000002,0.5,4.5,16
476,8100.0,-0.1,-0.2,-0.1,-0.1,3.1,9.1,1.8000000000000003,1.7,3.6000000000000005,16
477,8117.0,-0.1,-0.2,0.0,-0.1,3.1,9.200000000000001,2.4000000000000004,3.0,3.0,16
478,8135.0,0.0,-0.1,0.0,-0.1,3.2,9.200000000000001,3.7000000000000006,2.4000000000000004,2.4000000000000004,16
479,8150.0,0.1,-0.1,-0.2,0.0,3.2,9.1,3.6000000000000005,1.7,1.9,16
480,8179.0,0.0,0.1,-0.1,0.0,3.4000000000000004,9.1,1.2000000000000002,2.9,1.8000000000000003,16
481,8185.0,0.0,0.1,-0.1,0.0,3.4000000000000004,9.1,1.2000000000000002,2.9,1.8000000000000003,16
482,8200.0,0.1,0.1,-0.1,0.0,3.4000000000000004,9.200000000000001,1.4,3.0,2.3,16
483,8217.0,0.1,0.1,-0.1,0.0,3.4000000000000004,9.1,1.4,3.6000000000000005,2.3,16
484,8234.0,0.1,0.1,-0.1,0.0,3.5,9.1,0.5,5.6,2.5,16
485,8250.0,0.0,0.1,0.1,0.0,3.5,9.200000000000001,0.4,6.0,3.0,16
486,8267.0,0.0,0.1,0.1,-0.1,3.4000000000000004,9.4,0.9000000000000001,5.1000000000000005,3.9,16
487,8284.0,0.1,0.0,0.1,0.0,3.3000000000000003,9.3,1.6,3.3000000000000007,4.300000000000001,16
488,8300.0,0.1,-0.1,0.0,0.0,3.3000000000000003,9.200000000000001,0.9000000000000001,1.5,4.0,16
489,8319.0,0.1,-0.1,0.0,0.0,3.3000000000000003,9.200000000000001,-0.2,0.7,3.2,16
490,8340.0,0.1,-0.1,-0.1,0.1,3.3000000000000003,9.200000000000001,0.30000000000000004,1.7,3.1,16
491,8353.0,0.1,-0.1,0.0,0.1,3.3000000000000003,9.200000000000001,0.30000000000000004,1.7,3.1,16
492,8367.0,0.1,-0.1,-0.1,0.1,3.3000000000000003,9.1,1.0,2.3,2.7,16
493,8384.0,0.1,-0.1,-0.1,0.1,3.3000000000000003,9.1,0.9000000000000001,3.1,2.6,16
494,8400.0,0.1,-0.1,-0.1,0.1,3.3000000000000003,9.200000000000001,0.9000000000000001,2.4000000000000004,2.3,16
495,8417.0,0.1,-0.1,-0.2,0.1,3.3000000000000003,9.0,-0.4,0.30000000000000004,1.7,16
496,8434.0,0.1,0.0,-0.2,0.1,3.3000000000000003,9.0,-2.6,1.3,1.6,16
497,8451.0,0.1,0.0,0.0,0.1,3.3000000000000003,9.1,-2.7,1.5,1.5,16
498,8467.0,0.2,-0.1,0.0,0.1,3.3000000000000003,9.200000000000001,-1.8000000000000003,1.6,1.4,16
499,8484.0,0.2,-0.1,0.0,0.1,3.3000000000000003,9.200000000000001,-0.9000000000000001,1.8000000000000003,0.7,16
500,8500.0,0.2,0.0,-0.1,0.1,3.3000000000000003,9.1,-1.7,1.2000000000000002,0.1,16
501,8517.0,0.1,0.0,0.0,0.1,3.3000000000000003,9.200000000000001,-2.6,1.0,-0.2,16
502,8534.0,0.1,0.0,0.0,0.1,3.3000000000000003,9.200000000000001,-3.0,0.2,0.1,16
503,8551.0,0.1,0.0,0.1,0.1,3.3000000000000003,9.3,-2.8,0.5,0.0,16
504,8568.0,0.1,0.0,0.2,0.1,3.3000000000000003,9.4,-2.3,0.8,-0.30000000000000004,16
505,8584.0,0.1,0.0,0.2,0.1,3.3000000000000003,9.4,-1.8000000000000003,0.0,-0.6000000000000001,16
506,8600.0,0.1,0.0,0.1,0.1,3.3000000000000003,9.3,-2.2,-1.2000000000000002,-0.8,16
507,8617.0,0.0,0.0,0.1,0.0,3.3000000000000003,9.3,-2.9,-0.6000000000000001,-0.7,16
508,8644.0,0.0,-0.1,0.2,0.0,3.2,9.4,-1.9,-2.0,-1.5,16
509,8652.0,0.0,-0.1,0.2,0.0,3.2,9.4,-1.9,-2.0,-1.5,16
510,8667.0,0.0,0.0,0.1,0.1,3.2,9.4,-1.4,-2.5,-2.3,16
511,8684.0,0.0,0.0,0.1,0.0,3.2,9.4,-1.2000000000000002,-2.7,-2.8,16
512,8701.0,0.0,0.0,0.0,0.0,3.3000000000000003,9.3,-1.0,-2.6,-3.0,16
513,8718.0,0.0,0.0,0.0,0.0,3.3000000000000003,9.3,-0.8,-1.8000000000000003,-3.1,16
514,8743.0,-0.1,0.0,0.1,-0.1,3.3000000000000003,9.4,0.1,-0.1,-3.1,16
515,8750.0,-0.1,0.0,0.1,-0.1,3.3000000000000003,9.4,0.1,-0.1,-3.1,16
516,8767.0,-0.2,0.0,0.1,-0.2,3.3000000000000003,9.4,0.6000000000000001,-0.8,-2.8,16
517,8784.0,-0.2,0.0,0.1,-0.2,3.3000000000000003,9.3,0.30000000000000004,-2.1,-2.4000000000000004,16
518,8800.0,-0.2,0.0,0.1,-0.2,3.3000000000000003,9.4,-0.4,-2.4000000000000004,-1.9,16
519,8818.0,-0.2,0.0,0.1,-0.2,3.3000000000000003,9.4,-0.5,-3.1,-1.3,16
520,8840.0,-0.1,-0.1,0.1,-0.2,3.2,9.4,-0.2,-2.7,-0.8,16
521,8850.0,-0.1,-0.1,0.0,-0.1,3.1,9.3,0.30000000000000004,-3.0,-1.0,16
522,8867.0,-0.1,-0.1,-0.1,-0.1,3.2,9.200000000000001,0.2,-2.4000000000000004,-1.3,16
523,8884.0,-0.1,0.0,-0.1,-0.1,3.2,9.200000000000001,0.4,-2.0,-1.3,16
524,8900.0,-0.1,0.0,-0.1,-0.1,3.2,9.200000000000001,0.30000000000000004,-1.8000000000000003,-0.9000000000000001,16
525,8917.0,0.0,0.0,-0.1,0.0,3.2,9.1,0.1,-1.5,-1.0,16
526,8940.0,0.0,0.0,-0.2,0.0,3.2,9.1,-0.4,-0.9000000000000001,-1.5,16
527,8950.0,0.0,0.0,-0.2,0.0,3.3000000000000003,9.1,-0.9000000000000001,0.4,-1.7,16
528,8967.0,-0.1,0.1,0.0,-0.1,3.3000000000000003,9.200000000000001,-0.9000000000000001,1.8000000000000003,-0.9000000000000001,16
529,8984.0,-0.1,0.0,0.1,-0.1,3.2,9.3,-0.6000000000000001,2.2,0.0,16
530,9000.0,0.0,-0.1,0.1,-0.1,3.1,9.4,-0.2,1.4,0.1,16
531,9017.0,0.0,-0.1,0.1,0.0,3.1,9.4,-0.4,-0.6000000000000001,-0.5,16
532,9043.0,0.0,0.0,-0.1,-0.1,3.2,9.3,-0.8,-2.1,-0.5,16
533,9050.0,0.0,0.0,-0.1,-0.1,3.3000000000000003,9.200000000000001,-0.8,-2.1,-0.5,16
534,9068.0,0.0,0.0,-0.2,0.0,3.3000000000000003,9.1,-1.0,-0.9000000000000001,0.30000000000000004,16
535,9084.0,0.0,0.0,-0.2,0.0,3.2,9.1,-1.7,0.6000000000000001,0.9000000000000001,16
536,9101.0,0.0,0.0,-0.1,0.0,3.2,9.200000000000001,-2.1,2.0,1.5,16
537,9117.0,0.0,0.0,0.1,0.0,3.2,9.3,-1.8000000000000003,1.5,1.7,16
538,9142.0,0.0,0.0,0.0,0.0,3.2,9.3,-1.5,0.7,1.4,16
539,9151.0,0.0,0.0,0.0,0.0,3.2,9.3,-1.6,-0.1,1.1,16
540,9168.0,0.0,0.1,0.0,0.0,3.3000000000000003,9.3,-2.0,0.30000000000000004,1.3,16
541,9188.0,0.0,0.1,0.1,0.0,3.3000000000000003,9.3,-2.0,1.7,1.5,16
542,9200.0,0.0,0.1,0.2,-0.1,3.3000000000000003,9.5,-1.0,3.1,2.1,16
543,9217.0,-0.1,0.1,0.30000000000000004,-0.1,3.3000000000000003,9.600000000000001,0.9000000000000001,2.4000000000000004,2.5,16
544,9238.0,0.0,0.1,0.1,-0.1,3.3000000000000003,9.4,1.2000000000000002,0.1,2.8,16
545,9250.0,0.0,0.1,0.0,0.0,3.3000000000000003,9.3,-0.5,-1.3,3.0,16
546,9267.0,0.0,0.1,0.1,-0.1,3.3000000000000003,9.4,-2.1,-1.4,3.5,16
547,9284.0,0.0,0.0,0.1,0.0,3.3000000000000003,9.5,-1.0,-1.5,4.0,16
548,9300.0,0.1,0.0,0.1,0.0,3.2,9.4,1.4,-1.4,3.8,16
549,9324.0,0.1,0.0,-0.1,0.1,3.3000000000000003,9.200000000000001,2.2,-0.8,3.4,16
550,9334.0,0.1,0.0,-0.1,0.1,3.3000000000000003,9.200000000000001,2.2,-0.8,3.4,16
551,9353.0,0.1,0.0,-0.1,0.2,3.2,9.200000000000001,1.0,-1.2000000000000002,3.7000000000000006,16
552,9367.0,0.2,-0.1,-0.1,0.2,3.1,9.200000000000001,0.1,-1.7,3.6000000000000005,16
553,9384.0,0.2,-0.2,-0.1,0.2,3.1,9.200000000000001,-0.4,-0.9000000000000001,2.9,16
554,9402.0,0.2,-0.2,0.0,0.2,3.0,9.200000000000001,0.0,0.30000000000000004,2.3,16
555,9417.0,0.2,-0.30000000000000004,-0.1,0.2,2.9000000000000004,9.200000000000001,0.0,0.30000000000000004,2.3,16
556,9437.0,0.30000000000000004,-0.4,-0.4,0.30000000000000004,2.8000000000000003,8.9,1.7,-2.4000000000000004,0.4,16
557,9450.0,0.4,-0.30000000000000004,-0.9,0.5,2.8000000000000003,8.5,-0.6000000000000001,-3.9,-1.6,16
558,9469.0,0.5,-0.2,-1.0,0.7000000000000001,2.9000000000000004,8.200000000000001,-4.4,-3.0,-3.6000000000000005,16
559,9484.0,0.6000000000000001,-0.1,-1.0,0.7000000000000001,3.0,8.1,-7.9,0.9000000000000001,-5.0,16
560,9500.0,0.6000000000000001,0.0,-0.8,0.8,3.1,8.3,-9.2,6.0,-6.0,16
561,9518.0,0.5,0.0,-0.6000000000000001,0.7000000000000001,3.0,8.5,-8.899999999999999,11.000000000000002,-7.0,16
562,9536.0,0.4,0.0,-0.2,0.6000000000000001,3.0,8.9,-8.4,15.399999999999999,-7.9,16
563,9550.0,0.2,0.0,0.30000000000000004,0.30000000000000004,3.0,9.3,-8.100000000000001,16.4,-8.3,16
564,9567.0,0.1,0.0,0.5,0.1,3.0,9.700000000000001,-8.5,14.400000000000002,-8.2,16
565,9584.0,-0.1,0.0,1.0,-0.1,3.0,10.200000000000001,-8.4,10.0,-7.200000000000001,16
566,9600.0,-0.2,-0.1,1.1,-0.1,2.9000000000000004,10.3,-6.8,3.3000000000000007,-6.4,16
567,9617.0,-0.1,-0.1,0.9,-0.2,2.8000000000000003,10.200000000000001,-6.8,-1.4,-6.0,16
568,9640.0,-0.2,-0.1,1.0,-0.2,2.8000000000000003,10.200000000000001,-6.8,-5.500000000000001,-5.2,16
569,9650.0,-0.2,-0.1,1.0,-0.2,2.8000000000000003,10.200000000000001,-6.8,-5.500000000000001,-5.2,16
570,9667.0,-0.2,-0.1,1.0,-0.2,2.8000000000000003,10.200000000000001,-6.8,-5.500000000000001,-5.2,16
571,9684.0,-0.30000000000000004,-0.1,0.8,-0.2,2.8000000000000003,10.0,-4.2,-9.5,-5.1000000000000005,16
572,9702.0,-0.30000000000000004,0.0,0.6000000000000001,-0.30000000000000004,2.9000000000000004,9.8,-3.3000000000000007,-10.600000000000001,-5.300000000000001,16
573,9717.0,-0.4,0.0,0.5,-0.30000000000000004,2.9000000000000004,9.8,-2.9,-9.899999999999999,-5.0,16
574,9734.0,-0.5,0.0,0.7000000000000001,-0.4,2.9000000000000004,9.9,-1.7,-9.4,-4.5,16
575,9758.0,-0.6000000000000001,-0.1,0.5,-0.5,2.8000000000000003,9.700000000000001,1.9,-11.2,-5.9,16
576,9767.0,-0.6000000000000001,-0.1,0.4,-0.5,2.8000000000000003,9.700000000000001,1.9,-11.2,-5.9,16
577,9784.0,-0.7000000000000001,0.0,0.30000000000000004,-0.5,2.8000000000000003,9.5,2.7,-10.9,-6.699999999999999,16
578,9800.0,-0.7000000000000001,0.0,0.1,-0.5,2.9000000000000004,9.4,3.1,-10.200000000000001,-6.699999999999999,16
579,9817.0,-0.6000000000000001,0.0,-0.1,-0.5,2.9000000000000004,9.200000000000001,3.3000000000000007,-9.4,-6.300000000000001,16
580,9841.0,-0.4,-0.1,-0.30000000000000004,-0.2,2.8000000000000003,8.9,1.2000000000000002,-8.2,-6.600000000000001,16
581,9851.0,-0.30000000000000004,-0.1,-0.4,-0.2,2.8000000000000003,8.9,1.2000000000000002,-8.2,-6.600000000000001,16
582,9867.0,-0.2,-0.1,-0.30000000000000004,0.0,2.7,8.9,0.0,-4.7,-7.9,16
583,9884.0,-0.1,-0.1,-0.30000000000000004,0.0,2.8000000000000003,8.9,0.2,-0.30000000000000004,-9.3,16
584,9902.0,-0.2,0.0,-0.1,0.0,2.9000000000000004,9.1,1.5,4.9,-9.8,16
585,9917.0,-0.2,0.1,0.1,-0.1,3.0,9.3,3.5,8.3,-9.600000000000001,16
586,9938.0,-0.2,0.1,0.30000000000000004,-0.2,3.0,9.5,4.0,7.400000000000001,-8.600000000000001,16
587,9950.0,-0.30000000000000004,0.1,0.30000000000000004,-0.2,3.0,9.5,4.0,7.400000000000001,-8.600000000000001,16
588,9967.0,-0.2,0.2,0.30000000000000004,-0.2,3.1,9.5,3.0,4.4,-8.100000000000001,16
589,9984.0,-0.2,0.2,0.2,-0.30000000000000004,3.2,9.4,1.9,3.3000000000000007,-6.9,16
590,10000.0,-0.2,0.30000000000000004,0.30000000000000004,-0.30000000000000004,3.3000000000000003,9.5,1.6,3.8,-4.6,16
591,10017.0,-0.1,0.2,0.2,-0.2,3.2,9.5,3.1,2.7,-2.8,16
592,10038.0,0.0,0.2,0.0,-0.1,3.2,9.200000000000001,2.7,1.1,-0.9000000000000001,16
593,10052.0,0.0,0.2,-0.1,-0.1,3.2,9.200000000000001,2.7,1.1,-0.9000000000000001,16
594,10067.0,0.0,0.2,-0.1,-0.1,3.2,9.200000000000001,1.3,0.7,0.6000000000000001,16
595,10084.0,0.0,0.2,-0.1,-0.1,3.2,9.200000000000001,1.3,0.7,0.6000000000000001,16
596,10100.0,0.2,0.0,-0.1,0.1,3.0,9.1,0.30000000000000004,-0.2,2.8,16
597,10117.0,0.2,-0.1,-0.2,0.2,3.0,9.1,-0.5,0.5,2.2,16
598,10138.0,0.2,0.0,-0.1,0.1,3.0,9.200000000000001,-2.1,2.7,2.1,16
599,10150.0,0.1,0.0,0.0,0.1,3.0,9.200000000000001,-2.1,2.7,2.1,16
600,10167.0,0.2,-0.1,0.1,0.1,2.9000000000000004,9.3,-1.4,2.4000000000000004,2.2,16
601,10184.0,0.2,-0.2,0.0,0.1,2.8000000000000003,9.200000000000001,-1.2000000000000002,1.4,1.0,16
602,10200.0,0.1,-0.2,-0.1,0.1,2.9000000000000004,9.200000000000001,-2.3,2.5,-0.4,16
603,10217.0,0.0,-0.1,0.2,-0.1,2.9000000000000004,9.4,-2.7,4.300000000000001,-0.7,16
604,10234.0,-0.1,-0.1,0.30000000000000004,-0.1,2.9000000000000004,9.5,-1.5,3.8,-0.6000000000000001,16
605,10250.0,0.0,-0.1,0.2,-0.1,2.9000000000000004,9.5,-0.8,2.3,-0.9000000000000001,16
606,10267.0,-0.1,-0.1,0.1,-0.2,2.9000000000000004,9.4,-1.4,1.7,-1.9,16
607,10283.0,-0.2,0.1,0.2,-0.30000000000000004,3.0,9.4,-2.2,2.0,-2.2,16
608,10301.0,-0.2,0.1,0.30000000000000004,-0.4,3.1,9.600000000000001,-1.3,2.7,-1.4,16
609,10317.0,-0.2,0.1,0.30000000000000004,-0.4,3.1,9.600000000000001,0.6000000000000001,2.0,-0.5,16
610,10333.0,-0.2,0.0,0.2,-0.30000000000000004,3.0,9.600000000000001,1.5,0.9000000000000001,-0.30000000000000004,16
611,10350.0,-0.2,0.1,0.2,-0.30000000000000004,3.1,9.5,1.0,-1.0,-0.5,16
612,10367.0,-0.2,0.1,0.1,-0.30000000000000004,3.1,9.4,0.30000000000000004,-1.6,0.2,16
613,10383.0,-0.1,0.1,0.1,-0.30000000000000004,3.1,9.4,0.5,-1.4,1.4,16
614,10400.0,-0.1,0.1,0.0,-0.2,3.1,9.4,1.3,-1.1,2.3,16
615,10418.0,0.0,0.0,-0.1,-0.1,3.0,9.3,1.9,-0.4,2.0,16
616,10433.0,0.0,0.0,-0.1,-0.1,3.0,9.200000000000001,1.5,0.1,1.4,16
617,10451.0,0.0,0.0,-0.1,-0.1,3.0,9.200000000000001,1.0,0.7,1.0,16
618,10467.0,0.0,0.0,-0.1,-0.2,3.1,9.200000000000001,1.2000000000000002,1.4,1.3,16
619,10483.0,0.0,0.0,-0.1,-0.1,3.0,9.200000000000001,1.3,1.8000000000000003,1.7,16
620,10500.0,0.1,0.0,-0.1,-0.1,3.0,9.3,1.1,2.3,1.8000000000000003,16
621,10518.0,0.1,0.0,0.0,-0.1,3.0,9.3,1.0,2.4000000000000004,1.5,16
622,10535.0,0.0,-0.1,0.1,-0.1,3.0,9.4,0.7,2.0,1.4,16
623,10552.0,0.0,0.0,0.1,-0.2,3.1,9.4,1.0,1.7,1.2000000000000002,16
624,10567.0,0.0,0.0,0.1,-0.2,3.1,9.4,0.9000000000000001,1.2000000000000002,1.2000000000000002,16
625,10584.0,-0.1,0.1,0.2,-0.2,3.2,9.4,0.7,1.8000000000000003,1.7,16
626,10600.0,-0.1,0.1,0.2,-0.30000000000000004,3.1,9.5,1.0,1.1,2.4000000000000004,16
627,10617.0,0.0,0.0,0.2,-0.2,3.1,9.5,1.6,0.4,2.6,16
628,10634.0,0.0,0.1,0.1,-0.2,3.1,9.5,2.3,-0.2,2.6,16
629,10657.0,0.0,0.1,0.1,-0.2,3.2,9.5,3.3000000000000007,-0.9000000000000001,3.5,16
630,10667.0,0.0,0.1,0.1,-0.2,3.2,9.5,3.3000000000000007,-0.9000000000000001,3.5,16
631,10684.0,0.0,0.1,0.1,-0.2,3.2,9.4,3.2,-1.5,4.1,16
632,10700.0,0.0,0.0,0.1,-0.2,3.2,9.4,3.2,-1.8000000000000003,4.2,16
633,10717.0,0.0,0.0,0.0,-0.1,3.2,9.4,3.3000000000000007,-2.8,4.1,16
634,10737.0,0.0,0.0,0.0,-0.1,3.2,9.3,3.4,-2.2,4.300000000000001,16
635,10750.0,0.1,0.0,0.0,-0.1,3.2,9.3,3.8,-1.6,4.6,16
636,10767.0,0.1,0.0,0.0,-0.1,3.1,9.3,4.4,-1.2000000000000002,4.6,16
637,10784.0,0.1,-0.1,0.0,0.0,3.1,9.3,4.800000000000001,-0.9000000000000001,4.300000000000001,16
638,10802.0,0.1,-0.1,0.0,0.0,3.1,9.3,4.800000000000001,-1.8000000000000003,3.7000000000000006,16
639,10817.0,0.1,-0.1,0.0,0.0,3.1,9.3,4.2,-2.3,3.3000000000000007,16
640,10834.0,0.1,-0.1,0.0,0.0,3.1,9.4,4.300000000000001,-2.4000000000000004,2.9,16
641,10855.0,0.1,-0.1,0.0,0.0,3.1,9.3,5.1000000000000005,-2.2,2.6,16
642,10868.0,0.1,-0.1,0.0,0.0,3.2,9.3,6.1000000000000005,-1.5,2.4000000000000004,16
643,10884.0,0.1,-0.1,-0.1,0.1,3.1,9.200000000000001,6.500000000000001,-0.8,1.8000000000000003,16
644,10900.0,0.0,0.0,-0.1,0.0,3.2,9.200000000000001,5.500000000000001,-0.30000000000000004,1.5,16
645,10917.0,0.0,0.0,0.0,0.0,3.3000000000000003,9.3,4.9,-0.7,1.8000000000000003,16
646,10934.0,0.0,0.0,0.1,0.0,3.3000000000000003,9.4,5.6,-1.5,2.6,16
647,10957.0,0.0,-0.1,0.1,0.0,3.2,9.4,6.300000000000001,-1.9,2.7,16
648,10967.0,0.0,-0.1,0.1,0.0,3.2,9.4,6.9,-2.3,2.5,16
649,10984.0,0.1,-0.1,0.0,0.1,3.2,9.3,6.8,-2.9,1.8000000000000003,16
650,11002.0,0.0,0.0,0.0,0.1,3.3000000000000003,9.3,5.9,-2.3,1.6,16
651,11017.0,0.0,0.0,0.1,0.1,3.3000000000000003,9.4,6.300000000000001,-1.7,1.8000000000000003,16
652,11034.0,0.0,0.0,0.2,0.0,3.4000000000000004,9.4,7.300000000000001,-1.9,1.9,16
653,11054.0,0.0,0.1,0.2,0.0,3.4000000000000004,9.5,8.8,-2.5,2.3,16
654,11067.0,0.0,0.1,0.1,0.0,3.5,9.4,9.4,-4.0,2.5,16
655,11084.0,0.0,0.1,0.2,0.0,3.5,9.4,9.0,-3.7000000000000006,2.6,16
656,11100.0,-0.1,0.1,0.30000000000000004,0.0,3.5,9.5,9.4,-3.7000000000000006,2.6,16
657,11119.0,0.0,0.1,0.4,0.0,3.6,9.700000000000001,12.9,-4.6,2.7,16
658,11140.0,-0.1,0.1,0.5,0.1,3.6,9.700000000000001,15.2,-6.300000000000001,2.7,16
659,11155.0,0.0,0.0,0.4,0.1,3.6,9.700000000000001,15.2,-6.300000000000001,2.7,16
660,11167.0,0.1,0.0,0.2,0.2,3.6,9.5,16.3,-6.8,1.9,16
661,11185.0,0.1,0.0,0.1,0.2,3.7,9.4,16.3,-5.9,1.0,16
662,11200.0,0.0,0.1,0.4,0.1,3.8000000000000003,9.600000000000001,16.900000000000002,-4.1,1.5,16
663,11217.0,0.0,-0.1,0.5,0.1,3.8000000000000003,9.8,19.200000000000003,-4.7,2.8,16
664,11233.0,0.0,-0.2,0.5,0.2,3.6,9.700000000000001,21.7,-7.200000000000001,3.2,16
665,11255.0,0.0,-0.30000000000000004,0.4,0.30000000000000004,3.5,9.700000000000001,23.800000000000004,-10.5,2.2,16
666,11268.0,-0.1,-0.30000000000000004,0.30000000000000004,0.2,3.6,9.600000000000001,25.300000000000004,-14.0,1.3,16
667,11286.0,-0.1,-0.30000000000000004,0.0,0.30000000000000004,3.7,9.0,26.9,-22.1,0.9000000000000001,16
668,11301.0,0.0,-0.30000000000000004,-0.2,0.30000000000000004,3.7,9.0,26.9,-22.1,0.9000000000000001,16
669,11317.0,0.1,-0.30000000000000004,-0.5,0.5,3.8000000000000003,8.700000000000001,26.000000000000004,-23.3,0.2,16
670,11333.0,0.1,-0.30000000000000004,-0.5,0.5,3.9000000000000004,8.5,25.6,-22.9,-0.9000000000000001,16
671,11351.0,0.1,-0.2,-0.7000000000000001,0.7000000000000001,4.0,8.3,22.5,-19.300000000000004,-0.4,16
672,11367.0,0.1,-0.2,-0.7000000000000001,0.7000000000000001,4.0,8.3,21.6,-16.900000000000002,-1.4,16
673,11384.0,0.1,-0.2,-0.6000000000000001,0.7000000000000001,4.1000000000000005,8.3,20.2,-15.100000000000001,-2.0,16
674,11401.0,0.1,-0.1,-0.5,0.7000000000000001,4.2,8.3,19.300000000000004,-13.399999999999999,-2.3,16
675,11417.0,0.0,-0.2,-0.4,0.7000000000000001,4.2,8.4,17.9,-13.5,-2.3,16
676,11434.0,0.0,-0.2,-0.4,0.8,4.3,8.4,16.700000000000003,-13.700000000000001,-2.4000000000000004,16
677,11457.0,0.1,-0.2,-0.5,0.9,4.4,8.3,12.7,-15.899999999999999,-3.7000000000000006,16
678,11467.0,0.1,-0.1,-0.4,0.9,4.4,8.3,12.7,-15.899999999999999,-3.7000000000000006,16
679,11484.0,0.0,0.0,-1.0,0.9,4.5,7.800000000000001,8.0,-18.4,-3.4,16
680,11500.0,0.2,0.1,-0.7000000000000001,1.1,4.6000000000000005,8.1,2.7,-15.100000000000001,-2.6,16
681,11517.0,0.1,0.1,-0.7000000000000001,1.0,4.6000000000000005,8.0,-0.8,-16.700000000000003,-2.0,16
682,11534.0,0.2,0.1,-0.9,1.2000000000000002,4.6000000000000005,7.800000000000001,-3.7000000000000006,-14.800000000000002,-1.2000000000000002,16
683,11556.0,0.4,0.0,-0.9,1.4000000000000001,4.5,7.9,-6.4,-5.8,-0.4,16
684,11567.0,0.4,0.0,-0.8,1.4000000000000001,4.5,7.9,-6.4,-5.8,-0.4,16
685,11584.0,0.4,-0.1,-0.9,1.4000000000000001,4.4,7.800000000000001,-5.4,-0.6000000000000001,-0.30000000000000004,16
686,11600.0,0.2,-0.2,-0.8,1.2000000000000002,4.3,7.9,-5.500000000000001,5.1000000000000005,-0.4,16
687,11617.0,0.1,-0.2,-0.7000000000000001,1.1,4.2,8.0,-5.6,7.400000000000001,-0.6000000000000001,16
688,11634.0,-0.1,-0.30000000000000004,-0.7000000000000001,1.0,4.1000000000000005,7.9,-7.699999999999999,6.699999999999999,-1.0,16
689,11656.0,-0.1,-0.30000000000000004,-0.30000000000000004,0.8,4.0,8.4,-11.5,4.2,-1.3,16
690,11668.0,-0.1,-0.30000000000000004,-0.30000000000000004,0.8,4.0,8.4,-11.5,4.2,-1.3,16
691,11684.0,-0.1,-0.4,-0.1,0.9,3.9000000000000004,8.4,-9.5,-2.7,-3.2,16
692,11700.0,0.2,-0.30000000000000004,-0.6000000000000001,1.1,4.0,8.0,-9.2,-8.8,-6.300000000000001,16
693,11717.0,0.30000000000000004,0.0,-0.9,1.3,4.2,7.7,-12.0,-9.2,-8.4,16
694,11734.0,0.5,0.30000000000000004,-0.9,1.4000000000000001,4.4,7.6000000000000005,-14.600000000000001,-8.2,-9.100000000000001,16
695,11751.0,0.6000000000000001,0.4,-1.1,1.6,4.6000000000000005,7.5,-17.300000000000004,-6.2,-9.100000000000001,16
696,11768.0,0.8,0.5,-1.1,1.8,4.6000000000000005,7.4,-21.6,-0.8,-9.100000000000001,16
697,11785.0,0.9,0.5,-0.7000000000000001,2.0,4.6000000000000005,7.7,-25.200000000000003,4.7,-10.0,16
698,11800.0,1.0,0.5,-0.5,2.1,4.5,8.0,-27.2,6.1000000000000005,-11.2,16
699,11817.0,1.1,0.30000000000000004,-0.2,2.2,4.4,8.3,-26.799999999999997,5.1000000000000005,-13.399999999999999,16
700,11834.0,1.1,0.30000000000000004,-0.4,2.3000000000000003,4.3,8.200000000000001,-25.8,3.3000000000000007,-17.200000000000003,16
701,11854.0,1.1,0.5,-0.2,2.2,4.4,8.5,-24.8,7.1000000000000005,-23.2,16
702,11868.0,1.1,0.5,0.0,2.2,4.4,8.5,-24.8,7.1000000000000005,-23.2,16
703,11887.0,1.1,0.30000000000000004,0.2,2.2,4.2,8.8,-22.000000000000004,6.2,-25.0,16
704,11900.0,1.2000000000000002,0.2,0.2,2.2,4.0,8.8,-19.200000000000003,3.8,-28.3,16
705,11917.0,1.2000000000000002,0.1,0.2,2.2,3.9000000000000004,8.9,-16.3,2.2,-32.7,16
706,11934.0,1.1,0.2,0.5,2.1,3.9000000000000004,9.1,-10.8,0.6000000000000001,-36.0,16
707,11953.0,1.3,0.30000000000000004,0.1,2.3000000000000003,4.2,8.4,-0.9000000000000001,-2.9,-37.6,16
708,11967.0,1.4000000000000001,0.4,-0.30000000000000004,2.3000000000000003,4.2,8.4,-0.9000000000000001,-2.9,-37.6,16
709,11984.0,1.5,0.6000000000000001,-0.5,2.4000000000000004,4.3,8.200000000000001,-7.300000000000001,5.4,-36.2,16
710,12001.0,1.4000000000000001,0.6000000000000001,0.1,2.0,4.1000000000000005,9.4,-24.400000000000002,21.0,-29.300000000000004,16
711,12017.0,1.3,0.4,0.6000000000000001,2.0,4.1000000000000005,9.4,-24.400000000000002,21.0,-29.300000000000004,16
712,12034.0,1.2000000000000002,-0.1,1.7000000000000002,1.9000000000000001,3.6,10.3,-26.799999999999997,21.8,-26.9,16
713,12052.0,1.4000000000000001,-0.4,2.2,1.9000000000000001,3.3000000000000003,11.0,-24.3,14.600000000000001,-28.200000000000003,16
714,12070.0,1.4000000000000001,-0.4,2.0,2.0,3.1,10.8,-21.400000000000002,3.6000000000000005,-32.8,16
715,12084.0,1.5,-0.2,1.6,2.1,3.2,10.5,-21.300000000000004,-3.1,-37.800000000000004,16
716,12100.0,1.5,-0.1,1.6,2.0,3.3000000000000003,10.5,-21.8,-6.2,-41.4,16
717,12119.0,1.5,-0.1,1.5,2.0,3.2,10.5,-17.5,-10.0,-45.099999999999994,16
718,12134.0,1.5,-0.2,1.1,2.0,3.1,10.100000000000001,-10.0,-14.0,-49.9,16
719,12158.0,1.5,-0.1,0.2,2.0,3.2,9.5,-3.3000000000000007,-16.900000000000002,-55.2,16
720,12167.0,1.5,0.0,-0.1,2.0,3.4000000000000004,8.9,0.7,-16.200000000000003,-59.40000000000001,16
721,12187.0,1.4000000000000001,0.30000000000000004,-0.5,1.9000000000000001,3.6,8.5,2.1,-12.8,-60.8,16
722,12201.0,1.3,0.30000000000000004,-0.6000000000000001,1.8,3.7,8.3,2.1,-8.100000000000001,-60.2,16
723,12217.0,1.3,0.30000000000000004,-0.5,1.7000000000000002,3.7,8.5,2.5,-3.4,-58.3,16
724,12234.0,1.2000000000000002,0.1,-0.30000000000000004,1.6,3.5,8.6,2.9,-1.8000000000000003,-56.6,16
725,12250.0,1.2000000000000002,0.0,-0.1,1.6,3.4000000000000004,8.8,2.3,-2.2,-55.60000000000001,16
726,12269.0,1.1,-0.1,0.0,1.4000000000000001,3.4000000000000004,9.0,0.7,-3.2,-54.300000000000004,16
727,12284.0,1.0,-0.1,0.4,1.3,3.3000000000000003,9.3,-0.30000000000000004,-4.5,-52.1,16
728,12300.0,1.0,-0.2,0.6000000000000001,1.2000000000000002,3.2,9.5,0.30000000000000004,-8.100000000000001,-49.699999999999996,16
729,12317.0,1.0,-0.30000000000000004,0.6000000000000001,1.3,3.1,9.5,1.0,-12.9,-48.300000000000004,16
730,12334.0,1.0,-0.30000000000000004,0.30000000000000004,1.3,3.1,9.3,0.2,-16.900000000000002,-48.300000000000004,16
731,12350.0,0.9,-0.1,0.30000000000000004,1.2000000000000002,3.3000000000000003,9.200000000000001,-1.0,-19.400000000000002,-48.0,16
732,12367.0,0.8,-0.1,0.30000000000000004,1.1,3.4000000000000004,9.3,-0.5,-21.300000000000004,-46.800000000000004,16
733,12384.0,0.8,0.1,0.2,1.1,3.5,9.200000000000001,0.4,-22.9,-45.400000000000006,16
734,12400.0,0.7000000000000001,0.2,0.0,1.0,3.6,9.0,-0.1,-22.700000000000003,-44.4,16
735,12417.0,0.7000000000000001,0.2,0.0,1.0,3.6,9.0,-0.1,-22.700000000000003,-44.4,16
736,12433.0,0.4,0.5,0.5,0.7000000000000001,3.9000000000000004,9.4,-2.4000000000000004,-13.000000000000002,-40.0,16
737,12450.0,0.2,0.4,1.2000000000000002,0.5,3.9000000000000004,10.0,-1.6,-8.0,-36.9,16
738,12470.0,0.0,0.4,2.1,0.2,4.0,11.5,3.4,-4.7,-32.0,16
739,12484.0,-0.1,0.5,2.5,0.2,4.0,11.5,3.4,-4.7,-32.0,16
740,12500.0,-0.4,0.6000000000000001,2.8000000000000003,-0.1,4.1000000000000005,11.8,5.4,-5.2,-27.6,16
741,12517.0,-0.6000000000000001,0.2,3.6,-0.30000000000000004,3.9000000000000004,12.3,4.5,-5.300000000000001,-22.6,16
742,12533.0,-0.7000000000000001,-0.1,3.7,-0.5,3.4000000000000004,12.8,6.8,-13.399999999999999,-19.6,16
743,12554.0,-0.9,-0.6000000000000001,3.4000000000000004,-0.6000000000000001,3.0,12.5,10.700000000000001,-24.400000000000002,-19.400000000000002,16
744,12568.0,-0.9,-0.8,3.1,-0.7000000000000001,2.7,12.0,13.100000000000001,-30.799999999999997,-21.7,16
745,12584.0,-1.3,-1.0,2.7,-0.9,2.6,11.700000000000001,17.200000000000003,-35.8,-24.8,16
746,12600.0,-1.6,-1.0,1.7000000000000002,-1.1,2.6,10.9,23.400000000000002,-40.800000000000004,-26.6,16
747,12617.0,-1.7000000000000002,-1.2000000000000002,0.7000000000000001,-1.2000000000000002,2.6,10.0,27.5,-40.4,-27.6,16
748,12634.0,-1.8,-1.3,0.2,-1.2000000000000002,2.5,9.1,29.400000000000002,-37.7,-29.1,16
749,12650.0,-1.9000000000000001,-1.5,-0.9,-1.3,2.4000000000000004,8.200000000000001,27.0,-35.5,-31.2,16
750,12667.0,-1.9000000000000001,-1.5,-1.3,-1.3,2.4000000000000004,7.5,19.799999999999997,-29.200000000000003,-32.5,16
751,12684.0,-2.0,-1.5,-1.7000000000000002,-1.3,2.5,7.2,11.5,-20.8,-32.9,16
752,12700.0,-2.0,-1.4000000000000001,-1.7000000000000002,-1.4000000000000001,2.5,7.1000000000000005,4.300000000000001,-13.900000000000002,-32.9,16
753,12717.0,-1.9000000000000001,-1.4000000000000001,-1.7000000000000002,-1.3,2.6,7.1000000000000005,-1.0,-7.400000000000001,-32.1,16
754,12734.0,-1.8,-1.3,-1.7000000000000002,-1.2000000000000002,2.6,7.1000000000000005,-6.600000000000001,-2.9,-30.699999999999996,16
755,12752.0,-1.6,-1.3,-1.7000000000000002,-1.0,2.6,7.1000000000000005,-14.0,-0.5,-28.3,16
756,12772.0,-1.2000000000000002,-1.4000000000000001,-1.6,-0.8,2.5,7.2,-21.400000000000002,-0.6000000000000001,-26.799999999999997,16
757,12784.0,-1.1,-1.5,-1.6,-0.6000000000000001,2.3000000000000003,7.300000000000001,-27.3,-2.3,-26.300000000000004,16
758,12800.0,-0.8,-1.4000000000000001,-1.7000000000000002,-0.4,2.3000000000000003,7.2,-30.4,-5.0,-27.0,16
759,12817.0,-0.6000000000000001,-1.0,-1.8,-0.2,2.5,7.1000000000000005,-32.400000000000006,-6.0,-28.0,16
760,12834.0,-0.5,-0.8,-1.8,-0.1,2.8000000000000003,7.1000000000000005,-33.0,-5.4,-28.200000000000003,16
761,12852.0,-0.4,-0.2,-1.8,0.0,3.2,7.1000000000000005,-32.6,-6.300000000000001,-27.2,16
762,12868.0,-0.2,0.30000000000000004,-2.0,0.1,3.5,7.0,-33.2,-8.8,-25.6,16
763,12884.0,-0.2,0.5,-2.2,0.2,3.8000000000000003,6.800000000000001,-37.2,-8.600000000000001,-23.800000000000004,16
764,12900.0,-0.1,0.9,-2.1,0.30000000000000004,4.0,6.9,-42.0,-4.9,-22.1,16
765,12917.0,-0.2,1.1,-1.5,0.2,4.1000000000000005,7.4,-43.900000000000006,0.8,-20.1,16
766,12934.0,-0.2,1.1,-1.1,0.1,4.1000000000000005,8.0,-42.400000000000006,7.400000000000001,-18.200000000000003,16
767,12950.0,-0.2,1.1,-0.4,0.0,4.0,8.700000000000001,-37.800000000000004,9.600000000000001,-17.9,16
768,12968.0,-0.30000000000000004,1.2000000000000002,0.1,0.0,4.0,9.1,-32.8,7.699999999999999,-18.900000000000002,16
769,12985.0,-0.30000000000000004,1.3,0.30000000000000004,-0.1,4.0,9.4,-27.400000000000002,6.500000000000001,-20.7,16
770,13000.0,-0.30000000000000004,1.4000000000000001,0.6000000000000001,-0.1,4.0,9.8,-23.2,6.300000000000001,-22.2,16
771,13017.0,-0.4,1.5,1.0,-0.2,4.1000000000000005,10.100000000000001,-19.1,3.9,-24.8,16
772,13033.0,-0.4,1.6,1.3,-0.30000000000000004,4.2,10.4,-14.800000000000002,0.6000000000000001,-26.1,16
773,13053.0,-0.4,1.6,1.3,-0.30000000000000004,4.2,10.600000000000001,-8.5,-4.800000000000001,-25.6,16
774,13069.0,-0.4,1.6,1.3,-0.30000000000000004,4.2,10.600000000000001,-8.5,-4.800000000000001,-25.6,16
775,13085.0,-0.5,1.4000000000000001,1.7000000000000002,-0.4,4.0,10.8,-7.9,-1.9,-25.0,16
776,13101.0,-0.6000000000000001,1.3,2.1,-0.5,3.9000000000000004,11.4,-6.0,2.1,-24.1,16
777,13117.0,-0.7000000000000001,1.1,2.9000000000000004,-0.6000000000000001,3.6,12.100000000000001,0.2,2.2,-23.400000000000002,16
778,13134.0,-0.30000000000000004,0.9,2.8000000000000003,-0.4,3.5,12.3,9.8,-7.200000000000001,-25.1,16
779,13164.0,-0.30000000000000004,1.5,1.5,-0.2,4.1000000000000005,10.8,5.1000000000000005,-12.9,-27.9,16
780,13167.0,-0.30000000000000004,1.5,1.5,-0.2,4.1000000000000005,10.8,5.1000000000000005,-12.9,-27.9,16
781,13183.0,-0.6000000000000001,1.2000000000000002,2.6,-0.5,4.0,11.600000000000001,0.2,0.30000000000000004,-22.2,16
782,13200.0,-0.6000000000000001,0.8,3.1,-0.6000000000000001,3.5,12.5,6.600000000000001,4.1,-16.6,16
783,13217.0,-0.6000000000000001,0.0,2.9000000000000004,-0.6000000000000001,2.8000000000000003,12.3,16.4,-0.1,-13.8,16
784,13233.0,-0.5,-0.7000000000000001,2.2,-0.5,2.2,11.8,24.1,-0.9000000000000001,-13.399999999999999,16
785,13250.0,-0.6000000000000001,-0.9,2.0,-0.6000000000000001,1.9000000000000001,11.3,28.600000000000005,0.8,-14.0,16
786,13267.0,-0.7000000000000001,-1.3,1.7000000000000002,-0.7000000000000001,1.6,11.0,31.3,1.0,-14.0,16
787,13283.0,-0.6000000000000001,-1.5,1.0,-0.7000000000000001,1.5,10.5,32.7,-1.4,-13.700000000000001,16
788,13303.0,-0.5,-1.7000000000000002,0.4,-0.5,1.4000000000000001,9.4,25.5,0.9000000000000001,-12.4,16
789,13317.0,-0.4,-1.8,0.1,-0.5,1.4000000000000001,9.4,25.5,0.9000000000000001,-12.4,16
790,13333.0,-0.30000000000000004,-1.8,0.0,-0.5,1.4000000000000001,9.200000000000001,19.1,4.300000000000001,-11.6,16
791,13352.0,-0.4,-1.8,-0.1,-0.6000000000000001,1.4000000000000001,9.200000000000001,3.4,8.5,-7.300000000000001,16
792,13367.0,-0.4,-1.8,0.0,-0.6000000000000001,1.4000000000000001,9.200000000000001,3.4,8.5,-7.300000000000001,16
793,13384.0,-0.30000000000000004,-2.0,0.0,-0.6000000000000001,1.2000000000000002,9.3,-2.5,5.6,-5.1000000000000005,16
794,13400.0,-0.2,-2.1,-0.1,-0.2,1.0,8.8,-6.9,-1.1,-4.800000000000001,16
795,13417.0,0.0,-2.1,-0.5,-0.2,1.0,8.8,-10.1,-9.3,-7.0,16
796,13433.0,0.2,-1.8,-1.1,0.0,1.2000000000000002,8.3,-10.4,-16.900000000000002,-11.000000000000002,16
797,13451.0,0.30000000000000004,-1.3,-1.9000000000000001,0.2,1.6,7.6000000000000005,-9.8,-21.200000000000003,-14.400000000000002,16
798,13467.0,0.4,-1.1,-2.2,0.30000000000000004,1.9000000000000001,7.1000000000000005,-10.0,-19.300000000000004,-15.8,16
799,13484.0,0.5,-0.8,-2.4000000000000004,0.4,2.1,6.9,-8.4,-12.7,-15.2,16
800,13500.0,0.7000000000000001,-0.7000000000000001,-2.5,0.6000000000000001,2.2,6.7,-6.2,-5.4,-14.5,16
801,13517.0,0.8,-0.6000000000000001,-2.4000000000000004,0.7000000000000001,2.3000000000000003,6.800000000000001,-5.4,3.0,-14.900000000000002,16
802,13533.0,0.7000000000000001,-0.5,-1.7000000000000002,0.6000000000000001,2.4000000000000004,7.4,-4.0,11.2,-16.3,16
803,13550.0,0.6000000000000001,-0.30000000000000004,-1.1,0.5,2.6,8.0,-0.30000000000000004,13.000000000000002,-17.9,16
804,13567.0,0.6000000000000001,-0.1,-1.0,0.4,2.8000000000000003,8.200000000000001,2.6,10.9,-18.8,16
805,13584.0,0.5,0.2,-0.8,0.30000000000000004,3.0,8.4,2.7,9.2,-18.900000000000002,16
806,13600.0,0.30000000000000004,0.6000000000000001,-0.30000000000000004,0.1,3.4000000000000004,8.700000000000001,1.3,8.899999999999999,-17.1,16
807,13617.0,0.2,0.7000000000000001,0.0,-0.1,3.6,9.200000000000001,2.0,8.700000000000001,-13.399999999999999,16
808,13634.0,0.2,0.7000000000000001,0.6000000000000001,-0.1,3.6,9.700000000000001,4.6,6.4,-9.3,16
809,13652.0,0.4,0.6000000000000001,0.9,0.0,3.6,10.0,8.4,2.5,-6.699999999999999,16
810,13667.0,0.4,0.6000000000000001,0.9,0.0,3.6,10.0,8.4,2.5,-6.699999999999999,16
811,13683.0,0.4,0.9,0.9,0.1,3.9000000000000004,10.0,9.0,-0.5,-4.4,16
812,13700.0,0.5,1.1,1.0,0.2,4.1000000000000005,10.100000000000001,5.7,-1.9,-1.6,16
813,13717.0,0.6000000000000001,1.2000000000000002,0.9,0.30000000000000004,4.3,10.100000000000001,-0.9000000000000001,-3.4,1.8000000000000003,16
814,13734.0,0.6000000000000001,1.3,1.2000000000000002,0.30000000000000004,4.4,10.4,-10.1,-2.3,4.800000000000001,16
815,13751.0,0.6000000000000001,1.1,2.0,0.30000000000000004,4.1000000000000005,11.0,-15.899999999999999,-2.0,6.1000000000000005,16
816,13769.0,0.4,1.0,1.8,0.0,3.9000000000000004,10.8,-22.8,-8.100000000000001,2.2,16
817,13783.0,0.2,1.0,1.5,0.0,3.9000000000000004,10.8,-22.8,-8.100000000000001,2.2,16
818,13800.0,-0.1,0.8,1.9000000000000001,-0.30000000000000004,3.7,11.100000000000001,-29.700000000000006,-0.4,1.8000000000000003,16
819,13817.0,-0.30000000000000004,0.6000000000000001,2.4000000000000004,-0.6000000000000001,3.3000000000000003,11.8,-26.1,6.300000000000001,0.2,16
820,13834.0,-0.6000000000000001,0.1,2.6,-0.9,2.9000000000000004,11.9,-13.6,8.700000000000001,-1.6,16
821,13850.0,-0.8,-0.2,2.2,-1.0,2.6,11.700000000000001,-0.4,10.4,-3.6000000000000005,16
822,13868.0,-1.1,-0.6000000000000001,1.7000000000000002,-1.6,2.0,11.200000000000001,14.100000000000001,12.100000000000001,-5.4,16
823,13884.0,-1.2000000000000002,-0.8,1.8,-1.6,2.0,11.200000000000001,14.100000000000001,12.100000000000001,-5.4,16
824,13900.0,-1.5,-1.3,1.8,-1.9000000000000001,1.6,11.200000000000001,21.400000000000002,11.2,-5.0,16
825,13917.0,-1.6,-1.7000000000000002,1.5,-2.0,1.1,10.8,28.400000000000002,6.0,-5.7,16
826,13933.0,-1.8,-2.1,0.7000000000000001,-2.3000000000000003,0.9,10.0,32.2,3.1,-7.8,16
827,13950.0,-2.0,-2.1,-0.1,-2.5,0.9,9.3,30.799999999999997,2.8,-7.699999999999999,16
828,13967.0,-2.1,-1.7000000000000002,-0.6000000000000001,-2.6,1.3,8.8,25.900000000000002,2.7,-5.1000000000000005,16
829,13983.0,-2.0,-1.5,-0.7000000000000001,-2.6,1.6,8.5,19.200000000000003,4.2,0.4,16
830,14000.0,-1.7000000000000002,-1.5,-1.0,-2.3000000000000003,1.7000000000000002,8.3,11.8,4.6,6.2,16
831,14017.0,-1.6,-1.5,-1.2000000000000002,-2.2,1.7000000000000002,8.1,4.2,4.2,10.8,16
832,14038.0,-1.3,-1.3,-1.3,-1.8,1.9000000000000001,7.800000000000001,-8.4,-4.2,17.9,16
833,14052.0,-1.2000000000000002,-1.2000000000000002,-1.4000000000000001,-1.8,1.9000000000000001,7.800000000000001,-8.4,-4.2,17.9,16
834,14068.0,-1.0,-1.1,-1.8,-1.6,2.0,7.6000000000000005,-13.700000000000001,-10.700000000000001,21.500000000000004,16
835,14083.0,-0.8,-1.0,-1.9000000000000001,-1.3,2.0,7.300000000000001,-16.6,-15.8,24.3,16
836,14100.0,-0.4,-0.9,-2.4000000000000004,-0.9,2.1,6.9,-16.700000000000003,-19.1,24.900000000000002,16
837,14117.0,-0.2,-0.6000000000000001,-2.7,-0.6000000000000001,2.3000000000000003,6.6000000000000005,-16.200000000000003,-18.0,24.1,16
838,14133.0,-0.1,-0.4,-2.8000000000000003,-0.4,2.6,6.5,-15.5,-13.3,25.1,16
839,14150.0,0.0,0.0,-2.8000000000000003,-0.30000000000000004,2.8000000000000003,6.4,-16.0,-8.100000000000001,26.200000000000003,16
840,14181.0,0.1,0.30000000000000004,-2.3000000000000003,-0.1,3.1,7.0,-17.6,-2.8,29.0,16
841,14183.0,0.1,0.30000000000000004,-2.3000000000000003,-0.1,3.1,7.0,-17.6,-2.8,29.0,16
842,14200.0,0.30000000000000004,0.4,-2.0,0.1,3.1,7.2,-18.3,-3.0,28.600000000000005,16
843,14217.0,0.4,0.6000000000000001,-1.5,0.30000000000000004,3.2,7.6000000000000005,-19.300000000000004,-2.5,27.3,16
844,14234.0,0.5,0.7000000000000001,-1.2000000000000002,0.4,3.3000000000000003,8.1,-19.300000000000004,-3.0,25.0,16
845,14252.0,0.6000000000000001,0.8,-0.6000000000000001,0.5,3.4000000000000004,8.700000000000001,-17.7,-3.1,22.000000000000004,16
846,14267.0,0.7000000000000001,1.0,0.0,0.6000000000000001,3.5,9.1,-15.6,-2.1,18.5,16
847,14285.0,0.6000000000000001,1.0,0.4,0.6000000000000001,3.6,9.8,-13.000000000000002,0.4,15.6,16
848,14300.0,0.5,1.1,1.3,0.5,3.6,10.5,-9.0,3.9,13.700000000000001,16
849,14317.0,0.5,1.2000000000000002,1.9000000000000001,0.5,3.7,11.100000000000001,-3.5,2.7,11.6,16
850,14333.0,0.5,1.2000000000000002,2.1,0.4,3.7,11.700000000000001,-1.0,2.5,7.8,16
851,14351.0,0.4,1.2000000000000002,2.4000000000000004,0.4,3.7,11.700000000000001,-1.0,2.5,7.8,16
852,14367.0,0.4,1.1,2.9000000000000004,0.4,3.7,12.100000000000001,-1.6,1.2000000000000002,5.7,16
853,14384.0,0.2,1.2000000000000002,2.9000000000000004,0.30000000000000004,3.7,12.3,-3.1,-1.8000000000000003,3.5,16
854,14400.0,0.1,1.3,3.0,0.1,3.9000000000000004,12.4,-6.8,-0.5,3.2,16
855,14417.0,-0.30000000000000004,1.1,3.9000000000000004,-0.2,3.7,13.100000000000001,-9.100000000000001,6.699999999999999,6.500000000000001,16
856,14434.0,-0.4,0.4,4.7,-0.4,3.1,14.0,-5.7,7.0,9.8,16
857,14450.0,-0.4,-0.1,4.800000000000001,-0.4,2.4000000000000004,14.3,2.7,-2.4000000000000004,10.1,16
858,14467.0,0.0,-0.8,4.0,0.0,1.8,13.700000000000001,14.0,-23.3,5.4,16
859,14483.0,0.30000000000000004,-0.8,1.8,0.4,1.8,12.0,19.9,-42.0,-2.1,16
860,14501.0,0.30000000000000004,-0.7000000000000001,1.1,0.6000000000000001,2.0,10.600000000000001,20.3,-41.900000000000006,-7.400000000000001,16
861,14517.0,0.1,-0.8,0.4,0.5,1.9000000000000001,9.9,20.5,-27.9,-8.5,16
862,14534.0,0.2,-1.4000000000000001,0.2,0.5,1.5,9.700000000000001,22.6,-12.299999999999999,-6.699999999999999,16
863,14550.0,0.1,-1.6,0.0,0.5,1.2000000000000002,9.5,23.5,-0.9000000000000001,-7.500000000000001,16
864,14567.0,0.0,-1.9000000000000001,-0.1,0.4,1.0,9.3,20.1,4.9,-9.8,16
865,14583.0,-0.1,-1.9000000000000001,-0.30000000000000004,0.2,1.0,9.1,13.399999999999999,7.300000000000001,-12.0,16
866,14600.0,-0.2,-1.9000000000000001,-0.30000000000000004,0.1,1.0,9.1,5.4,8.5,-13.200000000000003,16
867,14617.0,-0.4,-1.9000000000000001,-0.4,-0.1,1.0,9.0,-2.6,10.8,-13.700000000000001,16
868,14635.0,-0.6000000000000001,-2.0,-0.30000000000000004,-0.4,0.9,9.1,-8.5,13.900000000000002,-13.6,16
869,14650.0,-0.7000000000000001,-2.1,-0.2,-0.5,0.7000000000000001,9.3,-10.5,12.7,-14.400000000000002,16
870,14667.0,-0.6000000000000001,-2.1,-0.2,-0.5,0.7000000000000001,9.200000000000001,-7.8,3.4,-18.1,16
871,14683.0,-0.4,-1.8,-0.9,-0.30000000000000004,0.8,8.700000000000001,-3.3000000000000007,-8.2,-25.200000000000003,16
872,14700.0,-0.5,-1.4000000000000001,-1.5,-0.4,1.4000000000000001,7.800000000000001,-1.5,-15.899999999999999,-30.799999999999997,16
873,14717.0,-0.6000000000000001,-0.5,-2.0,-0.5,2.2,7.4,-1.7,-16.5,-32.5,16
874,14734.0,-0.8,0.2,-2.2,-0.6000000000000001,2.8000000000000003,7.2,-0.30000000000000004,-15.000000000000002,-29.500000000000004,16
875,14752.0,-0.7000000000000001,0.5,-2.4000000000000004,-0.30000000000000004,3.4000000000000004,6.9,7.200000000000001,-14.200000000000001,-18.3,16
876,14768.0,-0.5,0.6000000000000001,-2.5,-0.30000000000000004,3.4000000000000004,6.9,7.200000000000001,-14.200000000000001,-18.3,16
877,14784.0,-0.30000000000000004,0.8,-2.5,-0.1,3.5,6.9,8.899999999999999,-13.100000000000001,-14.400000000000002,16
878,14800.0,-0.30000000000000004,1.0,-2.2,0.0,3.9000000000000004,7.300000000000001,10.8,-13.399999999999999,-7.500000000000001,16
879,14817.0,-0.2,1.1,-2.0,0.0,3.9000000000000004,7.300000000000001,10.8,-13.399999999999999,-7.500000000000001,16
880,14834.0,-0.30000000000000004,1.2000000000000002,-1.7000000000000002,0.0,4.1000000000000005,7.5,11.8,-13.200000000000003,-3.1,16
881,14850.0,-0.4,1.1,-1.1,0.0,4.1000000000000005,7.9,13.8,-10.5,2.2,16
882,14867.0,-0.30000000000000004,1.0,-0.8,0.0,4.0,8.4,17.400000000000002,-8.4,6.8,16
883,14883.0,-0.2,0.8,-0.5,0.2,3.9000000000000004,8.700000000000001,22.3,-9.4,9.899999999999999,16
884,14900.0,-0.2,0.9,-0.6000000000000001,0.2,4.0,8.6,23.3,-7.400000000000001,12.600000000000001,16
885,14917.0,-0.2,0.9,-0.4,0.2,4.1000000000000005,8.8,19.300000000000004,-0.6000000000000001,16.6,16
886,14933.0,-0.30000000000000004,0.7000000000000001,0.30000000000000004,0.1,4.0,9.4,13.3,8.100000000000001,21.500000000000004,16
887,14951.0,-0.30000000000000004,0.4,1.2000000000000002,0.1,3.7,10.100000000000001,7.9,14.5,25.6,16
888,14967.0,-0.30000000000000004,0.2,1.7000000000000002,0.1,3.4000000000000004,10.9,3.7000000000000006,16.3,26.9,16
889,14983.0,0.1,0.1,2.8000000000000003,0.4,3.3000000000000003,11.8,3.8,12.200000000000001,22.5,16
890,15000.0,-0.30000000000000004,0.4,1.9000000000000001,0.2,3.5,11.5,6.1000000000000005,2.0,16.6,16
891,15017.0,-0.5,0.6000000000000001,1.4000000000000001,-0.1,3.9000000000000004,10.700000000000001,-0.5,2.4000000000000004,14.900000000000002,16
892,15033.0,-0.8,0.9,2.1,-0.4,4.2,11.200000000000001,-7.400000000000001,15.700000000000001,18.1,16
893,15050.0,-1.3,0.5,2.6,-0.9,3.8000000000000003,11.8,-8.0,19.5,24.0,16
894,15070.0,-1.1,-0.4,2.3000000000000003,-0.9,2.5,11.3,-7.9,16.6,30.599999999999998,16
895,15084.0,-1.2000000000000002,-0.8,2.0,-0.9,2.5,11.3,-7.9,16.6,30.599999999999998,16
896,15103.0,-1.4000000000000001,-1.4000000000000001,2.1,-1.0,1.9000000000000001,11.3,-11.3,19.200000000000003,30.5,16
897,15117.0,-1.5,-1.8,2.1,-1.3,1.2000000000000002,11.4,-10.0,18.700000000000003,29.400000000000002,16
898,15133.0,-1.5,-1.8,2.1,-1.3,1.2000000000000002,11.4,-10.0,18.700000000000003,29.400000000000002,16
899,15151.0,-1.7000000000000002,-2.5,0.7000000000000001,-1.5,0.6000000000000001,10.3,0.8,14.700000000000001,23.099999999999998,16
900,15176.0,-1.6,-1.9000000000000001,-0.8,-1.5,1.1,8.6,-2.8,16.700000000000003,19.0,16
901,15183.0,-1.6,-1.9000000000000001,-0.8,-1.5,1.1,8.6,-2.8,16.700000000000003,19.0,16
902,15200.0,-1.5,-1.3,-1.7000000000000002,-1.5,1.5,7.800000000000001,-9.100000000000001,17.400000000000002,21.1,16
903,15217.0,-1.2000000000000002,-1.0,-2.1,-1.1,2.0,7.4,-21.7,27.6,30.4,16
904,15241.0,-0.9,-0.8,-1.8,-0.9,1.9000000000000001,7.6000000000000005,-22.6,29.200000000000003,34.300000000000004,16
905,15250.0,-0.8,-0.9,-1.7000000000000002,-0.9,1.9000000000000001,7.6000000000000005,-22.6,29.200000000000003,34.300000000000004,16
906,15267.0,-0.4,-0.9,-1.6,-0.4,1.8,7.5,-15.700000000000001,18.1,36.1,16
907,15283.0,-0.2,-0.9,-1.8,-0.4,1.8,7.5,-15.700000000000001,18.1,36.1,16
908,15300.0,0.1,-0.7000000000000001,-2.4000000000000004,-0.1,1.9000000000000001,7.0,-13.900000000000002,12.9,34.50000000000001,16
909,15317.0,0.30000000000000004,-0.2,-2.7,0.0,2.2,6.7,-14.600000000000001,14.5,33.800000000000004,16
910,15333.0,0.30000000000000004,-0.1,-2.6,0.0,2.5,6.7,-15.299999999999999,17.7,34.900000000000006,16
911,15350.0,0.4,0.2,-2.3000000000000003,0.1,2.7,6.9,-14.0,20.900000000000002,37.9,16
912,15379.0,0.7000000000000001,0.30000000000000004,-2.1,0.4,2.8000000000000003,7.2,-15.700000000000001,20.0,40.1,16
913,15384.0,0.7000000000000001,0.30000000000000004,-2.1,0.4,2.8000000000000003,7.2,-15.700000000000001,20.0,40.1,16
914,15400.0,0.8,0.5,-1.6,0.5,2.9000000000000004,7.7,-21.200000000000003,18.5,39.0,16
915,15417.0,0.9,0.6000000000000001,-0.8,0.5,2.9000000000000004,8.3,-25.5,15.5,37.300000000000004,16
916,15433.0,0.9,0.7000000000000001,-0.4,0.6000000000000001,3.0,9.0,-26.200000000000003,12.9,35.2,16
917,15450.0,1.0,0.7000000000000001,0.4,0.7000000000000001,2.9000000000000004,9.700000000000001,-24.1,9.5,32.5,16
918,15467.0,1.2000000000000002,0.7000000000000001,1.0,0.8,2.9000000000000004,10.200000000000001,-19.1,5.1000000000000005,28.3,16
919,15483.0,1.2000000000000002,0.6000000000000001,1.2000000000000002,0.9,2.8000000000000003,10.600000000000001,-12.8,1.3,22.4,16
920,15501.0,1.2000000000000002,0.7000000000000001,1.7000000000000002,0.9,2.8000000000000003,11.100000000000001,-4.4,1.1,16.5,16
921,15518.0,1.0,0.7000000000000001,2.0,0.8,2.8000000000000003,11.4,4.6,2.6,11.3,16
922,15535.0,0.8,0.8,2.3000000000000003,0.5,3.1,11.9,11.1,4.5,4.1,16
923,15550.0,0.7000000000000001,0.8,2.5,0.5,3.1,11.9,11.1,4.5,4.1,16
924,15567.0,0.4,0.7000000000000001,3.1,0.2,3.0,12.4,10.8,2.5,1.7,16
925,15584.0,0.4,0.8,3.2,0.1,3.1,12.600000000000001,11.700000000000001,-4.2,-0.8,16
926,15600.0,0.30000000000000004,1.0,2.8000000000000003,0.1,3.4000000000000004,12.3,11.700000000000001,-11.1,-3.3000000000000007,16
927,15617.0,0.0,1.4000000000000001,2.2,-0.2,3.7,11.8,7.200000000000001,-9.0,-2.2,16
928,15634.0,-0.2,1.4000000000000001,2.6,-0.7000000000000001,3.6,12.5,0.30000000000000004,10.700000000000001,8.4,16
929,15650.0,-0.4,1.1,3.0,-0.7000000000000001,3.6,12.5,0.30000000000000004,10.700000000000001,8.4,16
930,15667.0,-0.5,0.4,3.5,-0.7000000000000001,3.0,13.0,5.8,11.6,12.8,16
931,15685.0,-0.4,-0.4,3.4000000000000004,-0.7000000000000001,1.7000000000000002,12.4,20.2,-6.300000000000001,11.2,16
932,15700.0,-0.4,-0.8,2.8000000000000003,-0.7000000000000001,1.7000000000000002,12.4,20.2,-6.300000000000001,11.2,16
933,15717.0,-0.30000000000000004,-1.3,1.9000000000000001,-0.5,1.3,11.700000000000001,23.2,-16.1,6.600000000000001,16
934,15734.0,-0.2,-1.4000000000000001,0.4,-0.4,1.2000000000000002,10.4,24.400000000000002,-21.500000000000004,2.1,16
935,15750.0,-0.2,-1.4000000000000001,0.0,-0.30000000000000004,1.2000000000000002,9.600000000000001,19.400000000000002,-17.300000000000004,-0.7,16
936,15767.0,-0.2,-1.5,-0.4,-0.30000000000000004,1.2000000000000002,9.200000000000001,14.400000000000002,-11.2,-2.4000000000000004,16
937,15784.0,-0.2,-1.5,-0.8,-0.30000000000000004,1.2000000000000002,8.9,10.700000000000001,-4.4,-3.7000000000000006,16
938,15800.0,-0.2,-1.6,-0.8,-0.30000000000000004,1.2000000000000002,8.700000000000001,6.600000000000001,3.6000000000000005,-4.7,16
939,15817.0,-0.30000000000000004,-1.6,-0.9,-0.4,1.1,8.6,1.7,11.1,-5.9,16
940,15835.0,-0.6000000000000001,-1.5,-0.7000000000000001,-0.7000000000000001,1.2000000000000002,8.700000000000001,-3.8,16.200000000000003,-6.8,16
941,15850.0,-0.7000000000000001,-1.5,-0.7000000000000001,-0.9,1.2000000000000002,8.8,-9.600000000000001,14.900000000000002,-7.699999999999999,16
942,15867.0,-0.7000000000000001,-1.4000000000000001,-0.7000000000000001,-1.0,1.2000000000000002,8.8,-14.200000000000001,7.500000000000001,-8.700000000000001,16
943,15883.0,-0.7000000000000001,-1.3,-1.0,-1.0,1.2000000000000002,8.700000000000001,-15.700000000000001,-3.6000000000000005,-11.000000000000002,16
944,15900.0,-0.7000000000000001,-1.1,-1.3,-0.9,1.4000000000000001,8.200000000000001,-14.5,-14.0,-14.300000000000002,16
945,15918.0,-0.6000000000000001,-0.6000000000000001,-1.8,-0.8,1.8,7.7,-10.8,-19.6,-16.700000000000003,16
946,15933.0,-0.5,-0.1,-2.3000000000000003,-0.7000000000000001,2.2,7.300000000000001,-4.9,-20.599999999999998,-17.200000000000003,16
947,15950.0,-0.4,0.2,-2.6,-0.5,2.7,6.9,0.5,-18.3,-15.5,16
948,15967.0,-0.2,0.7000000000000001,-2.8000000000000003,-0.30000000000000004,3.1,6.6000000000000005,3.7000000000000006,-16.0,-12.299999999999999,16
949,15983.0,-0.1,0.8,-2.8000000000000003,-0.2,3.3000000000000003,6.6000000000000005,5.2,-12.5,-7.6,16
950,16000.0,0.0,0.8,-2.6,-0.1,3.3000000000000003,6.9,5.7,-6.500000000000001,-2.5,16
951,16017.0,0.1,0.6000000000000001,-2.1,0.1,3.1,7.300000000000001,7.300000000000001,-4.300000000000001,1.1,16
952,16033.0,0.1,0.5,-1.5,0.1,3.0,7.800000000000001,9.600000000000001,-5.0,3.0,16
953,16051.0,0.2,0.30000000000000004,-0.8,0.2,3.0,8.3,12.200000000000001,-7.400000000000001,4.9,16
954,16067.0,0.30000000000000004,0.30000000000000004,-0.5,0.30000000000000004,2.9000000000000004,8.8,16.0,-15.700000000000001,5.500000000000001,16
955,16084.0,0.30000000000000004,0.6000000000000001,-0.7000000000000001,0.4,3.2,8.700000000000001,18.900000000000002,-26.799999999999997,4.7,16
956,16101.0,0.30000000000000004,0.7000000000000001,-0.8,0.7000000000000001,3.6,8.6,17.200000000000003,-30.5,7.1000000000000005,16
957,16117.0,0.5,0.9,-0.7000000000000001,0.7000000000000001,3.6,8.6,14.900000000000002,-23.6,12.8,16
958,16133.0,0.6000000000000001,0.9,-0.5,0.9,3.7,8.8,9.600000000000001,-14.700000000000001,16.8,16
959,16150.0,0.7000000000000001,0.9,-0.4,1.2000000000000002,3.7,8.8,0.7,-13.100000000000001,19.9,16
960,16170.0,1.1,1.0,-0.30000000000000004,1.6,3.8000000000000003,9.0,-12.4,-7.500000000000001,20.400000000000002,16
961,16183.0,1.0,1.0,0.7000000000000001,1.6,3.8000000000000003,9.8,-24.8,2.1,19.300000000000004,16
962,16200.0,0.6000000000000001,0.9,1.4000000000000001,1.2000000000000002,3.6,10.5,-34.0,9.2,18.5,16
963,16218.0,0.4,0.8,1.9000000000000001,0.8,3.4000000000000004,11.3,-39.1,17.7,16.900000000000002,16
964,16242.0,-0.5,0.5,3.5,-0.2,2.8000000000000003,13.100000000000001,-33.1,29.800000000000004,12.600000000000001,16
965,16250.0,-0.6000000000000001,0.30000000000000004,3.9000000000000004,-0.2,2.8000000000000003,13.100000000000001,-33.1,29.800000000000004,12.600000000000001,16
966,16267.0,-0.8,0.0,4.2,-0.6000000000000001,2.3000000000000003,13.700000000000001,-22.9,27.099999999999998,10.600000000000001,16
967,16283.0,-1.1,-0.8,4.2,-0.9,1.6,13.8,-12.299999999999999,23.099999999999998,6.500000000000001,16
968,16300.0,-1.6,-1.4000000000000001,4.4,-1.3,1.0,13.9,0.0,22.000000000000004,1.9,16
969,16317.0,-1.8,-1.6,4.2,-1.8,0.6000000000000001,13.8,13.6,17.799999999999997,-1.8000000000000003,16
970,16333.0,-2.2,-1.8,3.0,-2.2,0.5,12.8,25.200000000000003,8.600000000000001,-5.0,16
971,16351.0,-2.4000000000000004,-1.4000000000000001,1.5,-2.4000000000000004,0.8,11.5,28.3,2.1,-5.7,16
972,16368.0,-2.4000000000000004,-1.2000000000000002,0.9,-2.5,1.3,10.4,25.6,-1.4,-2.9,16
973,16384.0,-2.3000000000000003,-0.8,-0.4,-2.4000000000000004,1.6,9.4,19.700000000000003,-5.7,3.1,16
974,16400.0,-1.9000000000000001,-0.6000000000000001,-1.4000000000000001,-2.0,1.9000000000000001,8.4,11.900000000000002,-8.0,10.5,16
975,16417.0,-1.7000000000000002,-0.5,-1.8,-1.7000000000000002,2.0,7.7,4.4,-6.0,17.799999999999997,16
976,16433.0,-1.4000000000000001,-0.5,-2.3000000000000003,-1.4000000000000001,2.1,7.300000000000001,-0.4,0.0,24.5,16
977,16450.0,-1.1,-0.4,-2.4000000000000004,-1.2000000000000002,2.1,7.1000000000000005,-2.7,6.600000000000001,30.5,16
978,16467.0,-1.1,-0.30000000000000004,-2.5,-1.1,2.2,7.0,-2.3,10.8,35.8,16
979,16483.0,-0.8,-0.30000000000000004,-2.7,-0.8,2.2,6.800000000000001,-1.1,12.200000000000001,40.1,16
980,16500.0,-0.5,-0.4,-2.9000000000000004,-0.6000000000000001,2.1,6.6000000000000005,-0.5,10.299999999999999,42.800000000000004,16
981,16517.0,-0.4,-0.4,-3.0,-0.2,2.2,6.300000000000001,-1.0,8.2,44.6,16
982,16533.0,-0.2,-0.30000000000000004,-3.1,-0.2,2.2,6.300000000000001,-1.4,5.1000000000000005,45.9,16
983,16554.0,0.0,-0.1,-3.3000000000000003,0.0,2.4000000000000004,6.1000000000000005,-3.8,3.1,47.2,16
984,16568.0,0.2,0.1,-3.2,0.30000000000000004,2.6,6.5,-12.600000000000001,8.899999999999999,50.5,16
985,16583.0,0.30000000000000004,0.1,-2.9000000000000004,0.30000000000000004,2.6,6.5,-12.600000000000001,8.899999999999999,50.5,16
986,16600.0,0.5,0.1,-2.2,0.6000000000000001,2.5,7.1000000000000005,-13.3,10.299999999999999,50.3,16
987,16617.0,0.8,0.1,-1.5,0.9,2.5,8.4,-10.8,13.100000000000001,44.4,16
988,16633.0,0.8,0.2,-0.9,0.9,2.5,8.4,-10.8,13.100000000000001,44.4,16
989,16650.0,1.1,0.1,0.1,1.1,2.5,9.3,-5.6,10.299999999999999,39.1,16
990,16667.0,1.2000000000000002,0.2,0.2,1.3,2.6,9.600000000000001,-1.6,6.1000000000000005,31.6,16
991,16684.0,1.3,0.4,0.6000000000000001,1.4000000000000001,2.7,10.0,-2.6,6.0,24.400000000000002,16
992,16701.0,1.2000000000000002,0.6000000000000001,1.3,1.3,2.9000000000000004,10.600000000000001,-3.3000000000000007,8.4,18.5,16
993,16717.0,1.0,0.6000000000000001,2.1,1.1,3.0,11.3,-1.4,12.4,15.000000000000002,16
994,16733.0,0.9,0.7000000000000001,2.3000000000000003,1.0,3.0,11.8,2.4000000000000004,16.4,12.100000000000001,16
995,16750.0,0.8,0.8,2.8000000000000003,0.8,3.1,12.100000000000001,3.7000000000000006,18.1,9.8,16
996,16767.0,0.6000000000000001,0.9,2.9000000000000004,0.7000000000000001,3.2,12.4,2.0,14.800000000000002,7.8,16
997,16784.0,0.5,1.0,2.9000000000000004,0.5,3.4000000000000004,12.4,-3.3000000000000007,9.700000000000001,6.699999999999999,16
998,16800.0,0.4,1.2000000000000002,3.2,0.30000000000000004,3.6,12.700000000000001,-9.0,9.8,7.6,16
999,16820.0,0.2,0.9,3.7,0.2,3.4000000000000004,13.100000000000001,-9.2,13.100000000000001,10.0,16
1000,16839.0,0.30000000000000004,0.30000000000000004,4.2,0.2,2.4000000000000004,13.600000000000001,12.299999999999999,13.000000000000002,9.899999999999999,16
1001,16851.0,0.30000000000000004,0.1,3.9000000000000004,0.2,2.4000000000000004,13.600000000000001,12.299999999999999,13.000000000000002,9.899999999999999,16
1002,16867.0,0.4,-0.4,3.0,0.2,2.2,12.8,23.3,9.899999999999999,7.300000000000001,16
1003,16885.0,0.4,-0.5,2.6,0.2,1.9000000000000001,12.200000000000001,26.5,10.600000000000001,4.9,16
1004,16900.0,0.30000000000000004,-0.9,2.4000000000000004,0.1,1.7000000000000002,12.0,25.300000000000004,5.9,3.8,16
1005,16917.0,0.30000000000000004,-1.2000000000000002,1.6,0.1,1.5,11.4,22.2,-3.6000000000000005,3.4,16
1006,16944.0,0.6000000000000001,-1.6,0.8,0.6000000000000001,0.9,10.100000000000001,9.4,-16.200000000000003,-0.5,16
1007,16951.0,0.7000000000000001,-1.8,0.4,0.6000000000000001,0.9,10.100000000000001,9.4,-16.200000000000003,-0.5,16
1008,16967.0,0.8,-1.9000000000000001,-0.5,0.7000000000000001,0.7000000000000001,9.3,3.9,-17.0,-4.800000000000001,16
1009,16984.0,0.8,-1.9000000000000001,-0.8,0.7000000000000001,0.7000000000000001,8.700000000000001,-1.4,-10.1,-8.8,16
1010,17000.0,0.6000000000000001,-2.0,-1.2000000000000002,0.6000000000000001,0.7000000000000001,8.4,-5.4,1.9,-11.900000000000002,16
1011,17018.0,0.30000000000000004,-1.9000000000000001,-1.2000000000000002,0.30000000000000004,0.6000000000000001,8.4,-7.500000000000001,9.5,-15.000000000000002,16
1012,17034.0,0.2,-1.9000000000000001,-1.2000000000000002,0.0,0.6000000000000001,8.3,-8.8,11.000000000000002,-18.0,16
1013,17050.0,0.0,-1.8,-1.3,-0.1,0.7000000000000001,8.3,-8.8,7.8,-21.1,16
1014,17067.0,-0.1,-1.6,-1.5,-0.2,0.8,8.1,-5.4,1.4,-24.400000000000002,16
1015,17084.0,-0.1,-1.4000000000000001,-1.6,-0.2,1.1,7.800000000000001,-0.7,-5.1000000000000005,-27.5,16
1016,17100.0,0.0,-1.0,-2.1,-0.1,1.5,7.4,4.0,-9.100000000000001,-29.700000000000006,16
1017,17117.0,0.1,-0.8,-2.3000000000000003,0.0,1.9000000000000001,7.1000000000000005,7.500000000000001,-8.3,-29.700000000000006,16
1018,17143.0,0.2,-0.1,-2.3000000000000003,0.0,2.3000000000000003,7.1000000000000005,10.9,-5.8,-27.5,16
1019,17151.0,0.30000000000000004,0.0,-2.1,0.1,2.6,7.4,15.100000000000001,-4.5,-23.700000000000003,16
1020,17176.0,0.5,0.1,-1.5,0.4,2.8000000000000003,8.0,21.400000000000002,-11.2,-18.6,16
1021,17187.0,0.5,0.2,-1.3,0.4,2.8000000000000003,8.0,21.400000000000002,-11.2,-18.6,16
1022,17200.0,0.5,0.30000000000000004,-0.9,0.4,3.0,8.4,22.4,-14.5,-16.6,16
1023,17217.0,0.4,0.4,-0.7000000000000001,0.30000000000000004,3.2,8.700000000000001,24.3,-20.3,-13.900000000000002,16
1024,17238.0,0.30000000000000004,0.5,-0.5,0.30000000000000004,3.3000000000000003,8.8,27.3,-23.800000000000004,-10.299999999999999,16
1025,17250.0,0.4,0.4,-0.4,0.4,3.3000000000000003,8.9,31.0,-26.300000000000004,-6.4,16
1026,17267.0,0.5,0.4,-0.5,0.6000000000000001,3.4000000000000004,8.8,33.9,-28.700000000000003,-3.2,16
1027,17283.0,0.6000000000000001,0.4,-0.8,0.8,3.5,8.5,33.1,-28.1,-0.30000000000000004,16
1028,17301.0,0.6000000000000001,0.4,-1.0,0.9,3.6,8.200000000000001,26.5,-25.900000000000002,2.8,16
1029,17318.0,0.5,0.4,-1.3,0.9,3.7,7.9,13.399999999999999,-19.1,6.699999999999999,16
1030,17342.0,0.6000000000000001,0.2,0.30000000000000004,0.9,3.4000000000000004,9.600000000000001,-16.0,-0.1,10.8,16
1031,17351.0,0.6000000000000001,0.2,0.30000000000000004,0.9,3.4000000000000004,9.600000000000001,-16.0,-0.1,10.8,16
1032,17367.0,0.1,0.1,1.3,0.5,3.3000000000000003,10.5,-21.7,0.4,8.5,16
1033,17384.0,-0.2,0.2,1.8,0.2,3.2,10.9,-31.6,-3.0,8.0,16
1034,17400.0,-0.30000000000000004,0.2,2.3000000000000003,0.0,3.1,11.700000000000001,-40.300000000000004,-1.8000000000000003,7.300000000000001,16
1035,17417.0,-1.1,-0.30000000000000004,3.3000000000000003,-0.6000000000000001,2.6,12.600000000000001,-41.4,3.6000000000000005,7.400000000000001,16
1036,17442.0,-1.6,-0.6000000000000001,4.1000000000000005,-1.5,1.9000000000000001,13.600000000000001,-31.6,10.0,7.8,16
1037,17450.0,-1.8,-0.7000000000000001,4.1000000000000005,-1.5,1.9000000000000001,13.600000000000001,-14.600000000000001,18.5,9.2,16
1038,17467.0,-2.3000000000000003,-0.8,4.2,-2.0,1.9000000000000001,13.700000000000001,1.4,27.2,11.700000000000001,16
1039,17484.0,-3.0,-1.2000000000000002,3.9000000000000004,-2.7,1.6,13.600000000000001,12.5,23.900000000000006,15.5,16
1040,17500.0,-3.1,-1.4000000000000001,3.4000000000000004,-3.0,1.3,12.700000000000001,17.6,10.8,18.4,16
1041,17518.0,-3.3000000000000003,-1.5,1.9000000000000001,-3.2,1.3,11.4,16.700000000000003,-1.0,21.1,16
1042,17542.0,-3.3000000000000003,-1.4000000000000001,0.5,-3.0,1.5,9.4,9.600000000000001,-6.500000000000001,26.000000000000004,16
1043,17550.0,-3.1,-1.3,-0.4,-2.7,1.5,8.700000000000001,0.30000000000000004,-8.600000000000001,31.7,16
1044,17567.0,-2.9000000000000004,-1.3,-0.9,-2.7,1.5,8.700000000000001,-7.699999999999999,-9.8,36.6,16
1045,17583.0,-2.5,-1.1,-1.7000000000000002,-2.3000000000000003,1.6,8.0,-14.300000000000002,-6.8,39.699999999999996,16
1046,17600.0,-2.0,-0.9,-2.1,-1.9000000000000001,1.7000000000000002,7.5,-19.400000000000002,-0.8,41.900000000000006,16
1047,17617.0,-1.7000000000000002,-0.8,-2.2,-1.4000000000000001,1.8,7.300000000000001,-19.5,7.8,43.300000000000004,16
1048,17642.0,-1.0,-0.30000000000000004,-2.5,-1.0,2.0,7.2,-14.200000000000001,14.800000000000002,42.2,16
1049,17650.0,-0.8,-0.1,-2.7,-0.7000000000000001,2.3000000000000003,6.9,-8.100000000000001,21.400000000000002,41.300000000000004,16
1050,17667.0,-0.7000000000000001,0.1,-2.8000000000000003,-0.5,2.6,6.7,-3.9,27.9,41.50000000000001,16
1051,17683.0,-0.4,0.30000000000000004,-2.8000000000000003,-0.30000000000000004,2.8000000000000003,6.7,-1.8000000000000003,32.6,43.6,16
1052,17702.0,-0.1,0.4,-2.4000000000000004,-0.1,2.9000000000000004,6.9,-0.4,37.2,46.50000000000001,16
1053,17717.0,0.1,0.4,-2.2,0.0,2.9000000000000004,7.300000000000001,0.6000000000000001,37.7,48.6,16
1054,17741.0,0.4,0.30000000000000004,-1.5,0.30000000000000004,2.8000000000000003,8.0,2.1,30.200000000000003,50.0,16
1055,17750.0,0.5,0.30000000000000004,-1.3,0.30000000000000004,2.8000000000000003,8.0,2.1,30.200000000000003,50.0,16
1056,17769.0,0.6000000000000001,0.30000000000000004,-1.0,0.5,2.8000000000000003,8.4,3.7000000000000006,22.5,49.199999999999996,16
1057,17783.0,0.8,0.2,-0.8,0.6000000000000001,2.7,8.6,7.9,14.400000000000002,46.7,16
1058,17800.0,1.0,0.30000000000000004,-0.8,0.8,2.9000000000000004,8.6,12.100000000000001,6.4,43.800000000000004,16
1059,17820.0,1.0,0.6000000000000001,-0.7000000000000001,1.0,3.4000000000000004,8.8,16.900000000000002,4.300000000000001,42.0,16
1060,17836.0,1.1,0.7000000000000001,-0.5,1.0,3.4000000000000004,8.8,16.900000000000002,4.300000000000001,42.0,16
1061,17850.0,1.3,0.6000000000000001,0.0,1.2000000000000002,3.3000000000000003,9.200000000000001,18.0,4.9,42.0,16
1062,17867.0,1.4000000000000001,0.5,0.2,1.4000000000000001,3.2,9.5,17.7,4.0,40.300000000000004,16
1063,17883.0,1.6,0.4,0.30000000000000004,1.6,3.2,9.600000000000001,13.700000000000001,1.7,36.7,16
1064,17900.0,1.5,0.4,0.4,1.6,3.2,9.600000000000001,4.9,1.8000000000000003,32.2,16
1065,17917.0,1.1,0.5,1.2000000000000002,1.1,3.2,11.100000000000001,-13.6,7.0,29.900000000000006,16
1066,17934.0,1.0,0.4,1.8,1.1,3.2,11.100000000000001,-13.6,7.0,29.900000000000006,16
1067,17952.0,1.1,-0.1,2.7,1.2000000000000002,2.8000000000000003,11.9,-13.6,3.5,27.800000000000004,16
1068,17968.0,1.0,-0.30000000000000004,2.7,1.0,2.4000000000000004,12.200000000000001,-12.8,3.7000000000000006,16.900000000000002,16
1069,17984.0,0.8,-0.30000000000000004,2.8000000000000003,1.0,2.4000000000000004,12.200000000000001,-12.8,3.7000000000000006,16.900000000000002,16
1070,18009.0,0.4,-0.4,3.7,0.6000000000000001,2.3000000000000003,13.0,-11.4,10.700000000000001,12.9,16
1071,18017.0,0.1,-0.7000000000000001,3.9000000000000004,0.2,1.9000000000000001,13.3,8.8,-3.3000000000000007,4.2,16
1072,18039.0,0.0,-0.7000000000000001,3.1,0.1,2.1,12.0,20.900000000000002,-24.0,-2.1,16
1073,18050.0,-0.1,-0.5,2.1,0.1,2.1,12.0,20.900000000000002,-24.0,-2.1,16
1074,18067.0,0.1,0.1,-0.30000000000000004,0.30000000000000004,2.6,10.0,22.3,-41.800000000000004,-5.7,16
1075,18083.0,0.1,0.30000000000000004,-1.1,0.5,3.1,8.3,12.9,-44.6,-5.6,16
1076,18100.0,0.0,0.4,-1.7000000000000002,0.5,3.3000000000000003,7.800000000000001,2.3,-28.0,-1.6,16
1077,18117.0,-0.2,0.1,-1.0,0.4,3.0,8.200000000000001,-1.9,-4.800000000000001,3.6000000000000005,16
1078,18141.0,-0.30000000000000004,-0.6000000000000001,-0.5,0.1,2.1,9.0,1.7,20.8,7.6,16
1079,18150.0,-0.4,-0.8,-0.4,0.1,2.1,9.0,1.7,20.8,7.6,16
1080,18167.0,-0.5,-1.1,-0.1,-0.1,1.8,9.200000000000001,1.0,25.7,6.1000000000000005,16
1081,18183.0,-0.5,-1.1,-0.1,-0.2,1.7000000000000002,9.3,-0.4,25.0,3.9,16
1082,18200.0,-0.5,-1.1,-0.30000000000000004,-0.30000000000000004,1.6,9.200000000000001,-5.7,21.0,2.5,16
1083,18217.0,-0.5,-1.1,-0.2,-0.30000000000000004,1.6,9.200000000000001,-12.4,18.700000000000003,1.5,16
1084,18234.0,-0.6000000000000001,-1.1,0.0,-0.30000000000000004,1.5,9.4,-16.0,14.700000000000001,0.6000000000000001,16
1085,18259.0,-0.30000000000000004,-1.1,-0.4,-0.1,1.6,8.8,-7.9,-1.8000000000000003,-4.7,16
1086,18267.0,-0.2,-0.9,-0.9,-0.1,1.6,8.8,-7.9,-1.8000000000000003,-4.7,16
1087,18283.0,-0.1,-0.6000000000000001,-1.5,0.0,2.0,7.9,-6.4,-4.7,-7.0,16
1088,18300.0,0.0,-0.2,-2.0,0.1,2.3000000000000003,7.5,-9.100000000000001,0.0,-7.200000000000001,16
1089,18317.0,0.0,0.1,-1.8,0.1,2.6,7.6000000000000005,-11.5,6.699999999999999,-5.6,16
1090,18342.0,0.0,0.30000000000000004,-1.2000000000000002,0.0,2.8000000000000003,8.6,-4.5,13.700000000000001,-1.2000000000000002,16
1091,18350.0,0.0,0.30000000000000004,-0.8,0.0,2.8000000000000003,8.6,-4.5,13.700000000000001,-1.2000000000000002,16
1092,18367.0,0.1,0.4,-0.6000000000000001,0.1,2.9000000000000004,8.9,3.0,10.4,-0.4,16
1093,18383.0,0.2,0.6000000000000001,-0.5,0.1,3.2,8.9,8.600000000000001,5.1000000000000005,-0.5,16
1094,18434.0,0.4,1.6,-0.8,0.4,4.3,8.6,12.9,-14.100000000000001,3.0,16
1095,18450.0,0.5,1.9000000000000001,-0.8,0.6000000000000001,4.6000000000000005,8.6,12.100000000000001,-16.8,7.400000000000001,16
1096,18466.0,0.8,1.7000000000000002,-0.7000000000000001,0.9,4.4,8.700000000000001,12.8,-18.1,11.8,16
1097,18484.0,0.9,1.5,-0.8,1.2000000000000002,4.3,8.5,12.8,-20.8,14.5,16
1098,18500.0,1.1,1.3,-0.8,1.4000000000000001,4.2,8.5,9.2,-17.9,16.6,16
1099,18517.0,1.2000000000000002,1.0,-0.1,1.6,3.9000000000000004,9.1,4.1,-10.4,19.1,16
1100,18533.0,1.5,0.6000000000000001,0.7000000000000001,1.9000000000000001,3.6,9.700000000000001,0.5,-3.3000000000000007,20.599999999999998,16
1101,18552.0,1.7000000000000002,0.30000000000000004,1.0,2.2,2.8000000000000003,11.0,0.1,0.8,19.1,16
1102,18570.0,1.8,0.0,1.8,2.2,2.8000000000000003,11.0,1.8000000000000003,7.9,13.100000000000001,16
1103,18583.0,1.6,0.0,2.1,1.9000000000000001,2.9000000000000004,11.4,5.1000000000000005,10.5,5.300000000000001,16
1104,18600.0,1.0,0.30000000000000004,1.6,1.4000000000000001,3.2,11.0,2.6,9.4,0.5,16
1105,18617.0,0.9,0.5,1.5,1.1,3.4000000000000004,11.3,-7.0,17.400000000000002,-0.9000000000000001,16
1106,18634.0,-0.4,0.1,3.5,0.2,3.1,12.5,-9.700000000000001,24.599999999999998,-1.8000000000000003,16
1107,18652.0,-0.7000000000000001,0.0,4.1000000000000005,-0.5,2.8000000000000003,13.600000000000001,-0.4,19.200000000000003,-1.7,16
1108,18667.0,-1.0,-0.30000000000000004,3.9000000000000004,-0.8,2.6,13.5,15.5,6.500000000000001,-2.2,16
1109,18683.0,-1.3,-0.6000000000000001,2.5,-1.1,2.4000000000000004,12.3,21.1,-4.4,-2.3,16
1110,18700.0,-1.4000000000000001,-0.9,2.1,-1.3,2.0,11.600000000000001,17.300000000000004,-5.8,-1.5,16
1111,18718.0,-1.8,-1.5,1.9000000000000001,-1.5,1.6,11.4,14.900000000000002,-7.6,-1.0,16
1112,18733.0,-1.8,-1.8,1.0,-1.6,1.3,10.700000000000001,17.799999999999997,-11.2,-2.0,16
1113,18754.0,-1.7000000000000002,-1.6,-0.2,-1.5,1.6,8.700000000000001,17.400000000000002,-10.200000000000001,-3.0,16
1114,18767.0,-1.7000000000000002,-1.5,-0.8,-1.5,1.6,8.700000000000001,17.400000000000002,-10.200000000000001,-3.0,16
1115,18783.0,-1.6,-1.0,-1.6,-1.4000000000000001,2.0,8.0,10.700000000000001,-8.700000000000001,-0.2,16
1116,18800.0,-1.5,-0.9,-2.0,-1.2000000000000002,2.3000000000000003,7.4,2.0,-6.300000000000001,4.300000000000001,16
1117,18817.0,-1.3,-0.6000000000000001,-2.3000000000000003,-1.0,2.5,7.1000000000000005,-6.500000000000001,-2.9,9.4,16
1118,18834.0,-1.0,-0.4,-2.2,-0.8,2.6,7.1000000000000005,-12.299999999999999,-0.1,14.400000000000002,16
1119,18856.0,-0.8,-0.4,-2.1,-0.4,2.6,7.4,-14.800000000000002,5.9,22.8,16
1120,18867.0,-0.6000000000000001,-0.4,-2.0,-0.4,2.6,7.4,-14.800000000000002,5.9,22.8,16
1121,18884.0,-0.4,-0.4,-2.3000000000000003,-0.2,2.6,7.2,-12.200000000000001,4.0,25.1,16
1122,18901.0,-0.30000000000000004,-0.2,-2.5,0.1,2.7,6.9,-12.0,8.100000000000001,29.800000000000004,16
1123,18917.0,-0.2,-0.1,-2.5,0.1,2.7,6.9,-12.0,8.100000000000001,29.800000000000004,16
1124,18933.0,-0.1,-0.1,-2.4000000000000004,0.2,2.8000000000000003,6.9,-13.100000000000001,9.3,32.9,16
1125,18955.0,0.2,-0.2,-2.2,0.6000000000000001,2.5,7.300000000000001,-15.2,9.8,34.900000000000006,16
1126,18967.0,0.30000000000000004,-0.2,-2.1,0.6000000000000001,2.5,7.300000000000001,-15.2,9.8,34.900000000000006,16
1127,18983.0,0.5,-0.30000000000000004,-1.6,0.8,2.5,7.7,-13.6,10.5,33.2,16
1128,19000.0,0.7000000000000001,-0.2,-1.2000000000000002,1.0,2.4000000000000004,8.0,-8.600000000000001,10.700000000000001,29.800000000000004,16
1129,19017.0,0.8,-0.1,-1.2000000000000002,1.1,2.6,8.1,-3.4,9.600000000000001,25.200000000000003,16
1130,19035.0,0.9,0.2,-1.2000000000000002,1.2000000000000002,2.8000000000000003,8.1,-2.0,10.8,20.7,16
1131,19058.0,1.0,0.4,-0.5,1.2000000000000002,3.0,8.5,-0.7,13.900000000000002,17.300000000000004,16
1132,19067.0,1.0,0.4,-0.1,1.2000000000000002,3.0,9.200000000000001,4.4,16.1,13.8,16
1133,19087.0,1.0,0.4,0.30000000000000004,1.3,3.1,9.600000000000001,11.8,17.0,10.0,16
1134,19100.0,1.0,0.4,0.5,1.2000000000000002,3.2,9.8,16.0,19.799999999999997,6.8,16
1135,19117.0,1.0,0.5,0.7000000000000001,1.2000000000000002,3.3000000000000003,10.0,16.200000000000003,23.900000000000006,4.800000000000001,16
1136,19136.0,1.0,0.6000000000000001,1.4000000000000001,1.1,3.4000000000000004,10.600000000000001,13.200000000000003,26.300000000000004,4.2,16
1137,19155.0,1.0,0.6000000000000001,2.0,1.1,3.5,11.200000000000001,9.100000000000001,24.8,3.4,16
1138,19167.0,1.1,0.5,2.6,1.0,3.5,11.700000000000001,3.9,19.200000000000003,2.6,16
1139,19189.0,1.2000000000000002,0.5,2.5,1.1,3.5,11.700000000000001,-5.0,-3.0,-4.2,16
1140,19200.0,1.1,0.6000000000000001,2.2,1.1,3.5,11.700000000000001,-5.0,-3.0,-4.2,16
1141,19216.0,1.1,0.8,2.2,1.1,3.6,11.600000000000001,-10.600000000000001,-1.0,-5.7,16
1142,19233.0,0.7000000000000001,0.8,2.7,0.8,3.6,12.100000000000001,-11.000000000000002,2.9,-4.6,16
1143,19250.0,0.8,0.30000000000000004,3.1,0.7000000000000001,3.2,12.5,-7.400000000000001,2.6,-1.6,16
1144,19267.0,0.9,-0.1,3.1,0.9,2.6,12.4,-1.0,-2.3,-1.2000000000000002,16
1145,19286.0,1.1,-0.8,2.3000000000000003,1.1,2.1,11.8,2.3,-9.100000000000001,-4.300000000000001,16
1146,19301.0,1.2000000000000002,-1.2000000000000002,1.9000000000000001,1.2000000000000002,1.7000000000000002,11.4,0.1,-9.4,-8.2,16
1147,19317.0,1.1,-1.7000000000000002,1.8,1.1,0.9,11.0,-0.9000000000000001,-10.600000000000001,-12.9,16
1148,19333.0,1.0,-1.9000000000000001,1.4000000000000001,1.1,0.9,11.0,1.5,-15.8,-18.4,16
1149,19352.0,0.9,-2.1,0.5,1.1,0.7000000000000001,10.200000000000001,2.6,-14.100000000000001,-24.599999999999998,16
1150,19367.0,0.9,-2.1,0.30000000000000004,1.0,0.6000000000000001,9.8,3.5,-7.9,-30.699999999999996,16
1151,19383.0,0.6000000000000001,-2.0,-0.1,0.7000000000000001,0.8,9.4,5.2,-2.1,-35.9,16
1152,19400.0,0.2,-1.7000000000000002,-0.6000000000000001,0.4,1.0,9.0,5.500000000000001,3.6000000000000005,-37.9,16
1153,19416.0,-0.1,-1.5,-1.1,0.1,1.2000000000000002,8.6,2.0,7.500000000000001,-37.9,16
1154,19433.0,-0.2,-1.5,-1.3,-0.2,1.3,8.200000000000001,-5.4,8.2,-36.300000000000004,16
1155,19454.0,-0.30000000000000004,-1.4000000000000001,-1.2000000000000002,-0.30000000000000004,1.3,8.200000000000001,-13.6,5.8,-34.60000000000001,16
1156,19467.0,-0.1,-1.4000000000000001,-1.3,-0.30000000000000004,1.2000000000000002,8.3,-17.7,-1.3,-34.2,16
1157,19483.0,-0.1,-1.4000000000000001,-1.4000000000000001,-0.2,1.2000000000000002,8.0,-18.0,-9.5,-36.1,16
1158,19500.0,0.0,-1.1,-1.5,-0.1,1.4000000000000001,8.0,-13.700000000000001,-11.3,-38.50000000000001,16
1159,19517.0,0.0,-0.6000000000000001,-1.7000000000000002,-0.1,1.8,7.800000000000001,-5.2,-9.899999999999999,-39.8,16
1160,19533.0,0.0,-0.30000000000000004,-1.7000000000000002,-0.1,2.2,7.7,4.1,-4.5,-38.60000000000001,16
1161,19553.0,0.2,0.0,-1.7000000000000002,0.0,2.5,7.7,11.700000000000001,0.2,-35.599999999999994,16
1162,19567.0,0.4,0.2,-1.7000000000000002,0.2,2.8000000000000003,7.7,14.800000000000002,0.7,-33.1,16
1163,19583.0,0.4,0.30000000000000004,-1.7000000000000002,0.2,3.0,7.800000000000001,13.700000000000001,-0.9000000000000001,-31.3,16
1164,19600.0,0.4,0.5,-1.3,0.2,3.1,8.1,11.4,-3.4,-29.300000000000004,16
1165,19617.0,0.4,0.6000000000000001,-1.1,0.2,3.3000000000000003,8.3,10.4,-7.400000000000001,-27.0,16
1166,19634.0,0.4,0.8,-0.9,0.2,3.6,8.5,9.5,-8.5,-23.6,16
1167,19656.0,0.5,0.8,-0.1,0.30000000000000004,3.5,9.3,13.399999999999999,-10.600000000000001,-15.700000000000001,16
1168,19667.0,0.5,0.7000000000000001,0.0,0.30000000000000004,3.5,9.3,13.399999999999999,-10.600000000000001,-15.700000000000001,16
1169,19684.0,0.6000000000000001,0.7000000000000001,-0.1,0.5,3.5,9.200000000000001,15.700000000000001,-17.7,-13.700000000000001,16
1170,19700.0,0.7000000000000001,0.8,-0.6000000000000001,0.6000000000000001,3.7,8.700000000000001,13.000000000000002,-23.0,-11.5,16
1171,19717.0,0.9,0.8,-0.6000000000000001,0.8,3.7,8.6,5.9,-20.900000000000002,-7.9,16
1172,19734.0,1.0,0.6000000000000001,-0.4,1.0,3.5,8.9,-0.8,-16.900000000000002,-4.7,16
1173,19753.0,1.2000000000000002,0.4,-0.2,1.2000000000000002,3.3000000000000003,9.1,-7.300000000000001,-11.900000000000002,-3.8,16
1174,19768.0,1.2000000000000002,0.30000000000000004,0.4,1.3,3.2,9.5,-14.400000000000002,-2.3,-5.6,16
1175,19784.0,1.0,0.30000000000000004,1.0,0.5,3.0,10.8,-19.0,4.6,-9.3,16
1176,19800.0,0.4,0.2,1.5,0.5,3.0,10.8,-21.0,4.2,-13.100000000000001,16
1177,19817.0,0.1,0.5,1.8,0.2,3.2,11.100000000000001,-25.4,7.6,-15.700000000000001,16
1178,19834.0,-0.7000000000000001,0.5,2.7,-1.0,2.9000000000000004,12.600000000000001,-24.5,12.8,-14.400000000000002,16
1179,19854.0,-1.0,0.30000000000000004,3.2,-1.0,2.9000000000000004,12.600000000000001,-24.5,12.8,-14.400000000000002,16
1180,19867.0,-1.2000000000000002,0.1,3.4000000000000004,-1.4000000000000001,2.5,12.8,-14.300000000000002,7.400000000000001,-12.7,16
1181,19884.0,-1.5,-0.5,2.7,-1.6,2.1,12.4,-6.0,2.0,-11.4,16
1182,19900.0,-1.6,-0.7000000000000001,2.4000000000000004,-1.8,1.7000000000000002,12.0,-1.8000000000000003,-1.2000000000000002,-11.4,16
1183,19917.0,-2.0,-1.1,2.1,-2.1,1.4000000000000001,11.700000000000001,3.0,-3.3000000000000007,-11.6,16
1184,19936.0,-2.1,-1.3,1.1,-2.2,1.2000000000000002,11.0,9.2,-6.500000000000001,-11.2,16
1185,19956.0,-2.0,-1.2000000000000002,-0.1,-2.2,1.4000000000000001,9.1,9.2,-4.6,-7.200000000000001,16
1186,19969.0,-2.0,-1.2000000000000002,-0.5,-2.2,1.4000000000000001,9.1,9.2,-4.6,-7.200000000000001,16
1187,19985.0,-1.8,-1.1,-1.3,-2.0,1.4000000000000001,8.5,2.2,-2.1,-3.7000000000000006,16
1188,20000.0,-1.6,-1.0,-1.6,-1.8,1.5,8.0,-7.1000000000000005,1.3,0.0,16
1189,20017.0,-1.4000000000000001,-0.8,-1.8,-1.7000000000000002,1.6,7.800000000000001,-16.1,8.0,3.3000000000000007,16
1190,20033.0,-1.5,-0.7000000000000001,-1.2000000000000002,-1.7000000000000002,1.7000000000000002,8.1,-22.1,15.000000000000002,6.4,16
1191,20059.0,-1.4000000000000001,-0.4,-0.6000000000000001,-1.7000000000000002,1.9000000000000001,8.9,-13.5,15.399999999999999,12.7,16
1192,20067.0,-1.3,-0.30000000000000004,-0.7000000000000001,-1.7000000000000002,1.9000000000000001,8.9,-13.5,15.399999999999999,12.7,16
1193,20083.0,-1.0,-0.1,-1.3,-1.5,2.1,8.5,-6.699999999999999,8.600000000000001,14.700000000000001,16
1194,20101.0,-0.8,0.0,-1.7000000000000002,-1.2000000000000002,2.3000000000000003,7.800000000000001,-4.0,3.0,16.4,16
1195,20117.0,-0.5,0.30000000000000004,-2.2,-0.9,2.6,7.300000000000001,-4.9,1.3,18.700000000000003,16
1196,20134.0,-0.2,0.5,-2.4000000000000004,-0.7000000000000001,2.7,7.1000000000000005,-6.300000000000001,0.8,21.400000000000002,16
1197,20155.0,0.0,0.6000000000000001,-2.4000000000000004,-0.2,2.9000000000000004,7.2,-7.0,2.5,25.7,16
1198,20167.0,0.1,0.7000000000000001,-2.3000000000000003,-0.2,2.9000000000000004,7.2,-7.0,2.5,25.7,16
1199,20183.0,0.1,0.7000000000000001,-2.3000000000000003,-0.2,2.9000000000000004,7.2,-7.0,2.5,25.7,16
1200,20200.0,0.6000000000000001,0.7000000000000001,-1.6,0.30000000000000004,3.0,8.0,-4.4,2.6,25.4,16
1201,20216.0,0.7000000000000001,0.8,-1.5,0.30000000000000004,3.0,8.0,-2.8,1.0,22.8,16
1202,20233.0,0.7000000000000001,0.9,-1.1,0.4,3.1,8.3,-0.1,0.7,19.9,16
1203,20251.0,0.8,0.9,-0.4,0.5,3.1,9.4,8.5,4.7,14.600000000000001,16
1204,20266.0,0.8,0.9,0.0,0.5,3.1,9.4,8.5,4.7,14.600000000000001,16
1205,20284.0,0.7000000000000001,0.7000000000000001,0.6000000000000001,0.5,3.0,10.0,14.900000000000002,1.1,10.600000000000001,16
1206,20304.0,0.7000000000000001,0.7000000000000001,0.8,0.2,3.2,10.200000000000001,21.0,-4.0,2.4000000000000004,16
1207,20317.0,0.5,0.7000000000000001,0.8,0.2,3.2,10.200000000000001,21.0,-4.0,2.4000000000000004,16
1208,20333.0,0.2,0.9,1.3,0.0,3.4000000000000004,10.600000000000001,17.1,-2.1,1.6,16
1209,20350.0,-0.2,0.9,1.9000000000000001,-0.30000000000000004,3.5,11.100000000000001,12.7,0.7,3.3000000000000007,16
1210,20367.0,-0.1,0.9,2.3000000000000003,-0.4,3.5,11.700000000000001,9.3,2.0,6.0,16
1211,20383.0,-0.1,0.8,2.6,-0.30000000000000004,3.4000000000000004,12.0,8.2,-0.2,7.300000000000001,16
1212,20402.0,-0.30000000000000004,1.0,1.9000000000000001,-0.4,3.5,11.600000000000001,5.300000000000001,0.4,6.4,16
1213,20420.0,-0.8,1.4000000000000001,2.9000000000000004,-1.3,3.8000000000000003,12.9,-10.8,19.0,11.8,16
1214,20436.0,-1.0,1.2000000000000002,3.7,-1.3,3.8000000000000003,12.9,-10.8,19.0,11.8,16
1215,20456.0,-1.1,0.6000000000000001,4.800000000000001,-1.5,3.4000000000000004,14.0,-5.6,16.900000000000002,16.700000000000003,16
1216,20467.0,-0.8,0.1,4.7,-1.2000000000000002,2.7,14.200000000000001,8.3,0.9000000000000001,17.799999999999997,16
1217,20483.0,-0.6000000000000001,-0.6000000000000001,3.1,-1.0,2.1,12.9,16.200000000000003,-13.5,13.900000000000002,16
1218,20500.0,-0.6000000000000001,-1.0,1.9000000000000001,-0.8,1.8,11.8,18.4,-16.1,10.8,16
1219,20517.0,-0.5,-1.2000000000000002,1.5,-0.7000000000000001,1.5,11.0,19.799999999999997,-11.6,9.2,16
1220,20534.0,-0.30000000000000004,-1.5,0.6000000000000001,-0.5,1.3,10.200000000000001,21.1,-8.4,7.699999999999999,16
1221,20553.0,-0.30000000000000004,-1.7000000000000002,-0.1,-0.5,1.2000000000000002,9.600000000000001,20.3,-2.4000000000000004,6.4,16
1222,20568.0,-0.2,-1.7000000000000002,-0.4,-0.4,1.1,9.1,18.6,2.7,5.1000000000000005,16
1223,20583.0,-0.30000000000000004,-1.6,-1.1,-0.5,1.3,8.5,16.0,6.500000000000001,4.0,16
1224,20600.0,-0.4,-1.4000000000000001,-1.6,-0.6000000000000001,1.4000000000000001,8.0,10.5,14.900000000000002,4.6,16
1225,20616.0,-0.5,-1.4000000000000001,-1.5,-0.8,1.6,8.0,3.1,24.599999999999998,6.9,16
1226,20633.0,-0.8,-1.3,-1.3,-1.1,1.6,8.200000000000001,-2.9,28.0,10.600000000000001,16
1227,20654.0,-0.7000000000000001,-1.5,-1.1,-1.2000000000000002,1.5,8.3,-7.400000000000001,24.200000000000003,13.900000000000002,16
1228,20670.0,-0.5,-1.5,-1.3,-0.8,1.3,8.0,-11.900000000000002,4.0,14.5,16
1229,20683.0,-0.30000000000000004,-1.5,-1.5,-0.8,1.3,8.0,-11.900000000000002,4.0,14.5,16
1230,20700.0,0.0,-1.1,-2.0,-0.5,1.6,7.6000000000000005,-12.4,-3.0,12.4,16
1231,20717.0,0.0,-0.8,-2.2,-0.30000000000000004,2.3000000000000003,7.0,-12.100000000000001,-4.5,11.4,16
1232,20734.0,0.2,-0.4,-2.5,-0.30000000000000004,2.3000000000000003,7.0,-11.2,-3.2,11.8,16
1233,20751.0,0.30000000000000004,-0.1,-2.5,-0.1,2.5,6.9,-7.8,1.5,12.200000000000001,16
1234,20769.0,0.30000000000000004,0.1,-2.5,-0.1,2.8000000000000003,7.0,-3.4,7.400000000000001,13.100000000000001,16
1235,20783.0,0.4,0.30000000000000004,-2.0,0.0,3.0,7.4,2.4000000000000004,11.3,14.800000000000002,16
1236,20800.0,0.6000000000000001,0.5,-1.9000000000000001,0.1,3.1,7.5,8.3,9.8,14.900000000000002,16
1237,20817.0,0.7000000000000001,0.7000000000000001,-1.9000000000000001,0.2,3.3000000000000003,7.4,9.5,9.3,14.700000000000001,16
1238,20833.0,0.7000000000000001,0.8,-1.6,0.2,3.5,7.800000000000001,8.100000000000001,12.0,15.299999999999999,16
1239,20850.0,0.7000000000000001,0.9,-0.7000000000000001,0.2,3.7,8.5,9.8,10.4,17.200000000000003,16
1240,20866.0,0.7000000000000001,0.9,-0.5,0.30000000000000004,3.7,8.8,13.200000000000003,5.300000000000001,19.0,16
1241,20883.0,0.9,0.9,-0.6000000000000001,0.5,3.8000000000000003,8.700000000000001,13.3,1.7,20.900000000000002,16
1242,20901.0,1.1,0.9,-0.30000000000000004,0.6000000000000001,3.8000000000000003,8.9,9.0,1.4,22.1,16
1243,20918.0,1.0,0.9,0.1,0.6000000000000001,3.8000000000000003,9.3,3.3000000000000007,2.8,23.800000000000004,16
1244,20933.0,0.9,0.8,0.2,0.5,3.8000000000000003,9.5,-3.6000000000000005,5.9,25.5,16
1245,20951.0,0.8,0.7000000000000001,0.8,0.4,3.6,10.0,-12.600000000000001,15.000000000000002,26.400000000000006,16
1246,20968.0,0.2,0.4,2.1,-0.1,3.3000000000000003,11.0,-19.1,25.4,27.099999999999998,16
1247,20985.0,-0.1,0.1,2.7,-0.6000000000000001,2.9000000000000004,12.0,-21.200000000000003,27.9,27.5,16
1248,21000.0,-0.4,-0.2,3.1,-0.9,2.6,12.4,-24.3,22.700000000000003,25.8,16
1249,21016.0,-0.6000000000000001,-0.30000000000000004,3.5,-1.1,2.4000000000000004,12.8,-28.3,15.899999999999999,22.9,16
1250,21033.0,-0.8,-0.30000000000000004,3.5,-1.4000000000000001,2.3000000000000003,12.9,-29.400000000000002,5.8,20.0,16
1251,21051.0,-0.9,-0.1,3.1,-1.4000000000000001,2.4000000000000004,12.600000000000001,-25.7,-1.9,17.400000000000002,16
1252,21067.0,-1.1,0.0,2.4000000000000004,-1.6,2.5,12.100000000000001,-18.8,0.30000000000000004,16.700000000000003,16
1253,21086.0,-1.4000000000000001,-0.2,2.0,-2.1,2.0,11.600000000000001,-6.600000000000001,13.6,20.7,16
1254,21100.0,-1.5,-0.4,2.0,-2.1,2.0,11.600000000000001,-6.600000000000001,13.6,20.7,16
1255,21117.0,-1.8,-1.1,1.9000000000000001,-2.4000000000000004,1.4000000000000001,11.600000000000001,-1.7,15.5,21.0,16
1256,21134.0,-1.9000000000000001,-1.5,1.3,-2.6,0.9,10.5,7.400000000000001,3.7000000000000006,16.4,16
1257,21152.0,-1.9000000000000001,-1.5,0.8,-2.6,0.9,10.5,7.400000000000001,3.7000000000000006,16.4,16
1258,21168.0,-2.0,-1.5,-0.5,-2.7,1.0,9.4,10.600000000000001,3.4,15.299999999999999,16
1259,21184.0,-1.9000000000000001,-1.2000000000000002,-1.4000000000000001,-2.5,1.4000000000000001,7.800000000000001,4.800000000000001,9.4,17.9,16
1260,21200.0,-1.7000000000000002,-1.1,-1.8,-2.5,1.4000000000000001,7.800000000000001,4.800000000000001,9.4,17.9,16
1261,21217.0,-1.4000000000000001,-0.8,-2.1,-2.3000000000000003,1.7000000000000002,7.5,-1.8000000000000003,12.9,20.3,16
1262,21233.0,-1.2000000000000002,-0.5,-2.1,-1.9000000000000001,2.0,7.5,-9.600000000000001,15.399999999999999,27.400000000000002,16
1263,21250.0,-1.0,-0.4,-2.0,-1.9000000000000001,2.0,7.5,-9.600000000000001,15.399999999999999,27.400000000000002,16
1264,21268.0,-0.7000000000000001,-0.4,-2.1,-1.6,2.1,7.4,-8.5,11.900000000000002,30.5,16
1265,21283.0,-0.30000000000000004,-0.2,-2.4000000000000004,-1.3,2.2,7.1000000000000005,-6.300000000000001,8.700000000000001,32.5,16
1266,21300.0,-0.30000000000000004,0.0,-2.6,-1.1,2.4000000000000004,6.9,-4.7,7.0,34.60000000000001,16
1267,21317.0,0.0,0.30000000000000004,-2.7,-1.0,2.7,6.7,-6.0,6.4,38.50000000000001,16
1268,21333.0,0.2,0.4,-2.6,-0.8,2.8000000000000003,6.800000000000001,-7.400000000000001,4.1,42.5,16
1269,21351.0,0.30000000000000004,0.5,-2.7,-0.6000000000000001,2.9000000000000004,6.800000000000001,-9.2,1.1,46.6,16
1270,21367.0,0.4,0.6000000000000001,-2.6,-0.30000000000000004,2.9000000000000004,7.0,-12.0,2.0,50.5,16
1271,21384.0,0.6000000000000001,0.5,-1.5,-0.2,2.9000000000000004,7.7,-13.5,1.6,52.900000000000006,16
1272,21400.0,0.6000000000000001,0.5,-1.2000000000000002,-0.1,2.9000000000000004,8.200000000000001,-13.200000000000003,-0.6000000000000001,53.8,16
1273,21417.0,0.7000000000000001,0.6000000000000001,-0.4,0.0,2.9000000000000004,8.9,-12.600000000000001,-0.7,54.0,16
1274,21433.0,0.8,0.5,0.30000000000000004,0.1,2.8000000000000003,9.600000000000001,-10.600000000000001,-2.0,52.60000000000001,16
1275,21451.0,0.9,0.4,0.7000000000000001,0.30000000000000004,2.7,10.200000000000001,-6.8,-5.8,48.400000000000006,16
1276,21466.0,0.9,0.5,1.1,0.4,2.8000000000000003,10.5,-1.6,-11.5,41.900000000000006,16
1277,21483.0,1.0,0.7000000000000001,1.1,0.5,2.9000000000000004,10.600000000000001,3.5,-17.799999999999997,35.0,16
1278,21500.0,1.0,0.7000000000000001,1.0,0.6000000000000001,3.0,10.5,6.9,-21.400000000000002,27.9,16
