,ms,accelX,accelY,accelZ,accelWithGX,accelWithGY,accelWithGZ,rotRateAlpha,rotRateBeta,rotRateGamma,interval
0,151.0,0.4,-0.2,-0.1,-2.4000000000000004,2.2,8.6,-12.4,36.300000000000004,52.60000000000001,16
1,168.0,0.7000000000000001,-0.2,-0.1,-2.0,2.2,8.6,-16.3,34.50000000000001,56.2,16
2,185.0,0.9,-0.1,0.0,-1.8,2.3000000000000003,8.700000000000001,-21.1,34.1,56.2,16
3,202.0,0.9,-0.1,0.1,-1.8,2.3000000000000003,8.8,-23.099999999999998,34.0,55.60000000000001,16
4,218.0,1.0,0.0,0.30000000000000004,-1.6,2.4000000000000004,9.1,-25.900000000000002,33.50000000000001,54.800000000000004,16
5,235.0,1.1,0.1,0.6000000000000001,-1.5,2.4000000000000004,9.4,-26.6,35.0,53.0,16
6,252.0,1.1,0.2,0.7000000000000001,-1.5,2.4000000000000004,9.5,-26.300000000000004,35.9,51.70000000000001,16
7,268.0,1.0,0.30000000000000004,0.8,-1.5,2.5,9.700000000000001,-24.7,32.9,48.800000000000004,16
8,285.0,1.0,0.4,0.8,-1.5,2.7,9.8,-23.800000000000004,28.200000000000003,45.099999999999994,16
9,302.0,0.9,0.5,0.9,-1.6,2.8000000000000003,9.9,-23.0,27.0,43.00000000000001,16
10,318.0,0.7000000000000001,0.6000000000000001,1.0,-1.7000000000000002,2.9000000000000004,10.0,-19.5,28.800000000000004,39.9,16
11,335.0,0.6000000000000001,0.7000000000000001,0.9,-1.9000000000000001,3.0,10.0,-14.5,30.9,38.400000000000006,16
12,352.0,0.6000000000000001,0.7000000000000001,0.9,-1.9000000000000001,3.1,10.0,-12.9,31.3,38.300000000000004,16
13,368.0,0.6000000000000001,0.8,0.9,-2.0,3.2,10.0,-12.5,29.400000000000002,37.2,16
14,385.0,0.5,0.7000000000000001,1.0,-2.1,3.1,10.200000000000001,-11.700000000000001,23.800000000000004,36.2,16
15,402.0,0.5,0.7000000000000001,1.0,-2.1,3.2,10.200000000000001,-10.299999999999999,20.900000000000002,36.300000000000004,16
16,418.0,0.6000000000000001,0.7000000000000001,0.9,-2.0,3.2,10.200000000000001,-6.2,18.700000000000003,35.8,16
17,435.0,0.4,0.5,0.7000000000000001,-2.2,3.1,10.0,-1.8000000000000003,18.3,35.3,16
18,452.0,0.5,0.4,0.5,-2.1,3.0,9.8,0.4,15.5,35.699999999999996,16
19,468.0,0.7000000000000001,0.30000000000000004,0.1,-1.8,2.9000000000000004,9.4,3.5,11.4,34.7,16
20,485.0,0.9,0.1,-0.2,-1.6,2.8000000000000003,9.0,5.1000000000000005,9.899999999999999,31.099999999999998,16
21,502.0,0.9,0.1,-0.30000000000000004,-1.6,2.8000000000000003,8.9,5.4,9.8,28.900000000000002,16
22,518.0,0.9,0.0,-0.5,-1.6,2.8000000000000003,8.700000000000001,5.6,7.1000000000000005,25.300000000000004,16
23,535.0,0.9,0.0,-0.6000000000000001,-1.5,2.8000000000000003,8.6,5.2,5.2,21.7,16
24,552.0,0.9,0.0,-0.7000000000000001,-1.4000000000000001,2.8000000000000003,8.5,5.1000000000000005,3.9,19.9,16
25,568.0,1.1,0.0,-0.7000000000000001,-1.2000000000000002,2.9000000000000004,8.4,3.5,4.5,15.2,16
26,585.0,1.0,0.0,-0.6000000000000001,-1.3,2.9000000000000004,8.5,1.0,5.300000000000001,8.600000000000001,16
27,602.0,1.0,0.0,-0.4,-1.4000000000000001,2.9000000000000004,8.8,-0.5,5.8,5.4,16
28,618.0,0.8,0.1,0.0,-1.5,2.9000000000000004,9.0,-2.9,4.7,-0.6000000000000001,16
29,635.0,0.7000000000000001,0.1,0.30000000000000004,-1.6,2.9000000000000004,9.4,-1.9,1.7,-5.1000000000000005,16
30,652.0,0.7000000000000001,0.1,0.4,-1.6,2.9000000000000004,9.5,-0.9000000000000001,1.1,-7.6,16
31,668.0,0.6000000000000001,0.1,0.5,-1.6,3.0,9.600000000000001,1.2000000000000002,0.1,-14.100000000000001,16
32,685.0,0.5,0.2,0.6000000000000001,-1.8,3.0,9.700000000000001,4.4,1.4,-20.900000000000002,16
33,702.0,0.30000000000000004,0.2,0.5,-2.0,3.0,9.600000000000001,8.2,2.4000000000000004,-25.7,16
34,718.0,0.2,0.2,0.5,-2.1,3.0,9.600000000000001,9.2,2.2,-27.400000000000002,16
35,735.0,0.1,0.2,0.4,-2.2,3.0,9.5,10.200000000000001,-0.2,-30.9,16
36,752.0,0.0,0.2,0.4,-2.4000000000000004,3.1,9.5,10.700000000000001,-2.4000000000000004,-33.1,16
37,768.0,-0.1,0.2,0.4,-2.5,3.1,9.5,11.5,-2.8,-34.0,16
38,785.0,-0.2,0.1,0.2,-2.6,3.0,9.4,13.900000000000002,-4.2,-34.50000000000001,16
39,802.0,-0.2,0.0,0.1,-2.6,2.9000000000000004,9.200000000000001,15.6,-3.8,-35.8,16
40,818.0,-0.30000000000000004,-0.1,0.0,-2.7,2.9000000000000004,9.200000000000001,16.1,-2.9,-36.8,16
41,835.0,-0.5,-0.30000000000000004,-0.1,-2.9000000000000004,2.7,9.0,18.5,-1.9,-37.6,16
42,852.0,-0.6000000000000001,-0.30000000000000004,-0.30000000000000004,-3.1,2.7,8.700000000000001,19.700000000000003,-1.6,-36.8,16
43,868.0,-0.6000000000000001,-0.30000000000000004,-0.5,-3.1,2.7,8.6,18.8,-1.7,-36.1,16
44,885.0,-0.5,-0.4,-0.5,-3.1,2.6,8.6,14.800000000000002,-3.9,-33.9,16
45,902.0,-0.4,-0.5,-0.4,-3.0,2.5,8.6,11.6,-5.2,-32.300000000000004,16
46,918.0,-0.4,-0.5,-0.30000000000000004,-3.1,2.5,8.700000000000001,10.0,-4.9,-32.7,16
47,935.0,-0.7000000000000001,-0.5,-0.2,-3.3000000000000003,2.5,8.8,6.600000000000001,-3.6000000000000005,-34.0,16
48,952.0,-0.8,-0.4,0.2,-3.5,2.5,9.200000000000001,4.7,-3.3000000000000007,-32.5,16
49,968.0,-0.8,-0.4,0.30000000000000004,-3.5,2.6,9.3,4.7,-3.0,-31.2,16
50,985.0,-1.0,-0.4,0.4,-3.7,2.5,9.4,6.1000000000000005,-4.300000000000001,-28.800000000000004,16
51,1002.0,-1.0,-0.30000000000000004,0.4,-3.8000000000000003,2.6,9.5,8.0,-7.699999999999999,-25.900000000000002,16
52,1018.0,-1.0,-0.30000000000000004,0.4,-3.8000000000000003,2.6,9.4,9.3,-8.3,-24.3,16
53,1035.0,-1.1,-0.30000000000000004,0.2,-3.9000000000000004,2.6,9.200000000000001,12.4,-9.2,-20.8,16
54,1052.0,-1.0,-0.4,-0.1,-3.8000000000000003,2.6,8.9,14.900000000000002,-9.899999999999999,-17.6,16
55,1068.0,-1.0,-0.4,-0.30000000000000004,-3.8000000000000003,2.6,8.700000000000001,16.200000000000003,-9.899999999999999,-16.200000000000003,16
56,1085.0,-0.9,-0.30000000000000004,-0.6000000000000001,-3.7,2.6,8.4,17.200000000000003,-8.3,-13.700000000000001,16
57,1102.0,-0.9,-0.30000000000000004,-0.8,-3.7,2.7,8.200000000000001,15.5,-8.3,-12.100000000000001,16
58,1118.0,-0.9,-0.2,-0.9,-3.8000000000000003,2.8000000000000003,8.1,13.000000000000002,-8.8,-11.2,16
59,1135.0,-1.0,-0.1,-0.8,-3.9000000000000004,2.9000000000000004,8.1,4.9,-8.4,-8.899999999999999,16
60,1152.0,-1.1,-0.1,-0.5,-3.9000000000000004,2.9000000000000004,8.4,-2.4000000000000004,-7.8,-5.4,16
61,1168.0,-1.0,-0.1,-0.30000000000000004,-3.8000000000000003,2.9000000000000004,8.6,-4.5,-8.0,-3.4,16
62,1185.0,-0.9,-0.1,-0.1,-3.7,2.9000000000000004,8.9,-7.1000000000000005,-8.700000000000001,-0.9000000000000001,16
63,1202.0,-0.7000000000000001,0.0,0.1,-3.5,3.0,9.0,-7.400000000000001,-12.0,1.0,16
64,1219.0,-0.6000000000000001,0.0,0.1,-3.3000000000000003,3.0,9.1,-6.9,-12.8,1.5,16
65,1235.0,-0.4,0.2,0.1,-3.2,3.1,9.1,-5.9,-11.700000000000001,1.4,16
66,1252.0,-0.4,0.2,0.1,-3.1,3.1,9.1,-4.7,-9.700000000000001,0.6000000000000001,16
67,1268.0,-0.4,0.2,0.2,-3.2,3.1,9.200000000000001,-3.9,-8.0,0.4,16
68,1285.0,-0.5,0.2,0.1,-3.2,3.1,9.200000000000001,-1.3,-6.300000000000001,1.5,16
69,1302.0,-0.4,0.1,0.0,-3.1,3.1,9.1,0.4,-5.500000000000001,3.0,16
70,1318.0,-0.30000000000000004,0.1,0.0,-2.9000000000000004,3.0,9.0,0.30000000000000004,-5.2,3.3000000000000007,16
71,1335.0,-0.2,0.0,-0.1,-2.8000000000000003,3.0,9.0,-0.30000000000000004,-5.6,3.3000000000000007,16
72,1352.0,-0.2,0.0,-0.1,-2.8000000000000003,2.9000000000000004,9.0,0.1,-5.6,2.8,16
73,1368.0,-0.1,-0.1,-0.1,-2.7,2.9000000000000004,8.9,0.30000000000000004,-6.1000000000000005,2.6,16
74,1385.0,-0.1,-0.1,-0.2,-2.8000000000000003,2.9000000000000004,8.9,0.6000000000000001,-5.500000000000001,1.5,16
75,1402.0,-0.2,-0.1,-0.2,-2.8000000000000003,2.9000000000000004,8.9,0.8,-2.9,0.7,16
76,1418.0,-0.2,-0.1,-0.2,-2.8000000000000003,2.9000000000000004,8.8,-0.6000000000000001,-0.5,1.0,16
77,1435.0,-0.2,-0.1,-0.1,-2.9000000000000004,2.8000000000000003,8.9,-2.2,-0.8,0.9000000000000001,16
78,1452.0,-0.30000000000000004,-0.1,0.0,-3.0,2.9000000000000004,9.1,-4.9,-2.5,0.8,16
79,1468.0,-0.4,0.0,0.2,-3.0,2.9000000000000004,9.200000000000001,-4.300000000000001,-5.500000000000001,1.8000000000000003,16
80,1485.0,-0.30000000000000004,-0.1,0.1,-3.0,2.8000000000000003,9.200000000000001,-3.0,-5.8,2.1,16
81,1502.0,-0.30000000000000004,0.0,-0.1,-2.9000000000000004,2.9000000000000004,9.0,-0.9000000000000001,-3.9,2.3,16
82,1518.0,-0.30000000000000004,0.1,-0.30000000000000004,-3.0,2.9000000000000004,8.8,-1.4,-1.3,1.7,16
83,1535.0,-0.30000000000000004,0.0,-0.30000000000000004,-3.0,2.9000000000000004,8.700000000000001,-2.4000000000000004,-0.7,1.7,16
84,1552.0,-0.4,0.1,-0.2,-3.0,3.0,8.8,-5.0,-0.2,2.8,16
85,1568.0,-0.30000000000000004,0.2,-0.2,-3.0,3.1,8.9,-7.699999999999999,-2.2,3.6000000000000005,16
86,1585.0,-0.30000000000000004,0.2,-0.1,-3.0,3.1,9.0,-8.5,-2.3,3.7000000000000006,16
87,1602.0,-0.30000000000000004,0.30000000000000004,0.1,-3.0,3.1,9.200000000000001,-7.400000000000001,-2.3,3.7000000000000006,16
88,1618.0,-0.4,0.30000000000000004,0.0,-3.0,3.1,9.1,-4.2,-0.2,4.7,16
89,1635.0,-0.30000000000000004,0.30000000000000004,0.0,-3.0,3.1,9.0,-3.3000000000000007,0.9000000000000001,5.4,16
90,1652.0,-0.2,0.30000000000000004,-0.2,-2.9000000000000004,3.2,8.9,-4.6,1.6,6.500000000000001,16
91,1668.0,-0.1,0.30000000000000004,0.0,-2.8000000000000003,3.1,9.1,-7.500000000000001,0.2,7.200000000000001,16
92,1685.0,-0.1,0.30000000000000004,0.1,-2.8000000000000003,3.1,9.200000000000001,-8.3,0.2,7.300000000000001,16
93,1702.0,-0.1,0.2,0.2,-2.8000000000000003,3.0,9.4,-7.699999999999999,-1.4,7.699999999999999,16
94,1718.0,-0.1,0.2,0.30000000000000004,-2.7,3.0,9.4,-6.0,-1.7,8.0,16
95,1735.0,0.0,0.1,0.30000000000000004,-2.7,3.0,9.4,-5.1000000000000005,-1.4,8.0,16
96,1751.0,0.1,0.1,0.2,-2.6,2.9000000000000004,9.4,-3.3000000000000007,-1.6,8.4,16
97,1768.0,0.2,0.0,0.2,-2.4000000000000004,2.9000000000000004,9.3,-1.6,-0.5,7.8,16
98,1785.0,0.2,0.0,0.2,-2.4000000000000004,2.8000000000000003,9.3,-1.1,0.1,7.0,16
99,1802.0,0.2,0.0,0.1,-2.4000000000000004,2.8000000000000003,9.200000000000001,-0.4,-0.7,5.1000000000000005,16
100,1818.0,0.2,-0.1,0.0,-2.4000000000000004,2.7,9.200000000000001,0.5,-1.3,3.6000000000000005,16
101,1835.0,0.2,-0.1,0.0,-2.4000000000000004,2.7,9.1,1.0,-1.3,3.3000000000000007,16
102,1852.0,0.2,-0.1,-0.2,-2.3000000000000003,2.8000000000000003,9.0,1.2000000000000002,0.2,1.7,16
103,1868.0,0.1,-0.1,-0.2,-2.5,2.8000000000000003,9.0,-0.4,0.8,0.1,16
104,1885.0,0.0,0.0,-0.2,-2.5,2.8000000000000003,8.9,-1.3,0.0,0.0,16
105,1902.0,0.0,0.0,-0.1,-2.6,2.8000000000000003,9.0,-2.8,-1.6,0.2,16
106,1918.0,0.0,0.0,-0.1,-2.6,2.8000000000000003,9.1,-3.4,0.0,0.0,16
107,1935.0,0.0,0.0,0.0,-2.6,2.9000000000000004,9.1,-3.1,-0.1,0.0,16
108,1952.0,-0.1,0.0,0.0,-2.6,2.8000000000000003,9.200000000000001,-2.2,-0.5,0.1,16
109,1968.0,0.0,0.0,0.0,-2.6,2.8000000000000003,9.1,-1.6,-1.0,0.4,16
110,1985.0,-0.1,0.1,0.0,-2.7,2.8000000000000003,9.200000000000001,-1.6,-0.5,0.30000000000000004,16
111,2002.0,-0.1,0.0,0.1,-2.7,2.8000000000000003,9.200000000000001,-1.4,-0.30000000000000004,0.0,16
112,2018.0,-0.1,0.1,0.0,-2.7,2.8000000000000003,9.200000000000001,-1.7,-0.2,0.30000000000000004,16
113,2035.0,-0.1,0.0,0.0,-2.7,2.8000000000000003,9.1,-2.0,-0.5,0.2,16
114,2052.0,-0.1,0.0,0.0,-2.7,2.8000000000000003,9.200000000000001,-2.8,-0.9000000000000001,0.7,16
115,2068.0,-0.1,0.0,0.1,-2.7,2.8000000000000003,9.3,-3.0,-2.5,1.5,16
116,2085.0,0.0,0.0,0.1,-2.6,2.8000000000000003,9.3,-2.7,-2.3,1.3,16
117,2102.0,-0.1,0.0,0.1,-2.6,2.8000000000000003,9.3,-1.5,-0.8,0.8,16
118,2118.0,-0.1,0.0,0.0,-2.7,2.8000000000000003,9.200000000000001,0.30000000000000004,-0.5,1.4,16
119,2135.0,0.0,0.0,-0.1,-2.5,2.7,9.0,0.8,-1.6,1.9,16
120,2152.0,0.1,0.0,-0.30000000000000004,-2.5,2.7,8.9,0.1,-3.0,2.3,16
121,2169.0,0.1,0.0,-0.30000000000000004,-2.4000000000000004,2.8000000000000003,8.9,-1.5,-1.8000000000000003,1.5,16
122,2185.0,0.1,0.0,-0.30000000000000004,-2.5,2.7,8.9,-2.3,-0.9000000000000001,1.2000000000000002,16
123,2202.0,0.0,0.0,-0.2,-2.6,2.7,9.0,-4.0,-2.0,2.0,16
124,2218.0,0.0,0.0,-0.1,-2.5,2.7,9.1,-5.4,-3.5,2.9,16
125,2235.0,0.2,-0.1,0.0,-2.3000000000000003,2.7,9.200000000000001,-5.7,-3.6000000000000005,3.2,16
126,2252.0,0.2,-0.1,0.1,-2.3000000000000003,2.7,9.3,-4.9,-3.2,2.6,16
127,2274.0,0.0,0.0,0.1,-2.5,2.7,9.3,-4.1,-2.5,0.9000000000000001,16
128,2285.0,-0.1,0.0,0.1,-2.6,2.7,9.3,-3.1,-6.0,1.5,16
129,2302.0,-0.1,0.0,0.0,-2.6,2.7,9.200000000000001,-3.1,-6.8,2.1,16
130,2319.0,-0.1,0.1,0.0,-2.5,2.7,9.3,-3.8,-6.699999999999999,3.1,16
131,2335.0,-0.1,0.0,-0.1,-2.5,2.7,9.200000000000001,-3.9,-8.2,4.1,16
132,2352.0,-0.1,0.0,0.0,-2.5,2.7,9.200000000000001,-4.4,-9.100000000000001,4.2,16
133,2368.0,-0.1,0.1,0.0,-2.4000000000000004,2.7,9.3,-4.7,-8.5,3.5,16
134,2387.0,-0.1,0.1,0.0,-2.5,2.7,9.3,-3.6000000000000005,-5.500000000000001,3.7000000000000006,16
135,2403.0,-0.1,0.1,0.1,-2.5,2.7,9.3,-2.8,-4.2,3.7000000000000006,16
136,2418.0,-0.1,0.1,0.1,-2.5,2.7,9.4,-1.7,-3.0,3.9,16
137,2435.0,-0.1,0.0,0.2,-2.4000000000000004,2.7,9.5,-0.8,-4.2,3.4,16
138,2452.0,-0.2,-0.1,0.30000000000000004,-2.5,2.6,9.600000000000001,0.2,-5.300000000000001,2.7,16
139,2469.0,-0.30000000000000004,-0.1,0.30000000000000004,-2.6,2.6,9.600000000000001,2.8,-7.6,2.1,16
140,2488.0,-0.30000000000000004,-0.1,0.2,-2.6,2.6,9.5,5.2,-8.8,2.2,16
141,2504.0,-0.2,-0.1,0.0,-2.5,2.6,9.3,6.1000000000000005,-8.0,2.6,16
142,2518.0,-0.1,-0.1,-0.1,-2.4000000000000004,2.6,9.200000000000001,7.300000000000001,-8.0,4.300000000000001,16
143,2535.0,-0.1,-0.2,-0.30000000000000004,-2.3000000000000003,2.5,9.0,8.0,-9.2,4.0,16
144,2552.0,-0.1,-0.30000000000000004,-0.4,-2.4000000000000004,2.4000000000000004,8.9,7.300000000000001,-10.5,4.1,16
145,2569.0,-0.1,-0.2,-0.5,-2.2,2.5,8.8,2.6,-18.8,6.9,16
146,2585.0,0.2,-0.4,-0.7000000000000001,-1.9000000000000001,2.4000000000000004,8.6,-1.6,-25.7,9.4,16
147,2602.0,0.30000000000000004,-0.4,-0.8,-1.7000000000000002,2.4000000000000004,8.5,-3.3000000000000007,-26.799999999999997,10.8,16
148,2619.0,0.4,-0.4,-0.9,-1.5,2.3000000000000003,8.4,-8.899999999999999,-24.400000000000002,12.0,16
149,2635.0,0.6000000000000001,-0.5,-0.9,-1.2000000000000002,2.2,8.5,-16.0,-23.099999999999998,11.6,16
150,2652.0,0.7000000000000001,-0.4,-0.8,-1.1,2.2,8.6,-19.400000000000002,-21.8,10.700000000000001,16
151,2668.0,0.7000000000000001,-0.4,-0.5,-1.0,2.2,8.9,-23.900000000000006,-18.0,7.500000000000001,16
152,2685.0,0.7000000000000001,-0.30000000000000004,-0.2,-0.9,2.2,9.3,-24.400000000000002,-15.5,4.0,16
153,2702.0,0.7000000000000001,-0.2,-0.1,-0.9,2.2,9.4,-23.6,-13.6,1.7,16
154,2718.0,0.7000000000000001,-0.1,0.1,-0.9,2.3000000000000003,9.600000000000001,-20.2,-10.0,-3.8,16
155,2735.0,0.7000000000000001,-0.1,0.2,-1.0,2.3000000000000003,9.700000000000001,-16.700000000000003,-4.0,-8.8,16
156,2752.0,0.5,0.0,0.2,-1.3,2.3000000000000003,9.9,-15.6,-1.7,-11.000000000000002,16
157,2768.0,0.1,0.1,0.4,-1.5,2.4000000000000004,10.0,-14.600000000000001,1.1,-13.8,16
158,2785.0,-0.2,0.2,0.5,-1.8,2.4000000000000004,10.100000000000001,-14.100000000000001,0.30000000000000004,-12.5,16
159,2802.0,-0.2,0.30000000000000004,0.6000000000000001,-1.9000000000000001,2.5,10.100000000000001,-15.2,0.30000000000000004,-10.5,16
160,2818.0,-0.30000000000000004,0.4,0.8,-1.9000000000000001,2.5,10.4,-17.6,-2.4000000000000004,-6.4,16
161,2835.0,-0.2,0.4,0.9,-1.8,2.4000000000000004,10.600000000000001,-17.6,-6.699999999999999,-3.5,16
162,2852.0,-0.1,0.4,1.0,-1.7000000000000002,2.4000000000000004,10.600000000000001,-16.3,-8.8,-2.6,16
163,2873.0,0.0,0.2,1.0,-1.6,2.2,10.700000000000001,-5.2,-5.8,-4.1,16
164,2890.0,-0.1,0.1,0.9,-1.6,2.1,10.600000000000001,0.30000000000000004,-2.7,-4.7,16
165,2902.0,-0.1,0.0,0.4,-1.7000000000000002,2.0,10.100000000000001,9.600000000000001,1.8000000000000003,-5.0,16
166,2918.0,-0.1,0.0,0.2,-1.7000000000000002,2.0,9.8,12.0,2.8,-4.9,16
167,2935.0,-0.1,-0.1,-0.30000000000000004,-1.7000000000000002,2.0,9.4,11.8,3.8,-5.500000000000001,16
168,2951.0,-0.1,-0.2,-0.30000000000000004,-1.7000000000000002,1.9000000000000001,9.3,9.700000000000001,3.3000000000000007,-5.4,16
169,2968.0,-0.1,-0.30000000000000004,-0.30000000000000004,-1.7000000000000002,1.8,9.3,5.2,1.6,-4.800000000000001,16
170,2985.0,-0.1,-0.30000000000000004,-0.2,-1.7000000000000002,1.8,9.4,4.5,1.9,-4.9,16
171,3002.0,-0.2,-0.30000000000000004,-0.30000000000000004,-1.8,1.8,9.3,5.7,3.8,-4.7,16
172,3018.0,-0.2,-0.30000000000000004,-0.30000000000000004,-1.8,1.8,9.3,5.6,4.300000000000001,-4.0,16
173,3035.0,-0.1,-0.30000000000000004,-0.4,-1.7000000000000002,1.8,9.200000000000001,4.1,4.4,-2.7,16
174,3051.0,-0.1,-0.30000000000000004,-0.4,-1.8,1.9000000000000001,9.200000000000001,2.7,5.0,-2.2,16
175,3068.0,-0.1,-0.2,-0.30000000000000004,-1.8,1.9000000000000001,9.200000000000001,-0.9000000000000001,5.500000000000001,-1.1,16
176,3085.0,-0.1,-0.2,-0.1,-1.8,1.9000000000000001,9.5,-4.2,4.4,0.8,16
177,3102.0,0.0,-0.1,0.0,-1.7000000000000002,1.9000000000000001,9.600000000000001,-5.1000000000000005,1.9,2.6,16
178,3118.0,0.1,-0.1,0.1,-1.6,2.0,9.600000000000001,-5.0,1.2000000000000002,2.6,16
179,3135.0,0.1,-0.1,0.1,-1.6,2.0,9.700000000000001,-4.0,1.9,0.9000000000000001,16
180,3152.0,0.1,0.1,0.1,-1.6,2.1,9.700000000000001,-1.8000000000000003,2.3,0.1,16
181,3171.0,0.1,0.1,0.1,-1.7000000000000002,2.1,9.600000000000001,-0.6000000000000001,2.5,0.0,16
182,3185.0,0.0,0.1,0.0,-1.7000000000000002,2.2,9.5,1.6,3.6000000000000005,0.30000000000000004,16
183,3202.0,0.1,0.2,-0.2,-1.7000000000000002,2.2,9.4,1.9,3.4,1.0,16
184,3218.0,0.2,0.2,-0.2,-1.6,2.3000000000000003,9.3,1.0,2.6,2.1,16
185,3235.0,0.2,0.2,-0.2,-1.6,2.3000000000000003,9.4,-0.6000000000000001,1.7,1.5,16
186,3251.0,0.1,0.2,-0.1,-1.6,2.3000000000000003,9.5,-1.2000000000000002,0.8,1.1,16
187,3268.0,0.1,0.2,-0.1,-1.6,2.2,9.5,-0.6000000000000001,1.4,1.1,16
188,3285.0,0.1,0.1,-0.1,-1.6,2.2,9.5,0.30000000000000004,1.9,2.0,16
189,3302.0,0.2,0.1,-0.1,-1.6,2.2,9.5,-0.7,2.5,2.8,16
190,3319.0,0.2,0.1,0.0,-1.6,2.1,9.700000000000001,-1.7,2.7,3.0,16
191,3335.0,0.2,0.0,0.2,-1.5,2.1,9.8,-2.5,0.5,3.3000000000000007,16
192,3351.0,0.2,0.0,0.30000000000000004,-1.5,2.0,9.8,-0.6000000000000001,-1.8000000000000003,2.7,16
193,3368.0,0.2,-0.1,0.30000000000000004,-1.5,2.0,9.8,0.6000000000000001,-1.8000000000000003,2.0,16
194,3385.0,0.2,-0.1,0.2,-1.5,2.0,9.8,3.3000000000000007,0.2,1.0,16
195,3402.0,0.2,-0.1,0.1,-1.5,2.0,9.700000000000001,6.0,2.7,-0.30000000000000004,16
196,3418.0,0.2,-0.1,0.0,-1.5,2.0,9.600000000000001,7.1000000000000005,3.6000000000000005,-0.8,16
197,3435.0,0.2,-0.1,-0.2,-1.6,2.0,9.4,6.0,2.1,-1.4,16
198,3457.0,0.0,-0.1,-0.1,-1.7000000000000002,2.1,9.4,2.5,-0.5,-2.4000000000000004,16
199,3470.0,0.0,0.0,-0.1,-1.8,2.1,9.5,1.4,-1.1,-2.2,16
200,3485.0,-0.1,0.0,0.0,-1.8,2.1,9.5,1.2000000000000002,-2.3,-1.1,16
201,3502.0,-0.1,0.0,0.0,-1.8,2.2,9.600000000000001,1.5,-1.6,-0.30000000000000004,16
202,3518.0,-0.1,0.0,0.1,-1.8,2.2,9.600000000000001,1.8000000000000003,-1.4,-0.7,16
203,3535.0,-0.2,0.1,0.1,-1.9000000000000001,2.2,9.600000000000001,3.1,-1.8000000000000003,-0.8,16
204,3551.0,-0.1,0.0,0.0,-1.8,2.2,9.5,5.6,-2.7,0.1,16
205,3568.0,-0.1,-0.1,-0.1,-1.8,2.1,9.4,6.699999999999999,-2.3,0.4,16
206,3585.0,-0.1,0.0,-0.4,-1.8,2.2,9.200000000000001,6.8,-0.2,0.0,16
207,3603.0,-0.1,0.0,-0.4,-1.8,2.2,9.1,3.8,1.1,0.6000000000000001,16
208,3618.0,-0.2,0.0,-0.4,-1.8,2.2,9.1,1.9,0.4,1.5,16
209,3635.0,-0.1,-0.1,-0.30000000000000004,-1.8,2.2,9.200000000000001,-1.8000000000000003,-2.6,3.8,16
210,3652.0,0.1,-0.1,-0.1,-1.6,2.1,9.4,-4.4,-3.7000000000000006,4.6,16
211,3669.0,0.1,0.0,0.1,-1.5,2.2,9.600000000000001,-5.0,-2.9,4.2,16
212,3685.0,0.1,-0.1,0.2,-1.6,2.1,9.700000000000001,-4.4,-2.5,3.6000000000000005,16
213,3702.0,0.1,-0.1,0.30000000000000004,-1.6,2.1,9.8,-1.6,-1.9,2.8,16
214,3718.0,0.1,-0.1,0.2,-1.6,2.1,9.700000000000001,1.2000000000000002,-2.2,2.0,16
215,3735.0,0.1,-0.1,0.1,-1.6,2.1,9.700000000000001,1.9,-2.3,1.7,16
216,3752.0,0.1,0.0,0.1,-1.6,2.2,9.5,2.2,-1.3,0.8,16
217,3770.0,0.0,0.0,0.0,-1.6,2.2,9.4,1.9,-0.8,0.4,16
218,3785.0,0.0,0.0,-0.1,-1.6,2.2,9.5,1.3,-1.0,0.6000000000000001,16
219,3802.0,-0.1,0.0,-0.1,-1.7000000000000002,2.2,9.5,1.1,-1.7,1.4,16
220,3818.0,0.0,0.0,-0.1,-1.6,2.2,9.4,0.6000000000000001,-3.1,1.7,16
221,3835.0,-0.1,0.0,-0.1,-1.7000000000000002,2.2,9.4,0.0,-2.8,1.6,16
222,3851.0,-0.2,0.0,0.0,-1.8,2.2,9.5,-1.1,-1.7,2.2,16
223,3869.0,-0.1,0.0,0.0,-1.7000000000000002,2.2,9.5,0.0,-1.9,3.7000000000000006,16
224,3885.0,0.0,0.0,0.0,-1.6,2.2,9.5,0.2,-1.7,4.0,16
225,3901.0,0.0,0.0,0.0,-1.6,2.2,9.5,-0.5,-2.0,3.4,16
226,3918.0,0.0,0.0,0.0,-1.6,2.2,9.5,-1.1,-2.3,2.8,16
227,3936.0,0.0,0.1,0.1,-1.7000000000000002,2.2,9.600000000000001,-0.9000000000000001,-2.1,2.8,16
228,3952.0,-0.1,0.0,0.1,-1.7000000000000002,2.2,9.600000000000001,-0.2,-2.0,3.3000000000000007,16
229,3968.0,0.0,0.0,0.0,-1.6,2.2,9.5,0.8,-1.9,4.5,16
230,3985.0,0.1,0.0,-0.1,-1.5,2.2,9.4,0.6000000000000001,-1.7,4.800000000000001,16
231,4002.0,0.1,-0.1,0.0,-1.5,2.2,9.5,0.2,-1.1,3.5,16
232,4018.0,0.1,0.0,0.0,-1.5,2.2,9.5,0.4,-0.7,2.6,16
233,4035.0,0.0,0.0,0.0,-1.5,2.2,9.600000000000001,0.6000000000000001,-1.4,2.2,16
234,4052.0,-0.1,0.1,0.1,-1.6,2.3000000000000003,9.600000000000001,1.0,-1.2000000000000002,2.2,16
235,4070.0,-0.1,0.0,0.0,-1.7000000000000002,2.3000000000000003,9.5,2.6,-2.1,3.9,16
236,4086.0,0.0,0.1,-0.1,-1.6,2.3000000000000003,9.5,3.5,-2.6,5.0,16
237,4102.0,0.1,0.0,-0.30000000000000004,-1.4000000000000001,2.3000000000000003,9.200000000000001,4.800000000000001,-2.8,5.0,16
238,4118.0,0.1,0.0,-0.5,-1.4000000000000001,2.3000000000000003,9.0,3.1,-0.2,3.6000000000000005,16
239,4135.0,0.0,0.0,-0.5,-1.5,2.3000000000000003,9.0,0.8,1.1,3.2,16
240,4151.0,-0.30000000000000004,0.0,-0.2,-1.8,2.3000000000000003,9.3,-3.8,1.6,4.5,16
241,4168.0,-0.2,-0.1,0.1,-1.8,2.1,9.600000000000001,-6.4,-1.3,8.2,16
242,4185.0,-0.2,-0.2,0.1,-1.7000000000000002,2.0,9.600000000000001,-6.600000000000001,-3.0,9.2,16
243,4202.0,-0.1,-0.2,0.2,-1.6,2.0,9.700000000000001,-6.8,-3.9,9.600000000000001,16
244,4218.0,-0.1,-0.2,0.2,-1.6,2.0,9.700000000000001,-7.0,-1.9,8.899999999999999,16
245,4235.0,-0.2,-0.2,0.2,-1.6,2.0,9.700000000000001,-6.500000000000001,-0.5,8.600000000000001,16
246,4252.0,-0.2,-0.2,0.0,-1.6,2.0,9.5,-3.3000000000000007,0.6000000000000001,9.100000000000001,16
247,4268.0,0.0,-0.1,-0.5,-1.5,2.1,9.0,-0.8,0.7,10.1,16
248,4285.0,0.0,0.0,-0.6000000000000001,-1.4000000000000001,2.2,8.9,-1.3,-0.9000000000000001,10.9,16
249,4302.0,0.2,-0.1,-0.8,-1.3,2.1,8.700000000000001,-3.7000000000000006,-1.6,10.8,16
250,4318.0,0.2,0.0,-0.9,-1.2000000000000002,2.2,8.6,-7.0,-0.4,8.700000000000001,16
251,4335.0,0.1,0.1,-0.9,-1.3,2.3000000000000003,8.6,-9.0,2.4000000000000004,7.0,16
252,4353.0,-0.2,0.2,-0.8,-1.7000000000000002,2.3000000000000003,8.700000000000001,-14.100000000000001,9.4,5.1000000000000005,16
253,4370.0,-0.4,0.4,-0.6000000000000001,-1.9000000000000001,2.4000000000000004,8.9,-20.400000000000002,12.7,7.300000000000001,16
254,4385.0,-0.5,0.30000000000000004,-0.4,-2.0,2.2,9.4,-24.400000000000002,11.8,9.700000000000001,16
255,4402.0,-0.30000000000000004,0.2,0.1,-1.9000000000000001,2.1,9.700000000000001,-31.099999999999998,9.5,13.399999999999999,16
256,4418.0,0.0,0.1,0.4,-1.5,2.0,10.0,-32.0,7.400000000000001,14.100000000000001,16
257,4435.0,0.2,0.2,0.5,-1.4000000000000001,1.9000000000000001,10.100000000000001,-31.2,9.2,12.600000000000001,16
258,4451.0,0.2,0.2,0.5,-1.4000000000000001,1.9000000000000001,10.100000000000001,-28.800000000000004,14.5,9.0,16
259,4469.0,0.30000000000000004,0.1,0.5,-1.3,1.8,10.0,-26.1,13.5,6.1000000000000005,16
260,4485.0,0.4,0.2,0.5,-1.3,1.7000000000000002,10.100000000000001,-24.0,10.700000000000001,3.6000000000000005,16
261,4502.0,0.4,0.1,0.6000000000000001,-1.3,1.6,10.200000000000001,-23.0,9.2,2.7,16
262,4518.0,0.30000000000000004,-0.1,0.7000000000000001,-1.4000000000000001,1.3,10.3,-18.1,7.200000000000001,0.2,16
263,4535.0,0.1,0.0,0.8,-1.6,1.4000000000000001,10.5,-11.900000000000002,3.9,-0.6000000000000001,16
264,4553.0,0.0,0.0,0.8,-1.7000000000000002,1.4000000000000001,10.4,-9.2,1.8000000000000003,0.4,16
265,4568.0,0.30000000000000004,0.0,0.7000000000000001,-1.5,1.3,10.3,-5.300000000000001,-2.2,3.4,16
266,4585.0,0.5,-0.1,0.6000000000000001,-1.3,1.3,10.200000000000001,-1.8000000000000003,-1.4,2.1,16
267,4602.0,0.5,-0.1,0.5,-1.2000000000000002,1.3,10.200000000000001,0.4,-0.2,0.0,16
268,4618.0,0.4,0.0,0.4,-1.3,1.4000000000000001,10.100000000000001,5.0,2.2,-3.8,16
269,4635.0,0.2,0.1,0.2,-1.5,1.5,9.9,6.9,2.8,-5.300000000000001,16
270,4652.0,0.1,0.1,0.30000000000000004,-1.6,1.5,9.9,8.8,2.6,-6.699999999999999,16
271,4669.0,0.0,0.0,0.4,-1.7000000000000002,1.4000000000000001,10.0,11.4,2.5,-6.8,16
272,4685.0,0.1,-0.1,0.30000000000000004,-1.6,1.4000000000000001,9.9,15.399999999999999,4.0,-6.2,16
273,4701.0,0.2,0.0,0.2,-1.6,1.5,9.8,16.4,5.2,-6.9,16
274,4718.0,0.1,-0.1,0.1,-1.7000000000000002,1.5,9.8,17.1,7.699999999999999,-10.1,16
275,4735.0,-0.2,-0.30000000000000004,0.1,-2.0,1.3,9.700000000000001,15.399999999999999,7.200000000000001,-11.000000000000002,16
276,4752.0,-0.30000000000000004,-0.2,0.2,-2.1,1.4000000000000001,9.8,14.900000000000002,5.2,-10.200000000000001,16
277,4768.0,-0.2,-0.1,0.1,-2.0,1.5,9.700000000000001,14.800000000000002,-0.6000000000000001,-8.3,16
278,4785.0,-0.2,-0.1,0.0,-2.1,1.6,9.600000000000001,14.0,-3.8,-7.9,16
279,4801.0,-0.5,-0.5,-0.1,-2.3000000000000003,1.2000000000000002,9.5,13.5,-3.6000000000000005,-7.9,16
280,4818.0,0.2,-0.2,0.30000000000000004,-1.7000000000000002,1.6,9.9,11.700000000000001,0.6000000000000001,14.0,16
281,4835.0,0.4,1.0,-0.1,-1.5,2.4000000000000004,9.5,19.400000000000002,-8.899999999999999,5.9,16
282,4851.0,0.2,-0.1,-0.1,-1.6,1.7000000000000002,9.5,17.5,-5.0,0.0,16
283,4868.0,-0.1,-0.2,0.1,-1.9000000000000001,1.7000000000000002,9.700000000000001,17.1,0.8,3.7000000000000006,16
284,4885.0,0.2,0.0,0.0,-1.6,2.0,9.5,20.1,2.2,2.8,16
285,4904.0,0.1,-0.1,-0.2,-1.8,1.8,9.3,20.8,0.6000000000000001,0.5,16
286,4918.0,0.30000000000000004,-0.1,-0.4,-1.5,1.9000000000000001,9.1,18.0,0.5,-2.0,16
287,4935.0,-0.1,-0.2,-0.6000000000000001,-1.9000000000000001,1.9000000000000001,9.0,12.5,0.9000000000000001,-5.4,16
288,4951.0,-0.2,-0.2,-0.6000000000000001,-2.0,1.9000000000000001,8.9,8.5,1.9,-4.300000000000001,16
289,4968.0,-0.2,-0.2,-0.4,-2.0,1.9000000000000001,9.1,1.9,2.0,2.0,16
290,4985.0,-0.1,-0.2,-0.4,-1.9000000000000001,1.9000000000000001,9.1,-2.7,1.0,6.300000000000001,16
291,5001.0,0.1,-0.30000000000000004,-0.4,-1.8,1.9000000000000001,9.1,-4.800000000000001,-0.30000000000000004,6.500000000000001,16
292,5018.0,0.2,-0.2,-0.30000000000000004,-1.6,1.9000000000000001,9.200000000000001,-8.5,-3.9,3.9,16
293,5035.0,0.2,-0.1,0.0,-1.6,2.0,9.5,-10.700000000000001,-2.5,1.4,16
294,5052.0,0.1,-0.1,0.1,-1.7000000000000002,1.9000000000000001,9.700000000000001,-10.200000000000001,-1.6,0.4,16
295,5068.0,0.0,-0.1,0.30000000000000004,-1.7000000000000002,1.9000000000000001,9.8,-5.300000000000001,-0.6000000000000001,-0.5,16
296,5085.0,0.0,0.0,0.30000000000000004,-1.8,2.0,9.8,-0.6000000000000001,3.0,-1.4,16
297,5102.0,0.0,0.0,0.30000000000000004,-1.8,2.0,9.8,1.3,4.4,-1.1,16
298,5118.0,0.1,0.0,0.30000000000000004,-1.8,2.0,9.9,3.3000000000000007,3.8,0.30000000000000004,16
299,5135.0,0.1,0.0,0.30000000000000004,-1.7000000000000002,2.0,9.9,3.4,-0.30000000000000004,0.0,16
300,5152.0,0.1,0.0,0.30000000000000004,-1.6,2.1,9.8,3.5,-3.4,-0.5,16
301,5168.0,0.2,0.1,0.2,-1.6,2.1,9.700000000000001,4.1,-4.800000000000001,-2.0,16
302,5185.0,0.2,0.1,0.1,-1.6,2.2,9.600000000000001,3.9,-2.0,-2.7,16
303,5202.0,0.0,0.1,0.2,-1.8,2.2,9.700000000000001,3.6000000000000005,2.6,-2.3,16
304,5218.0,-0.1,0.0,0.2,-1.9000000000000001,2.2,9.700000000000001,4.4,4.6,-1.2000000000000002,16
305,5235.0,-0.2,0.0,0.0,-2.0,2.1,9.600000000000001,7.300000000000001,5.6,2.7,16
306,5253.0,0.1,0.1,-0.2,-1.7000000000000002,2.3000000000000003,9.3,5.6,3.6000000000000005,5.6,16
307,5270.0,0.2,0.1,-0.2,-1.7000000000000002,2.3000000000000003,9.3,3.4,1.5,5.4,16
308,5285.0,0.1,0.0,-0.1,-1.7000000000000002,2.1,9.4,-0.6000000000000001,-2.5,3.6000000000000005,16
309,5302.0,0.0,-0.1,0.0,-1.8,2.1,9.5,-2.0,-4.800000000000001,2.3,16
310,5318.0,0.0,-0.1,0.1,-1.8,2.1,9.600000000000001,-1.1,-4.2,1.8000000000000003,16
311,5335.0,0.0,0.0,0.1,-1.8,2.1,9.600000000000001,1.7,-0.8,1.5,16
312,5351.0,0.0,-0.1,0.1,-1.8,2.1,9.600000000000001,4.4,2.1,1.5,16
313,5368.0,0.0,-0.1,0.0,-1.8,2.1,9.5,4.9,1.4,1.7,16
314,5385.0,0.0,-0.1,0.0,-1.8,2.1,9.5,4.1,-2.5,1.5,16
315,5401.0,0.1,-0.1,0.0,-1.7000000000000002,2.1,9.5,3.8,-3.7000000000000006,0.6000000000000001,16
316,5418.0,0.1,-0.1,0.0,-1.6,2.1,9.5,4.1,-2.8,0.1,16
317,5435.0,0.1,-0.1,0.0,-1.6,2.1,9.5,4.1,-1.0,-2.1,16
318,5451.0,0.0,-0.1,0.0,-1.7000000000000002,2.1,9.5,4.1,-0.5,-3.6000000000000005,16
319,5470.0,0.0,-0.1,0.0,-1.8,2.1,9.600000000000001,4.4,-0.8,-4.1,16
320,5485.0,0.0,-0.1,0.0,-1.7000000000000002,2.2,9.5,5.8,-1.6,-4.6,16
321,5502.0,0.0,0.0,-0.1,-1.7000000000000002,2.2,9.4,5.9,-0.5,-4.300000000000001,16
322,5518.0,0.0,0.0,-0.1,-1.7000000000000002,2.3000000000000003,9.4,5.500000000000001,-0.2,-3.9,16
323,5535.0,0.0,0.0,-0.1,-1.8,2.2,9.4,4.5,-1.1,-2.7,16
324,5552.0,0.0,0.0,-0.1,-1.7000000000000002,2.3000000000000003,9.4,2.6,-1.9,-2.1,16
325,5571.0,0.0,0.0,0.0,-1.7000000000000002,2.2,9.4,1.8000000000000003,-2.0,-2.1,16
326,5586.0,-0.1,0.0,0.0,-1.8,2.2,9.5,1.3,-1.9,-2.2,16
327,5601.0,0.0,0.0,-0.1,-1.8,2.2,9.4,0.4,-3.3000000000000007,-0.5,16
328,5618.0,0.0,0.0,-0.1,-1.7000000000000002,2.2,9.4,-0.4,-3.5,0.30000000000000004,16
329,5635.0,0.1,0.0,0.1,-1.6,2.2,9.600000000000001,-2.1,-2.8,0.6000000000000001,16
330,5651.0,0.1,-0.1,0.30000000000000004,-1.6,2.2,9.700000000000001,-0.8,-0.9000000000000001,-0.8,16
331,5668.0,0.0,-0.1,0.2,-1.7000000000000002,2.1,9.700000000000001,1.0,-0.8,-1.6,16
332,5685.0,0.0,0.0,0.1,-1.7000000000000002,2.2,9.700000000000001,3.4,-0.7,-2.5,16
333,5702.0,0.0,0.0,0.1,-1.7000000000000002,2.2,9.600000000000001,4.300000000000001,-0.5,-3.3000000000000007,16
334,5718.0,0.0,0.0,0.0,-1.7000000000000002,2.3000000000000003,9.5,5.0,-0.2,-3.3000000000000007,16
335,5735.0,0.0,0.0,-0.1,-1.7000000000000002,2.3000000000000003,9.4,5.7,0.4,-2.9,16
336,5751.0,-0.1,0.0,-0.1,-1.8,2.3000000000000003,9.4,4.5,1.1,-2.7,16
337,5770.0,-0.2,0.1,-0.1,-1.9000000000000001,2.4000000000000004,9.4,3.0,1.1,-2.2,16
338,5785.0,-0.2,0.1,-0.1,-1.9000000000000001,2.4000000000000004,9.4,2.3,0.6000000000000001,-1.1,16
339,5801.0,-0.1,0.1,-0.1,-1.8,2.4000000000000004,9.4,1.9,-1.3,0.9000000000000001,16
340,5818.0,0.0,0.1,0.0,-1.7000000000000002,2.4000000000000004,9.5,1.8000000000000003,-1.7,1.0,16
341,5835.0,0.0,0.1,0.1,-1.8,2.4000000000000004,9.600000000000001,2.8,-0.2,0.8,16
342,5851.0,0.0,0.0,0.0,-1.8,2.4000000000000004,9.5,5.300000000000001,1.4,1.5,16
343,5871.0,0.0,0.0,-0.1,-1.7000000000000002,2.4000000000000004,9.3,4.4,2.3,1.6,16
344,5885.0,0.1,0.0,-0.1,-1.7000000000000002,2.4000000000000004,9.3,3.1,2.0,1.4,16
345,5901.0,0.1,0.0,0.0,-1.7000000000000002,2.4000000000000004,9.5,1.5,0.5,0.9000000000000001,16
346,5918.0,0.0,0.0,0.0,-1.7000000000000002,2.4000000000000004,9.5,1.6,0.0,0.9000000000000001,16
347,5935.0,0.1,0.0,0.0,-1.6,2.4000000000000004,9.4,2.2,-1.0,0.6000000000000001,16
348,5951.0,0.1,0.0,0.0,-1.6,2.4000000000000004,9.5,2.0,0.5,-0.7,16
349,5968.0,0.1,0.0,0.1,-1.6,2.4000000000000004,9.5,2.0,1.2000000000000002,-1.3,16
350,5985.0,0.0,0.0,0.1,-1.7000000000000002,2.5,9.5,3.4,3.0,-1.9,16
351,6002.0,0.0,0.0,0.0,-1.7000000000000002,2.4000000000000004,9.5,4.9,3.2,-1.3,16
352,6018.0,0.0,0.0,-0.1,-1.7000000000000002,2.4000000000000004,9.4,4.9,3.4,-1.2000000000000002,16
353,6035.0,0.0,0.0,-0.1,-1.8,2.5,9.3,4.4,2.7,-0.8,16
354,6052.0,0.1,0.0,-0.2,-1.7000000000000002,2.5,9.200000000000001,2.0,1.4,-0.2,16
355,6069.0,0.1,0.0,-0.1,-1.6,2.5,9.3,-0.6000000000000001,0.0,-0.8,16
356,6085.0,0.1,0.0,-0.1,-1.7000000000000002,2.4000000000000004,9.4,-0.8,-0.6000000000000001,-1.2000000000000002,16
357,6102.0,0.0,0.0,0.0,-1.7000000000000002,2.5,9.4,0.2,-0.4,-1.3,16
358,6118.0,0.0,0.0,0.0,-1.8,2.5,9.5,2.0,1.6,-1.3,16
359,6135.0,0.0,0.0,0.0,-1.8,2.5,9.4,2.5,1.9,-0.5,16
360,6155.0,0.1,0.0,-0.1,-1.7000000000000002,2.5,9.3,2.4000000000000004,0.8,-0.2,16
361,6173.0,0.1,0.0,-0.1,-1.7000000000000002,2.4000000000000004,9.3,1.8000000000000003,0.9000000000000001,-1.4,16
362,6186.0,0.0,0.0,-0.1,-1.7000000000000002,2.5,9.3,1.4,1.1,-1.9,16
363,6201.0,0.0,0.0,0.0,-1.8,2.5,9.4,0.30000000000000004,1.8000000000000003,-1.5,16
364,6218.0,0.0,0.0,0.0,-1.7000000000000002,2.5,9.4,-1.2000000000000002,1.1,-1.0,16
365,6235.0,0.0,0.0,0.0,-1.8,2.5,9.4,-1.9,-0.30000000000000004,-1.2000000000000002,16
366,6251.0,0.0,0.1,0.2,-1.8,2.5,9.600000000000001,-2.5,-1.1,-1.9,16
367,6268.0,-0.1,0.1,0.4,-1.9000000000000001,2.5,9.8,0.8,1.1,-1.8000000000000003,16
368,6285.0,-0.1,0.1,0.30000000000000004,-1.9000000000000001,2.5,9.700000000000001,3.6000000000000005,2.5,-1.3,16
369,6301.0,-0.1,0.1,0.1,-1.8,2.6,9.5,8.100000000000001,4.0,-0.2,16
370,6318.0,-0.1,0.0,-0.1,-1.9000000000000001,2.6,9.3,8.2,4.7,-0.4,16
371,6335.0,-0.1,0.0,-0.1,-1.9000000000000001,2.6,9.3,7.400000000000001,5.0,-0.1,16
372,6351.0,0.0,0.0,0.0,-1.9000000000000001,2.6,9.3,6.0,4.7,0.8,16
373,6368.0,0.0,0.0,0.0,-1.9000000000000001,2.6,9.4,5.4,4.1,2.1,16
374,6385.0,0.0,0.0,0.0,-1.8,2.6,9.4,5.2,3.8,2.3,16
375,6402.0,0.0,0.0,0.1,-1.8,2.6,9.4,5.300000000000001,3.2,1.2000000000000002,16
376,6418.0,0.0,0.0,0.1,-1.9000000000000001,2.6,9.5,6.1000000000000005,4.9,0.1,16
377,6435.0,-0.1,0.0,0.2,-1.9000000000000001,2.7,9.5,7.500000000000001,6.600000000000001,0.30000000000000004,16
378,6454.0,-0.1,0.0,0.1,-2.0,2.7,9.4,11.000000000000002,10.200000000000001,1.7,16
379,6469.0,-0.1,0.0,-0.1,-2.0,2.7,9.200000000000001,13.000000000000002,11.2,2.9,16
380,6485.0,0.0,0.0,-0.2,-2.0,2.7,9.1,12.5,10.200000000000001,3.0,16
381,6501.0,0.0,0.0,-0.2,-2.0,2.8000000000000003,9.1,9.3,9.2,2.5,16
382,6518.0,0.0,0.1,-0.1,-2.1,2.9000000000000004,9.1,7.0,9.100000000000001,2.2,16
383,6535.0,-0.1,0.0,-0.1,-2.1,2.9000000000000004,9.1,6.300000000000001,8.5,2.5,16
384,6551.0,-0.1,0.0,-0.1,-2.1,2.8000000000000003,9.1,4.7,7.400000000000001,2.8,16
385,6568.0,0.0,0.0,0.0,-2.1,2.8000000000000003,9.200000000000001,4.4,8.600000000000001,3.3000000000000007,16
386,6585.0,0.0,0.0,0.0,-2.1,2.9000000000000004,9.3,4.800000000000001,8.899999999999999,3.6000000000000005,16
387,6601.0,0.0,0.0,0.1,-2.1,2.8000000000000003,9.4,5.7,9.4,4.5,16
388,6621.0,0.1,-0.1,0.1,-2.1,2.8000000000000003,9.3,7.6,8.0,4.1,16
389,6635.0,0.1,-0.1,0.0,-2.0,2.8000000000000003,9.200000000000001,7.6,7.1000000000000005,3.2,16
390,6651.0,0.2,0.0,-0.1,-2.0,2.9000000000000004,9.1,5.500000000000001,6.4,1.1,16
391,6668.0,0.1,0.0,-0.1,-2.1,3.0,9.1,3.2,4.5,-0.30000000000000004,16
392,6691.0,0.0,0.0,-0.1,-2.1,3.0,9.1,0.9000000000000001,0.6000000000000001,0.30000000000000004,16
393,6701.0,0.1,0.0,-0.1,-2.1,3.0,9.1,-0.30000000000000004,0.0,0.30000000000000004,16
394,6718.0,0.1,0.0,0.0,-2.1,3.0,9.1,-1.6,0.5,-0.5,16
395,6735.0,0.0,0.1,0.1,-2.1,3.0,9.3,-1.9,0.7,-0.30000000000000004,16
396,6752.0,0.0,0.0,0.0,-2.2,3.0,9.200000000000001,-2.0,0.6000000000000001,-0.6000000000000001,16
397,6768.0,0.0,0.0,0.1,-2.2,3.0,9.3,-2.0,-0.30000000000000004,-1.0,16
398,6786.0,-0.1,0.1,0.2,-2.2,3.0,9.4,-0.6000000000000001,0.0,-1.2000000000000002,16
399,6802.0,-0.1,0.1,0.2,-2.3000000000000003,3.0,9.4,0.0,0.0,-1.1,16
400,6818.0,0.0,0.1,0.1,-2.2,3.0,9.3,0.5,-0.5,-1.1,16
401,6835.0,-0.1,0.1,0.1,-2.3000000000000003,3.0,9.3,0.9000000000000001,-0.30000000000000004,-1.6,16
402,6852.0,-0.1,0.1,0.0,-2.3000000000000003,3.0,9.3,1.1,-0.6000000000000001,-1.6,16
403,6868.0,-0.1,0.1,-0.1,-2.3000000000000003,3.0,9.200000000000001,0.6000000000000001,-1.6,-1.4,16
404,6885.0,-0.1,0.1,-0.1,-2.3000000000000003,3.0,9.200000000000001,-0.5,-2.3,-0.9000000000000001,16
405,6901.0,-0.1,0.0,-0.1,-2.2,3.0,9.1,-0.9000000000000001,-3.0,-0.8,16
406,6918.0,-0.1,0.0,-0.2,-2.2,3.0,9.0,-1.9,-3.0,-1.1,16
407,6935.0,-0.1,0.0,-0.30000000000000004,-2.3000000000000003,2.9000000000000004,8.9,-4.2,-4.0,-0.8,16
408,6951.0,-0.1,0.0,-0.1,-2.3000000000000003,2.9000000000000004,9.1,-5.8,-3.9,-0.30000000000000004,16
409,6968.0,0.0,-0.1,0.0,-2.2,2.9000000000000004,9.3,-6.0,-3.8,-0.2,16
410,6985.0,0.1,-0.1,0.0,-2.1,2.8000000000000003,9.200000000000001,-4.0,-3.9,-0.30000000000000004,16
411,7001.0,0.1,-0.1,0.0,-2.1,2.8000000000000003,9.200000000000001,-3.3000000000000007,-3.5,-0.8,16
412,7018.0,0.0,-0.1,0.0,-2.1,2.8000000000000003,9.200000000000001,-2.6,-2.0,-1.4,16
413,7035.0,0.0,0.0,-0.1,-2.2,2.8000000000000003,9.200000000000001,-2.2,-0.8,-0.4,16
414,7052.0,0.0,-0.1,-0.1,-2.1,2.8000000000000003,9.1,-2.4000000000000004,-0.6000000000000001,0.4,16
415,7068.0,0.2,-0.1,-0.1,-2.0,2.8000000000000003,9.1,-3.7000000000000006,-1.1,1.0,16
416,7085.0,0.2,-0.1,0.0,-2.0,2.7,9.200000000000001,-6.4,-2.0,0.0,16
417,7102.0,0.1,-0.1,0.1,-2.0,2.7,9.3,-7.699999999999999,-2.8,-0.5,16
418,7118.0,0.1,0.0,0.4,-2.0,2.8000000000000003,9.700000000000001,-8.0,-3.2,-1.6,16
419,7135.0,0.1,0.0,0.5,-2.0,2.8000000000000003,9.700000000000001,-3.8,-3.1,-2.5,16
420,7151.0,0.0,0.0,0.4,-2.1,2.8000000000000003,9.700000000000001,-0.8,-3.4,-2.8,16
421,7168.0,0.0,0.0,0.1,-2.0,2.8000000000000003,9.4,3.9,-2.5,-3.5,16
422,7185.0,0.0,0.0,-0.1,-2.0,2.8000000000000003,9.1,5.6,-0.4,-3.6000000000000005,16
423,7201.0,0.0,0.0,-0.2,-2.0,2.8000000000000003,9.0,5.300000000000001,0.2,-3.3000000000000007,16
424,7218.0,0.0,0.0,-0.4,-2.0,2.8000000000000003,8.9,2.2,-0.6000000000000001,-2.6,16
425,7235.0,0.0,0.0,-0.2,-2.0,2.8000000000000003,9.0,-1.8000000000000003,-2.2,-2.9,16
426,7251.0,0.0,0.0,-0.1,-2.1,2.8000000000000003,9.1,-3.3000000000000007,-2.6,-3.2,16
427,7268.0,-0.1,0.0,0.0,-2.2,2.8000000000000003,9.3,-4.1,-3.0,-3.2,16
428,7285.0,-0.2,0.1,0.2,-2.2,2.8000000000000003,9.4,-3.1,-1.5,-2.1,16
429,7301.0,-0.2,0.1,0.2,-2.2,2.9000000000000004,9.5,-2.6,-0.8,-1.3,16
430,7318.0,-0.2,0.1,0.2,-2.2,2.9000000000000004,9.5,-2.2,-0.1,-0.6000000000000001,16
431,7335.0,-0.30000000000000004,0.2,0.30000000000000004,-2.3000000000000003,3.0,9.600000000000001,-1.6,-1.5,0.1,16
432,7352.0,-0.30000000000000004,0.2,0.30000000000000004,-2.3000000000000003,2.9000000000000004,9.600000000000001,-0.9000000000000001,-2.5,0.6000000000000001,16
433,7370.0,-0.1,0.2,0.2,-2.2,3.0,9.5,1.3,-1.9,2.2,16
434,7385.0,0.0,0.2,0.1,-2.1,2.9000000000000004,9.4,3.0,-0.1,3.0,16
435,7401.0,0.0,0.1,0.1,-2.1,2.9000000000000004,9.3,3.1,0.5,3.1,16
436,7418.0,0.0,0.1,0.0,-2.1,2.9000000000000004,9.3,1.8000000000000003,0.1,3.4,16
437,7436.0,0.1,0.0,0.0,-1.9000000000000001,2.8000000000000003,9.3,1.1,-1.6,3.1,16
438,7452.0,0.1,0.0,0.0,-1.9000000000000001,2.8000000000000003,9.3,0.4,-2.2,2.1,16
439,7468.0,0.1,-0.1,0.0,-1.9000000000000001,2.7,9.3,0.6000000000000001,-2.2,1.4,16
440,7485.0,0.1,-0.1,0.0,-1.9000000000000001,2.7,9.3,2.2,-1.6,0.8,16
441,7501.0,0.0,-0.1,-0.1,-2.0,2.7,9.200000000000001,3.7000000000000006,0.8,1.2000000000000002,16
442,7518.0,0.0,-0.1,-0.1,-2.0,2.7,9.1,4.0,0.9000000000000001,1.7,16
443,7535.0,0.1,-0.2,-0.2,-1.9000000000000001,2.7,9.0,2.4000000000000004,-1.5,2.4000000000000004,16
444,7551.0,0.1,-0.1,-0.2,-1.8,2.7,9.1,0.0,-2.5,1.5,16
445,7568.0,0.1,-0.2,-0.1,-1.8,2.6,9.200000000000001,-0.4,-2.2,1.2000000000000002,16
446,7585.0,0.0,-0.1,0.0,-1.9000000000000001,2.7,9.3,-0.2,0.4,0.6000000000000001,16
447,7601.0,-0.1,-0.1,0.0,-2.0,2.7,9.3,-0.30000000000000004,-1.3,0.6000000000000001,16
448,7618.0,-0.1,-0.1,0.0,-2.1,2.7,9.3,-0.5,-2.4000000000000004,0.7,16
449,7635.0,0.0,0.0,0.0,-2.0,2.7,9.200000000000001,-0.9000000000000001,-3.2,0.30000000000000004,16
450,7651.0,0.0,0.0,0.0,-2.0,2.8000000000000003,9.3,-1.6,-1.7,-0.30000000000000004,16
451,7668.0,-0.1,0.0,0.0,-2.1,2.8000000000000003,9.3,-1.7,-0.7,-0.9000000000000001,16
452,7685.0,-0.1,0.1,0.0,-2.0,2.9000000000000004,9.3,-0.9000000000000001,0.0,-0.9000000000000001,16
453,7701.0,-0.1,0.1,-0.1,-2.1,2.9000000000000004,9.200000000000001,-1.4,0.2,-1.2000000000000002,16
454,7718.0,-0.2,0.1,-0.1,-2.1,2.8000000000000003,9.200000000000001,-1.9,-0.2,-1.3,16
455,7735.0,-0.2,0.1,0.0,-2.2,2.9000000000000004,9.3,-2.9,-1.1,-0.7,16
456,7751.0,-0.2,0.1,0.1,-2.2,2.9000000000000004,9.4,-2.6,-0.6000000000000001,1.6,16
457,7769.0,-0.1,0.1,0.1,-2.0,2.8000000000000003,9.3,-1.5,-0.4,2.8,16
458,7785.0,0.1,0.0,0.0,-1.9000000000000001,2.8000000000000003,9.200000000000001,0.1,1.5,3.6000000000000005,16
459,7801.0,0.1,0.0,-0.1,-1.9000000000000001,2.8000000000000003,9.200000000000001,-0.6000000000000001,1.9,2.3,16
460,7818.0,0.0,0.0,0.0,-2.0,2.8000000000000003,9.3,-1.4,1.3,2.1,16
461,7835.0,0.2,0.0,0.0,-1.8,2.8000000000000003,9.3,-2.5,-0.8,2.8,16
462,7851.0,0.2,0.0,0.1,-1.7000000000000002,2.7,9.3,-2.4000000000000004,-0.30000000000000004,2.2,16
463,7868.0,0.2,-0.1,0.1,-1.7000000000000002,2.7,9.4,-2.0,-0.2,1.5,16
464,7885.0,0.2,0.0,0.1,-1.8,2.7,9.4,-1.1,0.6000000000000001,0.2,16
465,7901.0,0.1,0.0,0.1,-1.8,2.7,9.3,-0.6000000000000001,0.9000000000000001,-0.1,16
466,7918.0,0.1,-0.1,0.0,-1.8,2.7,9.3,-1.0,0.5,-0.1,16
467,7936.0,0.1,0.0,0.1,-1.9000000000000001,2.7,9.4,-3.1,-1.2000000000000002,-0.4,16
468,7952.0,0.1,0.0,0.2,-1.9000000000000001,2.7,9.5,-3.3000000000000007,-1.0,-1.2000000000000002,16
469,7970.0,0.1,0.0,0.1,-1.9000000000000001,2.7,9.4,-0.4,-1.4,-1.3,16
470,7985.0,0.1,-0.1,0.1,-1.8,2.7,9.4,0.8,-1.8000000000000003,-1.5,16
471,8001.0,0.0,0.0,0.0,-1.9000000000000001,2.7,9.3,1.5,0.30000000000000004,-2.7,16
472,8018.0,0.0,-0.1,-0.1,-1.9000000000000001,2.7,9.200000000000001,1.5,0.2,-2.7,16
473,8035.0,0.0,0.0,-0.2,-1.9000000000000001,2.7,9.1,0.30000000000000004,0.1,-2.2,16
474,8051.0,-0.1,-0.1,-0.1,-2.0,2.6,9.200000000000001,-3.4,-0.4,-2.4000000000000004,16
475,8068.0,-0.1,-0.1,0.0,-2.1,2.6,9.3,-4.5,-1.2000000000000002,-2.3,16
476,8085.0,-0.1,-0.1,0.1,-2.0,2.6,9.4,-3.3000000000000007,-2.7,-1.7,16
477,8101.0,-0.1,0.0,0.0,-2.1,2.6,9.3,-1.3,-0.6000000000000001,-1.2000000000000002,16
478,8118.0,-0.2,0.0,0.0,-2.1,2.6,9.3,-1.4,0.5,-0.2,16
479,8135.0,-0.1,0.0,-0.1,-2.1,2.6,9.200000000000001,-1.8000000000000003,0.8,0.6000000000000001,16
480,8151.0,0.1,0.0,-0.1,-1.9000000000000001,2.7,9.200000000000001,-3.1,-1.1,1.8000000000000003,16
481,8168.0,0.1,0.0,-0.1,-1.9000000000000001,2.6,9.200000000000001,-4.1,-1.9,1.7,16
482,8185.0,0.1,0.0,-0.1,-1.8,2.6,9.3,-4.9,-2.8,0.9000000000000001,16
483,8201.0,0.2,0.0,-0.1,-1.8,2.6,9.3,-4.800000000000001,-1.9,1.1,16
484,8218.0,0.2,0.0,0.1,-1.8,2.6,9.4,-5.2,0.9000000000000001,0.0,16
485,8235.0,0.1,0.0,0.2,-1.8,2.6,9.5,-5.1000000000000005,1.2000000000000002,-0.5,16
486,8251.0,0.1,0.0,0.1,-1.8,2.6,9.5,-4.300000000000001,-0.5,-1.3,16
487,8271.0,0.1,0.1,0.2,-1.8,2.6,9.5,-4.6,-1.2000000000000002,-2.4000000000000004,16
488,8285.0,0.0,0.0,0.30000000000000004,-1.9000000000000001,2.6,9.600000000000001,-4.800000000000001,-1.2000000000000002,-2.8,16
489,8301.0,-0.1,0.0,0.4,-1.9000000000000001,2.5,9.8,-3.0,-1.1,-3.2,16
490,8318.0,0.0,0.0,0.30000000000000004,-1.9000000000000001,2.6,9.600000000000001,0.2,-1.1,-3.1,16
491,8335.0,0.0,0.1,0.2,-1.9000000000000001,2.6,9.600000000000001,1.1,-0.2,-2.9,16
492,8351.0,0.0,0.0,0.1,-1.9000000000000001,2.6,9.4,1.9,1.3,-2.9,16
493,8368.0,-0.1,0.0,0.1,-2.0,2.6,9.5,1.5,0.4,-2.9,16
494,8385.0,-0.1,0.0,0.1,-2.1,2.6,9.5,1.6,-1.8000000000000003,-2.4000000000000004,16
495,8401.0,-0.1,0.1,0.0,-2.0,2.7,9.4,2.4000000000000004,-2.0,-1.1,16
496,8419.0,-0.1,0.1,-0.1,-2.0,2.7,9.3,3.2,-1.0,0.0,16
497,8435.0,-0.1,0.0,-0.1,-2.0,2.6,9.3,2.8,-0.1,0.30000000000000004,16
498,8451.0,-0.1,0.0,-0.1,-2.0,2.6,9.3,1.4,-0.30000000000000004,0.30000000000000004,16
499,8468.0,0.0,0.0,0.0,-2.0,2.6,9.3,0.2,-0.1,0.8,16
500,8485.0,0.0,0.0,0.0,-2.0,2.6,9.4,-0.30000000000000004,-0.6000000000000001,0.8,16
501,8501.0,-0.1,0.0,0.1,-2.0,2.6,9.5,-1.1,-1.1,0.7,16
502,8518.0,-0.1,0.0,0.2,-2.0,2.6,9.600000000000001,-0.30000000000000004,0.2,0.5,16
503,8535.0,-0.1,0.0,0.2,-2.0,2.6,9.600000000000001,0.30000000000000004,-0.1,0.6000000000000001,16
504,8551.0,-0.1,0.0,0.2,-2.0,2.6,9.600000000000001,2.4000000000000004,-0.30000000000000004,0.1,16
505,8575.0,0.0,0.0,0.0,-2.0,2.6,9.4,4.5,-0.6000000000000001,-0.1,16
506,8585.0,0.0,0.0,-0.1,-1.9000000000000001,2.7,9.3,4.9,0.30000000000000004,-0.30000000000000004,16
507,8601.0,-0.1,0.0,-0.1,-2.0,2.7,9.200000000000001,4.1,1.5,-0.5,16
508,8618.0,-0.2,0.1,-0.2,-2.2,2.7,9.200000000000001,2.5,-0.9000000000000001,0.7,16
509,8635.0,-0.2,0.0,-0.2,-2.2,2.7,9.200000000000001,1.7,-1.7,1.8000000000000003,16
510,8651.0,-0.2,0.0,-0.1,-2.1,2.7,9.3,1.3,-1.7,4.7,16
511,8669.0,0.0,0.0,-0.1,-1.9000000000000001,2.6,9.3,1.8000000000000003,-1.4,6.300000000000001,16
512,8685.0,0.1,-0.1,-0.1,-1.8,2.6,9.3,1.4,-0.30000000000000004,5.8,16
513,8701.0,0.1,-0.1,0.0,-1.8,2.6,9.4,0.5,0.5,3.8,16
514,8718.0,0.0,-0.1,0.2,-1.9000000000000001,2.6,9.5,1.0,-0.6000000000000001,3.4,16
515,8735.0,0.0,-0.1,0.1,-1.9000000000000001,2.6,9.4,2.7,-2.2,3.9,16
516,8751.0,0.1,-0.1,-0.1,-1.8,2.6,9.200000000000001,2.7,-2.0,3.7000000000000006,16
517,8768.0,0.1,0.0,0.0,-1.8,2.6,9.3,0.9000000000000001,0.6000000000000001,2.4000000000000004,16
518,8785.0,0.0,-0.1,0.0,-1.9000000000000001,2.6,9.4,0.9000000000000001,1.1,1.7,16
519,8801.0,0.0,-0.1,0.1,-1.9000000000000001,2.6,9.4,2.6,-0.2,2.0,16
520,8818.0,0.0,0.0,0.0,-1.8,2.7,9.3,3.8,-0.5,1.6,16
521,8835.0,0.0,0.0,-0.1,-1.8,2.7,9.200000000000001,3.4,0.2,1.4,16
522,8851.0,0.0,0.0,-0.2,-1.9000000000000001,2.7,9.200000000000001,3.0,1.4,1.5,16
523,8868.0,0.0,0.0,-0.2,-1.9000000000000001,2.8000000000000003,9.200000000000001,1.5,1.1,2.0,16
524,8885.0,0.0,0.0,-0.2,-1.9000000000000001,2.7,9.200000000000001,0.6000000000000001,0.5,2.3,16
525,8901.0,0.0,0.0,-0.1,-1.9000000000000001,2.8000000000000003,9.200000000000001,-1.3,-1.6,3.3000000000000007,16
526,8918.0,0.1,0.0,0.1,-1.8,2.8000000000000003,9.4,-2.6,-0.4,3.4,16
527,8935.0,0.1,0.0,0.2,-1.7000000000000002,2.7,9.5,-0.8,0.4,3.1,16
528,8953.0,0.2,0.0,0.1,-1.7000000000000002,2.7,9.4,0.30000000000000004,0.1,2.5,16
529,8968.0,0.1,0.0,0.1,-1.7000000000000002,2.8000000000000003,9.4,0.0,0.2,0.8,16
530,8985.0,0.0,0.0,0.1,-1.8,2.7,9.5,-0.2,-0.30000000000000004,0.7,16
531,9001.0,0.0,0.0,0.1,-1.8,2.8000000000000003,9.5,0.4,-0.6000000000000001,0.6000000000000001,16
532,9018.0,0.1,0.0,0.0,-1.8,2.8000000000000003,9.4,1.6,-0.4,0.0,16
533,9035.0,0.0,0.1,0.0,-1.8,2.8000000000000003,9.3,2.8,1.3,-0.5,16
534,9051.0,0.0,0.1,-0.1,-1.8,2.8000000000000003,9.200000000000001,2.9,1.3,-0.30000000000000004,16
535,9068.0,0.0,0.1,-0.2,-1.8,2.8000000000000003,9.1,0.8,0.6000000000000001,-0.1,16
536,9085.0,0.0,0.0,0.0,-1.9000000000000001,2.8000000000000003,9.3,-1.3,0.30000000000000004,-0.30000000000000004,16
537,9101.0,0.0,0.0,0.1,-1.9000000000000001,2.8000000000000003,9.4,-1.1,0.0,0.30000000000000004,16
538,9118.0,0.0,0.0,0.0,-1.8,2.7,9.3,0.8,-1.0,1.1,16
539,9135.0,0.1,0.0,-0.1,-1.7000000000000002,2.8000000000000003,9.200000000000001,0.0,-0.2,0.0,16
540,9151.0,0.1,0.0,0.0,-1.8,2.8000000000000003,9.3,-0.5,0.6000000000000001,-0.8,16
541,9172.0,0.0,-0.1,0.0,-1.9000000000000001,2.7,9.3,0.30000000000000004,1.4,-1.0,16
542,9185.0,0.0,0.0,0.0,-1.9000000000000001,2.7,9.3,0.5,0.0,0.0,16
543,9201.0,0.0,-0.1,-0.1,-1.9000000000000001,2.7,9.3,0.0,-0.30000000000000004,0.1,16
544,9218.0,0.1,-0.1,0.0,-1.7000000000000002,2.7,9.3,-1.1,-0.5,-0.2,16
545,9235.0,0.1,-0.1,0.0,-1.7000000000000002,2.7,9.3,-1.0,-0.30000000000000004,-1.8000000000000003,16
546,9251.0,0.1,0.0,0.0,-1.7000000000000002,2.7,9.3,-0.6000000000000001,0.0,-2.5,16
547,9268.0,0.0,0.0,0.0,-1.8,2.7,9.3,0.0,0.7,-3.1,16
548,9285.0,-0.1,0.0,0.0,-1.9000000000000001,2.8000000000000003,9.3,-0.6000000000000001,0.9000000000000001,-3.1,16
549,9301.0,-0.1,0.0,0.0,-2.0,2.7,9.4,-0.7,0.7,-3.0,16
550,9318.0,-0.1,0.0,0.0,-2.0,2.8000000000000003,9.3,-0.2,-0.30000000000000004,-2.2,16
551,9335.0,0.0,0.0,-0.1,-1.9000000000000001,2.8000000000000003,9.200000000000001,-0.1,0.8,-1.6,16
552,9351.0,0.0,0.0,-0.2,-1.9000000000000001,2.8000000000000003,9.200000000000001,-0.8,1.0,-1.5,16
553,9368.0,-0.1,0.0,-0.1,-1.9000000000000001,2.8000000000000003,9.200000000000001,-2.7,-0.2,-1.5,16
554,9385.0,-0.1,0.1,0.0,-1.9000000000000001,2.8000000000000003,9.4,-3.1,-0.30000000000000004,-1.4,16
555,9402.0,-0.1,0.1,0.1,-2.0,2.8000000000000003,9.4,-2.7,0.6000000000000001,-0.9000000000000001,16
556,9418.0,-0.1,0.0,0.0,-2.0,2.7,9.3,-2.0,-0.30000000000000004,0.5,16
557,9435.0,0.1,0.0,0.0,-1.8,2.8000000000000003,9.3,-3.0,-0.30000000000000004,0.4,16
558,9451.0,0.1,0.0,0.1,-1.8,2.7,9.4,-3.3000000000000007,-0.2,0.1,16
559,9468.0,0.0,0.0,0.2,-1.8,2.7,9.5,-2.8,0.6000000000000001,-0.30000000000000004,16
560,9485.0,0.0,0.0,0.2,-1.9000000000000001,2.7,9.5,-1.4,0.1,-0.6000000000000001,16
561,9502.0,0.0,0.0,0.2,-1.9000000000000001,2.7,9.5,0.2,-0.2,-0.7,16
562,9518.0,0.0,0.0,0.1,-1.8,2.7,9.4,0.9000000000000001,-0.9000000000000001,-0.6000000000000001,16
563,9535.0,0.2,0.0,-0.1,-1.7000000000000002,2.7,9.3,1.3,-0.5,-1.1,16
564,9551.0,0.1,0.0,-0.1,-1.7000000000000002,2.7,9.3,0.6000000000000001,0.7,-1.8000000000000003,16
565,9568.0,0.0,-0.1,0.0,-1.9000000000000001,2.6,9.4,-0.6000000000000001,1.3,-2.5,16
566,9585.0,0.0,-0.1,0.0,-1.9000000000000001,2.6,9.3,-0.4,-0.7,-2.2,16
567,9602.0,0.0,-0.1,0.0,-1.8,2.6,9.3,-0.5,-1.1,-2.4000000000000004,16
568,9618.0,0.0,-0.1,-0.1,-1.9000000000000001,2.6,9.3,-1.0,-0.1,-3.2,16
569,9635.0,-0.1,0.0,0.0,-2.0,2.6,9.3,-1.1,1.0,-3.2,16
570,9653.0,-0.1,0.0,0.0,-2.0,2.6,9.3,-1.2000000000000002,0.0,-2.0,16
571,9668.0,-0.1,0.0,0.0,-2.0,2.6,9.3,-1.3,-1.1,-1.4,16
572,9685.0,0.0,0.0,0.0,-1.9000000000000001,2.7,9.3,-1.6,-1.6,-1.3,16
573,9701.0,0.0,0.0,0.0,-1.9000000000000001,2.7,9.3,-1.4,-1.1,-1.6,16
574,9718.0,-0.1,0.1,0.0,-1.9000000000000001,2.7,9.3,-0.6000000000000001,0.5,-1.4,16
575,9736.0,0.0,0.1,0.0,-1.9000000000000001,2.7,9.3,-1.4,0.5,-0.8,16
576,9751.0,0.0,0.1,0.0,-1.9000000000000001,2.7,9.4,-2.2,0.6000000000000001,-0.8,16
577,9768.0,0.0,0.1,0.2,-1.9000000000000001,2.7,9.5,-2.7,0.1,-1.2000000000000002,16
578,9786.0,0.0,0.0,0.2,-1.9000000000000001,2.6,9.600000000000001,-1.8000000000000003,-0.8,-1.6,16
579,9801.0,-0.1,0.0,0.2,-2.0,2.6,9.5,-0.2,-3.1,-1.2000000000000002,16
580,9818.0,0.0,0.0,0.1,-1.9000000000000001,2.7,9.5,-0.2,-3.1,-0.8,16
581,9835.0,0.0,0.0,0.1,-1.8,2.6,9.5,0.0,-0.8,-1.8000000000000003,16
582,9851.0,0.0,0.0,0.1,-1.9000000000000001,2.6,9.5,2.2,0.6000000000000001,-2.1,16
583,9868.0,0.0,0.0,0.0,-1.9000000000000001,2.6,9.4,3.3000000000000007,0.6000000000000001,-2.2,16
584,9885.0,0.0,0.0,-0.2,-1.9000000000000001,2.6,9.200000000000001,3.6000000000000005,0.5,-2.2,16
585,9901.0,0.0,-0.1,-0.30000000000000004,-1.9000000000000001,2.6,9.1,1.2000000000000002,-1.3,-1.6,16
586,9918.0,-0.1,0.0,-0.30000000000000004,-1.9000000000000001,2.6,9.1,-0.9000000000000001,-2.5,-1.2000000000000002,16
587,9935.0,0.0,0.0,-0.1,-1.9000000000000001,2.6,9.3,-3.4,-2.8,-0.6000000000000001,16
588,9951.0,0.0,0.0,0.0,-1.8,2.6,9.5,-2.2,-0.30000000000000004,-0.2,16
589,9968.0,0.1,0.0,0.1,-1.8,2.6,9.5,-1.0,0.5,-0.5,16
590,9985.0,0.0,0.0,0.1,-1.9000000000000001,2.6,9.5,0.0,0.9000000000000001,-1.7,16
591,10001.0,-0.1,0.0,0.1,-1.9000000000000001,2.6,9.5,0.30000000000000004,-2.5,-1.2000000000000002,16
592,10018.0,0.0,0.0,0.1,-1.9000000000000001,2.6,9.5,0.5,-3.2,-0.8,16
593,10035.0,0.0,0.0,0.0,-1.9000000000000001,2.6,9.4,1.1,-0.5,-0.7,16
594,10052.0,0.0,0.0,0.0,-1.9000000000000001,2.6,9.4,1.6,0.7,-1.2000000000000002,16
595,10068.0,0.0,0.0,0.0,-1.9000000000000001,2.6,9.4,0.9000000000000001,0.9000000000000001,-1.5,16
596,10085.0,0.0,0.0,0.0,-1.9000000000000001,2.6,9.4,-1.1,-1.3,-2.1,16
597,10101.0,0.0,0.0,0.1,-1.9000000000000001,2.6,9.5,-0.30000000000000004,-1.9,-2.1,16
598,10118.0,0.0,0.0,0.0,-1.9000000000000001,2.6,9.4,0.9000000000000001,-1.3,-1.7,16
599,10135.0,0.0,0.0,-0.1,-1.8,2.7,9.3,1.1,-1.0,-1.3,16
600,10151.0,0.0,0.1,0.0,-1.9000000000000001,2.7,9.4,-1.7,-0.30000000000000004,-2.1,16
601,10168.0,0.0,0.1,0.2,-1.9000000000000001,2.7,9.600000000000001,-1.9,-1.5,-2.4000000000000004,16
602,10185.0,-0.1,0.1,0.30000000000000004,-1.9000000000000001,2.7,9.700000000000001,0.8,-2.9,-2.3,16
603,10201.0,-0.1,0.1,0.1,-1.9000000000000001,2.7,9.600000000000001,4.5,-1.9,-1.9,16
604,10218.0,-0.1,0.1,0.0,-1.9000000000000001,2.7,9.4,6.0,-0.2,-1.8000000000000003,16
605,10235.0,-0.1,0.0,-0.2,-2.0,2.7,9.200000000000001,7.6,2.4000000000000004,-0.7,16
606,10251.0,0.0,0.0,-0.4,-1.9000000000000001,2.7,9.0,5.500000000000001,1.6,0.9000000000000001,16
607,10268.0,0.0,0.0,-0.4,-1.9000000000000001,2.7,9.0,3.3000000000000007,0.8,1.5,16
608,10285.0,-0.1,-0.1,-0.30000000000000004,-1.9000000000000001,2.6,9.1,-0.9000000000000001,-1.7,2.4000000000000004,16
609,10301.0,0.0,-0.1,-0.1,-1.9000000000000001,2.6,9.3,-2.3,-3.0,2.8,16
610,10318.0,0.0,-0.1,0.0,-1.8,2.6,9.4,-1.9,-2.5,2.8,16
611,10335.0,0.1,-0.1,0.0,-1.8,2.5,9.4,0.9000000000000001,-0.8,2.2,16
612,10353.0,0.0,-0.1,-0.1,-1.8,2.6,9.3,2.0,0.8,0.8,16
613,10368.0,0.0,-0.1,-0.2,-1.9000000000000001,2.6,9.200000000000001,1.8000000000000003,0.8,0.30000000000000004,16
614,10385.0,0.0,-0.1,-0.2,-1.8,2.6,9.200000000000001,1.4,0.0,0.6000000000000001,16
615,10402.0,0.0,-0.1,-0.30000000000000004,-1.9000000000000001,2.6,9.1,0.5,-1.1,0.6000000000000001,16
616,10419.0,0.0,0.0,-0.30000000000000004,-1.9000000000000001,2.7,9.1,-0.5,-0.4,0.9000000000000001,16
617,10435.0,0.0,0.0,-0.2,-1.9000000000000001,2.7,9.1,-0.9000000000000001,0.2,1.2000000000000002,16
618,10451.0,0.0,0.0,-0.2,-1.9000000000000001,2.7,9.1,-2.7,1.8000000000000003,1.5,16
619,10469.0,0.0,0.0,0.0,-1.9000000000000001,2.7,9.3,-3.4,1.6,1.7,16
620,10486.0,0.0,0.0,0.0,-1.9000000000000001,2.7,9.4,-4.1,0.6000000000000001,2.0,16
621,10501.0,0.0,0.1,0.1,-1.9000000000000001,2.7,9.5,-4.7,-0.4,2.7,16
622,10518.0,0.1,0.1,0.2,-1.8,2.7,9.600000000000001,-5.0,-0.7,3.0,16
623,10535.0,0.1,0.1,0.2,-1.8,2.7,9.600000000000001,-4.9,-0.9000000000000001,2.9,16
624,10551.0,0.2,0.1,0.30000000000000004,-1.7000000000000002,2.7,9.700000000000001,-3.4,-2.2,2.6,16
625,10568.0,0.2,0.1,0.30000000000000004,-1.6,2.7,9.600000000000001,-1.3,-0.5,1.0,16
626,10585.0,0.1,0.1,0.30000000000000004,-1.7000000000000002,2.7,9.600000000000001,-0.1,0.5,0.4,16
627,10602.0,0.2,0.1,0.1,-1.7000000000000002,2.7,9.5,2.0,0.5,-0.6000000000000001,16
628,10618.0,0.1,0.1,-0.1,-1.7000000000000002,2.7,9.3,2.4000000000000004,0.7,-1.4,16
629,10635.0,0.1,0.0,-0.1,-1.8,2.7,9.200000000000001,2.0,0.4,-1.6,16
630,10651.0,-0.1,0.0,-0.1,-1.9000000000000001,2.7,9.3,0.6000000000000001,0.6000000000000001,-1.1,16
631,10671.0,0.0,0.0,-0.1,-1.8,2.6,9.3,-0.30000000000000004,0.6000000000000001,0.1,16
632,10688.0,0.0,0.0,-0.1,-1.8,2.6,9.3,-1.2000000000000002,0.30000000000000004,0.4,16
633,10701.0,0.1,0.0,0.0,-1.8,2.6,9.3,-1.7,-0.5,0.1,16
634,10718.0,0.0,-0.1,0.1,-1.8,2.6,9.4,-2.0,-1.0,-1.1,16
635,10735.0,0.0,0.0,0.1,-1.9000000000000001,2.6,9.5,-1.7,-0.5,-1.3,16
636,10751.0,-0.1,0.0,0.1,-2.0,2.6,9.5,0.2,1.4,-0.8,16
637,10768.0,0.0,0.0,0.0,-1.8,2.6,9.3,1.4,0.30000000000000004,0.30000000000000004,16
638,10785.0,0.1,0.0,-0.1,-1.8,2.6,9.3,1.1,0.7,0.1,16
639,10801.0,0.0,0.0,-0.1,-1.8,2.6,9.3,-0.9000000000000001,0.9000000000000001,-1.1,16
640,10818.0,0.0,0.0,0.0,-1.9000000000000001,2.7,9.4,-2.2,0.8,-1.1,16
641,10835.0,-0.1,0.0,0.0,-1.9000000000000001,2.7,9.4,-2.1,0.30000000000000004,-0.7,16
642,10851.0,-0.1,0.0,0.0,-1.9000000000000001,2.6,9.4,-1.3,-0.6000000000000001,0.2,16
643,10868.0,0.0,0.0,0.0,-1.9000000000000001,2.6,9.4,-1.0,1.3,0.7,16
644,10885.0,0.0,0.0,0.0,-1.9000000000000001,2.6,9.4,-1.3,1.7,0.8,16
645,10901.0,0.1,0.0,0.1,-1.7000000000000002,2.6,9.4,-2.3,0.8,0.8,16
646,10918.0,0.1,0.0,0.2,-1.8,2.6,9.600000000000001,-2.3,0.30000000000000004,-0.8,16
647,10935.0,0.0,0.0,0.30000000000000004,-1.8,2.6,9.700000000000001,-1.3,-0.1,-1.4,16
648,10962.0,0.0,0.1,0.2,-1.9000000000000001,2.7,9.600000000000001,1.7,1.9,-1.9,16
649,10970.0,-0.1,0.1,0.1,-1.9000000000000001,2.7,9.5,2.4000000000000004,1.9,-1.8000000000000003,16
650,10985.0,-0.1,0.0,0.1,-2.0,2.6,9.5,2.8,1.3,-1.4,16
651,11001.0,-0.1,0.0,0.0,-2.0,2.7,9.4,3.4,0.7,-0.6000000000000001,16
652,11018.0,0.0,0.1,-0.1,-1.9000000000000001,2.7,9.3,3.5,0.5,0.0,16
653,11035.0,0.0,0.1,-0.1,-2.0,2.7,9.3,3.1,1.6,0.1,16
654,11051.0,-0.2,0.0,-0.1,-2.1,2.7,9.3,2.5,1.4,0.9000000000000001,16
655,11068.0,-0.1,0.0,-0.2,-2.0,2.7,9.200000000000001,2.0,-0.9000000000000001,2.2,16
656,11085.0,0.0,-0.1,-0.2,-1.9000000000000001,2.6,9.200000000000001,1.8000000000000003,-1.2000000000000002,2.5,16
657,11102.0,0.0,-0.1,-0.2,-1.9000000000000001,2.6,9.200000000000001,1.4,0.6000000000000001,2.9,16
658,11118.0,0.0,-0.1,-0.1,-1.9000000000000001,2.6,9.200000000000001,0.7,1.0,3.7000000000000006,16
659,11135.0,0.0,-0.1,-0.1,-1.8,2.6,9.3,0.30000000000000004,0.4,3.9,16
660,11151.0,0.1,-0.1,-0.1,-1.8,2.6,9.3,-0.4,-0.2,3.5,16
661,11168.0,0.1,-0.1,0.0,-1.8,2.6,9.4,-0.7,-0.1,2.7,16
662,11185.0,0.1,-0.1,0.1,-1.8,2.6,9.5,-1.0,1.1,2.1,16
663,11202.0,0.1,-0.1,0.2,-1.8,2.6,9.5,-1.2000000000000002,1.2000000000000002,1.7,16
664,11218.0,0.1,0.0,0.1,-1.8,2.6,9.5,-0.8,-0.6000000000000001,1.1,16
665,11235.0,0.1,0.0,0.1,-1.7000000000000002,2.7,9.5,-0.7,-1.3,0.6000000000000001,16
666,11251.0,0.1,0.0,0.1,-1.8,2.7,9.5,-0.30000000000000004,-1.1,-0.7,16
667,11268.0,-0.1,0.1,0.1,-1.9000000000000001,2.8000000000000003,9.5,0.9000000000000001,0.4,-0.8,16
668,11285.0,-0.1,0.1,0.0,-2.0,2.8000000000000003,9.4,1.4,0.4,0.8,16
669,11302.0,0.0,0.1,0.0,-1.9000000000000001,2.8000000000000003,9.4,1.4,0.30000000000000004,1.5,16
670,11318.0,0.0,0.1,0.0,-1.8,2.8000000000000003,9.3,1.2000000000000002,0.30000000000000004,2.2,16
671,11335.0,0.1,0.0,-0.1,-1.8,2.7,9.3,0.1,-2.4000000000000004,1.8000000000000003,16
672,11351.0,0.1,0.0,-0.1,-1.8,2.7,9.3,-0.6000000000000001,-2.6,1.2000000000000002,16
673,11368.0,0.1,0.0,0.0,-1.8,2.6,9.4,0.0,-0.6000000000000001,0.4,16
674,11385.0,0.0,-0.1,0.0,-1.8,2.6,9.4,2.0,1.1,0.1,16
675,11402.0,0.0,-0.1,0.0,-1.9000000000000001,2.6,9.3,2.3,0.6000000000000001,0.30000000000000004,16
676,11418.0,0.0,-0.1,-0.1,-1.8,2.6,9.3,1.3,-1.6,0.30000000000000004,16
677,11435.0,0.0,-0.1,-0.1,-1.8,2.6,9.200000000000001,0.9000000000000001,-1.6,0.1,16
678,11451.0,0.0,-0.1,-0.1,-1.8,2.6,9.200000000000001,0.6000000000000001,-1.1,0.1,16
679,11470.0,0.0,-0.1,0.0,-1.8,2.6,9.3,0.0,0.0,0.2,16
680,11487.0,0.0,-0.1,-0.1,-1.8,2.6,9.3,0.6000000000000001,-0.6000000000000001,1.3,16
681,11503.0,0.0,-0.1,-0.1,-1.8,2.6,9.200000000000001,0.1,-1.2000000000000002,1.5,16
682,11518.0,0.1,0.0,0.0,-1.7000000000000002,2.7,9.3,-2.0,-1.4,0.6000000000000001,16
683,11535.0,0.0,0.0,0.2,-1.8,2.7,9.5,-2.1,-0.6000000000000001,0.0,16
684,11551.0,0.0,0.0,0.2,-1.8,2.7,9.5,-1.1,-1.2000000000000002,0.4,16
685,11568.0,0.1,0.1,0.2,-1.7000000000000002,2.7,9.5,-0.2,-1.9,-0.4,16
686,11585.0,0.0,0.1,0.2,-1.8,2.7,9.600000000000001,1.6,0.30000000000000004,-1.9,16
687,11601.0,-0.1,0.1,0.1,-1.9000000000000001,2.8000000000000003,9.5,3.1,0.8,-1.4,16
688,11618.0,0.0,0.1,-0.1,-1.8,2.8000000000000003,9.3,3.3000000000000007,-0.2,-0.5,16
689,11635.0,0.0,0.1,-0.1,-1.8,2.8000000000000003,9.3,1.0,-0.6000000000000001,-1.3,16
690,11651.0,0.0,0.0,0.0,-1.8,2.7,9.4,0.6000000000000001,-0.6000000000000001,-1.3,16
691,11668.0,-0.1,0.0,0.0,-1.9000000000000001,2.7,9.4,1.7,-0.9000000000000001,-0.7,16
692,11685.0,0.0,0.0,0.0,-1.8,2.7,9.3,2.0,0.0,0.5,16
693,11701.0,0.0,0.0,0.0,-1.8,2.7,9.3,1.7,0.6000000000000001,0.6000000000000001,16
694,11718.0,0.1,-0.1,0.0,-1.7000000000000002,2.7,9.3,0.9000000000000001,-0.5,0.30000000000000004,16
695,11735.0,0.0,-0.1,0.0,-1.8,2.7,9.3,0.1,-1.2000000000000002,-0.8,16
696,11751.0,0.0,-0.1,0.0,-1.8,2.6,9.4,-0.1,-1.2000000000000002,-1.0,16
697,11768.0,0.0,-0.1,0.0,-1.8,2.6,9.4,0.5,-0.2,-0.8,16
698,11786.0,0.0,0.0,0.0,-1.8,2.7,9.4,1.6,0.0,-0.7,16
699,11801.0,0.0,0.0,0.0,-1.8,2.7,9.3,1.9,0.0,-0.8,16
700,11818.0,0.0,0.0,-0.2,-1.8,2.7,9.200000000000001,2.3,-0.30000000000000004,-0.8,16
701,11835.0,0.0,0.0,-0.2,-1.8,2.8000000000000003,9.200000000000001,1.2000000000000002,0.2,-1.1,16
702,11851.0,-0.1,0.0,-0.2,-1.9000000000000001,2.8000000000000003,9.200000000000001,0.30000000000000004,0.5,-1.1,16
703,11869.0,-0.1,0.0,-0.1,-1.9000000000000001,2.8000000000000003,9.3,-1.8000000000000003,0.4,-0.30000000000000004,16
704,11885.0,-0.1,0.0,0.0,-1.9000000000000001,2.7,9.4,-2.0,-0.2,0.30000000000000004,16
705,11902.0,0.0,0.0,0.0,-1.8,2.7,9.3,-1.9,-1.1,0.9000000000000001,16
706,11918.0,0.0,0.0,0.0,-1.8,2.7,9.3,-2.3,-1.3,0.9000000000000001,16
707,11934.0,0.0,0.0,0.1,-1.8,2.7,9.4,-2.7,-0.1,0.7,16
708,11951.0,0.0,0.0,0.1,-1.8,2.7,9.5,-2.2,0.1,0.6000000000000001,16
709,11969.0,0.0,0.0,0.1,-1.8,2.7,9.5,-0.6000000000000001,0.9000000000000001,0.1,16
710,11986.0,0.0,0.0,0.0,-1.8,2.7,9.4,-0.30000000000000004,0.1,-0.1,16
711,12001.0,0.0,0.0,0.0,-1.8,2.7,9.4,-0.5,-0.2,-0.30000000000000004,16
712,12018.0,0.0,0.0,0.0,-1.8,2.7,9.4,-1.3,-0.1,-0.1,16
713,12035.0,0.0,0.0,0.1,-1.8,2.7,9.4,-1.3,-0.6000000000000001,0.6000000000000001,16
714,12051.0,0.0,0.0,0.1,-1.8,2.7,9.5,-0.6000000000000001,-0.7,0.9000000000000001,16
715,12068.0,0.1,0.0,0.1,-1.7000000000000002,2.7,9.4,0.0,-0.4,0.7,16
716,12085.0,0.0,0.1,0.1,-1.8,2.7,9.4,0.5,0.30000000000000004,-0.2,16
717,12101.0,0.0,0.0,0.0,-1.8,2.7,9.4,0.9000000000000001,0.0,-0.4,16
718,12118.0,-0.1,0.0,0.0,-1.8,2.7,9.4,1.2000000000000002,-0.4,-0.1,16
719,12135.0,0.0,0.0,-0.1,-1.8,2.7,9.3,0.8,0.30000000000000004,0.4,16
720,12154.0,0.0,0.0,-0.1,-1.8,2.7,9.3,-0.5,-0.30000000000000004,1.1,16
721,12169.0,0.0,0.0,0.0,-1.8,2.7,9.3,-1.0,-0.7,1.1,16
722,12192.0,0.0,0.0,0.0,-1.7000000000000002,2.7,9.4,0.4,-0.4,0.8,16
723,12203.0,0.0,0.0,0.0,-1.8,2.7,9.4,0.7,0.6000000000000001,0.5,16
724,12218.0,0.0,0.0,0.0,-1.8,2.7,9.3,0.5,1.1,0.1,16
725,12237.0,0.0,0.0,-0.1,-1.8,2.7,9.3,0.0,0.6000000000000001,0.4,16
726,12258.0,0.0,0.0,0.0,-1.8,2.7,9.3,-1.1,-0.30000000000000004,0.9000000000000001,16
727,12268.0,0.0,0.0,0.0,-1.8,2.7,9.3,-1.1,-0.8,1.0,16
728,12286.0,0.1,0.0,0.0,-1.7000000000000002,2.7,9.4,-1.5,-0.5,0.6000000000000001,16
729,12301.0,0.0,0.0,0.0,-1.8,2.7,9.3,-1.1,-0.9000000000000001,0.30000000000000004,16
730,12318.0,0.0,0.0,-0.1,-1.8,2.7,9.3,-0.6000000000000001,-1.5,0.6000000000000001,16
731,12335.0,0.1,0.0,-0.1,-1.7000000000000002,2.7,9.200000000000001,-2.0,-0.9000000000000001,1.1,16
732,12351.0,0.0,0.0,0.1,-1.8,2.7,9.5,-3.8,0.5,0.7,16
733,12368.0,0.0,0.0,0.2,-1.8,2.7,9.600000000000001,-2.9,0.4,0.9000000000000001,16
734,12385.0,0.1,0.0,0.1,-1.7000000000000002,2.7,9.5,-0.8,-2.1,0.8,16
735,12401.0,0.0,0.0,0.1,-1.8,2.7,9.5,-0.9000000000000001,-1.4,-0.4,16
736,12419.0,-0.1,0.0,0.1,-1.8,2.7,9.5,-0.5,-1.1,-0.5,16
737,12435.0,0.0,0.1,0.0,-1.8,2.7,9.4,1.1,0.30000000000000004,0.8,16
738,12451.0,0.0,0.0,-0.1,-1.7000000000000002,2.7,9.3,1.0,0.1,1.1,16
739,12468.0,0.0,0.0,-0.1,-1.7000000000000002,2.7,9.3,0.4,-0.9000000000000001,1.0,16
740,12485.0,0.0,0.0,-0.1,-1.8,2.7,9.3,-0.8,-2.2,0.9000000000000001,16
741,12502.0,0.0,0.0,-0.1,-1.7000000000000002,2.6,9.3,-1.8000000000000003,-3.1,1.7,16
742,12518.0,0.0,0.0,0.0,-1.7000000000000002,2.7,9.4,-2.1,-2.3,1.7,16
743,12534.0,0.1,-0.1,0.0,-1.6,2.6,9.4,-1.3,-0.8,0.7,16
744,12551.0,0.0,0.0,0.0,-1.7000000000000002,2.6,9.4,-0.6000000000000001,1.1,-0.5,16
745,12571.0,-0.1,-0.1,0.0,-1.8,2.6,9.4,-0.2,0.2,-0.7,16
746,12585.0,0.0,0.0,0.0,-1.8,2.6,9.4,-0.1,-1.4,-0.2,16
747,12602.0,0.0,0.0,-0.1,-1.7000000000000002,2.6,9.3,-0.8,-0.9000000000000001,-0.30000000000000004,16
748,12618.0,0.0,0.0,0.0,-1.7000000000000002,2.6,9.4,-0.9000000000000001,-0.1,-0.30000000000000004,16
749,12635.0,0.0,0.0,0.0,-1.7000000000000002,2.6,9.4,-0.6000000000000001,0.5,-0.5,16
750,12653.0,0.0,0.0,0.0,-1.7000000000000002,2.7,9.3,-0.30000000000000004,-0.8,-0.7,16
751,12668.0,0.0,0.0,0.0,-1.7000000000000002,2.7,9.3,-0.9000000000000001,-0.7,-0.7,16
752,12685.0,0.0,0.0,0.0,-1.7000000000000002,2.6,9.4,-1.6,-0.6000000000000001,-0.5,16
753,12701.0,0.0,0.0,0.0,-1.7000000000000002,2.6,9.4,-0.8,-0.9000000000000001,-0.1,16
754,12718.0,0.0,0.0,0.0,-1.7000000000000002,2.7,9.4,-0.2,-0.8,0.0,16
755,12735.0,0.0,0.0,0.0,-1.7000000000000002,2.7,9.3,-0.5,-0.2,-0.30000000000000004,16
756,12755.0,0.0,0.0,0.0,-1.7000000000000002,2.6,9.4,-1.3,-0.1,-0.8,16
757,12768.0,-0.1,0.0,0.0,-1.8,2.6,9.4,-1.4,-0.2,-1.0,16
758,12785.0,-0.1,0.0,0.1,-1.8,2.6,9.5,-0.6000000000000001,-1.3,-0.4,16
759,12801.0,0.0,0.0,0.0,-1.7000000000000002,2.6,9.4,-0.30000000000000004,-1.2000000000000002,-0.1,16
760,12818.0,0.0,0.0,0.0,-1.7000000000000002,2.6,9.4,-0.1,-0.8,-0.4,16
761,12835.0,0.0,0.0,0.0,-1.8,2.6,9.4,0.6000000000000001,0.5,-0.8,16
762,12854.0,0.0,0.0,-0.1,-1.8,2.6,9.3,0.4,-0.1,-0.5,16
763,12868.0,0.0,0.0,0.0,-1.7000000000000002,2.6,9.4,-0.8,-0.30000000000000004,-0.30000000000000004,16
764,12884.0,0.0,0.0,0.0,-1.7000000000000002,2.6,9.4,-0.8,0.1,-0.4,16
765,12901.0,-0.1,0.0,0.0,-1.8,2.6,9.4,0.0,-0.9000000000000001,-0.2,16
766,12918.0,-0.1,0.0,0.0,-1.8,2.7,9.3,-0.30000000000000004,-0.5,0.0,16
767,12935.0,0.0,0.0,0.0,-1.8,2.6,9.4,-1.4,0.2,0.5,16
768,12954.0,0.0,0.0,0.1,-1.8,2.6,9.5,-1.3,-0.5,0.7,16
769,12968.0,-0.1,0.0,0.1,-1.8,2.6,9.5,-0.8,-1.5,0.7,16
770,12985.0,0.0,0.0,0.1,-1.7000000000000002,2.6,9.5,-0.30000000000000004,-1.6,1.0,16
771,13001.0,0.0,0.0,0.0,-1.7000000000000002,2.6,9.4,0.5,0.30000000000000004,0.9000000000000001,16
772,13018.0,0.0,0.0,0.0,-1.7000000000000002,2.6,9.4,0.2,1.1,0.4,16
773,13035.0,0.0,0.0,0.0,-1.8,2.6,9.4,0.2,0.30000000000000004,0.2,16
774,13054.0,0.0,0.0,-0.1,-1.7000000000000002,2.6,9.3,0.5,-1.1,0.9000000000000001,16
775,13074.0,0.0,0.0,-0.1,-1.7000000000000002,2.6,9.3,-0.4,-0.4,1.2000000000000002,16
776,13085.0,0.0,0.0,0.0,-1.7000000000000002,2.6,9.4,-1.2000000000000002,0.2,1.1,16
777,13101.0,0.0,0.0,0.1,-1.7000000000000002,2.6,9.5,-1.3,-0.5,0.9000000000000001,16
778,13118.0,0.1,0.0,0.1,-1.6,2.6,9.5,0.6000000000000001,-1.3,0.4,16
779,13135.0,0.0,0.0,0.1,-1.7000000000000002,2.6,9.5,1.4,-1.1,-0.1,16
780,13163.0,-0.1,0.0,-0.1,-1.8,2.6,9.4,2.4000000000000004,-0.2,0.0,16
781,13168.0,-0.1,0.0,-0.1,-1.8,2.6,9.3,2.3,-0.1,0.6000000000000001,16
782,13185.0,-0.1,0.1,-0.2,-1.8,2.7,9.200000000000001,1.7,0.0,1.3,16
783,13202.0,-0.1,0.0,-0.1,-1.8,2.6,9.3,-0.7,0.2,2.3,16
784,13218.0,0.0,-0.1,0.0,-1.7000000000000002,2.6,9.4,-2.3,-2.5,3.0,16
785,13235.0,0.1,0.0,0.0,-1.6,2.6,9.4,-2.2,-3.3000000000000007,2.7,16
786,13255.0,0.1,0.0,0.1,-1.6,2.6,9.5,-1.3,-1.1,1.6,16
787,13268.0,0.0,0.0,0.1,-1.7000000000000002,2.6,9.5,0.0,-0.30000000000000004,1.3,16
788,13285.0,0.1,-0.1,0.1,-1.6,2.6,9.5,0.6000000000000001,-0.7,1.3,16
789,13301.0,0.1,0.0,0.0,-1.6,2.6,9.4,0.2,-1.2000000000000002,0.6000000000000001,16
790,13318.0,0.1,-0.1,0.1,-1.6,2.6,9.5,0.5,-1.3,-0.30000000000000004,16
791,13334.0,0.1,0.0,-0.1,-1.6,2.6,9.4,1.2000000000000002,-1.1,-0.7,16
792,13351.0,0.1,0.0,-0.1,-1.6,2.6,9.3,1.9,-0.5,-1.0,16
793,13372.0,-0.1,0.0,-0.1,-1.7000000000000002,2.6,9.3,1.1,0.0,-1.2000000000000002,16
794,13385.0,-0.1,0.0,-0.1,-1.7000000000000002,2.6,9.3,0.5,-0.1,-0.5,16
795,13401.0,0.0,0.0,-0.1,-1.6,2.6,9.3,-0.30000000000000004,-0.8,0.6000000000000001,16
796,13418.0,0.1,0.0,0.0,-1.6,2.6,9.4,-1.5,-0.6000000000000001,0.1,16
797,13435.0,0.0,0.0,0.1,-1.7000000000000002,2.6,9.5,-1.3,-1.1,-0.5,16
798,13451.0,0.0,0.0,0.2,-1.7000000000000002,2.6,9.600000000000001,-0.6000000000000001,-1.7,-0.30000000000000004,16
799,13470.0,0.0,0.0,0.1,-1.6,2.6,9.5,0.8,-0.9000000000000001,-0.2,16
800,13485.0,0.0,0.0,0.0,-1.6,2.6,9.4,1.3,-0.4,-0.30000000000000004,16
801,13501.0,0.0,0.0,0.0,-1.7000000000000002,2.7,9.4,0.7,0.30000000000000004,-1.0,16
802,13518.0,-0.1,0.0,0.0,-1.7000000000000002,2.6,9.4,0.30000000000000004,-0.6000000000000001,-0.7,16
803,13535.0,0.0,0.0,0.0,-1.7000000000000002,2.6,9.4,0.4,-1.4,0.1,16
804,13551.0,0.0,0.0,0.0,-1.6,2.6,9.4,0.8,-1.1,0.4,16
805,13570.0,0.0,0.0,0.0,-1.6,2.6,9.4,1.3,-0.8,0.30000000000000004,16
806,13585.0,0.0,0.0,-0.1,-1.7000000000000002,2.6,9.3,1.3,-0.2,-0.2,16
807,13601.0,-0.1,0.0,-0.1,-1.7000000000000002,2.6,9.3,0.30000000000000004,0.30000000000000004,-0.30000000000000004,16
808,13618.0,0.0,0.0,0.0,-1.7000000000000002,2.6,9.4,-0.5,-0.8,0.30000000000000004,16
809,13635.0,0.0,0.0,0.0,-1.6,2.6,9.5,-0.8,-1.9,0.4,16
810,13651.0,0.1,0.0,0.1,-1.6,2.6,9.5,-0.1,-2.0,0.5,16
811,13672.0,0.1,0.0,0.1,-1.5,2.6,9.5,1.3,-0.30000000000000004,-0.5,16
812,13685.0,0.0,0.0,0.1,-1.6,2.6,9.5,1.7,-0.30000000000000004,-0.6000000000000001,16
813,13701.0,0.0,0.0,0.0,-1.6,2.6,9.4,1.8000000000000003,-1.1,-1.0,16
814,13718.0,0.0,0.0,0.1,-1.6,2.6,9.5,1.7,-1.6,-1.1,16
815,13735.0,0.0,0.0,0.2,-1.6,2.6,9.600000000000001,3.5,-1.6,-1.4,16
816,13751.0,-0.1,0.0,0.1,-1.7000000000000002,2.6,9.600000000000001,4.4,-1.3,-1.4,16
817,13771.0,0.0,0.0,0.1,-1.6,2.7,9.5,5.9,-2.3,-1.4,16
818,13785.0,0.0,0.0,0.0,-1.6,2.7,9.5,7.200000000000001,-2.4000000000000004,-1.9,16
819,13801.0,0.0,0.0,0.0,-1.6,2.7,9.4,7.8,-2.9,-2.2,16
820,13818.0,0.1,0.1,-0.1,-1.5,2.9000000000000004,9.3,7.500000000000001,-1.6,-1.3,16
821,13835.0,0.1,0.0,-0.2,-1.5,2.8000000000000003,9.200000000000001,5.8,1.2000000000000002,-1.0,16
822,13851.0,0.1,0.0,-0.2,-1.5,2.8000000000000003,9.1,4.9,1.7,-1.5,16
823,13871.0,0.0,0.1,-0.2,-1.6,2.8000000000000003,9.200000000000001,2.7,2.0,-2.4000000000000004,16
824,13885.0,-0.2,0.0,-0.1,-1.8,2.8000000000000003,9.200000000000001,1.3,0.9000000000000001,-1.1,16
825,13901.0,-0.1,0.0,-0.1,-1.7000000000000002,2.8000000000000003,9.200000000000001,0.9000000000000001,0.8,-0.2,16
826,13918.0,-0.1,0.1,-0.2,-1.7000000000000002,2.9000000000000004,9.200000000000001,0.0,0.2,1.0,16
827,13935.0,0.0,0.0,-0.2,-1.6,2.8000000000000003,9.200000000000001,-1.2000000000000002,0.5,1.2000000000000002,16
828,13951.0,0.0,0.0,-0.2,-1.6,2.8000000000000003,9.200000000000001,-1.8000000000000003,1.0,1.1,16
829,13974.0,0.0,0.0,-0.1,-1.7000000000000002,2.7,9.200000000000001,-4.4,1.1,2.2,16
830,13985.0,0.0,0.0,0.0,-1.6,2.7,9.4,-5.300000000000001,0.0,2.4000000000000004,16
831,14001.0,0.0,0.0,0.1,-1.5,2.7,9.5,-5.9,-0.8,2.6,16
832,14018.0,0.2,0.0,0.2,-1.5,2.7,9.5,-5.6,-2.3,2.5,16
833,14034.0,0.2,0.0,0.2,-1.4000000000000001,2.7,9.5,-4.1,-1.7,0.30000000000000004,16
834,14051.0,0.1,0.0,0.2,-1.5,2.7,9.600000000000001,-3.3000000000000007,-0.6000000000000001,-0.7,16
835,14073.0,-0.1,0.0,0.2,-1.7000000000000002,2.7,9.600000000000001,0.0,1.6,-1.0,16
836,14090.0,-0.1,0.0,0.2,-1.7000000000000002,2.7,9.5,1.1,0.6000000000000001,-0.30000000000000004,16
837,14101.0,0.0,0.0,0.0,-1.6,2.7,9.3,1.6,-0.5,0.4,16
838,14118.0,0.1,0.0,-0.1,-1.5,2.7,9.3,0.8,-1.1,0.4,16
839,14134.0,0.0,0.0,-0.1,-1.6,2.8000000000000003,9.3,-0.8,-0.4,-0.2,16
840,14151.0,0.0,0.0,0.0,-1.6,2.7,9.3,-1.2000000000000002,-0.4,0.0,16
841,14171.0,0.0,0.0,-0.1,-1.6,2.7,9.3,-1.1,-0.4,0.6000000000000001,16
842,14185.0,0.0,0.0,0.0,-1.6,2.7,9.3,-1.9,0.1,0.8,16
843,14201.0,0.0,0.0,0.0,-1.6,2.7,9.4,-2.2,0.0,0.5,16
844,14218.0,0.0,0.0,0.1,-1.6,2.6,9.4,-1.5,-0.30000000000000004,0.30000000000000004,16
845,14235.0,0.0,0.0,0.0,-1.6,2.6,9.4,-1.1,-0.8,0.1,16
846,14251.0,0.0,0.0,0.1,-1.6,2.6,9.4,-1.3,-1.3,0.1,16
847,14271.0,0.0,-0.1,0.0,-1.6,2.6,9.4,-0.9000000000000001,-1.2000000000000002,-0.4,16
848,14285.0,0.0,0.0,0.0,-1.6,2.6,9.4,-0.30000000000000004,0.30000000000000004,-0.4,16
849,14301.0,0.0,0.0,0.0,-1.5,2.7,9.4,0.0,0.6000000000000001,-0.6000000000000001,16
850,14318.0,0.0,0.0,0.0,-1.6,2.7,9.4,0.30000000000000004,0.7,-0.8,16
851,14335.0,0.0,0.0,-0.1,-1.6,2.7,9.3,-0.5,-0.6000000000000001,-0.9000000000000001,16
852,14351.0,-0.1,0.0,0.0,-1.7000000000000002,2.7,9.4,-0.8,-0.8,-0.4,16
853,14369.0,0.0,0.0,-0.1,-1.6,2.7,9.3,-0.8,-0.5,0.0,16
854,14385.0,0.0,0.0,0.0,-1.6,2.7,9.4,-1.0,0.4,0.6000000000000001,16
855,14401.0,0.0,0.0,0.0,-1.6,2.7,9.4,-1.7,-0.1,0.8,16
856,14418.0,0.0,0.0,0.0,-1.6,2.6,9.4,-1.7,-0.5,0.5,16
857,14434.0,0.0,0.0,0.0,-1.6,2.6,9.4,-1.5,-0.4,0.4,16
858,14451.0,0.0,0.0,0.0,-1.6,2.6,9.4,-1.4,-0.4,0.8,16
859,14473.0,0.1,0.0,0.0,-1.5,2.6,9.4,-1.8000000000000003,-0.9000000000000001,0.9000000000000001,16
860,14485.0,0.1,0.0,0.1,-1.5,2.6,9.5,-1.9,-0.5,0.4,16
861,14501.0,0.0,0.0,0.1,-1.5,2.6,9.5,-1.7,0.2,-0.1,16
862,14518.0,0.0,0.0,0.1,-1.6,2.6,9.5,0.2,0.0,-0.6000000000000001,16
863,14534.0,0.0,0.0,-0.1,-1.6,2.6,9.3,0.5,0.0,0.1,16
864,14551.0,0.0,0.0,-0.1,-1.6,2.6,9.3,-0.2,-0.2,0.4,16
865,14575.0,0.0,0.0,0.1,-1.5,2.6,9.5,-2.0,0.4,0.1,16
866,14584.0,0.0,0.0,0.1,-1.5,2.6,9.5,-2.0,-0.2,-0.2,16
867,14601.0,0.0,0.0,0.2,-1.6,2.6,9.600000000000001,-0.5,-1.9,-0.30000000000000004,16
868,14618.0,0.0,0.0,0.1,-1.6,2.6,9.5,0.8,-2.0,-0.1,16
869,14634.0,0.0,0.0,-0.1,-1.5,2.6,9.3,2.0,-0.7,-0.2,16
870,14651.0,0.0,0.0,-0.1,-1.6,2.6,9.3,1.2000000000000002,1.6,-0.5,16
871,14669.0,-0.1,0.0,-0.1,-1.6,2.6,9.3,1.1,1.0,-0.1,16
872,14685.0,-0.1,0.0,-0.2,-1.6,2.7,9.200000000000001,-0.2,-0.5,1.2000000000000002,16
873,14701.0,0.0,0.0,-0.1,-1.6,2.6,9.3,-1.6,-1.6,1.5,16
874,14718.0,0.0,0.0,0.0,-1.6,2.6,9.4,-4.1,-0.9000000000000001,1.6,16
875,14735.0,0.0,0.0,0.2,-1.5,2.6,9.600000000000001,-3.3000000000000007,-1.3,1.6,16
876,14751.0,0.1,0.0,0.1,-1.5,2.6,9.600000000000001,-1.5,-0.4,1.2000000000000002,16
877,14773.0,0.0,0.0,0.1,-1.5,2.6,9.5,0.0,-1.4,0.8,16
878,14789.0,0.0,0.0,0.0,-1.6,2.6,9.4,-0.2,-1.0,0.1,16
879,14803.0,0.0,0.0,0.1,-1.5,2.6,9.5,-0.2,-0.9000000000000001,-0.2,16
880,14818.0,0.0,0.0,0.1,-1.5,2.6,9.5,0.0,0.4,-0.1,16
881,14835.0,0.0,0.0,0.0,-1.5,2.6,9.5,0.9000000000000001,1.2000000000000002,-0.2,16
882,14851.0,0.0,0.0,-0.1,-1.6,2.6,9.4,0.5,-1.1,-0.4,16
883,14873.0,-0.1,0.1,0.0,-1.6,2.7,9.4,-0.30000000000000004,-0.8,-0.30000000000000004,16
884,14885.0,-0.1,0.1,0.0,-1.6,2.7,9.5,-0.4,0.6000000000000001,0.1,16
885,14901.0,0.0,0.0,0.1,-1.6,2.6,9.5,0.5,1.4,1.2000000000000002,16
886,14918.0,0.0,0.0,0.0,-1.5,2.6,9.4,0.5,0.0,1.0,16
887,14935.0,0.0,0.0,0.0,-1.5,2.7,9.4,0.2,-0.8,0.7,16
888,14951.0,0.0,0.0,0.1,-1.6,2.6,9.5,-0.1,-0.6000000000000001,0.4,16
889,14968.0,0.0,0.0,0.1,-1.6,2.6,9.5,0.5,-0.4,0.4,16
890,14984.0,0.0,0.0,0.0,-1.5,2.6,9.5,2.0,0.30000000000000004,0.7,16
891,15001.0,0.0,0.0,-0.1,-1.5,2.6,9.4,2.2,1.4,0.1,16
892,15018.0,0.0,0.0,0.0,-1.6,2.6,9.4,1.5,1.2000000000000002,-0.4,16
893,15034.0,0.0,0.0,0.0,-1.6,2.6,9.4,1.4,0.6000000000000001,-0.4,16
894,15051.0,0.0,0.0,0.0,-1.6,2.7,9.4,2.2,-0.1,0.30000000000000004,16
895,15077.0,0.1,0.0,-0.1,-1.5,2.7,9.3,2.2,0.8,0.2,16
896,15085.0,0.0,0.0,-0.1,-1.5,2.6,9.3,1.9,1.4,-0.30000000000000004,16
897,15101.0,0.0,0.0,0.0,-1.6,2.6,9.4,1.8000000000000003,1.7,-1.0,16
898,15118.0,-0.1,0.0,-0.1,-1.7000000000000002,2.7,9.3,2.0,1.7,-0.30000000000000004,16
899,15137.0,-0.1,0.0,-0.1,-1.6,2.7,9.3,1.6,1.1,0.4,16
900,15152.0,0.0,0.0,0.0,-1.6,2.7,9.4,-0.2,0.9000000000000001,0.5,16
901,15181.0,0.0,0.0,0.0,-1.6,2.7,9.4,0.1,0.2,0.1,16
902,15188.0,0.0,0.0,0.0,-1.7000000000000002,2.7,9.4,0.1,0.2,0.1,16
903,15201.0,-0.1,0.0,0.0,-1.7000000000000002,2.7,9.4,0.7,0.6000000000000001,0.1,16
904,15218.0,-0.1,0.0,0.0,-1.7000000000000002,2.7,9.3,0.7,0.9000000000000001,0.30000000000000004,16
905,15235.0,-0.1,0.0,0.0,-1.7000000000000002,2.7,9.4,0.5,2.0,1.1,16
906,15252.0,0.0,0.0,-0.1,-1.6,2.7,9.3,-0.5,1.7,1.5,16
907,15269.0,0.0,0.0,0.0,-1.6,2.7,9.4,-1.1,-0.8,2.0,16
908,15289.0,0.1,0.0,0.0,-1.5,2.7,9.3,-1.2000000000000002,-0.8,2.5,16
909,15302.0,0.1,0.0,0.0,-1.5,2.7,9.4,-1.2000000000000002,0.1,2.3,16
910,15318.0,0.1,0.0,0.0,-1.5,2.7,9.4,-1.1,1.2000000000000002,1.9,16
911,15334.0,0.1,0.0,0.0,-1.5,2.7,9.4,-0.9000000000000001,0.5,1.7,16
912,15351.0,0.1,0.0,0.0,-1.5,2.7,9.4,-0.2,-0.6000000000000001,1.2000000000000002,16
913,15370.0,0.0,0.0,0.0,-1.5,2.7,9.4,0.30000000000000004,-0.2,1.2000000000000002,16
914,15385.0,0.0,0.0,0.0,-1.6,2.7,9.4,0.1,-0.2,1.5,16
915,15401.0,0.1,0.0,0.0,-1.4000000000000001,2.7,9.3,-0.2,0.2,2.0,16
916,15418.0,0.2,0.0,-0.1,-1.4000000000000001,2.6,9.3,-0.9000000000000001,-0.6000000000000001,1.4,16
917,15434.0,0.2,0.0,-0.1,-1.4000000000000001,2.6,9.3,-1.4,-1.3,0.7,16
918,15451.0,0.1,0.0,0.1,-1.5,2.6,9.5,-2.0,-1.2000000000000002,-0.6000000000000001,16
919,15473.0,0.0,0.0,0.1,-1.5,2.7,9.5,-0.7,-0.2,-0.8,16
920,15485.0,0.0,0.0,0.1,-1.5,2.7,9.5,0.5,0.4,-0.7,16
921,15501.0,0.1,0.0,0.0,-1.4000000000000001,2.7,9.4,0.9000000000000001,0.2,-0.8,16
922,15518.0,0.0,0.0,0.1,-1.5,2.6,9.5,0.0,-1.0,-1.9,16
923,15535.0,0.0,0.0,0.0,-1.5,2.7,9.4,-0.1,-1.6,-2.1,16
924,15551.0,0.0,0.0,0.0,-1.5,2.6,9.4,0.6000000000000001,-1.1,-1.9,16
925,15569.0,0.0,0.0,0.0,-1.6,2.6,9.4,1.1,0.0,-2.0,16
926,15585.0,-0.1,0.0,0.0,-1.6,2.7,9.4,1.1,0.0,-2.1,16
927,15601.0,-0.1,0.0,-0.1,-1.6,2.7,9.3,0.8,-1.5,-1.2000000000000002,16
928,15618.0,0.0,0.0,-0.1,-1.5,2.7,9.3,0.0,-1.6,-1.0,16
929,15634.0,0.0,0.0,-0.1,-1.5,2.7,9.3,-0.6000000000000001,-0.9000000000000001,-1.4,16
930,15651.0,-0.1,0.0,0.0,-1.6,2.6,9.4,-1.1,0.30000000000000004,-1.9,16
931,15668.0,-0.1,0.0,0.0,-1.7000000000000002,2.7,9.4,-0.9000000000000001,-0.8,-0.5,16
932,15685.0,-0.1,0.0,0.0,-1.6,2.6,9.4,-0.9000000000000001,-1.6,0.2,16
933,15701.0,0.0,0.0,0.0,-1.5,2.6,9.4,-1.1,-1.8000000000000003,0.2,16
934,15718.0,0.1,0.0,0.0,-1.5,2.6,9.4,-0.7,-1.1,-0.8,16
935,15735.0,0.0,-0.1,0.0,-1.5,2.6,9.4,0.1,0.0,-1.5,16
936,15751.0,0.0,0.0,0.0,-1.5,2.6,9.4,0.30000000000000004,-0.5,-1.5,16
937,15775.0,0.0,0.0,0.0,-1.6,2.6,9.4,0.1,-0.9000000000000001,-1.4,16
938,15784.0,0.0,0.0,0.0,-1.5,2.6,9.4,-0.2,-1.1,-1.5,16
939,15801.0,0.0,0.0,0.1,-1.5,2.7,9.5,-0.6000000000000001,-0.1,-1.4,16
940,15818.0,-0.1,0.0,0.1,-1.6,2.7,9.5,-0.30000000000000004,-0.5,-1.4,16
941,15834.0,-0.1,0.0,0.1,-1.6,2.7,9.5,0.2,-1.1,-0.6000000000000001,16
942,15851.0,-0.1,0.0,0.0,-1.6,2.7,9.5,0.30000000000000004,-1.5,-0.2,16
943,15868.0,-0.1,0.0,0.0,-1.6,2.6,9.4,0.9000000000000001,-1.2000000000000002,0.0,16
944,15887.0,0.0,0.0,-0.1,-1.6,2.7,9.3,0.6000000000000001,-2.1,0.4,16
945,15902.0,0.0,0.0,-0.1,-1.5,2.7,9.3,0.0,-1.7,0.30000000000000004,16
946,15918.0,0.0,0.0,-0.1,-1.5,2.6,9.3,-0.9000000000000001,-0.2,0.30000000000000004,16
947,15935.0,-0.1,0.0,0.0,-1.6,2.6,9.4,-1.1,0.2,0.4,16
948,15951.0,-0.1,-0.1,0.0,-1.6,2.6,9.4,-0.9000000000000001,0.1,0.8,16
949,15969.0,0.0,0.0,0.0,-1.5,2.6,9.4,-1.1,-2.1,1.7,16
950,15985.0,0.0,0.0,0.0,-1.5,2.6,9.4,-2.0,-1.7,0.8,16
951,16001.0,0.0,-0.1,0.0,-1.5,2.6,9.4,-2.0,-1.6,0.5,16
952,16018.0,0.0,0.0,0.1,-1.5,2.6,9.5,-2.0,-0.9000000000000001,0.0,16
953,16034.0,-0.1,0.0,0.1,-1.6,2.6,9.5,-0.5,0.0,0.2,16
954,16051.0,-0.1,0.0,0.0,-1.6,2.6,9.4,0.30000000000000004,-1.0,0.9000000000000001,16
955,16068.0,0.0,0.0,-0.2,-1.5,2.6,9.200000000000001,-1.7,-3.0,1.5,16
956,16085.0,0.0,0.0,0.0,-1.5,2.6,9.4,-4.2,-1.7,0.9000000000000001,16
957,16101.0,0.0,0.0,0.2,-1.5,2.6,9.600000000000001,-3.8,-0.8,0.9000000000000001,16
958,16118.0,0.0,0.0,0.2,-1.5,2.6,9.600000000000001,-0.8,0.30000000000000004,1.2000000000000002,16
959,16134.0,0.0,0.1,0.0,-1.5,2.6,9.4,0.6000000000000001,0.0,1.1,16
960,16151.0,0.0,0.0,0.0,-1.5,2.6,9.4,0.5,-0.1,1.2000000000000002,16
961,16168.0,0.0,0.1,-0.1,-1.5,2.7,9.4,-0.30000000000000004,-0.30000000000000004,1.6,16
962,16186.0,0.0,0.0,0.0,-1.5,2.6,9.4,-0.2,-0.5,1.9,16
963,16201.0,0.1,0.0,0.0,-1.4000000000000001,2.6,9.4,-0.1,0.0,1.9,16
964,16218.0,0.0,0.0,0.0,-1.4000000000000001,2.6,9.4,-0.6000000000000001,0.9000000000000001,1.9,16
965,16235.0,0.1,0.0,0.0,-1.4000000000000001,2.6,9.5,-2.0,-0.30000000000000004,1.8000000000000003,16
966,16251.0,0.1,0.0,0.1,-1.4000000000000001,2.6,9.5,-2.2,-1.3,1.7,16
967,16268.0,0.1,0.0,0.2,-1.4000000000000001,2.6,9.600000000000001,-0.8,-0.9000000000000001,0.9000000000000001,16
968,16284.0,0.1,0.0,0.1,-1.4000000000000001,2.6,9.600000000000001,1.6,0.30000000000000004,0.4,16
969,16302.0,0.0,0.0,0.0,-1.5,2.6,9.5,2.0,1.7,-0.1,16
970,16318.0,-0.1,0.0,0.0,-1.5,2.6,9.4,2.1,1.4,0.0,16
971,16335.0,0.0,0.0,-0.1,-1.5,2.6,9.3,1.0,-1.0,0.9000000000000001,16
972,16351.0,0.0,0.0,-0.1,-1.5,2.6,9.3,0.30000000000000004,-1.7,0.9000000000000001,16
973,16372.0,0.0,0.0,-0.1,-1.5,2.6,9.4,-0.8,-1.0,1.1,16
974,16385.0,-0.1,0.0,0.0,-1.5,2.6,9.4,-0.8,-0.2,1.7,16
975,16402.0,0.0,-0.1,0.0,-1.5,2.5,9.4,-0.9000000000000001,-1.4,2.0,16
976,16418.0,0.0,-0.1,0.0,-1.4000000000000001,2.5,9.4,-1.2000000000000002,-1.9,1.9,16
977,16434.0,0.0,-0.1,0.0,-1.5,2.5,9.4,-1.3,-1.7,1.4,16
978,16451.0,0.0,0.0,0.0,-1.4000000000000001,2.6,9.4,-1.1,-2.0,1.4,16
979,16468.0,0.0,-0.1,0.0,-1.4000000000000001,2.5,9.4,-1.3,-1.6,1.5,16
980,16485.0,-0.1,0.0,0.1,-1.5,2.5,9.5,-1.2000000000000002,-1.3,1.7,16
981,16501.0,-0.1,-0.1,0.0,-1.4000000000000001,2.5,9.4,-0.6000000000000001,-3.2,2.8,16
982,16518.0,0.1,0.0,-0.1,-1.3,2.5,9.3,-0.8,-2.8,2.8,16
983,16534.0,0.30000000000000004,-0.1,-0.2,-1.1,2.5,9.200000000000001,-1.6,-1.6,1.4,16
984,16551.0,0.30000000000000004,0.0,-0.2,-1.1,2.5,9.3,-3.3000000000000007,0.8,-1.0,16
985,16568.0,0.30000000000000004,0.0,0.0,-1.1,2.5,9.4,-4.1,1.1,-2.0,16
986,16584.0,0.1,0.1,0.2,-1.3,2.6,9.600000000000001,-4.4,0.4,-2.9,16
987,16601.0,0.2,0.1,0.30000000000000004,-1.2000000000000002,2.6,9.700000000000001,-3.8,-0.4,-2.7,16
988,16618.0,0.30000000000000004,0.1,0.30000000000000004,-1.1,2.6,9.8,-1.6,0.4,-3.3000000000000007,16
989,16635.0,0.30000000000000004,0.1,0.30000000000000004,-1.1,2.6,9.700000000000001,0.6000000000000001,1.7,-4.800000000000001,16
990,16651.0,0.2,0.1,0.2,-1.2000000000000002,2.6,9.600000000000001,1.9,1.6,-6.600000000000001,16
991,16678.0,0.1,0.0,0.1,-1.3,2.5,9.600000000000001,2.4000000000000004,1.5,-7.1000000000000005,16
992,16685.0,0.1,0.0,0.1,-1.3,2.5,9.5,2.4000000000000004,0.9000000000000001,-6.9,16
993,16701.0,0.0,0.0,0.1,-1.4000000000000001,2.5,9.5,2.0,0.4,-6.8,16
994,16718.0,0.1,0.0,0.0,-1.4000000000000001,2.5,9.5,2.0,-0.1,-6.9,16
995,16735.0,0.0,0.0,0.0,-1.5,2.5,9.5,1.4,-0.1,-7.0,16
996,16751.0,-0.2,0.0,-0.1,-1.6,2.5,9.4,1.6,-0.9000000000000001,-6.4,16
997,16770.0,-0.1,0.0,0.0,-1.5,2.5,9.4,1.7,-1.0,-6.0,16
998,16786.0,-0.1,0.0,0.0,-1.5,2.5,9.4,1.6,1.2000000000000002,-6.500000000000001,16
999,16801.0,-0.2,0.0,-0.1,-1.7000000000000002,2.5,9.4,1.9,1.5,-6.4,16
1000,16818.0,-0.2,0.0,-0.1,-1.7000000000000002,2.5,9.3,1.9,0.4,-6.1000000000000005,16
1001,16834.0,-0.2,0.0,-0.30000000000000004,-1.7000000000000002,2.5,9.1,0.9000000000000001,0.2,-5.1000000000000005,16
1002,16851.0,-0.1,0.1,-0.2,-1.6,2.6,9.200000000000001,-1.9,1.5,-4.4,16
1003,16868.0,-0.1,0.1,0.0,-1.6,2.6,9.4,-3.2,1.9,-4.0,16
1004,16885.0,0.0,0.1,0.2,-1.6,2.6,9.600000000000001,-3.8,0.1,-3.5,16
1005,16901.0,0.0,0.1,0.30000000000000004,-1.6,2.6,9.700000000000001,-3.0,-0.30000000000000004,-3.8,16
1006,16918.0,-0.1,0.1,0.2,-1.6,2.6,9.700000000000001,0.1,0.8,-4.5,16
1007,16935.0,-0.1,0.1,0.2,-1.6,2.6,9.600000000000001,2.3,2.0,-3.8,16
1008,16951.0,-0.1,0.1,0.1,-1.7000000000000002,2.6,9.5,2.8,2.7,-2.5,16
1009,16971.0,0.0,0.1,0.0,-1.6,2.6,9.4,2.4000000000000004,1.1,-0.7,16
1010,16985.0,0.0,0.0,-0.1,-1.6,2.6,9.4,1.8000000000000003,0.2,-0.2,16
1011,17001.0,0.0,0.0,0.0,-1.6,2.5,9.4,0.2,-0.7,0.30000000000000004,16
1012,17018.0,0.0,0.0,0.0,-1.6,2.5,9.5,-0.4,-0.2,0.30000000000000004,16
1013,17035.0,-0.1,0.0,0.1,-1.7000000000000002,2.5,9.5,0.4,0.8,0.6000000000000001,16
1014,17051.0,0.0,0.0,0.1,-1.6,2.5,9.5,1.7,0.9000000000000001,1.2000000000000002,16
1015,17068.0,0.0,0.0,0.0,-1.6,2.5,9.4,1.9,0.7,1.1,16
1016,17084.0,0.0,0.0,-0.1,-1.6,2.5,9.3,1.6,0.0,0.9000000000000001,16
1017,17101.0,-0.1,0.0,-0.1,-1.6,2.5,9.3,0.8,-0.30000000000000004,0.8,16
1018,17119.0,0.0,0.0,-0.2,-1.6,2.5,9.3,0.6000000000000001,-0.1,0.8,16
1019,17134.0,0.0,0.0,-0.1,-1.6,2.5,9.200000000000001,0.6000000000000001,1.6,1.0,16
1020,17153.0,-0.1,0.0,-0.2,-1.6,2.5,9.200000000000001,-0.5,1.6,0.9000000000000001,16
1021,17168.0,-0.1,0.0,0.0,-1.7000000000000002,2.6,9.3,-2.5,1.4,1.0,16
1022,17184.0,-0.1,0.1,0.0,-1.7000000000000002,2.6,9.4,-2.9,1.2000000000000002,1.7,16
1023,17201.0,0.0,0.0,0.1,-1.7000000000000002,2.6,9.5,-2.8,0.5,3.1,16
1024,17218.0,0.0,0.0,0.2,-1.6,2.6,9.600000000000001,-2.5,0.5,3.5,16
1025,17234.0,0.1,0.1,0.2,-1.6,2.6,9.600000000000001,-2.0,0.9000000000000001,3.6000000000000005,16
1026,17251.0,0.1,0.0,0.2,-1.5,2.5,9.600000000000001,-0.6000000000000001,1.6,3.7000000000000006,16
1027,17275.0,0.1,0.0,0.0,-1.5,2.6,9.4,0.1,1.7,3.3000000000000007,16
1028,17285.0,0.2,0.0,0.0,-1.4000000000000001,2.6,9.5,-0.5,1.2000000000000002,3.3000000000000007,16
1029,17301.0,0.2,0.0,0.1,-1.4000000000000001,2.6,9.5,-1.7,0.2,3.0,16
1030,17318.0,0.2,0.0,0.2,-1.3,2.5,9.600000000000001,-1.3,-0.5,2.5,16
1031,17335.0,0.2,0.0,0.2,-1.3,2.5,9.600000000000001,-0.6000000000000001,0.4,1.8000000000000003,16
1032,17351.0,0.1,0.0,0.2,-1.4000000000000001,2.6,9.600000000000001,1.4,1.5,0.9000000000000001,16
1033,17369.0,0.1,0.0,0.0,-1.5,2.6,9.5,2.2,0.8,0.30000000000000004,16
1034,17386.0,0.1,0.0,0.0,-1.5,2.6,9.5,1.9,0.4,0.0,16
1035,17401.0,0.0,0.0,0.0,-1.5,2.5,9.4,1.9,0.2,-0.1,16
1036,17418.0,0.0,0.0,-0.1,-1.6,2.5,9.3,1.7,0.0,0.2,16
1037,17434.0,-0.1,0.0,-0.2,-1.6,2.5,9.3,1.1,-0.30000000000000004,0.2,16
1038,17455.0,0.0,0.0,-0.1,-1.6,2.5,9.3,0.0,-0.2,0.6000000000000001,16
1039,17472.0,0.0,0.0,-0.1,-1.5,2.5,9.3,-0.5,0.9000000000000001,1.0,16
1040,17486.0,0.0,0.0,0.0,-1.5,2.5,9.4,-0.7,0.30000000000000004,1.2000000000000002,16
1041,17501.0,0.0,-0.1,0.0,-1.5,2.5,9.4,-1.6,-1.4,0.8,16
1042,17518.0,0.1,0.0,0.1,-1.5,2.5,9.5,-1.4,-0.4,0.2,16
1043,17534.0,0.0,0.0,0.1,-1.5,2.5,9.5,-0.8,1.1,0.0,16
1044,17551.0,0.0,0.0,0.0,-1.6,2.5,9.4,0.8,1.7,0.1,16
1045,17571.0,0.0,0.0,0.0,-1.6,2.6,9.4,-0.8,0.6000000000000001,0.0,16
1046,17585.0,0.0,0.0,0.1,-1.6,2.6,9.5,-1.8000000000000003,0.0,-0.2,16
1047,17601.0,0.0,0.0,0.2,-1.6,2.5,9.600000000000001,-1.4,-0.30000000000000004,-0.5,16
1048,17618.0,0.0,0.0,0.1,-1.6,2.5,9.5,1.1,0.2,0.30000000000000004,16
1049,17634.0,0.0,0.0,0.0,-1.6,2.6,9.5,1.6,0.6000000000000001,0.4,16
1050,17651.0,0.1,0.0,0.0,-1.5,2.6,9.4,0.5,0.8,0.2,16
1051,17669.0,0.0,0.0,0.1,-1.5,2.6,9.5,-0.2,0.2,-0.5,16
1052,17685.0,0.0,0.0,0.1,-1.5,2.6,9.600000000000001,0.4,-0.5,-0.6000000000000001,16
1053,17701.0,0.0,0.0,0.0,-1.6,2.6,9.5,2.2,-1.1,-0.8,16
1054,17718.0,-0.1,0.0,-0.1,-1.6,2.6,9.3,3.1,0.30000000000000004,-0.2,16
1055,17734.0,-0.1,0.0,-0.2,-1.6,2.6,9.200000000000001,2.8,0.8,0.2,16
1056,17751.0,0.0,0.0,-0.2,-1.6,2.6,9.200000000000001,1.0,1.1,0.30000000000000004,16
1057,17768.0,0.0,0.0,-0.2,-1.6,2.5,9.3,-0.6000000000000001,0.2,0.30000000000000004,16
1058,17785.0,0.0,0.0,-0.2,-1.6,2.5,9.3,-1.1,-0.7,0.7,16
1059,17801.0,0.0,0.0,-0.1,-1.6,2.5,9.3,-2.2,0.1,0.4,16
1060,17818.0,0.0,0.0,0.0,-1.5,2.5,9.4,-3.0,1.3,0.2,16
1061,17834.0,0.0,0.0,0.1,-1.5,2.5,9.5,-2.8,0.9000000000000001,0.0,16
1062,17851.0,0.0,0.0,0.1,-1.6,2.5,9.600000000000001,-2.5,0.2,-0.5,16
1063,17871.0,0.0,0.0,0.2,-1.6,2.6,9.600000000000001,-1.7,0.1,-0.7,16
1064,17892.0,0.0,0.0,0.2,-1.6,2.5,9.600000000000001,-0.30000000000000004,1.4,-0.8,16
1065,17901.0,0.0,0.0,0.1,-1.6,2.6,9.600000000000001,0.30000000000000004,1.6,-1.0,16
1066,17918.0,0.0,0.0,0.1,-1.6,2.6,9.5,1.0,1.1,-1.3,16
1067,17934.0,0.0,0.0,0.0,-1.6,2.6,9.4,1.6,-0.1,-0.7,16
1068,17951.0,0.0,0.1,-0.2,-1.6,2.6,9.3,1.4,-0.2,-0.2,16
1069,17970.0,0.0,0.1,-0.2,-1.6,2.6,9.200000000000001,0.0,0.5,0.1,16
1070,17984.0,0.0,0.1,-0.1,-1.6,2.6,9.3,-1.6,0.9000000000000001,0.9000000000000001,16
1071,18001.0,0.0,0.0,-0.1,-1.6,2.6,9.3,-2.0,1.4,1.1,16
1072,18018.0,0.1,0.0,-0.1,-1.5,2.5,9.3,-2.3,0.4,1.3,16
1073,18034.0,0.1,0.0,0.0,-1.5,2.5,9.5,-3.5,-0.30000000000000004,0.2,16
1074,18051.0,0.0,0.0,0.2,-1.6,2.5,9.600000000000001,-3.6000000000000005,-0.2,-0.30000000000000004,16
1075,18072.0,0.0,0.0,0.30000000000000004,-1.6,2.5,9.700000000000001,-1.4,0.2,-0.30000000000000004,16
1076,18086.0,0.0,0.0,0.1,-1.6,2.5,9.600000000000001,0.9000000000000001,0.9000000000000001,-0.8,16
1077,18101.0,0.0,0.0,0.0,-1.6,2.5,9.5,1.4,1.1,-1.2000000000000002,16
1078,18118.0,0.0,0.0,-0.1,-1.6,2.6,9.4,0.9000000000000001,1.3,-1.8000000000000003,16
1079,18134.0,-0.1,0.1,-0.1,-1.7000000000000002,2.6,9.3,0.4,0.5,-1.5,16
1080,18155.0,-0.1,0.1,-0.1,-1.7000000000000002,2.6,9.4,-1.8000000000000003,-0.8,-0.6000000000000001,16
1081,18172.0,-0.1,0.1,0.0,-1.7000000000000002,2.6,9.4,-1.7,-0.6000000000000001,-0.1,16
1082,18186.0,-0.1,0.1,0.0,-1.7000000000000002,2.6,9.4,-1.1,0.0,1.0,16
1083,18201.0,-0.1,0.1,-0.1,-1.7000000000000002,2.6,9.4,-0.9000000000000001,0.2,1.2000000000000002,16
1084,18218.0,0.0,0.1,-0.1,-1.6,2.6,9.3,-1.4,-0.30000000000000004,1.8000000000000003,16
1085,18234.0,0.0,0.0,0.0,-1.6,2.6,9.4,-3.0,-0.1,2.0,16
1086,18251.0,0.0,0.0,0.1,-1.6,2.5,9.5,-3.2,-0.5,2.2,16
1087,18273.0,0.1,0.0,0.2,-1.5,2.5,9.600000000000001,-2.3,-1.7,2.5,16
1088,18285.0,0.1,0.0,0.1,-1.4000000000000001,2.5,9.600000000000001,-1.2000000000000002,-1.1,1.8000000000000003,16
1089,18301.0,0.1,0.0,0.0,-1.4000000000000001,2.5,9.5,-0.8,-2.1,1.5,16
1090,18318.0,0.1,0.0,0.0,-1.4000000000000001,2.5,9.5,-1.7,-2.4000000000000004,0.4,16
1091,18334.0,0.1,0.0,0.2,-1.5,2.5,9.700000000000001,-1.4,-0.30000000000000004,-0.4,16
1092,18351.0,0.1,0.0,0.2,-1.4000000000000001,2.5,9.600000000000001,-0.2,0.1,-0.30000000000000004,16
1093,18369.0,0.1,0.0,0.1,-1.5,2.5,9.600000000000001,1.5,-0.2,-1.3,16
1094,18384.0,-0.1,0.0,0.0,-1.6,2.5,9.5,1.6,-1.0,-2.4000000000000004,16
1095,18402.0,-0.1,0.0,0.0,-1.7000000000000002,2.5,9.5,1.9,-1.0,-2.2,16
1096,18418.0,-0.1,0.0,0.0,-1.6,2.5,9.4,2.7,-0.1,-0.7,16
1097,18434.0,-0.1,0.0,-0.1,-1.6,2.5,9.3,2.2,0.5,-0.1,16
1098,18451.0,0.0,0.0,-0.2,-1.6,2.6,9.3,1.3,0.2,0.0,16
1099,18470.0,-0.1,0.0,0.0,-1.6,2.5,9.4,-1.0,-1.6,0.0,16
1100,18487.0,-0.1,0.0,0.1,-1.6,2.5,9.600000000000001,-0.2,-2.0,0.6000000000000001,16
1101,18501.0,0.0,0.0,0.1,-1.6,2.5,9.5,1.2000000000000002,-1.9,0.8,16
1102,18518.0,0.0,0.0,-0.1,-1.5,2.6,9.4,3.0,0.4,0.9000000000000001,16
1103,18534.0,0.0,0.0,-0.1,-1.5,2.5,9.3,1.9,1.0,0.5,16
1104,18551.0,0.0,0.0,-0.1,-1.6,2.5,9.3,0.7,1.0,0.4,16
1105,18568.0,-0.1,0.0,0.0,-1.6,2.5,9.4,-0.8,-1.2000000000000002,1.3,16
1106,18584.0,0.1,0.0,0.0,-1.4000000000000001,2.5,9.5,-0.8,-2.2,2.0,16
1107,18601.0,0.1,-0.1,0.1,-1.4000000000000001,2.4000000000000004,9.600000000000001,-0.6000000000000001,-1.5,1.5,16
1108,18618.0,0.1,-0.1,0.1,-1.4000000000000001,2.5,9.600000000000001,0.2,0.2,0.30000000000000004,16
1109,18634.0,0.1,-0.1,0.1,-1.4000000000000001,2.4000000000000004,9.600000000000001,0.9000000000000001,0.6000000000000001,-0.2,16
1110,18651.0,0.1,-0.1,0.1,-1.4000000000000001,2.4000000000000004,9.5,1.2000000000000002,0.5,-0.4,16
1111,18668.0,0.1,-0.1,0.0,-1.4000000000000001,2.4000000000000004,9.5,1.1,-0.9000000000000001,-0.8,16
1112,18684.0,0.2,-0.1,-0.1,-1.3,2.4000000000000004,9.4,1.6,-0.9000000000000001,-2.3,16
1113,18701.0,0.1,-0.1,-0.2,-1.4000000000000001,2.4000000000000004,9.200000000000001,1.9,-0.2,-2.9,16
1114,18718.0,0.0,-0.1,-0.1,-1.5,2.4000000000000004,9.4,0.5,3.4,-3.6000000000000005,16
1115,18734.0,-0.2,-0.1,-0.1,-1.7000000000000002,2.4000000000000004,9.4,0.2,0.30000000000000004,-1.3,16
1116,18751.0,0.1,0.0,0.0,-1.4000000000000001,2.5,9.4,-1.7,-3.9,-0.30000000000000004,16
1117,18769.0,0.1,0.0,0.1,-1.4000000000000001,2.5,9.5,-2.2,-3.1,-1.1,16
1118,18787.0,0.0,0.0,0.2,-1.5,2.5,9.700000000000001,-0.30000000000000004,-1.4,-2.0,16
1119,18801.0,-0.1,0.1,0.2,-1.6,2.6,9.600000000000001,2.0,1.3,-1.9,16
1120,18818.0,-0.1,0.1,0.1,-1.6,2.6,9.5,2.7,1.6,-1.6,16
1121,18835.0,0.0,0.0,0.0,-1.6,2.5,9.4,1.9,-0.2,-1.4,16
1122,18851.0,0.0,0.0,-0.1,-1.6,2.5,9.4,0.7,-2.4000000000000004,-1.7,16
1123,18870.0,-0.1,0.0,-0.1,-1.6,2.5,9.4,0.2,-2.3,-1.6,16
1124,18885.0,-0.1,0.0,0.0,-1.6,2.5,9.5,0.30000000000000004,0.1,-1.4,16
1125,18901.0,-0.1,0.0,0.0,-1.6,2.5,9.5,0.9000000000000001,0.8,-0.8,16
1126,18918.0,0.0,-0.1,0.0,-1.6,2.5,9.5,1.3,0.4,-0.7,16
1127,18937.0,0.0,0.0,-0.1,-1.5,2.5,9.4,1.6,-1.1,-1.2000000000000002,16
1128,18951.0,0.0,0.0,-0.2,-1.6,2.5,9.3,1.3,-0.30000000000000004,-1.8000000000000003,16
1129,18968.0,-0.1,0.0,-0.2,-1.6,2.5,9.3,0.9000000000000001,0.5,-1.6,16
1130,18984.0,0.0,0.0,-0.1,-1.6,2.5,9.3,0.2,1.6,-0.7,16
1131,19001.0,0.0,0.0,-0.1,-1.6,2.5,9.3,-1.6,0.2,-0.5,16
1132,19018.0,-0.1,0.0,0.0,-1.6,2.5,9.4,-2.3,-0.7,-0.5,16
1133,19035.0,-0.1,0.1,0.1,-1.6,2.6,9.5,-2.5,-2.3,0.2,16
1134,19051.0,0.0,0.1,0.1,-1.6,2.6,9.5,-1.6,-0.8,0.8,16
1135,19076.0,0.1,0.0,0.1,-1.5,2.5,9.5,-0.5,1.7,0.4,16
1136,19084.0,0.0,0.1,0.1,-1.5,2.6,9.5,0.0,1.9,0.1,16
1137,19101.0,0.0,0.1,0.0,-1.6,2.6,9.4,-0.2,0.1,-0.30000000000000004,16
1138,19119.0,0.0,0.1,0.1,-1.6,2.6,9.5,-1.1,-0.6000000000000001,0.2,16
1139,19134.0,0.0,0.1,0.1,-1.6,2.6,9.600000000000001,-1.2000000000000002,0.2,0.6000000000000001,16
1140,19151.0,0.1,0.1,0.1,-1.5,2.6,9.600000000000001,0.0,0.5,1.2000000000000002,16
1141,19168.0,0.1,0.0,0.1,-1.4000000000000001,2.6,9.5,0.6000000000000001,-0.2,0.9000000000000001,16
1142,19185.0,0.1,0.1,-0.1,-1.4000000000000001,2.6,9.4,0.6000000000000001,-2.7,0.1,16
1143,19201.0,0.0,0.0,0.0,-1.5,2.6,9.4,-0.6000000000000001,-1.6,-0.7,16
1144,19219.0,0.0,0.0,0.1,-1.5,2.5,9.5,0.9000000000000001,2.2,0.30000000000000004,16
1145,19234.0,0.0,0.0,0.0,-1.5,2.5,9.5,1.6,2.9,0.8,16
1146,19252.0,0.1,0.0,-0.1,-1.4000000000000001,2.5,9.4,0.6000000000000001,1.6,0.30000000000000004,16
1147,19275.0,0.0,0.0,0.0,-1.5,2.5,9.5,-1.5,-2.2,-1.3,16
1148,19284.0,0.0,0.0,0.1,-1.5,2.5,9.5,-1.2000000000000002,-2.3,-1.8000000000000003,16
1149,19301.0,-0.1,0.0,0.1,-1.6,2.5,9.5,2.2,0.9000000000000001,-1.6,16
1150,19318.0,-0.2,0.0,-0.1,-1.6,2.5,9.200000000000001,3.9,2.2,-1.1,16
1151,19334.0,-0.1,0.0,-0.4,-1.6,2.6,9.0,3.7000000000000006,1.9,0.2,16
1152,19351.0,-0.1,0.0,-0.4,-1.7000000000000002,2.6,9.0,-0.4,1.0,0.8,16
1153,19368.0,-0.1,0.0,-0.30000000000000004,-1.6,2.6,9.200000000000001,-2.6,-0.1,1.3,16
1154,19384.0,0.0,0.0,-0.1,-1.5,2.5,9.3,-5.0,-0.9000000000000001,2.4000000000000004,16
1155,19401.0,0.1,0.0,0.1,-1.5,2.5,9.5,-4.800000000000001,0.9000000000000001,1.9,16
1156,19418.0,0.1,0.0,0.2,-1.5,2.5,9.700000000000001,-3.6000000000000005,1.3,1.1,16
1157,19434.0,0.0,0.0,0.30000000000000004,-1.5,2.5,9.700000000000001,-3.0,1.4,0.8,16
1158,19451.0,0.0,0.0,0.30000000000000004,-1.5,2.5,9.700000000000001,-1.4,0.2,0.8,16
1159,19468.0,0.1,0.1,0.2,-1.4000000000000001,2.6,9.700000000000001,-0.4,0.4,0.30000000000000004,16
1160,19484.0,0.1,0.0,0.30000000000000004,-1.4000000000000001,2.5,9.700000000000001,0.2,0.8,-0.2,16
1161,19501.0,0.1,0.1,0.2,-1.5,2.6,9.600000000000001,1.4,0.5,-0.8,16
1162,19517.0,0.1,0.1,0.1,-1.5,2.6,9.5,2.0,-0.2,-0.7,16
1163,19534.0,0.1,0.1,0.0,-1.4000000000000001,2.6,9.4,2.3,-0.30000000000000004,-0.6000000000000001,16
1164,19551.0,0.1,0.0,-0.1,-1.4000000000000001,2.6,9.4,2.1,1.1,-1.3,16
1165,19568.0,0.0,0.0,-0.1,-1.5,2.5,9.3,1.7,1.2000000000000002,-1.6,16
1166,19584.0,0.0,0.0,-0.1,-1.5,2.5,9.3,0.30000000000000004,0.30000000000000004,-1.4,16
1167,19601.0,0.0,-0.1,0.0,-1.6,2.5,9.4,-0.9000000000000001,-0.6000000000000001,-1.1,16
1168,19618.0,-0.1,0.0,0.1,-1.6,2.5,9.5,-0.9000000000000001,-0.2,-0.7,16
1169,19634.0,-0.1,-0.1,0.1,-1.6,2.5,9.5,0.0,-0.30000000000000004,-0.30000000000000004,16
1170,19651.0,0.0,-0.1,0.0,-1.6,2.4000000000000004,9.4,1.3,0.8,-0.5,16
1171,19675.0,0.0,0.0,-0.1,-1.5,2.5,9.4,0.8,1.0,-1.6,16
1172,19684.0,0.0,0.0,-0.1,-1.6,2.5,9.4,-0.1,0.5,-2.0,16
1173,19701.0,-0.2,0.0,0.0,-1.7000000000000002,2.5,9.5,-0.9000000000000001,-0.2,-1.8000000000000003,16
1174,19718.0,-0.1,0.0,0.0,-1.7000000000000002,2.5,9.4,0.1,0.2,-0.30000000000000004,16
1175,19734.0,-0.1,0.0,0.0,-1.6,2.5,9.4,0.7,0.30000000000000004,0.1,16
1176,19751.0,0.0,0.0,-0.1,-1.5,2.6,9.4,0.5,1.4,-0.7,16
1177,19769.0,-0.1,0.1,0.0,-1.7000000000000002,2.6,9.4,-0.30000000000000004,1.7,-0.8,16
1178,19785.0,-0.1,0.1,0.0,-1.7000000000000002,2.6,9.5,-0.30000000000000004,0.9000000000000001,-0.1,16
1179,19801.0,-0.1,0.0,0.0,-1.7000000000000002,2.6,9.5,-0.2,-0.5,1.5,16
1180,19818.0,0.0,0.0,0.0,-1.6,2.5,9.4,0.2,0.1,2.4000000000000004,16
1181,19834.0,0.1,0.0,-0.1,-1.5,2.5,9.4,0.1,0.6000000000000001,2.3,16
1182,19851.0,0.1,0.0,-0.1,-1.5,2.5,9.4,-0.8,1.1,1.2000000000000002,16
1183,19868.0,0.0,0.0,0.0,-1.6,2.5,9.4,-2.0,0.0,0.7,16
1184,19884.0,0.0,0.0,0.1,-1.6,2.5,9.5,-2.5,-0.30000000000000004,0.6000000000000001,16
1185,19901.0,0.0,-0.1,0.1,-1.5,2.4000000000000004,9.600000000000001,-1.1,0.0,0.9000000000000001,16
1186,19918.0,0.1,0.0,0.0,-1.5,2.5,9.4,0.6000000000000001,0.7,0.2,16
1187,19934.0,0.1,0.0,-0.1,-1.5,2.5,9.3,0.8,1.4,-0.30000000000000004,16
1188,19951.0,0.0,0.0,-0.1,-1.6,2.5,9.3,-0.2,1.4,-0.8,16
1189,19971.0,-0.1,0.0,-0.1,-1.7000000000000002,2.5,9.4,-2.2,1.4,0.0,16
1190,19985.0,0.0,0.0,0.0,-1.6,2.5,9.4,-2.8,0.2,0.6000000000000001,16
1191,20001.0,0.0,0.0,0.1,-1.6,2.5,9.5,-3.2,-0.9000000000000001,0.6000000000000001,16
1192,20018.0,0.0,0.0,0.1,-1.6,2.5,9.5,-1.8000000000000003,0.4,0.0,16
1193,20035.0,0.0,0.0,0.1,-1.6,2.5,9.5,-1.1,1.6,-0.1,16
1194,20051.0,-0.1,0.0,0.0,-1.7000000000000002,2.5,9.5,-0.7,1.3,0.5,16
1195,20068.0,0.0,-0.1,0.0,-1.6,2.4000000000000004,9.5,-1.7,-0.5,0.9000000000000001,16
1196,20084.0,0.0,0.0,0.0,-1.6,2.4000000000000004,9.5,-1.9,-1.7,0.9000000000000001,16
1197,20101.0,0.0,0.0,0.0,-1.6,2.4000000000000004,9.5,-1.8000000000000003,-1.6,0.7,16
1198,20118.0,0.0,0.0,0.1,-1.6,2.4000000000000004,9.5,0.0,0.0,0.6000000000000001,16
1199,20134.0,0.0,0.0,0.0,-1.6,2.5,9.5,0.7,0.7,0.9000000000000001,16
1200,20151.0,0.0,0.0,-0.1,-1.6,2.5,9.3,0.8,0.2,1.7,16
1201,20168.0,0.1,0.0,-0.2,-1.5,2.5,9.200000000000001,-1.4,-0.6000000000000001,1.4,16
1202,20184.0,0.0,0.0,-0.1,-1.5,2.5,9.3,-2.7,-0.6000000000000001,1.1,16
1203,20201.0,0.0,0.0,0.1,-1.6,2.5,9.5,-3.8,-0.30000000000000004,1.2000000000000002,16
1204,20218.0,0.0,0.0,0.2,-1.6,2.4000000000000004,9.700000000000001,-2.5,-0.5,2.5,16
1205,20234.0,0.1,0.0,0.2,-1.4000000000000001,2.4000000000000004,9.700000000000001,-1.9,-0.6000000000000001,2.8,16
1206,20251.0,0.2,0.0,0.2,-1.4000000000000001,2.4000000000000004,9.700000000000001,-0.5,-0.5,1.6,16
1207,20275.0,0.1,0.0,0.0,-1.4000000000000001,2.4000000000000004,9.5,0.8,-1.1,-0.1,16
1208,20285.0,0.1,0.0,0.0,-1.4000000000000001,2.4000000000000004,9.5,1.1,-0.7,-0.8,16
1209,20301.0,0.1,-0.1,-0.1,-1.5,2.4000000000000004,9.4,1.1,-0.1,-1.4,16
1210,20318.0,0.0,-0.1,-0.1,-1.6,2.4000000000000004,9.4,0.6000000000000001,0.5,-1.8000000000000003,16
1211,20334.0,-0.1,-0.1,0.0,-1.7000000000000002,2.4000000000000004,9.4,0.30000000000000004,0.0,-1.1,16
1212,20351.0,-0.1,0.0,-0.1,-1.6,2.4000000000000004,9.4,0.5,-0.8,-0.4,16
1213,20368.0,0.0,0.0,-0.1,-1.5,2.4000000000000004,9.3,-0.1,-0.7,0.0,16
1214,20384.0,0.0,0.0,-0.1,-1.6,2.4000000000000004,9.3,-1.5,-0.8,-0.6000000000000001,16
1215,20401.0,-0.1,0.0,0.0,-1.6,2.4000000000000004,9.4,-2.0,-0.8,-0.7,16
1216,20418.0,-0.1,0.0,0.0,-1.7000000000000002,2.4000000000000004,9.5,-2.0,0.0,0.30000000000000004,16
1217,20434.0,0.0,0.0,0.0,-1.6,2.4000000000000004,9.5,-2.0,-0.5,1.4,16
1218,20451.0,0.0,0.0,0.0,-1.5,2.4000000000000004,9.5,-2.3,-0.9000000000000001,1.2000000000000002,16
1219,20467.0,0.1,0.0,0.2,-1.5,2.4000000000000004,9.600000000000001,-2.8,-0.8,0.2,16
1220,20484.0,0.0,0.0,0.2,-1.5,2.4000000000000004,9.700000000000001,-1.1,0.4,-0.5,16
1221,20501.0,0.0,0.0,0.1,-1.6,2.4000000000000004,9.600000000000001,-0.2,0.1,-0.30000000000000004,16
1222,20517.0,0.1,0.0,0.0,-1.5,2.4000000000000004,9.5,0.4,-0.6000000000000001,-0.6000000000000001,16
1223,20534.0,0.0,0.0,0.0,-1.5,2.4000000000000004,9.5,0.0,0.5,-0.6000000000000001,16
1224,20551.0,0.0,0.0,0.0,-1.5,2.4000000000000004,9.5,0.0,0.4,-0.30000000000000004,16
1225,20568.0,0.1,0.0,0.0,-1.5,2.4000000000000004,9.5,-0.5,-1.0,0.0,16
1226,20587.0,0.1,0.0,0.0,-1.5,2.4000000000000004,9.5,-0.30000000000000004,-0.5,-0.7,16
1227,20602.0,0.0,0.0,0.1,-1.6,2.4000000000000004,9.600000000000001,0.2,0.0,-0.8,16
1228,20618.0,-0.1,0.0,0.0,-1.6,2.4000000000000004,9.5,0.8,0.8,-0.2,16
1229,20634.0,0.0,0.0,0.0,-1.5,2.4000000000000004,9.5,0.0,-0.9000000000000001,0.5,16
1230,20651.0,0.0,0.0,0.0,-1.5,2.4000000000000004,9.5,-0.5,-1.4,0.1,16
1231,20668.0,0.0,0.0,0.1,-1.5,2.4000000000000004,9.600000000000001,0.2,-1.3,-0.7,16
1232,20684.0,-0.1,0.0,0.0,-1.6,2.4000000000000004,9.5,1.3,0.30000000000000004,-0.8,16
1233,20701.0,-0.1,0.0,0.0,-1.6,2.4000000000000004,9.5,1.6,0.6000000000000001,-0.6000000000000001,16
1234,20718.0,0.0,0.0,0.0,-1.6,2.4000000000000004,9.5,1.0,0.2,-0.5,16
1235,20734.0,0.0,0.0,0.0,-1.6,2.4000000000000004,9.4,0.9000000000000001,-0.30000000000000004,-0.8,16
1236,20751.0,0.0,0.0,0.0,-1.6,2.4000000000000004,9.5,1.3,-0.2,-0.8,16
1237,20768.0,0.0,0.0,-0.1,-1.6,2.4000000000000004,9.3,1.2000000000000002,0.7,-0.1,16
1238,20785.0,0.0,0.0,-0.1,-1.6,2.4000000000000004,9.4,-0.6000000000000001,1.1,0.7,16
1239,20804.0,0.0,0.0,0.1,-1.5,2.4000000000000004,9.600000000000001,-1.9,-0.2,0.8,16
1240,20818.0,0.0,0.0,0.2,-1.5,2.4000000000000004,9.600000000000001,-1.6,-0.9000000000000001,0.6000000000000001,16
1241,20835.0,0.0,0.0,0.1,-1.5,2.4000000000000004,9.600000000000001,0.6000000000000001,-1.3,0.8,16
1242,20851.0,0.1,0.0,0.1,-1.4000000000000001,2.4000000000000004,9.5,1.6,-0.6000000000000001,0.8,16
1243,20874.0,0.1,0.0,0.0,-1.5,2.4000000000000004,9.5,1.9,1.5,0.1,16
1244,20884.0,0.0,-0.1,0.0,-1.5,2.3000000000000003,9.5,1.7,0.6000000000000001,-0.8,16
1245,20901.0,0.0,0.0,0.0,-1.6,2.4000000000000004,9.5,1.6,-0.2,-0.8,16
1246,20918.0,0.0,0.0,0.0,-1.5,2.4000000000000004,9.5,1.6,-1.6,-0.30000000000000004,16
1247,20934.0,-0.1,0.0,0.0,-1.6,2.4000000000000004,9.5,1.4,-0.2,0.0,16
1248,20951.0,0.0,0.0,0.0,-1.5,2.4000000000000004,9.5,1.6,0.0,0.1,16
1249,20968.0,0.0,0.0,-0.1,-1.5,2.5,9.4,2.6,-0.2,0.4,16
1250,20984.0,0.0,0.0,-0.2,-1.5,2.4000000000000004,9.3,2.0,-0.2,0.1,16
1251,21001.0,0.0,0.0,-0.2,-1.6,2.4000000000000004,9.3,0.2,0.0,-0.30000000000000004,16
1252,21017.0,0.0,0.0,-0.1,-1.6,2.4000000000000004,9.4,-0.7,0.4,0.1,16
1253,21034.0,0.0,0.0,0.1,-1.6,2.4000000000000004,9.5,-1.3,0.30000000000000004,0.8,16
1254,21051.0,0.0,0.0,0.1,-1.5,2.4000000000000004,9.5,-0.2,0.5,0.9000000000000001,16
1255,21068.0,0.1,-0.1,0.0,-1.4000000000000001,2.4000000000000004,9.5,0.4,-0.1,0.8,16
1256,21084.0,0.1,0.0,0.0,-1.5,2.4000000000000004,9.5,0.2,0.0,-0.9000000000000001,16
1257,21101.0,0.0,0.0,0.1,-1.5,2.4000000000000004,9.600000000000001,0.2,-0.1,-1.4,16
1258,21118.0,0.0,0.0,0.1,-1.6,2.4000000000000004,9.5,1.4,0.9000000000000001,-1.9,16
1259,21135.0,-0.1,0.0,-0.1,-1.7000000000000002,2.4000000000000004,9.4,2.5,0.8,-1.3,16
1260,21152.0,-0.1,0.0,-0.2,-1.6,2.5,9.3,1.9,0.7,-0.2,16
1261,21178.0,-0.1,0.0,-0.2,-1.6,2.4000000000000004,9.3,-0.30000000000000004,0.6000000000000001,0.8,16
1262,21185.0,0.0,0.1,-0.2,-1.6,2.5,9.3,-1.6,-0.30000000000000004,1.1,16
1263,21201.0,-0.1,0.0,0.0,-1.6,2.5,9.5,-2.8,-1.1,1.1,16
1264,21217.0,-0.1,0.0,0.1,-1.6,2.5,9.600000000000001,-2.2,-0.8,1.2000000000000002,16
1265,21234.0,0.0,0.0,0.1,-1.6,2.4000000000000004,9.600000000000001,0.2,0.5,1.7,16
1266,21251.0,-0.1,0.0,0.0,-1.7000000000000002,2.4000000000000004,9.4,1.1,1.6,2.0,16
1267,21268.0,0.0,0.0,-0.1,-1.6,2.5,9.4,0.8,0.8,2.1,16
1268,21285.0,0.1,0.0,0.0,-1.5,2.4000000000000004,9.4,-1.1,0.6000000000000001,1.5,16
1269,21301.0,0.1,-0.1,0.0,-1.5,2.4000000000000004,9.4,-1.3,-0.4,0.7,16
1270,21318.0,0.0,-0.1,0.0,-1.5,2.4000000000000004,9.5,-1.4,0.0,0.1,16
1271,21334.0,0.0,0.0,0.1,-1.6,2.4000000000000004,9.5,-1.0,0.30000000000000004,0.1,16
1272,21351.0,0.0,0.0,0.1,-1.5,2.4000000000000004,9.600000000000001,-0.1,1.8000000000000003,0.6000000000000001,16
1273,21367.0,0.0,0.0,0.1,-1.5,2.4000000000000004,9.5,0.1,1.3,0.5,16
1274,21385.0,0.1,0.1,0.0,-1.5,2.5,9.5,-0.30000000000000004,-0.6000000000000001,0.1,16
1275,21401.0,0.0,0.1,0.0,-1.5,2.5,9.5,0.0,-0.5,-0.30000000000000004,16
1276,21417.0,0.0,0.1,0.0,-1.5,2.5,9.5,0.2,0.1,-0.2,16
1277,21434.0,0.0,0.0,0.0,-1.6,2.5,9.4,0.5,1.1,-0.1,16
1278,21451.0,0.0,0.1,-0.1,-1.6,2.5,9.4,-0.2,0.9000000000000001,0.2,16
1279,21468.0,-0.1,0.1,0.0,-1.6,2.5,9.4,-0.9000000000000001,0.9000000000000001,0.5,16
1280,21486.0,0.0,0.0,0.1,-1.6,2.4000000000000004,9.5,-1.3,-0.1,1.4,16
1281,21501.0,0.0,0.0,0.1,-1.5,2.4000000000000004,9.600000000000001,-0.30000000000000004,0.5,0.9000000000000001,16
1282,21517.0,0.1,0.0,0.1,-1.5,2.4000000000000004,9.600000000000001,0.0,-0.30000000000000004,0.4,16
1283,21534.0,0.0,0.0,0.0,-1.6,2.4000000000000004,9.5,0.30000000000000004,0.0,-0.8,16
1284,21551.0,-0.1,0.0,0.0,-1.6,2.4000000000000004,9.5,0.9000000000000001,0.9000000000000001,-0.5,16
1285,21568.0,-0.1,0.0,0.0,-1.7000000000000002,2.5,9.5,1.0,1.3,0.0,16
1286,21584.0,0.0,0.0,0.0,-1.6,2.5,9.4,0.8,-0.5,1.3,16
1287,21601.0,0.1,0.0,-0.1,-1.4000000000000001,2.5,9.4,0.0,-0.5,0.7,16
1288,21618.0,0.1,0.0,-0.1,-1.5,2.4000000000000004,9.4,0.1,0.2,-0.2,16
1289,21634.0,0.0,0.0,-0.1,-1.6,2.5,9.4,0.6000000000000001,0.6000000000000001,-0.30000000000000004,16
1290,21651.0,0.0,0.0,-0.1,-1.6,2.5,9.3,-0.30000000000000004,0.30000000000000004,0.6000000000000001,16
1291,21668.0,0.1,0.0,0.0,-1.5,2.5,9.5,-1.3,0.7,1.0,16
1292,21685.0,0.1,0.0,0.1,-1.5,2.4000000000000004,9.5,-2.2,0.30000000000000004,0.9000000000000001,16
1293,21701.0,0.1,0.0,0.2,-1.5,2.4000000000000004,9.600000000000001,-1.2000000000000002,-1.3,0.0,16
1294,21718.0,0.1,0.0,0.1,-1.5,2.5,9.600000000000001,-0.30000000000000004,-1.3,-0.4,16
1295,21734.0,0.0,0.1,0.1,-1.6,2.5,9.5,1.7,0.2,-1.1,16
1296,21751.0,-0.1,0.1,0.0,-1.6,2.5,9.5,2.2,0.6000000000000001,-0.8,16
1297,21770.0,-0.1,0.1,-0.1,-1.6,2.5,9.3,2.2,0.6000000000000001,-0.4,16
1298,21784.0,0.0,0.1,-0.2,-1.5,2.5,9.3,1.3,-0.9000000000000001,0.5,16
1299,21801.0,0.1,0.0,-0.1,-1.5,2.5,9.3,-1.0,-0.5,0.4,16
1300,21817.0,0.0,0.0,0.1,-1.6,2.5,9.5,-1.9,-0.30000000000000004,0.2,16
1301,21834.0,0.0,0.0,0.1,-1.6,2.5,9.600000000000001,-1.4,-1.1,0.6000000000000001,16
1302,21851.0,0.0,0.0,0.0,-1.5,2.4000000000000004,9.5,-0.2,-4.2,1.4,16
1303,21868.0,0.1,0.0,0.0,-1.4000000000000001,2.5,9.5,-1.0,-3.3000000000000007,0.2,16
1304,21885.0,0.0,0.0,0.1,-1.5,2.5,9.600000000000001,-1.0,-0.8,-0.9000000000000001,16
1305,21901.0,-0.1,0.0,0.2,-1.7000000000000002,2.4000000000000004,9.700000000000001,2.0,2.4000000000000004,-1.6,16
1306,21917.0,-0.1,0.0,-0.1,-1.7000000000000002,2.5,9.4,3.8,1.0,-0.8,16
1307,21934.0,-0.1,0.0,-0.2,-1.7000000000000002,2.5,9.3,2.8,-0.5,-0.30000000000000004,16
1308,21951.0,-0.2,0.0,-0.2,-1.7000000000000002,2.5,9.3,-0.9000000000000001,-2.2,0.6000000000000001,16
1309,21968.0,-0.1,0.0,0.0,-1.6,2.5,9.5,-3.4,-4.2,1.7,16
1310,21985.0,-0.1,0.0,0.1,-1.6,2.5,9.600000000000001,-3.2,-2.7,1.5,16
1311,22001.0,0.0,0.0,0.2,-1.6,2.5,9.700000000000001,0.4,1.0,1.5,16
1312,22017.0,0.0,0.0,0.1,-1.6,2.5,9.5,3.4,1.6,1.9,16
1313,22034.0,0.0,0.0,-0.2,-1.5,2.5,9.3,3.4,0.6000000000000001,2.0,16
1314,22051.0,0.1,0.0,-0.2,-1.5,2.5,9.200000000000001,1.1,-0.9000000000000001,1.9,16
1315,22076.0,0.1,0.0,-0.2,-1.4000000000000001,2.5,9.3,-0.9000000000000001,-1.0,2.0,16
1316,22085.0,0.1,0.0,-0.1,-1.4000000000000001,2.5,9.3,-1.3,-0.7,1.9,16
1317,22101.0,0.1,0.0,0.0,-1.4000000000000001,2.4000000000000004,9.5,-1.4,-0.1,1.4,16
1318,22117.0,0.1,0.0,0.0,-1.4000000000000001,2.4000000000000004,9.5,-0.6000000000000001,-0.30000000000000004,0.9000000000000001,16
1319,22134.0,0.1,0.0,0.1,-1.4000000000000001,2.4000000000000004,9.5,-0.6000000000000001,-0.8,0.8,16
1320,22151.0,0.1,0.0,0.1,-1.4000000000000001,2.4000000000000004,9.600000000000001,-0.5,-0.30000000000000004,0.0,16
1321,22168.0,0.2,0.0,0.1,-1.3,2.4000000000000004,9.600000000000001,0.0,-0.30000000000000004,-0.30000000000000004,16
1322,22184.0,0.2,0.0,0.1,-1.3,2.4000000000000004,9.600000000000001,0.2,-0.2,-0.8,16
1323,22201.0,0.2,0.0,0.1,-1.3,2.4000000000000004,9.600000000000001,0.8,-0.9000000000000001,-2.1,16
1324,22219.0,0.0,0.0,0.0,-1.5,2.4000000000000004,9.5,1.9,-1.1,-3.2,16
1325,22234.0,0.0,0.0,0.0,-1.5,2.5,9.5,2.2,-0.9000000000000001,-3.3000000000000007,16
1326,22251.0,-0.1,0.0,0.0,-1.6,2.5,9.5,2.0,0.30000000000000004,-2.9,16
1327,22267.0,0.0,0.1,0.0,-1.5,2.5,9.5,2.2,0.2,-2.2,16
1328,22284.0,-0.1,0.1,0.0,-1.6,2.6,9.4,2.5,0.0,-2.2,16
1329,22303.0,-0.1,0.1,-0.2,-1.7000000000000002,2.6,9.3,2.0,-1.3,-1.6,16
1330,22320.0,-0.1,0.1,-0.1,-1.6,2.6,9.3,0.30000000000000004,-0.8,-0.30000000000000004,16
1331,22334.0,-0.1,0.0,-0.1,-1.5,2.5,9.4,-0.2,-0.1,0.4,16
1332,22351.0,0.0,0.0,0.0,-1.5,2.5,9.5,-0.30000000000000004,-0.2,0.8,16
1333,22368.0,0.0,0.0,0.0,-1.5,2.5,9.5,0.1,-0.8,0.1,16
1334,22385.0,0.1,0.0,0.0,-1.4000000000000001,2.4000000000000004,9.5,0.30000000000000004,-1.0,-0.2,16
1335,22401.0,0.1,-0.1,-0.1,-1.4000000000000001,2.4000000000000004,9.4,1.4,-0.2,-0.7,16
1336,22418.0,0.1,0.0,-0.2,-1.4000000000000001,2.5,9.3,1.2000000000000002,1.4,-1.0,16
1337,22434.0,0.1,0.0,0.0,-1.4000000000000001,2.5,9.4,0.0,1.6,-1.1,16
1338,22451.0,0.1,0.0,0.1,-1.4000000000000001,2.5,9.5,-2.6,-0.1,-1.2000000000000002,16
1339,22467.0,0.1,-0.1,0.2,-1.4000000000000001,2.4000000000000004,9.700000000000001,-2.1,-1.7,-1.7,16
1340,22484.0,0.1,0.0,0.2,-1.5,2.5,9.700000000000001,-0.9000000000000001,-1.9,-2.3,16
1341,22501.0,0.0,0.0,0.1,-1.5,2.5,9.600000000000001,1.8000000000000003,-0.2,-3.2,16
1342,22517.0,-0.2,0.1,0.1,-1.7000000000000002,2.6,9.600000000000001,3.0,1.4,-2.2,16
1343,22534.0,-0.1,0.0,-0.1,-1.6,2.5,9.4,3.3000000000000007,1.1,-1.4,16
1344,22551.0,0.0,0.0,-0.2,-1.5,2.6,9.3,2.7,-0.9000000000000001,-0.2,16
1345,22571.0,0.0,0.0,-0.2,-1.5,2.5,9.3,0.2,-1.3,-0.7,16
1346,22585.0,-0.1,0.0,0.0,-1.6,2.5,9.4,-1.1,-0.9000000000000001,-0.1,16
1347,22601.0,-0.1,0.0,0.1,-1.6,2.5,9.5,-0.8,-0.8,0.5,16
1348,22617.0,0.0,-0.1,0.1,-1.6,2.5,9.5,0.9000000000000001,-0.2,1.5,16
1349,22634.0,0.0,0.0,0.0,-1.5,2.5,9.4,1.5,0.2,1.0,16
1350,22651.0,0.0,0.0,0.0,-1.5,2.5,9.4,1.3,-0.2,0.6000000000000001,16
1351,22670.0,-0.1,0.0,-0.1,-1.6,2.5,9.4,0.9000000000000001,-1.1,0.0,16
1352,22685.0,-0.1,0.0,-0.1,-1.6,2.5,9.4,1.2000000000000002,-0.2,0.5,16
1353,22701.0,-0.1,0.0,-0.1,-1.6,2.5,9.4,1.5,0.7,0.8,16
1354,22718.0,-0.1,0.0,-0.1,-1.6,2.5,9.3,1.4,1.1,1.5,16
1355,22734.0,0.0,0.0,-0.2,-1.5,2.6,9.3,-0.30000000000000004,-0.2,2.1,16
1356,22751.0,0.0,0.0,-0.2,-1.5,2.5,9.3,-1.4,-0.2,2.0,16
1357,22769.0,0.0,0.0,0.0,-1.5,2.5,9.4,-2.4000000000000004,0.0,2.3,16
1358,22784.0,0.0,0.0,0.1,-1.5,2.5,9.5,-1.5,0.9000000000000001,2.6,16
1359,22801.0,0.0,0.0,0.0,-1.5,2.5,9.5,-1.1,0.8,3.1,16
1360,22817.0,0.1,0.0,0.0,-1.4000000000000001,2.5,9.5,-0.8,-0.30000000000000004,3.3000000000000007,16
1361,22834.0,0.1,0.0,0.0,-1.4000000000000001,2.5,9.5,-1.0,0.0,2.9,16
1362,22851.0,0.2,0.0,0.0,-1.3,2.5,9.4,-0.9000000000000001,-0.2,2.7,16
1363,22868.0,0.1,0.0,0.0,-1.3,2.5,9.4,-0.6000000000000001,0.30000000000000004,2.0,16
1364,22884.0,0.1,0.0,0.0,-1.4000000000000001,2.5,9.4,-0.6000000000000001,0.6000000000000001,1.4,16
1365,22901.0,0.1,0.0,0.0,-1.4000000000000001,2.5,9.4,-0.8,0.6000000000000001,1.3,16
1366,22918.0,0.1,0.0,0.0,-1.4000000000000001,2.5,9.4,-1.2000000000000002,-0.2,1.6,16
1367,22935.0,0.1,0.0,0.0,-1.3,2.5,9.5,-1.5,-0.6000000000000001,1.5,16
1368,22952.0,0.2,0.0,0.1,-1.3,2.5,9.5,-1.4,-0.30000000000000004,1.1,16
1369,22968.0,0.1,0.0,0.0,-1.3,2.5,9.5,-0.6000000000000001,0.4,-0.2,16
1370,22984.0,0.1,0.0,0.0,-1.4000000000000001,2.5,9.5,-0.6000000000000001,0.0,-0.7,16
1371,23001.0,0.1,0.0,0.0,-1.4000000000000001,2.5,9.5,-0.8,-0.5,-0.9000000000000001,16
1372,23017.0,0.0,0.0,0.1,-1.4000000000000001,2.5,9.5,-1.0,-0.30000000000000004,-1.1,16
1373,23034.0,0.0,0.0,0.0,-1.5,2.5,9.5,0.0,0.30000000000000004,-0.7,16
1374,23051.0,0.0,0.0,0.0,-1.4000000000000001,2.5,9.5,0.1,0.30000000000000004,-0.30000000000000004,16
1375,23068.0,0.1,0.0,0.0,-1.4000000000000001,2.5,9.4,-0.7,-0.1,-0.6000000000000001,16
1376,23084.0,0.0,0.0,0.0,-1.4000000000000001,2.5,9.5,-1.8000000000000003,-1.2000000000000002,-1.6,16
1377,23101.0,-0.1,0.0,0.1,-1.6,2.5,9.600000000000001,-1.7,-1.5,-1.9,16
1378,23117.0,-0.2,0.0,0.2,-1.6,2.5,9.600000000000001,0.2,0.0,-1.6,16
1379,23134.0,-0.1,0.0,0.0,-1.5,2.5,9.4,2.2,1.4,-0.1,16
1380,23151.0,-0.1,0.0,-0.1,-1.5,2.5,9.3,0.1,0.4,-0.1,16
1381,23170.0,0.0,0.0,-0.1,-1.5,2.5,9.4,-1.6,-0.9000000000000001,-0.8,16
1382,23185.0,-0.1,0.0,0.2,-1.5,2.5,9.600000000000001,-2.2,-1.1,-1.3,16
1383,23204.0,-0.1,0.0,0.2,-1.6,2.5,9.600000000000001,0.8,0.2,-0.30000000000000004,16
1384,23217.0,0.0,0.0,0.1,-1.5,2.5,9.5,1.9,0.5,0.0,16
1385,23235.0,0.0,0.0,-0.1,-1.4000000000000001,2.5,9.4,2.5,0.5,-0.5,16
1386,23252.0,0.0,0.0,-0.2,-1.5,2.5,9.3,2.0,0.6000000000000001,-0.8,16
1387,23269.0,0.0,0.0,-0.2,-1.5,2.5,9.200000000000001,0.2,0.7,-0.30000000000000004,16
1388,23284.0,-0.1,0.0,-0.1,-1.6,2.5,9.4,-2.3,0.30000000000000004,0.5,16
1389,23301.0,0.0,0.0,0.0,-1.5,2.4000000000000004,9.5,-3.6000000000000005,-0.5,1.5,16
1390,23317.0,0.0,0.0,0.1,-1.4000000000000001,2.4000000000000004,9.600000000000001,-3.1,-1.1,1.7,16
1391,23335.0,0.1,0.0,0.2,-1.4000000000000001,2.4000000000000004,9.600000000000001,-0.7,0.1,0.7,16
1392,23351.0,0.0,0.0,0.0,-1.5,2.5,9.5,1.3,1.6,-0.6000000000000001,16
1393,23368.0,0.0,0.0,0.0,-1.5,2.5,9.4,1.4,2.6,-0.7,16
1394,23384.0,-0.1,0.0,0.0,-1.5,2.5,9.4,-0.30000000000000004,1.4,-0.1,16
1395,23401.0,0.0,0.0,0.0,-1.4000000000000001,2.5,9.5,-1.6,-0.5,0.30000000000000004,16
1396,23417.0,0.1,0.0,0.0,-1.4000000000000001,2.5,9.5,-1.7,-0.5,0.0,16
1397,23434.0,0.1,0.0,0.1,-1.4000000000000001,2.5,9.5,-1.0,0.0,-0.8,16
1398,23451.0,0.0,0.0,0.1,-1.5,2.5,9.5,-0.1,1.3,-1.1,16
1399,23468.0,0.0,0.0,0.0,-1.5,2.5,9.5,0.5,1.7,-1.4,16
1400,23484.0,0.0,0.0,0.0,-1.5,2.5,9.5,0.9000000000000001,1.9,-1.2000000000000002,16
1401,23501.0,0.0,0.0,-0.1,-1.5,2.4000000000000004,9.4,0.5,-0.1,-0.8,16
1402,23518.0,0.0,0.0,-0.1,-1.5,2.5,9.4,-0.4,0.1,-0.8,16
1403,23534.0,-0.1,0.0,0.0,-1.6,2.5,9.5,-1.4,0.6000000000000001,-0.8,16
1404,23551.0,-0.1,0.0,0.0,-1.6,2.4000000000000004,9.5,-0.6000000000000001,0.9000000000000001,-0.2,16
1405,23568.0,-0.1,0.0,0.1,-1.6,2.5,9.5,-0.4,1.0,0.1,16
1406,23584.0,-0.1,0.0,0.0,-1.6,2.4000000000000004,9.5,-0.2,0.0,0.1,16
1407,23601.0,-0.1,0.0,-0.1,-1.6,2.4000000000000004,9.4,0.0,0.7,0.1,16
1408,23617.0,-0.1,0.0,-0.1,-1.6,2.5,9.4,0.30000000000000004,0.5,0.4,16
1409,23634.0,-0.1,0.0,-0.1,-1.6,2.5,9.3,-0.2,1.5,0.8,16
1410,23651.0,-0.1,0.0,-0.1,-1.6,2.4000000000000004,9.4,-1.0,0.9000000000000001,1.2000000000000002,16
1411,23667.0,0.0,0.0,-0.1,-1.6,2.5,9.4,-1.4,0.7,1.3,16
1412,23684.0,0.0,0.0,0.0,-1.5,2.5,9.5,-2.2,0.6000000000000001,1.7,16
1413,23701.0,0.1,0.0,0.1,-1.5,2.4000000000000004,9.5,-1.9,0.6000000000000001,2.0,16
1414,23717.0,0.1,0.0,0.1,-1.4000000000000001,2.4000000000000004,9.5,-1.7,0.6000000000000001,2.0,16
1415,23734.0,0.1,0.0,0.1,-1.4000000000000001,2.4000000000000004,9.600000000000001,-1.7,0.4,1.0,16
1416,23751.0,0.1,0.0,0.2,-1.5,2.4000000000000004,9.700000000000001,-1.0,0.0,0.4,16
1417,23767.0,0.1,0.0,0.2,-1.5,2.4000000000000004,9.700000000000001,-0.2,0.0,0.30000000000000004,16
1418,23784.0,0.1,0.0,0.1,-1.4000000000000001,2.4000000000000004,9.600000000000001,1.9,-0.30000000000000004,0.0,16
1419,23801.0,0.1,0.1,0.0,-1.5,2.5,9.5,2.0,0.2,-1.1,16
1420,23817.0,0.0,0.0,0.0,-1.5,2.4000000000000004,9.4,1.8000000000000003,0.2,-1.4,16
1421,23834.0,0.0,0.0,-0.2,-1.5,2.4000000000000004,9.3,1.9,-0.2,-0.8,16
1422,23851.0,0.0,0.0,-0.30000000000000004,-1.5,2.4000000000000004,9.200000000000001,0.6000000000000001,0.6000000000000001,-0.4,16
1423,23871.0,0.0,0.0,-0.1,-1.5,2.4000000000000004,9.3,-1.7,0.6000000000000001,-0.2,16
1424,23884.0,0.0,0.0,0.0,-1.5,2.4000000000000004,9.5,-2.2,0.30000000000000004,-0.4,16
1425,23901.0,-0.1,-0.1,0.0,-1.6,2.4000000000000004,9.5,-0.9000000000000001,-0.30000000000000004,-0.5,16
1426,23917.0,-0.1,0.0,0.1,-1.7000000000000002,2.5,9.5,-0.4,-0.2,-0.1,16
1427,23934.0,-0.1,0.0,0.0,-1.6,2.5,9.5,-0.2,0.9000000000000001,0.1,16
1428,23951.0,-0.1,0.0,0.0,-1.6,2.4000000000000004,9.4,-0.30000000000000004,1.9,0.0,16
1429,23967.0,-0.2,0.0,-0.1,-1.7000000000000002,2.5,9.4,-1.6,1.9,-0.1,16
1430,23984.0,-0.30000000000000004,0.0,0.0,-1.9000000000000001,2.5,9.4,-2.8,1.5,0.2,16
1431,24001.0,-0.5,0.0,0.1,-2.1,2.4000000000000004,9.600000000000001,-4.5,1.9,1.9,16
1432,24018.0,-0.5,0.1,0.2,-2.1,2.5,9.700000000000001,-7.200000000000001,1.4,5.4,16
1433,24034.0,-0.5,0.2,0.30000000000000004,-2.1,2.6,9.8,-9.5,0.9000000000000001,6.1000000000000005,16
1434,24051.0,-0.8,0.2,0.9,-2.4000000000000004,2.6,10.4,-10.5,3.7000000000000006,5.9,16
1435,24068.0,-1.2000000000000002,0.5,1.3,-2.9000000000000004,2.8000000000000003,10.8,-8.2,9.899999999999999,9.0,16
1436,24084.0,-1.3,0.5,1.5,-3.0,2.8000000000000003,11.0,-6.1000000000000005,9.700000000000001,11.3,16
1437,24101.0,-1.7000000000000002,0.6000000000000001,1.6,-3.4000000000000004,2.9000000000000004,11.100000000000001,-0.9000000000000001,8.100000000000001,17.400000000000002,16
1438,24117.0,-1.7000000000000002,0.30000000000000004,1.4000000000000001,-3.4000000000000004,2.7,10.9,6.2,0.9000000000000001,25.8,16
1439,24135.0,-1.5,0.2,1.0,-3.2,2.6,10.600000000000001,10.5,-1.5,30.000000000000004,16
1440,24151.0,-1.1,0.0,0.1,-2.8000000000000003,2.4000000000000004,9.700000000000001,19.700000000000003,-2.3,35.3,16
1441,24168.0,-1.0,-0.2,-0.30000000000000004,-2.6,2.3000000000000003,9.200000000000001,23.0,0.7,37.1,16
1442,24184.0,-0.6000000000000001,-0.4,-1.2000000000000002,-2.3000000000000003,2.2,8.3,24.1,10.200000000000001,39.0,16
1443,24201.0,-0.30000000000000004,-0.7000000000000001,-1.5,-2.0,2.0,8.0,18.200000000000003,13.5,39.300000000000004,16
1444,24217.0,-0.1,-1.0,-1.4000000000000001,-1.7000000000000002,1.8,8.0,9.899999999999999,10.299999999999999,37.50000000000001,16
1445,24234.0,-0.1,-1.0,-1.1,-1.7000000000000002,1.8,8.3,6.1000000000000005,7.500000000000001,35.599999999999994,16
1446,24251.0,-0.2,-1.0,-0.8,-1.8,1.8,8.6,-0.6000000000000001,-4.4,33.300000000000004,16
1447,24268.0,0.0,-0.6000000000000001,-0.4,-1.6,2.1,9.0,-5.7,-0.5,37.400000000000006,16
1448,24284.0,0.1,-0.7000000000000001,-0.1,-1.5,2.1,9.3,-7.1000000000000005,6.9,38.60000000000001,16
1449,24301.0,0.6000000000000001,-0.6000000000000001,0.8,-1.0,2.2,10.200000000000001,-3.2,29.900000000000006,38.2,16
1450,24317.0,1.1,-0.7000000000000001,1.6,-0.6000000000000001,2.1,11.0,13.399999999999999,48.50000000000001,32.2,16
1451,24334.0,1.2000000000000002,-0.7000000000000001,1.6,-0.6000000000000001,2.2,10.9,24.900000000000002,56.7,28.0,16
1452,24351.0,1.1,-0.6000000000000001,0.6000000000000001,-0.8,2.4000000000000004,9.9,46.199999999999996,58.0,25.0,16
1453,24367.0,1.2000000000000002,-0.6000000000000001,-0.6000000000000001,-0.9,2.6,8.6,50.0,49.699999999999996,26.5,16
1454,24384.0,1.1,-0.5,-1.0,-1.0,2.8000000000000003,8.1,44.9,41.4,27.700000000000003,16
1455,24401.0,0.8,-0.4,-1.2000000000000002,-1.3,3.0,7.800000000000001,25.7,23.0,32.9,16
1456,24418.0,0.7000000000000001,-0.4,-1.0,-1.5,3.1,8.0,3.9,9.100000000000001,40.2,16
1457,24434.0,0.6000000000000001,-0.4,-0.8,-1.5,3.1,8.3,-7.300000000000001,5.300000000000001,44.9,16
1458,24451.0,0.5,-0.4,0.2,-1.6,3.0,9.200000000000001,-29.600000000000005,3.0,52.1,16
1459,24468.0,0.1,-0.6000000000000001,1.9000000000000001,-1.9000000000000001,2.7,11.0,-41.7,2.4000000000000004,56.50000000000001,16
1460,24485.0,0.0,-0.8,2.6,-1.9000000000000001,2.3000000000000003,12.200000000000001,-39.50000000000001,1.1,58.1,16
1461,24501.0,0.2,-0.9,3.2,-1.7000000000000002,2.3000000000000003,12.4,-22.4,-0.8,59.40000000000001,16
1462,24517.0,0.6000000000000001,-0.9,2.4000000000000004,-1.2000000000000002,2.3000000000000003,11.600000000000001,-0.2,2.5,60.00000000000001,16
1463,24534.0,0.8,-0.8,1.7000000000000002,-1.0,2.4000000000000004,11.0,6.300000000000001,6.9,59.300000000000004,16
1464,24551.0,0.9,-0.8,0.5,-0.8,2.5,9.700000000000001,8.899999999999999,14.300000000000002,54.800000000000004,16
1465,24567.0,0.8,-0.7000000000000001,0.0,-0.9,2.6,9.200000000000001,2.2,16.4,49.4,16
1466,24584.0,0.7000000000000001,-0.7000000000000001,-0.1,-1.2000000000000002,2.7,9.1,-2.2,16.0,47.7,16
1467,24604.0,0.6000000000000001,-0.7000000000000001,-0.1,-1.2000000000000002,2.7,9.1,-8.8,15.8,47.80000000000001,16
1468,24620.0,0.6000000000000001,-0.7000000000000001,-0.1,-1.2000000000000002,2.7,9.1,-10.5,19.1,48.2,16
1469,24634.0,0.6000000000000001,-0.8,-0.1,-1.2000000000000002,2.6,9.1,-6.4,20.3,46.300000000000004,16
1470,24651.0,0.7000000000000001,-0.8,-0.30000000000000004,-1.1,2.5,8.9,-1.9,19.1,44.5,16
1471,24667.0,0.8,-0.8,-1.0,-1.0,2.6,8.200000000000001,8.2,19.0,39.0,16
1472,24684.0,0.8,-0.8,-1.8,-1.0,2.7,7.300000000000001,13.8,23.0,33.400000000000006,16
1473,24701.0,0.8,-0.7000000000000001,-2.2,-1.0,2.8000000000000003,6.9,13.399999999999999,25.8,30.799999999999997,16
1474,24719.0,0.6000000000000001,-0.5,-2.5,-1.3,3.0,6.6000000000000005,6.0,31.0,27.700000000000003,16
1475,24738.0,0.30000000000000004,-0.4,-2.1,-1.6,3.1,6.9,-4.4,33.400000000000006,28.400000000000002,16
1476,24751.0,0.2,-0.4,-1.8,-1.8,3.1,7.2,-9.2,33.2,29.900000000000006,16
