,ms,accelX,accelY,accelZ,accelWithGX,accelWithGY,accelWithGZ,rotRateAlpha,rotRateBeta,rotRateGamma,interval
0,196.0,-0.1,0.0,-0.2,-0.9,2.3000000000000003,9.0,0.7,-5.500000000000001,4.5,16
1,256.0,-0.1,0.0,-0.2,-0.8,2.4000000000000004,8.9,2.1,-9.3,1.3,16
2,263.0,-0.1,0.0,-0.2,-0.9,2.4000000000000004,8.9,0.8,-9.600000000000001,0.7,16
3,285.0,-0.1,0.1,0.0,-0.9,2.4000000000000004,9.0,-0.1,-10.0,0.30000000000000004,16
4,296.0,-0.1,0.1,0.0,-0.9,2.5,9.1,-0.1,-10.0,0.30000000000000004,16
5,313.0,-0.2,0.0,0.1,-0.9,2.4000000000000004,9.1,-0.1,-10.8,-1.4,16
6,329.0,-0.2,0.0,0.1,-1.0,2.4000000000000004,9.200000000000001,-0.1,-10.8,-1.4,16
7,346.0,-0.2,0.0,0.2,-1.0,2.4000000000000004,9.3,-0.7,-11.700000000000001,-1.6,16
8,363.0,-0.30000000000000004,0.0,0.2,-1.0,2.4000000000000004,9.3,-1.9,-11.4,-1.8000000000000003,16
9,379.0,-0.30000000000000004,0.0,0.4,-1.0,2.3000000000000003,9.4,-2.8,-11.2,-2.0,16
10,397.0,-0.4,-0.1,0.5,-1.1,2.3000000000000003,9.700000000000001,-2.4000000000000004,-11.2,-1.7,16
11,421.0,-0.4,0.0,0.6000000000000001,-1.1,2.3000000000000003,9.8,0.9000000000000001,-12.0,0.5,16
12,429.0,-0.30000000000000004,0.0,0.5,-1.0,2.4000000000000004,9.700000000000001,2.7,-11.3,1.6,16
13,446.0,-0.30000000000000004,0.1,0.4,-0.9,2.5,9.600000000000001,2.7,-11.3,1.6,16
14,466.0,-0.2,0.1,0.2,-0.9,2.5,9.5,3.7000000000000006,-10.8,2.2,16
15,479.0,-0.2,0.1,0.2,-0.8,2.5,9.5,3.3000000000000007,-9.8,2.0,16
16,496.0,-0.2,0.1,0.2,-0.8,2.5,9.5,3.3000000000000007,-9.8,2.0,16
17,512.0,0.0,0.1,0.1,-0.6000000000000001,2.5,9.4,2.7,-9.3,1.7,16
18,529.0,0.0,0.1,0.0,-0.5,2.5,9.4,1.3,-10.299999999999999,0.4,16
19,546.0,0.2,0.0,0.30000000000000004,-0.30000000000000004,2.4000000000000004,9.700000000000001,-6.699999999999999,-17.799999999999997,-4.1,16
20,562.0,0.30000000000000004,0.0,0.7000000000000001,0.1,2.3000000000000003,10.600000000000001,-6.699999999999999,-17.799999999999997,-4.1,16
21,580.0,0.6000000000000001,-0.2,1.9000000000000001,0.30000000000000004,2.1,11.600000000000001,-11.3,-20.5,-7.8,16
22,596.0,0.6000000000000001,-0.5,2.3000000000000003,0.2,1.8,11.8,-10.0,-7.300000000000001,-15.8,16
23,612.0,0.2,-0.8,1.6,-0.2,1.4000000000000001,11.200000000000001,-5.6,-0.30000000000000004,-17.200000000000003,16
24,629.0,0.0,-0.9,1.0,-0.5,1.2000000000000002,10.200000000000001,-5.6,-0.30000000000000004,-17.200000000000003,16
25,646.0,-0.2,-1.0,-0.1,-0.6000000000000001,1.1,9.4,-1.0,-0.30000000000000004,-13.200000000000003,16
26,663.0,-0.1,-1.0,-0.5,-0.4,1.1,9.200000000000001,-1.3,-5.8,-9.8,16
27,679.0,0.0,-1.0,-0.4,-0.2,1.1,9.4,-1.3,-5.8,-9.8,16
28,696.0,0.2,-0.9,-0.1,0.0,1.2000000000000002,9.700000000000001,-1.1,-10.8,-7.400000000000001,16
29,712.0,0.5,-0.8,0.2,0.30000000000000004,1.3,9.9,2.3,-12.600000000000001,-5.300000000000001,16
30,729.0,0.6000000000000001,-0.8,0.30000000000000004,0.30000000000000004,1.3,9.9,2.3,-12.600000000000001,-5.300000000000001,16
31,747.0,0.8,-0.7000000000000001,0.2,0.6000000000000001,1.3,9.9,4.6,-12.200000000000001,-5.300000000000001,16
32,763.0,0.7000000000000001,-0.7000000000000001,0.30000000000000004,0.7000000000000001,1.4000000000000001,9.9,7.6,-10.299999999999999,-4.2,16
33,779.0,1.2000000000000002,-0.5,0.0,1.2000000000000002,1.6,9.700000000000001,9.8,-6.9,-6.300000000000001,16
34,796.0,1.4000000000000001,-0.4,-0.1,1.4000000000000001,1.6,9.4,9.8,-6.9,-6.300000000000001,16
35,813.0,1.3,-0.6000000000000001,-0.5,1.2000000000000002,1.5,9.0,13.000000000000002,-6.2,-11.6,16
36,829.0,1.1,-0.8,-0.9,1.1,1.3,8.700000000000001,15.899999999999999,-5.300000000000001,-20.1,16
37,846.0,1.0,-0.9,-1.1,1.1,1.3,8.700000000000001,15.899999999999999,-5.300000000000001,-20.1,16
38,862.0,1.1,-0.9,-1.4000000000000001,1.2000000000000002,1.2000000000000002,7.9,14.0,-8.5,-22.1,16
39,879.0,1.0,-0.9,-1.5,1.2000000000000002,1.3,8.0,-1.1,-21.6,-23.900000000000006,16
40,896.0,1.0,-0.8,-0.9,1.3,1.3,8.700000000000001,-10.200000000000001,-28.1,-24.8,16
41,913.0,1.0,-0.7000000000000001,-0.2,1.3,1.4000000000000001,9.9,-10.200000000000001,-28.1,-24.8,16
42,930.0,1.0,-0.5,1.0,1.3,1.5,10.4,-13.6,-29.700000000000006,-27.2,16
43,946.0,0.30000000000000004,-0.8,0.4,0.6000000000000001,1.0,9.8,-13.6,-18.200000000000003,-33.300000000000004,16
44,962.0,-0.30000000000000004,-1.1,0.2,0.6000000000000001,1.0,9.8,-18.200000000000003,-10.5,-22.1,16
45,979.0,-1.0,-0.9,0.30000000000000004,-0.4,1.3,9.8,-18.200000000000003,-10.5,-22.1,16
46,996.0,-0.4,0.1,0.30000000000000004,0.30000000000000004,1.9000000000000001,9.700000000000001,-13.000000000000002,-4.800000000000001,0.0,16
47,1014.0,0.1,0.4,-0.1,0.6000000000000001,2.2,9.4,-8.100000000000001,-5.6,-0.6000000000000001,16
48,1029.0,0.1,0.5,-0.30000000000000004,0.8,2.5,9.200000000000001,-8.100000000000001,-5.6,-0.6000000000000001,16
49,1046.0,0.30000000000000004,0.9,-0.5,0.8,2.6,9.0,-3.2,-6.2,-3.1,16
50,1062.0,0.1,0.7000000000000001,-0.4,0.7000000000000001,2.5,9.1,4.9,-8.4,-14.900000000000002,16
51,1079.0,0.0,0.7000000000000001,-0.4,0.7000000000000001,2.5,9.1,4.9,-8.4,-14.900000000000002,16
52,1096.0,-0.4,0.5,-0.4,0.2,2.4000000000000004,9.1,8.700000000000001,-8.4,-16.8,16
53,1112.0,-0.2,0.6000000000000001,-0.4,0.5,2.6,9.1,10.600000000000001,-9.4,-16.6,16
54,1130.0,0.2,0.9,-0.4,0.8,2.9000000000000004,9.0,6.0,-6.0,-20.2,16
55,1148.0,0.30000000000000004,0.8,-0.5,0.9,2.8000000000000003,9.0,-1.6,-0.6000000000000001,-24.7,16
56,1165.0,0.2,0.7000000000000001,-0.4,0.6000000000000001,2.6,9.200000000000001,-1.6,-0.6000000000000001,-24.7,16
57,1179.0,-0.2,0.4,0.0,0.30000000000000004,2.3000000000000003,9.5,-16.4,12.7,-23.700000000000003,16
58,1196.0,-0.30000000000000004,0.30000000000000004,0.1,0.30000000000000004,2.3000000000000003,9.5,-16.4,12.7,-23.700000000000003,16
59,1214.0,-0.4,0.2,0.1,-0.1,1.9000000000000001,9.600000000000001,-18.4,19.300000000000004,-18.0,16
60,1230.0,-0.9,-0.4,0.2,-0.9,1.0,9.700000000000001,-12.8,26.000000000000004,0.1,16
61,1247.0,-1.6,-1.4000000000000001,0.6000000000000001,-1.4000000000000001,0.30000000000000004,10.100000000000001,-7.1000000000000005,30.1,26.300000000000004,16
62,1264.0,-1.8,-2.0,0.7000000000000001,-2.0,-0.8,10.200000000000001,-7.1000000000000005,30.1,26.300000000000004,16
63,1280.0,-1.3,-1.2000000000000002,1.3,-0.8,1.2000000000000002,11.0,2.4000000000000004,33.9,60.6,16
64,1296.0,0.1,0.7000000000000001,1.4000000000000001,0.30000000000000004,2.7,10.9,27.700000000000003,41.6,99.39999999999999,16
65,1313.0,2.1,2.2,0.5,2.0,4.1000000000000005,10.0,38.7,29.900000000000006,79.39999999999999,16
66,1329.0,2.8000000000000003,2.6,-0.6000000000000001,3.1,4.3,8.6,38.7,29.900000000000006,79.39999999999999,16
67,1346.0,4.2,1.2000000000000002,-1.2000000000000002,4.2,3.2,8.6,24.599999999999998,-9.8,-8.8,16
68,1363.0,3.4000000000000004,0.4,0.30000000000000004,3.4000000000000004,2.6,9.9,8.100000000000001,-8.600000000000001,-46.7,16
69,1382.0,2.0,0.6000000000000001,2.3000000000000003,2.2,2.8000000000000003,11.600000000000001,-6.4,-0.7,-72.4,16
70,1396.0,1.4000000000000001,0.6000000000000001,3.4000000000000004,0.9,2.7,13.600000000000001,-6.4,-0.7,-72.4,16
71,1412.0,-0.7000000000000001,0.0,5.2,-1.1,2.1,14.700000000000001,1.5,20.900000000000002,-83.70000000000002,16
72,1430.0,-1.8,-0.5,4.9,-2.6,1.3,13.5,1.5,20.900000000000002,-83.70000000000002,16
73,1446.0,-2.6,-1.4000000000000001,2.3000000000000003,-2.9000000000000004,0.8,10.9,19.5,35.4,-60.2,16
74,1463.0,-2.2,-1.5,-0.7000000000000001,-2.6,1.0,8.5,27.5,33.800000000000004,0.9000000000000001,16
75,1479.0,-1.9000000000000001,-1.2000000000000002,-1.7000000000000002,-2.6,1.0,8.5,27.5,33.800000000000004,0.9000000000000001,16
76,1496.0,-0.9,-0.4,-2.3000000000000003,-1.3,2.3000000000000003,7.4,15.299999999999999,23.5,18.6,16
77,1512.0,-0.4,0.2,-1.7000000000000002,-0.9,2.7,8.200000000000001,2.3,14.400000000000002,25.900000000000002,16
78,1529.0,0.30000000000000004,0.4,-0.30000000000000004,-0.30000000000000004,2.7,9.4,-9.8,2.8,21.900000000000002,16
79,1548.0,0.2,-0.1,0.7000000000000001,-0.4,2.3000000000000003,10.3,-4.6,4.4,16.3,16
80,1563.0,0.0,-0.4,0.8,-0.8,1.8,10.100000000000001,-4.6,4.4,16.3,16
81,1582.0,-0.30000000000000004,-0.9,0.0,-1.1,1.4000000000000001,9.200000000000001,9.600000000000001,25.300000000000004,20.2,16
82,1599.0,-0.5,-1.1,-1.3,-1.3,1.4000000000000001,8.1,14.300000000000002,26.5,26.1,16
83,1615.0,-0.4,-0.9,-2.4000000000000004,-1.2000000000000002,1.6,7.1000000000000005,16.8,15.6,30.799999999999997,16
84,1630.0,-0.4,-0.7000000000000001,-2.6,-1.1,2.0,7.0,16.8,15.6,30.799999999999997,16
85,1646.0,0.0,-0.2,-1.8,-0.6000000000000001,2.3000000000000003,7.800000000000001,13.3,-23.2,29.800000000000004,16
86,1662.0,0.2,-0.2,-1.0,-0.30000000000000004,2.4000000000000004,9.0,13.3,-23.2,29.800000000000004,16
87,1679.0,0.4,-0.2,0.2,-0.1,2.4000000000000004,9.8,9.899999999999999,-29.400000000000002,23.900000000000006,16
88,1696.0,0.30000000000000004,-0.30000000000000004,0.7000000000000001,-0.2,2.3000000000000003,10.100000000000001,4.2,-13.700000000000001,9.5,16
89,1712.0,-0.2,-0.5,0.4,-0.6000000000000001,2.1,9.8,2.5,-3.6000000000000005,4.6,16
90,1729.0,-0.4,-0.6000000000000001,0.1,-1.1,1.9000000000000001,9.3,2.5,-3.6000000000000005,4.6,16
91,1747.0,-0.7000000000000001,-0.7000000000000001,-0.2,-1.1,1.9000000000000001,9.3,1.6,0.1,2.7,16
92,1762.0,-0.8,-0.7000000000000001,-0.30000000000000004,-1.2000000000000002,1.9000000000000001,9.1,1.2000000000000002,-8.899999999999999,3.7000000000000006,16
93,1780.0,-0.7000000000000001,-0.8,-0.1,-1.0,1.8,9.4,1.2000000000000002,-8.899999999999999,3.7000000000000006,16
94,1796.0,-0.6000000000000001,-0.8,0.0,-1.0,1.7000000000000002,9.4,2.1,-13.700000000000001,3.1,16
95,1813.0,-0.7000000000000001,-0.8,0.0,-1.0,1.8,9.5,-1.1,-17.7,3.8,16
96,1829.0,-0.7000000000000001,-0.8,0.4,-1.0,1.8,9.8,-2.8,-16.8,5.500000000000001,16
97,1846.0,-0.7000000000000001,-0.7000000000000001,0.5,-1.0,1.8,9.9,-2.8,-16.8,5.500000000000001,16
98,1863.0,-0.7000000000000001,-0.8,0.4,-0.9,1.8,9.600000000000001,-2.6,-13.000000000000002,6.9,16
99,1879.0,-0.7000000000000001,-0.7000000000000001,-0.30000000000000004,-0.9,1.9000000000000001,9.1,-0.5,-3.5,12.0,16
100,1896.0,-0.7000000000000001,-0.6000000000000001,-0.5,-0.8,2.1,8.700000000000001,-0.5,-3.5,12.0,16
101,1912.0,-0.7000000000000001,-0.4,-1.0,-0.9,2.1,8.3,0.8,-3.5,13.6,16
102,1929.0,-0.6000000000000001,-0.30000000000000004,-1.2000000000000002,-0.8,2.3000000000000003,8.200000000000001,-0.1,-6.699999999999999,17.200000000000003,16
103,1946.0,-0.6000000000000001,-0.2,-1.1,-0.7000000000000001,2.4000000000000004,8.4,-0.8,-7.0,17.200000000000003,16
104,1962.0,-0.5,-0.1,-0.9,-0.6000000000000001,2.4000000000000004,8.5,-0.8,-7.0,17.200000000000003,16
105,1979.0,-0.6000000000000001,-0.1,-0.9,-0.8,2.4000000000000004,8.5,-0.5,-2.0,17.9,16
106,1996.0,-0.8,-0.2,-0.9,-0.9,2.3000000000000003,8.4,1.0,0.6000000000000001,19.200000000000003,16
107,2012.0,-0.8,-0.30000000000000004,-1.0,-0.8,2.1,8.200000000000001,1.0,0.6000000000000001,19.200000000000003,16
108,2030.0,-0.8,-0.5,-1.3,-0.8,2.1,8.0,2.0,-0.2,21.7,16
109,2046.0,-0.6000000000000001,-0.30000000000000004,-1.2000000000000002,-0.5,2.2,8.3,1.3,-19.799999999999997,28.500000000000004,16
110,2063.0,-0.1,0.0,-0.30000000000000004,0.1,2.5,9.1,-1.7,-31.5,29.500000000000004,16
111,2079.0,0.30000000000000004,0.2,0.6000000000000001,1.0,2.9000000000000004,10.600000000000001,-1.7,-31.5,29.500000000000004,16
112,2096.0,1.2000000000000002,0.5,1.9000000000000001,1.7000000000000002,3.0,11.4,-7.500000000000001,-25.0,17.5,16
113,2112.0,1.5,0.5,2.3000000000000003,1.7000000000000002,3.0,11.4,-7.500000000000001,-25.0,17.5,16
114,2129.0,1.5,0.4,1.5,1.7000000000000002,2.7,10.3,-11.6,-11.000000000000002,6.2,16
115,2147.0,1.0,0.30000000000000004,0.4,1.5,2.8000000000000003,10.0,-19.1,-8.600000000000001,-4.1,16
116,2162.0,0.9,0.6000000000000001,1.7000000000000002,1.5,2.8000000000000003,11.600000000000001,-41.4,-39.8,-21.900000000000002,16
117,2179.0,0.9,0.5,3.1,1.5,2.8000000000000003,11.600000000000001,-41.4,-39.8,-21.900000000000002,16
118,2196.0,0.4,-0.1,5.2,0.7000000000000001,1.6,15.0,-41.800000000000004,-41.0,-31.6,16
119,2213.0,-0.8,-1.0,5.5,-0.4,0.9,14.9,-22.000000000000004,0.7,-29.700000000000006,16
120,2229.0,-1.4000000000000001,-1.4000000000000001,4.4,-0.7000000000000001,0.5,13.9,-3.0,25.900000000000002,-14.0,16
121,2246.0,-1.2000000000000002,-1.5,3.4000000000000004,-0.30000000000000004,0.6000000000000001,11.9,-3.0,25.900000000000002,-14.0,16
122,2262.0,-0.30000000000000004,-1.4000000000000001,0.6000000000000001,0.4,0.8,9.4,19.400000000000002,41.800000000000004,1.8000000000000003,16
123,2279.0,0.7000000000000001,-1.2000000000000002,-2.3000000000000003,1.1,1.0,7.0,46.199999999999996,36.5,17.200000000000003,16
124,2296.0,1.1,-1.1,-3.3000000000000003,1.1,1.0,7.0,46.199999999999996,36.5,17.200000000000003,16
125,2313.0,1.7000000000000002,-0.7000000000000001,-4.3,2.2,2.0,5.5,40.9,19.0,17.6,16
126,2329.0,2.4000000000000004,0.0,-3.2,2.9000000000000004,2.5,6.9,12.5,-17.400000000000002,5.8,16
127,2346.0,2.9000000000000004,0.2,-0.9,3.3000000000000003,2.7,8.700000000000001,4.300000000000001,-19.400000000000002,-7.300000000000001,16
128,2362.0,3.0,0.2,-0.30000000000000004,3.3000000000000003,2.6,9.4,4.300000000000001,-19.400000000000002,-7.300000000000001,16
129,2379.0,2.6,0.1,-0.1,2.6,2.4000000000000004,9.1,-0.30000000000000004,-9.700000000000001,-22.4,16
130,2396.0,1.3,-0.2,-0.8,1.5,2.1,8.6,-14.300000000000002,12.200000000000001,-43.6,16
131,2413.0,0.30000000000000004,-0.30000000000000004,-0.9,0.6000000000000001,2.0,8.6,-18.3,10.1,-44.00000000000001,16
132,2429.0,0.0,-0.30000000000000004,-0.7000000000000001,0.2,2.0,9.0,-18.3,10.1,-44.00000000000001,16
133,2446.0,-0.2,-0.2,-0.2,0.0,2.1,9.4,-12.299999999999999,0.9000000000000001,-35.699999999999996,16
134,2462.0,-0.2,0.0,0.0,0.0,2.3000000000000003,9.5,-6.9,1.6,-30.200000000000003,16
135,2479.0,-0.1,0.1,-0.2,0.2,2.5,9.1,-6.9,1.6,-30.200000000000003,16
136,2496.0,0.1,0.4,-0.7000000000000001,0.30000000000000004,2.7,8.700000000000001,-2.6,5.1000000000000005,-25.5,16
137,2512.0,0.30000000000000004,0.6000000000000001,-1.0,0.4,2.9000000000000004,8.4,1.1,9.3,-20.8,16
138,2529.0,0.30000000000000004,0.8,-1.2000000000000002,0.4,2.9000000000000004,8.4,1.1,9.3,-20.8,16
139,2547.0,0.4,1.0,-1.2000000000000002,0.5,3.3000000000000003,8.3,3.1,6.9,-20.400000000000002,16
140,2563.0,0.4,0.9,-1.1,0.4,3.2,8.4,6.9,1.2000000000000002,-22.5,16
141,2580.0,0.30000000000000004,0.8,-1.1,0.30000000000000004,3.1,8.3,7.300000000000001,2.5,-22.6,16
142,2596.0,0.2,0.8,-1.3,0.1,3.2,8.200000000000001,7.300000000000001,2.5,-22.6,16
143,2614.0,-0.1,0.9,-1.3,-0.1,3.3000000000000003,8.200000000000001,6.500000000000001,2.5,-21.900000000000002,16
144,2634.0,-0.1,1.0,-1.1,-0.2,3.4000000000000004,8.4,3.4,1.6,-19.5,16
145,2649.0,-0.2,0.9,-0.7000000000000001,-0.2,3.4000000000000004,8.700000000000001,2.6,1.1,-19.1,16
146,2663.0,-0.30000000000000004,0.9,-0.6000000000000001,-0.4,3.3000000000000003,8.9,2.6,1.1,-19.1,16
147,2679.0,-0.5,0.7000000000000001,-0.30000000000000004,-0.6000000000000001,3.1,9.200000000000001,0.2,3.4,-16.6,16
148,2696.0,-0.6000000000000001,0.6000000000000001,-0.1,-0.6000000000000001,3.1,9.200000000000001,0.2,3.4,-16.6,16
149,2712.0,-0.9,0.30000000000000004,0.30000000000000004,-1.1,2.7,9.8,0.1,4.300000000000001,-12.5,16
150,2729.0,-0.9,0.2,0.5,-1.1,2.7,9.8,1.8000000000000003,4.300000000000001,-6.1000000000000005,16
151,2746.0,-0.6000000000000001,0.2,1.0,-0.8,2.7,10.5,6.9,2.0,5.6,16
152,2762.0,-0.30000000000000004,0.4,1.3,-0.5,2.9000000000000004,10.700000000000001,8.2,4.300000000000001,8.5,16
153,2780.0,-0.1,0.5,1.3,-0.2,3.1,10.700000000000001,8.2,4.300000000000001,8.5,16
154,2796.0,0.1,0.6000000000000001,1.1,-0.1,3.1,10.5,4.1,12.7,5.4,16
155,2813.0,0.0,0.6000000000000001,1.1,-0.1,3.1,10.5,4.1,12.7,5.4,16
156,2830.0,-0.30000000000000004,0.4,1.0,-0.7000000000000001,2.9000000000000004,10.5,-2.2,13.200000000000003,3.1,16
157,2846.0,-0.7000000000000001,0.4,1.1,-1.0,2.8000000000000003,10.8,-9.8,9.2,2.8,16
158,2862.0,-0.7000000000000001,0.4,2.2,-0.9,2.8000000000000003,11.9,-21.300000000000004,-9.3,7.1000000000000005,16
159,2880.0,-0.5,0.30000000000000004,3.0,-0.5,2.6,13.100000000000001,-21.300000000000004,-9.3,7.1000000000000005,16
160,2897.0,-0.2,0.0,3.9000000000000004,-0.4,2.2,13.5,-15.700000000000001,-12.7,8.899999999999999,16
161,2914.0,-0.5,-0.4,3.6,-0.7000000000000001,1.9000000000000001,13.0,9.0,4.0,15.299999999999999,16
162,2931.0,-0.30000000000000004,-0.8,2.2,-0.5,1.6,11.700000000000001,18.900000000000002,17.9,19.700000000000003,16
163,2946.0,-0.2,-1.1,1.3,-0.6000000000000001,1.3,9.9,18.900000000000002,17.9,19.700000000000003,16
164,2963.0,-0.4,-1.4000000000000001,-0.9,-0.7000000000000001,1.2000000000000002,8.1,24.3,27.9,21.900000000000002,16
165,2979.0,-0.30000000000000004,-1.4000000000000001,-2.4000000000000004,-0.7000000000000001,1.2000000000000002,7.0,21.0,18.0,28.200000000000003,16
166,2996.0,-0.30000000000000004,-1.4000000000000001,-2.7,-0.5,1.3,6.9,21.0,18.0,28.200000000000003,16
167,3013.0,0.0,-1.2000000000000002,-2.0,-0.2,1.5,7.9,15.5,0.30000000000000004,30.699999999999996,16
168,3032.0,0.1,-1.2000000000000002,-0.7000000000000001,-0.1,1.5,9.0,10.0,-24.900000000000002,29.600000000000005,16
169,3049.0,0.2,-1.2000000000000002,0.5,0.1,1.5,9.9,10.8,-22.5,28.1,16
170,3065.0,0.2,-1.3,0.9,0.1,1.4000000000000001,10.3,13.399999999999999,-13.3,25.8,16
171,3079.0,0.1,-1.3,0.7000000000000001,0.2,1.4000000000000001,9.9,13.399999999999999,-13.3,25.8,16
172,3096.0,0.2,-1.4000000000000001,-0.4,0.2,1.4000000000000001,8.9,18.4,4.300000000000001,21.300000000000004,16
173,3113.0,0.1,-1.4000000000000001,-1.0,0.0,1.5,7.9,18.4,4.300000000000001,21.300000000000004,16
174,3129.0,0.0,-1.3,-1.8,0.0,1.6,7.5,15.399999999999999,5.4,18.700000000000003,16
175,3146.0,-0.1,-1.2000000000000002,-1.7000000000000002,-0.1,1.7000000000000002,7.800000000000001,2.3,-3.1,13.700000000000001,16
176,3162.0,-0.2,-1.2000000000000002,-1.4000000000000001,-0.1,1.7000000000000002,7.800000000000001,2.3,-3.1,13.700000000000001,16
177,3179.0,-0.4,-1.2000000000000002,-1.0,-0.4,1.7000000000000002,8.4,-1.8000000000000003,-4.800000000000001,12.600000000000001,16
178,3196.0,-0.5,-1.0,-0.7000000000000001,-0.4,1.9000000000000001,8.700000000000001,-3.9,-5.300000000000001,13.200000000000003,16
179,3212.0,-0.4,-0.8,-0.6000000000000001,-0.1,2.2,8.8,-4.1,-6.300000000000001,14.700000000000001,16
180,3229.0,0.0,-0.4,-0.5,0.4,2.6,8.6,-2.8,-6.500000000000001,15.5,16
181,3246.0,0.4,0.1,-1.0,0.7000000000000001,3.1,8.200000000000001,-1.8000000000000003,-5.6,13.5,16
182,3262.0,0.6000000000000001,0.4,-1.4000000000000001,0.7000000000000001,3.2,7.9,-6.2,-11.2,-1.5,16
183,3279.0,0.2,0.4,-1.3,0.4,3.2,8.0,-12.100000000000001,-13.6,-9.3,16
184,3296.0,-0.2,0.5,-1.2000000000000002,0.0,3.0,8.200000000000001,-12.100000000000001,-13.6,-9.3,16
185,3313.0,-0.30000000000000004,0.1,-0.8,-0.1,2.7,8.8,-18.8,-13.399999999999999,-12.9,16
186,3329.0,-0.4,0.0,0.0,-0.1,2.6,9.3,-25.4,-2.7,-12.0,16
187,3348.0,-0.30000000000000004,0.2,0.0,0.2,2.9000000000000004,9.200000000000001,-25.4,-2.7,-12.0,16
188,3367.0,-0.2,-0.6000000000000001,-0.2,0.2,1.8,9.1,-13.700000000000001,-8.8,-9.2,16
189,3380.0,-0.9,-1.4000000000000001,-2.5,-0.7000000000000001,1.8,7.6000000000000005,-10.0,-55.900000000000006,-12.8,16
190,3398.0,-2.7,0.5,1.4000000000000001,-2.1,2.9000000000000004,10.8,-5.8,-26.400000000000006,-4.4,16
191,3416.0,1.1,0.30000000000000004,1.3,1.3,2.8000000000000003,10.600000000000001,7.200000000000001,-2.4000000000000004,-9.5,16
192,3429.0,0.7000000000000001,0.2,2.0,0.7000000000000001,2.5,10.9,25.0,-11.1,-21.1,16
193,3446.0,-1.0,-0.1,0.2,-0.5,2.5,9.4,28.400000000000002,-17.300000000000004,-20.400000000000002,16
194,3462.0,-1.1,-0.1,-0.2,-0.4,2.4000000000000004,8.8,28.400000000000002,-17.300000000000004,-20.400000000000002,16
195,3480.0,-1.1,-0.6000000000000001,-0.9,0.1,2.5,8.3,22.4,-35.3,-16.5,16
196,3498.0,0.30000000000000004,0.6000000000000001,-0.7000000000000001,1.4000000000000001,3.4000000000000004,8.6,-2.1,-79.7,-15.299999999999999,16
197,3512.0,1.0,1.1,0.8,2.2,3.8000000000000003,10.0,-17.300000000000004,-82.50000000000001,-26.700000000000003,16
198,3529.0,1.5,1.0,1.0,3.0,3.4000000000000004,10.8,-17.300000000000004,-82.50000000000001,-26.700000000000003,16
199,3547.0,1.7000000000000002,0.6000000000000001,1.9000000000000001,3.1,3.0,11.5,-45.9,-56.800000000000004,-49.699999999999996,16
200,3563.0,1.2000000000000002,-0.2,3.3000000000000003,2.6,2.1,12.8,-54.1,-33.300000000000004,-53.8,16
201,3580.0,0.9,-0.6000000000000001,3.7,2.8000000000000003,1.6,13.0,-54.1,-33.300000000000004,-53.8,16
202,3595.0,0.8,-0.5,3.3000000000000003,2.5,1.7000000000000002,12.200000000000001,-53.300000000000004,-7.200000000000001,-52.60000000000001,16
203,3612.0,1.3,-0.5,1.6,2.9000000000000004,1.6,10.8,-12.8,-26.1,-56.0,16
204,3630.0,1.1,-0.6000000000000001,0.30000000000000004,2.7,1.6,9.700000000000001,8.5,-56.0,-58.5,16
205,3646.0,0.7000000000000001,-0.7000000000000001,-0.2,2.4000000000000004,1.5,8.9,8.5,-56.0,-58.5,16
206,3663.0,0.8,-0.9,-0.7000000000000001,3.1,1.4000000000000001,8.6,20.3,-87.10000000000001,-45.3,16
207,3679.0,1.7000000000000002,-0.8,-0.7000000000000001,4.1000000000000005,1.6,8.5,12.200000000000001,-87.80000000000001,-38.1,16
208,3696.0,2.5,-0.5,-0.9,5.0,2.1,8.1,12.200000000000001,-87.80000000000001,-38.1,16
209,3712.0,1.8,-0.2,-0.9,3.5,2.2,8.5,0.7,-90.0,-39.1,16
210,3729.0,-0.8,0.0,-0.6000000000000001,2.0,2.4000000000000004,8.3,-23.5,-67.60000000000001,-29.500000000000004,16
211,3746.0,-0.8,0.0,-1.1,2.0,2.4000000000000004,8.3,-23.5,-67.60000000000001,-29.500000000000004,16
212,3762.0,-0.5,-0.2,-0.6000000000000001,2.6,1.9000000000000001,8.5,-33.6,-47.80000000000001,-20.400000000000002,16
213,3779.0,-0.1,-0.1,-0.4,3.1,2.0,8.6,-33.400000000000006,-5.6,-14.400000000000002,16
214,3796.0,-0.2,-0.6000000000000001,-0.6000000000000001,2.7,1.5,8.4,-30.799999999999997,11.1,-15.399999999999999,16
215,3812.0,-0.4,-0.4,-1.0,2.4000000000000004,1.7000000000000002,7.800000000000001,-30.799999999999997,11.1,-15.399999999999999,16
216,3829.0,-0.8,-0.2,-1.3,2.1,2.0,7.800000000000001,-22.8,12.4,-14.400000000000002,16
217,3846.0,-0.9,0.2,-1.1,2.0,2.2,8.0,-1.4,3.6000000000000005,-15.5,16
218,3862.0,-0.7000000000000001,0.1,-0.6000000000000001,2.2,2.2,8.5,8.4,3.1,-16.4,16
219,3879.0,-0.6000000000000001,0.1,-0.8,2.1,2.1,8.4,8.4,3.1,-16.4,16
220,3896.0,-1.6,-1.1,-1.2000000000000002,1.6,1.6,7.5,13.8,15.700000000000001,-11.2,16
221,3912.0,0.0,1.4000000000000001,-1.6,2.7,3.6,7.4,9.3,11.6,-12.600000000000001,16
222,3929.0,-0.30000000000000004,1.7000000000000002,-1.7000000000000002,2.0,3.7,7.300000000000001,9.3,11.6,-12.600000000000001,16
223,3946.0,-1.1,1.1,-1.7000000000000002,1.6,3.3000000000000003,7.4,7.699999999999999,2.5,-21.200000000000003,16
224,3963.0,-1.2000000000000002,1.0,-1.3,1.5,3.3000000000000003,7.7,-1.6,-3.3000000000000007,-19.300000000000004,16
225,3979.0,-1.3,1.0,-1.1,1.5,3.3000000000000003,7.7,-1.6,-3.3000000000000007,-19.300000000000004,16
226,3996.0,-1.1,1.2000000000000002,0.2,1.7000000000000002,3.6,9.700000000000001,-3.4,-9.0,-13.6,16
227,4013.0,-0.9,1.5,1.3,1.8,3.8000000000000003,10.4,9.899999999999999,-10.200000000000001,-3.1,16
228,4029.0,-0.7000000000000001,1.4000000000000001,1.4000000000000001,2.0,3.8000000000000003,10.3,19.200000000000003,-5.6,1.1,16
229,4046.0,-0.7000000000000001,1.3,1.2000000000000002,1.9000000000000001,3.7,9.9,19.200000000000003,-5.6,1.1,16
230,4065.0,-1.0,1.2000000000000002,0.9,1.7000000000000002,3.8000000000000003,9.9,25.900000000000002,-1.8000000000000003,6.699999999999999,16
231,4080.0,-1.0,1.2000000000000002,1.4000000000000001,1.9000000000000001,3.8000000000000003,10.8,37.800000000000004,-6.0,23.700000000000003,16
232,4098.0,-0.5,0.9,2.0,2.3000000000000003,3.7,10.9,44.00000000000001,-2.9,35.8,16
233,4114.0,-0.7000000000000001,0.8,2.4000000000000004,2.4000000000000004,4.0,11.5,44.00000000000001,-2.9,35.8,16
234,4132.0,-0.2,1.3,2.9000000000000004,3.0,4.4,11.8,78.10000000000001,-29.200000000000003,52.5,16
235,4146.0,0.6000000000000001,1.1,3.0,3.7,4.4,11.600000000000001,93.7,-29.0,52.7,16
236,4164.0,0.6000000000000001,1.1,2.3000000000000003,3.8000000000000003,4.6000000000000005,10.0,93.7,-29.0,52.7,16
237,4179.0,0.6000000000000001,1.4000000000000001,0.5,4.0,5.2,8.8,95.9,-25.200000000000003,53.10000000000001,16
238,4196.0,0.9,1.8,0.5,4.6000000000000005,5.6000000000000005,9.1,67.4,-42.0,49.6,16
239,4213.0,1.3,1.9000000000000001,1.2000000000000002,5.2,5.5,10.200000000000001,56.800000000000004,-47.60000000000001,43.900000000000006,16
240,4229.0,1.5,1.5,3.0,5.300000000000001,5.2,11.5,56.800000000000004,-47.60000000000001,43.900000000000006,16
241,4246.0,0.6000000000000001,0.0,1.4000000000000001,4.3,4.3,9.8,60.5,-40.4,34.7,16
242,4263.0,-0.1,0.5,2.4000000000000004,4.0,4.6000000000000005,10.3,65.5,-22.1,33.50000000000001,16
243,4279.0,-0.5,-0.6000000000000001,1.1,3.2,3.4000000000000004,7.800000000000001,65.5,-22.1,33.50000000000001,16
244,4296.0,-1.6,-0.8,-1.0,2.3000000000000003,3.5,6.6000000000000005,69.5,-8.899999999999999,34.0,16
245,4313.0,-2.2,-1.0,-1.4000000000000001,1.7000000000000002,3.0,6.0,77.80000000000001,-31.9,45.0,16
246,4329.0,-2.8000000000000003,-1.7000000000000002,-1.7000000000000002,1.7000000000000002,2.8000000000000003,5.9,77.80000000000001,-31.9,45.0,16
247,4346.0,-2.8000000000000003,-1.9000000000000001,-1.3,1.9000000000000001,2.7,6.1000000000000005,82.9,-47.5,56.6,16
248,4362.0,-2.5,-2.0,-0.9,2.5,2.8000000000000003,6.1000000000000005,99.60000000000001,-68.4,72.7,16
249,4379.0,-2.2,-2.1,-0.9,2.9000000000000004,2.7,5.800000000000001,107.8,-70.2,72.9,16
250,4396.0,-2.3000000000000003,-2.5,-0.8,3.1,1.8,6.6000000000000005,107.8,-70.2,72.9,16
251,4413.0,-2.6,-3.5,-1.2000000000000002,2.7,1.5,4.7,114.80000000000001,-58.60000000000001,72.50000000000001,16
252,4435.0,-3.4000000000000004,-4.1000000000000005,-2.2,2.2,0.8,3.6,125.80000000000001,-44.300000000000004,85.4,16
253,4450.0,-3.7,-4.800000000000001,-3.0,2.3000000000000003,0.30000000000000004,2.7,132.2,-57.9,99.9,16
254,4465.0,-3.4000000000000004,-4.800000000000001,-2.7,3.2,0.5,2.9000000000000004,132.2,-57.9,99.9,16
255,4482.0,-2.6,-4.7,-1.8,4.0,0.30000000000000004,3.2,168.1,-120.2,127.3,16
256,4504.0,-2.4000000000000004,-5.0,-0.9,4.5,0.0,3.3000000000000003,189.1,-135.1,137.0,16
257,4512.0,-2.5,-5.2,-1.0,4.800000000000001,-0.5,2.4000000000000004,189.1,-135.1,137.0,16
258,4529.0,-2.6,-5.7,-1.9000000000000001,4.800000000000001,-1.2000000000000002,0.7000000000000001,203.29999999999998,-139.70000000000002,144.10000000000002,16
259,4546.0,-2.3000000000000003,-5.6000000000000005,-2.6,6.0,-0.8,-0.30000000000000004,191.49999999999997,-139.4,163.90000000000003,16
260,4562.0,-0.8,-4.4,-2.8000000000000003,8.3,0.1,-0.6000000000000001,191.49999999999997,-139.4,163.90000000000003,16
261,4583.0,0.2,-3.9000000000000004,-1.8,8.700000000000001,0.2,0.1,164.1,-125.2,159.4,16
262,4596.0,0.4,-3.3000000000000003,-0.7000000000000001,9.0,0.30000000000000004,0.5,105.80000000000001,-83.30000000000001,143.2,16
263,4612.0,0.4,-3.2,-0.5,9.0,0.30000000000000004,0.5,74.30000000000001,-55.1,135.8,16
264,4629.0,0.1,-3.2,-0.6000000000000001,9.0,-0.4,0.0,74.30000000000001,-55.1,135.8,16
265,4646.0,0.30000000000000004,-3.2,-0.7000000000000001,9.5,-0.6000000000000001,0.30000000000000004,40.300000000000004,-30.000000000000004,130.5,16
266,4662.0,1.1,-2.7,0.4,10.3,-0.5,1.3,-21.7,8.899999999999999,124.8,16
267,4679.0,1.4000000000000001,-2.5,0.9,10.9,-0.6000000000000001,2.2,-21.7,8.899999999999999,124.8,16
268,4696.0,2.0,-2.6,1.3,11.200000000000001,-1.3,2.5,-38.800000000000004,20.1,119.60000000000002,16
269,4712.0,2.2,-2.8000000000000003,1.3,11.5,-1.8,2.5,-63.500000000000014,32.2,112.0,16
270,4729.0,2.5,-3.1,1.3,11.8,-2.4000000000000004,2.5,-76.4,31.3,109.7,16
271,4746.0,2.6,-3.2,1.4000000000000001,12.100000000000001,-2.7,3.3000000000000003,-76.4,31.3,109.7,16
272,4762.0,3.4000000000000004,-2.8000000000000003,2.7,13.100000000000001,-2.6,4.5,-92.3,32.7,109.8,16
273,4779.0,4.7,-2.1,3.5,14.100000000000001,-2.4000000000000004,5.2,-110.9,51.1,101.50000000000001,16
274,4796.0,5.1000000000000005,-1.9000000000000001,3.2,14.4,-2.6,4.5,-110.9,51.1,101.50000000000001,16
275,4813.0,4.800000000000001,-2.3000000000000003,2.0,14.0,-3.5,3.7,-117.9,58.1,86.1,16
276,4829.0,4.6000000000000005,-3.1,1.4000000000000001,13.9,-4.4,3.7,-160.4,66.0,72.9,16
277,4846.0,4.5,-3.2,1.8,13.9,-4.4,3.7,-160.4,66.0,72.9,16
278,4863.0,3.7,-2.5,3.1,12.600000000000001,-3.7,6.0,-183.7,75.4,75.2,16
279,4881.0,3.2,-0.30000000000000004,4.0,12.4,-2.1,6.6000000000000005,-190.2,90.19999999999999,82.9,16
280,4898.0,3.9000000000000004,1.4000000000000001,4.0,13.0,-1.1,6.6000000000000005,-172.29999999999998,81.50000000000001,76.5,16
281,4913.0,4.3,1.8,3.7,13.200000000000001,-0.9,6.1000000000000005,-172.29999999999998,81.50000000000001,76.5,16
282,4929.0,4.0,2.1,2.8000000000000003,12.700000000000001,-1.0,5.4,-152.2,70.10000000000001,65.10000000000001,16
283,4946.0,3.5,2.0,2.2,12.200000000000001,-1.4000000000000001,5.1000000000000005,-119.60000000000002,39.599999999999994,47.900000000000006,16
284,4962.0,3.3000000000000003,1.9000000000000001,2.2,12.200000000000001,-1.4000000000000001,5.1000000000000005,-119.60000000000002,39.599999999999994,47.900000000000006,16
285,4979.0,3.1,1.9000000000000001,2.5,11.8,-1.5,5.5,-106.9,25.4,45.3,16
286,4996.0,3.2,2.7,2.9000000000000004,11.8,-1.0,5.6000000000000005,-89.70000000000002,17.5,37.7,16
287,5016.0,2.9000000000000004,3.3000000000000003,2.8000000000000003,11.5,-0.6000000000000001,5.5,-86.89999999999999,25.7,27.2,16
288,5032.0,2.2,3.5,2.4000000000000004,10.8,-0.5,5.2,-87.80000000000001,38.50000000000001,15.5,16
289,5050.0,1.7000000000000002,3.5,2.1,10.0,-0.6000000000000001,4.800000000000001,-87.80000000000001,38.50000000000001,15.5,16
290,5063.0,1.3,3.4000000000000004,1.9000000000000001,10.0,-0.6000000000000001,4.800000000000001,-90.1,51.4,5.300000000000001,16
291,5079.0,0.1,3.1,1.4000000000000001,8.6,-1.1,4.3,-83.60000000000001,63.599999999999994,-6.500000000000001,16
292,5096.0,-0.1,3.0,1.2000000000000002,8.1,-1.2000000000000002,4.1000000000000005,-83.60000000000001,63.599999999999994,-6.500000000000001,16
293,5113.0,-0.6000000000000001,2.9000000000000004,0.8,7.7,-1.4000000000000001,3.8000000000000003,-63.8,55.3,-10.0,16
294,5129.0,-1.0,2.7,0.4,7.300000000000001,-1.5,3.5,-55.3,47.60000000000001,-10.200000000000001,16
295,5146.0,-1.2000000000000002,2.6,0.2,7.0,-1.7000000000000002,3.4000000000000004,-55.3,47.60000000000001,-10.200000000000001,16
296,5165.0,-1.4000000000000001,2.4000000000000004,0.30000000000000004,7.0,-1.9000000000000001,3.5,-49.6,39.2,-8.899999999999999,16
297,5182.0,-1.3,2.0,0.6000000000000001,7.0,-2.3000000000000003,3.9000000000000004,-39.400000000000006,29.600000000000005,-0.9000000000000001,16
298,5199.0,-1.1,1.8,0.9,7.1000000000000005,-2.5,4.2,-31.7,30.699999999999996,6.1000000000000005,16
299,5213.0,-1.0,1.8,0.9,7.4,-2.5,3.9000000000000004,-31.7,30.699999999999996,6.1000000000000005,16
300,5235.0,-0.2,1.8,-0.1,7.800000000000001,-2.6,3.4000000000000004,-14.5,25.5,16.900000000000002,16
301,5248.0,0.0,1.7000000000000002,-0.30000000000000004,8.1,-2.6,3.0,-6.600000000000001,18.8,21.8,16
302,5264.0,0.5,2.1,-0.8,8.5,-2.4000000000000004,2.6,0.8,10.8,26.1,16
303,5279.0,0.8,2.2,-1.1,9.1,-2.1,2.2,0.8,10.8,26.1,16
304,5296.0,1.6,2.6,-1.3,9.700000000000001,-1.9000000000000001,2.0,6.8,-0.1,26.000000000000004,16
305,5312.0,2.5,2.6,-1.4000000000000001,10.4,-1.9000000000000001,2.0,4.6,1.1,20.400000000000002,16
306,5329.0,2.7,2.5,-1.4000000000000001,10.700000000000001,-2.2,2.0,4.6,1.1,20.400000000000002,16
307,5346.0,2.8000000000000003,1.9000000000000001,-1.4000000000000001,10.8,-2.8000000000000003,2.0,-3.5,10.1,9.8,16
308,5362.0,3.0,1.3,-1.5,11.100000000000001,-3.3000000000000003,1.9000000000000001,-5.7,9.899999999999999,9.3,16
309,5379.0,3.4000000000000004,1.0,-1.5,11.600000000000001,-4.2,1.7000000000000002,-5.7,9.899999999999999,9.3,16
310,5396.0,4.2,0.0,-1.5,12.600000000000001,-4.5,1.9000000000000001,-6.600000000000001,4.4,10.0,16
311,5413.0,5.1000000000000005,0.2,-1.2000000000000002,13.100000000000001,-4.5,2.1,-7.400000000000001,-9.600000000000001,6.699999999999999,16
312,5430.0,4.800000000000001,-0.30000000000000004,-1.0,12.9,-5.0,2.2,-9.0,-18.700000000000003,3.5,16
313,5453.0,4.1000000000000005,-0.5,-0.2,12.3,-5.2,2.8000000000000003,-11.000000000000002,-23.900000000000006,5.500000000000001,16
314,5465.0,3.7,-0.30000000000000004,0.1,11.700000000000001,-4.9,3.3000000000000003,-9.100000000000001,-26.9,13.100000000000001,16
315,5479.0,3.2,0.5,0.6000000000000001,11.4,-4.2,3.7,-1.2000000000000002,-33.1,19.0,16
316,5495.0,3.2,1.1,0.9,11.3,-3.2,4.1000000000000005,-1.2000000000000002,-33.1,19.0,16
317,5512.0,3.2,2.3000000000000003,1.4000000000000001,11.600000000000001,-2.2,4.4,11.6,-39.599999999999994,19.200000000000003,16
318,5529.0,3.5,2.7,1.6,11.8,-2.1,4.4,41.199999999999996,-51.4,-8.5,16
319,5546.0,3.4000000000000004,2.4000000000000004,1.5,11.600000000000001,-3.0,4.3,41.199999999999996,-51.4,-8.5,16
320,5564.0,2.7,0.7000000000000001,1.7000000000000002,10.9,-4.2,4.4,51.70000000000001,-55.3,-28.200000000000003,16
321,5579.0,1.8,-0.4,1.5,10.4,-4.7,4.2,69.4,-51.6,-40.7,16
322,5597.0,1.6,-0.5,1.5,10.4,-4.7,4.2,69.4,-51.6,-40.7,16
323,5612.0,1.4000000000000001,-0.30000000000000004,1.4000000000000001,10.200000000000001,-4.2,4.1000000000000005,75.8,-51.4,-41.50000000000001,16
324,5629.0,1.2000000000000002,-0.30000000000000004,1.6,10.100000000000001,-4.2,4.3,80.0,-54.699999999999996,-45.2,16
325,5646.0,1.1,-0.7000000000000001,1.9000000000000001,10.200000000000001,-4.3,4.5,87.10000000000001,-59.300000000000004,-54.50000000000001,16
326,5663.0,1.0,-0.9,1.9000000000000001,10.100000000000001,-4.3,4.2,87.10000000000001,-59.300000000000004,-54.50000000000001,16
327,5679.0,0.6000000000000001,-1.1,1.5,9.600000000000001,-4.3,3.8000000000000003,89.9,-56.2,-59.60000000000001,16
328,5696.0,-0.2,-1.4000000000000001,1.2000000000000002,9.1,-4.3,3.5,88.7,-51.800000000000004,-68.4,16
329,5713.0,-0.7000000000000001,-1.7000000000000002,0.9,8.8,-4.3,3.2,85.1,-51.800000000000004,-71.0,16
330,5729.0,-0.8,-1.9000000000000001,0.7000000000000001,8.6,-4.4,3.0,85.1,-51.800000000000004,-71.0,16
331,5746.0,-1.2000000000000002,-2.2,0.7000000000000001,8.4,-4.4,2.8000000000000003,78.4,-51.2,-72.4,16
332,5762.0,-1.6,-2.5,0.6000000000000001,8.0,-4.4,2.7,57.800000000000004,-43.300000000000004,-73.5,16
333,5779.0,-1.9000000000000001,-2.6,0.6000000000000001,7.6000000000000005,-4.4,2.6,57.800000000000004,-43.300000000000004,-73.5,16
334,5796.0,-2.5,-2.8000000000000003,0.7000000000000001,7.1000000000000005,-4.4,2.7,46.4,-40.0,-73.0,16
335,5812.0,-3.0,-3.0,1.0,6.7,-4.4,2.9000000000000004,26.9,-32.0,-66.9,16
336,5829.0,-3.4000000000000004,-3.3000000000000003,1.3,6.4,-4.4,3.1,21.400000000000002,-29.300000000000004,-60.2,16
337,5846.0,-3.6,-3.4000000000000004,1.5,6.1000000000000005,-4.4,3.3000000000000003,21.400000000000002,-29.300000000000004,-60.2,16
338,5862.0,-3.9000000000000004,-3.1,1.7000000000000002,5.9,-4.0,3.4000000000000004,19.1,-26.700000000000003,-51.300000000000004,16
339,5879.0,-4.0,-2.8000000000000003,1.7000000000000002,5.9,-3.6,3.4000000000000004,22.8,-27.800000000000004,-32.7,16
340,5895.0,-3.8000000000000003,-2.7,1.8,6.0,-3.3000000000000003,3.4000000000000004,22.8,-27.800000000000004,-32.7,16
341,5912.0,-3.7,-2.4000000000000004,1.9000000000000001,6.300000000000001,-3.0,3.4000000000000004,25.6,-28.900000000000002,-24.8,16
342,5929.0,-3.2,-2.2,1.9000000000000001,6.7,-3.0,3.2,31.400000000000002,-27.0,-14.5,16
343,5946.0,-2.9000000000000004,-2.3000000000000003,1.7000000000000002,6.7,-3.0,3.2,31.400000000000002,-27.0,-14.5,16
344,5963.0,-2.6,-2.8000000000000003,1.3,7.2,-3.6,2.5,32.0,-26.799999999999997,-12.5,16
345,5979.0,-2.5,-3.2,1.1,7.4,-3.9000000000000004,2.3000000000000003,29.800000000000004,-26.000000000000004,-8.3,16
346,5996.0,-2.2,-3.4000000000000004,1.1,7.5,-4.1000000000000005,2.3000000000000003,21.300000000000004,-24.900000000000002,8.700000000000001,16
347,6012.0,-2.2,-3.3000000000000003,1.2000000000000002,7.6000000000000005,-3.8000000000000003,2.6,21.300000000000004,-24.900000000000002,8.700000000000001,16
348,6029.0,-1.8,-2.7,1.5,8.200000000000001,-3.3000000000000003,2.6,17.400000000000002,-22.4,20.5,16
349,6046.0,-0.9,-2.2,1.5,9.1,-3.2,2.5,14.100000000000001,-19.6,35.5,16
350,6066.0,0.0,-2.2,1.3,9.8,-3.3000000000000003,2.3000000000000003,8.899999999999999,-13.700000000000001,36.0,16
351,6081.0,0.2,-2.2,1.2000000000000002,10.100000000000001,-3.5,2.1,8.899999999999999,-13.700000000000001,36.0,16
352,6095.0,0.5,-2.5,0.9,10.200000000000001,-3.9000000000000004,1.9000000000000001,0.1,-4.2,35.5,16
353,6112.0,0.5,-2.6,0.9,10.100000000000001,-4.1000000000000005,1.9000000000000001,-21.8,18.3,43.6,16
354,6129.0,0.4,-2.4000000000000004,0.8,10.0,-3.7,1.9000000000000001,-21.8,18.3,43.6,16
355,6146.0,0.5,-1.4000000000000001,0.9,10.4,-2.9000000000000004,2.3000000000000003,-30.000000000000004,26.300000000000004,53.599999999999994,16
356,6162.0,1.5,-0.30000000000000004,1.3,11.3,-2.3000000000000003,2.6,-27.400000000000002,26.1,66.0,16
357,6179.0,2.7,0.2,1.2000000000000002,12.3,-2.0,2.5,-19.5,23.3,58.60000000000001,16
358,6195.0,3.1,0.30000000000000004,1.0,12.700000000000001,-2.2,2.1,-19.5,23.3,58.60000000000001,16
359,6212.0,3.1,-0.1,0.30000000000000004,12.5,-2.8000000000000003,1.7000000000000002,-13.5,23.099999999999998,45.099999999999994,16
360,6229.0,2.7,-0.7000000000000001,-0.30000000000000004,12.100000000000001,-3.3000000000000003,1.2000000000000002,-11.4,30.4,24.5,16
361,6246.0,2.5,-0.8,-0.7000000000000001,11.700000000000001,-3.4000000000000004,0.6000000000000001,-11.4,30.4,24.5,16
362,6263.0,1.8,-0.4,-1.6,11.0,-2.8000000000000003,-0.30000000000000004,-14.600000000000001,35.8,19.9,16
363,6279.0,1.0,0.6000000000000001,-2.7,10.3,-1.9000000000000001,-1.0,-41.0,39.699999999999996,10.1,16
364,6297.0,0.30000000000000004,1.3,-2.9000000000000004,9.700000000000001,-1.4000000000000001,-1.0,-64.0,38.800000000000004,0.1,16
365,6312.0,-0.1,1.4000000000000001,-2.5,8.9,-1.4000000000000001,-0.2,-64.0,38.800000000000004,0.1,16
366,6329.0,-1.1,1.1,-1.3,8.1,-1.8,0.8,-98.9,49.6,-15.6,16
367,6346.0,-1.7000000000000002,0.7000000000000001,-0.4,7.6000000000000005,-2.1,1.6,-99.5,56.300000000000004,-14.200000000000001,16
368,6363.0,-1.8,0.7000000000000001,-0.2,7.4,-2.1,1.9000000000000001,-99.5,56.300000000000004,-14.200000000000001,16
369,6379.0,-2.0,0.8,-0.30000000000000004,7.2,-1.9000000000000001,1.7000000000000002,-90.70000000000002,57.400000000000006,-10.0,16
370,6398.0,-2.2,1.0,-0.6000000000000001,7.1000000000000005,-1.8,1.5,-62.50000000000001,38.400000000000006,1.8000000000000003,16
371,6416.0,-2.3000000000000003,1.2000000000000002,-0.7000000000000001,6.9,-1.6,1.5,-49.1,26.400000000000006,9.700000000000001,16
372,6429.0,-2.2,1.4000000000000001,-0.7000000000000001,7.0,-1.5,1.5,-49.1,26.400000000000006,9.700000000000001,16
373,6446.0,-1.9000000000000001,1.7000000000000002,-0.7000000000000001,7.300000000000001,-1.2000000000000002,1.4000000000000001,-26.6,7.6,26.1,16
374,6463.0,-1.2000000000000002,2.0,-0.9,7.9,-1.1,1.3,-21.0,1.1,29.800000000000004,16
375,6482.0,-0.8,2.1,-0.9,8.4,-1.1,1.3,-21.0,1.1,29.800000000000004,16
376,6496.0,-0.6000000000000001,2.2,-0.7000000000000001,8.4,-1.0,1.4000000000000001,-20.599999999999998,-0.1,30.5,16
377,6529.0,-0.2,2.6,-0.2,8.6,-0.9,1.8,-28.400000000000002,7.400000000000001,32.1,16
378,6551.0,0.30000000000000004,2.9000000000000004,0.6000000000000001,9.200000000000001,-0.6000000000000001,2.7,-29.300000000000004,18.3,28.1,16
379,6563.0,0.4,3.0,0.6000000000000001,9.4,-0.6000000000000001,2.7,-26.400000000000006,25.300000000000004,23.800000000000004,16
380,6579.0,0.9,2.9000000000000004,0.1,9.700000000000001,-0.7000000000000001,2.2,-25.0,29.600000000000005,17.1,16
381,6596.0,0.9,2.7,-0.4,9.700000000000001,-1.1,1.7000000000000002,-25.0,29.600000000000005,17.1,16
382,6613.0,0.9,2.2,-0.7000000000000001,9.600000000000001,-1.7000000000000002,1.6,-29.300000000000004,30.599999999999998,8.8,16
383,6629.0,0.7000000000000001,1.2000000000000002,-0.4,9.5,-2.6,2.0,-47.3,29.600000000000005,0.1,16
384,6647.0,0.7000000000000001,0.8,0.0,9.5,-2.6,2.0,-47.3,29.600000000000005,0.1,16
385,6665.0,1.0,0.4,0.7000000000000001,10.0,-3.4000000000000004,3.4000000000000004,-52.80000000000001,30.5,4.2,16
386,6682.0,1.7000000000000002,0.30000000000000004,1.2000000000000002,10.600000000000001,-3.5,3.6,-48.10000000000001,28.1,16.3,16
387,6697.0,2.5,0.4,1.3,11.200000000000001,-3.5,3.7,-42.900000000000006,21.7,18.1,16
388,6714.0,3.0,0.30000000000000004,1.4000000000000001,11.700000000000001,-3.6,3.8000000000000003,-37.7,14.5,16.900000000000002,16
389,6729.0,3.2,0.1,1.6,11.8,-4.1000000000000005,4.1000000000000005,-37.7,14.5,16.900000000000002,16
390,6746.0,2.9000000000000004,-0.5,2.0,11.5,-4.6000000000000005,4.4,-26.200000000000003,6.2,17.799999999999997,16
391,6762.0,2.5,-0.6000000000000001,2.1,11.5,-4.6000000000000005,4.4,-26.200000000000003,6.2,17.799999999999997,16
392,6779.0,1.5,-0.30000000000000004,2.6,9.9,-4.3,5.4,-17.6,5.8,26.700000000000003,16
393,6796.0,1.1,0.8,3.4000000000000004,9.8,-3.4000000000000004,6.0,27.9,-10.600000000000001,57.699999999999996,16
394,6813.0,2.3000000000000003,1.6,3.7,11.0,-2.8000000000000003,6.2,72.80000000000001,-37.1,65.6,16
395,6829.0,3.1,1.9000000000000001,3.7,11.9,-2.6,5.9,72.80000000000001,-37.1,65.6,16
396,6846.0,3.6,2.1,2.7,12.100000000000001,-2.4000000000000004,4.7,123.6,-67.2,63.10000000000001,16
397,6862.0,3.6,2.1,0.9,12.3,-2.5,3.2,196.90000000000003,-119.7,43.1,16
398,6880.0,3.9000000000000004,1.4000000000000001,-0.2,12.5,-3.0,2.2,205.10000000000002,-137.60000000000002,28.900000000000002,16
399,6896.0,3.8000000000000003,1.0,-0.2,12.4,-3.5,2.2,205.10000000000002,-137.60000000000002,28.900000000000002,16
400,6912.0,3.5,0.8,0.0,12.3,-3.3000000000000003,2.2,187.4,-124.90000000000002,8.2,16
401,6929.0,3.3000000000000003,1.4000000000000001,-0.4,12.3,-2.6,1.7000000000000002,170.9,-108.50000000000001,-5.0,16
402,6946.0,3.3000000000000003,1.7000000000000002,-0.8,12.3,-2.2,1.0,170.9,-108.50000000000001,-5.0,16
403,6962.0,3.2,1.3,-1.3,12.3,-2.6,0.8,147.5,-94.0,-23.2,16
404,6980.0,2.6,0.5,-0.8,11.700000000000001,-3.0,1.2000000000000002,86.8,-58.800000000000004,-57.800000000000004,16
405,6999.0,1.5,0.2,-0.4,10.9,-3.1,1.5,63.2,-41.300000000000004,-68.4,16
406,7014.0,1.2000000000000002,0.1,-0.2,10.5,-3.1,1.6,63.2,-41.300000000000004,-68.4,16
407,7033.0,0.8,-0.30000000000000004,-0.1,10.4,-3.3000000000000003,1.7000000000000002,35.2,-31.3,-86.00000000000001,16
408,7046.0,0.6000000000000001,-1.2000000000000002,0.30000000000000004,10.3,-3.8000000000000003,2.0,25.200000000000003,-32.400000000000006,-94.7,16
409,7067.0,0.1,-2.1,0.9,9.9,-4.2,2.5,16.700000000000003,-29.800000000000004,-100.6,16
410,7080.0,-0.2,-2.4000000000000004,1.0,9.5,-4.4,2.6,16.700000000000003,-29.800000000000004,-100.6,16
411,7095.0,-0.8,-2.7,1.1,9.1,-4.4,2.6,2.4000000000000004,-18.5,-104.50000000000001,16
412,7114.0,-1.1,-3.0,0.9,8.8,-4.4,2.4000000000000004,-6.2,-13.5,-105.5,16
413,7129.0,-1.2000000000000002,-3.2,0.9,8.8,-4.4,2.3000000000000003,-6.2,-13.5,-105.5,16
414,7152.0,-1.4000000000000001,-3.5,0.9,8.4,-4.4,2.3000000000000003,-29.0,5.9,-108.90000000000002,16
415,7166.0,-2.2,-3.6,0.6000000000000001,7.7,-4.2,2.2,-40.4,18.700000000000003,-110.30000000000001,16
416,7179.0,-2.8000000000000003,-3.7,0.6000000000000001,6.7,-4.0,2.2,-40.4,18.700000000000003,-110.30000000000001,16
417,7196.0,-3.9000000000000004,-3.9000000000000004,0.8,5.800000000000001,-4.1000000000000005,2.8000000000000003,-49.199999999999996,28.500000000000004,-109.50000000000001,16
418,7212.0,-4.7,-4.4,1.5,5.2,-4.2,3.4000000000000004,-44.8,37.300000000000004,-94.4,16
419,7229.0,-4.9,-4.6000000000000005,1.6,4.9,-4.6000000000000005,3.5,-44.8,37.300000000000004,-94.4,16
420,7246.0,-4.9,-5.4,1.3,4.800000000000001,-5.1000000000000005,3.1,-28.600000000000005,35.0,-81.0,16
421,7263.0,-5.1000000000000005,-6.0,0.4,4.6000000000000005,-5.4,2.4000000000000004,7.300000000000001,16.8,-46.300000000000004,16
422,7282.0,-5.300000000000001,-6.1000000000000005,-0.4,4.3,-5.5,1.6,17.200000000000003,4.1,-24.599999999999998,16
423,7296.0,-5.4,-6.0,-0.8,4.2,-5.2,1.0,17.200000000000003,4.1,-24.599999999999998,16
424,7312.0,-5.2,-5.5,-1.4000000000000001,4.6000000000000005,-4.9,0.7000000000000001,18.200000000000003,-6.4,-1.3,16
425,7329.0,-4.1000000000000005,-4.9,-1.2000000000000002,5.7,-4.5,0.8,-2.9,-12.100000000000001,39.300000000000004,16
426,7346.0,-3.3000000000000003,-4.7,-1.0,6.9,-4.5,1.0,-2.9,-12.100000000000001,39.300000000000004,16
427,7363.0,-2.0,-4.7,-0.9,7.9,-4.9,1.0,-17.200000000000003,-6.9,50.5,16
428,7379.0,-1.0,-5.1000000000000005,-1.1,8.700000000000001,-5.5,0.9,-54.0,7.500000000000001,64.50000000000001,16
429,7396.0,-0.6000000000000001,-5.300000000000001,-1.0,9.200000000000001,-6.1000000000000005,1.2000000000000002,-54.0,7.500000000000001,64.50000000000001,16
430,7412.0,-0.30000000000000004,-5.4,-0.4,9.3,-6.2,2.0,-75.7,13.000000000000002,73.8,16
431,7429.0,0.1,-4.7,0.7000000000000001,9.700000000000001,-5.7,3.1,-93.49999999999999,16.1,87.7,16
432,7445.0,0.8,-3.1,2.0,10.3,-4.6000000000000005,4.2,-103.40000000000002,17.1,116.9,16
433,7462.0,1.2000000000000002,-2.1,2.7,10.9,-3.3000000000000003,5.2,-103.40000000000002,17.1,116.9,16
434,7479.0,2.0,-0.30000000000000004,3.4000000000000004,11.600000000000001,-2.5,5.6000000000000005,-91.7,16.900000000000002,122.30000000000001,16
435,7496.0,3.0,0.30000000000000004,3.6,12.3,-2.5,5.6000000000000005,-42.900000000000006,7.0,113.60000000000001,16
436,7512.0,3.2,0.4,3.3000000000000003,12.3,-2.5,5.6000000000000005,-42.900000000000006,7.0,113.60000000000001,16
437,7529.0,3.6,0.1,2.5,12.8,-3.4000000000000004,4.5,-13.200000000000003,-6.4,106.80000000000001,16
438,7546.0,4.0,0.0,2.3000000000000003,13.100000000000001,-3.5,4.1000000000000005,14.100000000000001,-24.599999999999998,103.2,16
439,7564.0,4.5,0.5,1.7000000000000002,13.5,-3.2,3.5,51.9,-47.2,97.10000000000001,16
440,7580.0,4.7,1.0,1.4000000000000001,13.9,-2.5,2.9000000000000004,51.9,-47.2,97.10000000000001,16
441,7598.0,5.0,2.0,0.6000000000000001,13.8,-1.9000000000000001,2.3000000000000003,54.4,-44.4,86.4,16
442,7612.0,4.3,2.9000000000000004,0.0,12.9,-1.3,1.7000000000000002,22.2,-0.7,47.400000000000006,16
443,7629.0,2.7,3.2,-0.8,11.5,-1.1,1.2000000000000002,-4.300000000000001,29.900000000000006,28.700000000000003,16
444,7645.0,1.8,3.1,-1.1,10.0,-1.3,0.9,-4.300000000000001,29.900000000000006,28.700000000000003,16
445,7662.0,0.30000000000000004,2.8000000000000003,-1.2000000000000002,8.8,-1.6,1.0,-42.60000000000001,64.60000000000001,10.4,16
446,7679.0,-0.2,2.6,-1.2000000000000002,8.8,-1.6,1.0,-42.60000000000001,64.60000000000001,10.4,16
447,7695.0,-1.0,2.3000000000000003,-1.0,7.5,-2.2,1.4000000000000001,-44.10000000000001,61.599999999999994,10.200000000000001,16
448,7712.0,-1.3,2.1,-0.9,7.300000000000001,-2.5,1.6,-36.2,49.699999999999996,13.700000000000001,16
449,7729.0,-1.2000000000000002,1.9000000000000001,-0.8,7.300000000000001,-2.6,1.6,-6.300000000000001,12.8,26.9,16
450,7745.0,-1.2000000000000002,1.9000000000000001,-0.8,7.300000000000001,-2.6,1.6,-6.300000000000001,12.8,26.9,16
451,7763.0,-0.8,2.2,-1.0,7.800000000000001,-2.3000000000000003,1.2000000000000002,6.500000000000001,-2.0,34.2,16
452,7782.0,-0.30000000000000004,2.6,-1.3,8.3,-2.1,1.1,11.4,-13.8,42.1,16
453,7799.0,0.4,2.8000000000000003,-1.2000000000000002,8.8,-2.0,1.2000000000000002,4.7,-11.3,41.4,16
454,7814.0,1.0,2.9000000000000004,-0.9,9.200000000000001,-2.0,1.4000000000000001,-3.0,-5.0,38.900000000000006,16
455,7834.0,1.2000000000000002,3.0,-0.6000000000000001,9.4,-2.0,1.6,-9.4,2.5,35.5,16
456,7846.0,1.3,3.1,-0.6000000000000001,9.600000000000001,-1.9000000000000001,1.7000000000000002,-13.200000000000003,8.2,31.6,16
457,7862.0,1.4000000000000001,3.2,-0.5,9.600000000000001,-1.9000000000000001,1.7000000000000002,-13.200000000000003,8.2,31.6,16
458,7881.0,1.6,3.2,-0.4,9.700000000000001,-2.0,2.0,-14.5,9.5,27.5,16
459,7895.0,1.7000000000000002,3.0,-0.1,9.8,-2.2,2.3000000000000003,-9.700000000000001,4.7,20.599999999999998,16
460,7913.0,1.7000000000000002,2.9000000000000004,0.1,9.8,-2.2,2.3000000000000003,-4.2,1.1,19.300000000000004,16
461,7929.0,1.9000000000000001,2.6,0.4,10.0,-2.8000000000000003,2.9000000000000004,-4.2,1.1,19.300000000000004,16
462,7945.0,2.1,2.3000000000000003,0.9,10.3,-3.0,3.2,3.3000000000000007,-2.3,19.6,16
463,7962.0,2.5,2.2,0.9,10.700000000000001,-3.1,3.2,26.5,-12.5,22.4,16
464,7979.0,3.2,2.1,0.6000000000000001,11.200000000000001,-3.2,2.9000000000000004,37.400000000000006,-20.400000000000002,22.4,16
465,7996.0,3.5,1.9000000000000001,0.30000000000000004,11.9,-3.5,2.6,37.400000000000006,-20.400000000000002,22.4,16
466,8012.0,4.4,1.4000000000000001,0.30000000000000004,12.700000000000001,-4.0,2.6,45.6,-39.400000000000006,18.4,16
467,8030.0,5.300000000000001,0.7000000000000001,0.5,13.5,-4.6000000000000005,2.8000000000000003,44.5,-45.6,15.6,16
468,8046.0,5.6000000000000005,0.4,0.8,13.9,-5.1000000000000005,3.4000000000000004,44.5,-45.6,15.6,16
469,8063.0,5.6000000000000005,0.4,1.6,13.600000000000001,-4.6000000000000005,3.9000000000000004,43.00000000000001,-47.400000000000006,13.700000000000001,16
470,8079.0,4.9,1.6,2.0,13.100000000000001,-3.4000000000000004,4.2,50.2,-39.9,11.1,16
471,8096.0,4.7,2.4000000000000004,2.1,13.100000000000001,-3.4000000000000004,4.2,50.2,-39.9,11.1,16
472,8112.0,4.5,3.6,1.8,12.9,-1.4000000000000001,3.8000000000000003,60.6,-39.9,2.7,16
473,8129.0,4.3,3.6,1.1,12.700000000000001,-1.6,3.2,75.2,-44.9,-36.8,16
474,8145.0,3.4000000000000004,2.1,0.8,12.0,-2.8000000000000003,3.0,73.7,-47.0,-56.50000000000001,16
475,8162.0,2.9000000000000004,1.0,0.8,11.200000000000001,-4.4,3.1,73.7,-47.0,-56.50000000000001,16
476,8179.0,1.7000000000000002,-0.8,1.2000000000000002,10.3,-5.4,3.5,70.10000000000001,-47.400000000000006,-66.2,16
477,8195.0,0.30000000000000004,-1.5,1.6,9.200000000000001,-5.6000000000000005,3.7,69.20000000000002,-43.4,-58.0,16
478,8213.0,-0.2,-1.5,1.6,9.200000000000001,-5.6000000000000005,3.7,69.20000000000002,-43.4,-58.0,16
479,8230.0,-0.4,-1.3,1.7000000000000002,8.8,-5.1000000000000005,3.8000000000000003,73.30000000000001,-46.0,-48.0,16
480,8251.0,-0.4,-1.3,1.8,8.8,-4.9,3.8000000000000003,86.00000000000001,-56.10000000000001,-34.50000000000001,16
481,8262.0,-0.8,-1.0,1.5,8.6,-4.5,3.5,93.10000000000001,-61.39999999999999,-30.3,16
482,8279.0,-0.9,-0.8,1.3,8.5,-4.1000000000000005,3.1,93.10000000000001,-61.39999999999999,-30.3,16
483,8296.0,-1.0,-0.6000000000000001,0.9,8.4,-3.8000000000000003,2.6,98.50000000000001,-68.9,-27.700000000000003,16
484,8312.0,-1.1,-0.4,0.7000000000000001,8.4,-3.6,2.4000000000000004,96.1,-80.9,-27.9,16
485,8329.0,-1.1,-0.4,0.7000000000000001,8.4,-3.6,2.4000000000000004,96.1,-80.9,-27.9,16
486,8345.0,-1.2000000000000002,-0.30000000000000004,1.0,8.4,-3.2,2.5,88.8,-81.8,-30.699999999999996,16
487,8362.0,-1.4000000000000001,-0.2,1.3,8.200000000000001,-2.9000000000000004,2.6,68.80000000000001,-69.7,-40.1,16
488,8382.0,-1.6,-0.2,1.3,8.1,-2.8000000000000003,2.5,56.2,-60.1,-46.50000000000001,16
489,8400.0,-1.9000000000000001,-0.4,1.3,7.9,-2.9000000000000004,2.4000000000000004,41.199999999999996,-49.50000000000001,-53.300000000000004,16
490,8413.0,-2.1,-0.7000000000000001,1.4000000000000001,7.6000000000000005,-3.1,2.4000000000000004,41.199999999999996,-49.50000000000001,-53.300000000000004,16
491,8431.0,-2.7,-1.2000000000000002,1.6,7.1000000000000005,-3.3000000000000003,2.6,11.4,-26.5,-62.199999999999996,16
492,8446.0,-2.9000000000000004,-1.4000000000000001,1.7000000000000002,6.6000000000000005,-3.5,2.7,11.4,-26.5,-62.199999999999996,16
493,8462.0,-3.5,-1.7000000000000002,2.0,6.300000000000001,-3.6,2.9000000000000004,0.6000000000000001,-16.900000000000002,-62.6,16
494,8486.0,-3.8000000000000003,-1.9000000000000001,2.2,6.1000000000000005,-3.6,3.1,-10.0,-4.1,-57.00000000000001,16
495,8496.0,-3.8000000000000003,-2.1,2.2,6.0,-3.6,3.0,-10.600000000000001,-2.2,-53.599999999999994,16
496,8512.0,-3.7,-2.3000000000000003,2.1,6.2,-4.0,2.9000000000000004,-10.600000000000001,-2.2,-53.599999999999994,16
497,8530.0,-3.4000000000000004,-3.1,2.0,6.5,-4.6000000000000005,2.8000000000000003,-11.4,-2.6,-49.800000000000004,16
498,8546.0,-3.3000000000000003,-3.8000000000000003,1.9000000000000001,6.6000000000000005,-5.1000000000000005,2.8000000000000003,-18.3,-1.0,-37.1,16
499,8564.0,-2.9000000000000004,-4.3,2.1,6.9,-5.4,3.0,-23.5,1.5,-27.9,16
500,8581.0,-2.7,-4.4,2.1,7.300000000000001,-5.5,3.1,-23.5,1.5,-27.9,16
501,8595.0,-2.0,-4.3,2.2,8.0,-5.5,3.2,-38.1,12.100000000000001,-12.0,16
502,8612.0,-1.2000000000000002,-4.800000000000001,2.2,8.0,-5.5,3.2,-48.300000000000004,18.3,-8.100000000000001,16
503,8629.0,-1.1,-5.300000000000001,2.3000000000000003,8.700000000000001,-6.9,3.5,-48.300000000000004,18.3,-8.100000000000001,16
504,8645.0,-1.1,-6.2,2.5,8.6,-7.6000000000000005,3.8000000000000003,-60.00000000000001,27.700000000000003,-2.2,16
505,8663.0,-1.4000000000000001,-6.4,3.0,8.200000000000001,-7.800000000000001,4.4,-75.4,49.800000000000004,25.1,16
506,8679.0,-1.8,-6.0,3.3000000000000003,7.4,-7.1000000000000005,5.0,-75.4,49.800000000000004,25.1,16
507,8696.0,-2.6,-4.6000000000000005,3.7,7.1000000000000005,-6.0,5.4,-70.7,58.60000000000001,45.9,16
508,8712.0,-1.8,-3.2,3.7,8.0,-5.2,5.4,-22.8,46.0,88.20000000000002,16
509,8729.0,-0.2,-2.5,3.2,9.200000000000001,-5.0,5.0,14.600000000000001,26.5,100.4,16
510,8745.0,0.5,-2.3000000000000003,2.9000000000000004,10.4,-4.9,4.6000000000000005,14.600000000000001,26.5,100.4,16
511,8762.0,1.7000000000000002,-1.9000000000000001,2.0,11.200000000000001,-4.9,3.7,53.50000000000001,5.6,108.39999999999999,16
512,8779.0,2.4000000000000004,-1.6,0.7000000000000001,11.600000000000001,-4.9,2.6,115.20000000000002,-28.900000000000002,114.10000000000001,16
513,8795.0,2.6,-1.4000000000000001,0.1,11.700000000000001,-4.6000000000000005,1.6,115.20000000000002,-28.900000000000002,114.10000000000001,16
514,8812.0,2.5,-0.5,-1.1,11.600000000000001,-3.9000000000000004,0.7000000000000001,128.20000000000002,-37.0,114.00000000000001,16
515,8829.0,2.7,0.6000000000000001,-1.7000000000000002,11.700000000000001,-3.2,0.4,117.20000000000002,-28.900000000000002,107.7,16
516,8846.0,2.9000000000000004,1.1,-1.9000000000000001,11.700000000000001,-3.2,0.4,117.20000000000002,-28.900000000000002,107.7,16
517,8862.0,2.9000000000000004,2.2,-2.8000000000000003,11.600000000000001,-1.7000000000000002,-1.0,103.2,-12.100000000000001,98.8,16
518,8879.0,2.6,3.2,-4.1000000000000005,11.100000000000001,-1.0,-1.9000000000000001,84.2,5.7,85.5,16
519,8895.0,2.0,3.8000000000000003,-4.7,10.5,-0.7000000000000001,-2.2,34.60000000000001,26.6,53.50000000000001,16
520,8913.0,1.7000000000000002,3.9000000000000004,-4.7,9.9,-0.7000000000000001,-2.0,34.60000000000001,26.6,53.50000000000001,16
521,8929.0,1.1,3.7,-4.3,9.4,-1.0,-1.4000000000000001,13.000000000000002,27.700000000000003,38.900000000000006,16
522,8945.0,0.6000000000000001,3.2,-3.4000000000000004,8.9,-1.5,-0.7000000000000001,-11.000000000000002,19.5,19.400000000000002,16
523,8962.0,0.30000000000000004,3.0,-3.0,8.9,-1.5,-0.7000000000000001,-11.000000000000002,19.5,19.400000000000002,16
524,8979.0,0.0,2.6,-2.3000000000000003,8.4,-2.2,0.5,-14.0,16.900000000000002,16.0,16
525,8997.0,0.1,2.5,-1.8,8.6,-2.2,0.8,-13.3,14.400000000000002,15.5,16
526,9014.0,0.6000000000000001,2.5,-1.6,8.9,-2.2,1.0,-6.500000000000001,9.899999999999999,14.5,16
527,9033.0,0.8,2.7,-1.6,9.200000000000001,-2.0,0.9,-3.9,9.4,11.2,16
528,9049.0,0.9,2.8000000000000003,-1.7000000000000002,9.3,-1.9000000000000001,0.9,-3.9,9.4,11.2,16
529,9067.0,1.0,2.8000000000000003,-1.8,9.3,-1.9000000000000001,0.8,-4.7,10.200000000000001,1.3,16
530,9079.0,1.0,2.7,-1.8,9.3,-2.1,1.0,-6.4,11.2,-3.3000000000000007,16
531,9096.0,1.0,2.4000000000000004,-1.5,9.3,-2.4000000000000004,1.2000000000000002,-6.4,11.2,-3.3000000000000007,16
532,9112.0,1.1,2.1,-1.4000000000000001,9.5,-2.7,1.2000000000000002,-5.0,10.700000000000001,-8.4,16
533,9129.0,1.5,1.4000000000000001,-1.4000000000000001,9.9,-3.3000000000000003,1.3,-2.6,5.0,-9.100000000000001,16
534,9146.0,1.7000000000000002,1.1,-1.2000000000000002,10.3,-3.7,1.5,-2.6,5.0,-9.100000000000001,16
535,9162.0,2.1,0.7000000000000001,-0.9,10.700000000000001,-3.9000000000000004,1.8,0.30000000000000004,-0.9000000000000001,-7.500000000000001,16
536,9179.0,2.6,0.8,-0.5,11.100000000000001,-3.7,2.1,8.8,-13.000000000000002,-2.5,16
537,9196.0,2.8000000000000003,1.0,-0.4,11.100000000000001,-3.7,2.1,8.8,-13.000000000000002,-2.5,16
538,9212.0,3.8000000000000003,1.2000000000000002,-0.6000000000000001,12.8,-3.7,1.8,11.000000000000002,-17.300000000000004,-4.1,16
539,9229.0,5.1000000000000005,-0.2,-0.5,13.9,-5.0,2.2,-4.1,-29.0,-18.5,16
540,9245.0,5.6000000000000005,-1.8,0.8,14.3,-6.300000000000001,3.2,-14.0,-23.6,-20.599999999999998,16
541,9262.0,5.5,-2.2,1.4000000000000001,13.8,-6.5,4.3,-14.0,-23.6,-20.599999999999998,16
542,9279.0,4.3,-1.2000000000000002,2.4000000000000004,12.700000000000001,-4.9,4.6000000000000005,-17.300000000000004,-10.600000000000001,-16.3,16
543,9296.0,3.4000000000000004,0.8,2.0,12.3,-3.4000000000000004,4.2,-0.2,-3.6000000000000005,-9.700000000000001,16
544,9312.0,3.6,1.3,1.8,12.3,-3.4000000000000004,4.2,-0.2,-3.6000000000000005,-9.700000000000001,16
545,9329.0,4.1000000000000005,0.8,2.2,12.8,-3.8000000000000003,4.800000000000001,11.000000000000002,-18.4,-18.3,16
546,9346.0,3.0,-0.2,2.8000000000000003,11.8,-4.5,5.1000000000000005,34.900000000000006,-27.800000000000004,-37.9,16
547,9362.0,1.6,-1.0,2.8000000000000003,11.8,-4.5,5.1000000000000005,49.1,-31.099999999999998,-37.7,16
548,9379.0,1.0,-1.2000000000000002,2.7,9.700000000000001,-5.0,5.0,49.1,-31.099999999999998,-37.7,16
549,9395.0,0.1,-1.1,2.8000000000000003,9.3,-4.800000000000001,5.0,62.6,-35.3,-32.5,16
550,9412.0,-0.2,-0.9,2.7,9.0,-4.5,4.9,91.4,-41.7,-20.900000000000002,16
551,9429.0,-0.4,-0.7000000000000001,2.5,9.0,-4.5,4.9,91.4,-41.7,-20.900000000000002,16
552,9447.0,-0.9,-0.30000000000000004,1.7000000000000002,8.4,-3.5,3.6,105.9,-43.6,-18.0,16
553,9462.0,-1.1,0.0,0.9,8.4,-3.2,2.9000000000000004,124.60000000000001,-54.9,-17.400000000000002,16
554,9479.0,-1.1,0.0,0.6000000000000001,8.4,-3.2,2.9000000000000004,124.60000000000001,-54.9,-17.400000000000002,16
555,9496.0,-1.4000000000000001,0.2,0.1,8.0,-2.6,2.0,126.70000000000002,-58.7,-20.3,16
556,9512.0,-1.7000000000000002,0.5,-0.30000000000000004,7.9,-2.3000000000000003,1.6,124.60000000000001,-59.80000000000001,-24.3,16
557,9529.0,-1.8,0.5,-0.8,7.800000000000001,-2.1,1.1,107.10000000000001,-57.20000000000001,-38.0,16
558,9547.0,-1.9000000000000001,0.2,-1.0,7.800000000000001,-2.2,0.8,90.0,-52.400000000000006,-46.800000000000004,16
559,9562.0,-1.9000000000000001,-0.1,-1.1,7.7,-2.5,0.8,90.0,-52.400000000000006,-46.800000000000004,16
560,9579.0,-2.3000000000000003,-0.7000000000000001,-0.9,7.4,-2.9000000000000004,0.8,46.1,-32.8,-61.7,16
561,9595.0,-2.6,-1.5,-0.6000000000000001,7.2,-3.4000000000000004,1.1,25.1,-22.2,-64.9,16
562,9612.0,-2.8000000000000003,-2.0,-0.4,6.9,-3.9000000000000004,1.5,25.1,-22.2,-64.9,16
563,9629.0,-3.1,-2.5,0.1,6.7,-4.1000000000000005,1.9000000000000001,7.9,-12.299999999999999,-64.60000000000001,16
564,9646.0,-3.2,-2.7,0.30000000000000004,6.7,-4.1000000000000005,1.9000000000000001,-4.4,-4.0,-61.39999999999999,16
565,9662.0,-3.5,-2.8000000000000003,0.5,6.4,-4.2,2.1,-11.700000000000001,2.2,-56.300000000000004,16
566,9679.0,-3.5,-2.8000000000000003,0.6000000000000001,6.4,-4.0,2.2,-15.700000000000001,5.2,-50.5,16
567,9696.0,-3.1,-3.0,0.5,6.800000000000001,-4.3,2.2,-19.9,4.5,-40.5,16
568,9712.0,-2.7,-3.7,0.6000000000000001,7.1000000000000005,-4.800000000000001,2.3000000000000003,-23.3,4.9,-35.9,16
569,9729.0,-2.6,-4.0,0.6000000000000001,7.2,-5.2,2.3000000000000003,-23.3,4.9,-35.9,16
570,9745.0,-2.5,-4.5,0.7000000000000001,7.4,-5.6000000000000005,2.4000000000000004,-28.200000000000003,7.400000000000001,-29.600000000000005,16
571,9762.0,-2.2,-4.9,0.7000000000000001,7.6000000000000005,-5.9,2.5,-38.400000000000006,12.4,-12.0,16
572,9779.0,-2.1,-5.0,0.8,7.9,-6.1000000000000005,2.7,-38.400000000000006,12.4,-12.0,16
573,9798.0,-1.4000000000000001,-5.1000000000000005,0.9,8.6,-6.4,2.7,-44.5,15.299999999999999,-1.8000000000000003,16
574,9812.0,-0.6000000000000001,-5.6000000000000005,1.1,9.200000000000001,-7.0,3.0,-58.60000000000001,20.2,14.400000000000002,16
575,9830.0,-0.30000000000000004,-5.9,1.3,9.4,-7.300000000000001,3.2,-65.8,26.300000000000004,22.8,16
576,9846.0,-0.30000000000000004,-5.9,1.4000000000000001,9.1,-7.4,3.5,-65.8,26.300000000000004,22.8,16
577,9864.0,-0.9,-5.800000000000001,1.6,8.5,-7.4,3.7,-70.4,32.400000000000006,34.0,16
578,9879.0,-1.4000000000000001,-4.7,1.7000000000000002,8.1,-6.6000000000000005,4.0,-64.4,42.5,73.10000000000001,16
579,9896.0,-1.4000000000000001,-3.8000000000000003,1.8,8.5,-5.2,4.1000000000000005,-64.4,42.5,73.10000000000001,16
580,9912.0,0.1,-2.0,1.7000000000000002,10.200000000000001,-4.3,3.9000000000000004,-45.9,37.400000000000006,94.0,16
581,9929.0,2.2,-1.1,1.1,11.8,-4.0,3.2,10.4,5.300000000000001,107.5,16
582,9946.0,3.9000000000000004,-1.0,0.0,13.200000000000001,-4.2,2.3000000000000003,32.6,-12.299999999999999,102.2,16
583,9962.0,4.5,-1.0,-0.4,13.9,-4.4,1.6,32.6,-12.299999999999999,102.2,16
584,9979.0,4.800000000000001,-0.6000000000000001,-1.2000000000000002,13.9,-4.1000000000000005,0.8,45.6,-23.900000000000006,93.8,16
585,9999.0,4.5,0.4,-2.1,13.4,-3.3000000000000003,0.1,37.50000000000001,-23.3,73.5,16
586,10012.0,4.1000000000000005,1.1,-2.4000000000000004,12.8,-2.4000000000000004,-0.30000000000000004,37.50000000000001,-23.3,73.5,16
587,10036.0,3.0,2.4000000000000004,-2.4000000000000004,12.100000000000001,-1.8,-0.2,-17.5,10.600000000000001,43.70000000000001,16
588,10046.0,2.5,2.6,-2.1,11.200000000000001,-1.5,0.30000000000000004,-49.4,37.300000000000004,27.0,16
589,10063.0,1.3,2.8000000000000003,-1.2000000000000002,10.100000000000001,-1.4000000000000001,1.1,-69.9,59.5,11.8,16
590,10080.0,0.5,2.9000000000000004,-0.9,8.700000000000001,-1.4000000000000001,1.7000000000000002,-69.9,59.5,11.8,16
591,10098.0,-1.1,2.7,-0.6000000000000001,7.4,-1.6,2.0,-76.4,70.7,0.4,16
592,10112.0,-2.2,2.4000000000000004,-0.4,6.5,-1.9000000000000001,2.2,-58.800000000000004,60.900000000000006,-3.9,16
593,10129.0,-2.4000000000000004,2.3000000000000003,-0.4,6.1000000000000005,-2.1,2.2,-58.800000000000004,60.900000000000006,-3.9,16
594,10146.0,-2.7,2.2,-0.6000000000000001,5.9,-2.0,2.0,-41.50000000000001,48.400000000000006,0.9000000000000001,16
595,10163.0,-2.6,2.5,-1.1,6.0,-1.8,1.5,-11.000000000000002,22.1,12.299999999999999,16
596,10182.0,-2.3000000000000003,2.8000000000000003,-1.5,6.300000000000001,-1.6,1.2000000000000002,-4.5,11.8,14.800000000000002,16
597,10198.0,-2.1,3.0,-1.6,6.7,-1.4000000000000001,1.0,-4.5,11.8,14.800000000000002,16
598,10213.0,-1.5,3.0,-1.9000000000000001,7.1000000000000005,-1.5,0.9,-4.4,6.1000000000000005,14.5,16
599,10229.0,-1.0,2.7,-1.8,7.5,-1.7000000000000002,1.0,-21.500000000000004,11.4,7.699999999999999,16
600,10246.0,-0.8,2.5,-1.6,7.7,-2.3000000000000003,1.2000000000000002,-21.500000000000004,11.4,7.699999999999999,16
601,10263.0,-0.6000000000000001,1.8,-1.3,7.9,-2.9000000000000004,1.6,-33.1,18.900000000000002,4.7,16
602,10279.0,-0.2,1.2000000000000002,-0.8,8.200000000000001,-3.3000000000000003,2.0,-47.3,30.599999999999998,7.6,16
603,10296.0,0.30000000000000004,1.0,-0.5,8.700000000000001,-3.6,2.3000000000000003,-46.9,30.3,11.2,16
604,10312.0,0.8,0.9,-0.30000000000000004,9.5,-3.9000000000000004,2.5,-46.9,30.3,11.2,16
605,10329.0,1.7000000000000002,0.5,0.1,10.200000000000001,-4.3,3.0,-43.70000000000001,26.300000000000004,14.100000000000001,16
606,10345.0,2.5,0.1,0.5,10.8,-4.7,3.3000000000000003,-32.400000000000006,18.3,18.200000000000003,16
607,10362.0,2.8000000000000003,-0.2,0.6000000000000001,11.100000000000001,-5.2,3.5,-32.400000000000006,18.3,18.200000000000003,16
608,10379.0,3.0,-0.4,0.9,11.3,-5.300000000000001,3.7,-25.8,14.100000000000001,23.2,16
609,10395.0,3.7,0.1,1.1,12.100000000000001,-4.9,3.8000000000000003,-8.600000000000001,2.9,38.7,16
610,10412.0,4.5,0.2,1.1,12.100000000000001,-4.9,3.8000000000000003,-8.600000000000001,2.9,38.7,16
611,10429.0,5.7,0.2,0.9,14.100000000000001,-4.9,3.5,-2.4000000000000004,-2.4000000000000004,41.0,16
612,10446.0,6.4,0.9,0.8,14.5,-4.3,3.5,-1.7,-1.5,40.6,16
613,10462.0,6.5,1.9000000000000001,0.6000000000000001,14.600000000000001,-3.3000000000000003,3.4000000000000004,-8.2,11.8,31.9,16
614,10479.0,6.5,2.6,0.6000000000000001,14.5,-2.2,3.4000000000000004,-10.4,17.6,22.1,16
615,10495.0,6.300000000000001,3.9000000000000004,0.7000000000000001,14.4,-1.1,3.7,-10.4,17.6,22.1,16
616,10512.0,6.300000000000001,5.0,1.1,14.4,-0.30000000000000004,4.1000000000000005,-2.3,16.6,-15.399999999999999,16
617,10529.0,6.0,4.4,1.4000000000000001,14.200000000000001,-0.9,4.2,9.899999999999999,8.5,-41.6,16
618,10546.0,5.300000000000001,3.5,1.0,13.0,-2.2,3.8000000000000003,9.899999999999999,8.5,-41.6,16
619,10562.0,3.6,1.8,0.8,11.8,-3.4000000000000004,3.8000000000000003,26.1,-10.8,-68.80000000000001,16
620,10579.0,2.3000000000000003,0.6000000000000001,1.3,10.9,-4.0,4.4,33.800000000000004,-18.3,-69.10000000000001,16
621,10596.0,1.9000000000000001,0.5,1.7000000000000002,10.4,-3.9000000000000004,4.7,33.800000000000004,-18.3,-69.10000000000001,16
622,10612.0,1.4000000000000001,0.4,1.7000000000000002,10.200000000000001,-3.9000000000000004,4.7,43.1,-22.2,-68.7,16
623,10629.0,0.8,0.0,1.5,9.700000000000001,-3.9000000000000004,4.4,54.6,-18.6,-71.39999999999999,16
624,10645.0,0.5,-0.1,1.2000000000000002,9.700000000000001,-3.9000000000000004,4.4,54.6,-18.6,-71.39999999999999,16
625,10662.0,-0.30000000000000004,-0.2,0.9,8.6,-3.7,4.0,61.10000000000001,-20.900000000000002,-71.19999999999999,16
626,10680.0,-1.0,-0.30000000000000004,1.2000000000000002,8.200000000000001,-3.4000000000000004,4.3,77.7,-27.6,-66.60000000000001,16
627,10700.0,-1.0,0.0,1.1,8.3,-2.9000000000000004,4.2,87.40000000000002,-28.700000000000003,-67.7,16
628,10712.0,-1.2000000000000002,0.0,0.9,7.9,-2.8000000000000003,3.8000000000000003,87.40000000000002,-28.700000000000003,-67.7,16
629,10730.0,-1.8,-0.6000000000000001,0.7000000000000001,7.4,-3.3000000000000003,3.7,92.60000000000001,-27.099999999999998,-70.9,16
630,10748.0,-2.6,-1.6,0.4,6.9,-3.8000000000000003,3.4000000000000004,93.60000000000001,-20.900000000000002,-70.3,16
631,10762.0,-2.7,-1.8,0.2,6.9,-3.8000000000000003,3.4000000000000004,93.60000000000001,-20.900000000000002,-70.3,16
632,10779.0,-2.8000000000000003,-2.1,-0.8,7.0,-3.6,2.0,92.0,-20.2,-67.3,16
633,10798.0,-2.5,-2.2,-1.2000000000000002,7.1000000000000005,-3.7,2.0,74.80000000000001,-28.500000000000004,-66.0,16
634,10816.0,-2.9000000000000004,-2.8000000000000003,-0.7000000000000001,6.800000000000001,-4.0,2.2,69.4,-36.6,-66.3,16
635,10830.0,-3.0,-3.0,-0.7000000000000001,6.9,-4.1000000000000005,2.3000000000000003,69.4,-36.6,-66.3,16
636,10845.0,-2.5,-3.3000000000000003,0.0,7.2,-4.1000000000000005,3.0,60.900000000000006,-39.699999999999996,-64.4,16
637,10862.0,-2.6,-3.5,0.5,7.0,-4.0,3.1,42.400000000000006,-19.799999999999997,-63.70000000000001,16
638,10879.0,-2.8000000000000003,-3.5,0.2,7.0,-4.0,3.1,42.400000000000006,-19.799999999999997,-63.70000000000001,16
639,10896.0,-2.9000000000000004,-3.8000000000000003,-0.4,7.0,-4.2,2.1,34.300000000000004,-11.5,-63.0,16
640,10912.0,-2.6,-4.5,-0.8,7.1000000000000005,-4.800000000000001,1.9000000000000001,9.5,-7.500000000000001,-59.1,16
641,10929.0,-2.5,-5.4,-0.6000000000000001,7.2,-5.4,2.0,-4.800000000000001,-8.3,-53.10000000000001,16
642,10945.0,-2.4000000000000004,-5.9,-0.4,7.4,-6.1000000000000005,2.5,-4.800000000000001,-8.3,-53.10000000000001,16
643,10962.0,-2.2,-6.5,0.30000000000000004,7.5,-6.4,3.0,-17.400000000000002,-9.5,-43.6,16
644,10979.0,-2.0,-6.6000000000000005,0.6000000000000001,7.7,-6.5,3.2,-36.1,-4.5,-22.3,16
645,11005.0,-1.8,-6.7,0.8,8.0,-6.9,3.5,-44.8,-0.8,-12.4,16
646,11013.0,-1.6,-6.9,0.9,8.0,-6.9,3.5,-44.8,-0.8,-12.4,16
647,11031.0,-1.5,-7.4,1.1,8.0,-7.5,3.6,-58.60000000000001,12.600000000000001,12.600000000000001,16
648,11045.0,-1.8,-7.2,0.8,7.800000000000001,-7.4,3.4000000000000004,-62.4,16.1,29.1,16
649,11062.0,-2.0,-6.7,0.7000000000000001,7.300000000000001,-6.7,3.6,-62.4,16.1,29.1,16
650,11079.0,-2.6,-5.0,1.0,6.9,-5.300000000000001,3.9000000000000004,-62.7,18.4,48.10000000000001,16
651,11095.0,-2.1,-3.3000000000000003,1.2000000000000002,7.6000000000000005,-4.3,4.0,-40.5,12.7,83.89999999999999,16
652,11112.0,-1.3,-2.8000000000000003,1.1,7.6000000000000005,-4.3,4.0,-40.5,12.7,83.89999999999999,16
653,11129.0,0.7000000000000001,-2.5,0.7000000000000001,10.700000000000001,-4.2,3.2,-20.599999999999998,2.2,93.60000000000001,16
654,11146.0,2.1,-2.6,-0.1,11.600000000000001,-4.6000000000000005,2.5,14.100000000000001,-19.200000000000003,96.4,16
655,11168.0,2.5,-2.7,-0.8,11.8,-4.9,1.8,20.3,-24.5,96.60000000000001,16
656,11181.0,2.2,-2.5,-1.1,11.200000000000001,-4.6000000000000005,1.2000000000000002,20.3,-24.5,96.60000000000001,16
657,11195.0,1.4000000000000001,-1.5,-1.7000000000000002,10.4,-4.0,0.8,16.5,-23.6,99.00000000000001,16
658,11215.0,0.8,-0.30000000000000004,-1.7000000000000002,9.9,-3.2,0.9,-20.900000000000002,-6.9,104.7,16
659,11231.0,0.7000000000000001,0.8,-0.7000000000000001,9.8,-2.6,1.7000000000000002,-43.800000000000004,9.3,103.7,16
660,11245.0,0.9,1.4000000000000001,-0.1,10.0,-1.9000000000000001,3.0,-43.800000000000004,9.3,103.7,16
661,11262.0,1.5,2.6,1.2000000000000002,10.4,-1.1,3.9000000000000004,-54.4,43.6,85.5,16
662,11279.0,1.7000000000000002,3.2,1.4000000000000001,10.4,-1.1,3.9000000000000004,-54.4,43.6,85.5,16
663,11296.0,1.2000000000000002,3.8000000000000003,0.8,9.3,-0.4,3.0,-37.7,48.50000000000001,65.7,16
664,11312.0,-0.1,3.7,-0.4,8.200000000000001,-0.7000000000000001,2.3000000000000003,-19.400000000000002,43.6,46.6,16
665,11329.0,-0.8,3.2,-1.1,7.7,-1.2000000000000002,1.8,-1.9,26.400000000000006,27.3,16
666,11345.0,-1.0,2.9000000000000004,-1.3,7.4,-1.6,1.5,-1.9,26.400000000000006,27.3,16
667,11362.0,-1.0,2.7,-1.5,7.5,-1.8,1.5,-4.800000000000001,25.200000000000003,23.800000000000004,16
668,11379.0,-0.8,2.5,-1.3,7.6000000000000005,-2.0,1.7000000000000002,-21.900000000000002,34.60000000000001,19.6,16
669,11397.0,-0.4,2.4000000000000004,-1.2000000000000002,7.9,-2.1,1.9000000000000001,-29.300000000000004,41.0,17.5,16
670,11412.0,-0.2,2.3000000000000003,-1.2000000000000002,8.1,-2.3000000000000003,1.9000000000000001,-29.300000000000004,41.0,17.5,16
671,11429.0,-0.1,2.1,-1.3,8.1,-2.5,1.9000000000000001,-34.900000000000006,46.300000000000004,14.600000000000001,16
672,11445.0,0.0,1.9000000000000001,-1.3,8.1,-2.8000000000000003,1.9000000000000001,-44.300000000000004,52.1,13.000000000000002,16
673,11462.0,0.0,1.7000000000000002,-1.3,8.0,-3.2,2.0,-44.300000000000004,52.1,13.000000000000002,16
674,11479.0,0.1,1.2000000000000002,-1.1,8.200000000000001,-3.8000000000000003,2.2,-48.50000000000001,51.9,15.700000000000001,16
675,11496.0,0.7000000000000001,0.7000000000000001,-1.0,8.700000000000001,-4.4,2.4000000000000004,-53.9,40.7,28.3,16
676,11512.0,1.1,0.4,-0.8,8.700000000000001,-4.4,2.4000000000000004,-53.9,40.7,28.3,16
677,11531.0,2.3000000000000003,0.2,-0.1,10.700000000000001,-5.1000000000000005,3.7,-51.9,29.700000000000006,36.400000000000006,16
678,11547.0,4.0,0.0,0.7000000000000001,12.0,-5.5,3.9000000000000004,-42.60000000000001,16.700000000000003,42.60000000000001,16
679,11562.0,5.1000000000000005,-0.6000000000000001,0.2,13.0,-6.1000000000000005,3.4000000000000004,-13.900000000000002,-14.300000000000002,45.2,16
680,11579.0,6.1000000000000005,-1.2000000000000002,0.5,13.700000000000001,-6.800000000000001,3.6,-7.9,-31.0,48.800000000000004,16
681,11595.0,6.2,-1.2000000000000002,0.8,13.9,-6.800000000000001,4.1000000000000005,-7.9,-31.0,48.800000000000004,16
682,11612.0,6.9,-0.1,1.5,14.8,-5.7,4.6000000000000005,3.5,-51.2,66.5,16
683,11629.0,7.5,0.6000000000000001,2.1,14.8,-5.7,4.6000000000000005,3.5,-51.2,66.5,16
684,11645.0,8.5,2.5,3.1,16.400000000000002,-2.8000000000000003,6.0,11.900000000000002,-50.5,63.0,16
685,11662.0,9.0,4.2,3.2,16.6,-1.5,5.9,28.400000000000002,-48.800000000000004,53.10000000000001,16
686,11679.0,8.3,5.5,2.5,15.9,-0.4,5.2,65.0,-36.9,1.5,16
687,11696.0,7.5,5.800000000000001,1.6,14.600000000000001,-0.4,3.4000000000000004,65.0,-36.9,1.5,16
688,11712.0,5.6000000000000005,4.5,-0.6000000000000001,12.9,-1.7000000000000002,1.9000000000000001,73.0,-32.6,-31.2,16
689,11729.0,3.5,2.4000000000000004,-1.4000000000000001,11.5,-3.2,1.6,56.10000000000001,-34.7,-70.2,16
690,11746.0,2.2,0.8,-1.1,10.5,-4.3,1.9000000000000001,47.2,-34.900000000000006,-73.0,16
691,11765.0,1.0,0.2,-0.5,9.600000000000001,-4.7,2.4000000000000004,44.10000000000001,-36.0,-70.3,16
692,11779.0,0.5,0.2,-0.30000000000000004,9.0,-4.5,2.6,44.10000000000001,-36.0,-70.3,16
693,11796.0,-0.1,0.2,-0.2,8.700000000000001,-4.3,2.7,49.50000000000001,-49.199999999999996,-63.10000000000001,16
694,11814.0,-0.30000000000000004,0.2,0.2,8.6,-4.0,2.9000000000000004,52.400000000000006,-55.3,-62.300000000000004,16
695,11831.0,-0.5,0.2,0.4,8.3,-3.9000000000000004,3.1,52.400000000000006,-55.3,-62.300000000000004,16
696,11845.0,-1.1,0.1,0.4,7.9,-3.8000000000000003,3.0,56.400000000000006,-56.9,-60.7,16
697,11862.0,-1.4000000000000001,0.1,0.30000000000000004,7.9,-3.8000000000000003,3.0,56.800000000000004,-56.6,-58.0,16
698,11879.0,-1.7000000000000002,0.2,0.1,7.6000000000000005,-3.3000000000000003,2.5,56.800000000000004,-56.6,-58.0,16
699,11896.0,-1.7000000000000002,0.2,0.2,7.800000000000001,-3.1,2.5,56.300000000000004,-63.30000000000001,-57.00000000000001,16
700,11914.0,-1.5,-0.1,0.4,8.0,-3.2,2.6,54.9,-65.3,-60.00000000000001,16
701,11930.0,-1.6,-0.6000000000000001,0.5,8.0,-3.4000000000000004,2.5,51.50000000000001,-64.2,-63.599999999999994,16
702,11948.0,-1.7000000000000002,-0.8,0.6000000000000001,7.9,-3.7,2.5,51.50000000000001,-64.2,-63.599999999999994,16
703,11962.0,-1.9000000000000001,-1.4000000000000001,0.8,7.800000000000001,-3.9000000000000004,2.5,39.699999999999996,-55.8,-68.0,16
704,11979.0,-2.1,-1.6,0.8,7.800000000000001,-3.9000000000000004,2.5,39.699999999999996,-55.8,-68.0,16
705,11996.0,-2.3000000000000003,-2.1,1.0,7.5,-4.3,2.7,31.400000000000002,-49.1,-67.4,16
706,12013.0,-2.4000000000000004,-2.3000000000000003,1.2000000000000002,7.5,-4.2,2.7,13.700000000000001,-34.900000000000006,-65.4,16
707,12032.0,-2.6,-2.3000000000000003,1.5,7.300000000000001,-4.0,2.9000000000000004,7.200000000000001,-30.4,-66.4,16
708,12046.0,-2.7,-2.3000000000000003,1.6,7.1000000000000005,-4.0,3.0,7.200000000000001,-30.4,-66.4,16
709,12064.0,-2.9000000000000004,-2.8000000000000003,1.6,7.0,-4.4,2.9000000000000004,2.5,-25.900000000000002,-67.10000000000001,16
710,12081.0,-2.9000000000000004,-3.6,1.6,7.0,-5.1000000000000005,2.8000000000000003,-7.200000000000001,-18.1,-63.2,16
711,12095.0,-2.9000000000000004,-4.2,1.6,7.0,-5.1000000000000005,2.8000000000000003,-7.200000000000001,-18.1,-63.2,16
712,12115.0,-2.6,-5.5,1.7000000000000002,7.300000000000001,-6.4,2.9000000000000004,-16.4,-13.6,-46.7,16
713,12129.0,-2.5,-5.9,1.7000000000000002,7.5,-7.0,2.9000000000000004,-20.5,-11.6,-35.2,16
714,12147.0,-2.4000000000000004,-6.1000000000000005,1.8,7.800000000000001,-7.4,3.1,-26.5,-6.500000000000001,-21.7,16
715,12162.0,-1.8,-6.6000000000000005,2.0,8.4,-7.7,3.2,-26.5,-6.500000000000001,-21.7,16
716,12179.0,-1.3,-6.800000000000001,2.1,8.8,-7.9,3.4000000000000004,-34.0,1.4,-8.700000000000001,16
717,12195.0,-0.8,-6.800000000000001,2.3000000000000003,9.0,-8.0,3.6,-47.900000000000006,25.1,13.700000000000001,16
718,12213.0,-1.0,-6.800000000000001,2.3000000000000003,9.0,-8.0,3.6,-47.900000000000006,25.1,13.700000000000001,16
719,12230.0,-1.9000000000000001,-6.300000000000001,1.9000000000000001,7.4,-7.4,3.4000000000000004,-50.8,36.1,25.200000000000003,16
720,12246.0,-2.8000000000000003,-4.9,2.1,6.9,-6.2,3.7,-39.599999999999994,40.5,61.0,16
721,12262.0,-2.4000000000000004,-3.0,2.2,7.4,-4.9,3.8000000000000003,-14.5,31.6,78.4,16
722,12279.0,-1.5,-2.2,1.9000000000000001,9.1,-3.8000000000000003,3.2,-14.5,31.6,78.4,16
723,12295.0,0.6000000000000001,-1.2000000000000002,0.6000000000000001,10.5,-3.7,1.8,20.0,14.200000000000001,85.5,16
724,12312.0,1.5,-1.6,-1.4000000000000001,10.9,-4.3,0.1,72.9,-25.7,74.80000000000001,16
725,12329.0,1.1,-2.2,-2.6,10.600000000000001,-5.0,-0.9,71.5,-30.000000000000004,74.5,16
726,12346.0,0.9,-2.1,-3.0,10.3,-4.800000000000001,-1.5,71.5,-30.000000000000004,74.5,16
727,12362.0,0.8,-1.2000000000000002,-3.3000000000000003,10.100000000000001,-4.2,-1.6,23.2,-8.4,81.4,16
728,12379.0,0.7000000000000001,-0.6000000000000001,-3.2,10.100000000000001,-4.2,-1.6,23.2,-8.4,81.4,16
729,12396.0,0.8,0.5,-2.2,10.0,-2.8000000000000003,0.1,-15.2,14.100000000000001,79.9,16
730,12413.0,0.8,1.3,-0.8,9.8,-2.4000000000000004,1.4000000000000001,-50.400000000000006,41.1,73.7,16
731,12429.0,0.2,1.7000000000000002,0.30000000000000004,9.0,-2.3000000000000003,2.2,-75.3,84.80000000000001,57.00000000000001,16
732,12447.0,-0.30000000000000004,1.8,0.4,9.0,-2.3000000000000003,2.2,-75.3,84.80000000000001,57.00000000000001,16
733,12462.0,-0.9,2.1,-0.1,7.7,-2.1,1.8,-63.4,87.2,54.6,16
734,12480.0,-1.2000000000000002,2.4000000000000004,-0.9,7.300000000000001,-2.0,1.3,-28.1,55.900000000000006,49.199999999999996,16
735,12495.0,-1.4000000000000001,2.4000000000000004,-1.2000000000000002,7.2,-2.2,1.2000000000000002,-16.900000000000002,36.300000000000004,47.5,16
736,12512.0,-1.2000000000000002,2.5,-1.1,7.4,-2.2,1.3,-16.900000000000002,36.300000000000004,47.5,16
737,12529.0,-0.8,2.5,-1.1,7.7,-2.3000000000000003,1.4000000000000001,-11.4,24.0,45.3,16
738,12545.0,-0.4,2.5,-0.7000000000000001,7.9,-2.3000000000000003,1.7000000000000002,-15.899999999999999,23.6,38.2,16
739,12562.0,-0.30000000000000004,2.5,-0.7000000000000001,7.9,-2.3000000000000003,1.7000000000000002,-15.899999999999999,23.6,38.2,16
740,12579.0,0.0,2.5,-0.9,8.3,-2.5,1.6,-22.5,32.400000000000006,34.400000000000006,16
741,12595.0,0.2,2.5,-1.0,8.4,-2.7,1.7000000000000002,-36.8,42.7,28.400000000000002,16
742,12613.0,0.5,2.4000000000000004,-0.8,8.6,-2.8000000000000003,1.9000000000000001,-40.7,43.4,26.6,16
743,12629.0,0.7000000000000001,2.4000000000000004,-0.6000000000000001,8.9,-2.8000000000000003,2.1,-40.7,43.4,26.6,16
744,12649.0,1.4000000000000001,2.4000000000000004,-0.4,9.5,-3.0,2.2,-40.1,39.9,24.8,16
745,12663.0,2.0,2.0,-0.5,10.0,-3.5,2.1,-29.1,23.3,17.400000000000002,16
746,12679.0,2.2,1.6,-0.6000000000000001,10.200000000000001,-4.3,2.2,-29.1,23.3,17.400000000000002,16
747,12696.0,2.4000000000000004,0.6000000000000001,-0.30000000000000004,10.5,-5.1000000000000005,2.4000000000000004,-24.900000000000002,14.600000000000001,16.6,16
748,12712.0,3.1,-0.1,-0.1,11.100000000000001,-5.7,2.5,-16.900000000000002,0.2,26.799999999999997,16
749,12729.0,3.9000000000000004,-0.4,0.30000000000000004,11.700000000000001,-6.0,2.9000000000000004,-12.4,-5.1000000000000005,33.9,16
750,12746.0,4.3,-0.30000000000000004,0.30000000000000004,12.600000000000001,-6.0,2.8000000000000003,-12.4,-5.1000000000000005,33.9,16
751,12762.0,5.6000000000000005,-0.4,0.2,13.700000000000001,-6.2,2.8000000000000003,-8.899999999999999,-9.899999999999999,39.599999999999994,16
752,12779.0,6.6000000000000005,-0.1,0.7000000000000001,14.4,-6.0,3.2,-7.9,-16.700000000000003,42.900000000000006,16
753,12796.0,6.9,0.2,0.9,14.700000000000001,-5.4,3.6,-7.9,-16.700000000000003,42.900000000000006,16
754,12812.0,7.1000000000000005,1.1,1.4000000000000001,14.8,-4.5,3.9000000000000004,-6.699999999999999,-14.400000000000002,40.800000000000004,16
755,12829.0,7.0,2.6,1.7000000000000002,14.700000000000001,-3.3000000000000003,4.1000000000000005,7.400000000000001,-6.8,29.200000000000003,16
756,12846.0,6.9,3.3000000000000003,1.7000000000000002,14.700000000000001,-3.3000000000000003,4.1000000000000005,7.400000000000001,-6.8,29.200000000000003,16
757,12862.0,6.6000000000000005,4.3,1.5,14.200000000000001,-1.6,3.7,20.900000000000002,-7.0,15.899999999999999,16
758,12879.0,5.9,4.5,0.7000000000000001,13.4,-1.7000000000000002,3.0,36.5,-10.0,-3.0,16
759,12895.0,4.5,3.4000000000000004,-0.2,12.3,-2.6,2.3000000000000003,57.00000000000001,-22.8,-42.1,16
760,12912.0,3.6,2.5,-0.5,11.100000000000001,-3.9000000000000004,2.0,57.00000000000001,-22.8,-42.1,16
761,12929.0,2.3000000000000003,1.1,-0.5,10.3,-4.5,2.2,56.10000000000001,-23.700000000000003,-49.50000000000001,16
762,12946.0,1.6,0.7000000000000001,-0.2,9.9,-4.6000000000000005,2.5,50.7,-16.700000000000003,-48.0,16
763,12965.0,1.3,0.5,-0.30000000000000004,9.8,-4.6000000000000005,2.5,52.80000000000001,-19.6,-48.10000000000001,16
764,12979.0,1.2000000000000002,0.5,-0.30000000000000004,9.600000000000001,-4.4,2.4000000000000004,52.80000000000001,-19.6,-48.10000000000001,16
765,12995.0,0.7000000000000001,0.4,-0.30000000000000004,9.200000000000001,-4.4,2.4000000000000004,56.7,-27.700000000000003,-50.400000000000006,16
766,13014.0,0.1,0.4,-0.30000000000000004,8.8,-4.2,2.3000000000000003,61.9,-43.00000000000001,-54.300000000000004,16
767,13032.0,-0.2,0.4,-0.4,8.700000000000001,-3.9000000000000004,2.2,60.900000000000006,-47.5,-56.6,16
768,13046.0,-0.4,0.4,-0.4,8.5,-3.7,2.2,60.900000000000006,-47.5,-56.6,16
769,13063.0,-0.7000000000000001,0.4,-0.4,8.4,-3.5,2.2,52.2,-50.2,-65.10000000000001,16
770,13079.0,-0.8,0.4,-0.30000000000000004,8.4,-3.5,2.2,52.2,-50.2,-65.10000000000001,16
771,13095.0,-1.1,0.0,-0.1,8.0,-3.7,2.4000000000000004,46.300000000000004,-49.199999999999996,-71.39999999999999,16
772,13112.0,-1.6,-0.5,0.2,7.6000000000000005,-3.9000000000000004,2.5,40.300000000000004,-46.4,-77.7,16
773,13129.0,-2.2,-1.1,0.4,7.2,-4.1000000000000005,2.6,30.599999999999998,-37.2,-84.5,16
774,13146.0,-2.5,-1.3,0.4,6.9,-4.3,2.5,30.599999999999998,-37.2,-84.5,16
775,13163.0,-2.9000000000000004,-1.9000000000000001,0.30000000000000004,6.6000000000000005,-4.6000000000000005,2.4000000000000004,26.799999999999997,-33.1,-84.80000000000001,16
776,13179.0,-3.3000000000000003,-2.4000000000000004,0.30000000000000004,6.300000000000001,-4.7,2.3000000000000003,15.299999999999999,-24.3,-80.2,16
777,13195.0,-3.7,-2.7,0.30000000000000004,6.0,-4.800000000000001,2.3000000000000003,8.5,-19.6,-75.7,16
778,13212.0,-3.8000000000000003,-2.9000000000000004,0.4,5.9,-5.0,2.5,8.5,-19.6,-75.7,16
779,13230.0,-3.9000000000000004,-3.2,0.7000000000000001,5.800000000000001,-5.0,2.6,2.4000000000000004,-14.0,-70.2,16
780,13252.0,-4.0,-3.4000000000000004,0.7000000000000001,5.800000000000001,-5.1000000000000005,2.6,-6.0,-2.1,-58.0,16
781,13262.0,-3.9000000000000004,-3.6,0.6000000000000001,5.9,-5.5,2.5,-6.0,-2.1,-58.0,16
782,13284.0,-3.7,-4.800000000000001,0.5,6.0,-6.0,2.4000000000000004,-15.2,4.2,-45.0,16
783,13296.0,-3.6,-5.1000000000000005,0.6000000000000001,6.1000000000000005,-6.6000000000000005,2.5,-20.8,5.9,-35.0,16
784,13312.0,-3.5,-5.5,0.6000000000000001,6.1000000000000005,-6.6000000000000005,2.5,-25.8,4.6,-22.9,16
785,13329.0,-3.0,-6.1000000000000005,0.6000000000000001,6.9,-7.800000000000001,2.6,-25.8,4.6,-22.9,16
786,13346.0,-2.3000000000000003,-6.7,0.7000000000000001,7.5,-8.3,2.8000000000000003,-40.0,1.1,3.7000000000000006,16
787,13363.0,-1.8,-7.0,1.2000000000000002,7.9,-8.6,3.2,-48.6,2.9,17.5,16
788,13379.0,-1.5,-7.0,1.5,8.4,-8.9,3.6,-48.6,2.9,17.5,16
789,13396.0,-1.1,-7.1000000000000005,1.9000000000000001,8.3,-9.0,4.0,-55.400000000000006,6.9,31.2,16
790,13412.0,-1.8,-6.6000000000000005,2.3000000000000003,7.6000000000000005,-8.700000000000001,4.4,-61.50000000000001,22.8,62.6,16
791,13429.0,-2.1,-6.2,2.6,7.1000000000000005,-8.3,5.1000000000000005,-55.2,30.799999999999997,85.4,16
792,13446.0,-2.5,-5.1000000000000005,3.5,7.0,-7.4,6.1000000000000005,-55.2,30.799999999999997,85.4,16
793,13462.0,-1.6,-3.2,4.2,8.1,-6.1000000000000005,6.300000000000001,-3.8,40.4,134.6,16
794,13479.0,1.2000000000000002,-1.5,3.0,10.4,-5.1000000000000005,5.300000000000001,36.2,27.2,141.70000000000002,16
795,13495.0,2.7,-0.9,2.1,12.5,-4.6000000000000005,3.7,36.2,27.2,141.70000000000002,16
796,13512.0,4.3,-0.4,-0.1,13.0,-4.6000000000000005,1.9000000000000001,70.7,7.400000000000001,131.4,16
797,13530.0,3.9000000000000004,-0.30000000000000004,-2.1,12.4,-4.6000000000000005,0.4,84.2,-12.100000000000001,93.60000000000001,16
798,13545.0,2.9000000000000004,0.30000000000000004,-3.4000000000000004,11.4,-4.2,-0.7000000000000001,58.900000000000006,-3.0,80.60000000000001,16
799,13562.0,2.5,0.9,-3.7,10.8,-3.4000000000000004,-0.9,58.900000000000006,-3.0,80.60000000000001,16
800,13579.0,2.0,2.0,-3.4000000000000004,10.3,-2.6,-0.30000000000000004,-18.8,35.8,56.400000000000006,16
801,13596.0,1.5,2.8000000000000003,-2.2,9.8,-2.1,0.7000000000000001,-48.50000000000001,55.1,41.6,16
802,13613.0,1.2000000000000002,3.0,-1.6,9.0,-1.9000000000000001,1.7000000000000002,-48.50000000000001,55.1,41.6,16
803,13632.0,0.1,3.2,-1.0,7.9,-1.9000000000000001,2.0,-62.50000000000001,65.89999999999999,27.0,16
804,13646.0,-0.9,3.2,-0.9,7.0,-2.0,2.2,-57.9,59.9,10.600000000000001,16
805,13662.0,-1.3,3.1,-0.8,7.0,-2.0,2.2,-57.9,59.9,10.600000000000001,16
806,13679.0,-1.8,2.9000000000000004,-0.7000000000000001,6.1000000000000005,-2.4000000000000004,2.4000000000000004,-47.7,48.400000000000006,9.3,16
807,13696.0,-2.0,2.8000000000000003,-0.9,5.9,-2.5,2.2,-27.800000000000004,28.200000000000003,13.5,16
808,13712.0,-1.7000000000000002,2.8000000000000003,-1.0,6.1000000000000005,-2.5,2.1,-23.400000000000002,22.4,15.899999999999999,16
809,13729.0,-1.6,2.8000000000000003,-1.0,6.4,-2.5,2.0,-23.400000000000002,22.4,15.899999999999999,16
810,13746.0,-1.1,2.7,-1.2000000000000002,6.800000000000001,-2.8000000000000003,1.9000000000000001,-22.700000000000003,19.400000000000002,17.0,16
811,13762.0,-0.5,2.5,-1.1,7.2,-2.9000000000000004,2.1,-31.799999999999997,24.3,15.899999999999999,16
812,13779.0,-0.30000000000000004,2.4000000000000004,-1.0,7.300000000000001,-3.1,2.1,-38.1,29.900000000000006,15.100000000000001,16
813,13795.0,-0.1,2.3000000000000003,-0.9,7.7,-3.3000000000000003,2.2,-38.1,29.900000000000006,15.100000000000001,16
814,13814.0,0.30000000000000004,2.0,-0.6000000000000001,7.9,-3.7,2.6,-48.300000000000004,39.300000000000004,14.900000000000002,16
815,13829.0,0.6000000000000001,1.7000000000000002,-0.2,8.1,-3.9000000000000004,2.9000000000000004,-51.4,46.9,16.3,16
816,13849.0,1.2000000000000002,1.4000000000000001,-0.1,8.5,-4.3,3.0,-52.00000000000001,50.5,18.0,16
817,13862.0,1.5,1.1,0.0,9.0,-4.9,3.2,-52.00000000000001,50.5,18.0,16
818,13879.0,2.0,0.4,0.2,9.4,-5.6000000000000005,3.3000000000000003,-45.5,45.7,24.3,16
819,13898.0,2.8000000000000003,-0.2,0.30000000000000004,10.0,-6.2,3.5,-36.5,34.800000000000004,31.099999999999998,16
820,13912.0,3.2,-0.2,0.4,10.5,-6.300000000000001,3.6,-36.5,34.800000000000004,31.099999999999998,16
821,13928.0,3.7,0.30000000000000004,0.4,11.0,-5.800000000000001,3.5,-12.600000000000001,7.6,45.6,16
822,13947.0,5.2,0.6000000000000001,0.1,12.4,-5.7,3.2,-4.2,-10.1,46.9,16
823,13962.0,6.2,0.30000000000000004,0.1,13.8,-6.6000000000000005,3.4000000000000004,-4.2,-10.1,46.9,16
824,13979.0,7.4,-0.6000000000000001,0.7000000000000001,14.5,-7.1000000000000005,3.9000000000000004,-1.5,-24.1,44.00000000000001,16
825,13995.0,7.6000000000000005,-0.2,1.5,14.5,-6.5,4.5,2.0,-24.400000000000002,42.7,16
826,14012.0,7.4,0.8,1.7000000000000002,14.100000000000001,-4.5,4.6000000000000005,2.0,-24.400000000000002,42.7,16
827,14029.0,7.2,3.4000000000000004,1.2000000000000002,14.3,-2.7,3.9000000000000004,10.1,-20.5,40.5,16
828,14046.0,7.800000000000001,4.4,0.4,15.0,-2.3000000000000003,3.4000000000000004,24.8,-38.50000000000001,5.4,16
829,14063.0,8.1,3.3000000000000003,0.8,15.3,-3.4000000000000004,3.8000000000000003,30.200000000000003,-49.699999999999996,-24.7,16
830,14079.0,7.6000000000000005,2.1,1.3,14.200000000000001,-5.2,4.4,30.200000000000003,-49.699999999999996,-24.7,16
831,14097.0,5.5,0.30000000000000004,1.5,12.5,-6.2,4.4,38.60000000000001,-53.50000000000001,-47.0,16
832,14114.0,3.5,0.0,1.3,11.100000000000001,-5.9,4.1000000000000005,57.00000000000001,-53.9,-50.0,16
833,14129.0,2.6,0.9,1.0,10.600000000000001,-5.0,3.8000000000000003,64.50000000000001,-57.699999999999996,-46.50000000000001,16
834,14145.0,2.7,1.3,0.9,10.700000000000001,-4.1000000000000005,3.8000000000000003,64.50000000000001,-57.699999999999996,-46.50000000000001,16
835,14162.0,2.4000000000000004,1.8,0.9,10.4,-3.6,3.7,74.80000000000001,-60.5,-60.900000000000006,16
836,14179.0,1.9000000000000001,1.8,0.8,10.4,-3.6,3.7,74.80000000000001,-60.5,-60.900000000000006,16
837,14195.0,0.9,1.7000000000000002,0.4,9.200000000000001,-3.5,3.0,77.1,-57.400000000000006,-71.30000000000001,16
838,14212.0,0.30000000000000004,1.0,0.0,8.9,-3.9000000000000004,2.8000000000000003,78.0,-56.2,-79.8,16
839,14229.0,-0.2,0.2,-0.1,8.6,-4.2,2.6,77.00000000000001,-58.0,-90.6,16
840,14245.0,-0.6000000000000001,0.0,-0.1,8.200000000000001,-4.2,2.5,76.1,-59.40000000000001,-93.49999999999999,16
841,14262.0,-1.1,-0.2,-0.30000000000000004,7.9,-4.0,2.1,76.1,-59.40000000000001,-93.49999999999999,16
842,14279.0,-1.5,-0.5,-0.7000000000000001,7.800000000000001,-4.0,1.7000000000000002,67.10000000000001,-62.800000000000004,-99.7,16
843,14295.0,-1.6,-1.0,-0.9,7.9,-4.2,1.5,54.9,-61.0,-103.7,16
844,14312.0,-1.7000000000000002,-1.3,-0.9,7.800000000000001,-4.4,1.3,54.9,-61.0,-103.7,16
845,14329.0,-2.1,-2.0,-0.9,7.4,-4.7,1.3,37.6,-54.9,-108.39999999999999,16
846,14345.0,-2.7,-2.7,-0.5,7.0,-4.9,1.6,-5.2,-33.2,-113.1,16
847,14362.0,-3.0,-3.0,0.0,6.6000000000000005,-5.300000000000001,2.4000000000000004,-5.2,-33.2,-113.1,16
848,14379.0,-3.5,-3.8000000000000003,1.2000000000000002,6.2,-5.7,3.6,-23.900000000000006,-19.1,-110.70000000000002,16
849,14396.0,-4.1000000000000005,-4.2,2.5,5.6000000000000005,-5.6000000000000005,4.6000000000000005,-39.699999999999996,19.9,-97.60000000000001,16
850,14412.0,-4.4,-4.1000000000000005,2.8000000000000003,5.6000000000000005,-5.6000000000000005,4.6000000000000005,-39.699999999999996,19.9,-97.60000000000001,16
851,14429.0,-4.3,-4.800000000000001,2.7,5.7,-6.300000000000001,4.7,-31.7,30.200000000000003,-90.70000000000002,16
852,14445.0,-4.0,-5.9,2.2,5.7,-7.0,4.2,-19.400000000000002,30.5,-84.4,16
853,14462.0,-4.2,-6.7,1.1,5.5,-7.5,3.4000000000000004,-0.9000000000000001,18.3,-65.6,16
854,14479.0,-4.7,-7.1000000000000005,0.4,5.1000000000000005,-7.800000000000001,2.8000000000000003,-0.7,8.5,-49.9,16
855,14495.0,-4.800000000000001,-7.1000000000000005,0.2,5.0,-7.6000000000000005,2.4000000000000004,-0.7,8.5,-49.9,16
856,14512.0,-4.2,-7.0,-0.1,5.800000000000001,-7.800000000000001,2.3000000000000003,-16.8,-5.9,-14.300000000000002,16
857,14530.0,-3.4000000000000004,-7.300000000000001,0.1,5.800000000000001,-7.800000000000001,2.3000000000000003,-16.8,-5.9,-14.300000000000002,16
858,14545.0,-2.5,-7.9,0.4,7.1000000000000005,-9.0,2.7,-31.2,-5.500000000000001,-2.4000000000000004,16
859,14562.0,-2.9000000000000004,-8.4,0.5,6.300000000000001,-9.3,2.9000000000000004,-47.80000000000001,0.30000000000000004,7.9,16
860,14579.0,-4.1000000000000005,-7.5,0.9,5.5,-8.6,3.4000000000000004,-80.8,19.6,46.6,16
861,14595.0,-4.0,-6.800000000000001,1.3,6.2,-7.800000000000001,4.2,-80.8,19.6,46.6,16
862,14612.0,-2.0,-5.800000000000001,2.3000000000000003,8.200000000000001,-7.4,5.0,-85.4,20.7,71.39999999999999,16
863,14629.0,0.2,-5.2,3.0,9.9,-7.4,5.4,-62.300000000000004,13.5,97.00000000000001,16
864,14645.0,1.4000000000000001,-4.9,2.6,10.700000000000001,-7.5,5.1000000000000005,-42.800000000000004,9.700000000000001,101.50000000000001,16
865,14662.0,1.6,-4.6000000000000005,2.3000000000000003,10.9,-7.1000000000000005,4.3,-42.800000000000004,9.700000000000001,101.50000000000001,16
866,14679.0,1.6,-3.6,1.1,10.700000000000001,-6.4,3.3000000000000003,-24.7,4.1,106.1,16
867,14696.0,1.3,-2.0,0.1,10.3,-5.300000000000001,2.5,-11.3,-8.600000000000001,112.60000000000001,16
868,14712.0,1.1,-1.2000000000000002,-0.1,9.9,-4.4,2.3000000000000003,-11.3,-8.600000000000001,112.60000000000001,16
869,14728.0,0.8,0.2,0.2,9.5,-3.6,2.8000000000000003,-17.5,-8.899999999999999,111.70000000000002,16
870,14745.0,0.5,1.3,0.8,9.1,-3.0,3.2,-33.0,18.8,103.49999999999999,16
871,14762.0,0.4,1.7000000000000002,0.8,9.1,-3.0,3.2,-33.0,18.8,103.49999999999999,16
872,14779.0,0.4,2.3000000000000003,0.30000000000000004,8.8,-2.5,2.6,-36.1,36.6,99.2,16
873,14795.0,0.5,2.7,0.0,8.6,-2.3000000000000003,2.5,-27.800000000000004,44.2,94.2,16
874,14812.0,0.4,3.4000000000000004,-0.30000000000000004,8.5,-1.9000000000000001,2.3000000000000003,-14.5,34.60000000000001,93.00000000000001,16
875,14831.0,0.9,4.2,-0.9,8.700000000000001,-1.4000000000000001,1.8,-1.6,20.0,90.19999999999999,16
876,14845.0,1.2000000000000002,4.5,-1.1,9.0,-1.1,1.4000000000000001,-1.6,20.0,90.19999999999999,16
877,14862.0,1.6,4.800000000000001,-1.5,9.3,-1.1,1.2000000000000002,4.4,1.1,74.10000000000001,16
878,14879.0,1.8,4.7,-1.5,9.3,-1.1,1.2000000000000002,4.4,1.1,74.10000000000001,16
879,14895.0,2.2,4.5,-1.0,9.600000000000001,-1.6,1.8,-4.300000000000001,5.1000000000000005,63.900000000000006,16
880,14912.0,2.1,4.4,-0.7000000000000001,9.5,-1.8,1.9000000000000001,-26.300000000000004,34.300000000000004,45.0,16
881,14929.0,2.3000000000000003,4.1000000000000005,-0.8,9.5,-2.2,1.9000000000000001,-35.4,46.0,38.800000000000004,16
882,14946.0,2.4000000000000004,3.9000000000000004,-0.7000000000000001,9.600000000000001,-2.4000000000000004,2.0,-35.4,46.0,38.800000000000004,16
883,14962.0,2.7,3.8000000000000003,-0.9,9.9,-2.7,1.8,-39.699999999999996,52.1,33.800000000000004,16
884,14979.0,3.0,3.3000000000000003,-1.0,10.100000000000001,-3.3000000000000003,1.8,-39.699999999999996,42.1,26.000000000000004,16
885,14996.0,3.3000000000000003,2.3000000000000003,-0.5,10.100000000000001,-3.3000000000000003,1.8,-37.800000000000004,32.5,27.2,16
886,15014.0,3.7,2.0,0.0,11.0,-4.800000000000001,3.0,-37.800000000000004,32.5,27.2,16
887,15030.0,4.7,1.4000000000000001,0.7000000000000001,11.8,-5.300000000000001,3.5,-17.300000000000004,10.5,37.7,16
888,15045.0,5.800000000000001,1.4000000000000001,1.0,12.700000000000001,-5.2,3.8000000000000003,-2.0,1.0,42.2,16
889,15062.0,6.300000000000001,1.9000000000000001,1.0,13.5,-4.3,3.4000000000000004,-2.0,1.0,42.2,16
890,15079.0,7.5,2.8000000000000003,0.1,14.9,-4.2,2.8000000000000003,11.5,-6.500000000000001,41.50000000000001,16
891,15095.0,9.1,1.9000000000000001,0.2,16.0,-4.9,3.0,17.400000000000002,-24.200000000000003,21.1,16
892,15112.0,9.3,1.7000000000000002,0.4,16.0,-4.9,3.0,17.400000000000002,-24.200000000000003,21.1,16
893,15129.0,9.1,2.0,0.9,15.9,-4.1000000000000005,3.6,16.3,-19.200000000000003,10.4,16
894,15145.0,8.5,3.7,0.5,15.5,-2.6,3.1,23.3,-9.0,-14.200000000000001,16
895,15163.0,8.5,4.6000000000000005,-0.30000000000000004,15.8,-2.0,2.5,22.700000000000003,-15.100000000000001,-39.50000000000001,16
896,15182.0,8.200000000000001,3.0,-0.30000000000000004,15.700000000000001,-3.2,2.5,18.4,-22.6,-70.10000000000001,16
897,15195.0,7.5,1.6,0.1,14.600000000000001,-5.4,3.1,18.4,-22.6,-70.10000000000001,16
898,15212.0,5.5,-0.8,0.9,13.100000000000001,-6.9,3.7,15.2,-27.6,-98.10000000000001,16
899,15229.0,4.6000000000000005,-1.4000000000000001,1.3,13.100000000000001,-6.9,3.7,15.2,-27.6,-98.10000000000001,16
900,15245.0,3.1,-1.3,1.7000000000000002,11.200000000000001,-6.5,4.5,21.8,-32.400000000000006,-92.8,16
901,15262.0,2.6,-0.6000000000000001,2.0,11.100000000000001,-5.7,4.7,40.7,-48.0,-82.39999999999999,16
902,15279.0,2.2,0.0,2.4000000000000004,11.100000000000001,-5.7,4.7,40.7,-48.0,-82.39999999999999,16
903,15295.0,1.7000000000000002,0.1,2.5,10.100000000000001,-4.5,5.1000000000000005,49.199999999999996,-48.800000000000004,-87.50000000000001,16
904,15312.0,0.4,0.2,2.4000000000000004,8.9,-4.2,4.800000000000001,58.60000000000001,-45.9,-95.69999999999999,16
905,15329.0,-1.0,-0.2,1.8,8.1,-4.3,4.3,77.7,-43.300000000000004,-105.0,16
906,15346.0,-1.4000000000000001,-0.5,1.5,8.1,-4.3,4.3,77.7,-43.300000000000004,-105.0,16
907,15363.0,-1.6,-1.2000000000000002,1.0,7.7,-4.800000000000001,3.4000000000000004,84.5,-47.900000000000006,-104.9,16
908,15379.0,-2.0,-1.7000000000000002,0.7000000000000001,7.5,-4.7,3.1,92.3,-59.60000000000001,-104.2,16
909,15395.0,-2.4000000000000004,-1.9000000000000001,0.4,7.300000000000001,-4.6000000000000005,2.7,91.10000000000001,-64.4,-104.50000000000001,16
910,15412.0,-2.5,-2.1,0.30000000000000004,7.300000000000001,-4.5,2.3000000000000003,91.10000000000001,-64.4,-104.50000000000001,16
911,15429.0,-2.7,-2.4000000000000004,0.0,7.1000000000000005,-4.5,2.0,84.0,-64.4,-106.30000000000001,16
912,15445.0,-3.1,-2.9000000000000004,-0.1,6.800000000000001,-4.7,1.8,52.300000000000004,-51.1,-112.20000000000002,16
913,15462.0,-3.3000000000000003,-3.3000000000000003,-0.1,6.4,-4.9,1.8,52.300000000000004,-51.1,-112.20000000000002,16
914,15478.0,-3.9000000000000004,-3.9000000000000004,0.1,5.9,-5.1000000000000005,1.9000000000000001,31.400000000000002,-39.0,-112.80000000000001,16
915,15495.0,-4.5,-4.3,0.30000000000000004,5.4,-5.1000000000000005,2.1,-5.1000000000000005,-12.600000000000001,-104.60000000000001,16
916,15516.0,-4.7,-4.4,0.4,5.4,-5.1000000000000005,2.3000000000000003,-15.000000000000002,-6.8,-96.9,16
917,15529.0,-4.4,-4.800000000000001,0.6000000000000001,5.800000000000001,-5.4,2.4000000000000004,-15.000000000000002,-6.8,-96.9,16
918,15545.0,-3.9000000000000004,-5.7,0.8,6.2,-6.2,2.5,-21.1,-6.4,-90.30000000000001,16
919,15562.0,-3.5,-7.1000000000000005,1.1,6.5,-7.2,2.8000000000000003,-33.6,-10.8,-76.4,16
920,15579.0,-3.3000000000000003,-7.6000000000000005,1.3,6.7,-7.9,3.2,-33.6,-10.8,-76.4,16
921,15596.0,-3.3000000000000003,-8.3,1.9000000000000001,6.4,-8.1,3.7,-41.6,-9.4,-65.10000000000001,16
922,15612.0,-3.7,-8.1,2.3000000000000003,6.2,-7.9,4.0,-57.00000000000001,8.899999999999999,-36.7,16
923,15629.0,-3.1,-8.4,2.3000000000000003,6.7,-8.200000000000001,4.1000000000000005,-62.800000000000004,16.4,-23.6,16
924,15648.0,-2.8000000000000003,-8.700000000000001,2.5,7.0,-8.8,4.3,-62.800000000000004,16.4,-23.6,16
925,15664.0,-2.8000000000000003,-9.200000000000001,2.1,6.9,-9.200000000000001,3.9000000000000004,-66.9,26.5,-11.6,16
926,15683.0,-3.4000000000000004,-9.3,1.4000000000000001,6.1000000000000005,-9.3,3.4000000000000004,-75.8,47.3,21.7,16
927,15695.0,-4.1000000000000005,-8.8,1.1,5.1000000000000005,-8.5,3.3000000000000003,-75.8,47.3,21.7,16
928,15712.0,-4.6000000000000005,-7.2,1.2000000000000002,5.5,-7.5,3.9000000000000004,-77.60000000000001,48.50000000000001,49.199999999999996,16
929,15729.0,-2.6,-6.1000000000000005,2.2,7.4,-7.0,4.800000000000001,-46.1,16.700000000000003,107.5,16
930,15745.0,0.1,-5.300000000000001,2.6,9.700000000000001,-6.800000000000001,5.0,-13.900000000000002,-3.0,124.0,16
931,15762.0,1.3,-5.0,2.4000000000000004,11.4,-6.6000000000000005,4.5,-13.900000000000002,-3.0,124.0,16
932,15779.0,2.6,-4.2,1.5,12.0,-6.2,3.4000000000000004,18.3,-18.8,131.0,16
933,15795.0,2.3000000000000003,-3.2,-0.1,11.5,-5.6000000000000005,2.0,49.800000000000004,-33.50000000000001,129.3,16
934,15812.0,1.8,-2.5,-0.8,10.700000000000001,-4.9,1.0,49.800000000000004,-33.50000000000001,129.3,16
935,15830.0,1.2000000000000002,-1.2000000000000002,-1.4000000000000001,10.3,-4.1000000000000005,0.9,39.1,-29.200000000000003,129.10000000000002,16
936,15845.0,1.2000000000000002,0.1,-1.0,10.3,-3.3000000000000003,1.4000000000000001,-7.1000000000000005,8.0,127.1,16
937,15862.0,1.2000000000000002,1.3,-0.6000000000000001,10.100000000000001,-2.5,1.7000000000000002,-25.300000000000004,33.50000000000001,121.0,16
938,15880.0,1.2000000000000002,1.9000000000000001,-0.7000000000000001,9.9,-1.8,1.6,-25.300000000000004,33.50000000000001,121.0,16
939,15895.0,1.1,3.1,-1.0,9.700000000000001,-1.2000000000000002,1.4000000000000001,-37.50000000000001,53.2,112.7,16
940,15912.0,1.1,3.8000000000000003,-1.5,9.5,-0.9,1.0,-43.70000000000001,54.300000000000004,88.9,16
941,15928.0,1.0,3.9000000000000004,-1.7000000000000002,9.200000000000001,-1.0,0.8,-43.70000000000001,54.300000000000004,88.9,16
942,15945.0,0.7000000000000001,3.7,-1.8,8.700000000000001,-1.4000000000000001,0.9,-43.300000000000004,42.3,76.0,16
943,15962.0,0.2,3.5,-1.4000000000000001,8.200000000000001,-1.8,1.2000000000000002,-47.1,26.200000000000003,61.7,16
944,15980.0,0.1,3.3000000000000003,-0.9,8.1,-2.1,1.6,-50.60000000000001,25.7,60.00000000000001,16
945,15995.0,0.30000000000000004,3.2,-0.7000000000000001,8.200000000000001,-2.3000000000000003,1.9000000000000001,-50.60000000000001,25.7,60.00000000000001,16
946,16017.0,0.6000000000000001,3.3000000000000003,-0.5,8.5,-2.4000000000000004,2.1,-54.699999999999996,29.800000000000004,59.1,16
947,16035.0,1.2000000000000002,3.2,-0.2,8.8,-2.6,2.3000000000000003,-62.4,41.7,54.699999999999996,16
948,16050.0,1.4000000000000001,3.2,0.0,8.9,-2.8000000000000003,2.5,-62.900000000000006,46.1,52.00000000000001,16
949,16065.0,1.9000000000000001,3.1,0.1,9.200000000000001,-3.0,2.6,-59.80000000000001,46.4,51.1,16
950,16079.0,2.2,3.1,0.1,9.600000000000001,-3.2,2.5,-53.9,40.5,49.6,16
951,16095.0,2.7,2.5,0.1,10.0,-3.8000000000000003,2.5,-47.5,30.4,49.50000000000001,16
952,16113.0,3.0,2.1,0.4,10.5,-4.5,3.0,-47.5,30.4,49.50000000000001,16
953,16129.0,4.0,1.7000000000000002,0.9,11.3,-4.9,3.3000000000000003,-29.200000000000003,11.2,57.3,16
954,16148.0,5.2,1.3,1.2000000000000002,12.200000000000001,-5.4,3.6,-16.900000000000002,-0.8,61.0,16
955,16162.0,5.800000000000001,1.3,1.4000000000000001,13.100000000000001,-5.4,3.9000000000000004,-16.900000000000002,-0.8,61.0,16
956,16180.0,6.7,1.8,1.6,13.9,-4.9,3.8000000000000003,-5.1000000000000005,-8.5,63.500000000000014,16
957,16196.0,8.1,2.1,1.1,15.100000000000001,-5.0,3.4000000000000004,11.900000000000002,-23.400000000000002,56.7,16
958,16213.0,9.4,1.9000000000000001,1.5,16.2,-5.1000000000000005,3.8000000000000003,13.5,-25.300000000000004,46.300000000000004,16
959,16229.0,9.700000000000001,2.2,1.8,16.6,-4.7,4.3,13.5,-25.300000000000004,46.300000000000004,16
960,16245.0,9.700000000000001,3.0,2.2,16.400000000000002,-3.8000000000000003,4.5,23.400000000000002,-12.9,17.6,16
961,16262.0,9.1,4.4,1.8,15.9,-2.6,4.1000000000000005,31.9,-6.600000000000001,-2.5,16
962,16279.0,8.8,4.800000000000001,1.4000000000000001,15.600000000000001,-2.0,3.5,31.9,-6.600000000000001,-2.5,16
963,16295.0,8.3,4.4,0.6000000000000001,15.200000000000001,-3.0,2.9000000000000004,38.1,-6.699999999999999,-29.300000000000004,16
964,16313.0,7.2,2.1,0.2,14.4,-4.800000000000001,2.7,38.0,-14.100000000000001,-82.7,16
965,16331.0,5.800000000000001,-0.2,0.4,13.4,-6.5,3.0,36.7,-19.799999999999997,-93.4,16
966,16348.0,5.0,-0.9,0.6000000000000001,12.200000000000001,-7.300000000000001,3.4000000000000004,36.7,-19.799999999999997,-93.4,16
967,16362.0,3.3000000000000003,-1.1,0.9,11.100000000000001,-6.800000000000001,3.6,43.50000000000001,-31.6,-88.3,16
968,16382.0,2.7,-0.7000000000000001,1.0,11.100000000000001,-6.800000000000001,3.6,43.50000000000001,-31.6,-88.3,16
969,16395.0,2.2,-0.1,1.1,10.4,-5.300000000000001,3.9000000000000004,48.70000000000001,-40.0,-85.60000000000001,16
970,16412.0,1.5,0.2,1.5,9.9,-4.800000000000001,4.1000000000000005,52.5,-44.9,-88.50000000000001,16
971,16428.0,0.5,0.30000000000000004,1.5,9.200000000000001,-4.5,4.1000000000000005,59.80000000000001,-41.300000000000004,-101.80000000000001,16
972,16446.0,-0.5,-0.1,1.3,8.5,-4.5,3.8000000000000003,63.70000000000001,-39.699999999999996,-106.80000000000001,16
973,16462.0,-1.0,-0.4,1.1,7.9,-4.6000000000000005,3.6,63.70000000000001,-39.699999999999996,-106.80000000000001,16
974,16479.0,-1.7000000000000002,-0.9,0.9,7.5,-4.7,3.3000000000000003,70.3,-40.300000000000004,-109.30000000000001,16
975,16496.0,-2.1,-1.3,0.5,7.300000000000001,-4.7,3.0,73.0,-43.00000000000001,-108.8,16
976,16512.0,-2.3000000000000003,-1.4000000000000001,0.30000000000000004,7.1000000000000005,-4.6000000000000005,2.6,73.0,-43.00000000000001,-108.8,16
977,16528.0,-2.5,-1.8,-0.1,7.1000000000000005,-4.7,2.2,73.2,-47.2,-108.90000000000002,16
978,16545.0,-2.8000000000000003,-2.3000000000000003,-0.30000000000000004,6.9,-4.800000000000001,1.9000000000000001,61.0,-49.199999999999996,-111.20000000000002,16
979,16562.0,-3.0,-2.6,-0.4,6.9,-4.800000000000001,1.9000000000000001,61.0,-49.199999999999996,-111.20000000000002,16
980,16579.0,-3.6,-3.1,-0.30000000000000004,6.1000000000000005,-5.0,1.8,49.199999999999996,-45.5,-111.30000000000001,16
981,16595.0,-4.2,-3.5,-0.30000000000000004,5.6000000000000005,-5.0,1.8,22.1,-30.699999999999996,-105.20000000000002,16
982,16612.0,-4.7,-3.8000000000000003,0.0,5.2,-5.0,1.9000000000000001,9.4,-22.2,-98.50000000000001,16
983,16629.0,-4.800000000000001,-3.8000000000000003,0.1,5.2,-4.800000000000001,2.0,9.4,-22.2,-98.50000000000001,16
984,16645.0,-4.6000000000000005,-4.1000000000000005,0.2,5.5,-5.0,2.1,-1.5,-14.700000000000001,-91.7,16
985,16663.0,-4.1000000000000005,-4.800000000000001,0.2,5.800000000000001,-5.5,2.1,-18.8,-7.200000000000001,-83.00000000000001,16
986,16682.0,-4.0,-5.9,0.2,5.9,-6.300000000000001,2.1,-28.700000000000003,-5.300000000000001,-78.3,16
987,16696.0,-4.0,-6.6000000000000005,0.30000000000000004,5.9,-7.2,2.2,-28.700000000000003,-5.300000000000001,-78.3,16
988,16713.0,-4.0,-7.6000000000000005,0.7000000000000001,5.9,-8.0,2.6,-51.1,-0.6000000000000001,-56.300000000000004,16
989,16729.0,-3.9000000000000004,-8.3,1.2000000000000002,6.0,-8.5,3.1,-60.6,3.6000000000000005,-39.699999999999996,16
990,16746.0,-3.7,-8.5,1.4000000000000001,6.5,-8.9,3.4000000000000004,-60.6,3.6000000000000005,-39.699999999999996,16
991,16762.0,-2.8000000000000003,-9.1,1.7000000000000002,7.2,-9.600000000000001,3.8000000000000003,-68.3,6.300000000000001,-22.3,16
992,16778.0,-2.1,-9.600000000000001,2.1,7.7,-10.0,4.0,-80.7,15.5,8.8,16
993,16796.0,-2.0,-9.600000000000001,2.1,7.7,-10.0,4.0,-80.7,15.5,8.8,16
994,16816.0,-3.1,-8.5,2.2,6.800000000000001,-9.5,4.3,-85.69999999999999,28.800000000000004,41.6,16
995,16830.0,-3.8000000000000003,-7.7,2.4000000000000004,5.6000000000000005,-8.5,4.7,-79.8,32.300000000000004,67.4,16
996,16848.0,-4.0,-6.1000000000000005,3.0,5.7,-7.6000000000000005,5.300000000000001,-60.300000000000004,25.5,98.2,16
997,16863.0,-2.9000000000000004,-5.800000000000001,3.4000000000000004,7.800000000000001,-7.5,5.7,-60.300000000000004,25.5,98.2,16
998,16879.0,-0.1,-5.4,3.2,10.0,-7.6000000000000005,5.2,-27.5,10.8,124.2,16
999,16895.0,2.1,-5.0,2.1,11.600000000000001,-7.6000000000000005,4.2,48.10000000000001,-20.5,145.5,16
1000,16912.0,2.7,-4.6000000000000005,1.3,12.0,-7.2,2.6,48.10000000000001,-20.5,145.5,16
1001,16928.0,2.5,-3.3000000000000003,-0.6000000000000001,11.3,-6.2,1.0,72.30000000000001,-32.2,144.60000000000002,16
1002,16945.0,1.6,-1.8,-2.1,10.5,-5.2,0.0,70.10000000000001,-41.300000000000004,141.1,16
1003,16962.0,1.4000000000000001,-0.1,-2.4000000000000004,10.3,-4.1000000000000005,-0.30000000000000004,47.900000000000006,-33.800000000000004,139.4,16
1004,16978.0,1.7000000000000002,0.7000000000000001,-2.2,10.700000000000001,-3.1,0.2,47.900000000000006,-33.800000000000004,139.4,16
1005,17000.0,2.3000000000000003,2.7,-1.6,10.8,-2.3000000000000003,0.5,-4.6,11.3,119.30000000000003,16
1006,17016.0,2.2,3.2,-1.6,10.5,-1.6,0.5,-30.000000000000004,39.400000000000006,101.50000000000001,16
1007,17029.0,1.9000000000000001,3.6,-1.8,9.9,-1.2000000000000002,0.30000000000000004,-30.000000000000004,39.400000000000006,101.50000000000001,16
1008,17045.0,1.4000000000000001,4.3,-1.9000000000000001,9.3,-1.0,0.4,-53.599999999999994,60.6,83.5,16
1009,17062.0,0.7000000000000001,4.4,-1.8,8.700000000000001,-1.2000000000000002,0.6000000000000001,-83.4,67.5,52.5,16
1010,17078.0,0.5,4.2,-1.5,8.700000000000001,-1.2000000000000002,0.6000000000000001,-83.4,67.5,52.5,16
1011,17095.0,0.1,3.5,-0.6000000000000001,7.800000000000001,-2.4000000000000004,2.0,-90.1,61.599999999999994,43.300000000000004,16
1012,17112.0,-0.2,3.2,0.2,7.6000000000000005,-2.7,2.6,-91.50000000000001,57.3,39.400000000000006,16
1013,17129.0,0.0,3.1,0.7000000000000001,7.6000000000000005,-2.9000000000000004,3.0,-81.8,48.300000000000004,41.6,16
1014,17145.0,0.2,3.1,0.9,8.0,-3.0,3.3000000000000003,-81.8,48.300000000000004,41.6,16
1015,17163.0,0.7000000000000001,3.1,1.3,8.3,-3.1,3.6,-73.6,43.00000000000001,42.7,16
1016,17180.0,1.3,3.2,1.5,8.700000000000001,-3.1,3.6,-55.3,39.400000000000006,42.3,16
1017,17195.0,1.9000000000000001,3.3000000000000003,1.3,9.200000000000001,-3.1,3.4000000000000004,-47.400000000000006,39.400000000000006,39.1,16
1018,17212.0,2.2,3.2,1.0,9.600000000000001,-3.5,3.0,-47.400000000000006,39.400000000000006,39.1,16
1019,17229.0,2.8000000000000003,2.5,0.6000000000000001,10.0,-4.3,2.8000000000000003,-43.50000000000001,38.0,34.7,16
1020,17245.0,3.1,1.7000000000000002,0.7000000000000001,10.3,-5.0,2.9000000000000004,-43.00000000000001,36.300000000000004,34.2,16
1021,17262.0,3.5,1.4000000000000001,0.8,10.9,-5.5,3.0,-43.00000000000001,36.300000000000004,34.2,16
1022,17278.0,4.4,1.1,1.0,11.5,-5.7,3.2,-40.0,32.0,38.900000000000006,16
1023,17295.0,4.9,1.5,1.4000000000000001,11.8,-5.300000000000001,3.6,-28.1,20.900000000000002,46.199999999999996,16
1024,17312.0,5.0,2.0,1.6,11.8,-5.300000000000001,3.6,-18.900000000000002,14.100000000000001,46.50000000000001,16
1025,17328.0,6.1000000000000005,2.7,1.3,13.5,-4.800000000000001,3.4000000000000004,-18.900000000000002,14.100000000000001,46.50000000000001,16
1026,17345.0,7.5,1.7000000000000002,1.7000000000000002,14.4,-5.6000000000000005,4.0,-11.900000000000002,2.7,41.300000000000004,16
1027,17362.0,7.9,1.5,2.3000000000000003,14.600000000000001,-5.7,4.5,3.1,-4.2,32.8,16
1028,17379.0,7.9,1.7000000000000002,2.6,14.4,-4.9,4.9,3.1,-4.2,32.8,16
1029,17396.0,7.5,3.5,2.6,14.3,-3.0,4.6000000000000005,19.9,-7.8,32.8,16
1030,17412.0,8.0,5.4,1.7000000000000002,15.0,-1.6,3.9000000000000004,58.0,-26.300000000000004,13.5,16
1031,17428.0,8.6,5.7,1.3,15.0,-1.6,3.9000000000000004,58.0,-26.300000000000004,13.5,16
1032,17445.0,9.0,4.3,0.7000000000000001,15.700000000000001,-3.7,3.0,68.1,-38.900000000000006,-18.5,16
1033,17462.0,7.7,1.3,0.6000000000000001,14.600000000000001,-5.9,3.2,70.8,-46.1,-50.900000000000006,16
1034,17478.0,5.9,-0.6000000000000001,1.0,13.3,-7.1000000000000005,3.5,74.7,-54.800000000000004,-70.4,16
1035,17496.0,4.6000000000000005,-0.4,1.0,12.3,-6.7,3.5,80.9,-62.800000000000004,-63.8,16
1036,17512.0,4.5,0.30000000000000004,1.0,12.5,-5.4,3.5,80.9,-62.800000000000004,-63.8,16
1037,17529.0,4.6000000000000005,1.1,1.0,12.600000000000001,-4.6000000000000005,3.6,87.10000000000001,-77.60000000000001,-74.60000000000001,16
1038,17545.0,4.0,1.3,1.2000000000000002,12.3,-4.2,3.8000000000000003,83.4,-71.8,-91.50000000000001,16
1039,17562.0,3.5,1.2000000000000002,1.4000000000000001,11.600000000000001,-4.2,3.9000000000000004,83.4,-71.8,-91.50000000000001,16
1040,17578.0,2.1,0.6000000000000001,1.3,10.600000000000001,-4.4,3.7,74.30000000000001,-46.7,-124.3,16
1041,17595.0,0.7000000000000001,-0.1,1.1,9.600000000000001,-4.5,3.5,70.8,-35.8,-134.10000000000002,16
1042,17612.0,0.0,-0.5,1.0,8.8,-4.800000000000001,3.4000000000000004,70.8,-35.8,-134.10000000000002,16
1043,17629.0,-1.0,-1.3,0.8,8.1,-5.1000000000000005,3.2,69.80000000000001,-30.000000000000004,-139.60000000000002,16
1044,17647.0,-1.9000000000000001,-2.1,0.5,7.6000000000000005,-5.300000000000001,3.0,74.7,-33.0,-141.1,16
1045,17664.0,-2.5,-2.8000000000000003,0.2,7.2,-5.5,2.7,77.60000000000001,-39.699999999999996,-138.7,16
1046,17680.0,-2.7,-3.2,0.1,7.0,-5.800000000000001,2.4000000000000004,77.60000000000001,-39.699999999999996,-138.7,16
1047,17698.0,-3.0,-4.1000000000000005,-0.2,6.800000000000001,-6.1000000000000005,2.0,73.30000000000001,-52.400000000000006,-131.79999999999998,16
1048,17714.0,-3.6,-4.800000000000001,-0.30000000000000004,6.300000000000001,-6.4,1.8,62.7,-52.2,-125.2,16
1049,17728.0,-3.9000000000000004,-5.1000000000000005,-0.30000000000000004,5.800000000000001,-6.300000000000001,1.7000000000000002,62.7,-52.2,-125.2,16
1050,17748.0,-4.5,-5.1000000000000005,-0.4,5.5,-6.0,1.6,48.50000000000001,-47.80000000000001,-115.60000000000001,16
1051,17768.0,-4.4,-5.0,-0.1,5.7,-5.6000000000000005,1.8,16.4,-35.599999999999994,-94.6,16
1052,17780.0,-4.1000000000000005,-4.9,0.30000000000000004,6.0,-5.300000000000001,2.0,2.6,-28.1,-88.9,16
1053,17795.0,-4.0,-5.0,0.30000000000000004,6.1000000000000005,-5.4,2.0,2.6,-28.1,-88.9,16
1054,17812.0,-3.8000000000000003,-5.6000000000000005,0.5,6.1000000000000005,-5.800000000000001,2.2,-25.6,-12.5,-84.6,16
1055,17829.0,-4.2,-6.6000000000000005,0.8,5.800000000000001,-6.6000000000000005,2.5,-38.50000000000001,-4.4,-80.10000000000001,16
1056,17845.0,-4.3,-7.2,1.0,5.5,-7.4,2.9000000000000004,-38.50000000000001,-4.4,-80.10000000000001,16
1057,17862.0,-4.7,-8.200000000000001,1.5,4.9,-7.9,3.3000000000000003,-48.70000000000001,2.4000000000000004,-71.0,16
1058,17878.0,-5.5,-8.200000000000001,1.8,4.2,-7.800000000000001,3.5,-60.900000000000006,17.6,-36.400000000000006,16
1059,17896.0,-5.7,-7.9,1.8,4.2,-7.6000000000000005,3.6,-62.300000000000004,20.1,-15.000000000000002,16
1060,17913.0,-5.300000000000001,-8.1,1.9000000000000001,4.7,-8.0,3.9000000000000004,-62.300000000000004,20.1,-15.000000000000002,16
1061,17929.0,-4.7,-8.1,2.0,5.1000000000000005,-8.1,4.0,-58.0,18.5,22.6,16
1062,17952.0,-4.2,-8.1,1.7000000000000002,5.5,-8.3,3.7,-54.6,15.5,40.0,16
1063,17962.0,-4.1000000000000005,-8.0,1.7000000000000002,5.300000000000001,-8.1,3.8000000000000003,-54.6,15.5,40.0,16
1064,17979.0,-4.6000000000000005,-7.300000000000001,1.6,5.1000000000000005,-7.9,3.7,-50.400000000000006,12.299999999999999,58.7,16
1065,17995.0,-3.7,-6.800000000000001,1.8,6.2,-7.9,4.0,-34.800000000000004,-4.0,107.7,16
1066,18014.0,-1.3,-6.800000000000001,2.0,8.200000000000001,-8.3,4.1000000000000005,-22.8,-13.8,128.5,16
1067,18029.0,-0.1,-6.9,2.1,10.200000000000001,-9.1,4.1000000000000005,-22.8,-13.8,128.5,16
1068,18047.0,2.0,-7.1000000000000005,2.1,11.600000000000001,-9.4,4.0,2.0,-25.200000000000003,156.5,16
1069,18063.0,3.1,-6.0,1.7000000000000002,12.4,-8.8,3.5,12.7,-25.5,165.8,16
1070,18078.0,3.3000000000000003,-5.0,1.2000000000000002,12.600000000000001,-7.300000000000001,2.7,12.7,-25.5,165.8,16
1071,18095.0,3.5,-2.6,0.4,12.5,-5.800000000000001,2.1,18.4,-26.799999999999997,169.60000000000002,16
1072,18112.0,3.6,-0.30000000000000004,0.4,12.4,-4.3,2.2,9.0,-20.0,158.50000000000003,16
1073,18128.0,3.6,0.7000000000000001,0.6000000000000001,12.4,-4.3,2.2,9.0,-20.0,158.50000000000003,16
1074,18145.0,3.5,2.4000000000000004,0.7000000000000001,11.9,-2.0,2.4000000000000004,0.5,-3.3000000000000007,143.70000000000002,16
1075,18162.0,3.1,3.6,0.30000000000000004,11.3,-1.5,2.1,-17.200000000000003,41.6,102.89999999999999,16
1076,18179.0,2.7,3.9000000000000004,0.0,11.3,-1.5,2.1,-17.200000000000003,41.6,102.89999999999999,16
1077,18195.0,1.9000000000000001,4.2,-0.5,9.600000000000001,-1.5,1.4000000000000001,-25.6,58.3,83.10000000000001,16
1078,18212.0,1.0,3.7,-0.8,8.700000000000001,-2.0,1.3,-31.0,65.2,67.00000000000001,16
1079,18228.0,0.30000000000000004,3.3000000000000003,-1.0,8.1,-2.4000000000000004,1.3,-31.9,62.4,53.400000000000006,16
1080,18245.0,0.2,3.2,-1.0,7.9,-2.7,1.3,-29.300000000000004,55.7,52.900000000000006,16
1081,18262.0,0.2,3.2,-1.0,7.800000000000001,-2.7,1.3,-29.300000000000004,55.7,52.900000000000006,16
1082,18278.0,0.30000000000000004,3.3000000000000003,-1.2000000000000002,7.800000000000001,-2.7,1.2000000000000002,-24.5,41.300000000000004,52.7,16
1083,18296.0,0.7000000000000001,3.3000000000000003,-1.4000000000000001,8.1,-2.9000000000000004,1.1,-26.300000000000004,36.0,52.1,16
1084,18312.0,0.9,3.2,-1.4000000000000001,8.4,-3.2,1.2000000000000002,-26.300000000000004,36.0,52.1,16
1085,18329.0,1.4000000000000001,3.0,-1.1,8.6,-3.5,1.5,-31.2,33.800000000000004,51.300000000000004,16
1086,18348.0,1.9000000000000001,3.1,-0.6000000000000001,9.0,-3.4000000000000004,1.9000000000000001,-41.4,41.800000000000004,52.900000000000006,16
1087,18370.0,2.6,3.5,-0.6000000000000001,9.5,-3.1,1.8,-43.50000000000001,46.199999999999996,52.1,16
1088,18378.0,3.1,3.6,-0.8,10.3,-3.3000000000000003,1.6,-43.50000000000001,46.199999999999996,52.1,16
1089,18395.0,4.0,3.2,-0.9,10.9,-3.8000000000000003,1.6,-49.6,45.5,42.800000000000004,16
1090,18412.0,4.7,2.6,-0.7000000000000001,11.3,-4.4,1.8,-51.4,41.1,39.699999999999996,16
1091,18429.0,4.9,2.2,-0.4,11.700000000000001,-5.0,2.3000000000000003,-51.4,41.1,39.699999999999996,16
1092,18446.0,5.300000000000001,2.0,0.4,11.8,-4.800000000000001,2.9000000000000004,-48.70000000000001,33.800000000000004,40.300000000000004,16
1093,18462.0,5.800000000000001,3.0,0.7000000000000001,12.4,-4.1000000000000005,3.0,-25.8,10.299999999999999,47.3,16
1094,18478.0,6.6000000000000005,3.2,0.6000000000000001,14.0,-4.4,2.9000000000000004,-25.8,10.299999999999999,47.3,16
1095,18495.0,8.700000000000001,2.4000000000000004,0.9,15.700000000000001,-5.300000000000001,3.5,-14.100000000000001,-9.700000000000001,44.2,16
1096,18512.0,10.200000000000001,1.4000000000000001,1.9000000000000001,16.7,-6.0,4.3,2.4000000000000004,-29.900000000000006,28.400000000000002,16
1097,18532.0,10.100000000000001,1.8,2.8000000000000003,16.6,-5.5,5.0,15.399999999999999,-27.099999999999998,22.8,16
1098,18548.0,9.700000000000001,3.7,2.6,16.3,-3.9000000000000004,4.9,31.799999999999997,-25.5,13.900000000000002,16
1099,18563.0,9.8,4.6000000000000005,2.1,16.6,-2.6,4.2,31.799999999999997,-25.5,13.900000000000002,16
1100,18579.0,10.100000000000001,4.4,1.4000000000000001,16.900000000000002,-3.0,3.7,51.300000000000004,-38.2,-45.0,16
1101,18595.0,9.8,3.4000000000000004,1.4000000000000001,16.1,-4.6000000000000005,3.8000000000000003,51.300000000000004,-38.2,-45.0,16
1102,18612.0,7.800000000000001,1.0,1.3,14.4,-6.300000000000001,3.7,53.50000000000001,-39.8,-80.0,16
1103,18629.0,5.4,-0.7000000000000001,1.1,12.700000000000001,-7.2,3.5,55.5,-43.00000000000001,-108.7,16
1104,18645.0,4.4,-1.0,1.0,12.700000000000001,-7.2,3.5,55.5,-43.00000000000001,-108.7,16
1105,18664.0,2.9000000000000004,-0.7000000000000001,1.2000000000000002,10.8,-6.4,3.9000000000000004,53.9,-47.7,-107.9,16
1106,18678.0,2.4000000000000004,-0.6000000000000001,1.9000000000000001,10.600000000000001,-6.2,4.4,52.5,-53.2,-107.30000000000001,16
1107,18696.0,1.8,-0.8,2.5,10.3,-6.0,4.9,56.400000000000006,-52.300000000000004,-117.20000000000002,16
1108,18712.0,1.3,-0.9,2.6,9.600000000000001,-5.800000000000001,4.9,56.400000000000006,-52.300000000000004,-117.20000000000002,16
1109,18730.0,0.1,-1.1,2.3000000000000003,8.8,-5.7,4.4,62.1,-46.4,-124.3,16
1110,18747.0,-0.8,-1.5,1.5,8.4,-5.6000000000000005,3.7,70.9,-41.300000000000004,-131.4,16
1111,18763.0,-1.2000000000000002,-1.8,0.8,8.200000000000001,-5.5,3.1,68.80000000000001,-42.400000000000006,-133.9,16
1112,18779.0,-1.5,-2.0,0.6000000000000001,8.0,-5.4,2.7,68.80000000000001,-42.400000000000006,-133.9,16
1113,18796.0,-1.8,-2.4000000000000004,0.4,7.800000000000001,-5.4,2.6,62.4,-42.400000000000006,-137.1,16
1114,18814.0,-2.2,-3.1,0.30000000000000004,7.5,-5.6000000000000005,2.4000000000000004,41.800000000000004,-34.400000000000006,-145.5,16
1115,18830.0,-2.9000000000000004,-4.0,0.2,7.1000000000000005,-5.9,2.3000000000000003,28.800000000000004,-26.400000000000006,-147.6,16
1116,18845.0,-3.2,-4.4,0.2,6.4,-6.300000000000001,2.2,28.800000000000004,-26.400000000000006,-147.6,16
1117,18862.0,-4.2,-5.1000000000000005,0.2,5.7,-6.4,2.2,3.2,-9.700000000000001,-140.3,16
1118,18885.0,-4.9,-5.5,0.30000000000000004,5.1000000000000005,-6.4,2.3000000000000003,-6.500000000000001,-5.500000000000001,-130.6,16
1119,18895.0,-5.2,-5.6000000000000005,0.4,4.7,-6.300000000000001,2.5,-6.500000000000001,-5.500000000000001,-130.6,16
