,ms,accelX,accelY,accelZ,accelWithGX,accelWithGY,accelWithGZ,rotRateAlpha,rotRateBeta,rotRateGamma,interval
0,0.0,0.5519130574287846,0.1958966661095619,-0.2689011120438576,0.4831798408065922,-1.332074094799906,-9.955539415740967,0.6115402402851512,4.194383737698511,0.4433233798787417,0.01666666753590107
1,19.0,-0.030221663126628846,-0.14897227171882987,-0.09715162971913814,-0.24136556446235624,-2.4838356077216566,-9.619452773174643,2.9484932000647164,1.4056478085467465,1.1845378298056262,0.01666666753590107
2,36.0,-0.06770745377102866,-0.17942878478094934,-0.09906067821085453,-0.27727860763100903,-2.518551531793922,-9.620351183319091,0.26097803305032286,0.3403707378999495,0.38328358915552313,0.01666666753590107
3,52.0,-0.10332712174998596,-0.2576119485273957,-0.15641104341745377,-0.31334123360449445,-2.594417943030596,-9.67826035145223,-1.7743757843332966,-0.75632434915526,0.5458040984745683,0.01666666753590107
4,69.0,-0.014948855067789554,-0.18990823934972284,-0.3218593797713518,-0.23193835889287293,-2.5191499360784886,-9.845405554851888,-2.1164173572589604,-2.3941448017427263,3.0334515752729776,0.01666666753590107
5,86.0,-0.06276524812849238,-0.12351780472770332,-0.43081309096515175,-0.28969851047676054,-2.4488204084418714,-9.955089918407797,-0.5402456585115003,-4.369532413019264,3.075321702102214,0.01666666753590107
6,103.0,-0.12399154145298524,-0.10447568899691104,-0.4080757739782333,-0.3646669316940941,-2.4302654917061326,-9.931896674346923,0.7987591405297857,-5.5180697030919275,1.4572954578945616,0.01666666753590107
7,119.0,-0.15729557116702197,0.02036985720321536,-0.2790437358736992,-0.4167408360688016,-2.309956712152809,-9.801262461742759,1.8962935938009664,-5.606244457069031,-1.485159961665569,0.01666666753590107
8,135.0,-0.08233776267524809,0.0709416681855917,-0.12667349227964878,-0.3537433866196312,-2.266412169458717,-9.64683645466268,3.1853857182653265,-5.215059459621713,-2.0772664994930357,0.01666666753590107
9,152.0,-0.02824301999742165,0.09442921901792287,-0.06535597700774669,-0.311096669548098,-2.2520469594977794,-9.58294119785726,3.9016644548733903,-4.573994552710419,-0.8461833850930056,0.01666666753590107
10,169.0,-0.009192428699228912,0.07617123940214514,-0.0420586880505085,-0.30331553241889925,-2.282423393061012,-9.556306288909912,3.1682344729291896,-2.4144479659374123,1.0960481400747624,0.01666666753590107
11,186.0,0.03828948997640982,0.12491262008696793,-0.039653380474448205,-0.2621651548523456,-2.240075951196998,-9.552115851482748,2.3925996848864224,-1.5129128345323293,2.9324889996223185,0.01666666753590107
12,202.0,-0.005286817829124629,0.13907631612643598,0.026267244678735733,-0.3119944769043475,-2.2307984197638926,-9.484779514312743,2.103095500169674,-2.106157132465132,2.458345164846261,0.01666666753590107
13,219.0,-0.22560086296703666,0.08177855788990855,0.21115619456171988,-0.5433342488495633,-2.293496721869707,-9.298181422424316,1.5276709523380227,-3.9915049212343297,-1.2778097191725568,0.01666666753590107
14,236.0,-0.36655868199113756,-0.0319917598053813,0.1594768607288599,-0.6917747883118689,-2.408867168238014,-9.349207845306395,0.3539803967493024,-3.235757082733701,-3.990477404651066,0.01666666753590107
15,252.0,-0.31920740395784375,0.01235810792222619,0.09738543847501277,-0.6470331082550809,-2.364125524713844,-9.4113074508667,-0.07482180085079392,-0.8962740714751751,-4.880335794061484,0.01666666753590107
16,269.0,-0.23510369105599818,-0.030065760178864,-0.07309212421774863,-0.5559037710327654,-2.4070715169928967,-9.581894319152832,1.2055131273033237,2.5102008147986443,-4.0445891514636685,0.01666666753590107
17,286.0,-0.09228139333426952,0.032451340141147374,-0.21483985151052473,-0.40327345173042267,-2.348413722449541,-9.7230019949764,2.8570023892455723,4.261314895809582,-2.102770639297275,0.01666666753590107
18,303.0,-0.07750782176814973,0.03736585405915975,-0.2040226894199848,-0.3778350225586444,-2.3512565446600315,-9.710582073864341,3.369162416611686,4.245733953652313,-1.0116848450979383,0.01666666753590107
19,319.0,-0.07143325109481811,-0.027720950618386267,-0.14021160376667977,-0.3642180554154329,-2.4265245516121388,-9.644442253002524,2.189583197421783,2.323637612714331,-2.0124501387037306,0.01666666753590107
20,336.0,0.029272965833358464,-0.09568681786358356,-0.2034352449208498,-0.2623148107224144,-2.4979015424750743,-9.706841133770347,0.518454206768839,0.3957175216527082,-3.06265853138101,0.01666666753590107
21,353.0,0.11368291340647264,-0.0867947786167264,-0.24282968219816684,-0.1786673902207054,-2.4890730699837205,-9.746196408081055,-0.33867781148113835,-1.722871995844875,-3.863717631392092,0.01666666753590107
22,369.0,0.21118015995919703,-0.02799114586189389,-0.3263239579647779,-0.0884359334198758,-2.4287689695380625,-9.829843244060873,0.16202445349035988,-3.0777711786933093,-3.790395550652005,0.01666666753590107
23,386.0,0.20964562560198827,-0.010257920772582292,-0.3486865964204073,-0.09487033211523667,-2.4124584707282484,-9.85169091873169,1.393134048213637,-2.2721070370777583,-3.513555390430106,0.01666666753590107
24,402.0,0.22005385983176529,-0.008312924184650182,-0.29621231281757354,-0.08768774540107696,-2.4167979612372816,-9.797521521648765,3.5595163736853563,-2.299407943520534,-3.4390425088969097,0.01666666753590107
25,419.0,0.20576748726069927,-0.08607567056193947,-0.08554068690240382,-0.10564418478701262,-2.511219143079221,-9.582492285045982,5.422400097161205,-2.011968396923833,-3.7661163625867253,0.01666666753590107
26,436.0,0.17446027565337716,-0.17536811121329665,0.11244447591900825,-0.1384148200104013,-2.6131223512396216,-9.381229707989096,4.517462784497515,-1.5093775713066129,-4.337843750364989,0.01666666753590107
27,453.0,0.16922065796684474,-0.19900603030174968,0.14970482377707958,-0.14395141134951261,-2.645444073651731,-9.341725380596518,2.3163978256375293,-1.8312313462015406,-4.346098887750596,0.01666666753590107
28,469.0,0.11221684117559343,-0.23846856437921524,0.1620423273026943,-0.19991594822090117,-2.688839271003008,-9.328407633861898,0.4384533215983904,-0.1839174909567118,-2.1738080217599927,0.01666666753590107
29,486.0,0.12490067392084747,-0.15151114254668355,0.008222469422221183,-0.18345581180732695,-2.601750185614824,-9.482384728130697,-0.14925418753740455,1.1069912770638863,0.08432487516274273,0.01666666753590107
30,503.0,0.07584823625916615,-0.1702040064483881,-0.033521745851635934,-0.22610252887886018,-2.6218014783881602,-9.523984566497802,0.5962592928428344,1.5454368079777547,1.0339273561300848,0.01666666753590107
31,519.0,0.05728937400067225,-0.18781418967992067,-0.026112930899858472,-0.2412159268585965,-2.6418527711614965,-9.516053773498534,0.32932282687617453,1.3061193591783786,1.5610837041491963,0.01666666753590107
32,535.0,0.054582781923096624,-0.148137428329885,-0.04002279830873012,-0.24181442247470838,-2.6041440950140355,-9.529520573315024,-0.5954978334720837,0.2854848585140344,2.6925792453558555,0.01666666753590107
33,552.0,0.04539848173139616,-0.12358838574588298,-0.0371001888602972,-0.2534862103668973,-2.5784067194283007,-9.526827096447349,-1.116188446946426,-1.0832976709982296,3.403654658476839,0.01666666753590107
34,569.0,-0.03184139154925942,-0.13890958125740288,-0.017912088787555694,-0.3390788831848651,-2.5908263482794163,-9.508122395977377,-1.551842458202169,-2.921849912772966,2.269297268007944,0.01666666753590107
35,585.0,-0.020359299276582896,-0.09086641196981071,0.005127426016330719,-0.33533790655825285,-2.539500650189817,-9.485676755413413,-2.0492789455952622,-3.256551380218393,1.4467722708176876,0.01666666753590107
36,602.0,0.019428155906312167,-0.043229631526023146,0.03557867838144302,-0.304063720437698,-2.4869779974006114,-9.456198147472739,-2.351494539244228,-3.097985550428785,1.795457163206541,0.01666666753590107
37,619.0,-0.04028371426723897,-0.059215720687061546,0.08500292676389216,-0.37574009610600767,-2.4953577032111585,-9.408314114269613,-3.1929091716360953,-3.2687065556200774,3.157100837695246,0.01666666753590107
38,636.0,-0.10117339604850858,-0.025866408792883155,-0.01172960076034069,-0.44636908161323513,-2.453309536554664,-9.5069252951473,-4.625267502149235,-3.469094700914731,3.6557780716397543,0.01666666753590107
39,652.0,-0.11352343026213348,0.0031185704119503495,-0.05621989987194538,-0.47105921316836025,-2.4121590493902563,-9.554061140331626,-5.418588424717515,-4.628519952854631,3.3997740438112136,0.01666666753590107
40,669.0,-0.09969893958177417,0.008880933330953121,-0.1799023936420679,-0.4804864187378436,-2.390162467768043,-9.680953828319907,-5.031212111506126,-8.064260919061486,1.2882496633189213,0.01666666753590107
41,686.0,-0.09141549721993505,0.01449760416895151,-0.25519348920881746,-0.49275673877876247,-2.3741512441657484,-9.758017778778076,-4.046867446438691,-9.103842177720459,-0.4229319835138009,0.01666666753590107
42,703.0,-0.07078176491614431,-0.01523439401090145,-0.2760977455496788,-0.49679691754765803,-2.3952500001654027,-9.780013922008871,-3.4590229466533127,-10.555011489538048,-0.4295606287424454,0.01666666753590107
43,718.0,-0.07070457149408757,-0.04004033396542072,-0.2795388259142637,-0.5333084928650409,-2.4096153562568126,-9.784353412517905,-3.8824242388682872,-11.64982763424127,0.6952553076210587,0.01666666753590107
44,736.0,-0.08944788694139569,-0.08623466051593423,-0.3765051621943712,-0.5771523107666522,-2.448969899915159,-9.881767492565512,2.6768715178121187,-5.757788852391865,1.549863837776981,0.01666666753590107
45,753.0,-0.05993621698133647,0.10431991391330957,-1.1961357844382523,-0.5430349736420438,-2.2948433141730726,-10.692504614257812,23.44908785469137,11.907928530145004,5.501648647666747,0.01666666753590107
46,769.0,-0.04652326624393463,0.21697101832032203,-0.284458162137866,-0.47943899204414336,-2.257134784156084,-9.764002698406577,16.99840448553204,15.553069862812933,2.9511388311510385,0.01666666753590107
47,786.0,-0.1333751818753779,-0.37907705850899215,1.372929690670967,-0.5446809872834012,-2.8716964227974415,-8.102726605987549,-2.5065697154811364,0.19996764843366166,-4.580629654602262,0.01666666753590107
48,803.0,0.21622768913973123,-0.2543187522009015,0.92696403875947,-0.2229601391999051,-2.7096386056646704,-8.557175424084067,-18.15270304016961,-17.5344240712163,-8.903014125554574,0.01666666753590107
49,819.0,0.3782373197492212,-0.060854427804797884,0.2752449281126261,-0.1028011433808133,-2.4693209062874315,-9.21887290790975,-18.95027959747763,-19.20563646488231,-6.930230950785928,0.01666666753590107
50,836.0,0.36707189221028236,0.12416282463297247,-0.6644336307913065,-0.1515830022064969,-2.244714716913551,-10.166528437042235,-12.584312772141258,-13.75304437026871,-3.7714392143842805,0.01666666753590107
51,852.0,0.37647765313293785,0.24061127549633382,-0.7909861270397901,-0.1662474508423358,-2.1106392778143284,-10.296114017376302,-1.4091272563203392,-6.196421893342792,-0.016030347260314146,0.01666666753590107
52,869.0,0.21924904625490307,0.20945245938375592,-0.8478086689800024,-0.3318963147370145,-2.160768167334795,-10.347738990673422,11.694266552528665,1.2088316387445979,2.29902502604019,0.01666666753590107
53,886.0,-0.029110213019698856,0.0021660919927060603,-0.3205401138663292,-0.5753566960541531,-2.4021336221992966,-9.812186006817221,15.109747896996792,3.097213739052574,1.2699265069315984,0.01666666753590107
54,902.0,-0.10838117200285195,-0.09684943190217017,-0.01804828238785267,-0.6485294477600604,-2.536807173322141,-9.500939790996908,12.67188262748999,1.652121374605592,-0.5926653860397911,0.01666666753590107
55,919.0,-0.1025142161982134,-0.25318565651774405,0.263866625007987,-0.6413469158448278,-2.7217592515692113,-9.211690887451171,4.099036858206071,-1.6430664647568591,-1.491990577722405,0.01666666753590107
56,936.0,0.017875190843269228,-0.2571379012748599,0.11833821013271809,-0.526874112435989,-2.727595118115842,-9.356389865764974,-2.229271292254612,-3.418597831720357,-0.6262006010083488,0.01666666753590107
57,953.0,0.1283633450627327,-0.19308394677639007,-0.056174307164549825,-0.4243723173279315,-2.6544226221382616,-9.532813185119629,-4.178673021947012,-3.1343874704971912,0.6365099177868369,0.01666666753590107
58,969.0,0.2340203893313184,-0.049761371382325885,-0.324143691316247,-0.3287539250580594,-2.501193569757789,-9.802758837780356,-0.7796559018340534,-2.1034545119879224,2.7877182309654325,0.01666666753590107
59,986.0,0.19347122906092554,-0.01676759492754936,-0.20561200443804262,-0.3764882841248065,-2.4705177148565647,-9.683198392376303,2.189048308232407,-1.4839019261978175,3.8461290405056627,0.01666666753590107
60,1003.0,0.07931998575665056,-0.06076075817197561,0.0196153855741024,-0.4987422429291531,-2.5234897188484666,-9.455150684246421,2.2352664907985904,-1.1756342513356914,4.12217412401949,0.01666666753590107
61,1019.0,0.05601137168779969,-0.03971972370892763,0.0908230112195015,-0.5262755620209499,-2.5061314645513892,-9.382726668548584,0.6931831989816061,-0.6405100074020843,3.079129959451319,0.01666666753590107
62,1036.0,0.07868475659303367,0.002921732665598392,0.19834230569601058,-0.5041291966645047,-2.4636346773445603,-9.275137231445312,-0.7340021170088948,0.06025648914680784,1.4835211431515891,0.01666666753590107
63,1052.0,0.03816054810080677,-0.008344926758110523,0.21425883675217627,-0.5427356984345242,-2.471116557532549,-9.260323108673095,-2.0138629206448653,0.8486383044910963,0.16124187656207772,0.01666666753590107
64,1069.0,-0.22569047747924922,-0.02100362506210804,0.1878226652473211,-0.7957728498596698,-2.475156772834062,-9.28965207901001,-2.0027546851768974,4.801286172815518,-1.6438798975983255,0.01666666753590107
65,1085.0,-0.47363987731132656,-0.02407353402674198,0.12807225316166876,-1.0266637455262244,-2.4771017694219943,-9.350704221343994,0.868583203919474,6.345612861609734,-3.3453871684411065,0.01666666753590107
66,1103.0,-0.470887582928501,0.08024170371145009,0.11248071627616882,-1.0007764035431668,-2.38088508246541,-9.36551775959432,4.817984277788907,10.110326900982491,-4.345058991449462,0.01666666753590107
67,1118.0,-0.3104964568989351,0.1494026259601116,-0.032360885378718375,-0.8002620145050808,-2.3303072801336646,-9.507673483166098,4.60674274845969,11.964950364430855,-3.1538863799171084,0.01666666753590107
68,1136.0,-0.26542627554014325,0.3372206150323152,-0.035870354804396626,-0.7212533597199245,-2.1514903436407447,-9.510516597637533,1.8558872618882287,13.861534241271547,-3.654525585700703,0.01666666753590107
69,1152.0,0.02776829689145088,0.3065104194700718,-0.02122223624885082,-0.3983354108063504,-2.186954455731809,-9.496002334594726,1.815497578561593,10.216000172726343,-3.1030659305108053,0.01666666753590107
70,1169.0,0.1192666135566309,0.25173019701242444,-0.08956862724423408,-0.28057054358217864,-2.2436671075567602,-9.564984685406088,-1.4108507051470038,6.44031343445196,-4.853314711931267,0.01666666753590107
71,1186.0,-0.22640739357694983,0.10006810168772935,-0.04419277746975422,-0.6108207716125995,-2.3885160157352683,-9.522038693127035,-3.982643177673061,6.204671908086521,-8.514707625955594,0.01666666753590107
72,1203.0,-0.34788255002852525,-0.04225391836166382,-0.08070727539658545,-0.7067384390899911,-2.5181021805912254,-9.562889758953451,-7.387123648709237,10.732751794761997,-10.874533715326768,0.01666666753590107
73,1219.0,-1.126036412295699,-0.1582394278883934,-0.34419513022005555,-1.4505870404450223,-2.6174621340095996,-9.8319387550354,-3.6337511384532863,7.178090831802874,-10.872693833119097,0.01666666753590107
74,1236.0,0.4365951449653134,0.22987492355704306,-0.3893307414978742,0.1472433107680641,-2.221969947272539,-9.880122063446045,-0.8435445841958535,13.907002810576323,-7.660151923044034,0.01666666753590107
75,1253.0,0.27395276941023766,0.34701223346740007,-0.3853051392436027,0.01810607698969543,-2.1016613138496876,-9.877877499389648,-2.0936510560948385,11.813042688421541,-6.032551141002199,0.01666666753590107
76,1269.0,-0.1606440413447097,-0.667138798096776,-0.4927168816924095,-0.3743933942047879,-3.1179997724555433,-9.98576562717855,4.305015726779793,9.476683421491238,-2.88285871067889,0.01666666753590107
77,1286.0,0.13888243752215057,-0.37090427344739435,-0.7578016503185033,-0.05012867032475769,-2.8396739755928513,-10.24673360813558,10.485481017560964,10.181166207959278,-2.4369967682651517,0.01666666753590107
78,1302.0,0.26975307096438483,-0.13373743931651114,-0.36113632814884183,0.11566977637475356,-2.6381118310675022,-9.841365924072266,18.65862198218162,18.617647677350718,-0.38329020590128154,0.01666666753590107
79,1319.0,-0.20898528026342392,-0.2310343227252364,-0.06757365305721759,-0.2992752988510765,-2.81214036424011,-9.528024197277427,25.194786876350957,16.334458871788023,-5.256415401272494,0.01666666753590107
80,1336.0,0.2499955552395433,-0.34370617765933276,0.8052110517472029,0.20919326959145254,-2.981530423957109,-8.639925603485107,19.34967661674142,18.07657545922794,-8.507676799978713,0.01666666753590107
81,1353.0,0.5338910054607316,-0.5034533797621726,1.047625723403692,0.5277717725201219,-3.1735154695808885,-8.3885344291687,5.796301727800628,4.553193211593144,-7.0836664547352095,0.01666666753590107
82,1369.0,1.4914980562977491,-0.8255404308095574,1.806047551447153,1.4767734475730452,-3.475184586499631,-7.63585669773519,-18.505012735295328,-7.96243304382035,1.7636094852106523,0.01666666753590107
83,1386.0,1.4738326357476412,-0.6190487209275365,1.5898925256848335,1.4320317401167937,-3.203293352729082,-7.870039547619223,-33.088858264315945,-12.177734662738848,3.9044477569601703,0.01666666753590107
84,1402.0,1.121023552569747,-0.2829480498358607,1.0268810415387153,1.042824414936034,-2.777873645240068,-8.456769176483153,-37.96356769004863,-14.316453014524724,3.4181709448972315,0.01666666753590107
85,1419.0,0.10099461454865521,0.5109381825596094,0.17559563635885714,0.000598459083493799,-1.8532628916084766,-9.341276467785239,-40.189977133041005,5.0315092247350215,-3.594834854996669,0.01666666753590107
86,1435.0,-0.8612868669733404,0.30215602365285155,-0.969394482731819,-0.9264064505424816,-1.9952688314460216,-10.502913185772298,-12.976585904100723,14.03159570632111,-16.56151485036676,0.01666666753590107
87,1453.0,-1.0492128464646637,0.580244358497858,-1.5860089622497557,-1.0586860968326917,-1.716045062830299,-11.120019248199462,10.364555079626827,25.777299559715495,-14.639378382067402,0.01666666753590107
88,1468.0,-1.2669243078887462,1.4159157226994632,0.45946050877869127,-1.096993327961769,-0.9358344506964087,-9.0595088599056,27.285422403927235,74.4102459880858,-11.926216361647713,0.01666666753590107
89,1486.0,-0.1968006292119622,-0.006224427472800016,-1.3803367520570755,0.16519984148554503,-2.453459174158424,-10.869824590191245,48.11655509881337,57.47600771471145,-18.411065190809097,0.01666666753590107
90,1502.0,-0.7418860691104083,-0.12982523430883883,-1.366404088294506,-0.26560678320620207,-2.7090400552496314,-10.81580599975586,58.6615373093289,23.419036729890607,-22.73821884134937,0.01666666753590107
91,1519.0,-0.09314889688380062,-0.7315016724139451,-1.5286778862655162,0.4317044503143057,-3.4627649576485156,-10.932672383770345,24.741506494724938,-1.0378217378957557,-17.893946446105552,0.01666666753590107
92,1536.0,0.06660575787313282,0.3254264246031642,0.49132396602928635,0.5913677735259756,-2.4374480966866017,-8.903436839184165,2.8122934650425497,-6.15964772796462,-13.88865179982379,0.01666666753590107
93,1552.0,-0.24850279593113808,0.5130290173590183,0.3923708398461342,0.2811690209319815,-2.2378315332710743,-9.005639322552085,-9.255349433889682,5.615003320905926,-7.685176882389315,0.01666666753590107
94,1569.0,-0.1983491738282144,1.04184830904603,-0.2708814722061157,0.3790320137908682,-1.6707047227606175,-9.677212888225913,-10.336433483266593,12.560444676086648,-11.154964207174567,0.01666666753590107
95,1585.0,-0.5411317338366061,0.5372846299543976,-0.6384206531345844,0.07586626510620116,-2.1535855623543263,-10.04846378315389,-6.03661424978471,11.112278939956573,-15.68586240065632,0.01666666753590107
96,1603.0,-0.21355653370171784,-0.08576046713292598,-0.3542711185544729,0.4445733207702636,-2.7590193071663376,-9.766547122192382,-2.567634808312224,4.539806894593566,-16.363002232329507,0.01666666753590107
97,1619.0,0.10961100605875253,-0.35679420729130507,-0.052070963498950004,0.7832032180786133,-3.0243267786324024,-9.464877713012696,-0.5808185830069628,3.7460326182191257,-11.915360629735623,0.01666666753590107
98,1636.0,0.4129132771372795,-0.8226154832735657,0.02950900307893753,1.0974421129088847,-3.483564292310178,-9.38437209766805,-4.51093269676416,-1.6353020337744357,-5.66099226524809,0.01666666753590107
99,1653.0,0.6433145626559853,-0.8099930253267288,-0.09248480695188045,1.3027449052672833,-3.459921550916135,-9.511264785656332,-2.2746209735791463,-19.691881046990105,1.682376978194633,0.01666666753590107
100,1669.0,0.18537885229177772,0.406382998585701,-1.145689791792631,0.750133307647705,-2.2565359414801,-10.566958080181479,10.788916440307013,-33.862243999131074,2.8204986566698507,0.01666666753590107
101,1686.0,0.19417955999337136,0.36057489487379785,-0.5457458765685558,0.6699275520324707,-2.3341978578314184,-9.962871073803305,12.588553465842189,-34.36115858214924,3.376330486702203,0.01666666753590107
102,1703.0,0.17594426713343708,0.35277591156065463,-0.06221066471934318,0.5749076736450195,-2.3620307443916797,-9.477147411999105,3.3725506173268354,-25.445200394343843,4.108202118298583,0.01666666753590107
103,1719.0,0.1769448224781081,0.40643560555577274,0.3023778497099876,0.514454045193456,-2.3148948992073533,-9.113079122051596,1.854712255907575,-8.964717200742824,6.757468145919625,0.01666666753590107
104,1736.0,0.007656140776351094,0.07902209878861903,-0.03628770343363285,0.3280055909087881,-2.647090379554033,-9.450960831341147,0.6757574654181995,-1.6995990867434085,7.554898707934138,0.01666666753590107
105,1753.0,-0.28833419985361397,-0.26669687999784947,-0.06523615002036094,0.02469016808774322,-2.9897604921638963,-9.48103798969686,-3.6320431642739597,-2.1680269069578113,5.395456708432797,0.01666666753590107
106,1769.0,-0.6502012534298003,-0.6174868784382939,-0.09372282431423663,-0.36466682209623974,-3.3230034357368945,-9.515454638561605,-7.693871713202741,-12.23895877091155,-0.07776159697888939,0.01666666753590107
107,1786.0,-0.3359443114861846,-0.3648103404864669,0.3456009053647518,-0.08693944778442382,-3.0478198824226856,-9.083600514110922,-10.28783497977466,-17.16745508258444,-1.981814392398696,0.01666666753590107
108,1803.0,0.3307250059353187,0.6602469927564263,0.46494858480095863,0.5319616813659668,-1.9819509385809302,-8.976908902630209,-14.10591926354825,-11.543938357764915,1.8310558957172358,0.01666666753590107
109,1819.0,0.1382463863746263,0.37916473679244517,0.5371954903662205,0.3254617516448721,-2.2144880670845506,-8.91840059956014,-29.63193560083241,5.337037673574855,1.0511581091370288,0.01666666753590107
110,1836.0,0.269674471036531,0.10576572880744933,2.4602555563002824,0.47315404828945173,-2.379238776563108,-7.024138758087158,-55.1175775452519,-1.3881976357127161,2.1733397269150236,0.01666666753590107
111,1852.0,0.007685421669762581,-0.09433598777651786,0.7701520133256912,0.18764550031581892,-2.439094110327959,-8.750358155059814,-47.4417802201403,-18.52511056692809,-1.2517992915960903,0.01666666753590107
112,1869.0,-0.37577297546230254,0.20553923146277664,-3.813270586189627,-0.254084651184082,-2.0759234998725353,-13.35006787250936,-2.6884392969451816,-18.001571444404735,-8.354189642723833,0.01666666753590107
113,1886.0,0.040078967209067194,-0.0475626922942698,1.8782506178706884,0.10788867121159564,-2.3122012762092052,-7.663090741619468,-12.393303970680913,-28.68205094767498,-5.606539008976987,0.01666666753590107
114,1903.0,-0.05598678980239201,-0.13703954960182307,-0.701406393879652,-0.0652420237803657,-2.3832792841255666,-10.247332743072509,6.8702145054358486,-18.411671370097935,-9.54610034157337,0.01666666753590107
115,1919.0,-0.05308152878098189,0.19452187062501905,-0.8819196128964424,-0.09741408918076194,-2.083704655268043,-10.420163590893148,15.962775345081562,-15.470851460678904,-8.473308141848854,0.01666666753590107
116,1936.0,-0.0025515293800272044,0.3530829316832125,0.02915653637945652,-0.08005614541093818,-1.9648923978827892,-9.49929377735555,14.830983971306477,-14.137008577102856,-6.881104815180611,0.01666666753590107
117,1952.0,-0.08459990805410779,0.4279603318825364,0.2660071441680193,-0.1919850547569338,-1.914015612604469,-9.256282308849691,2.8850311377217777,-14.318325340130952,-4.1006043866205895,0.01666666753590107
118,1969.0,-0.31484624960627405,0.30739129395782944,0.8048048090338706,-0.4825812721252441,-2.0091852747261525,-8.722824835968018,-15.85349402590865,-19.785056780100128,-6.361207891032166,0.01666666753590107
119,1986.0,-0.08115520182717591,-0.23698314812704918,-0.12411270188093185,-0.2861071166549809,-2.5137631284736095,-9.660603114208579,-15.36235902835513,-16.742378259588694,-11.795687177740538,0.01666666753590107
120,2003.0,0.08825422017741948,-0.37573856173604725,-0.5984381868362426,-0.148739778137207,-2.6189582177862523,-10.142136923107504,-11.622689585121517,-13.480901459205077,-8.4693346792992,0.01666666753590107
121,2019.0,-0.0987560327084735,-0.24436346763670444,-0.5159814374238252,-0.37244801402436567,-2.4589959116280076,-10.065372832378744,-6.3292938321352805,-11.917626544992777,-7.25075721438264,0.01666666753590107
122,2036.0,-0.4241008799754083,-0.14784838225543498,-0.4877525372833013,-0.7142203010116703,-2.3515559659980236,-10.039186251720785,-2.694025324469194,-5.326409472339493,-12.957694454630113,0.01666666753590107
123,2053.0,0.04607760483566671,-0.1148164657473564,-0.5765045874476432,-0.23792378997802732,-2.325219747736305,-10.126575196838377,5.891639215782959,1.5746476060671952,-19.058521020349406,0.01666666753590107
124,2068.0,0.19916544038085265,-0.11297580631673336,-0.4074351379871368,-0.05701194529877975,-2.344223723413795,-9.95344448928833,9.201559986628538,11.32768346958491,-18.962036060586513,0.01666666753590107
125,2086.0,0.786357298195362,-0.3282505421131849,0.1818149492651224,0.5728127289260737,-2.5837935270331798,-9.35953225544393,7.85234746987267,13.679352605539798,-11.983397851605414,0.01666666753590107
126,2102.0,0.7755877746388316,-0.3948001128196716,0.5553273593842983,0.5948095114776865,-2.660707401496172,-8.984241145214439,0.0695566654857463,7.904589879286804,-7.429008076247047,0.01666666753590107
127,2119.0,0.3883874692983925,-0.5560265936948359,0.4877887776404619,0.2298433959076181,-2.806753702765703,-9.055767919811606,-9.15529740783275,2.473852682469952,-5.334454154521298,0.01666666753590107
128,2136.0,0.2588527423687279,-0.465402027656883,0.14011574217677117,0.10025723105166107,-2.6895871667608615,-9.409660852703452,-11.435143689570367,-4.146729080972509,-1.22613453562465,0.01666666753590107
129,2152.0,0.14879159965598954,-0.34928602361828087,-0.09869827463924884,-0.018555062866210937,-2.5475812269233167,-9.654318334850668,-8.14225058032563,0.07677347404527217,2.3150341356810538,0.01666666753590107
130,2169.0,-0.012242564384313299,0.30479835485517975,-0.19739771832227707,-0.14006077885283155,-1.8730149091742931,-9.758317053985595,-6.110542509813636,21.9073297439119,0.2695360466369373,0.01666666753590107
131,2186.0,-0.717361138054356,0.1997514418415725,0.6661527096688747,-0.7875426948879146,-1.9569616048835217,-8.90014481190145,-12.173668138861752,20.798901032192845,-3.625025571788595,0.01666666753590107
132,2202.0,-0.5386605214174837,0.0020773907959461212,0.9395213225156068,-0.5714659996253904,-2.106599062512815,-8.637680454906821,-26.896782932606218,6.453277133496645,-4.818727060861145,0.01666666753590107
133,2219.0,0.07327707973006181,-0.14188830480724574,1.3325848208010196,0.035314488187036475,-2.127249197962135,-8.270919272613526,-44.8181235599254,-10.070138067906136,-1.553648616350814,0.01666666753590107
134,2236.0,0.682574413768202,-0.08374722761437296,0.5631213742613792,0.6138134825885994,-1.9511257383368907,-9.063848934936523,-47.771142187202074,-11.404672508135649,4.742483366703586,0.01666666753590107
135,2253.0,0.7379825588658452,-0.021971008789539337,0.24102526312470435,0.6516717735069338,-1.7726080770514905,-9.407715563854575,-43.7550763325992,2.0141391164194276,10.480069800191023,0.01666666753590107
136,2269.0,0.5269783765280619,0.3576179447643459,0.00038519992530345915,0.47075992426110896,-1.2587525457404554,-9.67197615661621,-34.774190366543664,16.201155777304177,12.80830370332995,0.01666666753590107
137,2286.0,0.11314519893373362,0.46775063660964367,-0.3926473186999559,0.09487025790835614,-1.0654206155523658,-10.078690579113363,-31.51007711314042,17.01374679795518,12.901107191130205,0.01666666753590107
138,2303.0,0.5999903481816873,0.5180643811777234,-0.14143676164746283,0.6230910026052617,-0.9114435212835669,-9.843310628399252,-29.98598528664919,13.096132143822517,18.147611134143364,0.01666666753590107
139,2319.0,0.6645172174215317,0.486182803748548,-0.18490999267101288,0.7145195305534172,-0.8690962255500256,-9.897329803356527,-28.44890756299847,13.997124595353702,20.768812341351648,0.01666666753590107
140,2336.0,0.17382848055586217,0.3341995136454701,-0.3232347597777843,0.2527379310165532,-0.951845820429176,-10.044872480663656,-26.1961899388705,14.322632628176292,19.013257356719734,0.01666666753590107
141,2352.0,-0.19546991033116354,0.3420418246436864,-0.2718564547181129,-0.08529345240937546,-0.8809175231818109,-10.001327937969565,-23.672325757524067,15.202534309324124,13.738455086201563,0.01666666753590107
142,2369.0,-0.6213253606226294,0.38717195602878923,-0.374377502515912,-0.4578911040375009,-0.7647988157294691,-10.11176107406616,-17.90050684280335,19.10772570313018,6.714752996624012,0.01666666753590107
143,2386.0,-0.6235766466807574,0.5407513562168925,-0.6918804406434297,-0.40955813975678756,-0.5729634077094495,-10.432733734130858,-12.065667480158217,20.055602280671625,1.8670966695332776,0.01666666753590107
144,2403.0,-0.3869408506866544,0.10701266012862325,-1.2178607095122336,-0.1297358389923349,-0.9789302267096937,-10.960804837799072,-5.565804614540677,5.041822383494918,-1.7707916425663324,0.01666666753590107
145,2419.0,-0.38368323713019487,0.20247567917369305,-1.19022802169919,-0.10938512488100677,-0.8756802801154553,-10.933570793914795,0.1799687878427982,6.735110375445235,-4.895039910684051,0.01666666753590107
146,2436.0,0.5922022150561214,0.31370405730120837,-1.5854717866331338,0.8738836242233402,-0.7751238103888929,-11.327416967010498,9.09717505931688,0.22499568936819656,0.6308790137855431,0.01666666753590107
147,2452.0,0.5751118909802287,0.4071852548792958,-1.5496622221052645,0.8583212951660156,-0.7190097089789808,-11.28731408920288,19.704049028996483,2.285802633580692,6.283846180284839,0.01666666753590107
148,2469.0,0.18210089006703345,0.290620191898942,-1.0287141021847723,0.46462474140776316,-0.9151846075080334,-10.756848783874512,25.763082520958115,-6.619432157227783,5.776918077822955,0.01666666753590107
149,2486.0,0.021208518250752238,-0.03344064343944192,-0.6955395476728677,0.25423428878784177,-1.3052898405097424,-10.416572288402914,24.739783579506803,-32.46444920058255,4.99511883061084,0.01666666753590107
150,2502.0,0.01748895887150429,-0.12220745278149843,-0.6912701997905969,0.11851296391142531,-1.448493027307838,-10.407295341491698,15.741233036710321,-69.77928893835795,4.709355241681731,0.01666666753590107
151,2519.0,0.2408666932958178,-0.46201589234992857,-0.0912017814040184,0.0441430748428218,-1.8025355978034436,-9.803806301006674,-8.624779539524935,-97.07464414488567,5.602948890794499,0.01666666753590107
152,2536.0,0.8738326794873923,0.29088191157504917,0.9186135590434074,0.43290155114438383,-1.0010765920661389,-8.792555374798178,-27.9914488131477,-91.6293236404172,4.4897864310938,0.01666666753590107
153,2552.0,0.603683320948109,0.5181481870036572,0.6923544878959655,-0.1183633445739746,-0.6603517683051526,-9.016413230022788,-35.11754739121479,-71.44570483167932,0.8793543055188784,0.01666666753590107
154,2569.0,0.5416125030908733,0.5857496048506349,0.24707798729240893,-0.3338414939880371,-0.5128090179327875,-9.458442711529136,-26.505425045995533,-47.68778314347665,3.5580045540012564,0.01666666753590107
155,2586.0,0.3631510289721191,0.7702767356839031,0.23039923969209192,-0.5966051992554218,-0.27294001217111946,-9.473257418823241,-16.472389419434553,-17.587487810878127,4.859380773687884,0.01666666753590107
156,2603.0,-0.242351470227167,0.535197010025382,0.5525912124186754,-1.2029366966247559,-0.4658228834174573,-9.1554271484375,-9.377877904957833,17.330542924491418,6.272356948327231,0.01666666753590107
157,2619.0,-0.32860929242298004,0.43239115393683314,0.7511381007760762,-1.215655892944336,-0.5404919746283442,-8.966733545574545,-11.160073188673737,41.18707205374156,8.377413993449169,0.01666666753590107
158,2636.0,-0.6349771616172045,0.17371398733071983,0.862002029505372,-1.3988123930115253,-0.7656966413520276,-8.869618740734458,-13.898522276948105,55.0316845013444,8.520080423511455,0.01666666753590107
159,2652.0,-0.906557941199094,0.03181362675949931,0.8739122475296258,-1.5254058057922868,-0.8634099966071546,-8.872163164520263,-19.770226731864735,58.60802960737102,7.311496379124271,0.01666666753590107
160,2669.0,-0.41865613163821397,0.28441381153948603,0.2640975111544132,-0.8459014105865731,-0.5446819005988538,-9.498097261047363,-16.81994018025607,55.02036004770052,12.655691664062477,0.01666666753590107
161,2686.0,0.1852078796390444,0.9073245416574179,0.01205459493100643,-0.10968441835483536,0.11970906009450555,-9.758466691589355,-13.224526893614064,48.62930764508998,16.748311986430146,0.01666666753590107
162,2703.0,-0.45060734023749827,1.301142219310999,-1.2932833225041627,-0.5988497267792001,0.5485704324699938,-11.06989006641805,-7.5293059891141,37.114728855472364,2.6692357932068673,0.01666666753590107
163,2719.0,-0.7716893789608031,0.9017541941791772,-1.011347956842184,-0.8373720808719983,0.17507497348561882,-10.790816519927978,-13.303704154020144,27.168182206823968,-17.11267184279906,0.01666666753590107
164,2736.0,-1.1206580071929841,-0.15416012268550694,-0.7667530185371637,-1.1288661272878002,-0.843358557703346,-10.549151789855957,-15.780358067823448,13.768927121409929,-22.767592069875008,0.01666666753590107
165,2753.0,-0.5397822554564103,-0.9982573699269444,-0.9644546882420778,-0.5255273066451366,-1.6347918439887463,-10.75041436691284,-14.371423230738632,-0.6176982961521523,-15.865918140008905,0.01666666753590107
166,2769.0,-0.26172181326532734,-0.6962102865412831,-1.0416706143915653,-0.24884735217715495,-1.2997532491706312,-10.829722296905517,-11.095512533091483,-0.7530855588282046,-11.108943246320667,0.01666666753590107
167,2786.0,0.012247044196608476,-0.2243238287685439,-0.7464660173118114,0.03217206197546329,-0.8034053174994885,-10.535983680725097,-7.53714790005492,5.365703977521399,-11.56217496284885,0.01666666753590107
168,2802.0,-0.06956554839364253,0.0071321169022470704,-0.9172609753906726,-0.009427182736597024,-0.5624887754462659,-10.707169099426268,3.8468999981082277,18.64133306584503,-16.075393211664025,0.01666666753590107
169,2819.0,-0.3480408823953941,0.14262754233460873,-1.1377122370421886,-0.21906945190429686,-0.45654535198435187,-10.925191088104247,19.74629887165489,32.994396748094665,-22.173847140420385,0.01666666753590107
170,2836.0,-0.662153045573458,0.1781120030939579,-1.2297013694316148,-0.43290155114438383,-0.49141091366037726,-11.010783212932944,36.37943167056382,39.09136511070655,-27.011499374811166,0.01666666753590107
171,2853.0,-0.4984885604290291,0.003108487409353256,-1.2180267137289047,-0.15637129592895507,-0.7697367835883051,-10.98818793476522,44.125217944100534,45.174683340262156,-19.62518254219764,0.01666666753590107
172,2869.0,0.5983516045313328,0.36044819975420833,-0.008108487653732298,1.0829273749420418,-0.5479739278815686,-9.760561618041992,32.21976450375601,31.157629106684006,-15.788632842002917,0.01666666753590107
173,2886.0,0.29546357680950314,0.6784875097807497,0.6586515402585268,0.830638375003077,-0.2837139196418226,-9.085995300292968,12.006292645703297,3.5444703207174646,-22.938748072739067,0.01666666753590107
174,2902.0,0.08536394209600985,0.6970433032993227,0.5667389802366495,0.602740304476954,-0.2721918241523206,-9.178172064208983,-1.6147551172037449,-21.51379473450328,-33.227169595008704,0.01666666753590107
175,2919.0,-0.1684798495369032,1.034410194934532,-0.1602045904815197,0.26276366873476653,0.08334719544611871,-9.911096462902426,-2.991740677228768,-32.43663325518767,-43.77506829629983,0.01666666753590107
176,2936.0,-0.6221616653162986,0.6900382468428462,-0.24939210945367812,-0.25438392639160157,-0.253935963428393,-10.00357250202596,1.2460088920055064,-24.48587129711158,-46.09379457611409,0.01666666753590107
177,2953.0,-0.3623148338763043,0.11403495998084544,-0.07667465887963772,-0.03366838778071105,-0.8393183424018323,-9.83133962009847,7.2705596403338,-7.348900202566553,-42.90873734725916,0.01666666753590107
178,2969.0,-0.3205680978517979,-0.107769835171476,0.09345335972309111,0.011372530950978397,-1.0767932195685803,-9.65955623550415,7.03720836177443,0.34664912249021923,-42.67775059481309,0.01666666753590107
179,2986.0,-0.2484226068343967,-0.3225972655918449,0.5610480751186608,0.09950911609809845,-1.3012496252082288,-9.190442347717285,3.386451119504869,3.2433166080410243,-43.71968229232019,0.01666666753590107
180,3003.0,0.08468206077907234,-0.2525757079258561,0.3437754435032606,0.46312845670171077,-1.233314080036059,-9.406368825420737,2.295050282830066,5.573421556125711,-42.05576283314046,0.01666666753590107
181,3019.0,0.08860851350780576,-0.28954591373093425,-0.044078795701265334,0.4774936666626483,-1.2838915901068597,-9.792433843120932,12.705421417635693,-6.928023092136721,-38.412358929842654,0.01666666753590107
182,3036.0,0.7812216158073395,-0.2308876807961613,-1.1758125428557396,1.1510125577179715,-1.2586028350714593,-10.921449563488364,15.958562825910958,-16.270241433211563,-37.009991319644804,0.01666666753590107
183,3052.0,-0.05076013662870973,-1.1890051288407295,-0.2797130134373903,0.27757790110483765,-2.2508498586677015,-10.02317561264038,11.945715697954453,-22.836392565384546,-40.47890096512171,0.01666666753590107
184,3069.0,0.15934857644038275,-1.6067831624701618,0.11758125428557395,0.43948578837290403,-2.701109408380836,-9.623792263683676,12.339041532819746,-11.997836017737175,-38.70696206421823,0.01666666753590107
185,3086.0,0.6900123817492276,-1.3908660371169448,-0.5759469535648822,0.9639656260835007,-2.525584499170631,-10.312874013519286,21.464590051722507,-1.9298575702692322,-32.67314904576687,0.01666666753590107
186,3103.0,0.6550513238094746,-1.3410782161191106,-0.47351299952864645,0.9415199855195358,-2.557607019440457,-10.200196897888183,26.21747451587155,-0.7333752337091346,-30.289976516038948,0.01666666753590107
187,3119.0,0.43550625375006347,-1.5498746958121656,-0.13608078757226466,0.7182606807099655,-2.8290495595954357,-9.854833308410644,24.45683957804444,-10.004693756600012,-19.711681765393973,0.01666666753590107
188,3135.0,0.7686759494237602,-1.8681660078383981,-0.3637847968310117,1.0182841127809137,-3.21571312771067,-10.07420145100057,30.77167219215951,-20.42333112784865,-11.280962414341085,0.01666666753590107
189,3153.0,1.1263837644286454,-1.1344592265956104,-0.8992325667470693,1.3217491001404822,-2.5692786794684825,-10.598382561492919,38.66263755159943,-24.28525839590455,-8.774989913525502,0.01666666753590107
190,3169.0,0.9397029626928269,-0.34432445568814873,-0.8169406525075436,1.0595840183533727,-1.919103291132301,-10.49558152770996,41.470132168419816,-20.35085428301835,-6.091015425863393,0.01666666753590107
191,3186.0,0.6372598657269031,-0.29562969062402844,0.4329132781147957,0.7170635890130419,-1.9686333379767833,-9.229647399902344,35.775000910152706,-14.260950043555553,-2.945324205733242,0.01666666753590107
192,3202.0,0.4733122893247753,-0.2831165382705629,0.5204372477889061,0.5216368556699017,-2.0407586629889902,-9.127295278930664,31.130943557596765,-11.176369166259741,-0.10148716619542782,0.01666666753590107
193,3219.0,0.35205431928783654,0.14856865935400126,0.6246475638478994,0.37274745819524396,-1.7012309400580823,-9.005939182281494,23.794973756902696,-6.106505014240512,2.3570073556780744,0.01666666753590107
194,3236.0,0.21969039681423455,0.12349617741778492,0.7021651032924652,0.22475586978930223,-1.7785935812018812,-8.91825154647827,17.45966252810863,-5.0830011671141015,4.690156006811648,0.01666666753590107
195,3253.0,0.09692964839837513,0.1479093186624348,0.8105453985124826,0.08155267214558552,-1.7972982816718517,-8.801234355816245,9.232947267185686,-6.386564968325838,6.722946235420265,0.01666666753590107
196,3269.0,0.0746414405855583,0.20614465001001953,0.3337619990110397,0.030226974055985917,-1.7637794584296642,-9.272892667388916,10.549215220253647,-13.207847571660892,7.413424145882018,0.01666666753590107
197,3286.0,0.11812914309245534,0.3826810743503272,-0.026541969966888426,0.03142407031948678,-1.613992217066139,-9.627383566173911,10.469594851325162,-16.917319894800233,7.488024325770543,0.01666666753590107
198,3302.0,0.1384922143618576,0.3762964878797531,0.23194822269976137,0.002244737586332485,-1.6437701002143323,-9.363423417663574,7.240668171204884,-17.135284891593678,6.022967531823025,0.01666666753590107
199,3319.0,-0.167513196461834,0.12521452564299107,0.43513972199261186,-0.35868117181537673,-1.911023006659746,-9.155875476726889,3.244223102209932,-18.27598795468834,3.816671715275867,0.01666666753590107
200,3336.0,-0.12219358865292743,-0.5466342037104069,0.890568198776245,-0.3627213688505813,-2.5828957014106213,-8.699331147655844,-1.441673534602273,-18.833105994718768,3.186321027294795,0.01666666753590107
201,3352.0,0.2263148929879069,-0.33565701897740363,0.21642916652858257,-0.06404473001239822,-2.366220451166481,-9.373298914989828,-1.458092669036749,-20.406631315327967,2.2726568673059444,0.01666666753590107
202,3369.0,-0.028678434006310996,-0.3375776117764413,-0.33992695138156415,-0.3969883801115677,-2.36681900158152,-9.92725790863037,0.9924996974930188,-24.514687865219862,0.4067394993019783,0.01666666753590107
203,3386.0,0.0609010799581185,-0.26344766894355415,-0.22339316032230852,-0.35598771321400996,-2.2933469381354747,-9.808595288848876,-0.6598135627395684,-13.088875921603025,-0.8593585531976958,0.01666666753590107
204,3402.0,-0.0161069390617311,-0.25388050691410896,-0.12984043187797067,-0.4737525073729455,-2.286164333155006,-9.712677584838866,0.5008459790885462,-17.110916484182365,-2.404799469961123,0.01666666753590107
205,3419.0,-0.28517876802999526,-0.38058454046249385,0.05567980164587497,-0.7767686549864709,-2.409316081049293,-9.526228546032309,-2.3547749510365383,-7.725384498485887,-6.5331041156475225,0.01666666753590107
206,3436.0,-0.18996950455028563,-0.35296924217566844,-0.06569032352864741,-0.6953657985411584,-2.376246170618385,-9.648034140014648,-2.464867355173389,-6.21835875340958,-8.474324132487894,0.01666666753590107
207,3452.0,0.04300232557617128,-0.39666093825548887,-0.15845453194379805,-0.4725554065428674,-2.4159001356147227,-9.741108729553222,-1.7110979236545365,-5.636647336612049,-9.092200120280173,0.01666666753590107
208,3469.0,-0.06649849810637533,-0.48161827231198545,-0.23691607424020766,-0.5891230633391067,-2.4999963227972386,-9.81936861179769,-0.3356259442217591,-3.09020041543544,-12.390230385554407,0.01666666753590107
209,3486.0,-0.09859879632014781,-0.05001227740347385,-0.19665712908804414,-0.6220433361662552,-2.070985458948463,-9.778518130493163,0.7864596240210323,-4.166250188507228,-14.099383626286194,0.01666666753590107
210,3503.0,0.10863244335018098,0.2556020700097084,0.005963876840472221,-0.4282626392973587,-1.7717102514289318,-9.573813304027915,0.2983306300738301,-5.57656387003074,-11.622412108686484,0.01666666753590107
211,3519.0,0.05830613156147301,0.43684652591049666,-0.13602116633951664,-0.48317967640981074,-1.59409041576609,-9.714772511291503,1.2193208883190334,-4.538162526550885,-10.92149041209696,0.01666666753590107
212,3536.0,-0.2174022128118202,-0.28702494388595223,-0.29572306799590586,-0.7713817012511194,-2.3295592382453383,-9.871293444824218,4.454642119606323,-10.927974822940241,-12.190999743880658,0.01666666753590107
213,3552.0,-0.36289562943894416,-0.4948410342395305,-0.2562894677519798,-0.9379283177031204,-2.5535667310737074,-9.827149767193198,5.498877725297838,-8.660407513783014,-13.899843918552502,0.01666666753590107
214,3569.0,-0.5867636407313868,-0.3184089470565319,-0.2564922968477011,-1.1700162046018987,-2.3992903615973886,-9.822062673187256,5.407935037159588,-4.614846341023088,-18.961026900136645,0.01666666753590107
215,3586.0,-0.3245462442351505,-0.10639160562083125,-0.10595511389970778,-0.9044094579283147,-2.2019182161077855,-9.668533907207847,4.824606573076057,-2.3334897337052514,-20.3244897528221,0.01666666753590107
216,3603.0,-0.03300400558784604,-0.1666051051735878,0.11121990256011485,-0.60094439750351,-2.2794304948553443,-9.44826735447347,2.932333612818701,0.38541780982774054,-20.11420188865575,0.01666666753590107
217,3619.0,0.03869425311870873,-0.18266820509359238,0.07989362092614173,-0.519990490402095,-2.3069639600776135,-9.477596909332275,4.3993295401602674,-2.130391710857395,-19.846729973210756,0.01666666753590107
218,3636.0,-0.09916771878190338,-0.13642828583568334,-0.12315291693806647,-0.6515219075743108,-2.281076654627174,-9.676465284729003,8.619865218417111,-2.781784931010807,-21.54184119878264,0.01666666753590107
219,3652.0,-0.11484295189548283,0.1345262516066432,0.028251696494221684,-0.6628943289274349,-2.030583159802854,-9.520691954693199,5.638234928707255,-4.487508563005601,-20.129562984099106,0.01666666753590107
220,3668.0,0.023824746897444127,0.3468348310738802,0.2300438503831625,-0.5367498654905707,-1.8357551458381116,-9.314192061504722,0.2128211439769133,-8.209718335173369,-16.50034709125471,0.01666666753590107
221,3686.0,0.18539646101370452,0.10536927683576941,0.3979799118995666,-0.3878604132169857,-2.0730803854011,-9.146448892211913,-4.547768333844862,-8.814927737149858,-13.619686634271504,0.01666666753590107
222,3702.0,0.03841083306744694,-0.15281813349202275,0.3175987997174263,-0.5518632269376889,-2.3189348222479222,-9.228599352154134,-6.694480995167414,-10.852943487360358,-13.375427970494448,0.01666666753590107
223,3719.0,-0.0011472703389823436,-0.2929455661065876,-0.13555354882776735,-0.6160577954832465,-2.4431341794990002,-9.683797527313232,-3.1420377092544287,-10.839203708071231,-12.651485975081041,0.01666666753590107
224,3736.0,-0.10713497133404015,-0.27640798054262994,-0.44841830576062197,-0.7451949744626879,-2.426374914008379,-9.995192796215415,0.6927254695855095,-13.435874290875415,-12.963915049416704,0.01666666753590107
225,3752.0,0.026663185193762182,-0.06826514245271682,-0.399497330725193,-0.6377552480284124,-2.225561103632301,-9.942820219421385,3.6762003372580923,-12.90519420557481,-12.164023911753693,0.01666666753590107
226,3769.0,0.14170534945577382,0.16198475189656017,-0.3460848894894123,-0.5511150023862719,-2.014123169519752,-9.883114815521239,4.84929599937836,-9.039956003318744,-9.86006023205676,0.01666666753590107
227,3786.0,0.007009440370649099,-0.028754969841241835,-0.04670154542028904,-0.6997052159849554,-2.2162835721991954,-9.580098667907714,3.223929542968766,-6.774849696696839,-8.89080686996047,0.01666666753590107
228,3802.0,-0.0358884019177407,-0.20676117447316644,-0.08769991076290606,-0.7534250426694751,-2.4076699212774635,-9.617208209118246,7.3014747840645695,-5.115040730736985,-10.641394599518492,0.01666666753590107
229,3819.0,-0.19178426235467194,0.013234890756756067,-0.28853754040598867,-0.9029130818907171,-2.221969947272539,-9.810540577697754,10.54018314884995,2.020473263100968,-11.596624729475101,0.01666666753590107
230,3835.0,-0.02721899244561791,0.2735575595475733,0.168626381868124,-0.724245783001557,-1.9868892717659472,-9.348459072765708,7.967032322452707,3.9040217239106907,-10.069348327283352,0.01666666753590107
231,3852.0,-0.007666589105129242,0.2801370840683579,0.201329212552309,-0.6875844970151782,-2.000206872370094,-9.312246772655843,7.337012258316146,4.6335239201953105,-10.000581982719664,0.01666666753590107
232,3869.0,-0.29854565113596615,0.12180237911194562,-0.08362170153856277,-0.9484028403684497,-2.192191917993873,-9.591171266064046,11.423559688738026,11.746814612908159,-10.659813912162724,0.01666666753590107
233,3886.0,-0.12121164667718112,0.5008738846629858,-0.429803621661663,-0.7261909987851977,-1.845631227686256,-9.932345002636312,13.165335620493087,17.56981298885343,-9.174508168647057,0.01666666753590107
234,3903.0,0.21724468416254966,0.4497860869824886,-0.41508009978234767,-0.3308484496518969,-1.938556033490598,-9.910647550091147,11.048361175929946,12.250321644369512,-5.4419882259271555,0.01666666753590107
235,3919.0,0.39305743387080727,0.04606631625667214,-0.5533487527877092,-0.12539605622235686,-2.372505230524391,-10.04292719181478,13.059623075161507,9.885710153711099,-3.2582706668985324,0.01666666753590107
236,3936.0,0.43966213132049886,-0.40222646342813967,-0.639525399506092,-0.05297145600263029,-2.855236286383867,-10.121637155914305,14.305014155212245,9.042328640281678,-0.8779601998762553,0.01666666753590107
237,3952.0,0.39514684389811006,-0.25577245814055205,-0.5047030875623226,-0.08484419253822416,-2.742858153699338,-9.97858302219808,12.283926175085975,0.75803589851173,0.9024502700321592,0.01666666753590107
238,3969.0,0.346488538386859,-0.300431976339221,0.03736380823254585,-0.1369181517118588,-2.8250094904243945,-9.426420264324545,10.141089219230581,0.2721858131893584,3.3858801583789386,0.01666666753590107
239,3986.0,0.0674218600289896,-0.599722381427884,0.15828443607389925,-0.4109045676633715,-3.146430771039426,-9.299826851543784,8.065894188046764,5.327254708249281,4.564270924653259,0.01666666753590107
240,4003.0,0.31140531537216154,-0.36360330278426406,0.031987960413098336,-0.15382716440409422,-2.933197477942705,-9.420584982299804,7.687446212741051,5.181521523249658,8.690849666913762,0.01666666753590107
241,4019.0,0.530594192405045,-0.2396206570237875,0.0018254618614912033,0.0685343147829175,-2.8254584032356735,-9.446472287750243,5.951802937087016,3.631194940156409,15.889104924693806,0.01666666753590107
242,4036.0,0.11052991100195794,-0.038087446331977845,0.3537193298906088,-0.3580824935361743,-2.6316774141058326,-9.092130442047118,2.171225569923493,-0.7163361528857741,12.96692887038797,0.01666666753590107
243,4053.0,-0.07496580913513898,0.12443214309364556,0.17179449051022527,-0.5578487310880795,-2.4718644532904026,-9.272592807659507,0.9165872675102046,-4.643459711003564,10.483757248569184,0.01666666753590107
244,4069.0,0.0030898192415013907,0.3020794512853026,-0.08422960430383682,-0.5032310057157651,-2.2984344705328343,-9.5262291305542,1.8384628089852915,-3.4212259604469315,10.098751437886612,0.01666666753590107
245,4086.0,-0.020303587033972142,0.166009769628942,-0.20839432863295076,-0.5354030905241146,-2.4413386743843555,-9.648033555492757,2.3824540792046034,-0.26212270338610827,8.750928010853192,0.01666666753590107
246,4103.0,-0.1513981106262654,0.2178884254261851,0.05748129810988903,-0.6661863927427679,-2.394502104407549,-9.380780795177817,0.22766765403542025,0.931189144738634,7.04596252985627,0.01666666753590107
247,4119.0,-0.13681644490305334,0.3190104200810194,0.12700140905976295,-0.6540656737729906,-2.290952590344846,-9.311797859844566,-1.648797420357323,0.32083076730373306,6.167758150717187,0.01666666753590107
248,4136.0,-0.19812617872729896,0.3336661374211311,-0.0008744447469711303,-0.7191580679411068,-2.2688065172493457,-9.441533662304282,-2.5716498923271334,-0.5416532644499047,4.758223964532703,0.01666666753590107
249,4152.0,-0.09012355771325528,0.4026832672849297,-0.17117197469770906,-0.6186015982145443,-2.1923414094671605,-9.613467269024252,-1.80529135495089,-2.904380423310189,4.843261954133477,0.01666666753590107
250,4169.0,-0.1255752121815458,0.2313786061182618,-0.2525724930554628,-0.6687302320066839,-2.355147122357786,-9.696367086029053,-1.2343677950605716,-2.8634780489089793,4.4829818551331755,0.01666666753590107
251,4186.0,-0.2751822746725753,0.03642126668542623,-0.02456979311108589,-0.8358754354063421,-2.539949563001096,-9.470115029144287,-4.388450756359729,-7.963530142955783,1.2687178836136235,0.01666666753590107
252,4203.0,-0.13060611902084202,0.04412760327905416,-0.2621276723861694,-0.7206544805113225,-2.51496037543416,-9.71058265838623,-3.0835053359449467,-6.656780912269882,0.7729155189794558,0.01666666753590107
253,4219.0,-0.13600837992317974,-0.041566812880337235,-0.3008843962818384,-0.7371145803922787,-2.5953154763922095,-9.750086401256919,0.29160220005028,-1.079193581080698,0.6490790666852471,0.01666666753590107
254,4236.0,-0.10168733692001551,0.05561638102084398,-0.2389578092008829,-0.7020993811124935,-2.4950582818731664,-9.689034258922934,1.424810117706629,0.6632282304377516,-0.2791937473603502,0.01666666753590107
255,4252.0,0.02001753663420677,0.07975362793356179,-0.15811258663833141,-0.5787979956144467,-2.4733611215889453,-9.60763140247762,2.0014253596096836,0.756223337060738,0.5795502488946032,0.01666666753590107
256,4269.0,0.2408312383899465,0.09211597363948822,-0.14934417377114295,-0.3604767682615667,-2.467824530249834,-9.596858079528808,2.209250727136835,-0.1516658713044405,1.6763318338923485,0.01666666753590107
257,4286.0,0.16598244323059916,0.034112405221164224,0.10336042123138904,-0.4384379598204046,-2.52797884696126,-9.343371978759764,0.49719935176284696,-0.14800374265097654,1.9207928420235674,0.01666666753590107
258,4303.0,0.05641268249768763,-0.03750672383457422,0.24788696558773515,-0.5563523915830999,-2.592173378974199,-9.20031842956543,-5.262413161137411,-5.375582992382176,0.3223162000460786,0.01666666753590107
259,4319.0,0.10701346384622155,-0.024990064349770545,0.2002665517568588,-0.5232824080869555,-2.5632933214485645,-9.251195214843749,-6.362526971315624,-6.530886011714561,1.6140656949843966,0.01666666753590107
260,4336.0,0.17186039535328745,-0.017252455835044384,-0.4894967506021261,-0.4698617835447192,-2.542942607337236,-9.943568407440186,-1.832466970111078,-2.8110796123609916,2.979611755366706,0.01666666753590107
261,4353.0,0.09853782338052987,0.0887964738279581,-0.5148492185235023,-0.5463265990659594,-2.4396923684820533,-9.967958752331137,2.9804751339664777,-0.1329147608769341,3.291693557271755,0.01666666753590107
262,4369.0,0.06601999387443065,0.0980856956988573,-0.24258126039505004,-0.5822396970335394,-2.435951428388059,-9.693972884368895,1.5098486409159322,-2.0586858236296623,2.6978461749795817,0.01666666753590107
263,4386.0,0.08931531007029116,0.1398304954946041,-0.022311200529336928,-0.5695205007139593,-2.397045943671465,-9.472209371075033,0.9157324266468951,-5.821457314513785,3.242600291951819,0.01666666753590107
264,4403.0,0.11517748107947408,0.08963175560832023,-0.09309329423904418,-0.5698197759214788,-2.4509151887640357,-9.540144843181967,1.1735763366831078,-8.389420612236405,3.109313632610663,0.01666666753590107
265,4419.0,0.08832556838057935,-0.0016103578060865402,0.06391454602777957,-0.6187512723509222,-2.542643039868772,-9.381379345592856,-0.06093675997988524,-8.160785152412105,3.1548379106458557,0.01666666753590107
266,4436.0,0.055145256377756594,-0.14189999524503946,0.26029285817444325,-0.6687302320066839,-2.679112534497678,-9.184755534252524,-1.6911107624306694,-5.097059830860103,3.2701135745890997,0.01666666753590107
267,4452.0,0.08273702765852213,-0.1826952392309904,0.3581102583259344,-0.6536166878964752,-2.7075436792120335,-9.089286743053794,-4.834343434624733,-1.6651158095015413,4.254532517963759,0.01666666753590107
268,4469.0,0.1024413336250931,-0.17463234428465366,0.364593775126338,-0.6401494496885687,-2.682853766852617,-9.086742903789878,-7.650551238391935,-1.434304400818064,4.900498512491361,0.01666666753590107
269,4486.0,0.008966273526847361,-0.08983487696498632,0.18213351369500158,-0.7395087455198168,-2.574964762280881,-9.274837371715902,-9.432243649430196,-1.6333399552136438,4.92068599035698,0.01666666753590107
270,4503.0,0.002018865541741252,0.056446694365143775,-0.3390262031495571,-0.756118592602387,-2.3986919573128223,-9.803058697509766,-7.604455145457165,-1.788025490502744,5.874512516439152,0.01666666753590107
271,4519.0,0.06227415840961039,0.08468713881298899,-0.6239554899305105,-0.7009022437497973,-2.357391978675127,-10.090960862621664,-2.4282165600871,0.7716568431814693,4.486749131347261,0.01666666753590107
272,4536.0,-0.23330606704950332,0.09575944470837712,-0.6812555862545967,-0.9959876714292913,-2.3452711866401135,-10.148571340069175,0.8063734674330276,0.3832725434589747,2.362588047116798,0.01666666753590107
273,4552.0,-0.33082638395056124,0.09641279405057429,-0.5288894343137741,-1.0956463155332952,-2.3496106771491467,-9.994743883404135,2.995627054866505,-1.6120186659458027,-0.7924406285781421,0.01666666753590107
274,4569.0,-0.3942891676228493,0.07172229716926813,-0.7144236963629722,-1.16268396201767,-2.3933050035774706,-10.175057780456543,7.764028855036173,-1.3918767597978259,-3.725689753549889,0.01666666753590107
275,4586.0,-0.19168160569779574,0.06638327422887086,-0.5374450812131166,-0.9588775456968694,-2.4220354234993455,-9.992050991058349,10.359564772664488,0.5016016221263317,-3.828305234979691,0.01666666753590107
276,4603.0,-0.2369203120239079,0.004460486540198326,-0.13823650430142878,-0.9943416577879339,-2.519748778754473,-9.58413829868734,10.631797329960978,2.9103747680805214,-5.014445704641037,0.01666666753590107
277,4619.0,-0.17968137130253015,0.0011713818669319151,0.049534723019599915,-0.925358722454682,-2.548329561072588,-9.390507239422202,9.564017635313606,4.025244775073723,-4.394850643612031,0.01666666753590107
278,4636.0,-0.002141469008103013,-0.06055822133719921,0.1302495972007513,-0.7380124425474553,-2.631976981574297,-9.304615839385987,8.025046241715502,2.177121944167918,-4.202249127414603,0.01666666753590107
279,4653.0,0.06432838752567768,-0.07520517084896564,0.2091425166517496,-0.6631936406675726,-2.6690868150457736,-9.220219646343589,5.305884326996781,1.631116515195393,-3.5255827132282636,0.01666666753590107
280,4669.0,0.05759535294361412,-0.08706921164393425,0.28481413596868516,-0.6642411038938909,-2.6913831102669237,-9.14210940170288,2.797278361369335,1.2834467596719328,-3.1468803133759677,0.01666666753590107
281,4686.0,0.11952500876449047,-0.11493863082230091,0.43189562550485133,-0.5976523702207952,-2.7222084566414355,-8.994566724395751,-0.5444878463163129,1.5965876677851571,-2.3911279925636966,0.01666666753590107
282,4703.0,0.18224091959223152,-0.09284253434836864,0.3159042707592249,-0.525676682812348,-2.6924302812322973,-9.113378981781006,-3.682137906080949,3.1616241304730868,-1.0984681614750627,0.01666666753590107
283,4719.0,0.25070019637756047,0.02943272297233343,0.04657470417022705,-0.4502593305174261,-2.5616470155462623,-9.385569783020019,-2.6060121471546442,2.3907111375809142,1.0403744143763423,0.01666666753590107
284,4736.0,0.1650604330148548,0.03863718916922807,-0.5296732781678438,-0.5270234212461858,-2.5537165148079395,-9.962122885784506,3.52500043960152,5.9574783974004735,0.4619512000556441,0.01666666753590107
285,4753.0,-0.045074163414165376,0.14956687661111354,-0.1834527796000242,-0.713322237927094,-2.4583973612129686,-9.613317631420493,4.2650215540947825,7.627417387673102,1.0647137934836826,0.01666666753590107
286,4769.0,-0.1453764391839504,-0.039732875451445576,-0.03180442053973675,-0.7959221952024846,-2.655170517896116,-9.46083749771118,1.2449553353260319,7.140862031958074,0.2700070362049773,0.01666666753590107
287,4786.0,-0.08581519299484788,-0.09203414057493209,0.02948328411579132,-0.7193077420774847,-2.709189692853391,-9.400234268188475,-0.6360262016553825,6.466728764180162,0.2990597794481554,0.01666666753590107
288,4803.0,-0.06103606798201799,0.05651654473096132,-0.009909984117746353,-0.6792048642698675,-2.555811148999631,-9.441982575115562,-1.5268187795173578,1.720338102384506,-0.4555512060816364,0.01666666753590107
289,4820.0,-0.1482359933335334,0.10429302590638398,-0.1574462316840887,-0.7658450368467717,-2.505982119208574,-9.590123802837729,0.457404535224237,-1.1923932944030813,-2.059626895631243,0.01666666753590107
290,4836.0,-0.07095072827488183,0.08292085979282855,-0.35350071870386596,-0.688931235449016,-2.5300737734138963,-9.785400875744223,2.1779991965894414,0.0003882002047800216,-2.582190795207167,0.01666666753590107
291,4853.0,-0.002479980247467756,-0.06018529637157917,-0.20457330904006957,-0.616955621105805,-2.681955648969114,-9.63426689594686,2.3190680027161807,1.8668665775356126,-1.857909211325964,0.01666666753590107
292,4869.0,0.027384558270871637,-0.08437748834192753,-0.3032721682012081,-0.5814914724821224,-2.713678820966184,-9.731232063183187,3.3688727739021953,1.990779869457984,-1.0603415119195225,0.01666666753590107
293,4886.0,0.08636873522438109,-0.0622033581957221,-0.3935556657165289,-0.5175962522093206,-2.7024560006842018,-9.818770645904541,5.668433329461997,1.8196832038623414,-0.5379567980876055,0.01666666753590107
294,4903.0,0.09100103466752917,-0.028220424573123452,-0.3806710497021675,-0.5057748449796811,-2.6907845598518847,-9.80006594543457,8.158927340957861,2.6048055515490796,-0.28836247590829894,0.01666666753590107
295,4919.0,0.026614304550737142,-0.025434008724987505,-0.1923684919834137,-0.5639838728422298,-2.7070950586616993,-9.606733576855063,7.455755950810464,2.6225444065972487,-0.38725283619779965,0.01666666753590107
296,4936.0,-0.07339271459951996,-0.06707447136342524,0.22210253598988056,-0.6560110356871038,-2.7636577806219456,-9.188496474346518,4.734411790651923,3.650764712788965,-0.9447933874614185,0.01666666753590107
297,4952.0,-0.030051366327330468,-0.05767009868025779,0.3558440669596195,-0.6016925489896908,-2.761413508826494,-9.05337371815145,1.1022700155218208,4.259154848484565,-0.9448796185996899,0.01666666753590107
298,4969.0,0.07441296102534979,-0.0065288172468543045,0.3748638247281313,-0.4851248921934515,-2.70649650824666,-9.036165393719077,-3.0338515682262464,2.3475774257552255,0.13048078561360305,0.01666666753590107
299,4986.0,0.1732110062446445,0.05173720149993896,0.3396539796590805,-0.3836705968443304,-2.6369147302374243,-9.074771895489096,-5.60974877100007,0.29321041611512705,1.0953855050035655,0.01666666753590107
300,5003.0,0.10612148344255984,0.016997896552085875,0.34195231972932816,-0.4522046193663031,-2.6469404496893287,-9.079411245727538,-9.032983233949809,-0.3910340929553422,1.864605571476927,0.01666666753590107
301,5019.0,0.14014997323993592,0.08669570215642451,0.25701135228574273,-0.42182818580307063,-2.55341723960042,-9.170839237102866,-9.717858254858035,-0.7767576604701466,2.5741764219898036,0.01666666753590107
302,5036.0,0.006314553441666066,-0.022219430592656134,-0.3263385710120201,-0.5593451071256771,-2.6424513215765355,-9.759514154815673,-6.8183375111423095,-0.5824234106576512,2.494437165081078,0.01666666753590107
303,5052.0,0.04332421447429806,-0.064963762819767,-0.5350695842534303,-0.5265744719022885,-2.673426305554807,-9.97125136413574,-2.903923654409444,-1.8129208896972058,2.7289440262706495,0.01666666753590107
304,5069.0,0.32405254243407394,0.0002294248417019844,-0.6477882009387016,-0.2584239224974066,-2.6066879342779514,-10.083628620037436,1.6388004780116574,-3.3171018609842027,4.406268585470177,0.01666666753590107
305,5086.0,-0.09471742484215646,-0.0314577990591526,-0.2923649897396564,-0.6847414556089788,-2.6430501642525193,-9.726443659862875,1.9710453185117016,-0.606851048615673,3.3396030654311635,0.01666666753590107
306,5102.0,-0.13772939502950757,-0.0692161595672369,-0.10486030440032482,-0.7258917601102962,-2.6865947069466114,-9.53745195083618,1.9252693906942762,2.329720109613639,0.562406527438724,0.01666666753590107
307,5119.0,-0.10526362450420856,0.01030833578556776,-0.19576748677194117,-0.688482395702973,-2.612224817878008,-9.627233928570151,2.380804801963457,1.7124680169133588,1.7548589456668082,0.01666666753590107
308,5136.0,0.07803096885941922,-0.0612055793300271,-0.15606734454631804,-0.5033806433195248,-2.6898861497074362,-9.585933949932455,3.001425672028434,1.1017180508595192,2.0975286825527015,0.01666666753590107
309,5153.0,-0.03483757769055664,0.01679302162975073,0.10872808574438095,-0.6126161305967718,-2.6188085801824927,-9.319429962158203,1.352225910840315,1.239942723527183,1.746003925573004,0.01666666753590107
310,5169.0,-0.051023098413832485,-0.011790098775923252,0.22067454901337621,-0.6260835149351507,-2.6473896547615525,-9.207650087627767,-1.1443868829348236,1.8314868379651814,0.9995161160396202,0.01666666753590107
311,5186.0,0.0003705138128250837,-0.024447628036141394,0.30702129160165786,-0.5726628903929144,-2.6545722597420216,-9.12295578842163,-3.3255849559333583,0.7811632925673635,1.2728772553747496,0.01666666753590107
312,5202.0,0.11729370604846626,-0.030736499047279355,0.36019349434077735,-0.45624483466781673,-2.6487361009344457,-9.073125881847739,-6.0820089676690845,-0.04380146953876286,2.305176892048256,0.01666666753590107
313,5219.0,0.10450100610125809,-0.042348610907793044,0.19513971026241778,-0.4737524343077093,-2.6360171968758106,-9.24461116027832,-7.785181097122056,-1.5179684551786081,3.4014647290742035,0.01666666753590107
314,5236.0,0.0401954514618963,0.004236614656448364,-0.12572948942780493,-0.5457281217161566,-2.5709248392403126,-9.57007294845581,-7.155114502321775,-2.506070257898079,2.949566606981466,0.01666666753590107
315,5253.0,-0.02098561448138207,-0.05910393087565899,-0.3571592412114143,-0.6160577954832465,-2.6159657579720017,-9.805901811981201,-3.100304186208593,0.22158969280860805,1.0208387926896363,0.01666666753590107
316,5269.0,-0.10179273352324962,-0.04510141674727201,-0.5895072768837213,-0.6920736981932073,-2.5990564164862033,-10.039335889324546,-0.09569643309951316,3.325837246045826,0.44967409510510487,0.01666666753590107
317,5286.0,-0.014638473944365977,-0.16749328618496656,-0.4849912558764219,-0.5979516454283148,-2.724453020697832,-9.93444051361084,1.6025152047676705,2.290757295493301,0.9178289745569718,0.01666666753590107
318,5303.0,-0.019221162092126903,-0.17243015806525944,-0.515896097227931,-0.5981012830320745,-2.738967868262529,-9.963020711407065,4.361334905354779,1.1720117964763517,1.3079383239317177,0.01666666753590107
319,5319.0,-0.09672423461992292,-0.12217004338055848,-0.44781858630180355,-0.671872621685639,-2.7011095545113086,-9.891793212017417,5.521933455728039,2.1275240986230473,0.36828956301919974,0.01666666753590107
320,5336.0,-0.24157197375465184,-0.025348376268148422,-0.12027940732836723,-0.8108859555784612,-2.6182103220283985,-9.560794832500815,5.619024594779771,2.004614417621845,-1.2107026836903583,0.01666666753590107
321,5353.0,-0.11342789746578782,-0.021036066026985645,0.10704290913641452,-0.6751646489683538,-2.6295824876531957,-9.329604734691976,3.67063074487677,1.7175441281271477,-1.9802694889858037,0.01666666753590107
322,5369.0,-0.06607716742176563,-0.014440905545651911,0.1784855125814676,-0.6238389143461361,-2.630629950879514,-9.256282308849691,2.22052651568288,0.30020935898240675,-1.8905788598997812,0.01666666753590107
323,5386.0,0.020650318112410603,0.029349720863997935,0.18205986393690107,-0.5377972921842709,-2.5905273653328416,-9.25164354313314,0.40361668878868084,-1.7125622521795638,-1.7189633133706295,0.01666666753590107
324,5403.0,-0.028823906891606747,-0.0458709398150444,0.26624329101145267,-0.5945099805418401,-2.6628023279488087,-9.16784648502767,-2.446114430476884,-2.8219319291784957,-1.6493186491683596,0.01666666753590107
325,5419.0,-0.017043927650898693,-0.06735504187047481,0.24779402660727498,-0.5891229902738705,-2.676568987494707,-9.188048146057127,-3.956353779557682,-2.876170461377567,-1.625372432825118,0.01666666753590107
326,5436.0,0.09118099434431642,-0.1084381628870964,0.01125730707347393,-0.4878183690611273,-2.707842954419553,-9.426869761657715,-4.022073859751545,-3.0967104394881084,-0.894998640369381,0.01666666753590107
327,5452.0,0.12307181452587246,-0.11945172433257102,-0.08637655320465565,-0.4641756276670843,-2.7096386056646704,-9.526527821239828,-3.5565273121498295,-3.4865067740997975,-0.44353588947537903,0.01666666753590107
328,5469.0,0.10695661909244954,-0.18343173681199548,-0.2026899795114994,-0.4887161946836859,-2.7636577806219456,-9.645040803417563,-2.7011803745116056,-1.677822949565527,-0.03461246386671563,0.01666666753590107
329,5486.0,0.0566649402257055,-0.13735679885745047,-0.3070703914403915,-0.5416879064146429,-2.7139783884346484,-9.750236038860677,-1.3084193186596746,-0.23711866149516095,-0.11127263948108758,0.01666666753590107
330,5502.0,0.04807765607908368,-0.09948387205898761,-0.411265509930253,-0.5490201489988714,-2.676568695233762,-9.854384395599364,0.8582376551218732,0.6608766176508574,-0.2731859022942364,0.01666666753590107
331,5519.0,0.13761793401166797,0.007830839756131172,-0.35672961762249467,-0.4571426602903753,-2.577209326337278,-9.797821381378172,3.065253149491969,0.6183567690768239,0.9818849431925842,0.01666666753590107
332,5536.0,0.20505203246772288,-0.06924100174754858,-0.13408055366575716,-0.3880100508207455,-2.6623531228765844,-9.573065116009115,2.929708899186712,0.5316649132015544,2.408291404174292,0.01666666753590107
333,5552.0,0.13219291328825056,-0.039143969647586346,-0.007483049231767654,-0.4608836003843695,-2.6393089318975806,-9.444526414379476,2.6096415389248597,0.33917393401088985,3.2690230921994248,0.01666666753590107
334,5569.0,-0.036714075619541105,0.005183247856795787,-0.03915536782443523,-0.6346128218168392,-2.6039944574102756,-9.473406471905111,2.4144195779636743,-1.7004365319686756,2.7229125423467053,0.01666666753590107
335,5585.0,-0.3006441577851772,-0.07186170563995838,0.17614450241327284,-0.9026137336179614,-2.6834517327457665,-9.25718013447225,0.005300907146804252,-0.9586762805579983,0.6780669231313101,0.01666666753590107
336,5603.0,-0.23040534063931553,-0.007074760691821575,0.11464052465856074,-0.8336308713499456,-2.6129727136358616,-9.320178150177002,-2.39447990789888,-0.8169405704918308,-1.3789312034431245,0.01666666753590107
337,5619.0,-0.047976241531223054,0.031100071662664413,-0.07152209842205047,-0.6518211827818304,-2.569278825598955,-9.507823705291747,-1.9995660540515592,-1.3265859143046161,-0.9498863607047208,0.01666666753590107
338,5635.0,0.14388130525536835,0.07793196546435356,-0.26698212668001653,-0.4640259535307064,-2.519449211286008,-9.70384838169515,-0.6847010111669494,-2.78843219917711,0.11505789830259691,0.01666666753590107
339,5652.0,0.15397614442072807,0.0416901469990611,-0.2589437816530466,-0.46163171533793207,-2.5556615113958716,-9.695319038280845,0.3991311488142601,-2.7731716355805975,0.8029186723734706,0.01666666753590107
340,5669.0,0.03966638608649373,-0.058737143389880654,-0.166640176486969,-0.5865791144773363,-2.6590613878548144,-9.60149684524536,0.9849919322129996,-1.4191542941870352,0.8549565496384754,0.01666666753590107
341,5686.0,-0.007411153039336204,-0.11270371137708425,-0.2077180368065834,-0.6397005368772893,-2.7172704157173633,-9.641001172637939,1.8468846456753287,-0.3641159439103517,0.6771459148104162,0.01666666753590107
342,5702.0,0.06528758794665336,-0.1452554431527853,-0.13522797013521193,-0.5662284734312445,-2.7557272798836228,-9.566930558776855,2.296957613155792,0.8125740518997827,1.531973331184896,0.01666666753590107
343,5719.0,0.018315262760967014,-0.1329217390194535,-0.07531506096422672,-0.6126161305967718,-2.7476468492805957,-9.50587841644287,2.011420060799528,-0.32115736240385073,1.7600374029964416,0.01666666753590107
344,5736.0,-0.09731222710832953,-0.028878596220910546,0.07045242336392402,-0.7296327367369085,-2.645893278723955,-9.35938261784017,0.8904328189917862,-1.3375079203959954,1.2678984743566335,0.01666666753590107
345,5753.0,-0.24538038959428665,0.03045534401834011,0.05054711493253707,-0.8828616429869085,-2.5869360628426072,-9.378836090850829,-0.6168448426710181,-1.4629298303512932,-0.32900877157648617,0.01666666753590107
346,5769.0,-0.23869229013249277,0.05421878918260336,-0.004119710278511047,-0.8789710652891546,-2.561048757392168,-9.433902729034424,-1.176704349879562,-1.2791804527616137,-1.3737700350298279,0.01666666753590107
347,5786.0,-0.023085180576518177,0.12318974181711673,-0.2053290958434343,-0.6640914662901312,-2.4911677041754126,-9.635314943695068,-0.46912375245780374,-0.8358515500345978,-1.3831848104704556,0.01666666753590107
348,5803.0,0.13391981014609336,0.14824381131380795,-0.2564823599755764,-0.5071215468809008,-2.4687220636114477,-9.68574223164022,1.344642479870897,0.17128701709811697,-0.40327549949529756,0.01666666753590107
349,5819.0,0.18367497098334132,0.14365502221882342,-0.18941957904994486,-0.45789084830917415,-2.4774010446295143,-9.617507484325767,1.6980808637569615,-0.22277206258696072,0.9127231947089757,0.01666666753590107
350,5836.0,0.19600012648403645,0.062327861358225344,-0.012953589597344398,-0.44996005530990657,-2.5617969454109666,-9.439887648662925,1.0878816884266602,-0.4301627526064643,2.2699647055559016,0.01666666753590107
351,5853.0,0.052358182942494745,-0.027613398590683937,0.0552951862424612,-0.5989990355893969,-2.6514295778021215,-9.371353626140952,-0.347756013342158,-0.2989148246912778,3.1608471964549976,0.01666666753590107
352,5869.0,-0.004159311636537313,-0.0749085259899497,0.06623685149550437,-0.6585548018857836,-2.6946748452886937,-9.361327906689047,-1.6613402089944052,-0.4165654734749821,3.0332671601653876,0.01666666753590107
353,5886.0,-0.10874299105256795,-0.11415741731673479,-0.013394903624057769,-0.7649472112242132,-2.726547654889524,-9.442880400738119,-2.1839231050339585,-0.7116551254267882,2.184680188814772,0.01666666753590107
354,5903.0,-0.12663710579201579,-0.041917818275094026,-0.21926234412789344,-0.7861957509580999,-2.6473893625006077,-9.650427757152915,-0.525659842899791,-1.7849527591498844,1.054103948381714,0.01666666753590107
355,5919.0,-0.11730134136565029,-0.020830022060871124,-0.27688801914453504,-0.7802102468077093,-2.626590027838945,-9.707738959392906,0.983786083659375,-1.3000646099225739,0.0643341387617319,0.01666666753590107
356,5936.0,-0.17820136187784372,-0.021074352210760115,-0.18939444460868834,-0.841711301952973,-2.630629950879514,-9.619153497967124,1.7945626218686808,-0.2777764297467197,-0.8889668896411721,0.01666666753590107
357,5953.0,-0.03771422910541296,-0.0012242810979485512,-0.20546353587806224,-0.7009021706845611,-2.619706405805051,-9.632770519909261,2.559027916184361,0.03226525335018488,-1.344285922651881,0.01666666753590107
358,5969.0,-0.015957228392735123,-0.023659692528843878,-0.18367840504944324,-0.6771098647519945,-2.64933435908854,-9.60912777851522,2.9314181540265074,1.1523805521412658,-1.468655022979645,0.01666666753590107
359,5986.0,0.04687997072711587,-0.02517681909352541,-0.1657458579957485,-0.609922653729096,-2.6584628374397754,-9.58937561481893,3.407477216534519,2.2802949397887224,-1.9730952290363517,0.01666666753590107
360,6002.0,0.1292105364765972,-0.00471738391071558,-0.1806733780145645,-0.5205890773497521,-2.647090379554033,-9.60224503326416,3.935615190803408,2.7213253771383235,-1.3184461430829593,0.01666666753590107
361,6019.0,0.3360686685182154,-0.035732407638430594,-0.046290626531839366,-0.307953969341889,-2.6885399957954883,-9.465326041302085,2.5020366043063635,1.6521349282622264,1.5914502983122498,0.01666666753590107
362,6036.0,0.2416338965423405,-0.08568097215592861,0.08798983362019061,-0.40162710929550227,-2.741661345130205,-9.330203869628905,0.8264529429323958,0.6751652666728183,3.1206942218717852,0.01666666753590107
363,6052.0,-0.017304989739879966,-0.07143880405277013,0.08465221363008021,-0.6631936406675726,-2.7253505540594456,-9.3339448097229,-1.2672373333893174,-0.00020162398264760297,3.6226798286955186,0.01666666753590107
364,6068.0,-0.1392613173045218,-0.0903755597129464,0.024403204372525213,-0.7878416915342211,-2.7397154717594385,-9.395295642742514,-1.4569018682436397,-0.30731531704015874,2.361912712162613,0.01666666753590107
365,6085.0,-0.22861863988563416,-0.06477028607428073,-0.29177462263107296,-0.8762775884214788,-2.7121824449285863,-9.712079034423828,0.803611402965698,0.8385281304155965,1.2658739635979595,0.01666666753590107
366,6102.0,-0.24602424045577645,-0.015071312403678892,-0.40293782656788824,-0.8886975095335393,-2.6678897142156957,-9.822062673187256,3.599309909563497,2.258054563190692,-0.2793644487287476,0.01666666753590107
367,6123.0,-0.2491557434145361,-0.03301291954666376,-0.3404951066583395,-0.8798689639769494,-2.7023066553413866,-9.75577263019979,5.210760282426014,3.1985519751075837,-1.528570723039466,0.01666666753590107
368,6135.0,-0.271190026698634,0.0587502951323986,-0.10901450147032737,-0.8931866376463323,-2.624195533917844,-9.520991229900718,5.153358091980757,2.511822130952876,-2.8494061516714604,0.01666666753590107
369,6152.0,-0.2738010129146278,0.07522942850738763,-0.09334873030483722,-0.8898946103636175,-2.6207538690313696,-9.501987838745116,4.693289782980215,0.823302731621139,-3.779570554591181,0.01666666753590107
370,6168.0,-0.21136589178964493,0.016601882971823214,0.00978898808658123,-0.825101527935639,-2.693328106854856,-9.394996367534995,3.6031262777622417,-0.5472123447432075,-4.7744887793806186,0.01666666753590107
371,6185.0,-0.08869695897623896,-0.046321313931047915,0.023964812955260276,-0.7023986197873949,-2.7636577806219456,-9.37868586872518,2.883338318024672,-0.6305101302095095,-5.048871992492018,0.01666666753590107
372,6202.0,-0.021812018835544584,-0.07549947762042283,0.011647183173894881,-0.6349121335569768,-2.7988229097664354,-9.389310138592123,1.744513663673472,-0.8971442802641171,-4.7677234770077215,0.01666666753590107
373,6219.0,0.1468297797974199,-0.10117810875624418,-0.08666764510571956,-0.46866475577987726,-2.8296479638800025,-9.485976615142821,1.5372367389923314,-1.7448341489559336,-3.368097333987987,0.01666666753590107
374,6236.0,0.20631817994602022,-0.09595715923756361,-0.25956922007501126,-0.41389739280380305,-2.8287501382574436,-9.657311671447752,2.341558961879387,-2.5334172681177525,-2.4730345538734313,0.01666666753590107
375,6252.0,0.18382051693387327,-0.09168225839734077,-0.32918110096156594,-0.4429270148679614,-2.832341440747678,-9.72419909580648,3.862021610043813,-3.4414879300631855,-1.7429097431572824,0.01666666753590107
376,6269.0,0.07667896972857416,-0.11366788023412228,-0.41538405116498467,-0.5611407218381762,-2.8712472177252173,-9.804704126629233,6.087256260498947,-3.8836165337652777,-1.7111903446517434,0.01666666753590107
377,6286.0,-0.05434738399833441,-0.13588351143449545,-0.4057248269379139,-0.6998547805234789,-2.91120016566813,-9.789291453441978,7.731817682910393,-3.6535292318555275,-2.4073420078796604,0.01666666753590107
378,6302.0,-0.064886825126037,-0.10533668974041938,-0.341478856998682,-0.7163149900022894,-2.9017735811531544,-9.718363813781737,9.231207276494626,-3.1351966344704265,-2.3003012041979245,0.01666666753590107
379,6319.0,0.035114568001031875,-0.10290770902782678,-0.3448772672653198,-0.6244375012937933,-2.933197477942705,-9.71103098667562,11.202445120963556,-4.085207432684088,-1.6374776624684964,0.01666666753590107
380,6336.0,-0.045580067109689114,-0.11598404822200536,-0.17972411446571349,-0.7142200635496526,-2.9743478189766406,-9.536703178295493,11.730703050429744,-4.452408220860906,-1.7204839909563092,0.01666666753590107
381,6352.0,-0.1619908163111657,-0.14496815064400434,-0.06070435180962085,-0.8396163755003362,-3.0307609033331273,-9.408613389477134,10.348090054858865,-4.264994660224926,-2.4562006988902887,0.01666666753590107
382,6369.0,-0.1673788660250604,-0.16013737046420573,-0.010887889239192008,-0.847397530895844,-3.083433339856565,-9.34696328125,11.279043984957958,-0.14441130327138785,-4.2449454936899995,0.01666666753590107
383,6386.0,0.01018595151491463,-0.1254787295371294,0.05722177039086818,-0.669927332836762,-3.076251027137041,-9.27019860599935,10.322806402098772,-2.6824359875515635,-4.4948996814612014,0.01666666753590107
384,6403.0,0.23917956219278275,-0.19819296035319567,0.05207622419595718,-0.44921186729110774,-3.1787524934515354,-9.265260565075279,8.26492931555552,-4.961399040452133,-3.2461477214519943,0.01666666753590107
385,6419.0,0.23843268934823572,-0.15719284144490955,-0.03312485548853874,-0.4587886739317327,-3.1582521417364475,-9.343222341156006,8.275595509718142,-3.9470169109622746,-2.1193628763385286,0.01666666753590107
386,6435.0,0.1032419824834913,-0.039237493149936194,-0.0795031603038311,-0.6036378743711859,-3.0611376291573045,-9.382127533611655,8.890662582214253,-4.27236998386807,-2.563705741992174,0.01666666753590107
387,6453.0,0.025641952387243507,0.04566051193475723,-0.1742284396588802,-0.6916247853819281,-3.0081656251654025,-9.465625316509604,10.213813658418292,-4.390604827269223,-3.311885090562194,0.01666666753590107
388,6469.0,0.0006347907721996307,0.11998860768824815,-0.10884615916609763,-0.7243954206053167,-2.960132246619463,-9.39095673675537,11.326209002497835,-3.3539840287286253,-4.229790584582211,0.01666666753590107
389,6486.0,-0.19271306763738394,0.055681847472488874,-0.03914426190853119,-0.9139861915037035,-3.0554511079534885,-9.311199309429526,11.404654578889078,0.42952420996034746,-5.868721796683451,0.01666666753590107
390,6502.0,-0.15378902435079217,0.02185410441160202,0.43081426000893114,-0.8658029561582953,-3.1199449151739476,-8.831610789379477,6.330252193053198,-0.25331167931551246,-6.7878385820640865,0.01666666753590107
391,6519.0,-0.07009674179404973,-0.05467588530033826,0.33429683654010295,-0.7787138707701117,-3.2091292192757126,-8.924086828503013,3.987220685077439,-2.395206682715252,-6.474862238821178,0.01666666753590107
392,6536.0,0.05251351963467896,0.02054915929287672,0.02180442005097866,-0.6581059621397406,-3.141492730115354,-9.233836668285727,2.9645757342391574,-3.5179751631533387,-6.10450675702146,0.01666666753590107
393,6553.0,-0.06240604116097092,-0.024313480262458324,-0.09809913970232009,-0.7782648848935961,-3.1953622674688695,-9.350254724010824,3.2367613339851045,-3.374367874532882,-6.756235296774438,0.01666666753590107
394,6569.0,-0.05162913801558316,0.009607494039833546,-0.1434258896380663,-0.7688377889219671,-3.171121267920732,-9.39215325306356,4.34018607836348,-1.5777406145441533,-7.241536459003123,0.01666666753590107
395,6586.0,-0.05732946854904294,-0.00419189873188734,-0.18004267889559267,-0.7721298162046819,-3.198355019544065,-9.424325922393798,5.989630659144662,0.40729047678850144,-7.41557821679151,0.01666666753590107
396,6602.0,-0.03269070185497403,0.026085458371043205,-0.27534955753088,-0.738311717754975,-3.1920705324470995,-9.512012973675132,6.807547519800981,-0.550098526554361,-7.544241051507979,0.01666666753590107
397,6619.0,-0.10082425381727517,-0.013673428304493427,-0.20782851144373415,-0.8044515386167913,-3.2475857911810277,-9.439139460644125,5.295143000753289,-3.556472884079881,-8.18892040915068,0.01666666753590107
398,6636.0,-0.028569603336974978,-0.02893207997381687,-0.2561725633740425,-0.7327750533506274,-3.2776629495367406,-9.482235090526938,6.185386015191344,-1.9345891838167584,-8.667626169962071,0.01666666753590107
399,6653.0,0.02499064887166023,0.0035699674412608146,-0.10588321770727634,-0.6733689246580005,-3.2665897668585178,-9.324816915893555,6.345267083283002,-0.11935816939578106,-8.527746457081149,0.01666666753590107
400,6669.0,0.12455869208276271,-0.01567746160328388,-0.10853577804267406,-0.5660787627622484,-3.302502791760862,-9.322122854503988,6.952688185890106,0.3643033205452775,-7.326609026436571,0.01666666753590107
401,6686.0,0.35405411480292676,0.04617985963374376,-0.03677402564585209,-0.3318958398129791,-3.2568633226141332,-9.24490985096395,6.505315491009326,-0.377136498943791,-5.285516702891803,0.01666666753590107
402,6703.0,0.20834837059937417,0.015253683233261107,0.11304419537782669,-0.47479982446879143,-3.3069922121345994,-9.088388917431235,5.225684672649314,-1.2122732003126382,-4.355301713883542,0.01666666753590107
403,6719.0,0.22394684868231415,0.02785071447789669,0.10635492687225341,-0.4589383115354925,-3.305495836097002,-9.09108239429891,3.660986944655535,-1.1718448837285096,-3.767058501805364,0.01666666753590107
404,6736.0,-0.002539016958326101,-0.009618015433847904,0.23792612806558608,-0.6841428321287035,-3.3488907411873337,-8.95745659866333,1.7720400730805637,-0.9724940734140515,-4.466280761952024,0.01666666753590107
405,6753.0,0.06502667198814452,-0.008672551277279854,0.17322540009617804,-0.6145613463804125,-3.3509856676399705,-9.0212016333431,-0.00338043671105385,-2.0555507668006263,-4.451063954254883,0.01666666753590107
406,6769.0,0.07235957215949892,-0.05027034381777048,0.150989018368721,-0.6067801909849048,-3.391686803601682,-9.043796911510825,-0.847603744275251,-2.218811497870972,-3.8983603508623963,0.01666666753590107
407,6786.0,0.07212992812208831,-0.07442775673568248,-0.12120412095785141,-0.6082765670225024,-3.4151799073919653,-9.316137934875488,0.027197906656483334,-2.8632665264881205,-3.344481528045845,0.01666666753590107
408,6802.0,-0.08774280005656182,-0.06241904677301645,-0.2509679804682731,-0.7701844542905688,-3.4069498391851782,-9.444377361297606,1.4540775850218395,-2.0397410133061626,-3.860870296281843,0.01666666753590107
409,6818.0,-0.07119469309858978,-0.049832536922395226,-0.28604221645891664,-0.7552206939145922,-3.4003657846197486,-9.477147996520996,2.5143044778293526,-2.061440737742705,-3.764235499244033,0.01666666753590107
410,6836.0,-0.12383571157045661,-0.04792290390878916,-0.265597394323349,-0.8078931304380297,-3.4068002015814183,-9.453654308208822,3.6011113719570877,-1.3891656015841538,-4.668248601935655,0.01666666753590107
411,6853.0,-0.1192193768814206,0.04100917899757624,-0.1699421406418085,-0.8007104523923247,-3.3325799501165747,-9.35279856327474,4.532262950655286,-1.2280278854069189,-5.444241334579614,0.01666666753590107
412,6869.0,-0.13212635085806249,0.03398819431960583,-0.11092647257149219,-0.8105866073057055,-3.351434288190305,-9.289651494488119,4.475134821550477,-0.7678176898985404,-5.773384735587943,0.01666666753590107
413,6886.0,-0.06673194153606891,0.011243863070011139,0.03740004858970642,-0.7422021493222564,-3.384803473828733,-9.137619689068197,3.9412603421524235,-0.5501053033826782,-5.770287244799342,0.01666666753590107
414,6903.0,-0.0364466933876276,0.029794542022049425,-0.03776420572698116,-0.7068877479001879,-3.3786683320745823,-9.208547913250326,3.894827435514207,-0.442391779428549,-5.747891054510871,0.01666666753590107
415,6919.0,-0.03197393188774585,0.06067921736836433,-0.06485737983584404,-0.6992561570432037,-3.357270154736936,-9.232340292248129,3.6293396900231043,-1.066179616112591,-6.277154302445519,0.01666666753590107
416,6936.0,0.029975013155490157,0.034056583380699154,0.015693243694305418,-0.6355106109067797,-3.3921360086739063,-9.14884250935018,2.9874805601773837,-1.3706509864566592,-6.460131228328753,0.01666666753590107
417,6952.0,0.17948833294846117,-0.04550619815587997,0.1260451312482357,-0.4843765580441802,-3.478626251386106,-9.036015756115317,0.9931701232487379,-1.4903077898656432,-5.676165957376098,0.01666666753590107
418,6969.0,0.21644472942389548,-0.05883388176262378,0.10617489413022994,-0.44651831735819575,-3.4940392168343064,-9.055169369396566,0.5652384946233405,-1.0463546718815115,-4.3564193035864855,0.01666666753590107
419,6986.0,0.2878517500989139,0.0293359845995903,-0.05003916541039943,-0.3737944419309497,-3.407698319464922,-9.210792477306724,0.8907084277969667,-0.38622889479167954,-2.7048080587345287,0.01666666753590107
420,7002.0,0.1541205943927169,0.0035357729107141495,0.039026773008704184,-0.506373358862102,-3.4340345377266406,-9.121609049987793,-0.6761711187498084,-0.4037224499991103,-1.6837056634316119,0.01666666753590107
421,7019.0,0.05963526127338409,0.025723931582272052,0.054040802267193794,-0.6012435996457934,-3.4084465074837205,-9.107841805920005,-2.0956659618999924,-1.1149415105360756,-1.8265742244046497,0.01666666753590107
422,7036.0,0.024539324907585976,0.09795184018611908,-0.1323106213837862,-0.6362587258603424,-3.3319811074405905,-9.29578663624227,-1.777367940798291,-1.028644631693903,-1.4000152503590133,0.01666666753590107
423,7053.0,0.07193462474569678,0.1590501597493887,-0.4201730390071869,-0.5888236785337329,-3.269582811194658,-9.58413829868734,0.8938817977183782,-1.001126226414745,-1.2108819761560712,0.01666666753590107
424,7069.0,0.030684695794805882,0.13987550368010998,-0.42739363791048524,-0.6289265563413501,-3.293075914984941,-9.58982452763021,2.588004353407906,-0.05873984030552122,-1.8062883491263002,0.01666666753590107
425,7086.0,0.003729688047617674,0.06036795946210623,-0.205046187248826,-0.6513721969053149,-3.3798654329046607,-9.365068846783041,2.9249337431832267,1.0397251195183679,-1.5331561278500718,0.01666666753590107
426,7103.0,0.009558832592517138,0.00039367549270391463,-0.0007101940959692001,-0.6394011886045337,-3.447950834876299,-9.158120040783286,1.7518214324768566,1.2889401527553273,-1.5435276633830304,0.01666666753590107
427,7119.0,0.030019290688633918,-0.015790274327993393,0.10974456931054591,-0.616057649352774,-3.466206330274045,-9.04708893879354,0.2270731074125118,0.1377001621641743,-1.4550279418118233,0.01666666753590107
428,7136.0,0.05225939874313772,-0.01730740089267492,0.11254501368403434,-0.5930135314390063,-3.464410679028928,-9.045592562755942,-1.2973722347291194,-0.7704472593681424,-1.521557612865744,0.01666666753590107
429,7153.0,0.11671557736694813,-0.014097498935461044,0.03917524156868458,-0.5289686370298267,-3.4528885835394263,-9.122057962799072,-2.658365120255969,-0.32973266490680175,-0.9459079889565999,0.01666666753590107
430,7169.0,0.1398898975316435,0.013030746486783026,0.0045353053420782085,-0.5060740105893463,-3.41832229707092,-9.159466779217123,-3.2223752480457653,-0.5276495090215274,-0.07613825311224777,0.01666666753590107
431,7186.0,0.100913612601161,0.060492170363664624,-0.03150222272276878,-0.5470747870847582,-3.362807038336992,-9.198373140716551,-3.6328674827294156,-1.1081547571003159,0.26622319144606954,0.01666666753590107
432,7202.0,0.023308029546961186,0.054607496239244935,-0.043027240821719166,-0.6278790931150317,-3.359664648658037,-9.21303762588501,-4.174217604174048,-1.5153551607691378,0.04532662943608556,0.01666666753590107
433,7219.0,-0.0408570571757853,0.0469166494756937,-0.05321487283706665,-0.6968620284482836,-3.353978419715166,-9.227851164135336,-4.588112980611657,-1.3855206284448942,0.5386203402933017,0.01666666753590107
434,7236.0,-0.06723609166592359,0.05899988597929477,-0.11815934643447398,-0.7258917235776782,-3.331682416754961,-9.296385186657309,-4.360787636447531,-1.22062054525204,0.4533268055680336,0.01666666753590107
435,7253.0,-0.05070880830027163,0.07115384963154793,-0.1359358261436224,-0.7136214400693773,-3.30684257453084,-9.318532136535644,-3.7579730695487776,-1.9053226769969,0.4599199658295058,0.01666666753590107
436,7269.0,-0.05748619348071515,0.059307929015159605,-0.06856967835724354,-0.7245449851438402,-3.309236483930051,-9.254337020000815,-3.9758842786025106,-1.9263816443119304,0.1209208152922595,0.01666666753590107
437,7286.0,-0.08888670939467846,0.011416589288413524,0.0846487064987421,-0.759859459631145,-3.345748059247434,-9.104999275970458,-5.784020193899299,-1.3686119615459988,0.3146769269441102,0.01666666753590107
438,7303.0,-0.16535006361119448,0.011116729559004307,0.032789924445748325,-0.8426090545102953,-3.3256966203436256,-9.163806269726157,-6.758064506811532,-2.3002913858009926,-0.1394089634367204,0.01666666753590107
439,7319.0,0.10314926269873977,0.015853694953024387,-0.02177870108783245,-0.581042523138225,-3.305346198493242,-9.223512258148192,-6.046777144382866,-2.5516820477320126,1.3651612219112614,0.01666666753590107
440,7336.0,0.21013854195177553,-0.004031155212223529,-0.13610183036029339,-0.48198242944926023,-3.3102839471563694,-9.342623790740966,-5.716424799891445,-2.370578728115478,2.5988278553648487,0.01666666753590107
441,7352.0,0.20659129779897628,-0.04109919536858797,-0.12892974677383898,-0.49275633691996334,-3.333328138135373,-9.3399297293514,-5.37517659612656,-1.4719328734510164,2.933490476109372,0.01666666753590107
442,7368.0,0.22308007578514516,-0.026425065588951108,-0.1373994689553976,-0.4824313422605395,-3.3020538789495824,-9.353846026501058,-4.841393043621832,0.22708084473618095,3.76684633905427,0.01666666753590107
443,7386.0,0.21065781658552585,0.023016718450188635,-0.016549568262696265,-0.49604836420267817,-3.2407027536690234,-9.23712928009033,-5.352242101554127,1.5025782247095711,3.929642617261055,0.01666666753590107
444,7402.0,0.19137312427051364,0.010732406416535377,0.047182022413611406,-0.5129574134275316,-3.2378596391975876,-9.178919667705893,-6.6014640639555955,2.6011738119013366,3.7236308784019534,0.01666666753590107
445,7419.0,0.0712927466455847,0.10176146160215138,0.06881693111658096,-0.6262330794736742,-3.1215912210762498,-9.166649384197592,-8.849389456607158,2.590757346530244,2.5624122749181026,0.01666666753590107
446,7436.0,-0.30560623717196284,0.20142711996883153,0.15791852537095546,-0.9959875252988188,-2.9987381638675927,-9.086144353374838,-10.96132749043106,2.607066984494588,-0.563146802550877,0.01666666753590107
447,7453.0,-0.7097638147931545,0.30027444768995043,0.4212397914558649,-1.3825015288755298,-2.8576304880440233,-8.838643756756186,-16.07115849437862,5.282326577662584,-7.728077300566165,0.01666666753590107
448,7469.0,-0.8123309667550027,0.3135550772845745,0.3598801906079054,-1.455075766699016,-2.8091476121649146,-8.914061109051108,-13.984612542567884,13.125744428969108,-12.933861363295001,0.01666666753590107
449,7485.0,-0.6003553090365603,0.4547945627942681,-0.04160393002033234,-1.1875237311765552,-2.6418530634224413,-9.32795930557251,-9.352257865381116,22.187053311180605,-15.061622384104883,0.01666666753590107
450,7502.0,-0.15305457259640096,0.3210743668735027,-0.24636194797754285,-0.6395507896756752,-2.759019014905393,-9.544035420879721,-3.503624935707142,29.06441518269605,-13.453005259087453,0.01666666753590107
451,7519.0,-0.02805252066031098,0.16432313171625137,-0.1032838488638401,-0.4375400245999917,-2.9079087229073046,-9.407266651043296,-5.16417753851288,24.64624584637077,-11.474821112232618,0.01666666753590107
452,7536.0,0.24605131112579254,-0.18964871163070202,0.232083247256279,-0.10654168161600827,-3.242947025464475,-9.080458124431967,-11.815376905570393,14.639352768858014,-9.385701032878437,0.01666666753590107
453,7552.0,0.4240476884834468,-0.3616112521842122,0.23200082966983318,0.10130498653892427,-3.360412836676836,-9.099312462505697,-22.03164260190072,-1.5061325911206223,-6.7978183422151215,0.01666666753590107
454,7569.0,0.5089616948548704,-0.3568772093996405,0.12420564086139202,0.180014366116561,-3.299659677289426,-9.224709358978272,-22.566292734656393,-4.6025071774006365,-3.316243178139485,0.01666666753590107
455,7586.0,0.6650322542715817,-0.2686442146733403,-0.48718087487518785,0.32710813061241056,-3.159898155377805,-9.85183997181356,-19.189995331682983,-3.7025281551875526,1.664668218667494,0.01666666753590107
456,7603.0,0.8354805178046226,-0.2519979080379009,-0.6678577600210904,0.4803370003297925,-3.0904665994942184,-10.048015454864501,-12.631110667013246,-3.014094178834927,8.429736657586052,0.01666666753590107
457,7619.0,0.8545360775388777,-0.2994523176521063,-0.7267606153666972,0.4863225044801831,-3.1117151392281053,-10.114304328808188,-8.05356825791583,-1.3395339252585503,12.61980585016323,0.01666666753590107
458,7635.0,0.5559616752324625,-0.27899229794740676,-0.5146814607411623,0.1759741508150473,-3.0740058785587547,-9.906906609997153,-5.342995306078399,0.32815505129108746,15.119887312819676,0.01666666753590107
459,7653.0,0.12020805912520736,-0.2731274975672364,-0.3013683804064989,-0.26979627078529445,-3.051860097724199,-9.69801251514852,-3.729836532149733,1.966533551678085,15.117134746584162,0.01666666753590107
460,7669.0,-0.16373762344587595,-0.16620996837615964,-0.239703659132123,-0.5596443092679605,-2.9354414574772116,-9.638905661663413,-2.9063353515166934,1.8846651967390196,12.904775856488147,0.01666666753590107
461,7686.0,-0.4527931233113631,-0.04056172749102115,-0.09684475572705269,-0.8527844115659594,-2.801217111426592,-9.498396536254882,-3.114587392423559,1.0080018790314205,11.019232126667134,0.01666666753590107
462,7703.0,-1.0584308297302574,0.04681961884200573,0.03277940305173397,-1.464054022924602,-2.702156725476682,-9.37195276107788,-3.707192747503848,-0.9015134668988095,5.040423902262358,0.01666666753590107
463,7719.0,-0.7780607406236231,0.02037175689935684,0.1257435179531574,-1.1917135475492104,-2.7190657747015354,-9.281421426281332,-3.7671754687949,-3.165612534061551,0.2843839707580459,0.01666666753590107
464,7736.0,-1.0547849475085735,-0.04389379452317953,0.12938918097913266,-1.4740797058438881,-2.77353386247009,-9.280373963055014,-4.390587751796297,-2.8435691146954496,-5.62360509039191,0.01666666753590107
465,7753.0,-1.256951341537386,0.1575616747573018,-0.06321779593527317,-1.6835724607054143,-2.561198102734983,-9.475801258087158,-4.122139119299994,-3.84025891980086,-13.535350019721125,0.01666666753590107
466,7769.0,-1.090058067072183,0.2973115062311292,0.190773331746459,-1.513135156957805,-2.413506080085039,-9.224260446166992,-2.668725663453232,-2.861687899016201,-19.261696950042484,0.01666666753590107
467,7786.0,-0.6451038572255522,0.05840338139086961,-0.5697802476286887,-1.063623758730851,-2.6539734170660374,-9.984568526348472,2.3665373905609464,-5.3821194834178785,-20.96961307276085,0.01666666753590107
468,7803.0,0.13406009539961813,-0.4492056567460298,-1.298745679563284,-0.30436259378641844,-3.1953625597298143,-10.702829608917236,16.084615674590836,-14.43590533914543,-16.64952013027508,0.01666666753590107
469,7819.0,0.5169863036174327,-0.16015636742562053,-0.9555202711582184,0.05312167812827974,-2.954595363019407,-10.344147688183188,21.112586007562143,-14.06723477963659,-13.551291681243935,0.01666666753590107
470,7836.0,0.48900505809504535,-0.08880962557047604,-0.4667874906659126,0.005237681457772851,-2.939032759967446,-9.83762439945638,22.913488325641065,-9.834930258552992,-10.315278679859771,0.01666666753590107
471,7853.0,0.31560097696371375,-0.34328239928931,-0.15465864679217337,-0.19108689120765773,-3.2739220094427464,-9.49944341495931,25.162191506084365,-9.953536493490263,-8.305124978821045,0.01666666753590107
472,7869.0,0.2916816105853766,-0.29161650945991274,-0.1996276693314314,-0.23388328241556883,-3.2870904108345504,-9.522787465667724,27.310156226459146,-12.077977188589873,-7.692066835714565,0.01666666753590107
473,7886.0,0.2909550498764962,-0.28837182845026255,0.06540156971514224,-0.2567777992581948,-3.3497885668098926,-9.235033769115805,25.156836637775076,-8.907948937229909,-5.651952082994756,0.01666666753590107
474,7903.0,0.09399437126461416,0.37773879564255475,0.3216635649383068,-0.466719357333146,-2.756924380713701,-8.953565436443686,20.64507151170582,-6.262408350914285,-4.493800021004829,0.01666666753590107
475,7918.0,0.021358685577474532,0.4594540790379047,0.4598673360139131,-0.5443812736844643,-2.7171204858526585,-8.800786027526854,14.33310586949486,-1.9516913371682356,-4.587307872063243,0.01666666753590107
476,7936.0,0.004936908412910997,0.609536211694777,0.6127946289688349,-0.5656298134183511,-2.5978593156561254,-8.636932851409911,9.909719976190985,-6.226830749301334,-5.108441060451461,0.01666666753590107
477,7952.0,-0.08475812168996781,0.07868921357244253,0.8705769656270742,-0.6675330215787515,-3.146430771039426,-8.372223345836996,0.5674050519724098,-4.141532160787776,-6.536699356471888,0.01666666753590107
478,7969.0,0.06255323107931762,-0.0013622282639145851,0.8701070100277661,-0.5219355965878815,-3.220651314765215,-8.374617547497152,-6.150001793309269,-2.007515327028396,-6.335419658047136,0.01666666753590107
479,7986.0,0.38080654918272044,-0.024157997439801692,0.8301537698239088,-0.20066373438090085,-3.2219980531990524,-8.422202890014647,-12.047111563730585,0.7087320712662872,-4.989533443417062,0.01666666753590107
480,8002.0,0.7086065345168113,-0.07719868275374174,0.3492302017778158,0.13347710787989198,-3.2285815232425925,-8.91944806278646,-15.975076515776756,0.2639122129486516,-0.9356619581496404,0.01666666753590107
481,8019.0,0.7541288800898939,-0.10554828666448593,-0.056872810822725293,0.17612378841880708,-3.217358995221555,-9.338733213043213,-16.33649597570798,-2.825743601622186,1.4207916185971343,0.01666666753590107
482,8036.0,0.8752844126656651,0.16736030745506286,-0.4431453337937593,0.28146869799830015,-2.9043174204170703,-9.737367204937339,-16.167107284291664,-8.258576385853763,6.160144197339915,0.01666666753590107
483,8052.0,0.5667367152143269,0.1741717410355806,-0.578364536100626,-0.06344605173319577,-2.843863828498125,-9.887752996715903,-16.05275625720731,-7.387839964798442,7.703091614808612,0.01666666753590107
484,8069.0,0.3945435077100992,0.08287906647771597,-0.6945587199419736,-0.2545332717344165,-2.897433798383176,-10.014795906829834,-13.734520897239637,-3.1531952501504676,8.010937632211196,0.01666666753590107
485,8086.0,0.17626250276975333,0.3226949538126588,-1.003371571135521,-0.47839112695902586,-2.6289839372381567,-10.332326902008056,-8.908272517441837,3.022845358709006,9.47929084620689,0.01666666753590107
486,8102.0,-0.3752380648680031,0.5098337284490466,-1.146264376810193,-1.0242691054746509,-2.425027883313596,-10.480916458019614,-0.5445505986793123,6.024763444687916,8.071178193143416,0.01666666753590107
487,8119.0,-0.3880274038143456,0.6169640236079692,-0.946218189805746,-1.0242691054746509,-2.320281852942705,-10.281001203918457,3.2096013001939605,9.233175224749235,6.2828553759683645,0.01666666753590107
488,8136.0,-0.31550650361329313,0.41761721704453225,-0.4210872312426567,-0.9289498788144439,-2.528577397376299,-9.754575529369712,4.698141778611863,11.972872530094424,5.87365191260373,0.01666666753590107
489,8152.0,-0.390929043539986,0.24636165571659802,0.13077449785768985,-0.9720455086972564,-2.7115838945135473,-9.201066033062338,2.5194004392804166,11.58225059636681,5.147341975982445,0.01666666753590107
490,8169.0,-0.6158440066020936,0.11905220362097024,0.3450648987919092,-1.1739067092344164,-2.839524045728147,-8.987982669830322,-1.2004022248134503,8.989106952495293,1.9000525457220006,0.01666666753590107
491,8186.0,-0.6082445279164239,0.07697919478416443,0.3313999460548162,-1.1501142571713774,-2.8748385202154516,-9.004741496929526,-3.4647148421094602,4.767090830735849,-1.3668085781617039,0.01666666753590107
492,8203.0,-0.6598148849494755,-0.22260756290256975,0.2766173855096102,-1.1917135110165924,-3.1582521417364475,-9.065195088848471,-5.706704160042047,-0.49570263320011504,-5.032549974809802,0.01666666753590107
493,8219.0,-0.5580205805236473,-0.6511661529392003,0.23882103107869623,-1.0928031279966235,-3.573197216962278,-9.107094202423095,-4.619514775320791,-2.9110599214316384,-2.287745395512737,0.01666666753590107
494,8236.0,-0.7782212649475783,-1.6856512397408485,0.5339619152724743,-1.336263472781144,-4.605547337561846,-8.811260659790038,-0.5924012498179821,-14.896982381709018,-8.367471799338569,0.01666666753590107
495,8253.0,-0.6266100230272859,-0.5732835795745254,0.5005547357112169,-1.1875236581113189,-3.471592991748452,-8.851213315472005,-11.808388768275824,3.490405104568582,-16.73129627766035,0.01666666753590107
496,8269.0,-0.2797096889691427,-0.2995002484470606,0.18086860832571983,-0.8215101158475503,-3.1715701807320116,-9.18011676853597,-11.401649295654272,3.245929795728789,-14.996194294498038,0.01666666753590107
497,8286.0,0.1128815886946395,-0.07625175729244947,-0.21913550287783146,-0.41270021890848874,-2.9249674097359177,-9.588178513988852,-8.826042162476762,1.115833383831291,-12.699274247382682,0.01666666753590107
498,8303.0,0.11257738158367574,-0.006284779357910156,-0.19159166239202022,-0.40132772449012843,-2.831892527936399,-9.568276712688803,-7.651069478995209,-0.634225006066056,-9.56028579070584,0.01666666753590107
499,8319.0,0.14825133703313767,-0.056032560606300824,-0.1585924791097641,-0.3636190483426675,-2.866309176801145,-9.539995205578208,-6.9130940061583654,-1.0697957743912896,-6.1386679481552795,0.01666666753590107
500,8336.0,-0.03337462899852544,-0.2942410127446055,-0.17723346669375895,-0.5419870720243081,-3.0898680490791794,-9.56318961868286,-6.62870072393149,0.4541048068031804,-6.051627859354045,0.01666666753590107
501,8352.0,0.044741278197988864,-0.3703478086084127,-0.3740320500791073,-0.4548979866361245,-3.148525989753008,-9.765649296569825,-4.895607243271986,0.9126602289025646,-6.006230153261909,0.01666666753590107
502,8369.0,0.1030442314216867,-0.2565989720925689,-0.4170481849849224,-0.3910027298307046,-3.0253739495977756,-9.811737678527832,-3.2000966650770644,0.5321654913625223,-4.393327084540296,0.01666666753590107
503,8386.0,0.16458656842540947,-0.135929104141891,-0.42277533046007154,-0.32471323483251036,-2.8990801042854786,-9.81936861179769,-1.8987202319470249,1.0967864408353585,-3.1241622504228594,0.01666666753590107
504,8403.0,-0.01824150340501219,-0.07171440612375736,-0.32582068461775776,-0.499938905367814,-2.8311443399176,-9.72390040512085,-0.7616058996526782,1.7537124343815982,-2.342901734381529,0.01666666753590107
505,8419.0,-0.0818180496500805,-0.002602583713829517,-0.26593875510692594,-0.5573997086789458,-2.7609643037542697,-9.664643329510092,-0.25592974952131653,2.0364917642519407,-2.0394106029050634,0.01666666753590107
506,8436.0,-0.08089779300000519,0.03631634500622749,-0.4582955566525459,-0.5505163789059967,-2.7253505540594456,-9.856329099926352,2.4496364602110834,1.5929867707103853,-1.649133913895652,0.01666666753590107
507,8453.0,-0.08832849099002778,-0.01762070462554693,-0.5374035801589488,-0.5520127549435943,-2.7943337816536427,-9.931297539409995,6.189613048513935,1.2387083802781147,-2.326921012714403,0.01666666753590107
508,8469.0,-0.13155907236412168,-0.07128156766444445,-0.34006431402564047,-0.590619293246232,-2.8645135255560277,-9.72928677433431,6.738837097411123,0.6844731069642531,-2.1175106144129856,0.01666666753590107
509,8486.0,-0.020950871961563824,-0.056523851254582404,-0.011640753433108329,-0.476296163973771,-2.8660099015936256,-9.396193468365073,6.145209134946036,1.2407475119104807,-1.9755733070445969,0.01666666753590107
510,8503.0,0.23749950015135107,-0.22775895431637763,0.20477789170145988,-0.2115872063901275,-3.0530569062933326,-9.175328365215659,3.6652289190169363,1.8711271214738197,-0.18077637767087287,0.01666666753590107
511,8519.0,0.3602910729637369,-0.2625309924900532,0.19142039747834205,-0.08409600451942532,-3.0946561601385474,-9.18685104522705,2.62717292697699,2.4215522164478718,2.298635918700911,0.01666666753590107
512,8536.0,0.3124708987770602,-0.18273761706799269,-0.015240823751688002,-0.12883761151097714,-3.0198373582586644,-9.392153837585449,2.661857054469138,1.7919005556396683,3.8927446547041766,0.01666666753590107
513,8553.0,0.197979244537279,-0.1187865384221077,-0.11607318781018257,-0.24630316699501126,-2.96521963288635,-9.490016830444336,3.6971651760286233,-0.3987397736387331,4.5691498141547635,0.01666666753590107
514,8569.0,0.18154793235938996,-0.141201491586864,-0.0969832874149084,-0.26665388110633936,-2.9955963587105274,-9.46831879337728,3.020224913945248,0.2570849319451214,4.919636702545737,0.01666666753590107
515,8586.0,0.15943269279357045,-0.268844413420558,0.03059212214052677,-0.28909948513768613,-3.1302699098333715,-9.338582990917564,2.330909202859456,1.5067492291366273,5.000736661203176,0.01666666753590107
516,8603.0,0.37214568834323436,-0.18869827903807163,-0.1554816536128521,-0.07362137225624174,-3.060090165930986,-9.521739417919516,2.819082886520954,1.9393457702434376,7.453707747833106,0.01666666753590107
517,8619.0,0.32167817798554893,-0.10550532430559396,-0.19424714533686638,-0.12539598315712064,-2.9845228837713598,-9.55810135563314,3.6233581518574653,0.5475239187632365,8.557924794155204,0.01666666753590107
518,8636.0,0.002142638051882386,0.1038651558831334,-0.3466910386890173,-0.4484635696744546,-2.7856545083746314,-9.707140408977866,5.168173626064161,-0.3647686805433375,7.375870058277995,0.01666666753590107
519,8652.0,-0.27443090831600125,0.22146949878334998,-0.22866437872350215,-0.731727553591691,-2.6864447770819067,-9.58309083546102,5.3186862359355,-0.5026012843443866,3.1188662924951607,0.01666666753590107
520,8669.0,-0.29511341166496274,0.1346598148584366,-0.14406652562916278,-0.7507315292691812,-2.7853555254280566,-9.494804649242758,4.014456491279688,2.187168938993595,0.5338201046889579,0.01666666753590107
521,8686.0,-0.020719437825866042,0.064577686111629,-0.06991933940052986,-0.46686899493690576,-2.8652620058357714,-9.418040558513999,3.543280373698001,3.619633564325693,-0.016915337005506813,0.01666666753590107
522,8703.0,0.29984511636197564,0.024250644159317016,-0.021790976047515866,-0.1346735145902261,-2.9170363244757054,-9.366865082550047,3.7145595334105304,3.1011976603293956,2.811495400126716,0.01666666753590107
523,8719.0,0.3026141061512753,-0.004932195705175399,0.037304771521687506,-0.12734123547337947,-2.953098694720864,-9.305812355694174,3.073232944876659,3.1144471601021624,4.433492865728201,0.01666666753590107
524,8736.0,0.03993453550338745,0.02679711377173662,0.08410860827267169,-0.38726175320409234,-2.923770016644895,-9.258377235302328,1.4283493296354592,3.5675160193073223,4.824940825458564,0.01666666753590107
525,8752.0,-0.018689174107275903,0.060796706268191336,0.12115560564100741,-0.4409816894864663,-2.888306196814775,-9.222015297588705,-0.9708339105589152,4.286718930653798,4.740237515127121,0.01666666753590107
526,8769.0,0.06581621493063866,-0.006295885273814201,0.0717909784913063,-0.3501516274716705,-2.950555147717893,-9.273191358074545,-1.9629602955251104,4.197275469038365,5.802014327267698,0.01666666753590107
527,8786.0,0.32126820894517005,-0.14669716639369726,-0.014440613284707068,-0.08663984378334134,-3.0850793534979224,-9.361627766418456,-1.7651760531298184,5.153772599086012,7.869290607882532,0.01666666753590107
528,8802.0,0.6056114759990945,-0.32579905730783937,0.027750176712870597,0.2073980476045981,-3.2579107858404517,-9.321823579296469,-1.621620737980077,5.791171401960303,12.471396938556254,0.01666666753590107
529,8819.0,0.6961834715995937,-0.35258740325123067,0.04737725272476673,0.30196901318076996,-3.279907805854082,-9.303867066845298,-1.4035731385863552,6.680880380982626,16.33025489035388,0.01666666753590107
530,8836.0,0.8993753362186252,-0.4862865563839674,-0.023777765950560567,0.5083192322328687,-3.409493970710039,-9.376441304668784,-0.3419278609481537,8.068934476001067,20.58391741297211,0.01666666753590107
531,8852.0,0.8364158989585936,-0.4433031547039747,-0.053343467652797696,0.4566942589357495,-3.3644530519783493,-9.407117013439535,0.6767648115990706,12.952734883519039,22.613036841788666,0.01666666753590107
532,8869.0,0.8169371453762054,-0.4513555282562971,-0.011601590466499327,0.45519784636553373,-3.371934639905393,-9.366265947613119,0.700400574500194,15.803736097805109,24.900369864630264,0.01666666753590107
533,8886.0,0.9671313601054251,-0.5411243542477489,-0.08907119911611079,0.6268322874758392,-3.461267997089028,-9.444676051983237,0.6862862020237742,17.75010095463779,29.115593790146953,0.01666666753590107
534,8902.0,0.9374594946149736,-0.4488961524054408,-0.31113457213938234,0.6153101189211011,-3.367745079261064,-9.667785719189046,1.1027432195652558,12.751002685061772,34.58323535282303,0.01666666753590107
535,8919.0,0.8374185001298785,-0.345083895753324,-0.5537117408812046,0.5120601723268627,-3.2655425958931446,-9.909749724468588,2.8108439708346262,6.493652089227883,36.022977758159186,0.01666666753590107
536,8936.0,0.6734823219045997,-0.16652707150131463,-0.7672136217862368,0.3292030570650473,-3.09286050889343,-10.120738745769858,4.275336420401971,0.9735053682980365,35.53326002485844,0.01666666753590107
537,8953.0,0.6335246977865696,-0.23060323783159253,-0.6684066260755062,0.2554317184114829,-3.1693253244146704,-10.016740026634931,6.683233808038518,1.9635122601874122,35.4955061542212,0.01666666753590107
538,8969.0,0.7740830691643059,-0.22164894700348375,-0.7976379861444234,0.3794812553957104,-3.1789021310552954,-10.139443446239829,11.998662470626746,8.153429038676002,39.179382343445916,0.01666666753590107
539,8986.0,1.130314089614898,-0.13633096294105052,-1.0434341169327497,0.7281368356233462,-3.126678607343137,-10.37437506866455,18.09088641308641,11.166566991027127,44.02735840876717,0.01666666753590107
540,9002.0,1.023584338080883,-0.11297697536051272,-0.5955529867887497,0.6063318626955151,-3.1590003297552465,-9.907804435619711,18.961388900162657,8.178325931974344,47.37311291331958,0.01666666753590107
541,9019.0,0.9529504206702113,-0.09701309803128241,-0.3412614148557186,0.5128082142151892,-3.1800992318853734,-9.64025298461914,15.925863295259521,4.759439738204965,47.736810241339,0.01666666753590107
542,9036.0,0.8386930501103401,-0.16139233896136282,-0.0029021511822938917,0.3722985773500055,-3.2737726640999316,-9.290848595318197,13.184256098267667,6.615059128611683,47.46235616501497,0.01666666753590107
543,9053.0,1.0592741486866026,-0.1523527079373598,-0.08985445844829082,0.5780502825196832,-3.2993601098209617,-9.365368121990562,13.857901434406747,17.09093988840737,48.895650871774635,0.01666666753590107
544,9069.0,1.2347120372004807,-0.13717764289826154,-0.1323714116603136,0.7627030855592339,-3.3132766992315648,-9.398438032421469,15.205389328397189,24.71317145495314,52.995150902183795,0.01666666753590107
545,9086.0,1.6885155431307852,-0.11543225955814122,-0.026266075634956358,1.2325650882996617,-3.320758579419553,-9.28306743992269,14.39597263816295,26.86165356215755,60.63580348892109,0.01666666753590107
546,9103.0,1.8774376940526067,0.10081628970652819,0.1681248620867729,1.4257471982209011,-3.1343101251348853,-9.07851342010498,9.652869004905362,20.624591189479535,71.82395387772546,0.01666666753590107
547,9119.0,1.8245394859492778,0.25380583424270153,0.3757610658288002,1.348534158148244,-2.988264116126299,-8.867224539074302,3.613912427122161,12.281890778713311,78.65914957639983,0.01666666753590107
548,9136.0,1.4784569345474243,0.5969321661874651,0.3881172740548849,0.9566333104340359,-2.638261760932207,-8.854804617962241,-0.02393363652217259,6.682761244325318,81.82960727590385,0.01666666753590107
549,9152.0,1.3567267438888548,0.7676429531142115,0.340753465333581,0.7788638737000525,-2.4548057664617895,-8.903287201580405,-0.26439696961673737,5.033076326262717,82.02681532780963,0.01666666753590107
550,9168.0,0.9735435652352868,0.9531441896766424,0.26141514020264145,0.3269582372803241,-2.2580323175176975,-8.981996581158041,4.349707788953301,9.124577778266971,78.0034514160786,0.01666666753590107
551,9186.0,0.8490182639654725,0.9741960377946496,0.5068330853283405,0.16654665298461913,-2.238130808478594,-8.73359815891683,7.743461447897972,14.352192833130461,74.8388881698283,0.01666666753590107
552,9203.0,1.4161324341900645,0.8306129117682576,0.4847814125180244,0.7092821687560528,-2.397644201825559,-8.748262644085287,13.035253813976547,22.10105610688827,77.37593461627284,0.01666666753590107
553,9219.0,1.9123405189990996,0.9805784323081373,0.5501046562999486,1.1926115558348596,-2.265514489966631,-8.675688406261802,13.591314028459271,24.09328909909217,83.41530399361402,0.01666666753590107
554,9235.0,1.678788660494983,0.19818945322185755,0.8834598280757665,0.9458592203002423,-3.0594913232550023,-8.337208146557211,8.631765969272212,23.98198945901952,86.33995684526762,0.01666666753590107
555,9253.0,1.5859978563338517,0.1533686069816351,1.3274211544275283,0.825251238604635,-3.090316669629514,-7.895927437591553,-3.869575372379024,21.544175415931495,90.29725233715712,0.01666666753590107
556,9269.0,1.964180157960206,-0.043785950234532356,1.475859319269657,1.1822865611754356,-3.2472865159735083,-7.759757218170166,-12.456276607281138,26.573204428224155,98.36955238887171,0.01666666753590107
557,9286.0,0.9614949616536498,-0.24720921245664357,1.2163871298283337,0.16819252049550412,-3.3898911523565647,-8.039130624389648,-21.481805543525525,29.731485607985345,94.5237529049935,0.01666666753590107
558,9303.0,1.1619937147311865,-0.47978462714403863,0.8138871101558208,0.37259748723134395,-3.5155870317757127,-8.47756821888387,-26.77311040485209,33.95785640222749,89.27893260361076,0.01666666753590107
559,9319.0,1.5680828449368476,-0.6477160124853253,0.4334744191288948,0.796371108013764,-3.602227204352617,-8.885629964336752,-24.386422035248902,38.941469779181446,92.27233813944972,0.01666666753590107
560,9336.0,1.6397957897558808,-0.8634475521385669,0.2077174522846937,0.8973764174863695,-3.7445322732672093,-9.136721863445638,-20.332269338286746,44.10735016923178,95.77930559898192,0.01666666753590107
561,9353.0,1.1329105358488858,-0.8240744499102234,0.25986206554174424,0.44741606991551813,-3.622577918463945,-9.113976947674155,-15.505960340560062,49.50740017988141,98.21643320805836,0.01666666753590107
562,9369.0,0.7534229968428612,-0.8327969778090715,0.44080549266934393,0.12030841422714292,-3.579332358716428,-8.952069060406089,-13.493950535614387,50.096360561822436,96.78617793547936,0.01666666753590107
563,9385.0,0.011385536563023924,-1.1420938131272793,0.8341939851254224,-0.5656304344728589,-3.8391032388433812,-8.576628312572836,-15.172706873218678,50.715425002530296,92.38390927954187,0.01666666753590107
564,9403.0,-0.44844585135467346,-1.5476795238554477,1.2320727747380733,-0.940472704956308,-4.168455604718625,-8.205078726959227,-21.783028838754134,49.88326207481263,83.81467198457383,0.01666666753590107
565,9419.0,-0.5321139493182301,-1.7255062802672385,1.2428244703769684,-0.958878093686141,-4.276493954633176,-8.21660023792684,-26.66709220855515,47.13127982047152,78.0717601379679,0.01666666753590107
566,9436.0,-0.36241489671729504,-1.8883675227373837,0.8802595707297325,-0.7255931059572845,-4.360739633288979,-8.602665255627036,-30.129467070543647,45.555903518597255,75.79236891758373,0.01666666753590107
567,9453.0,-0.4030162986315787,-2.0132528164260086,0.4266214844942093,-0.6847421314624138,-4.374506731226295,-9.087341454204916,-30.940927694887012,40.77028708039821,75.62212645252117,0.01666666753590107
568,9469.0,-0.6153286774910987,-1.9350537244580686,0.007703998506069183,-0.8448542944201268,-4.217686376355588,-9.526827680969237,-27.780129590416674,38.32730258410849,74.6026455868159,0.01666666753590107
569,9486.0,-1.0830829673625528,-1.6821419164456426,-0.6338216349065303,-1.2611461263461037,-3.8991080640815197,-10.184933862304687,-21.11240500754914,37.4849387688654,71.73781836210243,0.01666666753590107
570,9503.0,-1.695645833402127,-1.4431468439742923,-1.3348603645175694,-1.8034328389041125,-3.603873071863502,-10.899902333068846,-10.546227866265411,35.37463571157407,62.646290161681854,0.01666666753590107
571,9519.0,-2.003834122956544,-1.325592185434699,-1.6318980222433805,-2.0617074206252815,-3.46964799516052,-11.201122829437255,-1.870201630841283,30.35145846385282,52.669484067463,0.01666666753590107
572,9536.0,-2.2064280947476624,-1.2239419291220606,-2.007512957599759,-2.2222684587200114,-3.3728326116584237,-11.575814804729818,5.67859579717333,24.56653583120943,43.865978114152696,0.01666666753590107
573,9553.0,-2.386375058183819,-1.428088244921714,-1.6312468648582696,-2.3618804583339483,-3.6056685769781467,-11.193041814312338,10.342230606324641,18.98257443942074,36.115338991210685,0.01666666753590107
574,9569.0,-2.5120123392835256,-1.5951535149529574,-1.377915077868104,-2.458246979257115,-3.799000361035764,-10.933570793914795,10.00679660109073,20.546225014037393,31.56828398524727,0.01666666753590107
575,9586.0,-2.671081495994329,-1.8195028069563208,-1.1490484545707702,-2.580650470633944,-4.048296608899533,-10.698639171490072,9.314322140957218,21.956945945590167,28.048877043689167,0.01666666753590107
