,ms,accelX,accelY,accelZ,accelWithGX,accelWithGY,accelWithGZ,rotRateAlpha,rotRateBeta,rotRateGamma,interval
0,2.0,2.0048042831629513,-1.7078963892966508,-0.7683814965218305,-7.185448679462075,1.5589242637082934,-1.7869724102295934,-115.179488049541,50.304722312642845,55.970616946167716,0.01666666753590107
1,27.0,0.061203314307704565,0.03944850555211305,0.01073883615732193,-0.2874540560182184,-2.6804598574534055,-9.40472281177938,1.0162237192448234,-1.7892700790355671,-2.3937742639802533,0.01666666753590107
2,44.0,0.07370444742981344,-0.011895020455121993,-0.0016986206114292144,-0.2783261621888727,-2.7329823641121385,-9.416694404602051,0.8524410656723538,-2.19792029707743,-2.4995105015305166,0.01666666753590107
3,63.0,0.04392524910736829,0.03763648769408464,-0.022404139509797093,-0.3116953112946823,-2.6852479685127735,-9.436745258983969,1.248660072620529,-1.7666967307154982,-1.7974931999094395,0.01666666753590107
4,77.0,0.04610007239580154,0.034221710814535615,-0.03148117993474007,-0.3127427745210007,-2.691682385474443,-9.444826274108886,1.376174901947907,-1.3022803659780084,-1.0174604103714189,0.01666666753590107
5,93.0,0.0024011793902143836,-0.025132979951798914,-0.057497080200910565,-0.3573347804414108,-2.7549790918648243,-9.469665531811117,1.724880818512799,-1.0470262715759941,-0.7220623060094779,0.01666666753590107
6,110.0,-0.0016117825781926513,0.008506547060608863,-0.06977905414700508,-0.36287137178052215,-2.726847514618933,-9.480289801678062,3.0087247963736505,-1.514738736196544,-0.8921673135149991,0.01666666753590107
7,127.0,0.05126337344311178,0.00868921015113592,-0.05079261412620544,-0.31319168733228,-2.7401649690926075,-9.457245610699058,5.229022073832512,-1.99803523790383,-1.154365896033918,0.01666666753590107
8,143.0,0.01882032620627433,-0.02012918031513691,-0.006577040302753448,-0.34955366157852114,-2.782512703217566,-9.408913249206542,6.442681802546662,-2.690799554190244,-0.8743881176620444,0.01666666753590107
9,160.0,0.016170213556289673,0.01767097350805998,-0.041379473614692686,-0.3582326425965875,-2.7584207567512986,-9.439438735851645,5.470641723269005,-3.425133682425825,-2.3244834889543546,0.01666666753590107
10,177.0,-0.031803726419992746,-0.08410130174905062,-0.036658290311694146,-0.40940863001719113,-2.880674971283972,-9.428515190777182,7.574785657476276,-0.9104649634146402,-4.019860451573638,0.01666666753590107
11,194.0,0.009957001597248017,-0.0024509002834558484,0.035087679994106294,-0.36496622516792265,-2.817677247840166,-9.351302187237144,8.402721551871357,-0.4092852121912625,-5.4021921287280765,0.01666666753590107
12,210.0,0.02763740052077919,0.013413900585472583,0.028511808735132215,-0.34461562065444884,-2.822016738349199,-9.351900737652182,8.158123086183092,-1.634031832032225,-5.186997627416716,0.01666666753590107
13,227.0,-0.050900787208415565,-0.024097791685163975,-0.07362871531248093,-0.4231753626283258,-2.877083376532793,-9.44871626728475,7.204864319575678,-1.170123782779372,-4.168600200468536,0.01666666753590107
14,244.0,-0.004498736191354691,-0.0059796589314937585,-0.009746902510523795,-0.3743934672700241,-2.8803754038155076,-9.37838659351766,7.03499751491746,-0.10283266010106744,-2.773084977555503,0.01666666753590107
15,260.0,-0.025294344525970517,0.006164952370524406,-0.010641805523633956,-0.3936966816224158,-2.885911995154619,-9.373897465404868,6.951876674039345,-0.37250112169445304,-2.154030141801163,0.01666666753590107
16,277.0,0.062358658355288206,-0.01930909610390663,0.01949555858671665,-0.30750538532417265,-2.9264640780344604,-9.339031903728841,5.685393969831607,-2.318164496755035,-1.151586435928546,0.01666666753590107
17,293.0,0.12931078198067844,-0.016469781024754045,0.03434066101908684,-0.25019432921465484,-2.935741317206621,-9.320027928051353,2.7122128375684684,-3.7290638669998755,-0.11488236777701287,0.01666666753590107
18,310.0,0.17959237784482537,0.050183834578096866,0.0844178203523159,-0.20979206660166383,-2.8727438860237595,-9.268402954754233,0.928353549016021,-3.758665906862711,0.9588938861160867,0.01666666753590107
19,327.0,0.11030549112893641,0.062802200871706,0.07154431025385856,-0.28924959766548125,-2.85972541449666,-9.280972513470052,-0.4087497360325041,-3.399091878667859,1.9192116532307095,0.01666666753590107
20,343.0,0.07399630651585758,0.07639701098203659,0.04719254380762577,-0.336235914843902,-2.8411700593695044,-9.306410906109214,-1.9167239702689438,-1.4951005549505823,2.2641765471211386,0.01666666753590107
21,360.0,0.03187540341671556,0.0711523883268237,0.06124561907947063,-0.377535783883743,-2.841768902045488,-9.293841931915283,-1.66239654043823,2.5100112770491765,1.586081662902914,0.01666666753590107
22,377.0,0.05335387944895774,0.10107640194743871,0.16270868225693702,-0.34581264841929077,-2.807950511334836,-9.194033065685629,-1.7541474320543633,4.236777014329488,1.491874891393338,0.01666666753590107
23,393.0,0.02891582295875996,0.08202566451877355,0.10448913300037384,-0.3610757936006412,-2.822016738349199,-9.254187382397054,-1.8736237690588708,2.6938389883708997,2.2294998901483956,0.01666666753590107
24,410.0,0.03350589069537818,0.04358195209503173,0.14435527944266796,-0.3504514872010797,-2.854787373572588,-9.216329653167724,-0.9005098559776408,1.3862115447681234,2.801566652951045,0.01666666753590107
25,427.0,0.0557427473468706,0.029276947888731954,0.2856622772306204,-0.3266590716706589,-2.8672070024237035,-9.075669721111655,-0.24505635516692068,0.7696090670909349,2.114481852402908,0.01666666753590107
26,443.0,0.04235964375846088,-0.049609541821479794,0.2544154905736446,-0.3399768549378961,-2.9426246469795703,-9.107991443523764,-2.0385591771363387,-0.14016583377412245,0.42534920346932426,0.01666666753590107
27,460.0,0.032086963808164,-0.07597820104807615,0.20876959168612955,-0.35194775364082304,-2.9610300722420213,-9.15602511433065,-4.420480074698858,-1.1638780016702186,-0.13425742665737053,0.01666666753590107
28,477.0,-0.05331387623213231,-0.037628012126684186,0.12359247739911079,-0.43828879714068025,-2.9100036493599415,-9.24505948856771,-5.724844288703955,0.5563417463425758,-0.08498945790507026,0.01666666753590107
29,494.0,-0.07249222209583968,-0.0032812136277556416,0.14228665647506714,-0.4522049846924841,-2.861221498273313,-9.230993553814292,-6.072378400939367,3.2944397202049234,0.09094438234532969,0.01666666753590107
30,510.0,-0.04096318443138152,0.03841857798248529,0.15233809489011763,-0.40581729099433866,-2.803162108014524,-9.2265044257015,-4.046655710574421,5.601940157231453,0.7106207786543545,0.01666666753590107
31,527.0,0.038433592888526616,0.0824155406191945,0.31020284424722194,-0.31274270145576444,-2.7534827158272264,-9.070881317791342,-1.8724336085959963,5.526907540991101,1.2796555777957528,0.01666666753590107
32,544.0,0.04577621073629707,0.08827157317101955,0.3588210369437933,-0.2956841607576236,-2.7439059091866014,-9.023746057128905,-2.047180156529364,2.57018673774087,0.8317523159546794,0.01666666753590107
33,560.0,0.07771346387546509,0.05914513966888189,0.14028408448100088,-0.26590627760943025,-2.7615634386911987,-9.245658038982748,-5.877758990729023,-2.6239102309878395,0.704719708654875,0.01666666753590107
34,577.0,0.035789398522675035,0.021083120039105414,-0.17020985166728494,-0.3203742923127487,-2.782063498145342,-9.560944470104575,-8.327514338920347,-5.620705248202417,0.06910182424581236,0.01666666753590107
35,594.0,0.02263634083047509,0.07340951960384845,-0.12074410223066806,-0.3443163089143112,-2.7099381731331347,-9.516951014599204,-7.844360417411986,-1.8297052258088657,-0.35384131168624267,0.01666666753590107
36,610.0,-0.0484889037610963,0.086347911632061,0.12773206142187118,-0.4088101161347702,-2.674773628510535,-9.275286869049072,-6.322485414193247,4.339794196259851,-0.5740646998565837,0.01666666753590107
37,627.0,-0.020310966622829437,0.0346165553510189,-0.014951485416293143,-0.36840799965225157,-2.713529475623369,-9.422230995941161,-5.236884048454019,3.6161561442645103,-1.088027363555052,0.01666666753590107
38,643.0,0.03679568948838859,0.015824176597595215,-0.08888298306763172,-0.30376451829541473,-2.7235551950752734,-9.498995086669922,-2.3807678762532563,1.4025688873349518,-1.4325604614238894,0.01666666753590107
39,660.0,0.11057258109990507,0.09729366853833198,0.011993804654479027,-0.22819749186411498,-2.6427508890449998,-9.39798911961019,1.804110585998124,-1.1121608764919397,-2.0020979197995183,0.01666666753590107
40,677.0,0.11209336092639714,0.07704641480147838,0.024752163940668103,-0.23029249138198793,-2.669087107306719,-9.383324634441733,3.4399259511773685,-2.6396316189099167,-1.6949815586993626,0.01666666753590107
41,694.0,0.045462139818444845,0.034893910987675185,-0.050800212910771365,-0.30436306871045377,-2.717420053321123,-9.456796697887778,1.1260068438783193,-3.8957349969001727,-0.900960008132627,0.01666666753590107
42,710.0,0.037864158970117565,-0.01018500166684389,-0.28138123891055583,-0.32426487001050264,-2.756774743109941,-9.688585346111655,-3.6202427318222936,-1.7498052460112334,-0.6043875381202669,0.01666666753590107
43,727.0,-0.08144559960849583,0.0019303835406899452,-0.0772200178027153,-0.43993477424941957,-2.733132293976843,-9.487921319469809,-4.869784859341106,3.1208611346196276,0.4224984799449166,0.01666666753590107
44,743.0,-0.1009757911171764,0.011923077505826949,0.0047165071278810495,-0.4492122691499069,-2.710237448340654,-9.410109765514731,-4.657051787451889,4.14783813293899,0.9975045186073457,0.01666666753590107
45,760.0,0.002398841302655637,-0.04638590359985828,0.02073474499285221,-0.3339913142548874,-2.752884457673132,-9.399036582836509,-3.5721285314311966,1.9675510364210054,0.3706450177875021,0.01666666753590107
46,777.0,0.13421795284245164,-0.0900292304933071,0.053532268223166465,-0.20186127360239625,-2.7886478449717162,-9.368510511669516,-3.269439947182207,-2.522942532695303,-0.8434958657371643,0.01666666753590107
47,793.0,0.07859839348383248,-0.08386866203695535,-0.010361819538474083,-0.2650084154542535,-2.774731547822058,-9.434351057323813,-2.8338777165934363,-3.839211766423732,-0.38414526020800255,0.01666666753590107
48,810.0,-0.04332647949662059,-0.10057400538325309,0.02273380985558033,-0.39668947023022916,-2.784308354462683,-9.402927745056152,-3.360351686025781,-3.3783554243477,0.3647870633571583,0.01666666753590107
49,827.0,-0.06931899888720362,-0.09070552231967449,-0.05930325284004211,-0.43335064661875367,-2.7636577806219456,-9.48762204426229,-3.478720785332806,-2.2685041122905765,0.5115916275611216,0.01666666753590107
50,843.0,-0.0808527117492631,-0.09151537739783525,-0.11234861432909965,-0.4505590441163629,-2.7570740183174607,-9.542539629364013,-2.9986453581494157,-2.728188436593717,-0.1913022594708179,0.01666666753590107
51,860.0,-0.11367580781225115,-0.06260317116826772,-0.21888825011849403,-0.4872202205048874,-2.7255004839241503,-9.649679569134115,-1.2584077130614892,-2.7597693103251517,-0.8370708988840037,0.01666666753590107
52,877.0,-0.12030066931210458,0.011702420492470264,-0.2548988901764154,-0.4982933666504919,-2.6572654443487522,-9.683796942791343,3.189138480327425,-1.5065191371389626,-1.678905534548974,0.01666666753590107
53,893.0,-0.12393405737839638,0.02811871776431799,-0.2677443432241678,-0.5038299579896033,-2.6526266786321995,-9.693224111828208,4.9994410596949885,-0.9233740209459643,-2.1304894679398907,0.01666666753590107
54,910.0,-0.1432472086029127,-0.004101590099930763,-0.30768297038078307,-0.5243303097046912,-2.7003616587534545,-9.728688223919272,6.436114575659695,-0.7061907606473665,-1.9687875141041893,0.01666666753590107
55,927.0,-0.13551186511050908,0.030513796207308767,-0.24119945064783094,-0.5178959292756393,-2.687792100037634,-9.655814710888267,6.488641291698032,-1.0758195743524177,-2.5932300884532005,0.01666666753590107
56,943.0,-0.1429944394182414,0.0071329206198453895,-0.255600900965929,-0.527622336987406,-2.726996859961748,-9.665541739654541,6.224740284528488,-2.1758916563436697,-3.293745388787109,0.01666666753590107
57,960.0,-0.15783786135017872,0.03456482516378164,-0.3791887021899223,-0.5476738124238327,-2.7136794054880737,-9.784802325329183,5.820019559693498,-3.388645104332324,-4.479203052974865,0.01666666753590107
58,977.0,-0.2659356863670051,0.18383856404721735,-0.29741993504166603,-0.6585552402772009,-2.5872356303110715,-9.696216863903402,8.794268122457863,0.8110365122845894,-3.746939752718268,0.01666666753590107
59,993.0,-0.31625874675270166,0.2513309685617685,-0.1609311511904001,-0.6979099300660192,-2.544438983374834,-9.552864039501547,11.228060891672044,6.3110363095970134,-3.1671059976122566,0.01666666753590107
60,1010.0,-0.21838990867491812,0.17310469632595776,0.12733692462444304,-0.5808933239258826,-2.6494842889532446,-9.25732977207601,10.591357487432624,7.029222163087392,-4.558356407718851,0.01666666753590107
61,1027.0,-0.13501202582959085,0.09023293637186289,0.22058161003291604,-0.48108507875073697,-2.7566253977671265,-9.157371852764486,9.144104435330393,3.533758022777946,-6.1274280181023775,0.01666666753590107
62,1043.0,-0.11494480483476072,0.08538286599218844,0.49855859345793724,-0.45025962277837095,-2.7893957407295704,-8.871265338897704,8.80549097703784,1.2261967543791208,-6.368907221774062,0.01666666753590107
63,1060.0,-0.06576864946186542,0.16045768845975397,0.6534340978711843,-0.39549233286753294,-2.733431276923418,-8.710703605541587,7.936089857965257,1.406327412369163,-6.012829823547434,0.01666666753590107
64,1077.0,-0.08750416899509728,0.13314005794525147,0.7866665102750062,-0.40791221744697537,-2.778023575104773,-8.572438459667563,6.212320439296466,3.0178691390118284,-5.917645587934605,0.01666666753590107
65,1093.0,0.021736286718212067,-0.060820963926613326,0.9064724548727273,-0.2852094188965857,-2.9827275247871876,-8.449735624584555,0.25503899680401165,1.2513335580720601,-7.4572048046881525,0.01666666753590107
66,1110.0,0.18000764411482958,-0.1754644111946225,0.7560819869190454,-0.12375042617348954,-3.091963267792761,-8.601917067608237,-4.998113868561891,-3.216912590813636,-8.08378416103032,0.01666666753590107
67,1127.0,0.21464352522082625,-0.20312369475364683,0.6226531751602887,-0.09606748774424195,-3.1013904368296266,-8.7407807638973,-10.493242673779038,-6.684065810456791,-7.767516520381111,0.01666666753590107
68,1144.0,0.1686905331455171,-0.16538959190398453,0.42375440462529657,-0.1607109691010788,-3.020735476142168,-8.952219282531738,-16.215150834913533,-8.19930912687827,-5.139176484829695,0.01666666753590107
69,1160.0,0.09235887901727109,-0.12973229532837868,0.07507482246756553,-0.25393515971079467,-2.9435224726021287,-9.312845323070883,-17.890490370385525,-7.262108988783201,-2.7077638230978516,0.01666666753590107
70,1177.0,0.060641954097896814,-0.10059534043222665,-0.018773089531064033,-0.2995746288575232,-2.87244461081624,-9.418639108929037,-16.078203834507487,-5.044900664376478,-0.7575988197657021,0.01666666753590107
71,1193.0,0.02601900553870946,-0.048747079773247236,-0.17728081296682358,-0.34790757487192747,-2.7795196588814255,-9.588627426800132,-9.484896723968179,-4.390969388616171,0.16267229426509294,0.01666666753590107
72,1210.0,0.027741883808560668,-0.04536474385857582,-0.34097850626111026,-0.35628728068247434,-2.7612635789617896,-9.756221543011069,-4.221953796283268,-4.747303345823498,-0.432634987601318,0.01666666753590107
73,1227.0,0.023390447133406995,-0.04758271216899156,-0.3420201242685318,-0.37244810535591094,-2.7591689447700976,-9.758017194256185,-0.3622978062502325,-5.6166421394199055,-1.5678945766904624,0.01666666753590107
74,1244.0,-0.02092080561686307,-0.06670651483386755,-0.4287579120010137,-0.43155495884101835,-2.782662048560381,-9.842861715587974,1.6707768623847183,-4.65883275927797,-2.771090135431036,0.01666666753590107
75,1260.0,-0.09844112154040485,-0.040028059005737304,-0.4398527219891548,-0.5162499156342819,-2.7606653208076954,-9.852288884624839,1.369579713974025,-3.1003248902195146,-3.01004259599664,0.01666666753590107
76,1277.0,-0.11893654135204851,-0.023906068505346774,-0.44421617789566514,-0.5391444690095261,-2.7483950372993946,-9.855431274303793,1.461803916355299,-1.1428358963847018,-3.195589807441914,0.01666666753590107
77,1294.0,-0.10921024323813616,0.013425883284211158,-0.3338210357218981,-0.5258266857422887,-2.717420345582068,-9.74335329360962,2.7736356615573357,1.1752638202949242,-3.2068681573088975,0.01666666753590107
78,1310.0,-0.10361830498259514,0.051690147487819194,-0.15122984138727188,-0.5138556409088895,-2.688240720587969,-9.558401215362549,4.610370432682614,1.2227385442249785,-3.903829624840284,0.01666666753590107
79,1327.0,-0.0775799006236717,0.04816051205694675,-0.10388999806344508,-0.4827310558594763,-2.7051497698128224,-9.507374207958579,6.111767674996007,0.6731170636954606,-4.85620089374242,0.01666666753590107
80,1343.0,-0.11230967055819928,0.01234744039773941,0.11018588333725929,-0.511012562970072,-2.7573735857859254,-9.28875366886556,6.997028066434537,1.7570197400437653,-5.883565505297181,0.01666666753590107
81,1360.0,-0.021949454544857142,-0.025449206294119356,0.22230594960749148,-0.4113539188660681,-2.817078697425127,-9.170539961895345,5.874688393810279,0.5466271896304078,-7.593016286144686,0.01666666753590107
82,1377.0,0.021508286648616193,-0.05443009384572506,0.24366554850041866,-0.36361945020146663,-2.857330920575559,-9.145999394878745,3.2036680002393347,-0.9879798198097629,-7.748960603953479,0.01666666753590107
83,1393.0,0.03298314546290785,-0.048720776288211344,0.24451895045936106,-0.3523967029847204,-2.8537399103462695,-9.144503018841148,-0.4490784812651386,-2.1044399802191083,-7.216758240241609,0.01666666753590107
84,1410.0,0.018896788975968956,-0.04849193596839905,0.2841279072701931,-0.36451731235664336,-2.8464079600229857,-9.107093617901205,-3.243442112767023,0.4085200175608095,-6.929445052144553,0.01666666753590107
85,1427.0,0.026273747484758494,0.0034600773259997365,0.2944371198385954,-0.3504514141358435,-2.7853555254280566,-9.099761959838867,-4.1667415352406465,1.2846384142386886,-7.09092096940741,0.01666666753590107
86,1444.0,0.10763199760336428,0.015437223106622695,0.22520810078978537,-0.26440971890874204,-2.765752999335527,-9.171437787517904,-3.6737649479321597,-0.6654766433351552,-7.5186150355157375,0.01666666753590107
87,1460.0,0.1848231181051582,0.06723053870797156,0.16201017859876155,-0.18794490338750183,-2.7069454210579393,-9.236679782757163,-3.018614483405006,-4.152083949281799,-6.895875099260763,0.01666666753590107
88,1477.0,0.17116488736979663,0.07053513321131467,0.08541033852100371,-0.20784674122016875,-2.6976681818857786,-9.31479119644165,-3.207289281159911,-4.038650301980343,-5.272736565181063,0.01666666753590107
89,1493.0,0.14270758530087768,0.05359276623874903,0.043513563033938406,-0.24106632578745482,-2.707843246680498,-9.358484792217611,-4.243044993553443,-2.6332385618467846,-3.6058515232410766,0.01666666753590107
90,1510.0,0.15136596192233265,0.036923663249611854,-0.10437690479755402,-0.23762466090098022,-2.70963919018656,-9.510516597637533,-5.404280885953631,-2.666726979347357,-0.9932422671218462,0.01666666753590107
91,1527.0,0.13148900280259548,0.04749474162459373,-0.1781552577137947,-0.2630629804749042,-2.6885399957954883,-9.587131050762533,-3.563396134577335,-2.529698016671269,0.806468503112026,0.01666666753590107
92,1544.0,0.038640842431038616,0.0958943231344223,-0.19974457370936868,-0.35898075755015013,-2.635718213929236,-9.609875966534018,-0.4918933619948049,-2.8913923917165865,1.862529193969243,0.01666666753590107
93,1560.0,-0.019117482521943747,0.04441548030972481,-0.17679390623271465,-0.4242227162567898,-2.69362767432332,-9.584736849102377,4.514528364475349,-2.903620564765025,2.0808568311189353,0.01666666753590107
94,1577.0,-0.033180238937586544,0.04052753296047449,-0.11774316684901713,-0.4441245540894568,-2.7106866534128784,-9.521589780315756,6.199571891210637,-2.4042919015284268,1.621658837629041,0.01666666753590107
95,1594.0,-0.10464326411616057,-0.057360594339668745,-0.03398760979771614,-0.5171475951263681,-2.822764926367998,-9.433602869305014,6.3709485945622495,-1.4791104417733476,1.205590180374898,0.01666666753590107
96,1610.0,-0.14531239750441163,-0.08306582122147083,0.0807446847975254,-0.5572505825318396,-2.8613717203989624,-9.31508988712728,5.3093237541307055,0.890509071650567,0.6959686355025019,0.01666666753590107
97,1627.0,-0.12368318788986653,-0.1447600608512759,0.2588140177935362,-0.5312136029450223,-2.9322996523201463,-9.134477299389243,2.4450715459679877,-0.004673130052758099,-0.6455600251588095,0.01666666753590107
98,1644.0,-0.05318363744858652,-0.1499979615047574,0.3428367013484239,-0.4626796534882858,-2.9364895052254196,-9.050680241283773,-0.452897891032498,-2.5970402667930097,-1.9139842106381224,0.01666666753590107
99,1660.0,-0.015795315829291938,-0.16575257999747992,0.30614158615767956,-0.434398109845072,-2.9469641374886035,-9.088538555034994,-3.1391314637625882,-5.880930332938025,-3.3658427312316483,0.01666666753590107
100,1677.0,-0.043866614255309105,-0.06009820261001587,0.16436112563908098,-0.47869076749272643,-2.8299475313484668,-9.232938842663168,-3.566342293987138,-3.850076036072284,-4.154014331495974,0.01666666753590107
101,1694.0,-0.13835655048452317,0.09357786288559436,0.1597293741852045,-0.5768530355591327,-2.673127322608232,-9.238326380920409,-2.054796457784163,1.127421653531864,-3.2779527107655704,0.01666666753590107
102,1710.0,-0.12103723995834588,0.12918401379585265,0.16775544425249098,-0.5506664914337918,-2.637064952363074,-9.230843916210532,-0.8111898713757973,4.736613672885606,-2.491133274513496,0.01666666753590107
103,1727.0,0.04357537622377276,0.11634908214211463,0.19311434191465376,-0.36870716526191677,-2.6538240717232227,-9.205106248363853,0.7090334000025612,6.734142623017209,-1.199820271351824,0.01666666753590107
104,1743.0,0.05258351613096893,0.07442863351851702,0.20910452272891997,-0.3464111623017117,-2.698266440039873,-9.188945971679686,-0.9373524299692185,2.046372059773187,-2.1963152026224773,0.01666666753590107
105,1760.0,0.1502118965163827,0.07165975332707167,-0.13531389485299586,-0.24510650455635039,-2.6988649904549122,-9.534159339031577,-1.3428700457812786,0.5310980075004433,-2.8646346987562383,0.01666666753590107
106,1777.0,0.11265921464823185,0.11401070232242345,-0.029122634109854696,-0.2765303648132831,-2.6524773332893847,-9.42941301639974,-0.9255149650856459,3.8932300250220706,-0.7933584886087155,0.01666666753590107
107,1794.0,0.008358115033246577,0.050531040580570695,0.012650807258486748,-0.37229843121953304,-2.7124823046579953,-9.389010863384604,-1.1605732573289902,4.53218141527207,1.881001227136131,0.01666666753590107
108,1810.0,0.051201998644694685,0.00994885482341051,-0.1063771387040615,-0.3242647604126483,-2.7483950372993946,-9.509618772014974,-1.9168774360818577,1.7456156720073712,3.789743267586269,0.01666666753590107
109,1827.0,0.16703198881614953,-0.08010375654548406,-0.049050154373049736,-0.2115876447815448,-2.832341733008623,-9.453954167938232,-1.7383947746724926,-0.9240522373862053,5.090418325665913,0.01666666753590107
110,1844.0,0.13674677720032632,-0.06204582954645157,-0.0919990692615509,-0.24316121570747345,-2.808998559083044,-9.498395951732993,-1.0544387343727506,-0.8753152091201678,3.041866581773845,0.01666666753590107
111,1860.0,0.0367248162092641,-0.08836334310770035,-0.03955167366564274,-0.3447651851929724,-2.832790645819902,-9.446621925354004,0.2476242128101546,0.14313269719484673,2.04499449599496,0.01666666753590107
112,1877.0,-0.1452528858695179,-0.07880670247226954,0.04346621676087379,-0.5267244382996111,-2.825907608307898,-9.362824282726645,2.380123063706925,0.6770626718799067,2.5543283191485693,0.01666666753590107
113,1893.0,-0.16541056162677703,-0.10277940647304057,0.12724515468776226,-0.5454292118348181,-2.8562837496101854,-9.277231573376058,3.3236842423533908,0.3862044021602027,2.542088406712495,0.01666666753590107
114,1910.0,-0.17947258739005773,-0.12133446933925152,0.1591758319556713,-0.5584476468292996,-2.883966706305742,-9.242665871429443,3.455528451119205,0.05414835235768593,1.6289155934570623,0.01666666753590107
115,1927.0,-0.18723280959539115,-0.17172990084141493,0.18614391838014124,-0.5657798894135281,-2.941427838410437,-9.213636176300048,1.3492108092085775,-0.6106970320877719,0.07408350009019786,0.01666666753590107
116,1943.0,-0.1737422270445153,-0.2221568965256214,0.11797113038599491,-0.5542578304566442,-2.9903590425789353,-9.28216961430013,-3.0547011475545336,-1.3438007657773985,-2.3477784894489178,0.01666666753590107
117,1960.0,-0.16348843445777891,-0.19243600426167248,0.05080956526100635,-0.546775950268656,-2.9510043527901173,-9.352050375255942,-5.174406173681797,-1.0115406640734277,-3.1645510799758485,0.01666666753590107
118,1977.0,-0.18102544285524635,-0.12501987985372542,0.04530804523527622,-0.5672762654511257,-2.873342436438799,-9.360430665588378,-5.162483651598717,-0.3119144622703839,-3.22833992418189,0.01666666753590107
119,1993.0,-0.16145959551129488,-0.027451486027240752,-0.030329087290167808,-0.5461773633209989,-2.7654540163889525,-9.439140045166015,-3.7362342849679195,1.5960131848429355,-4.395522563471632,0.01666666753590107
120,2010.0,-0.14013652923647313,-0.007595861956477165,-0.006997896063327789,-0.5186439711639658,-2.7413620699226855,-9.417292370495199,-2.5113568243156688,2.503880755382267,-4.206597823481786,0.01666666753590107
121,2026.0,-0.08200133379511534,0.03160948248952627,0.015970891591906546,-0.45415023700874296,-2.7038030313789845,-9.394098541912436,-1.2498453238849379,3.745076391735324,-3.5421595823438845,0.01666666753590107
122,2044.0,-0.001816840163618326,0.02205839481204748,0.0943997006624937,-0.3643676747528836,-2.7145769388496874,-9.315689022064209,-1.2499377448821445,2.1772465951202706,-3.138077907083114,0.01666666753590107
123,2060.0,0.030581637279130516,-0.020381986032426355,0.09671849899888038,-0.3287539250580594,-2.7551290217295286,-9.314042423900961,-1.9007251059118353,0.7476962194079473,-2.789002519972806,0.01666666753590107
124,2077.0,0.01018459980804473,-0.046663259236514563,0.14272972406744955,-0.350002428259328,-2.7784721956551075,-9.268851867565512,-1.6068793754821913,0.636815035143666,-2.6808065605476923,0.01666666753590107
125,2094.0,0.03604406740348786,-0.03429623735547065,0.18096388539373873,-0.32187059528511014,-2.762012351502478,-9.23189137943685,-1.183097406942694,0.8596750364161907,-2.6499541691799213,0.01666666753590107
126,2110.0,0.030195524038374423,-0.058653849020600314,0.17847265309989452,-0.3265093610016629,-2.7822131357491013,-9.235632319530843,-2.4489626193607794,-0.5193081938585022,-2.4918745634818538,0.01666666753590107
127,2127.0,0.017455759854801,-0.0785229170948267,0.09467617951631545,-0.34072493335884063,-2.794633056861162,-9.32152430408895,-4.183749133160801,-1.2313038148875861,-2.140692276456009,0.01666666753590107
128,2144.0,-0.047032238679379224,-0.07442103473395109,0.0569160654425621,-0.4056676168579608,-2.7771254572212696,-9.363124142456055,-4.693775580184932,-0.06489778945081662,-0.9758005253025723,0.01666666753590107
129,2160.0,-0.051749841785803434,-0.06701572691351175,0.05836217259764671,-0.40851076786201446,-2.7591692370310423,-9.364769571575522,-4.880833117210425,0.828122870823611,-0.31538486537941146,0.01666666753590107
130,2177.0,-0.040536008527874944,-0.08045534646213054,-0.011915478721261023,-0.3944448696412146,-2.763359089936316,-9.437792722210288,-4.407049788356497,0.9159233517785382,-0.45273236566683095,0.01666666753590107
131,2194.0,-0.05110726956594735,-0.08314823880791664,0.03790507550239563,-0.4020763143677264,-2.7585706866160034,-9.390207964214682,-3.067127182645491,0.63554344601928,-1.145516105303697,0.01666666753590107
132,2210.0,-0.021943865054287016,-0.0878445799306035,-0.0006757073044776916,-0.3694553532807156,-2.7578222063362596,-9.43046047962606,-2.224235308402197,0.39298496573702707,-2.272848326046116,0.01666666753590107
133,2227.0,-0.021530242752097545,-0.07826397389769554,0.015282909327745437,-0.3673604268280789,-2.7460008356392382,-9.415198028564452,-1.9807256175563137,0.5585778862438145,-2.207045002921744,0.01666666753590107
134,2243.0,-0.014064254252985119,-0.07753595188409089,-0.01234393326640129,-0.35763398258369417,-2.7416616373911498,-9.443927863964438,-1.9687017098527408,0.7461085205910366,-1.1125932061220605,0.01666666753590107
135,2260.0,0.037980076967366036,-0.06698737760186195,-0.00858604203760624,-0.30361477109380064,-2.727595410376787,-9.441234971618652,-1.4439642092951661,0.4424993549079767,-0.2215899596128725,0.01666666753590107
136,2277.0,0.039350415472500025,-0.04499912541657686,0.0026946459114551543,-0.3024176702637225,-2.7048507868662477,-9.430161204418539,-0.8203753018707008,0.2780663926213279,0.48750512553563036,0.01666666753590107
137,2294.0,0.041863092413172126,-0.07061871984153986,0.03654021688997745,-0.30107096836250274,-2.7296903368294236,-9.396493328094483,-0.7165097357402277,-0.5648457587460648,0.6501706162919797,0.01666666753590107
138,2310.0,0.03552530422639102,-0.09706862761080265,-0.002375496959686279,-0.31139592648930847,-2.7551290217295286,-9.43554815815389,-1.2636087953927482,-1.0022760460728342,0.48238499161820664,0.01666666753590107
139,2327.0,0.024795710821449754,-0.12381751832664012,-0.003472644546627998,-0.32411512280888854,-2.7796690042242407,-9.437194171795248,-1.6853412802944185,-0.31476510575351213,0.30261350552897187,0.01666666753590107
140,2343.0,0.011881211125478148,-0.12521306433826684,-0.002686462604999542,-0.33713359433598816,-2.7777240076363086,-9.437343809399009,-1.4736103252224892,-0.028632259722399234,0.5970623736788397,0.01666666753590107
141,2360.0,-0.0007600245870649815,-0.09428659567683935,-0.05032850374579429,-0.3500024647919461,-2.742709100617468,-9.486125668224691,-1.595077875813467,-0.7185319519822275,0.647358766148903,0.01666666753590107
142,2377.0,0.02205145361460745,-0.09274433467090129,-0.11900105795562267,-0.3296517141479999,-2.7386685930550096,-9.555407878765463,-1.688107293464862,-1.683081128009379,0.9934868732714972,0.01666666753590107
143,2394.0,0.00809646842237562,-0.08598346223384142,-0.1315694476276636,-0.3486556898254901,-2.7290917864143847,-9.568575987896322,-1.053167892300305,-1.7179573545719333,1.7327382041009585,0.01666666753590107
144,2410.0,-0.0357128626877442,-0.009777882170677184,-0.13657646213471888,-0.39773682385869324,-2.6556197229683396,-9.572616203197835,1.700010072032373,-0.7187667397349466,2.3686165428329806,0.01666666753590107
145,2427.0,-0.0722690077992156,-0.027032091571390627,-0.132275550070405,-0.4361937245575711,-2.6818063036262987,-9.565732873424887,3.7353160514113757,-0.05120507443393934,1.8673685964396085,0.01666666753590107
146,2444.0,-0.09562840220723301,-0.015552666179835795,-0.10196166034936904,-0.4602854152955115,-2.681058407868445,-9.53236427230835,4.159952754092477,0.10631146754442534,1.4213998255983828,0.01666666753590107
147,2460.0,-0.104338435950689,-0.02452536944746971,-0.00855681594312191,-0.46941319952700283,-2.700959624646604,-9.43584743336141,3.5174005734894114,-0.3278406491458553,1.6537610468932182,0.01666666753590107
148,2477.0,-0.12327223246879875,0.002432487843930721,-0.019879589468240737,-0.49215815183110534,-2.6843501428902146,-9.444077501568197,3.533571900123063,-0.2270818585923859,2.710801549731215,0.01666666753590107
149,2494.0,-0.13714235238917172,-0.0033370354682207104,0.11940203997194766,-0.509067237588577,-2.6997628160774707,-9.301921777996421,4.851386037264384,-1.1754467412986334,1.4314119224262694,0.01666666753590107
150,2510.0,0.029609065919928252,0.011016484054923057,0.17846797692477703,-0.3468601116456091,-2.696919701606035,-9.239373259624838,5.308685131443309,-1.2668718115470161,-0.61397851109714,0.01666666753590107
151,2527.0,0.015145327487960457,0.012419628851115702,0.1921592331469059,-0.3673603902954608,-2.7073946261301636,-9.222015297588705,2.0333665258198366,-1.3091910233141804,-0.2843484857908735,0.01666666753590107
152,2544.0,-0.04382021783031523,-0.022701368890702723,0.1776806259393692,-0.4287118443695828,-2.743606633979082,-9.236081232342123,-0.867695492770784,-0.05305690947265905,0.012618054120084533,0.01666666753590107
153,2560.0,0.04169420211967081,0.03217997585386038,0.16212825202047823,-0.3441665617126971,-2.682853766852617,-9.253289556774497,-2.7580440472294887,0.4352610619350557,0.010125461959853005,0.01666666753590107
154,2577.0,0.04505976956263184,0.07432721897065639,0.1745692159205675,-0.3416227589813992,-2.6316777063667773,-9.243413474926353,-2.518239307121515,-0.026653639297211165,1.2898995808903024,0.01666666753590107
155,2594.0,0.07000106286723166,0.08332271859198809,0.12871873437166212,-0.31872820560615506,-2.617911339081824,-9.290549320110678,-1.5088593307033382,-0.796794500648055,1.857909211325964,0.01666666753590107
156,2610.0,0.09117887545246631,0.08737374754846096,0.16831950787603855,-0.300322816876322,-2.613122935761511,-9.2510449927181,-0.020587951066563824,-0.7385257299518531,1.9710457453985246,0.01666666753590107
157,2627.0,0.09773677266333251,0.04998568165749311,0.10878186175823211,-0.29927528058476743,-2.6517294375315306,-9.310002793121336,0.04025636123568824,-1.2798271862986492,2.5046115856234583,0.01666666753590107
158,2643.0,0.11667561068274081,0.029316110855340957,0.09407587553560733,-0.285508621038869,-2.6717802919134495,-9.324666693767904,-0.7387811149937881,-1.5140647886245342,3.2358889907620467,0.01666666753590107
159,2660.0,0.08962897912934421,0.03394698552638292,0.04727320782840252,-0.31932675602119415,-2.6634011706247924,-9.3722520362854,-1.8322479771708147,-2.552854492391728,3.947221389750552,0.01666666753590107
160,2677.0,0.052244529967568815,0.008296995963156223,-0.025744682109355925,-0.36676187641303987,-2.680160582245886,-9.447369528850912,-2.6301118293108,-1.5686675620054376,4.138197320925516,0.01666666753590107
161,2693.0,0.00944415670428425,0.010269757340848446,-0.03147416567206383,-0.4135984463898465,-2.671930514039099,-9.454701771435142,-1.7138383236155925,-0.42452181676482714,3.5361895701224704,0.01666666753590107
162,2711.0,0.019095928277261556,0.024401743067800997,-0.027795184898376464,-0.4038720021454617,-2.654871827210486,-9.451858656963706,-0.34287819105771106,0.32191215166799003,2.6442501074493148,0.01666666753590107
163,2727.0,0.03568162729926407,0.036466859392821786,-0.037546763584017755,-0.3872621915955096,-2.6429005266487597,-9.46158510120809,0.43524374633829266,0.1741308704127149,2.6494380630107623,0.01666666753590107
164,2744.0,0.029272673572413623,0.024283377385139464,-0.020023966374993322,-0.39234990665595976,-2.656816531537473,-9.44362858875692,0.6014315603135323,0.7617152894011042,3.1397784107430358,0.01666666753590107
165,2760.0,0.05199420846831053,0.004250058659911155,0.01854629503786564,-0.3684079265870154,-2.677167537909746,-9.405022086986898,-0.01136644863510614,0.794329976296444,3.223014937950219,0.01666666753590107
166,2777.0,0.05502345662899315,-0.011721417453885078,0.03964636621177196,-0.36556481211557984,-2.692580211097002,-9.384072822460531,-0.16053497866340785,0.5395122669493702,3.165308377200074,0.01666666753590107
167,2794.0,0.0551608192730695,-0.026323651041090485,0.05778174236118793,-0.36765973856821654,-2.7051497698128224,-9.36641558521688,-0.5903764722550435,-0.25156846029285185,2.7819595277214653,0.01666666753590107
168,2810.0,0.03237900555729866,-0.019472177711129187,0.04885375501811504,-0.39130247996225953,-2.6948247751533985,-9.376291667065024,-1.0718863458858423,0.44504925662421285,2.825106473038671,0.01666666753590107
169,2827.0,0.017843224802426994,0.005023088859021663,0.03820551975369453,-0.40462019016426054,-2.6674410936653614,-9.387813762554526,-0.9321768541256413,2.0161858252929044,3.0492579136728564,0.01666666753590107
170,2844.0,0.03259392694961279,0.01572626918107271,0.06959200714230537,-0.38382059977427124,-2.654123346930742,-9.357437328991294,-0.615645610863152,2.35747650429669,2.968192105961268,0.01666666753590107
171,2860.0,0.06248878754097968,-0.006296469795703887,0.07911211515963078,-0.35045137760322537,-2.6747733362495896,-9.348459072765708,-0.9423102935330016,1.3540113649780388,3.342315717748716,0.01666666753590107
172,2877.0,0.056411549986526366,-0.0014221417576074599,0.05835106668174266,-0.35688579456489533,-2.667590731269121,-9.369857250103355,-0.9323038529555212,0.011795523253200458,3.6921949327469696,0.01666666753590107
173,2894.0,0.03297236834056675,-0.007703998506069183,0.03211363261938095,-0.38426947605293243,-2.6723791345894337,-9.396343105968832,0.008844988253460731,-0.3436855140815213,3.9965494428232073,0.01666666753590107
174,2910.0,0.003696626028232276,0.024053660282492638,0.009513093754649161,-0.4168905102051794,-2.6417031335577366,-9.418489471325278,1.004701083393306,-0.31356491345029397,4.186363388065623,0.01666666753590107
175,2927.0,0.004723338727466762,0.02157090355604887,-0.0254974293500185,-0.42078112443555143,-2.647090671814978,-9.452457207378744,1.5571607209663758,-2.1666226627531393,3.9481430384016805,0.01666666753590107
176,2943.0,0.060861515132710334,0.00396188936829567,-0.02510872229337692,-0.3716999538697302,-2.673277252472937,-9.44931481769979,3.722879984480075,-0.40710104576073936,4.428922188512994,0.01666666753590107
177,2960.0,-0.03449033515546471,0.050555298238992685,-0.025087094983458517,-0.470161497143656,-2.635568284064531,-9.446621925354004,3.7537660999068727,-0.6695690472259035,4.477571064650056,0.01666666753590107
178,2977.0,-0.0426865741578862,-0.052288405641913414,-0.06111936235129833,-0.4816835561005398,-2.746150765503943,-9.480289801678062,3.017718234519853,0.055884927954161674,3.504343599673874,0.01666666753590107
179,2994.0,-0.04833656274359673,-0.051122284471988674,-0.033470307925343515,-0.4872202205048874,-2.752435544861853,-9.450511918529868,2.723350101340409,1.483008025190192,3.1425721715569823,0.01666666753590107
180,3010.0,-0.06123137135840952,-0.08186229065060616,-0.05153904857933521,-0.49769477970283477,-2.7886478449717162,-9.467121692547202,3.0066593044799563,1.747204224597928,3.103783100373657,0.01666666753590107
181,3027.0,-0.036674291598424315,-0.06299976927042007,-0.05920096150934696,-0.470161497143656,-2.7771254572212696,-9.472807921490073,3.5058810325673617,1.8653835727120736,3.390037822592772,0.01666666753590107
182,3043.0,-0.002421199264936149,-0.07219225276857615,-0.022104279780387877,-0.4361937245575711,-2.79253842266947,-9.433902144512533,2.8836915668708087,0.874777972053264,3.862660659618032,0.01666666753590107
183,3060.0,-0.01214943360760808,-0.09899024332314729,-0.02543547002971172,-0.4484640811311081,-2.82785260489583,-9.434650332531332,2.595324181764044,0.959757584880976,4.444215835838299,0.01666666753590107
184,3077.0,-0.03933996714372188,-0.07582476405203342,0.0008358663022518157,-0.4765959141053259,-2.8109438479319215,-9.406518463024497,2.881628849741465,1.340465819193434,4.495949396159268,0.01666666753590107
185,3093.0,-0.051656281750835475,-0.12431611549854278,0.02569265966117382,-0.4909610875336453,-2.866758381873369,-9.379434056743978,2.984590109497999,0.6704567050137407,3.572098435910166,0.01666666753590107
186,3110.0,-0.05127860754486173,-0.08195230702161789,-0.02713701325058937,-0.4945524265564978,-2.8324916628733274,-9.42971229160726,1.6328813720439008,-1.5239077315487572,1.1877923082234314,0.01666666753590107
187,3127.0,-0.04856240738872438,-0.06724807436466217,-0.09034487231373786,-0.49649767887275664,-2.820819637519121,-9.491811897167564,0.7586901559290232,-1.5956698611154367,-0.011930045963337976,0.01666666753590107
188,3143.0,-0.11803305317368358,0.09077478816360235,-0.1658417195856571,-0.5680245265351608,-2.665795372284949,-9.566332008361815,1.4621263226284646,0.03774074386743436,0.14357397810803982,0.01666666753590107
189,3160.0,-0.19808420274909586,0.23391192398816346,-0.1494856280684471,-0.6453871676789597,-2.530074065674841,-9.547926583099365,2.345479490462974,1.7202203883430291,0.5145708706997165,0.01666666753590107
190,3177.0,-0.18160101425349712,0.27781623990535737,-0.19937632491886614,-0.6247371418274938,-2.4941610407724975,-9.595660394176841,3.418482358834702,2.3239300301881722,0.13939506293454237,0.01666666753590107
191,3194.0,-0.17059106953721492,0.3207239460006356,-0.09473287813961505,-0.6082770054139196,-2.462587506379187,-9.487921319469809,4.534008917761871,2.922029632125502,-0.5177903443980255,0.01666666753590107
192,3210.0,-0.11679163827784358,0.33318595268875356,0.005842296287417411,-0.546027689184621,-2.466477791815996,-9.382875721630453,5.564628114456143,2.8467925370968725,-0.8160918127657508,0.01666666753590107
193,3227.0,-0.11271967613119631,0.3282105023637414,0.08015431768894195,-0.5358524051941931,-2.483087858094275,-9.305363442882895,5.234245034113456,2.773443562486929,-0.2803099230006919,0.01666666753590107
194,3244.0,-0.06711502256952226,0.3166390147745609,0.27364742978811263,-0.4876691333161667,-2.501493283356726,-9.109936732372642,4.703882979496082,2.627503550821501,0.5875914626209708,0.01666666753590107
195,3260.0,-0.026701398312300444,0.29124387675523755,0.33768121828138825,-0.4444238292969763,-2.5338147135078906,-9.043946549114585,3.719632656416557,1.69184490104474,1.0501888626051217,0.01666666753590107
196,3277.0,0.017663118995167315,0.21125439423918724,0.4514776933312416,-0.4016274380890652,-2.615816412629187,-8.929473782238365,1.2143235377241113,0.09055144636485561,0.967548589568139,0.01666666753590107
197,3294.0,0.03943228506967425,0.09394172776192426,0.43096682022213934,-0.3835213245667517,-2.7286425813421604,-8.95117123478353,-1.2483884658793152,-1.1229331520301078,0.2714585848057372,0.01666666753590107
198,3310.0,0.020735110319033263,0.07199673019647598,0.40193420248329637,-0.40596696513071656,-2.7440555467903613,-8.981996581158041,-2.8354245409970327,-1.4790275190079556,0.13119979642587912,0.01666666753590107
199,3326.0,0.035058271236531435,0.05238105236142873,0.3366816858500242,-0.3963901219574734,-2.751986339789629,-9.050531188201903,-3.1194430165932037,-1.3786243785390027,0.46206144357771634,0.01666666753590107
200,3343.0,0.07334785254448652,0.04050239851921796,0.2000397572636604,-0.3631706104554236,-2.755128729468584,-9.189543937572836,-3.3018611476249653,-2.295359775776832,1.1527592007533782,0.01666666753590107
201,3360.0,0.07932736534550786,0.013660568822920322,0.13439444192051886,-0.3646669864930212,-2.7730855341807006,-9.25747999420166,-3.7515911115430467,-3.035447698057914,1.2654875243013248,0.01666666753590107
202,3377.0,0.06301390739362686,-0.009958207173645496,-0.023552725023031233,-0.3914521540986374,-2.7841587168589235,-9.418639693450928,-3.865782909842374,-2.698998769402021,0.6874688919672441,0.01666666753590107
203,3394.0,0.06450359796211123,-0.007543547247350215,-0.16721709959208964,-0.3947441813813522,-2.7733845171272753,-9.564535772594809,-3.2272438922635147,-0.9864115443433045,0.37538799719669413,0.01666666753590107
204,3410.0,0.04939535108152777,0.010223872372508049,-0.19841653997600078,-0.41105460712593045,-2.7485443826422093,-9.597755320629476,-2.544931899841336,-0.09892984732063985,0.5792911819538187,0.01666666753590107
205,3427.0,0.08550846513323486,-0.025640637212991712,-0.2819792048037052,-0.3734956051148474,-2.7777240076363086,-9.683348029980063,-1.5652174627009348,0.9014798495614884,0.8494913310854074,0.01666666753590107
206,3444.0,0.08067165609393269,0.01722849043756723,-0.30735330003499983,-0.3764883937226608,-2.7323838136970995,-9.709535195159912,-0.6711974070127169,0.4488978547781035,1.3414460580610366,0.01666666753590107
207,3460.0,0.09784655318073927,0.0024941549032926557,-0.349627092140913,-0.3591303951539099,-2.7468986612617967,-9.751882052502035,0.772931527235323,0.5032645597458183,1.3949381786498725,0.01666666753590107
208,3477.0,0.06076287706382572,0.021848259192705152,-0.28082652763724325,-0.3922003055848181,-2.733431276923418,-9.681552378734946,3.082859669624969,1.93534733481463,1.226048624651496,0.01666666753590107
209,3496.0,0.035753961883112785,0.029947394496202467,-0.21887714420258997,-0.41075540498364715,-2.7340301195994017,-9.617357846722006,4.637899083245527,3.146660466662058,1.1369236206061153,0.01666666753590107
210,3510.0,0.02551693776808679,0.01935702689886093,-0.15924655910432337,-0.4135984829224646,-2.7572236559212207,-9.554360415539145,5.8126275874642515,3.170021421170794,1.3277805570791337,0.01666666753590107
211,3527.0,0.006686857352778315,0.021933307127654553,-0.004378653475642204,-0.4230256154267117,-2.7727859667122363,-9.394548039245604,5.7768548985731325,2.707305986980049,1.2285973524289686,0.01666666753590107
212,3544.0,0.010736023145727813,-0.021053017161786557,0.12796820826530456,-0.4135984829224646,-2.827403692084551,-9.258975785717368,5.026217108788732,1.6222512498178339,0.5701851524080165,0.01666666753590107
213,3560.0,0.006799706610105931,-0.0071855275899171825,0.14794482836723327,-0.41464598268140107,-2.823213839179277,-9.236230869945883,3.81601388268143,0.7991168716875651,0.0978901244422773,0.01666666753590107
214,3577.0,0.001564107511565089,-0.02434153731316328,0.19763211160004138,-0.41763873475659635,-2.845659479743242,-9.185054809460043,2.609074206336926,0.6167437772156431,-0.4656017227236044,0.01666666753590107
215,3593.0,-0.010041866869106889,0.006092763917148113,0.1587397786259651,-0.4254198536194861,-2.820221087104082,-9.222613848003745,1.6387638724665743,1.2773685316408563,-0.8001488172216188,0.01666666753590107
216,3610.0,-0.010447232799604534,0.01754851617217064,0.16582710653841495,-0.4212300007142126,-2.811242830878496,-9.214982330211997,0.8048405702120358,2.066186865442217,-0.8253715318877123,0.01666666753590107
217,3627.0,0.03569024899713695,0.06995090358257293,0.15552140110135076,-0.36885680286567657,-2.7606653208076954,-9.22500863418579,0.300924607854554,2.5391343498964645,-0.6373752173773128,0.01666666753590107
218,3644.0,0.09698482178486884,0.08083966960459947,0.1579337229400873,-0.300322816876322,-2.7512384440317748,-9.222464210399984,-0.005369595904687836,1.516406903179614,-0.32611776060814607,0.01666666753590107
219,3660.0,0.13130915272366256,0.08258329840153456,0.12663199122548102,-0.2638112415589392,-2.749891413336992,-9.253738469585775,-0.032354846222188406,0.48353043568635895,0.14748830349247857,0.01666666753590107
220,3677.0,0.15108279759939758,0.11188245812207459,0.10439853210747241,-0.24450799067392945,-2.721310923279822,-9.275735197338461,0.06082200746574374,-0.6324977152579833,0.23340527974249542,0.01666666753590107
221,3694.0,0.15150507813207803,0.11313742661923169,0.0028396073400974273,-0.24794961902778595,-2.719365049909055,-9.377339130291341,-0.4500611213711213,-1.3239058121073266,0.4900374715312655,0.01666666753590107
222,3710.0,0.11116130424067378,0.11626608003377914,-0.040374680486321445,-0.29089568437207486,-2.714277663642168,-9.421033310589193,-0.9854157241066578,-0.4869307493151146,0.8991255687319496,0.01666666753590107
223,3727.0,0.08555413090586662,0.14353081131726503,-0.12245265971422195,-0.3157354900635779,-2.6839015223398803,-9.504082765197753,-1.172223532340622,0.8841198565688432,1.5252706744532922,0.01666666753590107
224,3743.0,0.03865001211818307,0.13990911368876696,-0.09008709816038608,-0.3544915929047391,-2.68405115994364,-9.473107781219483,-0.18746901590234655,3.018976269987605,2.1912301267854026,0.01666666753590107
225,3760.0,0.031547340506128965,0.14031886353343725,-0.08821370550394057,-0.3538930424897,-2.683452317267656,-9.471610820659995,0.9110093508358313,3.121300828047447,2.3082696870818022,0.01666666753590107
226,3777.0,0.05014240658916533,0.09384118999689817,-0.026602760243415832,-0.3269583103455603,-2.7311870051279663,-9.40996012791097,1.6143222539650952,1.8045240258863213,1.2984960142909983,0.01666666753590107
227,3793.0,0.014112331178411841,0.06698094786107539,0.014812369206547736,-0.3586814458100125,-2.7617127840340134,-9.367612686046957,2.2730880229973014,0.8675087297856664,0.49467538342111567,0.01666666753590107
228,3810.0,-0.003881809869408607,0.08184329368919134,0.07903145113885403,-0.37364524271860716,-2.750639601355791,-9.302370690807699,1.9707044493834356,1.4093941673064987,0.3951117692506927,0.01666666753590107
229,3826.0,-0.030060097623057662,0.07227496261596679,0.12713117291927337,-0.39459447071235626,-2.7606653208076954,-9.254337020000815,1.4261844798336825,2.630434342305671,1.143440795013071,0.01666666753590107
230,3843.0,-0.04125643175691366,0.025378771406412124,0.1823386808782816,-0.3995325116364285,-2.8069030481085178,-9.19956965702474,-0.567669081472513,2.894630114826584,1.342022035107139,0.01666666753590107
231,3860.0,-0.00737034610491246,-0.029111820454895496,0.21985446480214593,-0.35972894556894897,-2.8543387530222533,-9.164404820141195,-2.2250265431288603,0.6389462676081216,0.5504894481626385,0.01666666753590107
232,3877.0,0.02679989025071263,-0.04350187259614467,0.1822550942480564,-0.3269582738129422,-2.85972541449666,-9.204657335552573,-3.4890416280555185,-1.4221518934590247,-0.0924278007154786,0.01666666753590107
233,3894.0,0.015190262608230113,-0.04473521378338337,0.1518739845097065,-0.34356808436289427,-2.851346000947058,-9.23772724598348,-3.807309660357895,-2.149980906840403,0.036615790366792106,0.01666666753590107
234,3910.0,-0.03463515045363456,0.027547932139039038,0.08100245895087718,-0.3990836353577673,-2.767099737769365,-9.311947497448324,-3.2460006589414276,-0.2129479560438081,0.8961112141521526,0.01666666753590107
235,3927.0,-0.05367964080460369,0.04662175818234682,0.0065402154237031935,-0.4183868862427771,-2.742259895545244,-9.388113037762045,-2.5309428186475036,1.145346204348093,1.4489912285242956,0.01666666753590107
236,3944.0,-0.03265953953173011,0.05617050777226686,-0.006789221748709678,-0.39519309419263154,-2.7284932359993457,-9.402778107452392,-1.7661705927059956,1.2323985661454924,1.9474602484208243,0.01666666753590107
237,3960.0,0.04672043278384953,0.036923078727722165,0.022122399958968163,-0.3155858159272,-2.7461504732429978,-9.374346378216147,-0.5867843797209986,0.011715268530452808,2.7259314859598507,0.01666666753590107
238,3977.0,0.06382792719025164,0.025253683722019193,0.12746435039639473,-0.3016695187775418,-2.7584207567512986,-9.268702814483643,-0.32483955473800163,-1.098524617257421,2.8462657587571356,0.01666666753590107
239,3993.0,0.08691785700712353,0.007472527837753295,0.10778116028308868,-0.2856583682404831,-2.7750308230295775,-9.288454393658041,-0.554026579018206,-2.3986802607950266,2.538251761389652,0.01666666753590107
240,4010.0,0.06771181941889226,-0.029567163006961345,0.06346563321650028,-0.3160348018037155,-2.808100441199541,-9.333495312389731,-1.348724798560449,-2.6009979345302088,1.958776164328243,0.01666666753590107
241,4027.0,0.046704358431883156,-0.0042830841466784475,-0.0751151544779539,-0.344465946518071,-2.777275387085974,-9.473406471905111,-1.8857204609657867,-2.015409104718227,1.9830709337625667,0.01666666753590107
242,4044.0,0.01975910489372909,0.019914076259732245,-0.07293313426375389,-0.3749920176850632,-2.747197936469316,-9.472807921490073,-2.328240946771508,-0.0286606476961371,2.5803829295112295,0.01666666753590107
243,4060.0,-0.03532766276244074,0.05059767607599497,-0.08139993383586407,-0.4266169909821823,-2.7106866534128784,-9.483132916149497,-1.2361457786788905,2.18891490610018,2.8763781418170176,0.01666666753590107
244,4077.0,0.013161240998655557,0.0654079994559288,-0.05351064091324806,-0.3722985042847693,-2.694974412757158,-9.45574923466146,-0.18596247894268272,2.1810463147329138,2.5434345943092223,0.01666666753590107
245,4094.0,0.029481968941539524,0.05532733494639396,-0.013283844465017318,-0.35314481793828306,-2.706047303174436,-9.415347081646322,0.3125116502555104,0.780579524836739,1.9807973345425989,0.01666666753590107
246,4110.0,0.06587006400972605,0.031625849102437494,0.00821603968143463,-0.3166333887513727,-2.7304385248482226,-9.393649629101157,-0.10954988434551052,-0.1755185727529911,1.4328797727675875,0.01666666753590107
247,4126.0,0.016723609655350444,0.04922112702578306,0.03379822470545769,-0.36721082575693725,-2.711135566224158,-9.368510511669516,-0.30176939019709353,0.3025585972113473,1.5746575311858328,0.01666666753590107
248,4144.0,-0.008903547021560371,0.059929275783896445,0.033223055166006085,-0.39205074104629456,-2.6984163699045776,-9.369708197021485,-0.6790671189578938,1.7399826869328148,1.934285667285516,0.01666666753590107
249,4160.0,0.001373845636472106,0.06140168642401695,0.04590308851897716,-0.3787329212464392,-2.6939269495308396,-9.358035879406332,-0.4419931204966024,1.8898194282414404,2.1900209698588986,0.01666666753590107
250,4177.0,-0.004994191558100283,0.0723775462076068,0.06604103666245938,-0.38157607225049284,-2.6795617395699023,-9.339031903728841,-0.5763925137030887,0.9261049226752058,2.972430665228084,0.01666666753590107
251,4193.0,0.0019775471506640312,0.05821195047199726,0.07766542348265647,-0.37469274247754364,-2.6918317308172584,-9.327958721050619,-0.4729837164733601,0.2529786809130479,3.213977317017823,0.01666666753590107
252,4210.0,-0.007673384172096848,0.05875847843885421,0.09108020085096359,-0.38636447557080533,-2.6891385462105273,-9.31508988712728,-0.6384702888003363,-0.12095624689857894,3.3933289065556607,0.01666666753590107
253,4227.0,-0.05024436912629753,0.020268296524882316,0.08826222082078457,-0.43335064661875367,-2.723854470282793,-9.318830827221273,-0.986223287254306,-0.11053284461661057,3.5860473897426246,0.01666666753590107
254,4244.0,-0.052253553524240846,0.016833645901083945,0.08659984056651591,-0.4378397381989285,-2.7234052652105687,-9.32152430408895,-1.664700875509463,0.004987425476284467,3.3293097569085424,0.01666666753590107
255,4260.0,-0.04228361938018352,0.030869185516238212,0.04879354926347732,-0.4306571697510779,-2.7036533937752245,-9.360878993877767,-2.227023946574266,-0.5544120044586356,3.648888118314504,0.01666666753590107
256,4277.0,-0.0838123652724549,0.03886924435943365,-0.04406535169780254,-0.47988794138804075,-2.6855475359812377,-9.456347785076499,-2.857831830342906,-1.3636564458597429,4.993348530955338,0.01666666753590107
257,4294.0,-0.08778185342531651,-0.012016601008176803,-0.03553717732727527,-0.48946478456128384,-2.7304388171091674,-9.449315402221679,-1.5577677540288608,-0.6704649225850858,3.77076857518515,0.01666666753590107
258,4310.0,-0.012240472891926766,0.06951981868892908,-0.027700492352247235,-0.4183868862427771,-2.646491829138994,-9.441982575115562,-0.5303798237813871,-0.6602425839968098,3.0037295802128443,0.01666666753590107
259,4327.0,-0.0623943872557953,0.034683190846443175,-0.05505962392091751,-0.4748002628602087,-2.679262464362383,-9.469665531811117,-1.187778861288503,-1.1596085998304317,3.7924954069349606,0.01666666753590107
260,4343.0,-0.0828623710712418,-0.0011918401330709458,-0.10897650754749774,-0.5011365176545456,-2.7112849115669726,-9.524433479309081,-1.3653017743977756,-0.938852296822271,4.489543959378265,0.01666666753590107
261,4360.0,-0.04938508541584015,0.02361293077766895,-0.048617023652791976,-0.47255569880381226,-2.6824051463022824,-9.465026766094566,-0.9410641041745915,0.0890067563953749,3.8076404976458176,0.01666666753590107
262,4377.0,-0.05048694571051746,0.011220774455368518,-0.01657762531340122,-0.47554852394424374,-2.6928794863045216,-9.433453231701254,-0.34113427834396287,0.47104111462387327,2.99378269034719,0.01666666753590107
263,4394.0,-0.04317983756754547,-0.01610620840936899,-0.030227965003252026,-0.46911407044995573,-2.7196646173775196,-9.447219891247153,0.8825884000908794,0.8178266808149341,2.7722452911744146,0.01666666753590107
264,4410.0,-0.004029913103207945,-0.012235504455864429,0.08372574643492699,-0.43110611909497526,-2.717420053321123,-9.332747708892821,1.0996768915147432,0.07560955378180646,2.1175315318673187,0.01666666753590107
265,4427.0,0.021982699227333067,-0.015174772778153418,0.07150280919969082,-0.4088101161347702,-2.7222084566414355,-9.344269804382323,0.5929867784567521,-1.3709841716221087,1.6479167528412146,0.01666666753590107
266,4443.0,0.03786043264307081,-0.0019449965879321097,0.034706571722030635,-0.40102899727188046,-2.7091899851143357,-9.380631157574056,-0.03129104425895892,-1.3067982159488545,1.8870741190819185,0.01666666753590107
267,4460.0,-0.0026619126856327053,0.01791881078928709,0.06353051514625549,-0.4457705677308142,-2.6877918077766894,-9.35205095977783,-0.8176335678883225,-0.43049753859750073,2.528689923438457,0.01666666753590107
268,4477.0,-0.0052053135581314565,0.02930675850510597,0.03891337576210498,-0.45085824625864623,-2.6731270303472874,-9.377488767895102,-1.4333561784621958,0.08532581804126695,2.920367761723073,0.01666666753590107
269,4494.0,0.01738773611988872,0.0022770050212740896,0.015787351718544958,-0.4302083300050348,-2.6954233255684374,-9.401879697307944,-1.3797394069210074,0.0459396389140942,2.482253815149068,0.01666666753590107
270,4510.0,0.03740647833049297,0.010195815321803092,0.008418284255266188,-0.4115035564698279,-2.6858465189278125,-9.409660852703452,-0.5782661199697878,-0.7705751119716685,1.672637982211841,0.01666666753590107
271,4527.0,0.04378375827744603,0.022944822257757187,-0.03339373555779457,-0.40940866654980923,-2.672080151642859,-9.451559381756185,-0.24012151681116004,-2.0494125611709006,1.4501187433458764,0.01666666753590107
272,4544.0,0.03894705883599817,0.06992810722887516,-0.08297814293801783,-0.42197829833086575,-2.625542856873572,-9.500640515789389,0.44597466721547024,-1.4866988886629375,1.868041796959678,0.01666666753590107
273,4560.0,-0.013346278709359467,0.10420184049159288,-0.09689794721901417,-0.47734410212412476,-2.5923233088389037,-9.514107900127767,0.9912350452795086,0.4745235506052277,2.7472651549455627,0.01666666753590107
274,4577.0,-0.03026194033809006,0.11772767701894044,-0.058039516514539716,-0.49440278895273804,-2.581549109107256,-9.47445393513143,1.2342922360928783,-0.38544651796659574,2.513729034391779,0.01666666753590107
275,4593.0,0.05861249409690499,0.08281360002607106,-0.012429273462295531,-0.40581736405957486,-2.622250537329912,-9.427168452343345,2.588434655325617,1.0737912216123353,3.376447667135151,0.01666666753590107
276,4610.0,-0.04028901149686426,0.08318535594791174,0.08733458458185195,-0.5045782190736383,-2.626739665442705,-9.326014016723633,2.3709178896964516,-0.057879129748393834,3.2526026771044796,0.01666666753590107
277,4626.0,0.04083988684527576,0.041510991039872165,0.09134440474510193,-0.4269162296570837,-2.672079859381914,-9.320776116070151,1.7068623525954825,-0.8761402746275643,2.8935511583811335,0.01666666753590107
278,4644.0,-0.03865267899930477,0.0412350967079401,0.16703297519683838,-0.5123594110017642,-2.6729776850044726,-9.24461057575643,0.4616295408344188,-1.184287460683863,3.2945163463896745,0.01666666753590107
279,4660.0,-0.02708309110626578,0.006170797589421272,0.09756897834837436,-0.506523434857279,-2.704551219397783,-9.31479061191976,-0.7767201477905644,-1.617582388633307,2.8724243160612266,0.01666666753590107
280,4677.0,-0.0200373007806018,0.025347791746258733,0.0788280375212431,-0.5039796686585992,-2.681058407868445,-9.334542775616049,-1.5490589426719772,-1.0465832697752955,2.092059408574814,0.01666666753590107
281,4694.0,-0.051878473134152586,0.043370647431910034,0.0614256518214941,-0.5401919322358444,-2.6577149416819212,-9.35324747608602,-1.4576481731321693,-0.33203257102724487,2.122393986226133,0.01666666753590107
282,4710.0,0.05545293408744037,0.09095160603523254,-0.034145430707931516,-0.4373909715181216,-2.605491417969763,-9.449913368114828,-1.0243208017841676,-2.3290870364549434,0.9896934502394956,0.01666666753590107
283,4727.0,0.003960062737390399,0.07191197452247142,-0.006613280659914017,-0.4927568483766168,-2.6243457560434935,-9.422230411419273,0.7165335880414698,0.35740042721320114,1.9421843541738126,0.01666666753590107
284,4744.0,-0.026545184837281702,0.08249766594469547,0.05029927765130996,-0.5249288966523483,-2.6153672075569627,-9.364769571575522,0.21506736907934834,-0.6334914010605144,1.9748740664283169,0.01666666753590107
285,4760.0,0.042692127115838224,0.011099486163258551,0.023037176716327667,-0.46118324091807006,-2.684799055701494,-9.392302890667318,-1.1224999686263408,-1.1684541216924214,1.9653796765951759,0.01666666753590107
286,4777.0,0.008920023232325911,0.021102701522409915,0.000727145230770111,-0.49934090294204647,-2.6708827585518358,-9.415496719250083,-1.1538110498855603,-0.5394868138225413,2.319047939035494,0.01666666753590107
287,4793.0,-0.017244418659061192,0.009306173005700111,0.0011345569878816605,-0.5273231348451226,-2.679861014777422,-9.415795994457602,0.1498804972079962,0.01121388995669156,1.8587681076140932,0.01666666753590107
288,4810.0,-0.003712408119253814,0.025831483609974382,0.00504851556122303,-0.5146039019929245,-2.66519623734802,-9.411306866344809,1.2760512656263958,0.5029319081888975,1.0029418827952048,0.01666666753590107
289,4827.0,-0.03434588518347591,0.003731295482814312,0.00011515081226825714,-0.5452797203615307,-2.6898867342293262,-9.415497303771971,1.1987878455700942,0.19616783543952637,1.034706638025701,0.01666666753590107
290,4844.0,-0.018471403170749544,-0.015775953541696072,-0.00620353081524372,-0.5291187860902399,-2.711135566224158,-9.421333170318603,0.6395669610489465,-0.22351100367779148,0.9232311205819229,0.01666666753590107
291,4860.0,-0.03127962948065251,-0.020931436608731747,-0.009061258333921431,-0.5433343949800357,-2.7171207781136033,-9.42387642506063,0.34691587339381996,0.3750505965238661,0.9022994722618899,0.01666666753590107
292,4877.0,-0.05630366916526108,-0.008186229065060615,0.003097381493449211,-0.5671266643799842,-2.7050001322090624,-9.411606141552328,0.5060650440272293,1.0881853116796083,1.0287796346517166,0.01666666753590107
293,4894.0,-0.05443203007448464,0.000320025734603405,0.011850596791505814,-0.5639842747010291,-2.6975182520210743,-9.402628469848633,0.9580391519744831,0.7025420522484045,0.7640377671623201,0.01666666753590107
294,4910.0,-0.033576581311412154,0.006273965702950954,0.028001521125435826,-0.5430350101746618,-2.6942262247383595,-9.385718836101889,1.2333613026533468,-0.088502282892146,0.1251407249409902,0.01666666753590107
295,4927.0,-0.03545443094726652,0.00940729529261589,0.047020694372057914,-0.5469256244050339,-2.6958719461187717,-9.365218484386801,1.6426564399632468,-0.48138442226565265,-0.0452648375684381,0.01666666753590107
296,4943.0,-0.06643800009079277,0.030322949810326096,0.07510814021527766,-0.5795465854920446,-2.6789628968939185,-9.335889514049887,1.2257929194444437,-0.9875806806301403,-0.33805506364747717,0.01666666753590107
297,4960.0,-0.05673117386233061,0.03024082448482513,0.015436638584733008,-0.5726633653169497,-2.681507028418779,-9.394697676849365,0.6329279104539883,-0.9728864891262098,-0.7872279669418059,0.01666666753590107
298,4977.0,-0.08187504053432494,0.0442325249582529,0.004321370330452919,-0.5985506707673892,-2.668039936341345,-9.405620637401938,-0.12307974203936532,0.8190866372733899,-0.8148093380273752,0.01666666753590107
299,4993.0,-0.09096453858204186,0.062462301392853255,0.026694530180096626,-0.6048354501252994,-2.6490359606638547,-9.383623909649252,-0.33616184726734066,1.3357029361861137,-0.7365977489760583,0.01666666753590107
300,5010.0,-0.06360785469878465,0.05265197825729847,0.015827683728933332,-0.5737108650758862,-2.659360663062334,-9.394548039245604,0.7075850797334011,1.6361258186213627,-0.6639129035411925,0.01666666753590107
301,5027.0,-0.031186836630664762,0.06452946305572986,0.1097363860040903,-0.5368999780183658,-2.650083423890173,-9.300126126751303,0.8998902297538737,1.1274497213404844,-1.1564991562107834,0.01666666753590107
302,5044.0,0.026513474524766205,0.0023079846814274786,0.12600830636918545,-0.4785413125520572,-2.71308056281209,-9.28366599033773,0.3462846678649756,-0.23021734230824487,-1.441558381881735,0.01666666753590107
303,5060.0,0.04716258706077933,-0.011824877828359602,0.12090952192544936,-0.45968697447832674,-2.7263986018076536,-9.28890330646932,-0.8630353827661311,-1.4718860226221782,-1.2528529549972707,0.01666666753590107
304,5077.0,0.04972662886250764,0.0006152092888951302,0.07836509618461132,-0.4644752682007849,-2.707544263733923,-9.332896761974691,-2.395609877319694,-1.989058021456906,-0.829881751256595,0.01666666753590107
305,5093.0,0.0039057022016495465,0.037786417558789254,0.05022562789320945,-0.5146039750581607,-2.663850083436072,-9.362674645122885,-2.3554058897611183,-1.0287636263958495,-0.6299965320004364,0.01666666753590107
306,5110.0,-0.0029159605119377374,0.07099661324322223,0.032112463575601574,-0.5220857821809127,-2.6258415475592014,-9.382127533611655,-1.3362214969545059,0.28003274005035106,-0.7149742771982971,0.01666666753590107
307,5127.0,-0.008387085399404168,0.07068506307601928,-0.011686346140503883,-0.5232829926088453,-2.6262910448923704,-9.426121573638916,0.7505565745663016,1.641141205184562,-0.6668155738558892,0.01666666753590107
308,5144.0,0.035147264694236215,0.05594926623702049,0.06552139670252799,-0.47465073485430326,-2.645145382966101,-9.348010159954429,1.192833948326253,1.1051774349524248,-0.7907985550521358,0.01666666753590107
309,5160.0,0.07142324115745723,0.021492285361886024,0.06789514009654521,-0.43694198564160613,-2.681507028418779,-9.345167045482993,-0.25301259173505997,-0.7220777272959632,-0.8105129355960257,0.01666666753590107
310,5177.0,0.09159143830873072,-0.036712358586490156,0.057391281738877295,-0.42093083510454743,-2.735376565772295,-9.356689725494384,-2.120001712469336,-1.5824293259659554,-0.9826015794469067,0.01666666753590107
311,5194.0,0.038743645218387246,-0.005135609322786331,0.08794365639090537,-0.47569819808062164,-2.698117094697058,-9.3276594458431,-1.5534248209337904,-0.31995252770643107,-0.8128661492085065,0.01666666753590107
312,5210.0,0.014435571783408522,0.053611470939218996,0.0918026699066162,-0.49934090294204647,-2.6354189387217164,-9.324965968975425,-1.264972698792635,0.132607909292386,-0.9267731072751034,0.01666666753590107
313,5227.0,-0.007335420922003686,0.05236556253135204,0.019058920735120773,-0.5201405298646539,-2.6327251695930958,-9.398886945232748,-1.0363721369661263,-0.1819596545837247,-0.6714344892821104,0.01666666753590107
314,5243.0,-0.011558445444516837,0.0849187556117773,0.007149871754646301,-0.5223850573884323,-2.598757141278684,-9.411306866344809,-0.7872990969587093,0.5795885086261258,-0.017055942852873873,0.01666666753590107
315,5259.0,-0.013166574760898947,0.06347323200106621,0.06736439422070979,-0.5207390437470749,-2.6195570604622365,-9.351451824840902,-0.37840931536779343,1.2096697243000998,0.4074588302793717,0.01666666753590107
316,5277.0,0.007450754397362471,0.052690264441072936,0.06945055284500122,-0.4963481508668512,-2.63003169272542,-9.349656173595786,-0.21645230999548742,1.2505398687461635,0.5893822528439836,0.01666666753590107
317,5294.0,0.04291285719443112,0.0291921922147274,0.1052139401435852,-0.45968697447832674,-2.65217835034281,-9.31434169910848,-0.5244080506518274,-0.9664047463255735,-0.40251187901000485,0.01666666753590107
318,5310.0,0.05459207947440445,0.016532909388840198,0.05994330430924892,-0.4519057825502008,-2.6617548647224902,-9.36028044346273,-1.661414060414806,-2.2509473244724703,-0.792263417185692,0.01666666753590107
319,5327.0,-0.005902173248492181,0.0090104049295187,0.010842881053686141,-0.5166987919129431,-2.6622040697947145,-9.411157228741049,-2.886410409047297,-1.0057971153116816,-0.7413458510271279,0.01666666753590107
320,5344.0,-0.017017478035390377,0.033192075505852695,0.017359131079912184,-0.526425309222564,-2.6268895953074094,-9.407865201458334,-3.413766540099631,1.8654890137573856,-0.10057093367086764,0.01666666753590107
321,5360.0,-0.017674334508925676,0.04327624714672565,0.021687515673041342,-0.5204397685395553,-2.6090824281990526,-9.406069550213218,-2.5416198984241145,3.340785115044399,0.7033383562560928,0.01666666753590107
322,5377.0,0.05348572566770017,0.05119067353308201,0.12190671626925467,-0.44202973723467437,-2.5968124369516965,-9.307458369335532,-1.2930516064705575,1.8889758998789439,0.6573520265957192,0.01666666753590107
323,5394.0,0.13646606056280433,0.010918284377455711,0.12588789485991,-0.35972898210156706,-2.635568284064531,-9.303867066845298,-0.30667215868026687,-2.1268037271090225,0.044864684532610555,0.01666666753590107
324,5410.0,0.14235150187220424,-0.0021221067205071447,0.13775193565487862,-0.36107572053540493,-2.647090379554033,-9.292046280670165,-1.1672595856396095,-3.013460678789408,-0.2245548220016134,0.01666666753590107
325,5427.0,0.10418624106366187,-0.011014730489253997,0.10923019004762172,-0.40551808885205537,-2.650831611908972,-9.32167394169271,-2.925313459012397,-1.5066378116757915,0.07388118241646267,0.01666666753590107
326,5444.0,0.09207049052994698,0.027101649676263332,-0.00360416197180748,-0.4200329364167526,-2.597261057502031,-9.438690547832847,-5.5700081690879975,0.1403767158647466,1.038029631778618,0.01666666753590107
327,5460.0,0.12255191883761435,0.03534837675690651,-0.027996844950318334,-0.38816012681592255,-2.575264329749346,-9.46697263946533,-5.1558391581967635,1.5082050199251922,1.7653092418186336,0.01666666753590107
328,5477.0,0.1364861169701442,0.1267749068275094,0.0010457096606492995,-0.36855767378862947,-2.473510759192705,-9.441084749493003,-3.6503958825737843,1.8748856465080308,3.0136617424831003,0.01666666753590107
329,5494.0,0.11674926044084132,0.06379968747645616,-0.007317045015096664,-0.38456886085830627,-2.5300737734138963,-9.451409744152427,-1.125759889851141,0.603478269187009,3.665995180864447,0.01666666753590107
330,5510.0,0.12154950032941997,0.061276891000568864,0.033249943172931666,-0.3809775218354538,-2.5306720315679905,-9.411306866344809,-0.9026776939871793,-0.5923164594227387,3.108956114896295,0.01666666753590107
331,5527.0,0.06242646289449185,-0.03417553358525038,0.009727613288164138,-0.4436756778107956,-2.6238965509712693,-9.43524946746826,-1.4947991728534553,-1.805829018904617,2.601472846120936,0.01666666753590107
332,5544.0,0.011719773486070334,-0.058934127266705036,-0.021949381479620934,-0.49829347624834625,-2.643349439460039,-9.46816915577352,-2.1379877349880956,-0.6561402549874238,2.172639845968509,0.01666666753590107
333,5560.0,-0.06265044437609613,-0.0752899265229702,-0.015566986966133118,-0.5693712284363805,-2.6506813897833226,-9.464428215679526,-1.8753588505514658,2.0275926680936487,1.7104660244346046,0.01666666753590107
334,5577.0,-0.09596983605604618,-0.07428396435081959,0.025932898157835005,-0.5952585704194382,-2.643798352271318,-9.424923888286948,-1.9870128066873105,2.494110169774564,1.752678301052576,0.01666666753590107
335,5593.0,-0.0867482360612601,-0.0988350527614355,0.023925065466761587,-0.5811926356660202,-2.6623531228765844,-9.428814465984702,-2.4567712331293965,1.3231567324544466,1.311147872511389,0.01666666753590107
336,5610.0,-0.08677063055615872,-0.12562924392372368,0.05831424180269241,-0.5780502825196832,-2.6804598574534055,-9.39694224090576,-3.2359116157636727,0.07264941382854641,0.47990115063784916,0.01666666753590107
337,5627.0,-0.11133845090586691,-0.10666296990811824,0.05302665678858757,-0.603189436483942,-2.65547008536458,-9.40382557067871,-2.731722419158964,0.32940967166425417,-0.024000190845940548,0.01666666753590107
338,5644.0,-0.11823343458399176,-0.09615940381139516,0.08319149342775345,-0.6094741427766159,-2.6397581369698044,-9.375094566234946,-2.05076856716456,0.8259764838769345,-0.051237117626100226,0.01666666753590107
339,5660.0,-0.10382113407831639,-0.051742169936001295,0.05208908367753028,-0.5957074832307174,-2.5906772951975463,-9.407416288647054,-2.04168953821032,-0.15406505529168685,-0.38999747834666054,0.01666666753590107
340,5677.0,-0.10234711600299924,-0.04052577939480543,0.035350130322575564,-0.5964557077821344,-2.5761621553719043,-9.424923888286948,-2.246603964490577,-0.12411627660676765,-0.0002407374878165041,0.01666666753590107
341,5694.0,-0.11981357991490513,-0.028963644155859947,0.0699392131447792,-0.6147114589082077,-2.5604502069771287,-9.39140506504476,-2.2445758251939063,0.1756791889201922,-0.28973232904328317,0.01666666753590107
342,5710.0,-0.0887067497178912,-0.027979893815517423,0.054366380959749216,-0.5862803507264703,-2.5550629609808326,-9.408014839062094,-2.016035134244341,-0.9463051004238127,-0.5700141842353545,0.01666666753590107
343,5727.0,-0.0818443896677345,-0.013061726146936415,0.0534130257576704,-0.583736438397318,-2.53725608613342,-9.409511215099691,-2.2600980704129947,-0.9354246090759823,-0.4465453348567101,0.01666666753590107
344,5743.0,-0.08627484639585017,-0.015533669218420981,0.06973989118039607,-0.5912183916505426,-2.5345629015266895,-9.394397817119955,-2.7711148948667774,-0.8649747829644445,-0.18780208100587725,0.01666666753590107
345,5760.0,-0.04883680388331413,-0.010050561632215975,0.04166062864363193,-0.5574002566682175,-2.52139479239583,-9.424325922393798,-2.5875309359210594,-0.5971998312358863,-0.5044216364799008,0.01666666753590107
346,5777.0,-0.027505517769418654,0.015150807380676269,0.04948854579031467,-0.5397430194245652,-2.491317926301062,-9.41759164570272,-2.2569730454243024,-0.7296620120390277,-0.33206330687850993,0.01666666753590107
347,5794.0,-0.033242271323129534,0.0348258141875267,0.054821723511815065,-0.5479731241639704,-2.4673759096994994,-9.413252155193685,-1.5326484526956694,-0.8669962521545038,-0.04808917415109126,0.01666666753590107
348,5810.0,0.008190101522579788,0.005009937116503715,0.09199263952076435,-0.5102644114838912,-2.495058866395056,-9.376441304668784,-0.9742117592686038,-0.9779236469173884,0.2031704602056555,0.01666666753590107
349,5826.0,0.038349933193065226,-0.022675065405666828,0.12153437582552433,-0.4857238809999078,-2.5201979838266966,-9.347262556457519,-1.6659902871587144,-1.831855668180362,-0.5014289997672302,0.01666666753590107
350,5844.0,0.04680007389131933,-0.0760758162036538,0.07342296360731125,-0.48258141825571654,-2.568231070111692,-9.396492743572592,-3.1188712016936266,-2.530418174741882,-1.1894935589352935,0.01666666753590107
351,5860.0,0.049216304720193144,-0.09402794474065303,-0.0003612345278263092,-0.4863224314149469,-2.577508893805742,-9.472209371075033,-4.273419271679313,-2.746588966217731,-1.695164906589895,0.01666666753590107
352,5877.0,0.012828392315097152,-0.018647417324781417,-0.0920727190196514,-0.5286698732789605,-2.488175244361162,-9.567229833984374,-4.019967600166242,-1.242405753774913,-1.3372958643666075,0.01666666753590107
353,5894.0,0.0009855039060115813,0.005311550411581992,-0.101031101500988,-0.5407905557161197,-2.4566017099678517,-9.578153379058838,-2.475427467960463,0.25416916154103997,-0.6606224065476859,0.01666666753590107
354,5910.0,0.022696071661077438,0.053230070406198496,-0.11748948434889316,-0.5161003145631402,-2.405874562293291,-9.59551075657308,-1.0439408403401467,1.3001274690072793,0.024029539315030445,0.01666666753590107
355,5927.0,0.032326617782935496,0.023789164127409456,-0.06098726040422916,-0.5009868800507858,-2.4378973017588255,-9.53864846714437,0.8291352862855067,1.3891144818870844,0.39789128271691765,0.01666666753590107
356,5944.0,0.04965666889883578,0.006314005452394485,-0.02446691725850105,-0.48003761552441865,-2.4589959116280076,-9.501389288330078,1.2762178582091206,1.3179018623834737,0.21290900262119786,0.01666666753590107
357,5960.0,0.06997614762168378,-0.0425508554816246,0.07663900304436683,-0.4583401995118707,-2.511219435340166,-9.399486080169677,1.0367143934765675,-0.5839770652504176,0.44035376837409357,0.01666666753590107
358,5977.0,0.06523739212937653,-0.07488719094097614,0.10915829385519027,-0.4667198687897995,-2.544887896186113,-9.36641558521688,0.44032740811276555,-0.9016780317691245,0.22414132875256318,0.01666666753590107
359,5994.0,0.03398819431960583,-0.053553603272140024,0.1192220072299242,-0.49978974268808957,-2.5224419633612034,-9.356539503368735,-0.6649984233715485,-0.7264254095069408,-0.10130496556323244,0.01666666753590107
360,6010.0,0.026517821906320748,-0.08560176943987607,0.04277472736537456,-0.5077206087525934,-2.5508734003365037,-9.433902144512533,-1.5583519486463084,-0.18201120116761713,-0.5045530108997177,0.01666666753590107
361,6027.0,0.006132219144701957,-0.025737667846679687,-0.0023421792119741438,-0.525826758807525,-2.484883509339392,-9.48073929901123,-2.15215333388329,0.4564256837388096,-0.25079192648115955,0.01666666753590107
362,6044.0,-0.004169577302224934,0.0021358429849147797,-0.02448796004652977,-0.5331590013917535,-2.4536089578926563,-9.503932543072104,-0.924583711480997,1.1855974696223301,0.17122040941349612,0.01666666753590107
363,6060.0,0.0450169168015942,0.04050181399732828,-0.02456979311108589,-0.4795887027131393,-2.4164988321602343,-9.503932543072104,0.4246117031215216,1.23531398970403,0.5569828236292049,0.01666666753590107
364,6077.0,0.053892589435540136,0.04651595972031355,-0.0202776488751173,-0.46821624482739715,-2.4135063723459838,-9.498994502148031,1.2785371343191632,0.9474336824624515,0.7519562297376253,0.01666666753590107
365,6094.0,0.06656663143914192,0.004568623089790344,-0.00706102442741394,-0.4553474109040573,-2.4604925799265502,-9.484479654583334,0.6607655203551389,-0.392688119312396,0.8484230468105352,0.01666666753590107
366,6110.0,0.043503443498723204,-0.0060392801642417905,-0.009869067585468292,-0.4801872531281784,-2.472313658362627,-9.486873856243491,-0.08921641118638257,-0.6472938793517878,0.9724814802527693,0.01666666753590107
367,6126.0,0.012675393710471689,0.005294307015836238,-0.031930092746019365,-0.512359337936528,-2.460941200476885,-9.508870583996176,0.26710684716993993,0.24590986200890783,1.2932976000023837,0.01666666753590107
368,6144.0,-0.02941558917444199,0.02323006893992424,-0.04147591972649097,-0.5530608026918024,-2.4443317187204956,-9.518148115429282,1.0718637208842166,0.9087601908864873,1.6289573216440227,0.01666666753590107
369,6160.0,-0.07486983794737606,0.0019581483304500578,-0.050884384062886236,-0.5957075562959536,-2.468423080664873,-9.526976734051107,1.6800269662333254,1.2800822511754668,1.3062859517611034,0.01666666753590107
370,6177.0,-0.07567037720791996,-0.002809504462778568,-0.03759118724763393,-0.5931637170320376,-2.477999887305498,-9.51261210861206,2.4482578292157986,1.6414847423554724,0.7433384519957733,0.01666666753590107
371,6194.0,-0.062470850025489924,-0.011407821460068225,0.021563597032427786,-0.5734115168031305,-2.495208211737871,-9.451559381756185,2.9158316623405383,1.8801991067954775,0.49695298470505045,0.01666666753590107
372,6210.0,-0.05343958497103304,-0.03461772439479828,0.07869418200850486,-0.561590146106109,-2.5242379068672656,-9.393051078686117,2.34862415224553,0.685457614700087,0.4986043963803126,0.01666666753590107
373,6227.0,-0.046421303706802426,-0.052319677563011646,0.07223229251801967,-0.5550060550080612,-2.545935651673376,-9.39843861694336,1.3438633046969866,-0.3560462888493932,0.2614828267186691,0.01666666753590107
374,6244.0,-0.08350731791127472,-0.01926262661367655,0.04819441432654857,-0.5951089693482965,-2.513763274604082,-9.422080773815512,-0.32418623113563405,-0.10711038623390527,0.06656023348241392,0.01666666753590107
375,6260.0,-0.08808445310108363,-0.011931845334172249,0.011072598156332969,-0.6003462489472702,-2.504635380774736,-9.459640396881102,-0.7850726153718437,0.8307542012013583,-0.38409267308747874,0.01666666753590107
376,6277.0,-0.0974592708962038,-0.000535129790008068,0.018982932889461516,-0.606182115493901,-2.4917665468513963,-9.452308154296874,-0.41817507692200434,1.9126329003995177,-0.3485549853924908,0.01666666753590107
377,6294.0,-0.06236954507548362,0.032570436476171014,0.041647769162058826,-0.566677824633941,-2.459295186835527,-9.42971229160726,0.33756094214970905,0.9566910433870518,-0.18138151642308015,0.01666666753590107
378,6310.0,-0.01732468082103878,0.06367956822812557,0.04421791191101074,-0.5225347315248101,-2.431312954932451,-9.426271211242675,1.055349710853301,-0.7802322524061261,-0.10737636340513909,0.01666666753590107
379,6327.0,0.010620799268223345,0.07380494866222143,0.030854572468996047,-0.4988919901307672,-2.425028175574541,-9.438391272625326,1.8270019650014218,-1.6990249239663042,0.11071749984803891,0.01666666753590107
380,6344.0,-0.02312704695686698,0.07024199548363685,0.0077519293010234825,-0.5379473681794479,-2.4356521531805395,-9.459340537151693,2.2157793207663095,-0.34644939281784926,-0.19557387578599972,0.01666666753590107
381,6360.0,-0.012239340380765497,0.07121463990807533,-0.012564298018813133,-0.5282209604676813,-2.4393933855354786,-9.478344512829183,1.7189730250458555,0.6793339232223474,-0.13262458455891435,0.01666666753590107
382,6377.0,-0.017072276962548493,0.04794920739382505,0.010514379751682281,-0.5313633501466364,-2.465131053382158,-9.454701771435142,0.5541137172909765,1.0338546786484477,0.12561008700301704,0.01666666753590107
383,6394.0,0.02005655347034335,0.03627279812544584,0.0339022696018219,-0.49230793556533753,-2.475904960852861,-9.431658164978026,-0.12896281609120738,0.6836570060801423,0.1901214638376255,0.01666666753590107
384,6410.0,0.020863632069528102,0.03819879775196314,0.05081014978289604,-0.4906619219239801,-2.472463295966387,-9.415197444042564,0.5207760975606731,0.11266140903842158,0.1763115950682266,0.01666666753590107
385,6427.0,0.04421140910498798,0.04231295507252216,0.06967091759741306,-0.4676177674775943,-2.47051800711751,-9.395745140075682,1.5918514652042823,-0.07558628844994611,-0.1463812792384076,0.01666666753590107
386,6444.0,0.053985674546472726,0.0569923455491662,0.07432546540498733,-0.45863943818677216,-2.4589959116280076,-9.390208548736572,1.904119923372743,-0.25735934013111195,-0.19516019577396437,0.01666666753590107
387,6460.0,0.043920974791049956,0.011882160973548888,0.06538695666790008,-0.4700119326051324,-2.5076281328499315,-9.39813934173584,0.3481024319991246,-0.4122089066819982,0.348354428626901,0.01666666753590107
388,6477.0,0.053464500216580925,0.020299276185035704,0.025341946527361867,-0.46178186439834534,-2.4976021211370822,-9.438540910229086,-0.9921954339098359,-0.2831373278323863,0.970018023118216,0.01666666753590107
389,6494.0,0.035081286785937846,0.041242695492506025,0.046583471998572344,-0.4806362024720758,-2.4732114839851853,-9.418190196117758,-1.1401737234339835,0.010123194123605149,1.2431290067749938,0.01666666753590107
390,6510.0,0.0021838833777233957,0.06666238343119621,0.029682606080174444,-0.5132572000917047,-2.4461270777046678,-9.43554815815389,0.897446089248067,0.3303122171300479,1.3745029997051348,0.01666666753590107
391,6527.0,0.011899623565003275,0.06740326492637395,0.04084346704185009,-0.5036803569184616,-2.4489701921761036,-9.42342751224935,2.192123600906205,-0.052729167114204216,1.1286686966639201,0.01666666753590107
392,6544.0,0.024938041901588437,0.03413052539974451,0.0798643948316574,-0.4906619584565982,-2.4874273486033083,-9.383025359234214,2.0058929436571065,-0.11914752742899493,1.0248667900309456,0.01666666753590107
393,6560.0,0.01308470516372472,-0.029063012877106664,0.14471125327348708,-0.5024833291536197,-2.5549136156380174,-9.317035760498046,0.5319230730078397,-0.255921211784854,0.8058097633830901,0.01666666753590107
394,6577.0,0.03345766763947904,-0.05105915610790252,0.16376140618026255,-0.48437710603345185,-2.575713242560625,-9.298180837902427,-1.2056185683486358,-1.57670018463449,0.7676965074016255,0.01666666753590107
395,6594.0,-0.0021154943166300654,-0.03413637061864137,0.1250391690760851,-0.525228208392486,-2.5525197062388063,-9.338283715710043,-2.7585221604713897,-2.445749655686523,0.5603037896697121,0.01666666753590107
396,6610.0,-0.01347180478516966,-0.011454875472187995,0.06359013637900351,-0.5437832712586969,-2.518551970185339,-9.402328610119223,-3.274058649165017,-2.045095241285218,0.46420783052439285,0.01666666753590107
397,6626.0,0.01471902836728841,0.07841653411090374,-0.0007037643551826477,-0.5208887178834527,-2.421137890137732,-9.46831879337728,-2.478724741782287,-1.0659846355561282,2.0854236663527352,0.01666666753590107
398,6644.0,-0.09520688885953277,0.05072393280416727,-0.05357493832111358,-0.6316205811982974,-2.446575990515947,-9.521739417919516,-0.28359505722848294,0.785371329426326,2.0146616258909336,0.01666666753590107
399,6660.0,-0.011979301205091178,0.09909837987273931,-0.038428807115554804,-0.5461775094514713,-2.401385434180498,-9.50587783192098,1.7076947819005777,1.220036564078004,0.7211776897902554,0.01666666753590107
400,6677.0,-0.0009200374543666839,0.043155835637450214,0.011385317367315292,-0.5324108133729547,-2.465879533661902,-9.453953583416343,1.8274956596123666,-0.01325814423093522,1.3059765655360431,0.01666666753590107
401,6694.0,0.03618577742911875,0.015419687449932098,-0.0033808746099472046,-0.49904159120190883,-2.497153792847693,-9.46757060535848,0.5111120202153397,-1.552742335625318,1.3947259091770732,0.01666666753590107
402,6710.0,0.05077979117725044,0.007957973267138005,0.04293605540692806,-0.48856695893872526,-2.503438279944658,-9.421332585796714,-0.6330529882931641,-1.0166705630269304,1.4966241140223182,0.01666666753590107
403,6727.0,0.0010386223327368497,0.012197218272089957,0.05702595555782318,-0.5416883448060602,-2.493861473304033,-9.408464336395262,-1.1484606638879131,0.8953142164533767,1.487855538510197,0.01666666753590107
404,6744.0,-0.014079671017825602,-0.0036529695495963093,0.07726444146633148,-0.5547068163331598,-2.504934363721311,-9.389609413799644,-0.7991259963934094,0.7277269874306513,1.1435866835848743,0.01666666753590107
405,6760.0,0.024415844658389686,0.01745733075737953,0.06437339571118354,-0.5150528513368219,-2.481890465003252,-9.403076798138022,-0.3095062069381461,0.5337302983735428,0.6097362165706216,0.01666666753590107
406,6777.0,0.02285897060520947,0.00036941783428192136,0.12252630947232246,-0.5159506404267624,-2.4982006715521217,-9.345167045482993,-0.015229294136718587,-0.08169877414857861,0.6018562593416896,0.01666666753590107
407,6794.0,0.06032843116931617,-0.010995149005949497,0.11932137595117091,-0.47899015229810027,-2.509124801148474,-9.348459072765708,-0.5384059363863868,-0.25484705781616374,0.4806431332972947,0.01666666753590107
408,6810.0,0.056997569713555275,-0.025358605401217937,0.11631810248196124,-0.483628918014653,-2.5215444299995897,-9.351900737652182,-1.129500912525604,-0.5655160244192252,0.44650923623972955,0.01666666753590107
409,6827.0,0.053263168958202003,-0.041728140921890734,0.03007832739949226,-0.4909612336641177,-2.532767250281572,-9.439289682769775,-1.8230018220253215,-0.7498304400801646,0.5409161376280722,0.01666666753590107
410,6844.0,0.03760232969615608,-0.025291093122959137,-0.010272972211241722,-0.508019920492731,-2.512416536170244,-9.48058907688558,-1.3145610461056914,-0.2436634768239141,0.4483303087467577,0.01666666753590107
411,6860.0,0.0028809987964108583,-0.003713467565178871,-0.03811374981701374,-0.5425862069612368,-2.4886241571724415,-9.509020221599936,-0.6583164706508662,0.3473271788479017,0.44573526374897604,0.01666666753590107
412,6877.0,0.02105480726007372,0.002394493921101093,-0.07143325109481811,-0.5214872682984918,-2.4835364786446092,-9.542239769634604,0.5509022477206011,1.0250742570269848,0.43130147320715234,0.01666666753590107
413,6894.0,0.025341983059979974,0.022904197986423968,-0.03162731040716171,-0.5135564752992242,-2.4672259798347946,-9.501538925933838,1.708902764888318,1.2183152496854548,0.7807365124659434,0.01666666753590107
414,6910.0,0.018356361956335603,0.01042816277295351,-0.009299743264913559,-0.5177463282044976,-2.4847335794746876,-9.478045237621664,1.8032630022108076,1.0333938543228833,0.583730271305798,0.01666666753590107
415,6927.0,0.016764453122392296,-0.01576689345240593,0.04077566250264644,-0.515651438284479,-2.516456751471758,-9.426719539532066,1.1532166099843575,0.8120354274507038,0.45066335195684604,0.01666666753590107
416,6944.0,-0.02979618598986417,-0.01287204879373312,0.06077157182693481,-0.5606923570161685,-2.5146613924875854,-9.406518463024497,0.28169701169115985,0.5254002423504776,0.13484689065904112,0.01666666753590107
417,6960.0,-0.019325024325400588,-0.009668868838250636,0.07598433852791786,-0.548870949786529,-2.5113690729439258,-9.39140506504476,-0.04560485292305779,0.4486614661997976,-0.2009009164105072,0.01666666753590107
418,6977.0,-0.06632843876909464,0.017975217151641843,0.09042378276884555,-0.593612629843317,-2.4827882906258103,-9.377339130291341,-0.08324607879985095,0.9537388008400196,-0.6615227108576582,0.01666666753590107
419,6994.0,-0.08176288539674133,0.02751344534754753,0.11131751771569251,-0.6046857394563033,-2.4738100344002247,-9.356539503368735,0.24299521218273712,1.0132413811767609,-0.8810996322952281,0.01666666753590107
420,7010.0,-0.08221651091575623,0.021270751565694808,0.10895020406246185,-0.6022915743287652,-2.480543726569414,-9.35893370502889,-0.050217685212049376,0.8344541360190955,-0.9741020493550605,0.01666666753590107
421,7026.0,-0.09052110566347837,-0.005316226586699485,0.11444997052252293,-0.6090253030305728,-2.5070298746958373,-9.353546751293539,-0.6312196161095447,0.20444879947793215,-1.6722271036445824,0.01666666753590107
422,7044.0,-0.09818846195358782,-0.023550386935472487,0.10534662661254406,-0.6150107341157273,-2.5243875444710255,-9.362973920330404,-0.5251517408585654,0.06543737439524763,-2.558512023458614,0.01666666753590107
423,7060.0,-0.07814104163777083,-0.008333820842206477,0.0899725318700075,-0.5942111437257379,-2.507478495246172,-9.378836090850829,-1.197021708061117,-0.030713119541725932,-2.7551134691887302,0.01666666753590107
424,7077.0,-0.10608531615063548,-0.01533639308065176,0.0708498982489109,-0.622193375628814,-2.5115187105476853,-9.398737892150878,-1.7123769832983273,-0.23093403192342019,-2.331537580263097,0.01666666753590107
425,7094.0,-0.06886292568277567,0.008068740165233611,-0.01737549769282341,-0.5874774515565484,-2.4833868410408497,-9.48807095707357,-1.7132301166143442,-1.208097606852233,-2.732811194001346,0.01666666753590107
426,7110.0,-0.07749967499431222,0.006618249095976352,-0.047746086037158963,-0.5976527720795944,-2.4827879983648655,-9.51889630344808,-0.5591926032691157,-0.5706464569812568,-2.817787498456179,0.01666666753590107
427,7127.0,-0.09346388111710548,0.03947860842943191,-0.053609425112605094,-0.6141129450257867,-2.45106511862874,-9.524432894787191,0.3631955759196925,0.22481119421932688,-3.103798681742701,0.01666666753590107
428,7144.0,-0.048426579114608466,0.02943359975516796,-0.06015197862386703,-0.5668274987703189,-2.4648317781746387,-9.530119708251952,1.052752851586521,0.5888989102384994,-2.7871526059247906,0.01666666753590107
429,7160.0,-0.05490523707680404,0.021565350598096847,-0.022169746232032776,-0.5705683657990768,-2.4762045283213254,-9.491362984356284,1.129526739178403,0.6396176538591927,-2.76533698171577,0.01666666753590107
430,7177.0,0.012976459016278386,-0.025030104099214075,0.013518237742781639,-0.5008372424470261,-2.5257345751658082,-9.45500104664266,1.034218813108574,0.44230522812516027,-2.787365409006119,0.01666666753590107
431,7194.0,0.03147591923773289,-0.028683073648810384,0.11028174492716789,-0.48078576701059933,-2.5321684076055884,-9.357586966595052,0.5337986536260958,-0.22754908622029707,-2.8554470271055137,0.01666666753590107
432,7210.0,0.06507270308695733,-0.056767889143526554,0.11364157674908637,-0.4484640811311081,-2.560300861634314,-9.354145301708579,-0.2568813069304904,-1.531992434370231,-3.077645460523899,0.01666666753590107
433,7227.0,0.10413546072449535,-0.05297317303568125,0.10686638352572918,-0.4125510927613824,-2.5543153574839232,-9.361327906689047,-1.0514618391116828,-1.9230544884124878,-3.727569763118935,0.01666666753590107
434,7244.0,0.0861541426256299,-0.034818215402960775,0.08462766371071338,-0.43290180687271057,-2.5326176126778126,-9.384372682189941,-1.7527265392635891,-1.2908006322522152,-3.5059222271457933,0.01666666753590107
435,7260.0,0.07627908369079232,-0.004201251082122326,0.032035891208052635,-0.4426282511170953,-2.497752051001787,-9.438091997417807,-1.0598432282752288,-0.44152909451986466,-2.6968910157128376,0.01666666753590107
436,7277.0,0.12070903091728687,0.02064063696861267,0.02781798125207424,-0.3965398326264694,-2.4733611215889453,-9.44228185032308,0.12116902329948069,-0.4374879170478914,-1.9762687056794688,0.01666666753590107
437,7294.0,0.10634235965162515,0.025430209332704543,0.01426233410835266,-0.4113539553986862,-2.4705182993784547,-9.45530032185018,0.47520347459276135,-1.3029817410284041,-1.2628898112608986,0.01666666753590107
438,7310.0,0.14734941975735127,-0.026896190232038496,0.006238602128624916,-0.3739445909913629,-2.525285370093584,-9.46248292683065,-0.3299460282770853,-2.6483533435932,-1.6042121866113013,0.01666666753590107
439,7327.0,0.1249014776384458,-0.02553922266513109,-0.05089724354445934,-0.4008793231355026,-2.522890876172483,-9.51964449146688,-1.3475931215923422,-3.2550965499251805,-1.663062590604012,0.01666666753590107
440,7344.0,0.09949030179977417,-0.026632278598845004,-0.1043248823493719,-0.43215358232129364,-2.520497259034216,-9.573663666424155,-1.7208636000637738,-2.646616767996724,-1.2915633722834352,0.01666666753590107
441,7360.0,0.06545140020623803,0.04842997664809227,-0.12227964123487471,-0.46866512110605835,-2.441488311988115,-9.592518004497885,-0.43385839187554365,-0.607337859676595,-0.21164931296700654,0.01666666753590107
442,7377.0,0.04636811221484095,0.08163315806984901,-0.09657236852645873,-0.4854245692597702,-2.409465864783525,-9.566630699047446,1.2117425799914927,0.3081368340508379,0.48001918484444345,0.01666666753590107
443,7394.0,0.051061822989024216,0.10164981792122126,-0.0670984367609024,-0.47899018883071837,-2.394951017218828,-9.535805352672934,2.846691364919792,0.2214059180312524,1.0589529558056001,0.01666666753590107
444,7410.0,0.06128774118814617,0.06878858180493116,0.01771101325750351,-0.46761769441235806,-2.438944764985144,-9.448117716869712,3.9072314859337736,-0.6694321766382388,0.7578868082887534,0.01666666753590107
445,7427.0,0.07145257684979588,0.01845394057929516,0.14452011461555958,-0.4583401995118707,-2.4973028459295628,-9.319130102428794,3.2159288301297426,-0.9593585524230591,0.5762027625102093,0.01666666753590107
446,7444.0,0.057527731067501,0.008926526038348674,0.1636503470212221,-0.4748002993928268,-2.5125664660349485,-9.298330475506186,2.0588687446333718,-1.0850167442349572,0.8534001202813588,0.01666666753590107
447,7460.0,0.03007682956214994,-0.03955079688280821,0.19894027158915994,-0.5063738337861373,-2.5597017266973854,-9.263165638622642,-1.1131796418953295,-1.6607893115491614,0.2854972649123315,0.01666666753590107
448,7477.0,-0.009016250148415565,-0.04937660984843969,0.18088029876351355,-0.5478234500275925,-2.562096220618486,-9.28306743992269,-2.9185340693743362,-1.976597195089864,-0.3479566501490271,0.01666666753590107
449,7494.0,-0.0004716360997408628,-0.019001929850876332,0.08905074084997176,-0.5458781611787155,-2.523340373505652,-9.376740579876303,-2.940659399973535,-3.2151224409208576,-0.6941328087196494,0.01666666753590107
450,7510.0,-0.00831668704431504,0.0715884416565299,0.10344751499295234,-0.5556045688904822,-2.4271231020271777,-9.363722108349204,-1.8142988803622557,-0.36753114521706387,-0.6424708586632597,0.01666666753590107
451,7527.0,-0.021344985845685005,0.06947159563302993,-0.04983633631467819,-0.5669770633088425,-2.4269734644234178,-9.517699202618003,-0.553335609334124,0.46499543671305993,0.2148164263284165,0.01666666753590107
452,7544.0,0.04091733599565923,0.07291852121651173,-0.014960253244638443,-0.5036803934510797,-2.424279987555742,-9.482684003338218,0.3484222769513516,0.1375968288725514,0.37119556838720213,0.01666666753590107
453,7560.0,0.06202643072623759,0.07384440388977527,0.021882161462306975,-0.4836289545472711,-2.426973172162473,-9.444825689586997,0.8464428789206132,-1.1383466478310051,0.48330840117748064,0.01666666753590107
454,7577.0,0.06911971345543862,0.023062603418529032,0.003603577449917793,-0.4824318171845749,-2.479945176154375,-9.46218365162313,0.3136268120396472,-1.958928562924099,0.7900947787633601,0.01666666753590107
455,7594.0,0.05290777964927256,0.006499006630480289,0.028241759622097014,-0.5032314441071823,-2.4962556749641895,-9.437343809399009,-0.10731742634312129,-1.2231648974395755,0.8946174837971825,0.01666666753590107
456,7610.0,0.021618286361731586,0.0006882745251059532,0.007865911069512366,-0.5380970423158258,-2.499098789435625,-9.458293073925375,-0.47131448227323247,-0.7852509473422046,1.3371620353475577,0.01666666753590107
457,7627.0,0.009822561562620102,-0.018699732033908366,-0.0036918402552604673,-0.5527615274842829,-2.515708563452959,-9.470414304351806,0.23424814109433087,-1.1343621929456547,1.415381148279132,0.01666666753590107
458,7644.0,0.006456409597769379,-0.015288754546642302,0.007881108638644219,-0.5584477564271539,-2.5127161036387085,-9.458592349132894,0.9281467223502164,-0.6519948104089021,1.0298446105537098,0.01666666753590107
459,7660.0,-0.015995331913419068,-0.03921294323056936,0.07423427999019622,-0.5810429980622605,-2.5392016672432423,-9.39155470264852,1.5998552729727735,-0.4243701652209117,0.9301303586955763,0.01666666753590107
460,7677.0,0.000849383370950818,-0.07901654583066701,0.07777531359791755,-0.566677824633941,-2.582596572333574,-9.386915936931967,0.40221551283304974,-1.7117318505868784,0.26576551541082577,0.01666666753590107
461,7694.0,0.0064990796957165,-0.08685352306663989,0.06538344953656196,-0.5657799624787643,-2.590377727729082,-9.399036582836509,-0.48105475891649374,-2.1972970423156664,-0.1459776310667157,0.01666666753590107
462,7710.0,0.016565971408225594,-0.06519143409579992,0.057930210921168325,-0.560243371139653,-2.5664354188665746,-9.406817738232016,-1.2829905243797173,-1.7804292529286319,-0.4468345239989514,0.01666666753590107
463,7727.0,0.022313063692860305,-0.014786357982456684,0.0376624989181757,-0.5584477198945358,-2.5119676233589647,-9.427916640362143,-1.105407420228384,-0.7628193254474133,-0.2824111933462493,0.01666666753590107
464,7744.0,0.05149838777538389,0.012309738735854624,0.05021978267431259,-0.5303159234529361,-2.483536770905554,-9.415646356853841,-0.200536248341852,0.011009304446708522,0.19365461930965258,0.01666666753590107
465,7760.0,0.06510992982480675,0.026848259437084198,0.14280045121610163,-0.51744701646436,-2.4712661951363084,-9.322422129711509,0.6598195391550921,-0.492129643851405,0.6541786566743079,0.01666666753590107
466,7777.0,0.06274721928145736,0.03246171540468931,0.16613748766183853,-0.52388143342603,-2.4681238054573535,-9.298180837902427,0.39770406616455056,-2.6067841719742675,0.41629413353803274,0.01666666753590107
467,7794.0,0.0950612698437646,-0.019458733707666397,0.10282324561476706,-0.5041292697297409,-2.5210958094492555,-9.36043008106649,-0.8469304370334758,-4.507554314445942,-0.5297207638873338,0.01666666753590107
468,7810.0,0.049815841515921055,0.031394086173176766,0.07534896323382854,-0.5578491694794967,-2.4679744601145384,-9.387963400158286,-1.7056755005054869,-3.0318035786923008,-0.15973488603516434,0.01666666753590107
469,7827.0,0.027454262506216763,0.02525602180957794,0.0355056131452322,-0.5849335757600144,-2.4685727182686326,-9.428964103588461,-2.8071464906161223,-1.352948096623338,0.7864093047367564,0.01666666753590107
470,7844.0,0.01028795058466494,0.010225918199121952,-0.03483107488453388,-0.604386500781402,-2.4739596720039843,-9.501687979015708,-2.6255420058692382,-0.610911382633834,1.2888656610046918,0.01666666753590107
471,7860.0,0.03180588184446096,0.03586450958549976,-0.026249124500155447,-0.583736438397318,-2.4444810640633103,-9.494056461223959,-0.8439453242010628,-1.0153725069195105,1.030573626525903,0.01666666753590107
472,7877.0,0.06506210862770677,0.0502279659807682,-0.03426116604208946,-0.5538089907106012,-2.431313247193396,-9.501538341411948,1.2067443756229244,-1.912100999417903,0.6154887833165061,0.01666666753590107
473,7894.0,0.0414626218535006,0.05262421346753835,-0.035139702442288395,-0.5814919474061578,-2.4358020830452443,-9.500341825103758,2.722007328838267,-0.19723761381827962,1.540536040526565,0.01666666753590107
474,7910.0,-0.0017244857050478458,0.05759323405176401,-0.006000701719522476,-0.6232409119203687,-2.437597734290361,-9.469515894207358,3.346190569442229,2.0048035284844894,2.792697865757195,0.01666666753590107
475,7927.0,-0.019982465320825576,0.054609542065858836,-0.0243646259278059,-0.6362592373169959,-2.448521279364824,-9.486125668224691,3.7500060807687805,4.11318516818493,3.655792158904917,0.01666666753590107
476,7944.0,-0.0934126623865217,0.17363865707218645,0.14669570508897303,-0.6838439953126013,-2.346318795996904,-9.312246772655843,7.530294658996459,9.312678626688184,2.5655208647641046,0.01666666753590107
477,7960.0,-0.13593100383803247,-0.1526294790521264,-0.07819850744605064,-0.707786048446782,-2.693029416169226,-9.532813185119629,10.76052334392727,7.270125923321504,4.5562270962451,0.01666666753590107
478,7977.0,-0.018934709833562373,-0.07825725189596414,0.006035773032903671,-0.5759553195344284,-2.646342191535234,-9.441982575115562,12.409281490696864,6.009765629931037,0.6542186773139759,0.01666666753590107
479,7994.0,0.12995134490653873,0.1196203588977456,0.07279518709778786,-0.4109051156526431,-2.48623024777323,-9.36581703480184,11.731564508038812,4.346834840633665,-1.4868297294742256,0.01666666753590107
480,8010.0,-0.005063347804173827,-0.026152093866467475,0.18014847735762596,-0.536002115863189,-2.6559192904368043,-9.252391731151938,10.059702392628003,4.287048914168074,0.46520754610330056,0.01666666753590107
481,8027.0,-0.05112191914580762,-0.02416325813680887,0.1215004735559225,-0.577451695572026,-2.671930221778154,-9.306261268505454,6.270789846799537,1.5047807472734887,0.7239395408141736,0.01666666753590107
482,8044.0,0.06239391233175993,0.017462299193441867,0.09343699311017989,-0.4635775156434625,-2.638112123328447,-9.332148573955893,1.9666281071094074,2.0120358450418867,1.2990760467619202,0.01666666753590107
483,8060.0,-0.02433784751873463,-0.02609130358994007,0.0840694453060627,-0.540491243975982,-2.6780653635323044,-9.343072703552245,-3.0275528531510254,4.721048525540793,1.3091175987806027,0.01666666753590107
484,8077.0,-0.09906827699542045,-0.025757833851873874,0.13557283805012701,-0.6025908495362847,-2.6645982714548704,-9.29593685836792,-6.274119564019918,4.860941045026409,0.8626301070884261,0.01666666753590107
485,8094.0,-0.013030819552019238,-0.11599018570184708,0.05891513030529022,-0.5062242327149957,-2.737621129828691,-9.377937680706381,-7.708093874602,3.906977915160837,-0.1631930161480271,0.01666666753590107
486,8110.0,0.05071578603032976,-0.0459776150599122,0.11709493207335471,-0.4318543436463922,-2.6458935709849,-9.326312707409262,-6.439780252809877,2.460982044752709,-0.6052517704936851,0.01666666753590107
487,8127.0,0.06281798296272754,-0.024141630826890467,0.10856968031227587,-0.41374815705884244,-2.612075180274248,-9.338433353313803,-3.784472069094311,1.7844339849380808,-0.8196616538241404,0.01666666753590107
488,8144.0,0.09947130483835935,-0.0031011808857321736,0.0630114597082138,-0.37454310487378384,-2.585739254273474,-9.385569198498128,-2.1363489164741156,0.3607878808764101,-1.6118977502531524,0.01666666753590107
489,8160.0,0.09248970232270658,-0.0340676892966032,-0.1046913775742054,-0.3820249850617721,-2.6153674998179075,-9.553612812042235,-0.16261118274831984,-0.2753070495574956,-2.460555798259818,0.01666666753590107
490,8177.0,0.0751177482938394,-0.0025783260554075238,-0.08635024971961974,-0.3953428048616275,-2.589779177314043,-9.533860063824058,3.3275469277724445,2.5844648213139583,-2.850997585748073,0.01666666753590107
491,8194.0,0.006814721516147255,0.13913579122871159,-0.031163200026750562,-0.4517561084138229,-2.4622879389107224,-9.47535176075399,6.282743958507528,4.681057341063545,-2.3879203649747294,0.01666666753590107
492,8210.0,0.09442742891963571,0.022283143478631973,-0.05845452705621719,-0.34686018471084534,-2.6060896761238572,-9.496002334594726,9.234460154086845,4.0462326657327035,-0.6486019139386981,0.01666666753590107
493,8227.0,0.11424630117658525,0.052740825584530825,-0.05856149456202984,-0.3166333887513727,-2.5996552591621875,-9.489867192840576,10.327925628881696,3.5864072553345197,0.31116108706884615,0.01666666753590107
494,8247.0,0.14361370382774621,0.10084025510400534,0.04422667973935604,-0.27937366194780916,-2.5761621553719043,-9.380481519970298,10.517458255707671,2.316345105114873,0.6727984994037031,0.01666666753590107
495,8260.0,0.14003887754827737,-0.005926175178587436,0.09048632661104201,-0.2766801120148972,-2.7126316500008105,-9.326014016723633,8.889190676448115,0.6612609225133763,0.1506254013741375,0.01666666753590107
496,8277.0,0.17686890769768504,-0.02938479217737913,0.048748541077971455,-0.2407670871125534,-2.7530338030159474,-9.362824282726645,6.707977875854183,-0.8196655491664013,-0.24630147730827284,0.01666666753590107
497,8294.0,0.13668686370663344,-0.022730594985187053,0.11292086125910282,-0.2843117028718814,-2.756775035370886,-9.29548736103475,3.9958002564486215,-2.3003978940633627,0.4701916632067058,0.01666666753590107
498,8310.0,0.15373217959702015,-0.017215630955994127,0.11003799929916858,-0.2747348962312564,-2.756924380713701,-9.296385186657309,2.0787842955926594,-4.210981951155288,0.8784966898912187,0.01666666753590107
499,8327.0,0.17049780176319182,0.07789806319475173,0.25298633455336095,-0.27323844712842255,-2.663850083436072,-9.152134536632895,1.1337769311111492,-6.1330479831288285,0.5735729262363428,0.01666666753590107
500,8344.0,0.07833608928583562,0.05648293472230434,0.36537586541473865,-0.3782840084351599,-2.688240720587969,-9.038260320171712,2.2621492615981142,-7.745894702789789,-1.9903380415960488,0.01666666753590107
501,8360.0,0.232503993418999,0.16390315273851155,0.346281288844347,-0.24375980265513061,-2.5900784525215625,-9.053672993358969,5.081515600969624,-11.997817234716956,-5.868176235323496,0.01666666753590107
502,8377.0,0.2721762977896258,0.20639584829211233,0.3212666745752096,-0.23552980751357971,-2.57257085288167,-9.069684216961264,8.193690442512288,-12.507147856219392,-14.1548558614041,0.01666666753590107
503,8394.0,0.23841672459412364,0.6233849965661764,0.4233826487034559,-0.2756326122559607,-2.1788740251287817,-8.960299128612876,8.754828902642917,-4.7662076018988015,-24.613713655354,0.01666666753590107
504,8410.0,0.1833946927372366,0.8758937767356634,0.5016904617428779,-0.3166334618166089,-1.950676971656084,-8.875454607281089,7.792936776924606,-2.1820326367377456,-28.766407199019223,0.01666666753590107
505,8427.0,-0.013297617262043059,0.2174050258234143,-0.04087912287712097,-0.49126039927378296,-2.6331743746653196,-9.411905416759849,3.7172920359653583,-1.585634819120807,-28.0985000755566,0.01666666753590107
506,8444.0,0.07059683680329472,0.14519728322476147,0.0005558803170919418,-0.38860903962720184,-2.71293092520833,-9.369109062084554,0.06958594058366346,-0.1690334148577698,-24.887628146733608,0.01666666753590107
507,8460.0,0.008149769512191414,0.15675181967914104,-0.001925415104627609,-0.4329017338074744,-2.6996131784737107,-9.372999639782309,-3.5102480847679387,1.835254327622678,-18.974786316219635,0.01666666753590107
508,8477.0,0.05496456604860723,-0.08144055810719728,0.11361176613271236,-0.3643676747528836,-2.9218253123179077,-9.2633152762264,-7.465617890198316,0.15376506057673517,-14.83592390562369,0.01666666753590107
509,8493.0,0.24721155054420232,-0.26984540715664623,0.07265665540993213,-0.16520006068125367,-3.090765582440793,-9.310451121410727,-9.223606983495694,-2.9728620343628522,-13.598978354481673,0.01666666753590107
510,8510.0,0.2426795331377536,-0.23740736488848924,0.16305530373752117,-0.17268194086924193,-3.0373452501595017,-9.226205150493978,-8.522412933113015,-7.20494115920384,-13.23995202208089,0.01666666753590107
511,8527.0,0.26769093253649767,-0.10006050290316343,0.33416473459303375,-0.15592249271553008,-2.8803754038155076,-9.060556323131918,-3.942325424776122,-5.688772352149825,-14.73010207726539,0.01666666753590107
512,8544.0,0.25242804308347405,-0.09687427408248185,0.1780979745686054,-0.17492654145825653,-2.8755870004951953,-9.216927619060874,1.6034702573127086,-5.8822267882198584,-15.183512232485638,0.01666666753590107
513,8560.0,0.1297141020845622,-0.19233517423570154,0.085545947599411,-0.29673147785346954,-2.985570639258623,-9.305213805279136,8.678344444317114,-1.9319702331568818,-14.274941686070324,0.01666666753590107
514,8577.0,0.04869834526069462,0.001853226651251316,-0.011073182678222656,-0.3600281842438504,-2.837728979004919,-9.388711588177085,17.71173748961712,4.862193957852283,-14.039475183302367,0.01666666753590107
515,8594.0,-0.012985592170804739,0.030395722785592078,0.02608078219592571,-0.3951930211273953,-2.860174327307939,-9.337086614879965,22.042354046066592,7.327446578383543,-13.93322219925271,0.01666666753590107
516,8610.0,-0.0025998803000897167,0.01127250464260578,-0.036377135282754894,-0.35419231769721954,-2.9379858812630175,-9.382426808819174,24.555824387043558,9.227818648892653,-14.504895372404436,0.01666666753590107
517,8627.0,0.030946525068767366,-0.1892152886494994,0.10398702869713305,-0.2856582586426288,-3.203293060468137,-9.222613848003745,27.159193677876228,9.364865540815313,-13.308665432678511,0.01666666753590107
518,8644.0,-0.02997813669433817,-0.3427554528057575,0.07857201693356036,-0.3063083027604036,-3.4498961237251757,-9.21872327030599,28.417427221113883,8.335240136645279,-10.117232222233374,0.01666666753590107
519,8660.0,-0.020882683829870075,-0.37239100487381216,0.007872925332188606,-0.26665430123144757,-3.547310203772783,-9.267356076049804,26.38436165050435,11.790943611361964,-7.273802272642263,0.01666666753590107
520,8677.0,-0.0009605521278455853,-0.4175573035508394,-0.06526654515862465,-0.20425538393100723,-3.65460065792948,-9.320027928051353,24.519873686347196,19.933826837959465,-3.633115930860475,0.01666666753590107
521,8694.0,-0.2678612841347232,-0.5129360783785581,-0.1786871726334095,-0.3818753017922398,-3.8298257074102757,-9.406668100628256,25.71925319705414,35.2135286245264,8.111144191298099,0.01666666753590107
522,8710.0,-0.3789975635319948,-0.4914736036330461,-0.3095470106869936,-0.4104560955267981,-3.876213949097693,-9.51350993423462,30.825203799779487,41.202235073698986,15.863483177569794,0.01666666753590107
523,8727.0,0.02908469955252949,-0.3782151809826493,-0.3873357682883739,0.08005597188100218,-3.8449393976509567,-9.560645779418945,36.95854633481627,37.9758517852709,17.293115195387042,0.01666666753590107
524,8744.0,0.5226731901474296,-0.6411436483576893,-0.49063715280890463,0.6385034999792929,-4.234446372498572,-9.614514732250571,39.00569063285249,10.09517327253517,20.641536888810336,0.01666666753590107
525,8760.0,0.6835613789789379,-0.7083116432234644,-0.6496534102886915,0.7586625551638891,-4.383934046393633,-9.741108145031333,27.480361125481277,-23.98391215727088,24.65880997934901,0.01666666753590107
526,8777.0,0.8044730197962373,-0.40143940470367667,-0.23538462688922882,0.7733270585986552,-4.121619619263709,-9.308954745373129,9.702852329251517,-40.43378756565378,24.804917970979336,0.01666666753590107
527,8794.0,0.3044514776462689,-0.5594125828713178,0.5693447788208723,0.1262939366438426,-4.280983667267859,-8.501959148296713,-7.2012212674271225,-31.502509263540045,23.41317813513003,0.01666666753590107
528,8810.0,0.1573158102374524,-0.6457081797942519,0.5235457351982593,-0.11342550457930192,-4.340090520752966,-8.556576873669028,-13.653652311240332,-27.618467550498934,21.887971280256796,0.01666666753590107
529,8827.0,-0.20387031186986712,-0.7219944238781929,0.2967009731173515,-0.5566519955841824,-4.379444918280839,-8.795547542351484,-15.192090950083173,-23.89799520770129,20.23908335989297,0.01666666753590107
530,8844.0,-0.2799769250705838,-0.5097334829449653,0.21248247472941875,-0.7266403499878943,-4.118177662116289,-8.895206770977378,-13.07459826491676,-21.566254002423562,15.15828834388078,0.01666666753590107
531,8860.0,-0.21393873795233664,-0.40212709470689295,0.20105214917659758,-0.7288848775116726,-3.9818578050911424,-8.914360384258627,-9.428754276537965,-25.45974698972868,10.503151570717433,0.01666666753590107
532,8877.0,-0.269933012374863,-0.41679625605046744,0.21552491116523742,-0.8581718402253463,-3.977667952185869,-8.902838873291016,-5.253184721795078,-28.669746361885203,7.203969564794407,0.01666666753590107
533,8894.0,-0.38671485991105436,-0.4211366233423352,0.18169103062450884,-1.0512043856080622,-3.9743759249031543,-8.934411823162437,0.08736804460310076,-28.975250478176118,7.4394147232212084,0.01666666753590107
534,8910.0,-0.7083517560381442,-0.46694531157612795,0.34312720872759817,-1.469441488116607,-4.0315377818003295,-8.760982424926757,8.144810193717092,-22.65950603380685,15.145894965631793,0.01666666753590107
535,8927.0,-0.8749485317748039,-0.2536775316879153,0.7134983982115983,-1.7060185396607965,-3.8380560678780076,-8.37671305847168,11.852067828018054,-19.33188738904812,26.626969969823204,0.01666666753590107
536,8944.0,-0.6439456271011382,-0.08511427818387746,0.9944202029168605,-1.5442602169312536,-3.6935061426460742,-8.079681830486654,13.50030688041073,-15.51271881274379,29.875595769283443,0.01666666753590107
537,8960.0,0.6267311651889235,-0.1622784741461277,1.2880939371675253,-0.3525464136537164,-3.803489781409502,-7.764694674572348,11.450677247290269,-17.59051699977503,14.818240545862526,0.01666666753590107
538,8977.0,1.0192619448371232,-0.5115332258433103,1.068005079087615,-0.02079984611831605,-4.172197129334509,-7.970147104534506,6.445448456047341,-25.98674218797206,5.752536863806949,0.01666666753590107
539,8994.0,0.6569966126583516,-0.8136927566275,0.8912819000035523,-0.45848983711563046,-4.479103854645788,-8.135945569500327,-1.6574035654332449,-32.559470792315764,5.327224399284839,0.01666666753590107
540,9010.0,0.020936697305738924,-1.0533519920960068,0.731192460334301,-1.2089223469056187,-4.69233714774251,-8.291867952618002,-12.973424380288654,-31.30518168332379,9.552266294846598,0.01666666753590107
541,9027.0,-0.10733064003661275,-1.082991928078234,1.0522539677262306,-1.4139258640564978,-4.678420850592851,-7.977479347118734,-20.64824584212258,-24.088496013842114,12.283616255252385,0.01666666753590107
542,9044.0,-0.056864189124852416,-1.062544183333218,0.9946014047026633,-1.4248494091309607,-4.59597053092122,-8.05050191323161,-27.266685487486598,-17.218410001340025,13.239991295668618,0.01666666753590107
543,9061.0,0.1187811315946281,-1.2071128132656217,1.0161194090276955,-1.3075335277833045,-4.639365436011553,-8.058882203564048,-31.442249919587606,-11.44808945936848,10.22808619246268,0.01666666753590107
544,9077.0,0.14102160497531294,-1.2351008903875946,1.0323457366853952,-1.3235447513855993,-4.5899850267708295,-8.065466258129478,-30.720555056411136,-15.513562341106287,3.550391881284454,0.01666666753590107
545,9094.0,0.14368424831330776,-1.1594751560389995,1.1082681158930063,-1.3673887154176831,-4.442442349463701,-8.008155055889487,-29.213268910372722,-24.105183873531747,-4.024989069866671,0.01666666753590107
546,9110.0,0.206276167435199,-1.3816758917063474,1.0911322721749543,-1.389834355981648,-4.577715035523474,-8.041673879131674,-28.7677561613803,-33.55422295813101,-12.060907692080365,0.01666666753590107
547,9127.0,0.14288301493301986,-1.573020593599975,0.9731593882232904,-1.523760011346638,-4.705205981665849,-8.169165117534995,-29.44856209709049,-33.68284908058069,-15.776393143010255,0.01666666753590107
548,9144.0,0.15919935896173118,-1.825090982352197,0.9838479554980992,-1.5670049865722655,-4.892252694104611,-8.169464392742514,-29.828443558348262,-23.598788525825125,-10.981456057915087,0.01666666753590107
549,9160.0,0.2017084211282432,-2.3537018919855357,1.1014216109991073,-1.5598225277222693,-5.348647970093786,-8.069058145141602,-32.59651773837391,-9.570405569734861,0.628055157450566,0.01666666753590107
550,9177.0,0.2519289344549179,-2.1776307470694185,0.9041700231492519,-1.5291469650819898,-5.050270295935869,-8.301594396862388,-39.47806651585057,2.1300013228576464,17.45457403717697,0.01666666753590107
551,9194.0,0.15906696475371718,-1.9748089578717947,1.0145587355822323,-1.6258127109803258,-4.735432777625322,-8.224680668529867,-43.594365396523386,8.359784421427719,27.226510314788584,0.01666666753590107
552,9210.0,0.3246776520624757,-1.5173413764759898,1.2483031940490006,-1.458069103296101,-4.154090687018632,-8.027458306774497,-46.09309448172417,9.638638305769641,31.70918395763546,0.01666666753590107
553,9227.0,0.5945690903179347,-1.4593848620697856,1.3153262274861335,-1.186476706341654,-3.9227506593450903,-8.008304693493246,-46.59463527247821,9.90684190522947,32.82092360355468,0.01666666753590107
554,9244.0,0.5688987886190414,-1.3883115303285418,1.4141536814630031,-1.204433218792826,-3.7273243872262536,-7.942913060650229,-41.11460716174231,13.870556921165134,33.09828392537056,0.01666666753590107
555,9260.0,0.17927841652482748,-0.9478671260565519,1.3476385975480079,-1.5707462189272046,-3.182493871936947,-8.039280261993408,-30.738822397346336,22.122875146191873,31.906006103853134,0.01666666753590107
556,9277.0,-0.18499430995360017,-1.0444586376748979,1.0138608164459466,-1.8553569412782787,-3.178154381427914,-8.410979485210776,-19.94661124453844,41.583936780370564,30.38431167376058,0.01666666753590107
557,9294.0,-0.5420568127922714,-1.1118657019935547,0.758915749040246,-2.110788184765726,-3.1955121973335743,-8.694542744335532,-10.197883949726531,50.420169585088985,24.290102707573382,0.01666666753590107
558,9310.0,-0.2647090671814978,-1.0852041973002253,0.7507160759717225,-1.7245736755922436,-3.149872874317318,-8.724320627483724,1.2853787427116945,43.54875680834063,15.263865992976253,0.01666666753590107
559,9326.0,-0.0828010328054428,-1.348598967012763,0.6973591643154621,-1.4362220131471752,-3.436578523121029,-8.788365521892905,15.304910307246152,24.400825196661167,1.452826273021552,0.01666666753590107
560,9344.0,-0.12040347209945321,-1.273268562348932,0.8311001107633114,-1.4276926697328687,-3.4099430296517905,-8.65025001362264,21.850717720976252,11.558295415400282,-5.580743092029142,0.01666666753590107
561,9360.0,-0.061586833732575175,-1.4606899533189832,0.9210545224547385,-1.3492825653627514,-3.653553048572689,-8.550142456707357,20.192381941443006,1.7057230983862655,-4.099520947863496,0.01666666753590107
562,9377.0,-0.10800181729644537,-1.8709961166977882,0.6710632780641317,-1.401057030133158,-4.110995203266293,-8.788365521892905,6.609730300398603,-2.963308307261297,3.746251184272566,0.01666666753590107
563,9394.0,-0.1122267415151,-1.9632542752869426,0.4267378043502569,-1.4142252853944897,-4.203620733863115,-9.031377574920654,-4.408625854507478,-0.9803675739797837,7.0181017613449646,0.01666666753590107
564,9410.0,-0.2614471427761018,-2.061000071506947,-0.14050386471152304,-1.5640125267580152,-4.279936057911068,-9.603591771697998,-9.936830704554058,4.207598873082016,5.5100877732731215,0.01666666753590107
565,9427.0,-0.3060631140939891,-2.1050132546260953,-0.3670078505307436,-1.5951370022095739,-4.29504916362986,-9.8386718626827,-12.31152611574835,6.446399133002442,-0.8681469255862394,0.01666666753590107
566,9444.0,0.0793343796081841,-2.1901785323448477,-0.9535901798784733,-1.2056304657533765,-4.337546389228105,-10.435576264080405,-15.66683690872325,-10.402548860658671,-11.03221631627933,0.01666666753590107
567,9460.0,0.056143327504396434,-3.242990572345257,-1.9819179130941629,-1.271620649011433,-5.3487973154366015,-11.467328126525878,-21.284694821815417,-28.81544454216533,-13.832996003371942,0.01666666753590107
568,9477.0,0.09382467725351452,-3.6070793205589053,-2.5917624600857496,-1.3120228020265698,-5.659145705634355,-12.077699327740072,-24.242948789090907,-36.837768099722936,-6.907386102446351,0.01666666753590107
569,9494.0,-0.26133389165997506,-3.5681504549667236,-3.837569161143899,-1.78427907949239,-5.549610979682207,-13.320439626964927,-16.02434437780735,-32.98890186090739,7.042659706505746,0.01666666753590107
570,9510.0,-0.6131812901988625,-2.8527888932317493,-4.33526207768321,-2.219574868829548,-4.806810060749203,-13.810053866466879,-1.7067461326578863,-29.0040670462844,10.750692994164329,0.01666666753590107
