,ms,accelX,accelY,accelZ,accelWithGX,accelWithGY,accelWithGZ,rotRateAlpha,rotRateBeta,rotRateGamma,interval
0,327.0,0.0,0.0,0.0,-0.8,3.4000000000000004,9.200000000000001,-5.4,3.1,0.30000000000000004,16
1,342.0,0.0,0.0,0.0,-0.8,3.4000000000000004,9.0,-4.1,3.8,1.1,16
2,359.0,0.0,0.0,-0.1,-0.8,3.4000000000000004,9.0,-3.5,3.1,2.1,16
3,378.0,0.1,0.1,-0.2,-0.7000000000000001,3.5,9.0,-4.6,1.2000000000000002,2.3,16
4,393.0,0.0,0.1,0.1,-0.7000000000000001,3.4000000000000004,9.4,-5.8,-1.7,2.0,16
5,409.0,0.0,0.1,0.2,-0.7000000000000001,3.4000000000000004,9.5,-4.6,-4.4,2.0,16
6,426.0,0.0,0.0,0.30000000000000004,-0.7000000000000001,3.3000000000000003,9.4,-1.6,-5.0,2.5,16
7,444.0,0.1,0.0,0.1,-0.6000000000000001,3.4000000000000004,9.3,0.2,-2.7,3.1,16
8,463.0,0.1,0.0,0.0,-0.7000000000000001,3.4000000000000004,9.200000000000001,-0.6000000000000001,0.0,2.4000000000000004,16
9,482.0,0.0,0.0,0.0,-0.8,3.3000000000000003,9.3,-3.0,0.6000000000000001,-0.2,16
10,494.0,0.0,-0.1,0.0,-0.9,3.2,9.3,-3.0,0.6000000000000001,-0.2,16
11,509.0,-0.1,-0.1,0.1,-0.9,3.2,9.3,-1.8000000000000003,-0.30000000000000004,0.2,16
12,526.0,-0.2,-0.1,0.0,-0.9,3.2,9.1,0.30000000000000004,-1.4,1.8000000000000003,16
13,542.0,-0.1,-0.1,-0.2,-0.8,3.3000000000000003,8.9,0.8,-0.7,2.6,16
14,559.0,0.0,0.0,-0.30000000000000004,-0.8,3.3000000000000003,8.9,-1.2000000000000002,0.8,2.2,16
15,579.0,0.0,0.0,-0.2,-0.8,3.2,9.1,-4.1,1.1,0.9000000000000001,16
16,595.0,-0.1,-0.1,0.1,-0.9,3.1,9.4,-4.7,-0.4,-0.1,16
17,610.0,-0.2,-0.2,0.1,-0.9,3.1,9.4,-2.8,-0.8,0.8,16
18,625.0,-0.2,-0.1,0.1,-0.9,3.2,9.200000000000001,-1.1,-0.30000000000000004,2.9,16
19,644.0,0.0,0.0,0.0,-0.7000000000000001,3.2,9.200000000000001,-1.3,0.2,4.1,16
20,659.0,0.0,0.0,-0.1,-0.7000000000000001,3.2,9.200000000000001,-1.8000000000000003,0.1,3.5,16
21,677.0,0.0,0.0,0.0,-0.7000000000000001,3.2,9.3,-2.4000000000000004,-0.8,2.4000000000000004,16
22,692.0,0.0,0.0,0.1,-0.8,3.1,9.3,-2.1,-0.7,2.2,16
23,709.0,0.0,-0.1,0.0,-0.7000000000000001,3.2,9.200000000000001,-1.6,0.8,3.4,16
24,726.0,0.1,0.0,-0.1,-0.6000000000000001,3.2,9.1,-1.6,0.6000000000000001,4.300000000000001,16
25,743.0,0.1,0.0,-0.1,-0.6000000000000001,3.3000000000000003,9.1,-2.0,-0.8,3.6000000000000005,16
26,760.0,0.2,0.0,0.0,-0.6000000000000001,3.3000000000000003,9.200000000000001,-1.9,-2.6,2.4000000000000004,16
27,783.0,0.1,0.1,0.0,-0.6000000000000001,3.3000000000000003,9.200000000000001,-2.8,-2.8,1.6,16
28,793.0,0.1,0.1,0.0,-0.6000000000000001,3.3000000000000003,9.3,-2.8,-2.8,1.6,16
29,809.0,0.0,0.1,0.2,-0.7000000000000001,3.2,9.4,-2.7,-1.9,1.8000000000000003,16
30,827.0,0.0,0.0,0.2,-0.6000000000000001,3.2,9.4,-1.7,-1.8000000000000003,1.9,16
31,842.0,0.1,0.0,0.1,-0.6000000000000001,3.3000000000000003,9.4,-0.8,-0.9000000000000001,1.5,16
32,859.0,0.1,0.1,0.2,-0.6000000000000001,3.2,9.5,-1.5,-2.5,0.30000000000000004,16
33,877.0,0.0,0.0,0.2,-0.8,3.1,9.5,-1.4,-4.300000000000001,-1.1,16
34,895.0,-0.1,-0.1,0.5,-0.7000000000000001,3.0,9.8,-1.6,-3.6000000000000005,-0.8,16
35,911.0,0.0,-0.2,0.5,-0.7000000000000001,3.0,9.600000000000001,1.9,-0.2,0.1,16
36,928.0,-0.1,-0.2,-0.1,-0.8,3.1,9.0,5.7,3.9,1.3,16
37,943.0,-0.1,-0.1,-0.30000000000000004,-0.7000000000000001,3.1,8.9,5.2,4.2,2.8,16
38,959.0,0.0,0.0,-0.5,-0.7000000000000001,3.3000000000000003,8.9,2.8,1.8000000000000003,2.4000000000000004,16
39,989.0,-0.1,-0.1,-0.2,-0.7000000000000001,3.1,9.0,1.2000000000000002,-1.9,1.4,16
40,995.0,-0.1,-0.1,-0.2,-0.7000000000000001,3.1,9.0,1.2000000000000002,-1.9,1.4,16
41,1012.0,0.0,-0.1,-0.30000000000000004,-0.5,3.2,9.0,1.8000000000000003,-1.9,2.7,16
42,1027.0,0.2,0.0,-0.2,-0.4,3.2,9.1,1.2000000000000002,-2.9,2.8,16
43,1042.0,0.2,0.0,-0.1,-0.4,3.3000000000000003,9.200000000000001,0.1,-4.300000000000001,1.3,16
44,1061.0,0.1,0.0,0.0,-0.5,3.2,9.200000000000001,-0.5,-2.7,-0.4,16
45,1082.0,0.0,0.0,-0.1,-0.6000000000000001,3.2,9.200000000000001,-1.3,0.8,-1.1,16
46,1092.0,0.0,0.0,0.0,-0.6000000000000001,3.2,9.3,-2.5,2.6,-0.6000000000000001,16
47,1112.0,0.0,0.0,0.1,-0.6000000000000001,3.2,9.4,-2.3,1.2000000000000002,-0.1,16
48,1127.0,0.0,0.0,0.0,-0.7000000000000001,3.2,9.200000000000001,-0.1,-1.3,-0.5,16
49,1142.0,0.0,0.0,-0.1,-0.7000000000000001,3.2,9.1,0.7,-2.1,-0.30000000000000004,16
50,1171.0,0.0,0.0,0.0,-0.6000000000000001,3.2,9.3,-1.0,-1.4,0.5,16
51,1188.0,0.0,0.0,0.1,-0.6000000000000001,3.3000000000000003,9.4,-1.0,-1.4,0.5,16
52,1203.0,0.0,0.1,0.0,-0.6000000000000001,3.3000000000000003,9.200000000000001,0.6000000000000001,-1.1,0.30000000000000004,16
53,1212.0,0.0,0.1,-0.1,-0.6000000000000001,3.4000000000000004,9.1,0.6000000000000001,-1.1,0.30000000000000004,16
54,1226.0,0.0,0.1,-0.1,-0.6000000000000001,3.4000000000000004,9.0,-0.5,0.2,-0.6000000000000001,16
55,1251.0,-0.1,0.0,0.0,-0.8,3.2,9.4,-2.4000000000000004,-0.9000000000000001,-2.5,16
56,1260.0,-0.1,0.0,0.2,-0.8,3.1,9.4,-2.4000000000000004,-0.9000000000000001,-2.5,16
57,1286.0,-0.2,-0.1,0.2,-0.7000000000000001,3.1,9.3,-0.2,-2.0,-1.7,16
58,1294.0,-0.1,-0.1,0.1,-0.7000000000000001,3.1,9.3,0.8,-1.6,-0.30000000000000004,16
59,1313.0,0.0,-0.1,0.1,-0.7000000000000001,3.1,9.3,0.1,0.4,0.5,16
60,1326.0,-0.1,-0.1,0.1,-0.7000000000000001,3.1,9.4,-0.4,2.5,0.6000000000000001,16
61,1342.0,-0.1,-0.1,0.1,-0.7000000000000001,3.1,9.3,0.2,1.8000000000000003,0.7,16
62,1359.0,0.0,-0.1,0.0,-0.6000000000000001,3.1,9.1,1.5,-0.2,1.4,16
63,1375.0,0.0,-0.1,-0.2,-0.5,3.1,9.0,2.0,-1.1,1.6,16
64,1392.0,0.1,0.0,-0.30000000000000004,-0.5,3.2,9.0,0.30000000000000004,-1.1,1.0,16
65,1410.0,0.0,0.0,-0.1,-0.6000000000000001,3.1,9.3,-2.1,-1.2000000000000002,-0.2,16
66,1426.0,0.0,0.0,0.1,-0.6000000000000001,3.1,9.4,-1.9,-2.4000000000000004,-0.6000000000000001,16
67,1442.0,0.1,0.0,0.1,-0.5,3.2,9.200000000000001,0.0,-1.8000000000000003,-0.8,16
68,1460.0,0.0,0.0,-0.1,-0.6000000000000001,3.2,9.1,-0.4,-0.5,-0.9000000000000001,16
69,1482.0,-0.1,0.0,0.0,-0.7000000000000001,3.1,9.3,-2.4000000000000004,0.7,-1.1,16
70,1494.0,-0.1,0.0,0.1,-0.8,3.1,9.4,-2.9,0.8,-0.9000000000000001,16
71,1511.0,-0.2,0.0,0.1,-0.8,3.1,9.4,-1.6,-1.9,0.0,16
72,1526.0,-0.2,0.0,0.1,-0.8,3.1,9.4,-1.6,-1.9,0.0,16
73,1543.0,0.0,0.1,0.1,-0.6000000000000001,3.2,9.4,0.8,-3.3000000000000007,1.2000000000000002,16
74,1562.0,0.0,0.1,0.1,-0.6000000000000001,3.3000000000000003,9.3,0.6000000000000001,-0.5,0.9000000000000001,16
75,1578.0,0.0,0.1,0.0,-0.6000000000000001,3.3000000000000003,9.200000000000001,-0.1,1.9,0.5,16
76,1602.0,0.0,0.1,-0.1,-0.6000000000000001,3.3000000000000003,9.200000000000001,-0.6000000000000001,1.9,-0.7,16
77,1610.0,0.0,0.1,-0.1,-0.6000000000000001,3.3000000000000003,9.200000000000001,-0.6000000000000001,1.9,-0.7,16
78,1626.0,0.0,0.1,0.0,-0.6000000000000001,3.2,9.3,-0.1,-0.8,-1.2000000000000002,16
79,1642.0,-0.1,-0.1,0.1,-0.7000000000000001,3.1,9.200000000000001,1.4,-2.5,-0.7,16
80,1664.0,0.0,0.0,-0.1,-0.6000000000000001,3.2,9.1,2.2,-1.7,0.6000000000000001,16
81,1677.0,0.0,0.0,-0.1,-0.5,3.2,9.1,1.6,0.30000000000000004,1.1,16
82,1698.0,0.1,0.1,-0.2,-0.6000000000000001,3.3000000000000003,9.1,0.0,1.5,0.30000000000000004,16
83,1710.0,0.1,0.1,-0.2,-0.6000000000000001,3.3000000000000003,9.1,-1.5,0.6000000000000001,-0.9000000000000001,16
84,1726.0,0.0,0.1,0.0,-0.7000000000000001,3.2,9.4,-1.7,-1.6,-1.6,16
85,1744.0,-0.1,0.0,0.1,-0.7000000000000001,3.2,9.4,0.0,-2.4000000000000004,-1.1,16
86,1759.0,-0.1,0.0,0.1,-0.7000000000000001,3.2,9.3,0.8,-2.1,0.1,16
87,1775.0,0.0,0.0,0.1,-0.5,3.2,9.3,1.1,-0.8,1.0,16
88,1792.0,0.1,0.0,0.0,-0.5,3.2,9.200000000000001,0.9000000000000001,0.4,0.30000000000000004,16
89,1811.0,0.1,0.0,-0.1,-0.6000000000000001,3.2,9.200000000000001,0.0,1.1,-0.5,16
90,1828.0,0.0,0.0,0.0,-0.6000000000000001,3.2,9.3,-0.7,1.0,-0.7,16
91,1844.0,0.0,0.0,0.1,-0.5,3.2,9.4,-0.2,-0.9000000000000001,0.0,16
92,1864.0,0.1,0.0,0.1,-0.5,3.2,9.3,1.4,-1.7,0.5,16
93,1880.0,0.1,0.0,0.0,-0.6000000000000001,3.2,9.200000000000001,2.3,-1.6,0.30000000000000004,16
94,1892.0,0.0,0.0,-0.1,-0.6000000000000001,3.2,9.1,1.5,0.0,-0.1,16
95,1909.0,-0.1,0.0,-0.1,-0.7000000000000001,3.2,9.200000000000001,0.0,1.2000000000000002,0.1,16
96,1926.0,-0.1,0.0,0.0,-0.7000000000000001,3.2,9.200000000000001,0.0,-0.1,1.0,16
97,1946.0,-0.1,0.0,-0.1,-0.5,3.3000000000000003,9.1,1.5,-2.6,1.7,16
98,1959.0,0.0,0.1,-0.1,-0.5,3.3000000000000003,9.1,1.9,-4.7,1.7,16
99,1979.0,0.2,0.1,-0.1,-0.4,3.3000000000000003,9.3,0.2,-5.500000000000001,1.3,16
100,1993.0,0.2,0.1,0.1,-0.4,3.3000000000000003,9.5,-1.5,-6.500000000000001,0.4,16
101,2009.0,0.2,0.0,0.30000000000000004,-0.4,3.2,9.5,-0.9000000000000001,-5.300000000000001,-0.4,16
102,2026.0,0.0,0.0,0.2,-0.6000000000000001,3.2,9.3,-0.5,-0.30000000000000004,-1.2000000000000002,16
103,2042.0,-0.1,0.0,0.1,-0.7000000000000001,3.2,9.1,-0.6000000000000001,6.8,-1.2000000000000002,16
104,2062.0,-0.30000000000000004,0.0,-0.30000000000000004,-1.0,3.3000000000000003,8.9,-2.0,9.899999999999999,-0.7,16
105,2081.0,-0.4,0.1,-0.2,-1.0,3.3000000000000003,9.200000000000001,-4.4,7.300000000000001,0.7,16
106,2092.0,-0.4,0.1,-0.1,-1.1,3.3000000000000003,9.4,-4.2,2.4000000000000004,2.9,16
107,2112.0,-0.5,0.1,0.30000000000000004,-1.1,3.3000000000000003,9.700000000000001,-1.5,-3.0,6.0,16
108,2125.0,-0.4,0.1,0.4,-0.9,3.3000000000000003,9.8,2.0,-6.9,9.8,16
109,2144.0,-0.1,0.2,0.5,-0.5,3.4000000000000004,9.8,4.2,-7.699999999999999,11.900000000000002,16
110,2160.0,0.1,0.1,0.5,-0.4,3.4000000000000004,9.9,4.6,-7.1000000000000005,11.8,16
111,2183.0,0.30000000000000004,0.2,0.6000000000000001,-0.2,3.4000000000000004,10.200000000000001,3.1,-6.9,10.5,16
112,2199.0,0.4,0.0,1.1,-0.2,3.1,10.4,1.8000000000000003,-4.800000000000001,8.5,16
113,2209.0,0.30000000000000004,-0.1,1.0,-0.4,3.1,10.0,7.400000000000001,2.3,7.0,16
114,2226.0,0.0,-0.2,0.0,-0.6000000000000001,3.2,9.0,13.700000000000001,9.8,8.3,16
115,2242.0,-0.1,-0.1,-0.4,-0.6000000000000001,3.3000000000000003,8.700000000000001,13.399999999999999,11.4,10.9,16
116,2266.0,-0.1,0.0,-0.7000000000000001,-0.6000000000000001,3.4000000000000004,8.700000000000001,11.1,6.2,12.200000000000001,16
117,2280.0,0.0,0.0,-0.6000000000000001,-0.4,3.4000000000000004,8.700000000000001,10.5,-2.7,12.600000000000001,16
118,2299.0,0.1,-0.1,-0.6000000000000001,-0.30000000000000004,3.3000000000000003,8.700000000000001,10.700000000000001,-8.5,13.000000000000002,16
119,2318.0,0.2,-0.2,-0.6000000000000001,-0.2,3.3000000000000003,8.6,9.2,-4.5,14.400000000000002,16
120,2326.0,0.2,-0.2,-0.6000000000000001,-0.2,3.3000000000000003,8.6,9.2,-4.5,14.400000000000002,16
121,2343.0,0.30000000000000004,-0.1,-0.6000000000000001,-0.1,3.5,8.6,6.9,-2.3,13.700000000000001,16
122,2359.0,0.30000000000000004,-0.1,-0.5,0.0,3.5,8.8,4.7,-3.9,11.8,16
123,2382.0,0.30000000000000004,-0.1,-0.2,0.0,3.3000000000000003,9.1,3.9,-7.400000000000001,9.600000000000001,16
124,2395.0,0.30000000000000004,-0.2,-0.1,0.0,3.3000000000000003,9.1,5.500000000000001,-8.600000000000001,8.8,16
125,2409.0,0.4,-0.30000000000000004,-0.2,0.1,3.3000000000000003,8.8,8.8,-6.300000000000001,9.0,16
126,2426.0,0.4,-0.30000000000000004,-0.4,0.1,3.4000000000000004,8.5,8.8,0.0,7.500000000000001,16
127,2443.0,0.4,-0.2,-1.0,0.0,3.5,8.0,4.300000000000001,8.2,4.800000000000001,16
128,2461.0,0.2,-0.1,-1.3,-0.4,3.5,7.5,-2.2,16.8,1.3,16
129,2478.0,-0.4,0.1,-1.7000000000000002,-0.9,3.7,7.6000000000000005,-9.4,22.8,-1.2000000000000002,16
130,2496.0,-0.5,0.1,-1.5,-1.1,3.7,8.0,-18.3,20.2,-1.6,16
131,2509.0,-0.7000000000000001,0.2,-0.7000000000000001,-1.2000000000000002,3.7,8.9,-23.2,11.2,0.30000000000000004,16
132,2528.0,-0.8,0.2,-0.30000000000000004,-1.2000000000000002,3.6,9.1,-20.2,0.5,3.4,16
133,2542.0,-0.7000000000000001,0.2,0.0,-1.0,3.5,9.3,-15.399999999999999,-7.500000000000001,7.500000000000001,16
134,2565.0,-0.5,0.1,0.2,-0.7000000000000001,3.4000000000000004,9.600000000000001,-13.900000000000002,-10.9,11.2,16
135,2579.0,-0.30000000000000004,0.0,0.4,-0.4,3.3000000000000003,9.9,-14.900000000000002,-11.2,13.6,16
136,2594.0,0.1,-0.1,0.9,-0.1,3.1,10.4,-14.900000000000002,-10.600000000000001,14.400000000000002,16
137,2612.0,0.30000000000000004,-0.2,1.2000000000000002,0.0,3.0,10.5,-11.700000000000001,-7.6,14.100000000000001,16
138,2626.0,0.30000000000000004,-0.2,1.2000000000000002,0.0,2.9000000000000004,10.4,-6.1000000000000005,-2.3,13.3,16
139,2642.0,0.30000000000000004,-0.4,0.8,0.0,2.9000000000000004,9.700000000000001,-0.1,4.1,13.700000000000001,16
140,2661.0,0.30000000000000004,-0.2,0.0,0.1,3.1,9.0,1.4,8.4,13.900000000000002,16
141,2681.0,0.30000000000000004,-0.1,-0.5,0.0,3.2,8.700000000000001,-1.0,9.5,12.200000000000001,16
142,2702.0,0.2,0.0,-0.5,-0.1,3.1,8.9,-8.600000000000001,4.2,7.699999999999999,16
143,2710.0,0.2,-0.1,-0.4,-0.1,3.1,9.200000000000001,-8.600000000000001,4.2,7.699999999999999,16
144,2726.0,0.2,-0.1,-0.1,-0.2,3.0,9.5,-9.2,-0.30000000000000004,7.200000000000001,16
145,2742.0,0.1,-0.2,0.30000000000000004,-0.2,2.9000000000000004,9.600000000000001,-6.500000000000001,-3.2,8.2,16
146,2765.0,0.1,-0.2,0.1,-0.1,3.0,9.3,-3.5,-1.6,9.899999999999999,16
147,2786.0,0.2,-0.1,-0.1,-0.1,3.0,9.3,-3.2,0.4,10.600000000000001,16
148,2798.0,0.2,-0.1,-0.1,0.0,3.0,9.4,-4.1,0.30000000000000004,10.1,16
149,2809.0,0.30000000000000004,-0.1,0.0,0.0,3.0,9.5,-4.2,-3.5,8.2,16
150,2826.0,0.2,-0.1,0.1,0.0,2.9000000000000004,9.4,-2.9,-5.300000000000001,6.9,16
151,2843.0,0.2,-0.2,0.0,0.0,2.9000000000000004,9.200000000000001,-1.8000000000000003,-3.3000000000000007,6.8,16
152,2859.0,0.2,-0.2,-0.1,0.0,2.9000000000000004,9.1,-2.4000000000000004,-0.30000000000000004,6.8,16
153,2881.0,0.2,-0.2,-0.30000000000000004,0.1,2.9000000000000004,9.1,-4.5,1.2000000000000002,6.2,16
154,2895.0,0.2,-0.1,-0.2,0.0,2.9000000000000004,9.200000000000001,-6.600000000000001,0.8,5.1000000000000005,16
155,2913.0,0.1,-0.1,-0.1,-0.1,2.9000000000000004,9.1,-6.600000000000001,-0.9000000000000001,4.9,16
156,2932.0,0.0,-0.1,-0.2,-0.2,2.8000000000000003,9.200000000000001,-8.600000000000001,-2.8,5.8,16
157,2943.0,-0.1,-0.1,-0.1,-0.2,2.8000000000000003,9.3,-8.600000000000001,-2.8,5.8,16
158,2959.0,-0.1,-0.1,0.0,-0.2,2.8000000000000003,9.5,-9.600000000000001,-5.300000000000001,7.200000000000001,16
159,2985.0,-0.1,0.0,0.30000000000000004,0.0,2.9000000000000004,9.600000000000001,-6.1000000000000005,-8.4,9.4,16
160,2992.0,0.0,0.0,0.30000000000000004,0.1,2.9000000000000004,9.5,-6.1000000000000005,-8.4,9.4,16
161,3009.0,0.1,0.0,0.2,0.2,2.9000000000000004,9.5,-5.9,-5.9,9.3,16
162,3028.0,0.1,0.1,0.1,0.1,2.9000000000000004,9.5,-6.9,-3.4,8.0,16
163,3047.0,0.1,0.1,0.0,0.0,2.9000000000000004,9.5,-7.1000000000000005,-1.5,6.8,16
164,3064.0,0.0,0.1,0.1,0.1,2.9000000000000004,9.5,-6.600000000000001,-2.4000000000000004,6.8,16
165,3084.0,0.1,0.1,0.1,0.2,2.9000000000000004,9.4,-3.6000000000000005,-7.6,6.699999999999999,16
166,3101.0,0.1,0.1,0.0,0.2,2.9000000000000004,9.4,-3.6000000000000005,-7.6,6.699999999999999,16
167,3112.0,0.1,0.1,-0.1,0.2,2.9000000000000004,9.3,-3.7000000000000006,-8.2,5.1000000000000005,16
168,3131.0,0.1,0.0,-0.2,0.2,2.8000000000000003,9.3,-5.6,-5.7,3.7000000000000006,16
169,3143.0,0.0,0.0,0.0,0.2,2.8000000000000003,9.600000000000001,-7.699999999999999,-3.8,3.1,16
170,3164.0,-0.1,0.0,0.2,0.2,2.7,9.600000000000001,-6.9,-3.5,2.9,16
171,3183.0,0.0,0.1,0.0,0.30000000000000004,2.8000000000000003,9.4,-1.7,-6.4,3.5,16
172,3197.0,0.1,0.1,-0.1,0.30000000000000004,2.8000000000000003,9.3,-1.7,-6.4,3.5,16
173,3209.0,0.1,0.1,-0.1,0.4,2.8000000000000003,9.3,-2.0,-7.1000000000000005,2.3,16
174,3227.0,0.1,0.1,-0.2,0.30000000000000004,2.8000000000000003,9.200000000000001,-3.1,-5.6,0.30000000000000004,16
175,3249.0,0.0,0.0,-0.1,0.2,2.7,9.5,-5.0,-4.2,-1.1,16
176,3260.0,0.0,0.0,0.0,0.30000000000000004,2.7,9.5,-5.1000000000000005,-4.2,-1.1,16
177,3278.0,0.0,0.0,0.1,0.30000000000000004,2.7,9.5,-3.1,-5.1000000000000005,-0.9000000000000001,16
178,3319.0,-0.1,0.1,-0.2,0.2,2.7,9.200000000000001,-3.4,-2.2,-3.2,16
179,3326.0,-0.2,0.1,-0.2,0.1,2.7,9.200000000000001,-3.4,-2.2,-3.2,16
180,3342.0,-0.2,0.0,-0.2,0.0,2.7,9.3,-5.6,-1.7,-3.8,16
181,3361.0,-0.30000000000000004,-0.1,0.0,0.0,2.5,9.600000000000001,-6.4,-2.8,-3.6000000000000005,16
182,3380.0,-0.30000000000000004,-0.2,0.2,0.0,2.5,9.700000000000001,-4.6,-4.2,-1.6,16
183,3394.0,-0.30000000000000004,-0.1,0.2,0.0,2.5,9.600000000000001,-2.6,-4.800000000000001,0.9000000000000001,16
184,3409.0,-0.1,-0.1,0.1,0.30000000000000004,2.6,9.5,-1.4,-4.4,2.3,16
185,3427.0,0.0,0.0,0.0,0.4,2.6,9.4,-1.7,-3.1,2.3,16
186,3442.0,0.1,0.0,0.0,0.4,2.6,9.4,-3.1,-1.7,0.8,16
187,3459.0,0.0,0.0,-0.2,0.30000000000000004,2.5,9.3,-4.6,0.9000000000000001,-0.7,16
188,3485.0,-0.2,0.0,0.0,0.1,2.6,9.5,-6.2,0.2,1.0,16
189,3496.0,-0.2,0.0,0.0,0.1,2.6,9.5,-6.2,0.2,1.0,16
190,3511.0,-0.1,0.1,0.2,0.30000000000000004,2.6,9.8,-4.6,-4.800000000000001,2.7,16
191,3527.0,0.1,0.1,0.4,0.6000000000000001,2.6,9.9,-2.4000000000000004,-8.2,3.1,16
192,3542.0,0.2,0.1,0.4,0.7000000000000001,2.6,9.9,-0.2,-8.100000000000001,2.2,16
193,3561.0,0.30000000000000004,0.1,0.30000000000000004,0.7000000000000001,2.6,9.700000000000001,0.30000000000000004,-4.7,0.6000000000000001,16
194,3583.0,0.30000000000000004,0.0,0.2,0.6000000000000001,2.5,9.700000000000001,-0.4,1.0,-1.3,16
195,3592.0,0.2,0.0,0.2,0.5,2.5,9.8,-1.2000000000000002,3.1,-2.8,16
196,3613.0,0.1,-0.1,0.30000000000000004,0.5,2.4000000000000004,9.9,-0.1,1.4,-3.0,16
197,3626.0,0.2,-0.2,0.2,0.6000000000000001,2.3000000000000003,9.600000000000001,3.6000000000000005,-1.7,-2.3,16
198,3643.0,0.2,-0.2,0.0,0.7000000000000001,2.3000000000000003,9.4,6.8,-2.5,-1.7,16
199,3662.0,0.30000000000000004,-0.2,-0.4,0.8,2.4000000000000004,8.9,7.0,-0.6000000000000001,-1.1,16
200,3678.0,0.4,-0.1,-0.6000000000000001,0.9,2.4000000000000004,8.8,4.2,2.3,-2.0,16
201,3693.0,0.30000000000000004,-0.1,-0.8,0.7000000000000001,2.5,8.700000000000001,-0.4,4.0,-4.1,16
202,3709.0,0.1,-0.1,-0.7000000000000001,0.4,2.4000000000000004,8.9,-4.9,3.2,-5.7,16
203,3727.0,-0.2,-0.2,-0.30000000000000004,0.2,2.3000000000000003,9.4,-7.1000000000000005,0.5,-5.0,16
204,3742.0,-0.2,-0.2,-0.1,0.2,2.3000000000000003,9.600000000000001,-6.600000000000001,-4.2,-2.6,16
205,3760.0,-0.2,-0.1,0.30000000000000004,0.30000000000000004,2.4000000000000004,9.700000000000001,-3.8,-9.100000000000001,0.2,16
206,3786.0,-0.1,0.0,0.2,0.5,2.5,9.5,-0.5,-10.8,2.4000000000000004,16
207,3800.0,0.0,0.1,0.1,0.6000000000000001,2.5,9.5,0.30000000000000004,-8.700000000000001,2.9,16
208,3809.0,0.1,0.1,0.0,0.7000000000000001,2.6,9.4,-1.5,-4.0,1.6,16
209,3826.0,0.1,0.1,0.0,0.6000000000000001,2.6,9.5,-4.0,-0.2,-0.5,16
210,3843.0,0.0,0.1,0.1,0.5,2.6,9.700000000000001,-5.300000000000001,0.2,-2.7,16
211,3860.0,-0.1,0.1,0.30000000000000004,0.30000000000000004,2.5,9.9,-4.7,-1.9,-3.6000000000000005,16
212,3887.0,-0.2,0.0,0.4,0.4,2.5,9.9,-2.1,-4.5,-2.9,16
213,3894.0,-0.1,0.0,0.4,0.5,2.5,9.8,1.4,-5.300000000000001,-1.2000000000000002,16
214,3913.0,0.1,0.1,0.2,0.6000000000000001,2.5,9.5,2.9,-4.6,-0.8,16
215,3930.0,0.1,0.0,0.0,0.7000000000000001,2.5,9.5,1.9,-2.8,-1.8000000000000003,16
216,3944.0,0.1,0.1,0.0,0.6000000000000001,2.5,9.5,-0.2,-1.3,-3.0,16
217,3964.0,0.0,0.0,0.0,0.5,2.5,9.5,-0.6000000000000001,-0.1,-3.7000000000000006,16
218,3980.0,-0.1,0.0,0.0,0.5,2.5,9.4,1.0,-0.1,-2.7,16
219,4000.0,0.1,0.1,-0.1,0.7000000000000001,2.6,9.3,2.6,-5.7,-2.6,16
220,4013.0,0.1,0.1,-0.1,0.7000000000000001,2.5,9.3,2.6,-5.7,-2.6,16
221,4026.0,0.1,0.0,-0.1,0.6000000000000001,2.5,9.4,2.2,-6.8,-4.2,16
222,4043.0,-0.1,-0.1,-0.1,0.4,2.4000000000000004,9.4,1.2000000000000002,-4.7,-5.0,16
223,4062.0,-0.2,-0.1,-0.2,0.4,2.4000000000000004,9.200000000000001,1.0,-0.7,-4.2,16
224,4086.0,-0.2,-0.1,-0.30000000000000004,0.30000000000000004,2.5,9.1,-1.5,-0.4,-3.4,16
225,4102.0,-0.2,0.0,-0.30000000000000004,0.30000000000000004,2.5,9.200000000000001,-1.5,-0.4,-3.4,16
226,4116.0,-0.2,0.0,-0.2,0.30000000000000004,2.5,9.3,-2.4000000000000004,-3.7000000000000006,-3.3000000000000007,16
227,4126.0,-0.2,0.0,-0.1,0.30000000000000004,2.5,9.4,-2.3,-4.800000000000001,-3.1,16
228,4145.0,-0.2,0.0,0.0,0.30000000000000004,2.5,9.5,-1.9,-4.0,-2.7,16
229,4163.0,-0.2,0.1,0.0,0.4,2.6,9.5,-2.2,-2.3,-2.2,16
230,4184.0,-0.2,0.1,0.1,0.30000000000000004,2.5,9.600000000000001,-4.6,-0.5,-2.4000000000000004,16
231,4201.0,-0.2,0.1,0.2,0.30000000000000004,2.5,9.600000000000001,-4.6,-0.5,-2.4000000000000004,16
232,4215.0,-0.2,0.1,0.2,0.30000000000000004,2.5,9.600000000000001,-4.6,-0.5,-2.4000000000000004,16
233,4229.0,-0.30000000000000004,0.1,0.1,0.2,2.5,9.600000000000001,-3.1,0.7,0.0,16
234,4243.0,-0.30000000000000004,0.1,0.0,0.2,2.5,9.4,-1.3,-0.1,1.9,16
235,4259.0,-0.30000000000000004,0.1,-0.1,0.30000000000000004,2.6,9.3,-0.4,-1.1,3.5,16
236,4283.0,-0.1,0.2,-0.1,0.5,2.7,9.4,-2.3,-2.6,3.6000000000000005,16
237,4296.0,-0.1,0.2,-0.1,0.5,2.7,9.4,-2.3,-2.6,3.6000000000000005,16
238,4309.0,0.0,0.2,0.0,0.5,2.7,9.5,-3.1,-1.4,2.2,16
239,4326.0,-0.1,0.2,0.1,0.4,2.6,9.600000000000001,-3.4,0.1,1.2000000000000002,16
240,4342.0,-0.1,0.0,0.1,0.30000000000000004,2.5,9.600000000000001,-2.2,1.4,1.6,16
241,4359.0,-0.2,0.0,0.1,0.30000000000000004,2.5,9.5,-0.8,1.6,2.7,16
242,4376.0,-0.2,0.1,-0.1,0.30000000000000004,2.6,9.3,-0.4,1.1,3.9,16
243,4395.0,-0.2,0.1,-0.2,0.30000000000000004,2.6,9.3,-1.2000000000000002,1.2000000000000002,4.5,16
244,4409.0,-0.2,0.1,-0.2,0.30000000000000004,2.6,9.4,-2.5,0.2,4.9,16
245,4427.0,-0.2,0.0,0.1,0.30000000000000004,2.4000000000000004,9.5,-2.3,-2.1,5.9,16
246,4444.0,-0.2,0.0,0.0,0.30000000000000004,2.5,9.4,0.0,-2.5,6.9,16
247,4459.0,-0.1,0.0,-0.1,0.4,2.5,9.3,-0.1,-1.9,7.300000000000001,16
248,4485.0,-0.1,0.1,-0.4,0.30000000000000004,2.6,9.0,-2.7,6.2,5.7,16
249,4492.0,-0.1,0.1,-0.4,0.30000000000000004,2.6,9.0,-2.7,6.2,5.7,16
250,4509.0,-0.1,0.1,-0.5,0.4,2.6,9.1,-4.5,6.1000000000000005,5.300000000000001,16
251,4526.0,-0.1,0.2,-0.2,0.30000000000000004,2.6,9.3,-6.300000000000001,2.7,4.4,16
252,4542.0,-0.1,0.2,-0.1,0.2,2.6,9.200000000000001,-4.5,2.7,3.4,16
253,4561.0,-0.2,0.1,-0.30000000000000004,0.1,2.6,9.0,-4.6,4.4,3.9,16
254,4582.0,-0.30000000000000004,0.2,-0.30000000000000004,0.1,2.7,9.200000000000001,-8.100000000000001,6.1000000000000005,5.300000000000001,16
255,4600.0,-0.30000000000000004,0.2,-0.1,0.0,2.6,9.4,-10.700000000000001,6.1000000000000005,6.300000000000001,16
256,4615.0,-0.4,0.2,0.0,0.0,2.6,9.5,-8.600000000000001,-2.3,9.700000000000001,16
257,4632.0,-0.30000000000000004,0.2,0.2,0.2,2.5,9.8,-8.600000000000001,-2.3,9.700000000000001,16
258,4643.0,-0.1,0.2,0.4,0.30000000000000004,2.5,9.8,-5.500000000000001,-6.0,10.9,16
259,4659.0,0.0,0.2,0.2,0.4,2.5,9.600000000000001,-3.8,-3.6000000000000005,11.000000000000002,16
260,4679.0,0.0,0.2,0.2,0.4,2.4000000000000004,9.700000000000001,-5.4,2.4000000000000004,10.1,16
261,4698.0,0.1,0.1,0.5,0.4,2.4000000000000004,9.8,-6.500000000000001,7.0,8.8,16
262,4714.0,0.1,0.0,0.30000000000000004,0.30000000000000004,2.4000000000000004,9.4,-3.8,7.0,7.400000000000001,16
263,4726.0,0.0,0.1,-0.2,0.4,2.4000000000000004,9.4,-3.5,5.300000000000001,6.9,16
264,4743.0,0.1,0.1,-0.1,0.4,2.4000000000000004,9.600000000000001,-6.300000000000001,3.9,6.500000000000001,16
265,4759.0,0.0,0.0,0.4,0.30000000000000004,2.2,9.9,-5.2,3.3000000000000007,5.9,16
266,4783.0,0.0,0.0,0.30000000000000004,0.4,2.3000000000000003,9.5,0.6000000000000001,4.1,7.1000000000000005,16
267,4798.0,0.2,0.0,-0.2,0.5,2.3000000000000003,9.200000000000001,2.1,4.4,7.400000000000001,16
268,4814.0,0.2,0.1,-0.30000000000000004,0.5,2.3000000000000003,9.1,-2.3,5.300000000000001,6.0,16
269,4828.0,0.1,0.0,-0.30000000000000004,0.30000000000000004,2.2,9.4,-9.600000000000001,8.4,3.8,16
270,4843.0,0.1,0.0,-0.1,0.30000000000000004,2.0,9.700000000000001,-15.5,9.100000000000001,2.1,16
271,4859.0,-0.1,-0.2,0.5,0.2,1.8,10.4,-17.200000000000003,6.4,2.7,16
272,4882.0,0.0,-0.4,1.0,0.30000000000000004,1.7000000000000002,10.600000000000001,-14.200000000000001,2.8,6.1000000000000005,16
273,4892.0,0.1,-0.4,1.0,0.4,1.6,10.4,-8.899999999999999,1.1,9.700000000000001,16
274,4909.0,0.2,-0.4,0.6000000000000001,0.4,1.6,10.100000000000001,-6.300000000000001,2.7,11.6,16
275,4927.0,0.2,-0.30000000000000004,0.1,0.4,1.6,9.8,-8.100000000000001,8.2,12.7,16
276,4942.0,0.2,-0.30000000000000004,0.1,0.4,1.6,9.8,-13.100000000000001,13.200000000000003,13.5,16
277,4959.0,0.0,-0.30000000000000004,0.1,0.1,1.6,9.9,-16.4,15.399999999999999,14.200000000000001,16
278,4983.0,-0.1,-0.2,0.2,0.1,1.6,10.0,-16.200000000000003,13.8,17.1,16
279,4995.0,-0.1,-0.2,0.2,0.1,1.6,10.0,-13.100000000000001,10.5,21.300000000000004,16
280,5009.0,0.0,-0.1,0.2,0.30000000000000004,1.6,9.9,-8.600000000000001,6.699999999999999,24.900000000000002,16
281,5028.0,0.30000000000000004,-0.1,0.0,0.5,1.7000000000000002,9.600000000000001,-5.1000000000000005,5.500000000000001,27.800000000000004,16
282,5042.0,0.30000000000000004,0.0,-0.2,0.6000000000000001,1.6,9.5,-3.6000000000000005,6.2,28.600000000000005,16
283,5060.0,0.4,-0.2,-0.2,0.6000000000000001,1.3,9.600000000000001,-4.5,8.2,27.9,16
284,5077.0,0.5,-0.4,-0.2,0.6000000000000001,1.2000000000000002,9.700000000000001,-5.0,12.0,27.800000000000004,16
285,5097.0,0.5,-0.4,-0.1,0.8,1.2000000000000002,9.700000000000001,-4.2,13.5,28.0,16
286,5110.0,0.6000000000000001,-0.4,-0.1,0.7000000000000001,1.1,9.5,-1.8000000000000003,12.100000000000001,26.9,16
287,5126.0,0.5,-0.5,-0.2,0.7000000000000001,1.0,9.5,-0.1,9.899999999999999,24.7,16
288,5142.0,0.5,-0.6000000000000001,-0.30000000000000004,0.7000000000000001,0.9,9.4,-1.2000000000000002,7.300000000000001,23.400000000000002,16
289,5160.0,0.5,-0.6000000000000001,-0.2,0.7000000000000001,0.9,9.600000000000001,-4.300000000000001,5.9,22.6,16
290,5176.0,0.5,-0.6000000000000001,-0.1,0.7000000000000001,0.8,9.700000000000001,-7.699999999999999,5.0,21.7,16
291,5195.0,0.5,-0.6000000000000001,0.2,0.7000000000000001,0.8,10.200000000000001,-8.8,5.4,21.400000000000002,16
292,5210.0,0.4,-0.5,0.5,0.7000000000000001,0.8,10.200000000000001,-5.8,5.8,22.1,16
293,5226.0,0.5,-0.5,0.4,0.8,1.0,10.0,-1.1,6.4,23.099999999999998,16
294,5244.0,0.6000000000000001,-0.30000000000000004,0.0,1.0,1.0,9.600000000000001,1.4,5.4,22.6,16
295,5262.0,0.7000000000000001,-0.30000000000000004,-0.30000000000000004,0.8,1.0,9.4,0.9000000000000001,4.0,18.900000000000002,16
296,5281.0,0.4,-0.30000000000000004,-0.30000000000000004,0.6000000000000001,0.9,9.5,-1.7,4.300000000000001,14.800000000000002,16
297,5293.0,0.30000000000000004,-0.30000000000000004,-0.30000000000000004,0.4,0.9,9.5,-4.6,5.1000000000000005,12.100000000000001,16
298,5309.0,0.1,-0.30000000000000004,-0.30000000000000004,0.30000000000000004,0.9,9.4,-5.9,5.1000000000000005,10.1,16
299,5326.0,-0.1,-0.30000000000000004,-0.30000000000000004,0.2,0.9,9.4,-7.1000000000000005,5.2,8.5,16
300,5345.0,-0.30000000000000004,-0.2,-0.1,-0.1,0.8,9.700000000000001,-8.3,4.6,7.300000000000001,16
301,5365.0,-0.4,-0.30000000000000004,0.0,-0.2,0.9,9.700000000000001,-7.699999999999999,1.7,8.0,16
302,5380.0,-0.4,-0.2,0.0,-0.2,0.9,9.700000000000001,-6.500000000000001,-1.5,9.899999999999999,16
303,5399.0,-0.4,0.0,0.0,0.0,1.1,9.8,-6.300000000000001,-4.2,11.5,16
304,5415.0,-0.2,0.1,0.2,0.0,1.2000000000000002,10.0,-7.300000000000001,-4.6,12.0,16
305,5429.0,-0.2,0.2,0.30000000000000004,0.0,1.3,10.0,-7.500000000000001,-3.7000000000000006,11.700000000000001,16
306,5442.0,-0.2,0.30000000000000004,0.2,0.1,1.3,9.9,-6.9,-2.4000000000000004,11.700000000000001,16
307,5459.0,-0.1,0.4,0.1,0.2,1.5,9.8,-6.9,-1.6,11.5,16
308,5478.0,-0.1,0.6000000000000001,-0.1,0.2,1.7000000000000002,9.700000000000001,-8.2,-2.0,10.1,16
309,5495.0,-0.1,0.6000000000000001,0.1,0.2,1.6,9.9,-9.899999999999999,-2.4000000000000004,8.100000000000001,16
310,5509.0,0.0,0.6000000000000001,0.2,0.2,1.6,10.0,-9.8,-2.0,5.9,16
311,5526.0,-0.1,0.5,0.2,0.1,1.5,9.9,-7.400000000000001,-1.6,4.0,16
312,5544.0,-0.2,0.4,0.0,0.1,1.4000000000000001,9.700000000000001,-5.300000000000001,-1.1,3.2,16
313,5563.0,-0.2,0.4,-0.1,0.1,1.4000000000000001,9.600000000000001,-4.7,-0.6000000000000001,2.6,16
314,5582.0,-0.1,0.30000000000000004,-0.1,0.1,1.4000000000000001,9.600000000000001,-4.4,-0.9000000000000001,1.5,16
315,5595.0,-0.2,0.30000000000000004,-0.1,0.0,1.3,9.700000000000001,-3.6000000000000005,-1.7,-0.7,16
316,5609.0,-0.2,0.2,-0.1,0.0,1.2000000000000002,9.700000000000001,-2.6,-2.4000000000000004,-2.3,16
317,5626.0,-0.2,0.1,0.0,0.1,1.2000000000000002,9.8,-1.6,-3.1,-3.5,16
318,5643.0,-0.1,0.1,0.0,0.2,1.2000000000000002,9.8,-0.7,-4.7,-5.300000000000001,16
319,5661.0,-0.1,0.1,0.0,0.2,1.2000000000000002,9.8,0.5,-5.6,-8.0,16
320,5687.0,-0.1,0.1,0.1,0.2,1.1,10.0,1.7,-3.8,-14.5,16
321,5692.0,-0.1,0.1,0.1,0.2,1.1,10.0,1.7,-3.8,-14.5,16
322,5709.0,0.0,0.0,0.30000000000000004,0.30000000000000004,1.1,10.200000000000001,3.7000000000000006,-5.2,-17.7,16
323,5726.0,0.0,0.0,0.4,0.30000000000000004,1.1,10.3,6.4,-8.2,-21.900000000000002,16
324,5742.0,0.0,0.0,0.4,0.30000000000000004,1.1,10.200000000000001,9.700000000000001,-8.8,-25.900000000000002,16
325,5762.0,0.0,-0.1,0.2,0.30000000000000004,1.2000000000000002,10.0,11.5,-5.8,-28.400000000000002,16
326,5782.0,0.1,0.1,0.2,0.5,1.4000000000000001,10.100000000000001,11.4,-4.4,-30.799999999999997,16
327,5793.0,0.2,0.2,0.2,0.6000000000000001,1.5,10.0,11.700000000000001,-5.1000000000000005,-35.2,16
328,5809.0,0.2,0.30000000000000004,0.1,0.4,1.6,9.8,11.700000000000001,-6.4,-40.2,16
329,5826.0,0.0,0.2,0.0,0.30000000000000004,1.5,9.8,9.100000000000001,-6.300000000000001,-44.2,16
330,5842.0,-0.1,0.2,0.0,0.2,1.5,9.700000000000001,6.8,-4.0,-46.199999999999996,16
331,5861.0,-0.30000000000000004,0.1,-0.2,0.0,1.5,9.5,5.1000000000000005,-2.4000000000000004,-45.7,16
332,5885.0,-0.30000000000000004,0.2,0.0,0.0,1.6,9.8,-3.0,-12.9,-39.50000000000001,16
333,5892.0,-0.30000000000000004,0.2,0.0,0.0,1.6,10.200000000000001,-3.0,-12.9,-39.50000000000001,16
334,5912.0,-0.30000000000000004,0.2,0.7000000000000001,0.0,1.6,10.5,-2.9,-19.6,-35.599999999999994,16
335,5929.0,-0.4,0.2,0.30000000000000004,-0.1,1.8,9.8,2.3,-17.0,-30.200000000000003,16
336,5946.0,-0.4,0.4,-0.4,0.0,2.1,9.1,5.6,-8.0,-23.400000000000002,16
337,5959.0,-0.30000000000000004,0.5,-0.7000000000000001,0.1,2.2,9.0,6.2,-1.8000000000000003,-18.3,16
338,5979.0,-0.2,0.7000000000000001,-0.8,0.2,2.2,9.0,5.6,-5.500000000000001,-17.1,16
339,5996.0,-0.2,0.4,-0.7000000000000001,0.1,2.1,9.1,7.9,-13.3,-18.5,16
340,6009.0,-0.30000000000000004,0.30000000000000004,-0.8,0.2,1.8,8.8,11.3,-20.8,-19.799999999999997,16
341,6028.0,-0.1,0.0,-1.0,0.4,1.7000000000000002,8.700000000000001,11.000000000000002,-22.000000000000004,-19.6,16
342,6044.0,-0.1,0.0,-1.0,0.6000000000000001,1.6,8.9,4.9,-22.1,-21.7,16
343,6063.0,0.1,-0.30000000000000004,-0.6000000000000001,0.7000000000000001,1.3,9.3,-2.5,-20.900000000000002,-24.900000000000002,16
344,6079.0,0.0,-0.6000000000000001,-0.1,0.5,1.0,9.700000000000001,-7.200000000000001,-18.4,-27.700000000000003,16
345,6097.0,-0.30000000000000004,-0.9,0.0,0.30000000000000004,0.7000000000000001,9.8,-8.8,-13.900000000000002,-27.5,16
346,6110.0,-0.30000000000000004,-0.9,0.1,0.30000000000000004,0.7000000000000001,9.8,-8.4,-10.9,-22.6,16
347,6127.0,-0.2,-0.8,0.1,0.6000000000000001,1.0,9.700000000000001,-6.600000000000001,-12.7,-14.400000000000002,16
348,6142.0,-0.1,-0.6000000000000001,0.0,0.8,1.2000000000000002,9.5,-4.4,-16.1,-7.400000000000001,16
349,6159.0,0.30000000000000004,-0.30000000000000004,-0.2,1.2000000000000002,1.4000000000000001,9.3,-3.0,-20.5,-2.6,16
350,6178.0,0.6000000000000001,-0.1,-0.6000000000000001,1.5,1.6,8.9,-3.3000000000000007,-21.1,-0.4,16
351,6192.0,0.6000000000000001,0.0,-0.8,1.6,1.7000000000000002,8.9,-7.400000000000001,-18.4,-0.2,16
352,6209.0,0.7000000000000001,0.1,-0.6000000000000001,1.6,1.6,9.4,-15.5,-16.200000000000003,-1.0,16
353,6225.0,0.7000000000000001,0.1,-0.30000000000000004,1.6,1.5,9.600000000000001,-20.7,-15.000000000000002,-2.5,16
354,6244.0,0.5,-0.1,0.30000000000000004,1.5,1.2000000000000002,10.3,-21.1,-15.399999999999999,-1.7,16
355,6261.0,0.4,-0.30000000000000004,0.8,1.6,1.1,10.5,-16.6,-18.1,1.0,16
356,6282.0,0.7000000000000001,-0.2,0.6000000000000001,2.0,1.2000000000000002,10.100000000000001,-9.899999999999999,-20.599999999999998,5.1000000000000005,16
357,6293.0,0.8,-0.1,0.4,2.0,1.3,9.9,-7.1000000000000005,-19.700000000000003,6.8,16
358,6312.0,0.9,0.0,0.1,2.2,1.2000000000000002,9.8,-9.600000000000001,-15.6,6.0,16
359,6326.0,0.9,-0.1,0.1,2.1,1.2000000000000002,9.9,-11.700000000000001,-8.899999999999999,5.0,16
360,6346.0,0.8,0.1,0.2,2.0,1.3,9.700000000000001,-10.8,-4.9,4.300000000000001,16
361,6361.0,0.6000000000000001,0.2,-0.1,1.8,1.4000000000000001,9.4,-7.699999999999999,-4.2,4.2,16
362,6379.0,0.4,0.2,-0.4,1.7000000000000002,1.4000000000000001,9.3,-5.500000000000001,-6.0,5.300000000000001,16
363,6395.0,0.4,0.30000000000000004,-0.4,1.8,1.5,9.200000000000001,-4.5,-7.699999999999999,7.300000000000001,16
364,6409.0,0.5,0.30000000000000004,-0.6000000000000001,2.0,1.4000000000000001,9.0,-4.300000000000001,-9.600000000000001,7.8,16
365,6426.0,0.6000000000000001,0.2,-0.7000000000000001,2.0,1.2000000000000002,8.8,-5.4,-9.700000000000001,6.1000000000000005,16
366,6443.0,0.5,0.0,-0.8,1.9000000000000001,1.1,9.1,-9.0,-7.9,4.7,16
367,6466.0,0.4,-0.1,-0.30000000000000004,1.7000000000000002,0.8,9.5,-12.200000000000001,-6.2,3.7000000000000006,16
368,6480.0,0.2,-0.2,-0.2,1.6,0.7000000000000001,9.600000000000001,-11.2,-4.800000000000001,3.4,16
369,6493.0,0.0,-0.30000000000000004,0.0,1.5,0.6000000000000001,9.600000000000001,-9.0,-5.4,5.500000000000001,16
370,6509.0,-0.1,-0.30000000000000004,-0.1,1.5,0.6000000000000001,9.600000000000001,-7.1000000000000005,-7.699999999999999,8.8,16
371,6526.0,0.1,-0.30000000000000004,-0.1,1.8,0.6000000000000001,9.5,-5.7,-9.4,11.6,16
372,6544.0,0.2,-0.2,-0.2,1.9000000000000001,0.6000000000000001,9.4,-5.500000000000001,-8.700000000000001,12.9,16
373,6563.0,0.2,-0.2,-0.2,1.8,0.6000000000000001,9.600000000000001,-7.400000000000001,-5.500000000000001,13.399999999999999,16
374,6582.0,0.2,-0.1,0.2,1.8,0.7000000000000001,9.9,-8.5,-0.8,16.5,16
375,6595.0,0.1,-0.1,0.30000000000000004,1.8,0.7000000000000001,9.9,-8.5,-0.8,16.5,16
376,6609.0,0.2,0.0,0.2,1.9000000000000001,0.7000000000000001,9.700000000000001,-4.9,-0.8,18.5,16
377,6626.0,0.1,0.1,-0.1,1.8,0.8,9.3,-2.5,-0.8,19.799999999999997,16
378,6645.0,0.1,0.1,-0.30000000000000004,1.8,0.8,9.3,-3.4,-0.1,21.400000000000002,16
379,6668.0,0.2,0.2,-0.2,2.0,0.9,9.4,-4.800000000000001,0.2,22.5,16
380,6682.0,0.30000000000000004,0.2,-0.2,2.0,0.9,9.4,-5.1000000000000005,1.1,21.200000000000003,16
381,6707.0,0.2,0.2,-0.1,1.9000000000000001,0.9,9.600000000000001,-6.4,3.3000000000000007,20.900000000000002,16
382,6709.0,0.2,0.2,-0.1,1.9000000000000001,0.9,9.600000000000001,-6.4,3.3000000000000007,20.900000000000002,16
383,6726.0,0.0,0.2,0.1,1.6,0.8,9.600000000000001,-5.2,6.1000000000000005,21.1,16
384,6743.0,-0.2,0.2,0.0,1.6,0.9,9.600000000000001,-2.2,7.0,23.2,16
385,6760.0,-0.1,0.2,0.0,1.7000000000000002,0.9,9.700000000000001,0.4,5.6,26.1,16
386,6784.0,0.2,0.30000000000000004,0.2,1.8,0.8,9.8,4.800000000000001,4.4,26.799999999999997,16
387,6794.0,0.1,0.2,0.2,1.7000000000000002,0.7000000000000001,9.9,4.800000000000001,4.4,26.799999999999997,16
388,6809.0,0.0,0.1,0.2,1.7000000000000002,0.6000000000000001,9.9,7.500000000000001,6.500000000000001,26.6,16
389,6826.0,0.1,-0.1,0.2,1.8,0.6000000000000001,9.9,9.899999999999999,10.4,27.9,16
390,6844.0,0.1,-0.2,0.1,1.8,0.4,9.700000000000001,11.4,13.8,27.9,16
391,6859.0,0.2,-0.2,0.0,1.9000000000000001,0.2,9.8,10.1,15.5,27.800000000000004,16
392,6878.0,0.5,-0.8,0.5,2.3000000000000003,-0.4,10.600000000000001,6.4,12.299999999999999,27.6,16
393,6894.0,0.8,-1.2000000000000002,1.1,2.4000000000000004,-0.6000000000000001,10.9,8.0,6.600000000000001,26.6,16
394,6909.0,0.8,-1.1,1.1,2.4000000000000004,-0.4,10.600000000000001,13.3,2.6,26.200000000000003,16
395,6926.0,0.8,-1.0,0.6000000000000001,2.6,-0.2,10.200000000000001,15.2,2.8,25.7,16
396,6942.0,0.9,-0.9,0.4,2.7,0.0,10.100000000000001,9.8,8.600000000000001,23.2,16
397,6959.0,1.1,-0.5,0.4,2.6,0.1,10.200000000000001,4.1,16.3,16.4,16
398,6979.0,0.7000000000000001,-0.6000000000000001,0.4,1.8,-0.1,10.0,2.1,23.099999999999998,6.9,16
399,6994.0,0.30000000000000004,-0.7000000000000001,0.2,1.4000000000000001,-0.1,9.8,4.6,28.0,3.1,16
400,7009.0,-0.2,-0.7000000000000001,-0.2,1.1,0.1,9.4,7.699999999999999,27.9,5.1000000000000005,16
401,7026.0,-0.2,-0.4,-0.6000000000000001,1.2000000000000002,0.4,9.0,11.000000000000002,22.4,7.300000000000001,16
402,7043.0,-0.1,-0.30000000000000004,-0.8,1.3,0.5,8.8,13.3,15.399999999999999,7.699999999999999,16
403,7060.0,0.2,-0.2,-1.1,1.6,0.6000000000000001,8.700000000000001,12.7,9.100000000000001,6.4,16
404,7080.0,0.4,-0.30000000000000004,-1.1,1.6,0.4,8.8,9.8,5.2,2.7,16
405,7094.0,0.30000000000000004,-0.4,-1.0,1.5,0.2,8.8,4.4,4.9,-0.7,16
406,7109.0,0.1,-0.7000000000000001,-0.7000000000000001,1.3,0.1,9.4,-2.4000000000000004,7.400000000000001,-0.9000000000000001,16
407,7126.0,0.1,-0.7000000000000001,-0.1,1.2000000000000002,0.1,9.9,-7.0,8.5,0.0,16
408,7142.0,0.1,-0.6000000000000001,0.1,1.3,0.1,10.100000000000001,-6.300000000000001,6.4,0.9000000000000001,16
409,7173.0,0.1,-0.5,0.30000000000000004,1.2000000000000002,0.30000000000000004,10.0,-0.1,1.6,3.5,16
410,7193.0,0.1,-0.5,0.2,1.2000000000000002,0.4,9.700000000000001,0.8,4.5,4.9,16
411,7209.0,0.1,0.0,-0.5,1.2000000000000002,0.8,9.200000000000001,-1.7,7.200000000000001,4.800000000000001,16
412,7226.0,0.1,0.1,-0.5,1.2000000000000002,0.9,9.4,-6.1000000000000005,7.8,3.3000000000000007,16
413,7243.0,0.1,0.30000000000000004,-0.2,1.2000000000000002,0.9,9.8,-7.9,3.9,0.7,16
414,7262.0,0.0,0.2,0.1,1.1,0.8,10.0,-7.300000000000001,-1.3,-1.7,16
415,7285.0,-0.1,0.0,0.2,0.9,0.5,10.0,-5.1000000000000005,-4.5,-4.0,16
416,7298.0,-0.2,-0.1,0.2,0.8,0.4,9.9,-3.7000000000000006,-2.8,-5.1000000000000005,16
417,7318.0,-0.4,-0.2,0.1,0.7000000000000001,0.4,9.9,-4.0,2.6,-5.1000000000000005,16
418,7327.0,-0.4,-0.2,0.1,0.6000000000000001,0.4,9.9,-5.2,6.1000000000000005,-4.5,16
419,7342.0,-0.5,-0.1,0.1,0.5,0.5,9.9,-5.9,6.0,-4.300000000000001,16
420,7362.0,-0.6000000000000001,-0.1,0.1,0.4,0.4,9.9,-5.300000000000001,3.2,-4.1,16
421,7384.0,-0.6000000000000001,-0.2,0.1,0.4,0.30000000000000004,9.9,-4.300000000000001,1.8000000000000003,-2.5,16
422,7394.0,-0.5,-0.2,0.1,0.5,0.30000000000000004,10.0,-3.5,0.9000000000000001,0.0,16
423,7410.0,-0.4,-0.2,0.1,0.6000000000000001,0.30000000000000004,10.0,-1.9,-0.5,2.4000000000000004,16
424,7425.0,-0.4,-0.2,0.1,0.6000000000000001,0.4,9.9,-0.9000000000000001,-2.4000000000000004,3.8,16
425,7444.0,-0.30000000000000004,-0.1,-0.1,0.7000000000000001,0.4,9.700000000000001,-1.0,-2.7,4.7,16
426,7465.0,-0.2,0.0,-0.2,0.8,0.5,9.700000000000001,-2.5,-0.7,5.500000000000001,16
427,7481.0,-0.1,0.1,-0.1,0.9,0.5,9.700000000000001,-3.1,1.4,5.4,16
428,7492.0,-0.1,0.1,-0.1,0.8,0.5,9.8,-2.8,-0.7,3.9,16
429,7510.0,-0.1,0.1,0.1,0.9,0.4,10.0,-2.3,-5.300000000000001,2.2,16
430,7525.0,-0.1,0.0,0.1,0.9,0.4,10.0,-1.7,-6.2,1.0,16
431,7543.0,-0.1,0.0,0.1,0.9,0.4,10.0,-1.9,-3.1,1.1,16
432,7562.0,0.0,0.0,0.2,0.9,0.4,10.0,-2.1,0.6000000000000001,1.3,16
433,7585.0,-0.1,0.0,0.1,0.8,0.4,9.9,-1.4,1.8000000000000003,0.5,16
434,7594.0,-0.1,0.0,0.1,0.8,0.4,9.8,-1.0,1.1,-0.30000000000000004,16
435,7609.0,-0.2,0.0,-0.1,0.7000000000000001,0.4,9.8,-1.3,0.30000000000000004,-0.2,16
436,7625.0,-0.2,0.0,0.0,0.7000000000000001,0.30000000000000004,9.8,-1.3,0.4,0.8,16
437,7644.0,-0.2,-0.1,0.0,0.7000000000000001,0.4,9.8,-0.1,0.7,2.8,16
438,7659.0,-0.2,0.0,-0.1,0.8,0.4,9.600000000000001,1.3,-0.6000000000000001,4.4,16
439,7681.0,0.1,0.1,-0.2,1.0,0.5,9.8,0.9000000000000001,-2.6,4.4,16
440,7692.0,0.1,0.0,-0.1,1.0,0.4,9.8,0.0,-3.7000000000000006,3.3000000000000007,16
441,7709.0,0.1,0.0,0.0,1.0,0.30000000000000004,9.8,0.8,-2.0,2.4000000000000004,16
442,7727.0,0.1,-0.1,-0.1,1.0,0.4,9.700000000000001,1.0,-0.2,2.5,16
443,7746.0,0.1,0.0,0.0,1.1,0.4,9.8,-0.6000000000000001,-0.2,2.5,16
444,7764.0,0.1,0.0,0.0,1.0,0.4,9.9,-1.3,-1.3,1.2000000000000002,16
445,7779.0,0.1,0.0,0.0,1.0,0.4,9.8,-1.1,-1.3,0.0,16
446,7794.0,0.0,-0.1,-0.1,0.9,0.4,9.700000000000001,-1.3,0.0,0.0,16
447,7809.0,0.0,0.0,-0.1,0.9,0.30000000000000004,9.8,-2.1,0.30000000000000004,0.4,16
448,7826.0,0.0,0.0,0.1,1.0,0.4,10.0,-1.7,-1.7,1.5,16
449,7843.0,0.0,0.0,0.1,1.1,0.4,9.9,0.2,-3.7000000000000006,2.6,16
450,7859.0,0.1,0.1,0.0,1.2000000000000002,0.5,9.8,1.6,-4.0,2.9,16
451,7884.0,0.2,0.1,-0.2,1.2000000000000002,0.5,9.5,-0.2,0.1,0.4,16
452,7892.0,0.2,0.1,-0.2,1.2000000000000002,0.5,9.5,-0.2,0.1,0.4,16
453,7919.0,0.2,0.2,-0.1,1.2000000000000002,0.5,9.8,-2.5,0.30000000000000004,-1.4,16
454,7926.0,0.2,0.1,0.0,1.1,0.5,9.9,-3.5,-1.3,-3.7000000000000006,16
455,7949.0,0.0,0.0,0.2,0.9,0.30000000000000004,10.0,-2.5,-1.4,-5.1000000000000005,16
456,7960.0,-0.1,-0.1,0.2,0.9,0.30000000000000004,10.100000000000001,-0.7,1.1,-3.9,16
457,7997.0,-0.1,0.0,0.1,1.0,0.4,9.9,4.300000000000001,-1.5,-0.1,16
458,8009.0,0.0,0.0,0.1,1.1,0.4,9.9,4.800000000000001,-4.800000000000001,0.2,16
459,8026.0,0.1,0.0,0.1,1.2000000000000002,0.4,9.9,4.300000000000001,-4.6,-0.6000000000000001,16
460,8043.0,0.0,-0.1,0.1,1.1,0.30000000000000004,9.9,4.2,0.0,-1.2000000000000002,16
461,8059.0,0.0,-0.2,0.1,1.0,0.30000000000000004,9.9,4.7,3.6000000000000005,-0.30000000000000004,16
462,8076.0,0.0,-0.1,-0.1,1.1,0.5,9.700000000000001,5.8,3.0,0.6000000000000001,16
463,8093.0,0.1,0.0,-0.1,1.2000000000000002,0.5,9.700000000000001,6.600000000000001,0.1,0.2,16
464,8111.0,0.1,0.0,-0.2,1.1,0.5,9.5,6.600000000000001,-1.0,-1.3,16
465,8127.0,0.0,0.0,-0.4,1.0,0.5,9.4,5.8,0.4,-2.0,16
466,8143.0,-0.1,0.0,-0.4,1.0,0.5,9.5,4.0,0.8,-1.5,16
467,8167.0,-0.1,0.0,-0.1,1.0,0.6000000000000001,9.8,3.0,-1.6,-1.4,16
468,8183.0,-0.1,0.0,0.1,1.0,0.6000000000000001,10.0,3.6000000000000005,-5.4,-1.5,16
469,8202.0,0.0,0.0,0.30000000000000004,1.2000000000000002,0.6000000000000001,10.200000000000001,4.300000000000001,-7.200000000000001,-1.2000000000000002,16
470,8209.0,0.1,0.0,0.4,1.2000000000000002,0.6000000000000001,10.200000000000001,5.300000000000001,-5.8,-1.6,16
471,8227.0,0.1,0.0,0.30000000000000004,1.2000000000000002,0.6000000000000001,10.100000000000001,5.9,-2.3,-2.9,16
472,8242.0,0.1,0.0,0.30000000000000004,1.1,0.7000000000000001,10.200000000000001,5.7,1.1,-3.9,16
473,8259.0,0.1,0.1,0.4,1.2000000000000002,0.7000000000000001,10.3,6.0,1.7,-4.800000000000001,16
474,8276.0,0.1,0.1,0.5,1.2000000000000002,0.7000000000000001,10.4,8.100000000000001,0.8,-6.0,16
475,8296.0,0.1,0.1,0.5,1.2000000000000002,0.8,10.4,11.000000000000002,0.5,-6.9,16
476,8312.0,0.1,0.0,0.5,1.3,0.7000000000000001,10.600000000000001,13.399999999999999,1.2000000000000002,-7.300000000000001,16
477,8327.0,0.30000000000000004,0.0,0.8,1.5,0.7000000000000001,10.8,16.0,0.8,-7.500000000000001,16
478,8342.0,0.4,-0.1,0.8,1.6,0.7000000000000001,10.600000000000001,21.400000000000002,0.30000000000000004,-8.600000000000001,16
479,8363.0,0.5,-0.2,0.4,1.6,0.7000000000000001,10.200000000000001,25.200000000000003,1.6,-10.299999999999999,16
480,8387.0,0.5,-0.30000000000000004,0.0,1.7000000000000002,0.7000000000000001,9.9,24.3,5.7,-11.900000000000002,16
481,8395.0,0.5,-0.30000000000000004,-0.1,1.5,0.7000000000000001,9.9,21.400000000000002,9.600000000000001,-14.100000000000001,16
482,8409.0,0.2,-0.4,0.0,1.4000000000000001,0.6000000000000001,10.3,19.400000000000002,10.200000000000001,-14.5,16
483,8426.0,0.30000000000000004,-0.5,0.30000000000000004,1.3,0.7000000000000001,10.3,23.0,7.400000000000001,-12.7,16
484,8442.0,0.1,-0.4,0.1,1.1,0.8,9.600000000000001,30.599999999999998,3.9,-12.0,16
485,8462.0,0.1,-0.30000000000000004,-0.6000000000000001,1.1,1.2000000000000002,9.1,32.5,2.8,-10.299999999999999,16
486,8476.0,0.0,-0.1,-0.8,1.2000000000000002,1.3,9.1,28.600000000000005,2.6,-10.0,16
487,8493.0,0.2,0.0,-0.6000000000000001,1.3,1.5,9.4,24.900000000000002,2.3,-11.6,16
488,8509.0,0.2,0.0,-0.30000000000000004,1.3,1.5,9.700000000000001,24.200000000000003,0.30000000000000004,-15.6,16
489,8527.0,0.1,-0.2,-0.1,1.2000000000000002,1.3,9.700000000000001,25.300000000000004,-1.3,-19.6,16
490,8545.0,0.1,-0.30000000000000004,-0.1,1.2000000000000002,1.3,9.700000000000001,26.5,-1.1,-22.4,16
491,8563.0,0.0,-0.4,-0.2,0.9,1.3,9.3,27.400000000000002,1.4,-24.5,16
492,8580.0,-0.2,-0.4,-0.6000000000000001,0.8,1.5,9.1,25.5,5.6,-24.599999999999998,16
493,8592.0,-0.2,-0.30000000000000004,-0.6000000000000001,0.7000000000000001,1.6,9.1,21.400000000000002,7.400000000000001,-24.5,16
494,8609.0,-0.4,-0.2,-0.6000000000000001,0.5,1.7000000000000002,9.0,19.1,7.400000000000001,-24.0,16
495,8626.0,-0.5,-0.2,-0.8,0.4,1.9000000000000001,8.8,19.200000000000003,5.9,-21.500000000000004,16
496,8642.0,-0.6000000000000001,0.0,-1.2000000000000002,0.30000000000000004,2.1,8.4,18.3,3.0,-18.4,16
497,8660.0,-0.7000000000000001,0.2,-1.4000000000000001,0.2,2.4000000000000004,8.4,14.800000000000002,-0.9000000000000001,-15.700000000000001,16
498,8681.0,-0.7000000000000001,0.30000000000000004,-1.3,0.30000000000000004,2.5,8.6,9.100000000000001,-6.699999999999999,-13.700000000000001,16
499,8696.0,-0.6000000000000001,0.4,-0.7000000000000001,0.30000000000000004,2.5,9.3,4.300000000000001,-13.3,-12.5,16
500,8709.0,-0.6000000000000001,0.30000000000000004,0.0,0.5,2.3000000000000003,10.0,2.1,-19.300000000000004,-11.2,16
501,8726.0,-0.5,0.2,0.4,0.6000000000000001,2.3000000000000003,10.100000000000001,4.7,-20.5,-8.700000000000001,16
502,8742.0,-0.5,0.0,0.30000000000000004,0.5,2.1,9.5,9.100000000000001,-17.300000000000004,-7.1000000000000005,16
503,8760.0,-0.7000000000000001,-0.1,-0.6000000000000001,0.4,2.1,8.8,8.100000000000001,-11.700000000000001,-4.5,16
504,8785.0,-0.7000000000000001,0.0,-1.1,0.4,2.3000000000000003,8.4,3.4,-4.6,-1.0,16
505,8792.0,-0.7000000000000001,0.1,-1.2000000000000002,0.4,2.4000000000000004,8.3,-1.4,-1.9,0.9000000000000001,16
506,8810.0,-0.7000000000000001,0.2,-1.3,0.30000000000000004,2.4000000000000004,8.3,-5.0,-5.9,0.8,16
507,8826.0,-0.8,0.2,-1.3,0.30000000000000004,2.3000000000000003,8.3,-7.9,-10.9,0.2,16
508,8842.0,-0.9,0.2,-1.2000000000000002,0.30000000000000004,2.3000000000000003,8.5,-10.9,-14.600000000000001,0.5,16
509,8860.0,-0.9,0.1,-1.1,0.30000000000000004,2.3000000000000003,8.6,-13.700000000000001,-13.900000000000002,1.8000000000000003,16
510,8879.0,-0.8,0.2,-0.7000000000000001,0.7000000000000001,2.3000000000000003,9.1,-16.8,-11.1,4.1,16
511,8896.0,-0.5,0.4,-0.4,0.8,2.4000000000000004,9.200000000000001,-19.300000000000004,-9.600000000000001,5.0,16
512,8911.0,-0.4,0.5,-0.30000000000000004,0.7000000000000001,2.5,9.4,-22.1,-9.3,4.0,16
513,8925.0,-0.6000000000000001,0.6000000000000001,-0.2,0.5,2.5,9.700000000000001,-25.200000000000003,-9.8,4.5,16
514,8944.0,-0.9,0.6000000000000001,0.7000000000000001,0.4,2.5,10.8,-26.000000000000004,-13.200000000000003,7.9,16
515,8960.0,-0.9,0.7000000000000001,1.2000000000000002,0.6000000000000001,2.4000000000000004,11.100000000000001,-17.0,-16.1,16.8,16
516,8995.0,0.0,1.0,0.9,1.7000000000000002,2.8000000000000003,10.200000000000001,5.6,-20.900000000000002,27.0,16
517,9009.0,0.2,1.1,0.6000000000000001,1.8,2.8000000000000003,9.9,8.3,-15.299999999999999,23.3,16
518,9025.0,0.30000000000000004,0.9,0.1,1.8,2.6,9.600000000000001,6.0,-5.300000000000001,17.300000000000004,16
519,9044.0,0.2,0.7000000000000001,-0.1,1.6,2.4000000000000004,9.600000000000001,2.1,4.9,11.5,16
520,9060.0,0.0,0.6000000000000001,-0.1,1.4000000000000001,2.2,9.600000000000001,0.7,10.200000000000001,7.300000000000001,16
521,9082.0,-0.30000000000000004,0.2,0.0,1.2000000000000002,1.9000000000000001,9.600000000000001,2.8,10.0,5.500000000000001,16
522,9099.0,-0.4,-0.1,-0.2,1.1,1.7000000000000002,9.200000000000001,6.600000000000001,7.699999999999999,6.4,16
523,9110.0,-0.4,-0.1,-0.4,1.2000000000000002,1.7000000000000002,9.0,8.0,6.699999999999999,8.8,16
524,9127.0,-0.30000000000000004,-0.1,-0.7000000000000001,1.3,1.7000000000000002,8.9,6.0,7.200000000000001,11.2,16
525,9145.0,-0.1,-0.1,-0.6000000000000001,1.5,1.7000000000000002,9.0,2.5,8.5,12.7,16
526,9163.0,0.0,-0.1,-0.5,1.5,1.7000000000000002,9.200000000000001,0.5,9.3,13.100000000000001,16
527,9184.0,0.1,-0.1,-0.30000000000000004,1.6,1.7000000000000002,9.3,0.5,8.3,14.700000000000001,16
528,9202.0,0.2,-0.1,-0.30000000000000004,1.7000000000000002,1.8,9.3,0.5,8.3,14.700000000000001,16
529,9209.0,0.2,0.0,-0.30000000000000004,1.7000000000000002,1.9000000000000001,9.3,1.1,7.500000000000001,15.2,16
530,9226.0,0.4,0.1,-0.2,1.9000000000000001,2.0,9.5,0.9000000000000001,6.500000000000001,14.200000000000001,16
531,9242.0,0.5,0.2,-0.1,1.9000000000000001,2.0,9.600000000000001,1.1,5.6,11.900000000000002,16
532,9261.0,0.5,0.2,0.0,1.9000000000000001,2.0,9.5,3.0,6.2,9.899999999999999,16
533,9277.0,0.5,0.2,0.0,1.9000000000000001,2.0,9.5,3.0,6.2,9.899999999999999,16
534,9299.0,0.5,0.4,-0.5,1.9000000000000001,2.3000000000000003,9.3,0.9000000000000001,9.100000000000001,6.2,16
535,9310.0,0.5,0.5,-0.30000000000000004,1.7000000000000002,2.3000000000000003,9.5,-2.2,8.8,3.3000000000000007,16
536,9326.0,0.2,0.4,0.1,1.5,2.3000000000000003,9.8,-2.4000000000000004,6.600000000000001,1.4,16
537,9342.0,0.2,0.4,0.2,1.6,2.3000000000000003,9.9,0.30000000000000004,3.9,1.5,16
538,9360.0,0.30000000000000004,0.30000000000000004,0.2,1.6,2.2,9.700000000000001,3.1,3.7000000000000006,1.9,16
539,9379.0,0.30000000000000004,0.30000000000000004,0.0,1.7000000000000002,2.2,9.5,3.8,4.7,1.0,16
540,9392.0,0.30000000000000004,0.2,-0.1,1.6,2.2,9.5,2.4000000000000004,5.6,-0.6000000000000001,16
541,9410.0,0.2,0.1,-0.1,1.5,2.0,9.5,0.9000000000000001,6.1000000000000005,-2.9,16
542,9425.0,0.1,0.0,-0.1,1.3,1.9000000000000001,9.4,0.9000000000000001,6.300000000000001,-4.7,16
543,9442.0,0.0,-0.1,-0.2,1.3,1.9000000000000001,9.4,0.8,6.300000000000001,-5.6,16
544,9459.0,-0.1,-0.2,-0.2,1.1,1.8,9.4,0.30000000000000004,5.500000000000001,-5.9,16
545,9478.0,-0.2,-0.2,-0.30000000000000004,1.0,1.7000000000000002,9.4,0.2,4.2,-5.500000000000001,16
546,9497.0,-0.30000000000000004,-0.2,-0.2,1.0,1.8,9.4,-0.7,2.6,-4.5,16
547,9514.0,-0.2,-0.2,-0.2,1.0,1.8,9.4,-1.7,1.2000000000000002,-3.9,16
548,9528.0,-0.2,-0.1,-0.2,1.0,1.8,9.3,-2.2,1.3,-3.8,16
549,9547.0,-0.2,-0.1,-0.2,1.0,1.9000000000000001,9.4,-3.0,1.9,-3.9,16
550,9559.0,-0.2,0.0,-0.1,0.9,1.9000000000000001,9.5,-4.6,1.8000000000000003,-4.0,16
551,9582.0,-0.30000000000000004,0.1,0.1,0.8,2.0,9.600000000000001,-5.0,1.1,-4.1,16
552,9592.0,-0.30000000000000004,0.1,0.1,0.8,2.0,9.600000000000001,-4.2,0.7,-3.7000000000000006,16
553,9611.0,-0.30000000000000004,0.1,-0.1,0.8,2.0,9.5,-4.1,1.4,-3.0,16
554,9626.0,-0.30000000000000004,0.1,0.0,0.7000000000000001,1.9000000000000001,9.600000000000001,-4.300000000000001,2.1,-2.6,16
555,9642.0,-0.4,0.0,0.0,0.8,1.9000000000000001,9.600000000000001,-3.6000000000000005,2.0,-1.9,16
556,9659.0,-0.30000000000000004,0.0,0.0,0.8,1.9000000000000001,9.600000000000001,-2.9,0.7,-1.1,16
557,9682.0,-0.30000000000000004,0.0,0.0,0.8,1.8,9.5,-2.6,-0.2,-0.9000000000000001,16
558,9694.0,-0.30000000000000004,-0.1,0.0,0.8,1.8,9.5,-2.5,0.4,-0.8,16
559,9709.0,-0.2,-0.1,-0.1,0.9,1.7000000000000002,9.600000000000001,-3.5,1.0,-0.4,16
560,9725.0,-0.1,-0.2,0.0,1.0,1.6,9.8,-4.9,0.1,-0.9000000000000001,16
561,9744.0,0.0,-0.30000000000000004,0.4,1.1,1.4000000000000001,10.100000000000001,-5.9,-0.5,-2.1,16
562,9763.0,0.0,-0.5,0.7000000000000001,1.1,1.3,10.4,-5.0,1.5,-2.7,16
563,9776.0,0.0,-0.5,0.7000000000000001,1.0,1.3,10.3,-1.0,9.0,-1.6,16
564,9797.0,0.0,-0.2,0.30000000000000004,1.0,1.7000000000000002,9.9,1.9,16.1,-0.9000000000000001,16
565,9809.0,0.1,0.1,0.2,1.0,2.0,10.0,1.7,16.900000000000002,-2.8,16
566,9826.0,0.1,0.2,0.30000000000000004,0.9,2.0,10.100000000000001,2.7,16.700000000000003,-6.4,16
567,9842.0,0.0,0.2,0.4,0.7000000000000001,2.0,10.200000000000001,6.699999999999999,16.1,-8.700000000000001,16
568,9859.0,0.0,0.2,0.4,0.8,2.1,10.100000000000001,10.200000000000001,16.700000000000003,-8.8,16
569,9878.0,0.1,0.2,0.30000000000000004,0.7000000000000001,2.1,10.200000000000001,9.8,19.400000000000002,-9.8,16
570,9893.0,0.1,0.2,0.4,0.7000000000000001,1.9000000000000001,10.4,6.500000000000001,22.000000000000004,-12.9,16
571,9909.0,0.1,-0.2,0.8,0.5,1.5,10.8,3.8,24.200000000000003,-16.4,16
572,9925.0,0.0,-0.4,0.9,0.4,1.3,10.9,4.4,24.0,-17.6,16
573,9942.0,-0.2,-0.7000000000000001,1.1,0.1,0.9,11.200000000000001,9.100000000000001,21.200000000000003,-16.8,16
574,9962.0,-0.30000000000000004,-1.2000000000000002,1.3,0.0,0.6000000000000001,10.9,17.799999999999997,17.0,-13.700000000000001,16
575,9975.0,-0.30000000000000004,-1.4000000000000001,1.0,0.0,0.6000000000000001,10.4,29.800000000000004,18.4,-7.9,16
576,9993.0,-0.2,-1.4000000000000001,0.0,0.2,0.9,9.5,37.0,19.6,-2.9,16
577,10009.0,0.2,-1.2000000000000002,-0.6000000000000001,0.4,1.0,9.3,36.9,16.1,-2.6,16
578,10026.0,0.30000000000000004,-1.2000000000000002,-0.6000000000000001,0.5,1.0,9.5,33.800000000000004,8.100000000000001,-7.500000000000001,16
579,10045.0,0.30000000000000004,-1.5,0.0,0.4,0.6000000000000001,10.100000000000001,30.599999999999998,-0.9000000000000001,-13.6,16
580,10062.0,0.30000000000000004,-2.0,0.5,0.4,0.4,10.3,30.3,-5.8,-17.799999999999997,16
581,10081.0,0.30000000000000004,-2.1,0.4,0.30000000000000004,0.6000000000000001,10.100000000000001,30.699999999999996,-5.500000000000001,-20.0,16
582,10096.0,0.2,-2.0,0.4,0.30000000000000004,0.7000000000000001,10.100000000000001,28.600000000000005,-4.6,-22.3,16
583,10109.0,0.2,-2.0,0.4,0.30000000000000004,0.7000000000000001,10.200000000000001,25.6,-7.200000000000001,-25.1,16
584,10125.0,0.2,-1.8,0.5,0.30000000000000004,1.0,10.3,24.599999999999998,-11.2,-26.9,16
585,10143.0,0.1,-1.6,0.6000000000000001,0.30000000000000004,1.2000000000000002,10.200000000000001,28.3,-12.4,-27.5,16
586,10164.0,0.0,-1.6,0.2,0.30000000000000004,1.4000000000000001,9.4,35.699999999999996,-12.7,-26.9,16
587,10183.0,0.2,-1.3,-0.6000000000000001,0.4,1.8,8.9,39.8,-11.3,-24.8,16
588,10192.0,0.2,-1.3,-0.7000000000000001,0.6000000000000001,2.0,8.8,37.6,-9.600000000000001,-23.400000000000002,16
589,10209.0,0.4,-1.2000000000000002,-0.8,0.9,2.1,8.9,33.9,-9.3,-24.400000000000002,16
590,10225.0,0.8,-1.0,-0.8,1.1,2.1,8.6,33.0,-11.700000000000001,-31.3,16
591,10242.0,0.8,-1.3,-1.1,0.7000000000000001,1.9000000000000001,8.200000000000001,32.9,-15.399999999999999,-42.7,16
592,10259.0,0.5,-1.4000000000000001,-1.3,0.4,1.7000000000000002,8.0,29.500000000000004,-19.700000000000003,-53.2,16
593,10282.0,-0.1,-1.9000000000000001,-1.5,0.1,1.6,7.800000000000001,22.9,-21.200000000000003,-58.2,16
594,10292.0,0.0,-1.9000000000000001,-1.5,0.30000000000000004,1.6,8.1,14.0,-18.1,-59.80000000000001,16
595,10309.0,0.1,-1.9000000000000001,-1.3,0.2,1.6,8.3,4.7,-15.000000000000002,-65.0,16
596,10325.0,-0.30000000000000004,-1.9000000000000001,-0.9,-0.4,1.6,8.700000000000001,1.5,-16.4,-69.20000000000002,16
597,10343.0,-0.6000000000000001,-1.9000000000000001,-0.6000000000000001,-0.5,1.7000000000000002,8.5,5.0,-23.700000000000003,-68.7,16
598,10365.0,-0.7000000000000001,-1.6,-1.4000000000000001,-0.6000000000000001,2.1,7.6000000000000005,11.900000000000002,-31.9,-67.5,16
599,10380.0,-0.8,-1.5,-1.7000000000000002,-0.7000000000000001,2.5,7.6000000000000005,9.100000000000001,-35.699999999999996,-63.0,16
600,10395.0,-0.6000000000000001,-0.9,-1.4000000000000001,0.0,2.7,8.5,-4.7,-42.900000000000006,-57.20000000000001,16
601,10409.0,-0.2,-0.8,-0.8,0.2,3.0,8.9,-14.300000000000002,-51.9,-55.400000000000006,16
602,10425.0,-0.2,-0.4,-0.1,-0.2,3.2,9.1,-17.1,-63.599999999999994,-59.300000000000004,16
603,10444.0,-0.9,0.0,-0.8,-0.5,3.6,8.200000000000001,-19.799999999999997,-68.9,-60.7,16
604,10458.0,-1.2000000000000002,0.2,-1.1,-0.6000000000000001,3.8000000000000003,8.1,-36.400000000000006,-56.9,-53.8,16
605,10477.0,-1.1,0.8,-0.8,-0.4,4.2,9.3,-68.7,-42.0,-46.300000000000004,16
606,10494.0,-1.0,1.2000000000000002,1.2000000000000002,-0.2,4.0,12.3,-103.2,-34.1,-41.0,16
607,10509.0,-1.0,1.3,2.7,-0.1,4.0,13.4,-116.9,-29.900000000000006,-32.8,16
608,10526.0,-0.7000000000000001,1.5,4.4,0.4,3.8000000000000003,14.200000000000001,-104.60000000000001,-31.0,-21.200000000000003,16
609,10543.0,-0.30000000000000004,1.9000000000000001,4.3,1.0,4.2,13.3,-72.4,-23.400000000000002,-5.300000000000001,16
610,10561.0,0.0,2.1,3.6,1.3,4.3,12.200000000000001,-32.1,-12.9,7.300000000000001,16
611,10583.0,0.5,2.4000000000000004,1.1,1.6,4.7,9.9,-0.4,-8.8,11.4,16
612,10599.0,0.7000000000000001,2.8000000000000003,-0.6000000000000001,1.9000000000000001,5.0,8.700000000000001,14.300000000000002,-12.5,8.700000000000001,16
613,10609.0,0.8,2.9000000000000004,-1.1,2.0,5.1000000000000005,8.6,20.400000000000002,-20.900000000000002,-0.2,16
614,10625.0,1.1,2.9000000000000004,-0.9,2.2,5.0,8.8,22.1,-32.7,-16.8,16
615,10642.0,0.9,2.7,-0.9,1.8,4.9,8.700000000000001,22.9,-37.800000000000004,-38.800000000000004,16
616,10661.0,0.0,2.2,-1.0,1.2000000000000002,4.2,8.700000000000001,16.8,-30.799999999999997,-54.800000000000004,16
617,10682.0,-0.4,1.5,-0.7000000000000001,0.7000000000000001,3.9000000000000004,9.200000000000001,6.4,-12.299999999999999,-61.8,16
618,10695.0,-1.0,1.2000000000000002,-0.2,-0.1,3.6,9.5,-0.7,2.8,-65.0,16
619,10709.0,-1.3,1.1,-0.1,-0.5,3.6,9.600000000000001,-2.2,7.0,-64.10000000000001,16
620,10725.0,-2.1,1.0,0.0,-1.0,3.6,9.8,1.3,3.4,-54.300000000000004,16
621,10742.0,-2.1,1.0,0.2,-0.8,3.6,10.0,8.8,-4.5,-33.9,16
622,10758.0,-1.5,1.0,0.5,0.2,3.8000000000000003,10.0,20.3,-13.700000000000001,-12.9,16
623,10777.0,-0.8,1.2000000000000002,0.1,0.5,4.1000000000000005,9.1,34.60000000000001,-19.5,-0.8,16
624,10793.0,-0.7000000000000001,1.2000000000000002,-0.4,0.5,4.1000000000000005,8.8,41.1,-19.5,3.2,16
625,10809.0,-0.7000000000000001,1.1,-1.1,0.4,4.1000000000000005,8.3,39.300000000000004,-11.700000000000001,5.1000000000000005,16
626,10826.0,-0.9,0.9,-1.2000000000000002,0.30000000000000004,3.9000000000000004,8.4,32.0,1.0,7.1000000000000005,16
627,10843.0,-0.9,0.8,-1.0,0.30000000000000004,3.9000000000000004,8.6,25.7,7.6,10.8,16
628,10864.0,-0.8,0.6000000000000001,-0.6000000000000001,0.6000000000000001,3.8000000000000003,9.1,24.5,4.7,13.900000000000002,16
629,10881.0,-0.30000000000000004,0.5,-0.2,1.1,3.7,9.200000000000001,28.0,-3.8,14.5,16
630,10892.0,-0.1,0.30000000000000004,-0.2,1.2000000000000002,3.7,9.0,33.9,-6.4,11.900000000000002,16
631,10909.0,-0.1,0.1,-0.6000000000000001,1.3,3.6,8.4,35.5,-1.5,9.4,16
632,10926.0,-0.1,-0.1,-1.0,1.2000000000000002,3.5,8.3,30.5,7.9,8.700000000000001,16
633,10943.0,-0.1,-0.1,-1.0,1.2000000000000002,3.5,8.5,23.5,16.200000000000003,8.700000000000001,16
634,10959.0,-0.2,-0.2,-0.5,1.0,3.4000000000000004,8.9,20.3,21.500000000000004,9.2,16
635,10990.0,0.0,-0.4,-0.30000000000000004,1.3,3.5,8.8,28.900000000000002,19.5,14.300000000000002,16
636,10995.0,0.0,-0.4,-0.30000000000000004,1.3,3.5,8.8,28.900000000000002,19.5,14.300000000000002,16
637,11009.0,0.30000000000000004,-0.4,-0.6000000000000001,1.6,3.1,8.1,32.7,20.400000000000002,16.3,16
638,11026.0,0.5,-0.8,-1.0,1.3,3.6,7.9,32.1,25.200000000000003,15.6,16
639,11043.0,0.1,0.2,-1.2000000000000002,1.5,3.8000000000000003,7.9,24.200000000000003,27.5,19.400000000000002,16
640,11059.0,0.9,-0.4,-0.9,1.7000000000000002,4.0,8.5,15.8,25.5,21.1,16
641,11080.0,0.7000000000000001,-0.2,-0.5,1.6,3.7,8.4,13.8,22.6,18.5,16
642,11094.0,0.7000000000000001,-0.4,-0.6000000000000001,1.6,3.7,8.3,15.700000000000001,22.6,19.200000000000003,16
643,11109.0,0.7000000000000001,-0.5,-0.7000000000000001,1.7000000000000002,3.6,8.4,15.700000000000001,25.200000000000003,22.1,16
644,11126.0,0.8,-0.6000000000000001,-0.6000000000000001,1.8,3.6,8.3,17.300000000000004,24.5,27.6,16
645,11142.0,1.1,-0.4,-0.7000000000000001,1.9000000000000001,3.9000000000000004,8.200000000000001,20.2,19.0,30.599999999999998,16
646,11163.0,1.0,-0.4,-0.9,2.1,3.9000000000000004,7.800000000000001,23.3,10.700000000000001,30.599999999999998,16
647,11183.0,1.1,-0.5,-1.2000000000000002,2.0,3.7,7.4,24.0,5.4,28.400000000000002,16
648,11193.0,1.0,-0.6000000000000001,-1.3,1.8,3.7,7.4,19.400000000000002,6.0,25.200000000000003,16
649,11210.0,0.5,-0.6000000000000001,-1.1,1.4000000000000001,3.8000000000000003,7.9,8.899999999999999,10.0,24.0,16
650,11226.0,0.30000000000000004,-0.5,-0.7000000000000001,1.3,3.8000000000000003,8.4,-1.3,16.4,24.5,16
651,11242.0,0.2,-0.6000000000000001,0.30000000000000004,1.2000000000000002,3.4000000000000004,9.1,-4.300000000000001,20.8,25.200000000000003,16
652,11259.0,0.0,-0.8,0.5,0.7000000000000001,3.6,8.8,0.8,21.1,25.5,16
653,11284.0,-0.6000000000000001,-0.30000000000000004,-0.4,0.5,4.1000000000000005,7.800000000000001,8.0,19.5,27.800000000000004,16
654,11295.0,-0.5,-0.2,-0.8,0.8,4.1000000000000005,8.0,4.300000000000001,10.9,30.699999999999996,16
655,11311.0,-0.2,0.0,-0.1,0.9,4.2,9.1,-10.5,-3.9,29.0,16
656,11331.0,-0.6000000000000001,0.1,0.7000000000000001,0.30000000000000004,4.2,9.5,-15.299999999999999,-13.700000000000001,23.5,16
657,11342.0,-0.9,0.1,0.8,0.4,4.1000000000000005,9.4,-9.600000000000001,-21.0,19.9,16
658,11359.0,-0.9,0.0,0.7000000000000001,0.5,4.1000000000000005,9.4,-2.8,-23.800000000000004,22.1,16
659,11378.0,-0.6000000000000001,0.30000000000000004,0.6000000000000001,1.1,4.800000000000001,9.1,0.9000000000000001,-18.1,23.6,16
660,11399.0,-0.1,1.0,0.1,1.4000000000000001,5.4,8.700000000000001,-2.3,-4.5,21.200000000000003,16
661,11410.0,0.0,1.5,-0.1,1.2000000000000002,5.5,8.700000000000001,-13.6,12.200000000000001,13.100000000000001,16
662,11426.0,-0.2,1.5,-0.1,0.8,5.5,8.6,-23.0,26.200000000000003,2.7,16
663,11442.0,-0.9,1.5,-0.2,0.0,5.4,8.5,-27.5,33.9,-4.5,16
664,11464.0,-1.4000000000000001,1.5,-0.1,-0.30000000000000004,5.5,8.8,-29.200000000000003,35.599999999999994,-3.6000000000000005,16
665,11476.0,-1.4000000000000001,1.6,0.0,-0.30000000000000004,5.5,8.9,-24.900000000000002,32.8,2.2,16
666,11494.0,-1.2000000000000002,1.7000000000000002,0.0,-0.1,5.5,8.9,-15.700000000000001,23.700000000000003,6.500000000000001,16
667,11509.0,-1.1,1.7000000000000002,0.0,0.0,5.4,8.9,-5.6,7.8,7.699999999999999,16
668,11526.0,-0.9,1.6,-0.2,0.2,5.300000000000001,8.6,3.0,-7.0,6.0,16
669,11542.0,-0.9,1.3,-0.4,0.1,5.0,8.4,7.400000000000001,-15.299999999999999,1.2000000000000002,16
670,11562.0,-1.0,1.1,-0.4,-0.1,4.800000000000001,8.3,8.100000000000001,-12.9,-2.6,16
671,11583.0,-1.1,0.7000000000000001,-0.4,0.0,4.5,8.6,2.7,2.1,-5.2,16
672,11593.0,-1.0,0.6000000000000001,-0.2,0.0,4.4,8.9,2.7,2.1,-5.2,16
673,11612.0,-0.9,0.4,0.2,0.0,4.3,9.1,1.6,1.8000000000000003,-9.899999999999999,16
674,11626.0,-1.0,0.30000000000000004,0.30000000000000004,0.0,4.2,9.200000000000001,3.6000000000000005,-3.6000000000000005,-15.299999999999999,16
675,11642.0,-1.1,0.1,0.2,-0.1,4.0,8.9,6.9,-9.4,-18.8,16
676,11659.0,-1.0,0.0,0.1,0.0,4.0,8.700000000000001,8.4,-9.2,-19.9,16
677,11683.0,-0.8,0.1,-0.4,0.2,4.2,8.3,0.8,0.30000000000000004,-22.5,16
678,11696.0,-0.7000000000000001,0.2,-0.5,0.2,4.3,8.3,0.8,0.30000000000000004,-22.5,16
679,11709.0,-0.7000000000000001,0.30000000000000004,-0.5,0.1,4.3,8.4,-4.300000000000001,2.2,-26.1,16
680,11725.0,-0.8,0.30000000000000004,-0.30000000000000004,-0.30000000000000004,4.5,8.4,-6.1000000000000005,2.0,-28.500000000000004,16
681,11743.0,-1.3,0.8,-0.7000000000000001,-0.30000000000000004,4.7,7.6000000000000005,-3.5,2.0,-26.6,16
682,11762.0,-1.1,0.7000000000000001,-1.2000000000000002,0.1,4.4,7.6000000000000005,-9.5,-4.1,-24.200000000000003,16
683,11786.0,-0.7000000000000001,0.6000000000000001,0.4,-0.1,4.2,9.8,-35.9,-23.800000000000004,-31.6,16
684,11792.0,-0.7000000000000001,0.6000000000000001,0.4,-0.1,4.2,9.8,-35.9,-23.800000000000004,-31.6,16
685,11809.0,-1.2000000000000002,0.0,1.0,-0.5,3.7,10.0,-28.900000000000002,-15.5,-26.400000000000006,16
686,11828.0,-1.2000000000000002,-0.1,0.8,-0.2,3.8000000000000003,9.200000000000001,-17.5,-2.8,-11.8,16
687,11846.0,-0.7000000000000001,0.4,0.0,0.30000000000000004,4.3,8.8,-8.600000000000001,3.9,2.0,16
688,11865.0,-0.30000000000000004,0.7000000000000001,-0.30000000000000004,0.6000000000000001,4.2,8.700000000000001,-4.5,-1.8000000000000003,7.0,16
689,11881.0,-0.2,0.5,-0.30000000000000004,0.5,4.1000000000000005,8.700000000000001,-2.1,-11.000000000000002,3.5,16
690,11894.0,-0.5,0.2,-0.30000000000000004,0.30000000000000004,3.8000000000000003,8.5,0.1,-14.400000000000002,-1.0,16
691,11908.0,-0.6000000000000001,0.0,-0.5,0.30000000000000004,3.7,8.4,-0.1,-12.7,-1.7,16
692,11925.0,-0.4,0.0,-0.5,0.7000000000000001,3.8000000000000003,8.8,-6.500000000000001,-9.100000000000001,-0.2,16
693,11945.0,0.1,0.1,0.4,0.9,3.6,9.9,-16.6,-8.5,-3.5,16
694,11967.0,-0.1,-0.1,1.5,0.7000000000000001,3.3000000000000003,10.9,-18.3,-13.000000000000002,-14.400000000000002,16
695,11978.0,-0.2,-0.2,1.9000000000000001,0.7000000000000001,3.1,11.100000000000001,-18.3,-13.000000000000002,-14.400000000000002,16
696,11995.0,-0.30000000000000004,-0.5,2.1,0.7000000000000001,3.0,11.0,-8.3,-14.5,-13.900000000000002,16
697,12009.0,-0.30000000000000004,-0.5,2.0,0.8,3.1,10.600000000000001,3.2,-10.8,-10.0,16
698,12026.0,0.0,-0.4,1.1,1.1,3.3000000000000003,9.700000000000001,10.700000000000001,-2.2,-3.8,16
699,12042.0,0.1,-0.2,0.7000000000000001,1.2000000000000002,3.5,9.3,11.900000000000002,7.699999999999999,0.0,16
700,12059.0,0.30000000000000004,0.1,0.0,1.1,3.7,8.8,11.2,14.100000000000001,0.6000000000000001,16
701,12078.0,0.1,0.1,-0.4,0.9,3.8000000000000003,8.3,11.4,17.0,0.2,16
702,12094.0,0.0,0.2,-0.7000000000000001,0.9,3.9000000000000004,8.1,12.5,15.2,1.0,16
703,12109.0,0.0,0.30000000000000004,-1.0,0.8,4.1000000000000005,7.800000000000001,12.200000000000001,10.200000000000001,1.6,16
704,12126.0,0.0,0.4,-1.1,0.7000000000000001,4.2,8.0,9.3,5.500000000000001,0.7,16
705,12145.0,-0.1,0.5,-0.9,0.6000000000000001,4.2,8.3,4.1,-0.5,-1.8000000000000003,16
706,12163.0,-0.30000000000000004,0.30000000000000004,-0.4,0.5,4.0,8.8,1.1,-7.6,-4.1,16
707,12184.0,-0.4,0.1,0.0,0.4,3.9000000000000004,9.0,1.3,-11.6,-4.0,16
708,12196.0,-0.5,0.1,0.1,0.4,3.9000000000000004,9.1,2.1,-10.600000000000001,-2.7,16
709,12208.0,-0.4,0.1,0.1,0.4,3.9000000000000004,9.1,1.5,-6.2,-1.0,16
710,12225.0,-0.4,0.2,0.2,0.4,4.0,9.200000000000001,0.1,-1.3,-0.2,16
711,12242.0,-0.4,0.1,0.30000000000000004,0.4,3.9000000000000004,9.3,-0.4,0.6000000000000001,0.30000000000000004,16
712,12260.0,-0.5,0.1,0.4,0.5,3.9000000000000004,9.3,1.2000000000000002,0.4,1.5,16
713,12284.0,-0.2,0.1,0.4,0.8,3.9000000000000004,9.3,4.0,-0.6000000000000001,3.7000000000000006,16
714,12295.0,-0.1,0.1,0.30000000000000004,0.9,4.0,9.0,7.400000000000001,0.2,4.1,16
715,12309.0,0.0,0.2,-0.2,0.8,4.0,8.5,7.500000000000001,4.0,2.8,16
716,12325.0,0.0,0.2,-0.4,0.8,4.0,8.4,2.3,8.0,1.7,16
717,12342.0,-0.1,0.1,-0.4,0.5,3.9000000000000004,8.9,-2.7,9.600000000000001,0.7,16
718,12359.0,-0.4,0.0,0.2,0.30000000000000004,3.7,9.200000000000001,-2.8,6.2,1.2000000000000002,16
719,12376.0,-0.5,-0.1,0.30000000000000004,0.2,3.7,9.1,3.4,2.4000000000000004,5.4,16
720,12394.0,-0.5,-0.1,0.0,0.4,3.8000000000000003,8.700000000000001,8.8,-0.30000000000000004,10.700000000000001,16
721,12411.0,-0.30000000000000004,0.0,-0.4,0.5,3.9000000000000004,8.4,8.899999999999999,-1.2000000000000002,14.0,16
722,12425.0,-0.30000000000000004,0.1,-0.5,0.5,4.0,8.4,5.1000000000000005,0.5,14.400000000000002,16
723,12442.0,-0.30000000000000004,0.1,-0.4,0.30000000000000004,4.0,8.700000000000001,0.5,2.9,14.0,16
724,12459.0,-0.4,0.1,-0.1,0.30000000000000004,4.0,8.9,-2.3,4.9,15.6,16
725,12477.0,-0.5,0.0,0.30000000000000004,0.2,3.9000000000000004,9.1,-0.30000000000000004,6.1000000000000005,19.6,16
726,12493.0,-0.5,0.1,0.1,0.30000000000000004,4.2,8.8,3.2,8.2,24.400000000000002,16
727,12509.0,-0.30000000000000004,0.4,-0.2,0.4,4.3,8.6,4.1,10.9,27.700000000000003,16
728,12525.0,-0.2,0.4,-0.30000000000000004,0.5,4.4,8.6,2.1,12.100000000000001,28.400000000000002,16
729,12543.0,-0.1,0.5,-0.2,0.6000000000000001,4.5,8.700000000000001,0.0,12.9,28.200000000000003,16
730,12560.0,-0.1,0.5,0.0,0.6000000000000001,4.5,8.8,-0.8,13.900000000000002,28.800000000000004,16
731,12585.0,-0.1,0.5,-0.1,0.5,4.5,8.5,1.1,16.3,29.800000000000004,16
732,12595.0,-0.1,0.5,-0.30000000000000004,0.6000000000000001,4.5,8.4,3.0,18.4,31.3,16
733,12609.0,-0.1,0.5,-0.5,0.6000000000000001,4.5,8.3,1.3,18.3,32.1,16
734,12625.0,0.0,0.4,-0.5,0.7000000000000001,4.4,8.3,-1.7,17.5,31.7,16
735,12642.0,0.1,0.30000000000000004,-0.4,0.7000000000000001,4.2,8.5,-4.1,17.6,30.699999999999996,16
736,12659.0,0.0,0.1,-0.30000000000000004,0.6000000000000001,4.0,8.700000000000001,-6.0,17.300000000000004,30.699999999999996,16
737,12681.0,-0.1,-0.2,0.2,0.5,3.7,9.200000000000001,-6.500000000000001,17.0,32.2,16
738,12697.0,-0.1,-0.30000000000000004,0.4,0.5,3.5,9.3,-5.300000000000001,17.5,35.599999999999994,16
739,12709.0,-0.1,-0.4,0.5,0.6000000000000001,3.5,9.3,-2.3,16.4,39.8,16
740,12725.0,0.0,-0.4,0.4,0.8,3.5,9.1,0.4,15.700000000000001,42.900000000000006,16
741,12745.0,0.2,-0.4,0.1,0.9,3.5,8.9,1.5,16.3,44.6,16
742,12759.0,0.30000000000000004,-0.4,0.1,1.0,3.4000000000000004,8.9,0.2,18.6,45.0,16
743,12796.0,0.1,-0.5,0.2,0.7000000000000001,3.2,9.200000000000001,-4.300000000000001,22.6,44.7,16
744,12809.0,0.1,-0.6000000000000001,0.30000000000000004,0.7000000000000001,3.2,9.200000000000001,-3.0,24.7,47.80000000000001,16
745,12827.0,0.1,-0.5,0.30000000000000004,0.7000000000000001,3.2,9.1,-0.2,25.900000000000002,52.1,16
746,12844.0,0.2,-0.5,-0.1,0.8,3.2,8.700000000000001,2.2,25.8,55.0,16
747,12860.0,0.2,-0.5,-0.30000000000000004,0.9,3.2,8.5,1.6,26.400000000000006,57.20000000000001,16
748,12875.0,0.30000000000000004,-0.5,-0.5,0.9,3.2,8.4,-1.2000000000000002,26.5,59.40000000000001,16
749,12893.0,0.4,-0.5,-0.4,1.1,3.2,8.700000000000001,-5.0,24.1,61.300000000000004,16
750,12909.0,0.5,-0.5,-0.2,1.2000000000000002,3.2,9.0,-7.9,20.7,63.2,16
751,12927.0,0.5,-0.30000000000000004,0.30000000000000004,1.3,3.2,9.5,-7.9,17.0,64.50000000000001,16
752,12942.0,0.7000000000000001,-0.4,0.6000000000000001,1.6,3.1,9.600000000000001,-5.9,12.4,65.10000000000001,16
753,12960.0,0.7000000000000001,-0.4,0.6000000000000001,1.7000000000000002,3.1,9.600000000000001,-5.9,9.3,65.10000000000001,16
754,12981.0,1.0,-0.30000000000000004,0.7000000000000001,2.1,3.0,10.0,-9.0,9.0,63.30000000000001,16
755,12992.0,1.1,-0.4,1.0,1.8,2.8000000000000003,10.200000000000001,-12.100000000000001,11.900000000000002,58.0,16
756,13009.0,0.8,-0.5,1.1,1.7000000000000002,2.7,10.3,-12.0,19.1,53.7,16
757,13027.0,0.6000000000000001,-0.7000000000000001,1.1,1.4000000000000001,2.6,10.0,-7.6,27.3,53.300000000000004,16
758,13043.0,0.4,-0.5,0.30000000000000004,1.4000000000000001,2.9000000000000004,9.0,0.7,33.1,55.2,16
759,13058.0,0.4,-0.30000000000000004,-0.1,1.4000000000000001,3.1,8.700000000000001,5.1000000000000005,31.799999999999997,56.10000000000001,16
760,13075.0,0.6000000000000001,-0.1,-0.8,1.5,3.2,8.0,6.8,27.5,54.300000000000004,16
761,13092.0,0.6000000000000001,0.0,-1.1,1.5,3.3000000000000003,7.9,4.2,22.1,50.8,16
762,13109.0,0.6000000000000001,0.2,-1.2000000000000002,1.5,3.4000000000000004,8.3,-1.6,15.8,46.6,16
763,13127.0,0.6000000000000001,0.30000000000000004,-0.6000000000000001,1.5,3.5,8.8,-6.699999999999999,9.700000000000001,40.7,16
764,13149.0,0.4,0.30000000000000004,-0.1,1.2000000000000002,3.4000000000000004,9.3,-9.100000000000001,5.300000000000001,33.6,16
765,13161.0,0.30000000000000004,0.2,0.1,1.1,3.3000000000000003,9.5,-10.200000000000001,3.8,27.700000000000003,16
766,13179.0,0.0,0.0,0.5,0.9,3.1,9.8,-11.5,5.2,23.400000000000002,16
767,13192.0,-0.1,0.0,0.6000000000000001,0.8,3.0,9.9,-10.600000000000001,8.2,20.5,16
768,13208.0,-0.4,-0.1,0.6000000000000001,0.4,2.9000000000000004,9.8,-8.100000000000001,10.0,18.200000000000003,16
769,13227.0,-0.6000000000000001,-0.2,0.4,0.4,2.9000000000000004,9.600000000000001,-5.8,9.5,17.300000000000004,16
770,13244.0,-0.5,-0.1,0.4,0.5,2.9000000000000004,9.700000000000001,-3.8,6.9,16.4,16
771,13260.0,-0.30000000000000004,0.0,0.5,0.7000000000000001,3.0,9.8,-3.2,4.4,13.399999999999999,16
772,13282.0,-0.30000000000000004,-0.1,0.6000000000000001,0.6000000000000001,2.9000000000000004,9.8,-2.8,4.6,8.8,16
773,13295.0,-0.30000000000000004,-0.1,0.5,0.5,2.8000000000000003,9.8,-2.4000000000000004,7.500000000000001,5.6,16
774,13308.0,-0.4,-0.2,0.30000000000000004,0.4,2.8000000000000003,9.5,-2.9,11.1,3.5,16
775,13325.0,-0.4,-0.2,0.1,0.5,2.8000000000000003,9.5,-5.7,13.100000000000001,1.8000000000000003,16
776,13342.0,-0.30000000000000004,-0.1,0.2,0.5,2.8000000000000003,9.600000000000001,-9.5,12.600000000000001,-0.2,16
777,13359.0,-0.30000000000000004,-0.1,0.30000000000000004,0.4,2.7,9.600000000000001,-9.8,11.700000000000001,-2.3,16
778,13384.0,-0.5,-0.2,0.30000000000000004,0.2,2.6,9.4,-7.0,10.700000000000001,-3.2,16
779,13395.0,-0.5,-0.30000000000000004,0.1,0.2,2.6,9.3,-3.0,9.3,-1.8000000000000003,16
780,13408.0,-0.5,-0.2,-0.2,0.30000000000000004,2.8000000000000003,9.1,-0.30000000000000004,6.9,0.30000000000000004,16
781,13425.0,-0.30000000000000004,0.0,-0.2,0.4,2.9000000000000004,9.0,0.9000000000000001,2.7,-0.5,16
782,13442.0,-0.30000000000000004,0.0,-0.30000000000000004,0.4,2.9000000000000004,8.9,1.4,-0.9000000000000001,-3.3000000000000007,16
783,13458.0,-0.30000000000000004,0.0,-0.30000000000000004,0.30000000000000004,2.9000000000000004,9.1,1.1,-3.5,-6.1000000000000005,16
784,13476.0,-0.30000000000000004,0.0,-0.2,0.4,2.9000000000000004,9.3,1.1,-6.300000000000001,-7.699999999999999,16
785,13494.0,-0.2,0.0,0.1,0.4,2.9000000000000004,9.4,3.9,-8.899999999999999,-9.4,16
786,13509.0,-0.2,0.1,0.0,0.4,3.1,9.0,6.1000000000000005,-10.4,-12.100000000000001,16
787,13525.0,-0.2,0.1,-0.2,0.30000000000000004,3.1,8.8,4.1,-7.200000000000001,-15.399999999999999,16
788,13542.0,-0.30000000000000004,0.2,-0.4,0.30000000000000004,3.1,8.9,-3.3000000000000007,-3.5,-19.1,16
789,13559.0,-0.30000000000000004,0.1,-0.2,0.1,3.0,9.200000000000001,-12.5,-1.9,-23.5,16
790,13576.0,-0.4,0.1,0.0,0.0,2.8000000000000003,9.600000000000001,-21.500000000000004,-3.8,-26.6,16
791,13593.0,-0.6000000000000001,-0.1,0.7000000000000001,-0.1,2.6,10.3,-26.9,-6.4,-26.1,16
792,13609.0,-0.6000000000000001,-0.2,1.1,-0.30000000000000004,2.5,10.4,-26.400000000000006,-5.8,-22.2,16
793,13628.0,-0.9,-0.1,0.8,-0.5,2.6,9.9,-20.900000000000002,-0.4,-14.700000000000001,16
794,13650.0,-0.8,0.2,0.1,-0.4,3.0,9.200000000000001,-8.100000000000001,9.0,6.4,16
795,13663.0,-0.7000000000000001,0.4,-0.2,-0.2,3.2,9.0,-8.100000000000001,9.0,6.4,16
796,13675.0,-0.6000000000000001,0.6000000000000001,-0.5,-0.2,3.3000000000000003,8.9,-4.2,6.1000000000000005,12.299999999999999,16
797,13692.0,-0.5,0.7000000000000001,-0.6000000000000001,-0.2,3.2,8.8,-0.7,-0.30000000000000004,14.400000000000002,16
798,13709.0,-0.5,0.5,-0.6000000000000001,0.0,3.0,8.9,2.2,-9.3,16.5,16
799,13725.0,-0.30000000000000004,0.4,-0.6000000000000001,0.30000000000000004,3.0,9.0,2.6,-18.900000000000002,18.0,16
800,13742.0,0.2,0.30000000000000004,-0.2,1.0,2.9000000000000004,9.5,0.8,-26.300000000000004,16.1,16
801,13763.0,0.6000000000000001,0.2,0.30000000000000004,1.3,2.7,9.9,-3.0,-27.3,10.4,16
802,13776.0,0.7000000000000001,0.0,0.5,1.2000000000000002,2.5,10.0,-7.200000000000001,-20.0,3.2,16
803,13792.0,0.5,-0.2,0.6000000000000001,1.0,2.2,10.3,-12.7,-9.700000000000001,-2.5,16
804,13808.0,0.30000000000000004,-0.30000000000000004,0.8,0.7000000000000001,2.2,10.4,-14.900000000000002,1.2000000000000002,-4.6,16
805,13825.0,-0.2,-0.4,1.0,0.30000000000000004,2.1,10.4,-11.1,8.2,-2.1,16
806,13842.0,-0.30000000000000004,-0.2,0.8,0.4,2.4000000000000004,10.100000000000001,-3.2,9.899999999999999,4.4,16
807,13859.0,-0.2,-0.1,0.6000000000000001,0.5,2.6,9.700000000000001,5.9,6.8,11.5,16
808,13880.0,0.30000000000000004,0.4,-0.6000000000000001,1.0,3.0,8.700000000000001,11.000000000000002,2.3,15.2,16
809,13894.0,0.4,0.5,-0.8,1.1,3.1,8.6,10.200000000000001,-1.3,15.399999999999999,16
810,13912.0,0.5,0.5,-0.9,1.2000000000000002,3.1,8.700000000000001,5.500000000000001,-2.4000000000000004,14.300000000000002,16
811,13926.0,0.6000000000000001,0.6000000000000001,-0.7000000000000001,1.2000000000000002,3.1,8.9,0.5,-3.5,12.5,16
812,13942.0,0.4,0.5,-0.4,1.0,3.0,9.3,-2.2,-5.0,9.700000000000001,16
813,13964.0,0.2,0.30000000000000004,-0.1,0.8,2.9000000000000004,9.4,-1.8000000000000003,-6.600000000000001,8.8,16
814,13976.0,0.0,0.30000000000000004,0.0,0.7000000000000001,2.9000000000000004,9.5,0.0,-8.2,10.4,16
815,13993.0,0.0,0.30000000000000004,0.1,0.9,3.0,9.5,2.5,-10.600000000000001,13.000000000000002,16
816,14008.0,0.1,0.4,0.0,1.0,3.0,9.4,4.7,-11.8,14.600000000000001,16
817,14025.0,0.1,0.5,-0.1,1.0,3.1,9.3,4.7,-11.700000000000001,14.100000000000001,16
818,14042.0,0.1,0.4,-0.1,1.0,3.0,9.4,3.5,-9.3,13.3,16
819,14059.0,0.1,0.30000000000000004,0.0,1.0,2.9000000000000004,9.4,3.0,-6.1000000000000005,13.200000000000003,16
820,14082.0,0.0,0.30000000000000004,0.0,0.9,2.9000000000000004,9.4,2.6,-1.5,15.000000000000002,16
821,14095.0,-0.1,0.30000000000000004,0.0,0.8,2.9000000000000004,9.4,2.6,-1.5,15.000000000000002,16
822,14109.0,-0.1,0.30000000000000004,0.0,0.8,2.9000000000000004,9.3,4.2,-2.5,15.899999999999999,16
823,14127.0,-0.2,0.2,-0.30000000000000004,0.8,2.9000000000000004,9.0,5.1000000000000005,-3.7000000000000006,17.200000000000003,16
824,14148.0,-0.2,0.2,-0.4,0.8,2.9000000000000004,9.0,3.3000000000000007,-2.7,18.4,16
825,14161.0,-0.2,0.2,-0.4,0.7000000000000001,2.8000000000000003,9.0,0.9000000000000001,-0.7,18.5,16
826,14197.0,-0.30000000000000004,0.0,0.30000000000000004,0.7000000000000001,2.6,9.700000000000001,-3.8,3.8,19.700000000000003,16
827,14213.0,-0.30000000000000004,0.0,0.4,0.8,2.7,9.700000000000001,0.4,4.0,22.6,16
828,14226.0,-0.2,0.0,0.30000000000000004,0.8,2.7,9.5,6.8,1.7,25.200000000000003,16
829,14242.0,-0.2,0.0,0.1,0.9,2.7,9.3,10.700000000000001,-0.30000000000000004,27.400000000000002,16
830,14259.0,0.0,0.0,-0.2,1.1,2.7,9.200000000000001,9.700000000000001,-0.8,29.0,16
831,14277.0,0.0,0.1,-0.2,1.1,2.7,9.200000000000001,8.4,0.4,29.400000000000002,16
832,14292.0,-0.1,0.0,-0.30000000000000004,1.0,2.7,9.0,7.6,4.4,28.800000000000004,16
833,14309.0,-0.1,-0.1,-0.5,1.0,2.6,8.8,5.300000000000001,10.1,29.400000000000002,16
834,14325.0,-0.1,-0.1,-0.5,1.0,2.6,8.8,5.300000000000001,10.1,29.400000000000002,16
835,14342.0,0.1,0.0,-0.30000000000000004,1.2000000000000002,2.7,9.1,-3.5,19.9,32.400000000000006,16
836,14364.0,0.0,0.1,-0.30000000000000004,1.0,2.7,9.200000000000001,-4.2,19.200000000000003,31.7,16
837,14377.0,0.0,0.0,-0.1,1.1,2.7,9.5,-4.2,19.200000000000003,31.7,16
838,14393.0,0.1,0.0,0.2,1.0,2.6,9.4,0.2,14.100000000000001,31.7,16
839,14409.0,-0.2,-0.1,-0.1,0.6000000000000001,2.6,8.9,4.9,9.8,30.799999999999997,16
840,14426.0,-0.5,-0.1,-0.4,0.4,2.6,9.0,2.0,10.299999999999999,32.0,16
841,14446.0,-0.5,0.0,0.1,0.30000000000000004,2.6,9.700000000000001,-4.300000000000001,16.900000000000002,33.6,16
842,14465.0,-0.5,0.0,0.7000000000000001,0.30000000000000004,2.6,10.100000000000001,-1.5,29.300000000000004,40.7,16
843,14490.0,-0.4,0.1,0.6000000000000001,0.4,2.8000000000000003,9.8,5.8,25.6,43.900000000000006,16
844,14494.0,-0.4,0.1,0.6000000000000001,0.4,2.8000000000000003,9.8,5.8,25.6,43.900000000000006,16
845,14508.0,-0.2,0.30000000000000004,0.30000000000000004,0.5,2.9000000000000004,9.600000000000001,10.8,19.400000000000002,44.8,16
846,14525.0,-0.2,0.30000000000000004,0.30000000000000004,0.5,2.9000000000000004,9.600000000000001,13.100000000000001,13.900000000000002,44.10000000000001,16
847,14542.0,-0.1,0.2,0.2,0.6000000000000001,2.8000000000000003,9.700000000000001,15.299999999999999,12.100000000000001,43.50000000000001,16
848,14561.0,-0.1,0.0,0.30000000000000004,0.6000000000000001,2.8000000000000003,9.700000000000001,16.8,12.5,43.900000000000006,16
849,14581.0,0.1,0.1,0.30000000000000004,0.8,2.8000000000000003,9.600000000000001,17.7,13.6,44.5,16
850,14592.0,0.2,0.0,0.30000000000000004,0.9,2.9000000000000004,9.600000000000001,16.3,15.899999999999999,43.00000000000001,16
851,14609.0,0.30000000000000004,-0.1,0.30000000000000004,1.0,2.7,9.8,12.7,17.300000000000004,39.9,16
852,14629.0,0.30000000000000004,-0.30000000000000004,0.5,0.9,2.4000000000000004,10.0,8.8,17.300000000000004,36.300000000000004,16
853,14643.0,0.2,-0.4,0.6000000000000001,0.8,2.3000000000000003,10.100000000000001,7.6,14.900000000000002,34.2,16
854,14658.0,0.0,-0.5,0.9,0.6000000000000001,2.2,10.5,9.4,10.299999999999999,35.0,16
855,14684.0,0.0,-0.7000000000000001,0.6000000000000001,0.6000000000000001,2.2,9.5,19.0,7.1000000000000005,37.2,16
856,14695.0,0.0,-0.6000000000000001,0.0,0.7000000000000001,2.3000000000000003,8.9,26.799999999999997,9.700000000000001,39.699999999999996,16
857,14708.0,0.1,-0.5,-1.0,0.9,2.6,8.3,23.6,14.0,40.7,16
858,14728.0,0.30000000000000004,-0.30000000000000004,-1.3,0.9,2.8000000000000003,8.1,15.399999999999999,17.0,38.50000000000001,16
859,14743.0,0.2,-0.2,-1.3,0.9,2.8000000000000003,8.1,7.1000000000000005,17.0,35.4,16
860,14760.0,0.2,-0.1,-1.2000000000000002,0.9,2.8000000000000003,8.3,-0.2,14.800000000000002,32.8,16
861,14777.0,0.30000000000000004,-0.1,-0.8,1.0,2.8000000000000003,8.8,-7.500000000000001,11.900000000000002,31.0,16
862,14799.0,0.4,-0.1,-0.4,1.1,2.7,9.0,-11.700000000000001,10.0,28.400000000000002,16
863,14809.0,0.5,-0.1,-0.4,1.1,2.7,9.0,-11.700000000000001,10.0,28.400000000000002,16
864,14826.0,0.5,-0.1,-0.4,1.1,2.8000000000000003,9.0,-12.7,8.100000000000001,27.400000000000002,16
865,14842.0,0.4,0.1,-0.30000000000000004,0.9,3.0,9.3,-14.0,6.9,25.900000000000002,16
866,14858.0,0.1,0.2,0.0,0.6000000000000001,2.9000000000000004,9.5,-13.200000000000003,6.8,24.3,16
867,14880.0,-0.1,0.2,0.1,0.5,2.9000000000000004,9.600000000000001,-10.1,6.2,25.0,16
868,14895.0,-0.1,0.2,0.2,0.5,3.0,9.700000000000001,-6.2,1.6,26.9,16
869,14909.0,-0.2,0.30000000000000004,0.30000000000000004,0.6000000000000001,3.0,9.8,-1.7,-5.2,27.800000000000004,16
870,14927.0,0.0,0.4,0.4,0.8,3.1,9.9,2.4000000000000004,-11.700000000000001,26.5,16
871,14942.0,0.1,0.4,0.5,0.7000000000000001,3.1,10.0,4.800000000000001,-12.8,22.4,16
872,14960.0,-0.2,0.4,0.5,0.6000000000000001,3.0,10.100000000000001,5.2,-10.600000000000001,17.1,16
873,14995.0,-0.5,0.4,1.1,0.5,3.0,10.9,4.6,-6.699999999999999,12.200000000000001,16
874,15011.0,-0.4,0.4,1.5,0.7000000000000001,3.3000000000000003,10.4,12.7,-6.2,13.900000000000002,16
875,15027.0,-0.30000000000000004,0.5,1.0,0.8,3.4000000000000004,9.9,23.400000000000002,-1.6,16.1,16
876,15044.0,0.0,0.4,0.0,1.2000000000000002,3.2,9.200000000000001,22.6,1.9,18.1,16
877,15058.0,0.30000000000000004,0.30000000000000004,-0.2,1.2000000000000002,3.4000000000000004,9.3,11.700000000000001,5.9,16.8,16
878,15077.0,0.2,0.5,0.1,1.3,3.2,9.600000000000001,3.4,11.3,15.299999999999999,16
879,15092.0,0.4,0.2,0.30000000000000004,1.3,3.0,9.9,-0.8,13.000000000000002,16.0,16
880,15110.0,0.8,0.1,0.7000000000000001,2.2,3.1,10.3,-3.2,10.600000000000001,20.400000000000002,16
881,15125.0,1.3,0.1,0.9,2.7,3.2,10.5,-3.2,8.600000000000001,25.8,16
882,15142.0,2.2,0.4,1.2000000000000002,3.4000000000000004,3.3000000000000003,11.0,-2.6,4.5,25.0,16
883,15163.0,2.5,0.2,1.7000000000000002,3.5,3.0,11.100000000000001,-0.1,-2.3,17.7,16
884,15187.0,2.3000000000000003,0.1,1.3,3.2,3.1,10.200000000000001,16.1,4.9,5.7,16
885,15193.0,2.2,0.1,0.7000000000000001,3.0,3.0,9.5,16.1,4.9,5.7,16
886,15210.0,2.0,0.1,0.0,2.8000000000000003,2.9000000000000004,8.9,16.0,17.799999999999997,1.1,16
887,15227.0,1.7000000000000002,-0.2,-0.8,2.5,2.8000000000000003,8.6,7.699999999999999,30.1,-2.6,16
888,15242.0,1.3,-0.1,-0.6000000000000001,2.0,2.8000000000000003,9.200000000000001,0.2,34.400000000000006,-5.9,16
889,15264.0,1.0,-0.4,0.1,1.6,2.8000000000000003,9.5,1.5,23.099999999999998,-9.600000000000001,16
890,15284.0,0.6000000000000001,-0.2,-0.1,1.4000000000000001,2.8000000000000003,9.3,16.8,-16.5,-15.000000000000002,16
891,15298.0,0.6000000000000001,-0.30000000000000004,-0.1,1.1,2.8000000000000003,9.1,16.8,-16.5,-15.000000000000002,16
892,15309.0,0.30000000000000004,-0.30000000000000004,-0.30000000000000004,0.5,2.6,9.1,19.300000000000004,-20.8,-14.900000000000002,16
893,15326.0,-0.7000000000000001,-0.6000000000000001,-0.2,-0.1,3.0,9.5,15.100000000000001,-18.900000000000002,-8.899999999999999,16
894,15344.0,-0.8,-0.1,0.30000000000000004,0.6000000000000001,3.1,9.700000000000001,10.0,-18.5,2.7,16
895,15359.0,-0.4,-0.1,0.4,0.8,3.1,10.0,8.100000000000001,-22.9,9.700000000000001,16
896,15378.0,-0.5,-0.30000000000000004,0.2,0.9,3.0,9.1,7.699999999999999,-40.0,13.900000000000002,16
897,15392.0,-0.2,-0.30000000000000004,-0.2,1.3,4.3,9.8,11.4,-52.300000000000004,26.400000000000006,16
898,15409.0,0.30000000000000004,-0.7000000000000001,-0.30000000000000004,3.1,1.3,8.200000000000001,14.800000000000002,-83.2,47.400000000000006,16
899,15428.0,0.4,-0.30000000000000004,-1.7000000000000002,2.1,2.4000000000000004,7.800000000000001,16.5,-107.00000000000001,43.900000000000006,16
900,15447.0,0.6000000000000001,-1.1,-1.3,2.2,3.4000000000000004,7.9,27.099999999999998,-69.80000000000001,29.300000000000004,16
901,15459.0,0.0,0.0,-1.1,1.5,4.2,8.0,26.1,-46.1,10.1,16
902,15487.0,-0.4,-0.1,-1.0,2.5,2.7,7.800000000000001,34.60000000000001,-2.7,31.099999999999998,16
903,15501.0,0.2,-0.5,-1.2000000000000002,2.4000000000000004,3.3000000000000003,8.0,34.60000000000001,-2.7,31.099999999999998,16
904,15509.0,0.1,-0.30000000000000004,-1.0,2.1,3.7,7.5,36.2,26.9,32.0,16
905,15525.0,-0.4,0.2,-1.7000000000000002,1.8,3.9000000000000004,6.9,34.50000000000001,28.600000000000005,34.7,16
906,15546.0,-0.4,0.30000000000000004,-2.1,1.9000000000000001,4.1000000000000005,7.0,27.0,26.400000000000006,34.800000000000004,16
907,15559.0,-0.30000000000000004,0.30000000000000004,-1.8,2.2,4.1000000000000005,7.2,18.3,23.5,35.599999999999994,16
908,15596.0,0.0,0.30000000000000004,-0.1,2.4000000000000004,4.0,8.8,12.5,6.1000000000000005,30.599999999999998,16
909,15613.0,0.1,0.2,0.0,2.5,4.0,8.8,18.900000000000002,4.5,33.0,16
910,15625.0,0.4,0.30000000000000004,0.0,3.1,4.3,8.6,27.0,16.900000000000002,38.2,16
911,15643.0,0.9,0.4,-0.2,3.5,4.5,8.5,29.0,28.0,42.0,16
912,15662.0,1.5,0.8,0.1,3.6,4.9,9.4,22.3,34.7,39.699999999999996,16
913,15682.0,1.4000000000000001,0.9,1.3,3.5,4.7,10.600000000000001,21.1,39.50000000000001,34.50000000000001,16
914,15692.0,1.4000000000000001,0.7000000000000001,1.8,3.7,4.6000000000000005,10.8,35.699999999999996,41.1,35.0,16
915,15712.0,1.9000000000000001,0.5,1.8,4.3,4.800000000000001,10.0,56.7,40.6,36.6,16
916,15731.0,2.6,0.9,0.6000000000000001,4.7,5.5,8.6,72.60000000000001,42.2,33.50000000000001,16
917,15747.0,2.6,1.3,-0.5,4.0,6.1000000000000005,7.800000000000001,75.5,42.1,23.6,16
918,15758.0,2.2,1.5,-0.7000000000000001,3.7,6.300000000000001,7.800000000000001,66.60000000000001,39.2,13.399999999999999,16
919,15782.0,1.6,1.4000000000000001,-0.4,3.2,6.2,8.4,54.699999999999996,37.1,6.600000000000001,16
920,15796.0,1.3,1.1,0.30000000000000004,3.0,6.1000000000000005,8.9,50.3,34.7,3.0,16
921,15809.0,1.3,1.1,0.5,3.0,6.1000000000000005,9.3,54.0,23.400000000000002,-1.0,16
922,15828.0,1.2000000000000002,0.9,1.3,2.7,6.1000000000000005,9.3,59.699999999999996,0.9000000000000001,-9.8,16
923,15846.0,0.8,0.6000000000000001,0.30000000000000004,2.0,6.0,7.6000000000000005,67.5,-23.800000000000004,-22.9,16
924,15861.0,0.2,0.4,-0.5,1.9000000000000001,5.9,6.9,65.3,-36.1,-33.0,16
925,15882.0,0.30000000000000004,0.2,-1.7000000000000002,1.4000000000000001,5.800000000000001,6.2,45.6,-34.1,-32.6,16
926,15894.0,-0.30000000000000004,0.0,-1.7000000000000002,0.9,5.5,6.7,18.3,-2.4000000000000004,-32.400000000000006,16
927,15909.0,-0.7000000000000001,-0.5,-0.7000000000000001,1.0,5.4,7.6000000000000005,0.6000000000000001,35.4,-18.4,16
928,15925.0,-0.5,-0.5,-0.30000000000000004,1.1,5.6000000000000005,8.4,1.0,62.50000000000001,-15.2,16
929,15942.0,-0.6000000000000001,-0.2,0.5,0.30000000000000004,5.6000000000000005,7.9,16.6,59.00000000000001,-18.0,16
930,15959.0,-1.2000000000000002,0.0,-0.6000000000000001,-0.2,6.2,6.4,37.7,40.0,-21.0,16
931,15984.0,-1.2000000000000002,0.1,-1.9000000000000001,0.0,6.0,5.1000000000000005,47.400000000000006,11.3,-22.3,16
932,15996.0,-1.0,-0.2,-2.7,0.30000000000000004,5.9,5.0,44.10000000000001,-10.299999999999999,-24.0,16
933,16009.0,-1.0,-0.6000000000000001,-1.4000000000000001,0.0,5.300000000000001,6.5,23.5,-8.5,-23.0,16
934,16027.0,-1.0,-1.0,-1.0,0.1,5.5,6.6000000000000005,27.9,-10.9,-18.3,16
935,16042.0,-0.8,-0.6000000000000001,-1.2000000000000002,0.2,5.800000000000001,5.9,34.300000000000004,-10.0,-18.8,16
936,16064.0,-0.6000000000000001,-0.5,-1.9000000000000001,0.30000000000000004,6.1000000000000005,5.2,33.300000000000004,-4.5,-20.2,16
937,16084.0,-0.7000000000000001,-0.30000000000000004,-2.3000000000000003,0.0,6.2,4.7,25.900000000000002,2.4000000000000004,-23.800000000000004,16
938,16092.0,-0.8,-0.30000000000000004,-2.6,-0.2,6.4,4.6000000000000005,15.8,3.2,-27.3,16
939,16114.0,-1.2000000000000002,0.0,-2.2,-0.4,6.6000000000000005,5.7,3.6000000000000005,-1.0,-28.400000000000002,16
940,16125.0,-1.2000000000000002,0.0,-1.6,-0.2,6.5,6.1000000000000005,-1.9,-13.3,-26.5,16
941,16143.0,-0.9,-0.1,-1.0,0.0,6.5,6.2,1.5,-15.399999999999999,-23.3,16
942,16163.0,-0.5,-0.1,-1.2000000000000002,0.30000000000000004,6.6000000000000005,5.800000000000001,3.9,-14.700000000000001,-22.1,16
943,16183.0,-0.2,0.1,-1.4000000000000001,0.5,6.6000000000000005,5.800000000000001,0.9000000000000001,-14.600000000000001,-26.200000000000003,16
944,16192.0,-0.1,0.0,-1.4000000000000001,0.4,6.5,6.0,-3.9,-16.0,-32.7,16
945,16209.0,-0.2,-0.1,-1.2000000000000002,0.2,6.300000000000001,6.1000000000000005,-7.8,-17.400000000000002,-39.1,16
946,16225.0,-0.4,-0.5,-1.1,-0.1,5.9,6.0,-8.899999999999999,-14.400000000000002,-40.800000000000004,16
947,16242.0,-0.8,-0.7000000000000001,-1.5,-0.5,5.800000000000001,5.800000000000001,-12.200000000000001,-5.6,-36.0,16
948,16260.0,-0.7000000000000001,-0.7000000000000001,-0.9,-0.30000000000000004,6.0,7.0,-18.8,8.3,-27.2,16
949,16280.0,-0.5,-0.5,0.6000000000000001,0.1,5.800000000000001,8.700000000000001,-24.200000000000003,5.2,-20.599999999999998,16
950,16293.0,-0.30000000000000004,-0.6000000000000001,1.4000000000000001,0.4,5.800000000000001,9.4,-21.0,-13.100000000000001,-17.200000000000003,16
951,16310.0,0.6000000000000001,-0.7000000000000001,2.5,1.3,5.6000000000000005,10.0,-6.4,-37.7,-17.0,16
952,16325.0,0.9,-0.8,2.6,1.3,5.6000000000000005,9.9,10.9,-52.300000000000004,-22.2,16
953,16342.0,0.5,-0.8,2.3000000000000003,0.7000000000000001,5.7,8.9,22.000000000000004,-43.4,-26.000000000000004,16
954,16359.0,0.2,-0.8,1.6,0.5,5.800000000000001,8.0,19.200000000000003,-18.900000000000002,-22.6,16
955,16379.0,0.0,-0.5,0.30000000000000004,0.5,6.5,8.1,-4.7,0.5,-18.5,16
956,16392.0,0.0,0.4,1.8,0.5,6.800000000000001,9.200000000000001,-32.6,6.0,-16.200000000000003,16
957,16409.0,0.2,0.4,2.4000000000000004,0.9,6.7,9.9,-41.50000000000001,-3.4,-15.8,16
958,16427.0,1.0,0.4,2.5,1.6,6.6000000000000005,10.100000000000001,-46.0,-22.4,-17.200000000000003,16
959,16444.0,1.2000000000000002,0.5,2.0,1.9000000000000001,6.5,9.0,-51.1,-39.2,-20.0,16
960,16459.0,1.3,0.5,1.3,2.1,6.300000000000001,8.5,-63.4,-38.400000000000006,-18.1,16
961,16481.0,2.0,0.1,0.7000000000000001,2.6,5.6000000000000005,9.3,-82.3,-29.500000000000004,-14.700000000000001,16
962,16496.0,1.8,-0.4,2.4000000000000004,2.4000000000000004,4.6000000000000005,11.4,-92.0,-21.1,-13.3,16
963,16510.0,1.8,-0.9,3.2,2.2,4.3,11.200000000000001,-71.0,-9.8,-11.5,16
964,16526.0,1.1,-1.1,2.1,1.1,4.3,9.3,-33.300000000000004,6.699999999999999,-13.5,16
965,16548.0,-0.1,-1.0,-0.30000000000000004,0.30000000000000004,4.4,6.9,-2.7,13.3,-14.200000000000001,16
966,16560.0,-0.30000000000000004,-0.9,-1.4000000000000001,0.6000000000000001,4.2,6.4,8.5,3.1,-10.9,16
967,16589.0,-0.6000000000000001,0.0,-1.8,0.0,5.4,6.7,3.7000000000000006,-36.6,-12.9,16
968,16594.0,-0.7000000000000001,0.1,-1.6,0.9,4.6000000000000005,6.800000000000001,3.7000000000000006,-36.6,-12.9,16
969,16608.0,0.2,-0.8,-1.5,1.3,4.2,6.9,-0.1,-49.6,-13.000000000000002,16
970,16627.0,0.5,-1.1,-1.0,1.4000000000000001,4.2,7.300000000000001,-0.2,-40.300000000000004,-17.0,16
971,16643.0,0.2,-0.6000000000000001,-1.0,0.8,5.0,6.800000000000001,4.2,-24.5,-19.200000000000003,16
972,16664.0,0.0,-0.5,-1.7000000000000002,0.6000000000000001,5.2,6.300000000000001,6.699999999999999,-10.9,-17.400000000000002,16
973,16678.0,-0.2,-0.1,-1.8,0.4,5.6000000000000005,6.300000000000001,3.4,-7.699999999999999,-16.900000000000002,16
974,16697.0,-0.4,0.0,-1.7000000000000002,0.6000000000000001,5.1000000000000005,7.0,-6.2,-22.9,-15.299999999999999,16
975,16708.0,-0.30000000000000004,-0.2,-1.1,0.6000000000000001,5.1000000000000005,7.6000000000000005,-11.6,-38.400000000000006,-12.7,16
976,16728.0,-0.30000000000000004,-0.2,-0.2,0.8,5.300000000000001,7.800000000000001,-4.800000000000001,-41.50000000000001,-6.699999999999999,16
977,16743.0,-0.2,-0.1,-0.30000000000000004,1.0,5.4,7.4,5.0,-28.700000000000003,1.4,16
978,16759.0,0.1,0.30000000000000004,-1.1,1.3,6.0,6.6000000000000005,4.6,-7.6,5.1000000000000005,16
979,16783.0,0.30000000000000004,0.9,-1.4000000000000001,1.1,6.300000000000001,7.7,-26.6,6.500000000000001,-4.4,16
980,16793.0,0.30000000000000004,0.9,-1.4000000000000001,1.1,6.300000000000001,7.7,-26.6,6.500000000000001,-4.4,16
981,16808.0,-0.2,0.7000000000000001,0.7000000000000001,0.4,5.5,9.8,-32.2,4.2,-5.0,16
982,16826.0,-1.0,0.4,2.4000000000000004,0.2,5.7,10.8,-19.799999999999997,10.299999999999999,6.0,16
983,16842.0,-0.8,0.6000000000000001,2.5,0.9,5.9,10.600000000000001,2.5,16.6,20.7,16
984,16866.0,1.0,1.1,1.3,1.9000000000000001,6.9,8.8,32.400000000000006,24.3,14.900000000000002,16
985,16882.0,0.9,1.6,0.6000000000000001,1.4000000000000001,7.2,8.3,32.400000000000006,24.3,14.900000000000002,16
986,16892.0,0.5,1.8,0.2,1.5,6.6000000000000005,7.800000000000001,29.900000000000006,16.8,6.8,16
987,16915.0,0.1,0.5,0.1,0.6000000000000001,6.1000000000000005,8.700000000000001,-9.2,13.000000000000002,-1.8000000000000003,16
988,16925.0,-0.30000000000000004,0.7000000000000001,0.5,0.8,5.9,9.0,-9.2,13.000000000000002,-1.8000000000000003,16
989,16942.0,-0.1,0.5,0.8,-0.5,5.9,8.6,-15.700000000000001,26.799999999999997,-8.4,16
990,16959.0,-1.7000000000000002,0.30000000000000004,-0.4,-1.6,5.1000000000000005,7.4,-17.7,38.800000000000004,-12.200000000000001,16
991,16977.0,-2.9000000000000004,-0.4,-1.0,-2.1,5.0,8.3,-30.000000000000004,36.1,-7.8,16
992,16993.0,-2.6,-0.2,0.0,-1.7000000000000002,5.1000000000000005,9.600000000000001,-41.300000000000004,25.5,5.300000000000001,16
993,17008.0,-1.6,-0.1,1.9000000000000001,-0.6000000000000001,4.800000000000001,10.4,-30.799999999999997,2.6,11.900000000000002,16
994,17026.0,-0.7000000000000001,-0.4,1.8,0.2,4.6000000000000005,9.600000000000001,-7.1000000000000005,-20.900000000000002,11.8,16
995,17042.0,-0.4,-0.5,1.2000000000000002,0.6000000000000001,4.6000000000000005,8.700000000000001,12.600000000000001,-29.900000000000006,9.600000000000001,16
996,17059.0,0.30000000000000004,-0.6000000000000001,-0.6000000000000001,1.4000000000000001,4.5,7.2,17.0,-23.800000000000004,6.8,16
997,17080.0,0.8,-0.6000000000000001,-1.4000000000000001,1.5,4.3,6.7,6.9,-6.300000000000001,2.4000000000000004,16
998,17095.0,0.8,-0.8,-1.6,1.5,3.9000000000000004,6.6000000000000005,-6.300000000000001,13.6,-3.2,16
999,17109.0,0.7000000000000001,-1.3,-1.6,1.2000000000000002,3.7,7.0,-19.700000000000003,25.900000000000002,-8.600000000000001,16
1000,17127.0,0.4,-1.4000000000000001,-1.1,0.7000000000000001,3.4000000000000004,7.7,-28.400000000000002,30.5,-12.7,16
1001,17145.0,0.2,-1.6,-0.7000000000000001,0.4,3.2,7.9,-27.700000000000003,34.7,-13.900000000000002,16
1002,17159.0,-0.30000000000000004,-1.7000000000000002,-0.5,0.0,3.3000000000000003,7.800000000000001,-19.9,37.300000000000004,-10.299999999999999,16
1003,17176.0,-0.2,-1.5,-1.1,0.30000000000000004,3.6,7.2,-10.5,33.50000000000001,-3.9,16
1004,17192.0,0.1,-1.2000000000000002,-1.3,0.4,3.8000000000000003,7.2,-7.9,21.8,-0.9000000000000001,16
1005,17208.0,0.1,-0.8,-1.1,0.1,4.1000000000000005,7.6000000000000005,-8.100000000000001,9.600000000000001,-1.7,16
1006,17225.0,-0.1,-0.7000000000000001,-0.9,-0.1,4.1000000000000005,7.800000000000001,-6.0,4.4,-0.7,16
1007,17244.0,-0.30000000000000004,-0.5,-0.8,0.1,4.3,7.800000000000001,-3.9,5.6,2.3,16
1008,17262.0,0.30000000000000004,-0.30000000000000004,-0.5,0.7000000000000001,4.6000000000000005,8.3,-7.699999999999999,3.9,3.2,16
1009,17276.0,0.5,-0.1,-0.30000000000000004,0.5,4.800000000000001,8.700000000000001,-15.700000000000001,-2.2,-3.2,16
1010,17292.0,0.0,0.2,0.7000000000000001,0.1,4.6000000000000005,10.0,-21.500000000000004,-6.1000000000000005,-7.6,16
1011,17309.0,-0.1,0.0,1.4000000000000001,0.30000000000000004,4.5,10.600000000000001,-20.1,-7.300000000000001,-7.699999999999999,16
1012,17325.0,0.2,-0.1,2.3000000000000003,0.30000000000000004,4.5,10.9,-12.0,-5.2,-12.100000000000001,16
1013,17342.0,-0.2,0.1,1.9000000000000001,-0.30000000000000004,4.7,10.100000000000001,-8.2,1.6,-15.700000000000001,16
1014,17363.0,-0.4,0.2,1.2000000000000002,0.0,4.6000000000000005,10.3,-16.6,11.6,-12.200000000000001,16
1015,17375.0,-0.1,0.1,1.6,0.2,4.6000000000000005,11.200000000000001,-31.9,16.4,-6.1000000000000005,16
1016,17392.0,0.2,0.4,3.6,0.1,4.800000000000001,13.5,-35.0,7.200000000000001,-2.2,16
1017,17408.0,0.1,0.5,4.9,0.7000000000000001,4.5,12.4,-11.1,-6.2,2.5,16
1018,17427.0,0.6000000000000001,0.2,3.5,0.6000000000000001,4.6000000000000005,11.200000000000001,20.900000000000002,-20.5,5.1000000000000005,16
1019,17442.0,0.0,0.8,1.9000000000000001,0.5,5.2,10.600000000000001,30.4,-30.1,5.4,16
1020,17459.0,0.8,0.4,1.5,1.6,4.7,9.700000000000001,32.5,-34.1,11.2,16
1021,17482.0,1.9000000000000001,0.0,0.5,3.0,4.3,9.0,33.7,-29.400000000000002,15.299999999999999,16
1022,17500.0,2.4000000000000004,-0.2,0.30000000000000004,2.6,4.5,9.0,17.0,-18.6,6.0,16
1023,17509.0,2.1,-0.2,0.30000000000000004,2.5,4.4,8.3,17.0,-18.6,6.0,16
1024,17525.0,1.9000000000000001,-0.30000000000000004,-0.30000000000000004,2.4000000000000004,4.7,7.5,8.0,0.7,1.0,16
1025,17545.0,1.6,0.1,-1.7000000000000002,1.9000000000000001,4.800000000000001,6.7,-3.4,22.8,-7.0,16
1026,17563.0,0.9,0.2,-2.4000000000000004,0.5,5.1000000000000005,5.7,-13.100000000000001,36.400000000000006,-18.5,16
1027,17576.0,0.2,0.4,-3.0,-0.1,5.2,5.2,-21.200000000000003,34.7,-26.5,16
1028,17592.0,-0.8,0.4,-3.5,-0.9,4.9,6.2,-33.2,22.000000000000004,-24.599999999999998,16
1029,17609.0,-1.1,0.4,-2.5,-0.7000000000000001,4.800000000000001,7.5,-40.800000000000004,2.4000000000000004,-13.100000000000001,16
1030,17627.0,-0.2,0.1,-0.4,0.7000000000000001,4.3,9.0,-31.9,-23.800000000000004,-3.8,16
1031,17645.0,0.8,0.0,0.7000000000000001,1.8,4.3,9.700000000000001,-13.100000000000001,-44.4,-3.4,16
1032,17664.0,1.7000000000000002,-0.2,0.5,2.0,4.1000000000000005,8.4,9.899999999999999,-53.2,-11.900000000000002,16
1033,17676.0,1.4000000000000001,-0.30000000000000004,-0.30000000000000004,1.6,4.1000000000000005,7.6000000000000005,24.599999999999998,-50.8,-23.5,16
1034,17692.0,0.8,-0.30000000000000004,-1.4000000000000001,1.5,4.1000000000000005,7.2,22.8,-35.699999999999996,-26.200000000000003,16
1035,17709.0,0.8,-0.4,-1.5,1.5,4.2,6.9,16.1,-14.900000000000002,-21.7,16
1036,17727.0,0.7000000000000001,-0.1,-2.3000000000000003,1.0,4.9,6.0,9.8,5.1000000000000005,-20.8,16
1037,17746.0,0.2,0.7000000000000001,-2.6,0.6000000000000001,5.5,6.2,-1.2000000000000002,17.6,-24.1,16
1038,17759.0,0.1,1.0,-2.4000000000000004,0.2,5.6000000000000005,6.9,-11.4,13.5,-28.700000000000003,16
1039,17782.0,-0.9,1.0,-0.2,-0.5,5.5,8.5,5.7,-7.699999999999999,-22.5,16
1040,17800.0,-1.3,1.0,0.4,-0.9,5.6000000000000005,9.0,5.7,-7.699999999999999,-22.5,16
1041,17808.0,-1.3,1.0,0.4,-0.9,5.7,8.4,28.400000000000002,-20.599999999999998,-11.6,16
1042,17825.0,-1.4000000000000001,1.2000000000000002,-0.6000000000000001,-0.5,6.1000000000000005,7.6000000000000005,35.4,-33.9,-0.7,16
1043,17842.0,-0.8,1.4000000000000001,-0.8,-0.2,6.1000000000000005,8.3,24.400000000000002,-37.7,6.2,16
1044,17858.0,-0.8,1.3,-0.2,-0.2,5.9,9.200000000000001,9.2,-29.300000000000004,8.600000000000001,16
1045,17883.0,-1.2000000000000002,0.8,1.4000000000000001,-0.4,5.5,10.3,5.8,-14.100000000000001,12.8,16
1046,17892.0,-1.2000000000000002,0.6000000000000001,1.9000000000000001,-0.30000000000000004,5.5,10.600000000000001,14.600000000000001,-1.5,18.6,16
1047,17908.0,-1.1,0.7000000000000001,2.2,-0.30000000000000004,5.800000000000001,10.200000000000001,27.099999999999998,6.1000000000000005,23.0,16
1048,17925.0,-0.9,0.9,1.3,0.2,5.9,9.200000000000001,36.9,9.8,27.2,16
1049,17943.0,-0.5,0.9,0.9,0.6000000000000001,5.800000000000001,8.6,41.300000000000004,5.8,26.1,16
1050,17963.0,0.0,0.5,-0.5,0.6000000000000001,5.6000000000000005,7.800000000000001,36.5,-8.0,16.4,16
1051,17985.0,-0.7000000000000001,0.1,-0.1,-0.1,5.1000000000000005,8.6,5.300000000000001,-33.1,-6.0,16
1052,17993.0,-0.7000000000000001,0.1,-0.1,-0.1,5.1000000000000005,8.6,5.300000000000001,-33.1,-6.0,16
1053,18008.0,-1.0,-0.4,0.9,0.1,4.6000000000000005,9.4,-10.200000000000001,-28.0,-4.7,16
1054,18026.0,-0.5,-0.7000000000000001,1.3,0.8,4.5,9.600000000000001,-22.000000000000004,-11.1,0.8,16
1055,18044.0,-0.30000000000000004,-0.7000000000000001,1.2000000000000002,0.5,4.4,9.700000000000001,-31.5,12.7,1.4,16
1056,18063.0,-0.8,-0.8,1.5,-0.4,4.0,10.0,-36.1,27.400000000000002,-3.6000000000000005,16
1057,18075.0,-1.3,-0.9,1.5,-0.9,4.0,10.0,-36.1,27.400000000000002,-3.6000000000000005,16
1058,18095.0,-1.9000000000000001,-1.0,1.3,-1.0,3.7,9.700000000000001,-26.200000000000003,19.300000000000004,4.4,16
1059,18110.0,-1.8,-1.1,1.2000000000000002,-0.6000000000000001,3.7,9.700000000000001,-16.8,7.699999999999999,18.1,16
1060,18131.0,-0.7000000000000001,-1.1,0.9,0.7000000000000001,3.8000000000000003,9.1,-9.600000000000001,3.0,29.600000000000005,16
1061,18143.0,-0.1,-0.9,0.5,1.1,3.9000000000000004,8.700000000000001,-8.2,9.8,28.900000000000002,16
1062,18159.0,0.1,-0.7000000000000001,-0.4,0.4,4.2,7.7,-10.9,25.7,21.7,16
1063,18179.0,-0.8,-0.5,-1.5,-0.30000000000000004,4.2,6.6000000000000005,-15.000000000000002,44.2,18.3,16
1064,18195.0,-1.1,-0.2,-2.5,-0.4,4.5,5.9,-22.3,59.699999999999996,22.2,16
1065,18210.0,-0.8,-0.1,-2.8000000000000003,-0.1,4.6000000000000005,5.6000000000000005,-33.50000000000001,74.2,27.700000000000003,16
1066,18225.0,-0.30000000000000004,0.4,-2.9000000000000004,-0.2,4.800000000000001,6.6000000000000005,-49.1,90.19999999999999,29.600000000000005,16
1067,18243.0,-0.4,0.5,-2.2,-0.5,4.800000000000001,7.4,-59.300000000000004,96.80000000000001,26.9,16
1068,18258.0,-0.6000000000000001,0.4,-0.9,-0.8,4.4,8.3,-53.8,91.0,24.1,16
1069,18275.0,-0.6000000000000001,0.30000000000000004,-0.5,-0.9,4.2,8.0,-37.1,78.5,22.3,16
1070,18296.0,-0.2,0.1,-1.6,-0.30000000000000004,4.1000000000000005,6.800000000000001,-17.300000000000004,68.3,21.500000000000004,16
1071,18313.0,0.30000000000000004,0.1,-2.1,0.0,4.1000000000000005,6.800000000000001,-7.8,59.5,18.900000000000002,16
1072,18325.0,0.7000000000000001,0.1,-2.1,0.0,4.0,7.2,-11.3,42.2,8.600000000000001,16
1073,18344.0,0.6000000000000001,-0.1,-1.1,-0.4,3.6,8.4,-14.300000000000002,24.900000000000002,-3.6000000000000005,16
1074,18360.0,0.1,-0.5,0.1,-1.1,3.1,9.3,-9.5,17.6,-10.1,16
1075,18380.0,-0.5,-0.9,0.4,-1.5,3.1,9.1,4.0,21.1,-7.400000000000001,16
1076,18392.0,-0.5,-0.8,0.2,-1.6,3.5,8.8,14.700000000000001,26.5,-0.7,16
1077,18408.0,-0.6000000000000001,0.0,-0.30000000000000004,-1.5,4.1000000000000005,8.3,16.900000000000002,32.1,2.6,16
1078,18427.0,-0.30000000000000004,0.1,-0.30000000000000004,-1.3,4.1000000000000005,8.9,12.5,34.800000000000004,1.5,16
1079,18442.0,-0.1,0.1,0.1,-1.3,4.1000000000000005,9.4,8.700000000000001,30.799999999999997,0.30000000000000004,16
1080,18459.0,0.1,0.2,1.3,-1.0,4.4,10.3,10.9,22.3,1.4,16
1081,18475.0,0.30000000000000004,0.30000000000000004,1.5,-0.9,4.6000000000000005,10.200000000000001,18.700000000000003,12.8,2.9,16
1082,18492.0,0.7000000000000001,0.6000000000000001,1.3,-0.4,4.800000000000001,9.8,21.7,6.600000000000001,2.0,16
1083,18508.0,1.1,0.5,0.8,-0.7000000000000001,4.5,9.5,18.0,3.8,-3.2,16
1084,18527.0,0.7000000000000001,0.30000000000000004,0.7000000000000001,-1.3,4.3,9.700000000000001,6.1000000000000005,-0.6000000000000001,-9.4,16
1085,18542.0,0.0,0.1,1.0,-1.2000000000000002,3.8000000000000003,10.0,-6.4,-3.3000000000000007,-7.8,16
1086,18559.0,0.30000000000000004,-0.9,1.6,-0.4,2.8000000000000003,10.9,-17.6,-11.000000000000002,-3.4,16
1087,18579.0,1.7000000000000002,-1.6,2.8000000000000003,1.1,2.0,11.9,-28.500000000000004,-24.7,-1.3,16
1088,18594.0,2.2,-1.9000000000000001,3.0,1.1,1.8,12.0,-34.800000000000004,-36.0,-9.600000000000001,16
1089,18608.0,1.8,-2.3000000000000003,3.3000000000000003,0.4,1.2000000000000002,12.4,-42.7,-41.800000000000004,-21.300000000000004,16
1090,18626.0,1.4000000000000001,-2.5,3.4000000000000004,0.0,1.2000000000000002,12.200000000000001,-46.300000000000004,-33.50000000000001,-21.400000000000002,16
1091,18642.0,0.9,-2.3000000000000003,2.7,-0.1,1.5,11.3,-44.8,-14.600000000000001,-10.700000000000001,16
1092,18659.0,1.0,-1.6,1.4000000000000001,0.2,2.1,9.8,-39.300000000000004,2.4000000000000004,3.4,16
1093,18680.0,1.1,-0.8,0.0,0.1,2.9000000000000004,8.8,-33.6,3.4,10.5,16
1094,18691.0,1.1,-0.4,-0.5,0.1,3.3000000000000003,8.700000000000001,-29.900000000000006,-10.5,11.700000000000001,16
1095,18709.0,1.0,0.1,-0.6000000000000001,0.30000000000000004,3.5,8.9,-24.8,-30.4,10.9,16
1096,18726.0,1.0,0.4,-0.1,0.1,3.7,9.1,-10.5,-41.800000000000004,7.1000000000000005,16
1097,18743.0,0.6000000000000001,0.8,-0.8,-0.1,4.0,7.800000000000001,9.0,-44.10000000000001,4.0,16
1098,18760.0,0.4,0.8,-1.9000000000000001,0.2,4.0,7.1000000000000005,16.4,-41.0,1.7,16
1099,18781.0,0.6000000000000001,0.6000000000000001,-2.2,0.1,3.7,7.1000000000000005,14.100000000000001,-33.50000000000001,-3.9,16
1100,18794.0,0.4,0.4,-2.1,-0.1,3.5,7.300000000000001,10.1,-27.800000000000004,-13.000000000000002,16
1101,18808.0,0.2,0.2,-2.0,-0.4,3.3000000000000003,7.5,10.4,-27.099999999999998,-19.9,16
1102,18825.0,-0.4,-0.2,-1.4000000000000001,-0.7000000000000001,3.0,7.9,16.6,-26.000000000000004,-20.3,16
1103,18842.0,-0.6000000000000001,-0.5,-1.5,-0.7000000000000001,3.1,7.2,26.700000000000003,-17.400000000000002,-16.8,16
1104,18861.0,-0.5,-0.30000000000000004,-2.4000000000000004,-0.7000000000000001,3.3000000000000003,6.4,31.400000000000002,-2.7,-11.700000000000001,16
1105,18892.0,-1.4000000000000001,0.0,-2.7,-1.9000000000000001,3.6,6.800000000000001,21.900000000000002,20.400000000000002,3.5,16
1106,18910.0,-1.7000000000000002,0.0,-1.7000000000000002,-1.8,4.0,7.9,16.6,19.300000000000004,18.6,16
1107,18927.0,-1.5,0.30000000000000004,-1.1,-1.7000000000000002,4.3,8.3,15.8,19.200000000000003,32.2,16
1108,18945.0,-1.2000000000000002,0.8,-0.5,-1.6,4.9,8.6,19.6,24.400000000000002,39.1,16
1109,18958.0,-1.2000000000000002,1.1,-0.30000000000000004,-1.7000000000000002,5.300000000000001,8.4,24.200000000000003,38.60000000000001,41.800000000000004,16
1110,18980.0,-1.4000000000000001,1.9000000000000001,-0.9,-1.9000000000000001,5.800000000000001,8.200000000000001,5.1000000000000005,38.300000000000004,37.300000000000004,16
1111,18995.0,-1.4000000000000001,1.8,-0.6000000000000001,-2.0,5.7,8.8,5.1000000000000005,38.300000000000004,37.300000000000004,16
1112,19010.0,-1.5,1.7000000000000002,0.0,-2.2,5.6000000000000005,9.5,-12.600000000000001,23.5,32.0,16
1113,19025.0,-1.5,1.3,1.3,-2.2,5.0,11.0,-21.6,4.1,27.9,16
1114,19043.0,-1.7000000000000002,1.0,3.0,-1.9000000000000001,4.800000000000001,12.3,-16.8,-6.1000000000000005,27.3,16
1115,19064.0,-0.8,0.6000000000000001,3.3000000000000003,-0.8,4.3,12.0,0.30000000000000004,-5.6,30.4,16
1116,19081.0,-0.30000000000000004,0.4,3.1,-0.6000000000000001,4.3,11.5,14.300000000000002,-7.1000000000000005,18.4,16
1117,19096.0,-0.1,0.2,2.0,-0.5,3.8000000000000003,10.700000000000001,14.300000000000002,-7.1000000000000005,18.4,16
1118,19109.0,-0.1,-0.1,1.8,-0.7000000000000001,3.4000000000000004,10.700000000000001,-2.5,-17.799999999999997,6.2,16
1119,19128.0,-0.5,-1.0,2.1,-1.1,2.5,11.5,-23.3,-25.5,-1.8000000000000003,16
1120,19143.0,-1.1,-1.7000000000000002,2.8000000000000003,-1.5,1.9000000000000001,11.700000000000001,-34.2,-27.2,-1.5,16
1121,19165.0,-1.2000000000000002,-1.7000000000000002,2.0,-1.1,2.3000000000000003,10.5,-31.7,-19.200000000000003,9.2,16
1122,19181.0,-1.0,-1.3,1.4000000000000001,-0.7000000000000001,2.7,9.8,-23.0,-13.200000000000003,22.000000000000004,16
1123,19192.0,-0.6000000000000001,-0.9,0.7000000000000001,-0.2,3.0,9.200000000000001,-17.7,-29.700000000000006,28.200000000000003,16
1124,19210.0,0.30000000000000004,-0.4,-0.30000000000000004,0.9,3.4000000000000004,8.700000000000001,-20.1,-58.7,24.900000000000002,16
1125,19229.0,1.0,-0.2,-0.4,1.3,3.1,9.1,-27.0,-81.90000000000002,14.400000000000002,16
1126,19247.0,0.5,-0.6000000000000001,0.2,1.0,2.4000000000000004,9.700000000000001,-32.8,-83.89999999999999,2.9,16
1127,19262.0,0.2,-0.9,0.4,0.7000000000000001,2.2,9.8,-32.300000000000004,-64.4,2.1,16
1128,19280.0,-0.5,-1.2000000000000002,0.30000000000000004,0.2,2.0,9.1,-23.6,-31.799999999999997,13.000000000000002,16
1129,19296.0,-0.8,-1.0,-0.7000000000000001,0.1,2.3000000000000003,8.0,-10.9,9.899999999999999,31.2,16
1130,19309.0,-0.8,-0.8,-1.3,0.2,2.3000000000000003,7.6000000000000005,-3.4,39.699999999999996,45.7,16
1131,19325.0,-0.4,-0.8,-1.7000000000000002,0.1,2.3000000000000003,7.7,-1.6,46.300000000000004,49.6,16
1132,19342.0,-0.6000000000000001,-0.8,-1.6,-0.1,2.4000000000000004,7.7,5.8,41.300000000000004,52.1,16
1133,19364.0,-0.6000000000000001,-0.30000000000000004,-1.6,0.7000000000000001,2.7,7.4,31.6,18.200000000000003,58.3,16
1134,19375.0,-0.6000000000000001,-0.30000000000000004,-1.6,0.7000000000000001,2.7,7.4,31.6,18.200000000000003,58.3,16
1135,19391.0,-0.6000000000000001,-0.30000000000000004,-1.6,0.7000000000000001,2.7,7.4,31.6,18.200000000000003,58.3,16
1136,19414.0,0.2,-0.30000000000000004,-1.6,0.30000000000000004,3.2,7.9,12.0,6.699999999999999,14.100000000000001,16
1137,19425.0,-0.4,-0.2,-1.3,0.0,3.3000000000000003,8.5,12.0,6.699999999999999,14.100000000000001,16
1138,19444.0,-0.6000000000000001,-0.2,-0.1,0.0,3.2,9.1,6.2,18.0,11.8,16
1139,19462.0,-0.4,-0.2,0.2,0.4,3.1,9.4,10.1,30.599999999999998,15.899999999999999,16
1140,19483.0,0.2,-0.30000000000000004,0.4,1.1,3.2,9.700000000000001,15.899999999999999,36.1,21.6,16
1141,19493.0,0.6000000000000001,-0.30000000000000004,0.6000000000000001,1.6,3.2,9.9,16.700000000000003,25.900000000000002,24.599999999999998,16
1142,19508.0,1.5,-0.1,1.0,2.1,3.6,10.200000000000001,18.700000000000003,11.2,22.3,16
1143,19525.0,1.7000000000000002,0.1,0.9,2.3000000000000003,3.7,9.600000000000001,25.200000000000003,2.1,17.200000000000003,16
1144,19542.0,1.9000000000000001,0.0,0.6000000000000001,2.4000000000000004,3.6,9.200000000000001,31.0,1.6,12.600000000000001,16
1145,19559.0,2.1,-0.30000000000000004,0.0,2.9000000000000004,3.2,9.0,27.700000000000003,3.0,9.2,16
1146,19577.0,2.4000000000000004,-0.6000000000000001,0.0,3.2,3.0,9.0,16.4,4.0,5.9,16
1147,19597.0,2.7,-0.9,0.1,3.0,2.9000000000000004,9.1,2.9,7.6,0.1,16
1148,19609.0,2.5,-0.9,0.1,2.8000000000000003,2.9000000000000004,9.1,-7.8,11.4,-7.500000000000001,16
1149,19629.0,2.2,-0.7000000000000001,0.1,2.8000000000000003,3.0,9.1,-18.3,13.000000000000002,-13.900000000000002,16
1150,19648.0,2.8000000000000003,-0.8,-0.1,3.6,2.5,9.0,-28.600000000000005,14.800000000000002,-17.7,16
1151,19662.0,3.2,-1.1,-0.1,3.7,2.2,9.700000000000001,-43.4,12.8,-25.900000000000002,16
1152,19676.0,3.3000000000000003,-1.2000000000000002,0.5,3.2,2.3000000000000003,10.5,-58.800000000000004,4.800000000000001,-39.599999999999994,16
1153,19692.0,2.5,-1.1,2.1,2.6,1.9000000000000001,11.8,-56.300000000000004,-5.4,-48.800000000000004,16
1154,19708.0,2.0,-1.3,2.6,2.2,1.8,11.4,-36.7,-18.1,-51.70000000000001,16
1155,19727.0,1.9000000000000001,-1.2000000000000002,1.3,2.4000000000000004,2.0,9.9,-14.0,-32.8,-50.400000000000006,16
1156,19742.0,1.9000000000000001,-1.0,0.6000000000000001,2.4000000000000004,2.4000000000000004,9.5,-8.600000000000001,-53.0,-51.4,16
1157,19758.0,1.8,-0.5,0.0,2.4000000000000004,2.3000000000000003,9.5,-22.8,-71.7,-55.2,16
1158,19780.0,1.4000000000000001,-0.7000000000000001,0.5,2.3000000000000003,2.1,9.9,-46.300000000000004,-79.3,-57.400000000000006,16
1159,19794.0,1.1,-0.8,1.2000000000000002,1.8,2.1,11.200000000000001,-64.60000000000001,-69.20000000000002,-54.9,16
1160,19808.0,0.5,-0.2,2.2,1.6,2.5,11.700000000000001,-64.4,-41.300000000000004,-44.4,16
1161,19828.0,0.7000000000000001,0.2,1.7000000000000002,2.0,2.6,10.3,-46.0,-13.200000000000003,-33.300000000000004,16
1162,19842.0,0.9,0.30000000000000004,0.8,1.8,2.7,9.4,-24.1,0.2,-32.5,16
1163,19859.0,0.5,0.4,-1.0,1.3,2.7,7.9,-9.700000000000001,1.8000000000000003,-40.0,16
1164,19876.0,0.2,0.4,-1.6,1.0,2.7,7.4,-2.7,-2.3,-47.80000000000001,16
1165,19891.0,-0.30000000000000004,0.4,-2.3000000000000003,0.7000000000000001,2.7,7.1000000000000005,1.0,-12.0,-51.6,16
1166,19910.0,-0.30000000000000004,0.4,-2.4000000000000004,0.8,2.8000000000000003,6.9,6.0,-20.0,-51.9,16
1167,19925.0,-0.30000000000000004,0.4,-2.5,0.7000000000000001,2.8000000000000003,6.6000000000000005,13.3,-20.3,-54.0,16
1168,19942.0,-0.6000000000000001,0.30000000000000004,-3.1,0.1,3.0,6.1000000000000005,18.3,-16.700000000000003,-58.5,16
1169,19960.0,-1.4000000000000001,0.4,-3.2,-0.6000000000000001,3.1,6.2,16.3,-14.5,-62.50000000000001,16
1170,19985.0,-1.9000000000000001,0.6000000000000001,-2.9000000000000004,-0.9,3.5,7.0,11.3,-13.000000000000002,-59.40000000000001,16
1171,19993.0,-1.9000000000000001,0.8,-2.3000000000000003,-0.7000000000000001,3.7,7.9,4.300000000000001,-11.700000000000001,-49.199999999999996,16
1172,20008.0,-1.7000000000000002,1.2000000000000002,-0.6000000000000001,-0.9,4.2,9.1,2.5,-8.2,-40.1,16
1173,20025.0,-1.8,1.4000000000000001,-0.1,-1.0,4.4,9.4,9.899999999999999,-3.5,-33.7,16
1174,20042.0,-1.9000000000000001,1.8,0.2,-0.9,4.7,9.4,18.900000000000002,-0.9000000000000001,-27.099999999999998,16
1175,20066.0,-1.5,1.8,0.30000000000000004,-0.30000000000000004,4.6000000000000005,9.700000000000001,19.0,3.9,-19.400000000000002,16
1176,20078.0,-1.1,1.6,0.5,-0.1,4.4,10.100000000000001,13.6,13.000000000000002,-12.4,16
1177,20096.0,-0.8,1.3,1.6,-0.1,4.1000000000000005,11.600000000000001,6.500000000000001,19.0,-9.700000000000001,16
1178,20115.0,-1.0,1.1,2.7,-0.4,4.0,12.100000000000001,7.6,16.700000000000003,-9.0,16
1179,20128.0,-1.1,1.0,2.8000000000000003,-0.6000000000000001,3.9000000000000004,11.600000000000001,15.700000000000001,13.000000000000002,-8.4,16
1180,20144.0,-1.3,0.6000000000000001,1.9000000000000001,-0.5,3.5,10.9,19.5,8.5,-6.9,16
1181,20161.0,-1.1,0.1,1.8,-0.4,3.1,11.3,9.899999999999999,-5.4,-6.600000000000001,16
1182,20190.0,-1.1,-0.4,2.5,-0.4,2.3000000000000003,12.3,-9.600000000000001,-22.1,-5.9,16
1183,20193.0,-1.1,-0.8,3.0,-0.4,1.9000000000000001,12.600000000000001,-9.600000000000001,-22.1,-5.9,16
1184,20208.0,-1.1,-1.2000000000000002,3.2,-0.4,1.7000000000000002,12.600000000000001,-11.3,-24.200000000000003,1.6,16
1185,20225.0,-1.0,-1.4000000000000001,3.1,0.0,1.6,12.0,-10.4,-19.400000000000002,13.000000000000002,16
1186,20242.0,-0.7000000000000001,-1.2000000000000002,1.9000000000000001,0.1,1.9000000000000001,10.5,-9.600000000000001,-4.800000000000001,22.8,16
1187,20258.0,-0.7000000000000001,-1.0,1.1,0.0,2.0,9.9,-15.700000000000001,9.8,26.300000000000004,16
1188,20275.0,-0.9,-0.9,0.30000000000000004,-0.1,2.0,9.5,-25.300000000000004,17.400000000000002,26.9,16
1189,20295.0,-0.9,-0.8,0.1,0.0,2.0,9.600000000000001,-30.200000000000003,12.5,26.300000000000004,16
1190,20312.0,-0.8,-0.6000000000000001,0.30000000000000004,0.0,2.0,9.8,-31.400000000000002,-2.6,25.5,16
1191,20326.0,-0.7000000000000001,-0.5,0.30000000000000004,0.4,2.2,9.700000000000001,-27.400000000000002,-14.700000000000001,26.5,16
1192,20342.0,-0.2,-0.4,-0.1,0.7000000000000001,2.1,9.4,-20.2,-18.4,24.5,16
1193,20358.0,-0.30000000000000004,-0.5,-0.5,0.5,2.0,8.700000000000001,-16.200000000000003,-7.9,19.5,16
1194,20390.0,-1.0,-0.6000000000000001,-1.4000000000000001,-0.30000000000000004,1.5,8.1,-13.5,31.7,20.599999999999998,16
1195,20392.0,-1.2000000000000002,-0.9,-1.4000000000000001,-0.30000000000000004,1.5,8.1,-13.5,31.7,20.599999999999998,16
1196,20408.0,-1.4000000000000001,-1.0,-1.3,-0.6000000000000001,1.3,8.4,-9.3,38.1,28.800000000000004,16
1197,20427.0,-1.2000000000000002,-0.9,-1.0,-0.2,1.6,8.5,0.8,32.8,38.7,16
1198,20442.0,-0.8,-0.7000000000000001,-1.0,0.30000000000000004,1.9000000000000001,8.3,16.6,22.2,44.5,16
1199,20459.0,-0.1,-0.30000000000000004,-1.5,0.8,2.2,7.5,31.9,11.3,40.800000000000004,16
1200,20477.0,0.2,-0.1,-2.5,0.8,2.5,6.6000000000000005,38.400000000000006,4.800000000000001,31.799999999999997,16
1201,20494.0,0.0,0.0,-2.9000000000000004,0.5,2.7,6.6000000000000005,31.099999999999998,5.0,22.5,16
1202,20508.0,-0.1,0.1,-2.7,0.5,2.8000000000000003,7.0,19.0,10.600000000000001,17.300000000000004,16
1203,20525.0,0.0,0.2,-1.8,0.8,2.8000000000000003,8.0,9.5,18.700000000000003,15.5,16
1204,20542.0,0.2,0.2,-1.3,0.8,2.9000000000000004,8.3,7.9,25.1,13.100000000000001,16
1205,20560.0,0.2,0.30000000000000004,-0.8,0.6000000000000001,3.0,8.6,11.700000000000001,28.900000000000002,9.899999999999999,16
1206,20576.0,0.1,0.30000000000000004,-0.7000000000000001,0.5,3.2,8.700000000000001,16.900000000000002,26.400000000000006,7.699999999999999,16
1207,20592.0,0.1,0.4,-0.6000000000000001,0.4,3.4000000000000004,8.6,21.6,22.9,8.100000000000001,16
1208,20608.0,0.1,0.6000000000000001,-0.8,0.5,3.5,8.8,21.1,15.700000000000001,9.600000000000001,16
1209,20625.0,0.4,0.6000000000000001,0.30000000000000004,1.1,3.5,10.3,14.200000000000001,2.4000000000000004,10.1,16
1210,20642.0,0.7000000000000001,0.5,1.0,1.4000000000000001,3.5,10.9,11.5,-11.2,6.500000000000001,16
1211,20659.0,1.4000000000000001,0.30000000000000004,2.3000000000000003,2.2,3.2,12.200000000000001,11.1,-23.400000000000002,0.30000000000000004,16
1212,20681.0,1.8,0.1,3.2,2.4000000000000004,3.0,12.5,11.700000000000001,-33.9,-7.200000000000001,16
1213,20697.0,1.9000000000000001,-0.4,3.0,2.5,2.7,12.200000000000001,15.700000000000001,-30.4,-13.6,16
1214,20709.0,1.8,-0.6000000000000001,2.6,2.1,2.4000000000000004,11.700000000000001,15.100000000000001,-21.900000000000002,-19.400000000000002,16
1215,20725.0,1.2000000000000002,-0.7000000000000001,2.1,2.0,2.2,11.100000000000001,7.0,-17.400000000000002,-21.6,16
1216,20743.0,1.2000000000000002,-1.0,1.8,2.3000000000000003,2.0,11.100000000000001,-4.1,-20.2,-19.700000000000003,16
1217,20758.0,1.9000000000000001,-1.1,2.2,3.2,1.9000000000000001,11.8,-15.299999999999999,-27.6,-19.9,16
1218,20776.0,2.3000000000000003,-1.2000000000000002,2.5,3.5,1.8,12.100000000000001,-20.8,-38.400000000000006,-25.0,16
1219,20793.0,2.5,-1.2000000000000002,2.9000000000000004,3.5,1.8,12.200000000000001,-22.3,-49.1,-31.2,16
1220,20808.0,2.5,-1.2000000000000002,2.8000000000000003,3.2,1.9000000000000001,11.700000000000001,-22.3,-49.1,-31.2,16
1221,20825.0,1.6,-0.7000000000000001,1.5,2.5,2.4000000000000004,10.0,-18.4,-29.200000000000003,-27.800000000000004,16
1222,20842.0,1.1,-0.2,-0.2,2.0,2.8000000000000003,8.4,-25.1,-9.600000000000001,-19.300000000000004,16
1223,20859.0,0.6000000000000001,0.2,-1.6,1.7000000000000002,3.1,7.4,-34.60000000000001,9.700000000000001,-11.6,16
1224,20878.0,0.4,0.4,-2.3000000000000003,1.4000000000000001,2.9000000000000004,6.9,-41.800000000000004,17.7,-8.700000000000001,16
1225,20894.0,0.2,0.4,-2.6,1.2000000000000002,2.8000000000000003,6.800000000000001,-42.3,14.300000000000002,-9.899999999999999,16
1226,20913.0,0.0,0.4,-2.7,1.1,2.8000000000000003,6.7,-37.6,1.1,-12.299999999999999,16
1227,20929.0,-0.1,0.5,-2.9000000000000004,0.9,2.8000000000000003,6.4,-28.400000000000002,-15.100000000000001,-15.899999999999999,16
1228,20942.0,-0.30000000000000004,0.5,-3.1,0.8,2.8000000000000003,6.4,-19.9,-24.200000000000003,-19.700000000000003,16
