,ms,accelX,accelY,accelZ,accelWithGX,accelWithGY,accelWithGZ,rotRateAlpha,rotRateBeta,rotRateGamma,interval
0,162.0,0.0,-0.1,0.2,1.4000000000000001,-2.4000000000000004,9.600000000000001,-4.1,13.900000000000002,-0.30000000000000004,16
1,179.0,-0.2,0.0,0.30000000000000004,1.2000000000000002,-2.4000000000000004,9.700000000000001,-4.7,12.8,-1.0,16
2,196.0,-0.2,0.0,0.4,1.1,-2.3000000000000003,9.8,-4.6,10.9,-1.1,16
3,222.0,0.1,-0.1,0.7000000000000001,1.4000000000000001,-2.4000000000000004,10.200000000000001,0.8,7.8,-1.0,16
4,229.0,0.0,-0.1,0.7000000000000001,1.3,-2.4000000000000004,10.200000000000001,3.4,6.500000000000001,-1.3,16
5,246.0,0.0,-0.2,0.5,1.2000000000000002,-2.5,9.9,4.800000000000001,5.0,-1.4,16
6,262.0,-0.1,0.0,0.1,1.2000000000000002,-2.3000000000000003,9.5,4.4,0.9000000000000001,-1.1,16
7,278.0,0.0,0.0,-0.1,1.2000000000000002,-2.3000000000000003,9.4,0.7,1.9,0.1,16
8,295.0,0.0,0.0,0.2,1.2000000000000002,-2.3000000000000003,9.600000000000001,-2.8,3.4,1.6,16
9,315.0,0.1,-0.1,0.4,1.3,-2.4000000000000004,9.8,-3.4,4.0,2.3,16
10,329.0,0.1,-0.2,0.5,1.3,-2.5,10.0,-2.0,3.2,1.7,16
11,345.0,0.1,-0.2,0.5,1.4000000000000001,-2.5,9.9,-0.2,1.6,-0.30000000000000004,16
12,362.0,0.0,-0.2,0.4,1.3,-2.5,9.8,1.5,0.4,-1.9,16
13,384.0,-0.1,0.0,0.1,1.1,-2.4000000000000004,9.5,3.4,-0.2,-2.8,16
14,399.0,-0.1,0.0,0.0,1.1,-2.4000000000000004,9.4,3.6000000000000005,2.2,-2.5,16
15,412.0,-0.1,0.0,-0.1,1.1,-2.3000000000000003,9.4,3.4,4.800000000000001,-1.9,16
16,429.0,0.0,0.0,0.1,1.1,-2.3000000000000003,9.5,3.1,6.2,-1.6,16
17,445.0,0.0,-0.1,0.2,1.1,-2.4000000000000004,9.600000000000001,3.4,5.0,-1.6,16
18,462.0,0.0,-0.1,0.0,1.2000000000000002,-2.4000000000000004,9.5,2.8,1.8000000000000003,-2.0,16
19,483.0,0.0,0.0,-0.2,1.2000000000000002,-2.3000000000000003,9.3,0.30000000000000004,1.2000000000000002,-2.6,16
20,497.0,0.0,0.1,-0.2,1.1,-2.3000000000000003,9.3,-0.1,2.2,-2.2,16
21,512.0,0.0,0.1,-0.1,1.1,-2.2,9.4,-0.7,4.300000000000001,-0.6000000000000001,16
22,529.0,-0.1,0.1,0.0,1.0,-2.2,9.5,-1.3,5.500000000000001,0.9000000000000001,16
23,545.0,0.1,0.0,0.0,1.2000000000000002,-2.4000000000000004,9.5,-3.3000000000000007,4.800000000000001,2.7,16
24,563.0,0.30000000000000004,-0.1,0.30000000000000004,1.3,-2.4000000000000004,9.8,-3.9,4.300000000000001,1.8000000000000003,16
25,579.0,0.30000000000000004,-0.1,0.6000000000000001,1.4000000000000001,-2.5,10.0,-1.9,3.2,-0.1,16
26,595.0,0.2,-0.1,0.5,1.3,-2.5,10.0,1.3,1.3,-2.6,16
27,614.0,0.1,-0.1,0.30000000000000004,1.1,-2.4000000000000004,9.700000000000001,2.4000000000000004,-1.1,-3.9,16
28,629.0,0.0,0.0,0.0,1.1,-2.4000000000000004,9.4,1.0,-1.5,-4.5,16
29,645.0,-0.1,0.1,0.0,1.0,-2.3000000000000003,9.4,-1.1,0.2,-4.2,16
30,662.0,0.0,0.1,0.30000000000000004,1.1,-2.2,9.700000000000001,-1.6,3.2,-3.0,16
31,678.0,0.0,0.1,0.6000000000000001,1.1,-2.3000000000000003,10.0,0.6000000000000001,4.9,-2.7,16
32,695.0,-0.1,0.0,0.5,1.0,-2.4000000000000004,10.0,3.3000000000000007,3.3000000000000007,-2.5,16
33,712.0,-0.1,0.0,0.2,1.0,-2.3000000000000003,9.700000000000001,2.2,0.1,-2.6,16
34,729.0,0.0,0.0,0.30000000000000004,1.1,-2.3000000000000003,9.8,0.9000000000000001,0.5,-2.8,16
35,745.0,0.0,0.0,0.5,1.1,-2.3000000000000003,10.0,2.2,2.1,-3.3000000000000007,16
36,762.0,-0.1,0.0,0.5,1.0,-2.3000000000000003,10.0,4.5,2.1,-3.5,16
37,778.0,-0.1,-0.1,0.30000000000000004,0.9,-2.3000000000000003,9.8,5.8,0.1,-3.5,16
38,795.0,-0.1,0.0,0.1,1.0,-2.3000000000000003,9.5,5.1000000000000005,0.1,-4.2,16
39,812.0,0.0,0.1,0.1,1.0,-2.2,9.600000000000001,4.1,3.0,-4.800000000000001,16
40,828.0,-0.2,0.1,0.0,0.8,-2.1,9.5,3.2,4.6,-3.8,16
41,845.0,-0.30000000000000004,0.0,-0.1,0.7000000000000001,-2.2,9.4,1.2000000000000002,4.2,-2.7,16
42,862.0,0.0,-0.1,-0.1,1.0,-2.3000000000000003,9.4,-1.6,4.9,-2.6,16
43,878.0,0.1,-0.1,0.1,0.9,-2.3000000000000003,9.700000000000001,-2.8,6.699999999999999,-4.5,16
44,895.0,-0.1,0.0,0.30000000000000004,0.9,-2.3000000000000003,9.8,0.6000000000000001,6.2,-6.2,16
45,912.0,-0.1,0.1,0.30000000000000004,0.8,-2.1,9.8,5.2,5.0,-6.500000000000001,16
46,928.0,-0.2,0.30000000000000004,0.2,0.8,-1.9000000000000001,9.700000000000001,8.5,5.4,-5.8,16
47,947.0,-0.1,0.2,0.30000000000000004,0.8,-2.0,9.8,11.5,8.5,-4.0,16
48,962.0,-0.1,0.0,0.1,0.8,-2.1,9.700000000000001,13.200000000000003,10.600000000000001,-2.7,16
49,978.0,-0.1,-0.30000000000000004,0.1,0.8,-2.4000000000000004,9.700000000000001,12.4,9.100000000000001,-2.9,16
50,995.0,0.1,-0.30000000000000004,0.1,0.9,-2.4000000000000004,9.700000000000001,10.200000000000001,4.7,-4.800000000000001,16
51,1012.0,0.1,-0.30000000000000004,0.2,1.0,-2.3000000000000003,9.8,7.8,0.9000000000000001,-6.500000000000001,16
52,1028.0,-0.30000000000000004,-0.2,0.4,0.5,-2.3000000000000003,9.9,6.600000000000001,0.9000000000000001,-6.2,16
53,1046.0,0.0,0.2,1.0,0.9,-1.9000000000000001,10.5,8.4,-10.1,-5.300000000000001,16
54,1063.0,0.1,0.0,0.8,1.0,-2.0,10.4,13.399999999999999,-11.700000000000001,-1.7,16
55,1078.0,0.1,-0.1,0.4,1.1,-2.0,9.9,15.700000000000001,-12.5,-1.4,16
56,1095.0,0.0,-0.1,-0.1,1.0,-2.1,9.5,13.100000000000001,-13.700000000000001,-2.2,16
57,1115.0,0.1,0.0,-0.1,1.1,-1.9000000000000001,9.4,8.4,-13.8,-3.0,16
58,1128.0,-0.1,0.4,0.1,0.9,-1.5,9.700000000000001,5.7,-13.3,-2.7,16
59,1145.0,-0.4,0.4,0.2,0.7000000000000001,-1.5,9.8,3.1,-15.000000000000002,1.4,16
60,1162.0,-0.2,0.2,0.30000000000000004,0.8,-1.6,9.9,2.1,-20.400000000000002,4.6,16
61,1179.0,0.1,0.1,0.1,1.1,-1.7000000000000002,9.700000000000001,2.8,-27.099999999999998,5.300000000000001,16
62,1195.0,0.1,-0.30000000000000004,0.1,1.2000000000000002,-2.0,9.700000000000001,3.0,-26.799999999999997,5.300000000000001,16
63,1212.0,0.6000000000000001,-0.30000000000000004,1.1,1.7000000000000002,-2.1,10.600000000000001,9.4,-23.099999999999998,2.1,16
64,1229.0,-0.1,-0.1,0.1,1.1,-1.9000000000000001,9.700000000000001,11.5,-49.6,-7.0,16
65,1245.0,0.0,-0.2,-0.30000000000000004,1.3,-1.9000000000000001,9.3,8.700000000000001,-54.199999999999996,-6.699999999999999,16
66,1263.0,0.2,0.0,-0.5,1.7000000000000002,-1.7000000000000002,9.0,4.6,-53.2,-4.9,16
67,1278.0,0.4,0.1,-0.5,2.0,-1.5,9.0,0.8,-47.2,-4.0,16
68,1295.0,0.30000000000000004,0.1,-0.2,2.1,-1.5,9.3,-1.2000000000000002,-37.400000000000006,-2.8,16
69,1312.0,0.30000000000000004,0.0,0.0,2.2,-1.7000000000000002,9.5,0.9000000000000001,-33.1,-1.2000000000000002,16
70,1328.0,0.30000000000000004,-0.2,-0.1,2.3000000000000003,-1.9000000000000001,9.4,3.2,-33.50000000000001,-0.8,16
71,1345.0,0.8,-0.7000000000000001,1.0,2.9000000000000004,-2.4000000000000004,10.4,4.300000000000001,-26.200000000000003,-3.7000000000000006,16
72,1362.0,1.0,-1.5,2.9000000000000004,3.1,-3.1,12.4,12.200000000000001,-25.1,-17.1,16
73,1378.0,0.8,-1.1,4.2,3.0,-2.7,13.600000000000001,26.1,-51.6,-41.4,16
74,1395.0,0.7000000000000001,-1.3,1.4000000000000001,3.2,-2.7,10.8,35.9,-108.0,-73.4,16
75,1412.0,-1.1,-0.9,1.1,1.8,-2.1,10.4,38.0,-163.5,-77.20000000000002,16
76,1428.0,-1.1,0.30000000000000004,-0.6000000000000001,2.3000000000000003,-0.8,8.6,38.7,-162.3,-65.2,16
77,1445.0,-0.8,0.9,-2.4000000000000004,3.0,-0.1,6.6000000000000005,41.300000000000004,-147.1,-49.0,16
78,1462.0,0.8,1.4000000000000001,-8.200000000000001,4.9,0.6000000000000001,0.6000000000000001,29.600000000000005,-81.0,-33.400000000000006,16
79,1478.0,0.9,2.0,-6.5,5.2,1.4000000000000001,2.3000000000000003,11.2,-37.400000000000006,-21.8,16
80,1495.0,-0.9,1.0,-3.1,3.4000000000000004,0.30000000000000004,5.7,-17.6,29.700000000000006,-8.2,16
81,1513.0,-1.3,-0.30000000000000004,0.2,2.9000000000000004,-1.0,9.1,-19.1,46.0,6.9,16
82,1528.0,0.30000000000000004,-1.0,-0.30000000000000004,4.4,-1.8,8.6,-15.100000000000001,25.6,9.2,16
83,1545.0,1.0,-1.3,-2.0,5.1000000000000005,-2.1,6.9,-26.400000000000006,30.799999999999997,-0.8,16
84,1563.0,0.0,-1.1,-1.3,4.0,-2.0,7.6000000000000005,-54.800000000000004,50.2,-18.3,16
85,1578.0,-0.2,-0.2,-0.2,3.6,-1.3,8.8,-66.2,43.00000000000001,-26.000000000000004,16
86,1595.0,-0.7000000000000001,0.0,0.4,3.0,-1.2000000000000002,9.4,-66.5,31.9,-26.1,16
87,1613.0,-1.1,0.30000000000000004,0.7000000000000001,2.5,-1.0,9.700000000000001,-62.1,21.8,-17.7,16
88,1628.0,-1.2000000000000002,0.7000000000000001,0.5,2.4000000000000004,-0.7000000000000001,9.5,-58.1,10.600000000000001,-5.500000000000001,16
89,1645.0,-1.3,0.30000000000000004,1.2000000000000002,2.3000000000000003,-1.2000000000000002,10.200000000000001,-49.300000000000004,0.2,13.100000000000001,16
90,1662.0,-0.6000000000000001,0.1,1.5,3.0,-1.6,10.5,-38.300000000000004,-12.8,26.200000000000003,16
91,1678.0,-0.2,0.0,1.0,3.4000000000000004,-1.9000000000000001,9.9,-32.1,-25.6,29.400000000000002,16
92,1695.0,0.0,-0.30000000000000004,0.7000000000000001,3.6,-2.2,9.600000000000001,-29.300000000000004,-30.1,28.200000000000003,16
93,1713.0,-0.30000000000000004,-0.5,1.0,3.5,-2.6,9.8,-21.500000000000004,-35.3,23.800000000000004,16
94,1728.0,-0.30000000000000004,-0.5,0.7000000000000001,3.5,-2.7,9.5,-16.5,-39.8,21.0,16
95,1745.0,-0.2,-0.4,0.4,3.7,-2.6,9.200000000000001,-15.2,-43.6,16.8,16
96,1762.0,0.1,0.0,-0.30000000000000004,4.1000000000000005,-2.2,8.3,-17.1,-43.300000000000004,12.600000000000001,16
97,1778.0,0.2,0.2,-0.7000000000000001,4.2,-2.1,7.9,-23.3,-32.300000000000004,8.899999999999999,16
98,1795.0,-0.1,0.1,-0.2,4.0,-2.2,8.4,-24.0,-20.900000000000002,8.600000000000001,16
99,1812.0,-0.1,0.1,0.30000000000000004,4.1000000000000005,-2.3000000000000003,8.8,-17.9,-11.2,9.8,16
100,1828.0,0.0,0.1,0.30000000000000004,4.1000000000000005,-2.4000000000000004,8.9,-11.4,-5.300000000000001,9.600000000000001,16
101,1845.0,0.0,0.1,0.4,4.2,-2.4000000000000004,8.9,-6.0,-2.9,8.700000000000001,16
102,1862.0,0.1,0.2,0.1,4.2,-2.4000000000000004,8.700000000000001,-3.4,-6.300000000000001,8.3,16
103,1878.0,0.1,0.30000000000000004,-0.4,4.3,-2.2,8.1,-5.1000000000000005,-7.8,9.700000000000001,16
104,1895.0,0.4,0.1,-0.6000000000000001,4.6000000000000005,-2.5,7.9,-12.7,0.0,14.700000000000001,16
105,1912.0,0.8,-0.30000000000000004,-0.4,5.0,-2.8000000000000003,8.0,-17.7,3.4,13.6,16
106,1929.0,0.9,-0.5,-0.30000000000000004,5.300000000000001,-3.1,8.1,-22.2,4.4,8.5,16
107,1945.0,0.8,-0.5,0.1,5.2,-3.1,8.4,-26.300000000000004,5.300000000000001,1.7,16
108,1962.0,0.6000000000000001,-0.2,0.6000000000000001,5.0,-2.9000000000000004,8.9,-26.6,4.4,-2.7,16
109,1978.0,0.4,0.1,0.7000000000000001,4.9,-2.7,9.0,-22.1,2.7,-5.7,16
110,1995.0,0.4,0.0,0.5,4.800000000000001,-2.8000000000000003,8.8,-16.8,3.6000000000000005,-6.1000000000000005,16
111,2012.0,0.5,-0.1,0.30000000000000004,4.9,-3.0,8.6,-11.5,6.1000000000000005,-6.4,16
112,2029.0,0.5,-0.2,0.0,4.9,-3.0,8.3,-9.700000000000001,8.4,-7.6,16
113,2045.0,0.30000000000000004,-0.2,-0.1,4.7,-3.0,8.200000000000001,-9.700000000000001,9.600000000000001,-8.4,16
114,2062.0,0.2,-0.1,-0.2,4.6000000000000005,-3.0,8.1,-11.4,10.299999999999999,-8.3,16
115,2078.0,0.0,0.0,0.0,4.4,-2.8000000000000003,8.200000000000001,-14.5,10.700000000000001,-5.300000000000001,16
116,2095.0,-0.1,0.0,0.1,4.4,-2.9000000000000004,8.4,-14.5,8.700000000000001,-3.0,16
117,2112.0,0.1,-0.30000000000000004,0.1,4.6000000000000005,-3.2,8.3,-15.100000000000001,4.800000000000001,-1.6,16
118,2132.0,0.30000000000000004,-0.30000000000000004,0.0,4.800000000000001,-3.2,8.3,-17.300000000000004,1.5,-3.2,16
119,2145.0,0.1,-0.1,0.30000000000000004,4.6000000000000005,-3.0,8.5,-17.9,0.6000000000000001,-4.9,16
120,2162.0,0.1,0.2,0.2,4.6000000000000005,-2.8000000000000003,8.4,-15.299999999999999,3.1,-5.7,16
121,2179.0,-0.1,0.2,0.6000000000000001,4.4,-2.8000000000000003,8.8,-9.0,10.5,-4.7,16
122,2199.0,-0.1,0.2,0.5,4.3,-2.8000000000000003,8.700000000000001,0.1,12.299999999999999,-3.2,16
123,2214.0,-0.1,0.1,0.30000000000000004,4.3,-2.9000000000000004,8.5,1.4,10.700000000000001,-3.1,16
124,2236.0,-0.4,0.1,0.30000000000000004,4.0,-2.9000000000000004,8.5,-1.3,5.1000000000000005,0.1,16
125,2250.0,-0.2,0.30000000000000004,0.5,4.2,-2.7,8.700000000000001,-1.3,-0.7,2.6,16
126,2262.0,-0.2,0.2,0.2,4.1000000000000005,-2.7,8.5,0.2,-3.9,5.7,16
127,2279.0,-0.2,0.0,0.1,4.1000000000000005,-2.9000000000000004,8.4,1.0,-3.9,9.2,16
128,2296.0,-0.1,-0.1,0.0,4.3,-3.1,8.3,0.8,-3.9,10.4,16
129,2312.0,0.4,-0.5,-0.1,4.7,-3.4000000000000004,8.200000000000001,-1.1,-3.6000000000000005,9.600000000000001,16
130,2336.0,0.6000000000000001,-0.6000000000000001,0.0,5.0,-3.6,8.3,-2.3,0.2,0.30000000000000004,16
131,2345.0,0.5,-0.5,0.1,4.800000000000001,-3.5,8.3,-2.3,0.6000000000000001,-3.0,16
132,2362.0,0.1,-0.30000000000000004,0.1,4.5,-3.4000000000000004,8.4,-2.1,2.2,-8.700000000000001,16
133,2379.0,0.0,-0.2,0.30000000000000004,4.4,-3.3000000000000003,8.5,-1.2000000000000002,3.9,-10.5,16
134,2396.0,0.0,-0.30000000000000004,0.5,4.4,-3.3000000000000003,8.700000000000001,-0.1,4.2,-11.000000000000002,16
135,2412.0,-0.1,-0.1,0.7000000000000001,4.3,-3.1,8.9,1.1,-0.9000000000000001,-10.9,16
136,2430.0,-0.2,-0.1,0.5,4.2,-3.1,8.700000000000001,0.9000000000000001,-3.7000000000000006,-9.4,16
137,2445.0,-0.4,-0.1,0.5,4.0,-3.1,8.8,1.3,-3.6000000000000005,-5.9,16
138,2462.0,-0.4,-0.1,0.4,3.8000000000000003,-3.2,8.700000000000001,2.7,-3.3000000000000007,-2.5,16
139,2481.0,-0.30000000000000004,-0.2,0.30000000000000004,3.8000000000000003,-3.3000000000000003,8.700000000000001,3.5,-1.9,-0.2,16
140,2495.0,-0.2,-0.2,0.2,3.9000000000000004,-3.3000000000000003,8.6,4.7,0.7,1.0,16
141,2512.0,0.0,-0.30000000000000004,0.2,4.0,-3.4000000000000004,8.5,6.1000000000000005,3.1,0.4,16
142,2528.0,-0.1,-0.30000000000000004,0.1,4.0,-3.4000000000000004,8.5,8.600000000000001,3.8,-1.0,16
143,2545.0,-0.2,-0.30000000000000004,-0.1,3.8000000000000003,-3.3000000000000003,8.3,10.200000000000001,3.2,-0.9000000000000001,16
144,2563.0,-0.5,-0.1,-0.4,3.5,-3.2,8.1,8.0,2.6,3.0,16
145,2579.0,-0.30000000000000004,-0.1,-0.30000000000000004,3.7,-3.2,8.1,5.1000000000000005,2.6,6.1000000000000005,16
146,2598.0,-0.2,-0.1,-0.2,3.8000000000000003,-3.2,8.3,3.8,4.1,7.8,16
147,2612.0,-0.2,-0.1,0.0,3.8000000000000003,-3.2,8.4,4.0,7.0,9.0,16
148,2630.0,-0.2,-0.2,0.0,3.7,-3.3000000000000003,8.4,4.6,9.2,9.700000000000001,16
149,2645.0,-0.2,-0.2,-0.1,3.7,-3.3000000000000003,8.4,4.1,11.1,9.2,16
150,2669.0,-0.30000000000000004,-0.1,0.0,3.5,-3.2,8.5,2.2,14.800000000000002,7.699999999999999,16
151,2679.0,-0.4,-0.1,0.2,3.4000000000000004,-3.2,8.700000000000001,2.5,14.400000000000002,7.300000000000001,16
152,2695.0,-0.5,0.0,0.1,3.2,-3.1,8.700000000000001,3.6000000000000005,11.3,7.9,16
153,2712.0,-0.4,0.1,-0.1,3.3000000000000003,-3.0,8.4,3.4,6.8,9.5,16
154,2729.0,-0.30000000000000004,0.1,-0.30000000000000004,3.3000000000000003,-3.0,8.200000000000001,2.0,3.2,10.9,16
155,2745.0,-0.1,0.2,-0.5,3.6,-3.0,8.0,-0.7,2.3,12.9,16
156,2764.0,0.1,0.1,-0.4,3.7,-3.0,8.200000000000001,-3.3000000000000007,4.2,14.100000000000001,16
157,2779.0,0.4,0.1,-0.1,4.0,-3.0,8.4,-3.6000000000000005,7.300000000000001,13.900000000000002,16
158,2802.0,0.7000000000000001,0.1,0.4,4.2,-3.1,8.9,-1.3,11.000000000000002,10.9,16
159,2834.0,0.8,0.1,0.9,4.3,-3.1,9.5,9.600000000000001,8.2,2.5,16
160,2848.0,0.7000000000000001,0.1,0.9,4.2,-3.0,9.3,11.6,4.800000000000001,1.5,16
161,2862.0,0.5,0.1,0.5,4.1000000000000005,-3.0,9.1,12.100000000000001,1.0,1.2000000000000002,16
162,2879.0,0.4,0.2,0.4,4.0,-2.9000000000000004,9.0,9.3,-1.8000000000000003,2.8,16
163,2900.0,0.5,0.1,0.5,4.2,-2.8000000000000003,9.1,5.9,-2.9,4.6,16
164,2930.0,0.6000000000000001,0.0,0.5,4.3,-2.9000000000000004,9.1,11.8,-4.1,0.1,16
165,2947.0,0.30000000000000004,0.1,0.1,4.1000000000000005,-2.7,8.700000000000001,13.900000000000002,-2.8,-0.8,16
166,2962.0,0.2,0.1,-0.2,4.1000000000000005,-2.6,8.4,13.900000000000002,0.0,0.7,16
167,2978.0,0.1,0.2,-0.2,4.0,-2.5,8.4,12.7,4.0,3.5,16
168,2997.0,0.2,0.1,0.1,4.1000000000000005,-2.6,8.700000000000001,13.700000000000001,6.4,7.300000000000001,16
169,3012.0,0.4,0.1,0.1,4.3,-2.6,8.700000000000001,15.700000000000001,5.0,8.2,16
170,3029.0,0.4,0.0,-0.2,4.3,-2.7,8.4,15.299999999999999,4.300000000000001,7.8,16
171,3053.0,0.4,-0.2,-0.2,4.3,-2.8000000000000003,8.4,9.899999999999999,3.2,6.699999999999999,16
172,3062.0,0.5,-0.2,-0.1,4.3,-2.8000000000000003,8.5,8.600000000000001,1.7,6.0,16
173,3079.0,0.6000000000000001,-0.1,0.1,4.6000000000000005,-2.7,8.700000000000001,7.500000000000001,-1.0,3.3000000000000007,16
174,3095.0,0.7000000000000001,0.0,0.1,4.6000000000000005,-2.6,8.700000000000001,10.200000000000001,-0.8,-0.7,16
175,3113.0,0.6000000000000001,0.0,-0.1,4.5,-2.5,8.5,11.900000000000002,-1.4,-2.9,16
176,3132.0,0.30000000000000004,0.1,-0.4,4.3,-2.4000000000000004,8.200000000000001,11.3,-2.7,-4.800000000000001,16
177,3148.0,0.1,0.2,-0.6000000000000001,4.1000000000000005,-2.3000000000000003,8.0,10.1,-3.4,-4.9,16
178,3162.0,-0.1,0.30000000000000004,-0.5,3.9000000000000004,-2.1,8.1,5.1000000000000005,-2.7,-1.7,16
179,3179.0,-0.2,0.4,-0.2,3.9000000000000004,-2.1,8.4,4.7,-2.1,0.9000000000000001,16
180,3197.0,-0.2,0.30000000000000004,-0.1,3.8000000000000003,-2.1,8.5,6.9,-0.1,2.7,16
181,3212.0,-0.4,0.4,-0.1,3.7,-2.1,8.5,8.5,3.1,5.2,16
182,3244.0,-0.5,0.1,-0.1,3.5,-2.3000000000000003,8.5,11.000000000000002,4.7,10.9,16
183,3262.0,-0.30000000000000004,-0.1,-0.1,3.7,-2.5,8.5,8.5,7.200000000000001,14.400000000000002,16
184,3282.0,-0.1,-0.2,0.0,3.8000000000000003,-2.5,8.6,6.2,9.3,14.800000000000002,16
185,3295.0,0.0,-0.30000000000000004,0.2,3.9000000000000004,-2.7,8.9,5.6,11.2,14.100000000000001,16
186,3312.0,0.1,-0.30000000000000004,0.2,4.0,-2.7,8.9,5.7,11.6,12.600000000000001,16
187,3333.0,0.30000000000000004,-0.30000000000000004,0.1,4.1000000000000005,-2.7,8.8,4.7,11.3,10.4,16
188,3346.0,0.2,-0.30000000000000004,0.2,4.0,-2.6,8.9,3.3000000000000007,10.0,8.100000000000001,16
189,3362.0,0.1,-0.1,0.1,3.9000000000000004,-2.5,8.8,1.8000000000000003,6.699999999999999,7.1000000000000005,16
190,3380.0,-0.1,0.1,0.0,3.7,-2.3000000000000003,8.700000000000001,-0.2,6.2,8.600000000000001,16
191,3395.0,-0.30000000000000004,0.2,0.2,3.5,-2.2,8.9,-0.6000000000000001,7.0,11.900000000000002,16
192,3412.0,-0.30000000000000004,0.2,0.5,3.4000000000000004,-2.3000000000000003,9.200000000000001,2.7,7.200000000000001,15.700000000000001,16
193,3432.0,-0.2,0.1,0.2,3.5,-2.3000000000000003,9.0,3.7000000000000006,6.699999999999999,16.3,16
194,3447.0,-0.4,0.0,0.30000000000000004,3.2,-2.4000000000000004,9.1,2.2,7.200000000000001,16.5,16
195,3462.0,-0.8,0.0,0.30000000000000004,2.8000000000000003,-2.4000000000000004,9.1,0.4,4.2,19.6,16
196,3483.0,-0.7000000000000001,0.0,0.2,2.9000000000000004,-2.4000000000000004,9.0,-1.3,4.4,26.300000000000004,16
197,3496.0,-0.1,-0.2,0.4,3.4000000000000004,-2.7,9.200000000000001,-1.8000000000000003,5.8,31.3,16
198,3514.0,0.8,-0.5,0.6000000000000001,4.2,-3.0,9.4,-0.9000000000000001,5.4,30.200000000000003,16
199,3529.0,1.0,-0.6000000000000001,0.6000000000000001,4.5,-3.2,9.4,0.30000000000000004,3.1,23.800000000000004,16
200,3547.0,0.6000000000000001,-0.5,0.5,4.1000000000000005,-3.0,9.3,1.2000000000000002,0.8,17.6,16
201,3562.0,0.0,-0.2,0.2,3.4000000000000004,-2.8000000000000003,9.0,2.7,-0.5,15.899999999999999,16
202,3579.0,-0.30000000000000004,-0.1,0.1,3.2,-2.7,8.9,2.3,1.3,17.9,16
203,3597.0,-0.4,-0.2,0.30000000000000004,3.0,-2.8000000000000003,9.1,2.5,0.5,20.400000000000002,16
204,3621.0,-0.5,0.0,0.2,2.9000000000000004,-2.7,9.0,3.3000000000000007,-0.9000000000000001,21.0,16
205,3643.0,-0.5,0.1,0.30000000000000004,2.7,-2.6,9.3,3.3000000000000007,-0.5,19.1,16
206,3645.0,-0.6000000000000001,0.1,0.4,2.7,-2.6,9.3,3.9,-0.6000000000000001,18.5,16
207,3662.0,-0.6000000000000001,0.0,0.5,2.5,-2.6,9.4,5.7,-3.5,18.1,16
208,3679.0,-0.6000000000000001,0.1,0.30000000000000004,2.3000000000000003,-2.5,9.3,7.500000000000001,-7.200000000000001,18.200000000000003,16
209,3695.0,-0.7000000000000001,0.1,0.1,2.2,-2.5,9.1,9.100000000000001,-10.200000000000001,19.700000000000003,16
210,3712.0,-0.9,0.1,0.0,2.0,-2.5,9.0,9.8,-11.8,22.1,16
211,3742.0,-1.0,-0.1,-0.30000000000000004,1.8,-2.7,8.8,10.4,-11.700000000000001,29.400000000000002,16
212,3745.0,-1.0,-0.1,-0.30000000000000004,1.9000000000000001,-2.8000000000000003,8.700000000000001,10.4,-11.700000000000001,29.400000000000002,16
213,3762.0,-0.7000000000000001,-0.30000000000000004,-0.4,2.1,-2.9000000000000004,8.700000000000001,4.7,-13.200000000000003,31.5,16
214,3780.0,-0.5,-0.30000000000000004,0.0,2.3000000000000003,-3.0,9.0,0.0,-15.2,32.0,16
215,3795.0,-0.2,-0.4,0.30000000000000004,2.5,-3.1,9.3,-1.2000000000000002,-14.700000000000001,31.7,16
216,3812.0,-0.2,-0.30000000000000004,0.5,2.5,-3.0,9.5,0.4,-15.299999999999999,31.3,16
217,3829.0,-0.1,-0.1,0.30000000000000004,2.6,-2.9000000000000004,9.3,2.8,-18.4,31.3,16
218,3845.0,-0.1,-0.1,0.1,2.6,-2.8000000000000003,9.1,2.7,-19.1,31.5,16
219,3862.0,-0.1,0.0,0.1,2.6,-2.8000000000000003,9.1,2.4000000000000004,-19.5,31.799999999999997,16
220,3879.0,0.0,0.0,-0.1,2.7,-2.8000000000000003,8.9,2.2,-22.2,32.300000000000004,16
221,3895.0,-0.1,0.0,-0.2,2.7,-2.8000000000000003,8.700000000000001,2.1,-22.4,30.1,16
222,3919.0,0.2,0.1,-0.8,3.0,-2.7,8.1,-3.3000000000000007,-24.200000000000003,21.7,16
223,3938.0,0.1,0.2,-0.8,2.9000000000000004,-2.7,8.1,-8.700000000000001,-23.900000000000006,16.900000000000002,16
224,3945.0,0.0,0.2,-0.8,2.9000000000000004,-2.7,8.1,-11.2,-23.800000000000004,15.399999999999999,16
225,3964.0,-0.2,0.4,-0.6000000000000001,2.7,-2.6,8.3,-15.100000000000001,-22.8,14.900000000000002,16
226,3979.0,-0.30000000000000004,0.7000000000000001,-0.2,2.7,-2.3000000000000003,8.6,-16.5,-21.6,16.3,16
227,3995.0,-0.30000000000000004,0.9,0.0,2.7,-2.1,8.8,-14.900000000000002,-20.8,18.8,16
228,4015.0,0.1,0.7000000000000001,0.2,3.1,-2.3000000000000003,9.0,-11.000000000000002,-19.300000000000004,21.1,16
229,4029.0,0.6000000000000001,0.2,0.2,3.6,-2.6,9.1,-6.9,-20.599999999999998,18.8,16
230,4047.0,1.0,0.0,0.7000000000000001,4.2,-2.6,9.600000000000001,-3.0,-29.1,9.700000000000001,16
231,4062.0,1.2000000000000002,0.2,1.1,4.5,-2.4000000000000004,10.0,3.5,-44.2,-1.6,16
232,4079.0,0.4,0.2,0.8,3.9000000000000004,-2.4000000000000004,9.600000000000001,9.3,-56.6,-7.300000000000001,16
233,4095.0,0.2,0.6000000000000001,-0.6000000000000001,3.8000000000000003,-1.9000000000000001,8.200000000000001,9.3,-67.10000000000001,-7.6,16
234,4114.0,-0.2,0.30000000000000004,-1.2000000000000002,3.6,-2.2,7.5,1.6,-60.300000000000004,-3.4,16
235,4129.0,-0.30000000000000004,-0.1,0.4,3.6,-2.6,9.0,-4.4,-62.50000000000001,-1.4,16
236,4146.0,0.0,0.30000000000000004,-0.1,4.1000000000000005,-2.2,8.5,-0.2,-75.4,-6.699999999999999,16
237,4163.0,0.0,0.9,-0.6000000000000001,4.3,-1.6,7.9,-1.8000000000000003,-79.19999999999999,-12.299999999999999,16
238,4179.0,-0.2,1.2000000000000002,-0.9,4.3,-1.3,7.5,-5.9,-80.30000000000001,-10.600000000000001,16
239,4195.0,-0.30000000000000004,1.4000000000000001,-0.8,4.3,-1.1,7.4,-9.600000000000001,-81.4,-1.6,16
240,4213.0,0.0,1.3,-1.8,4.9,-1.3,6.300000000000001,-17.9,-81.0,16.6,16
241,4228.0,0.30000000000000004,0.5,-1.4000000000000001,5.300000000000001,-2.1,6.7,-27.9,-79.19999999999999,21.200000000000003,16
242,4247.0,1.3,-0.5,-0.7000000000000001,7.0,-3.8000000000000003,8.200000000000001,-51.50000000000001,-77.4,23.5,16
243,4268.0,2.4000000000000004,-1.8,2.4000000000000004,7.800000000000001,-4.7,10.100000000000001,-48.400000000000006,-68.60000000000001,7.500000000000001,16
244,4279.0,2.9000000000000004,-2.4000000000000004,3.0,8.4,-5.4,10.5,-25.0,-49.6,-4.800000000000001,16
245,4297.0,2.9000000000000004,-2.3000000000000003,2.9000000000000004,8.5,-5.300000000000001,10.4,-0.1,-31.9,-18.0,16
246,4312.0,2.6,-2.4000000000000004,1.7000000000000002,8.3,-5.4,9.1,11.000000000000002,-23.900000000000006,-30.3,16
247,4336.0,1.7000000000000002,-2.3000000000000003,0.4,7.5,-5.2,7.7,18.1,-24.1,-40.5,16
248,4345.0,1.4000000000000001,-2.2,-0.1,7.2,-5.0,7.2,21.200000000000003,-24.1,-43.800000000000004,16
249,4362.0,0.8,-2.1,-1.7000000000000002,6.800000000000001,-4.800000000000001,5.6000000000000005,23.099999999999998,-16.900000000000002,-47.900000000000006,16
250,4382.0,0.2,-1.7000000000000002,-3.1,6.2,-4.2,4.3,13.3,9.600000000000001,-54.1,16
251,4396.0,0.1,-1.6,-3.2,6.1000000000000005,-4.1000000000000005,4.1000000000000005,9.5,19.6,-55.3,16
252,4414.0,-0.5,-1.6,-3.2,5.5,-3.9000000000000004,4.2,-5.4,51.9,-49.699999999999996,16
253,4434.0,-0.30000000000000004,-1.4000000000000001,-2.6,5.6000000000000005,-3.7,4.9,-22.3,60.8,-36.400000000000006,16
254,4445.0,-0.30000000000000004,-1.3,-2.2,5.6000000000000005,-3.4000000000000004,5.9,-28.900000000000002,59.60000000000001,-29.200000000000003,16
255,4464.0,0.5,-1.0,-0.7000000000000001,6.2,-3.4000000000000004,6.9,-36.1,47.1,-5.2,16
256,4479.0,0.7000000000000001,-1.5,-0.30000000000000004,6.300000000000001,-3.9000000000000004,7.300000000000001,-29.500000000000004,33.800000000000004,0.6000000000000001,16
257,4495.0,1.0,-2.0,-0.9,6.6000000000000005,-4.5,6.800000000000001,-22.6,14.700000000000001,-2.0,16
258,4514.0,1.2000000000000002,-2.0,-1.7000000000000002,6.800000000000001,-4.6000000000000005,6.0,-22.6,3.3000000000000007,-13.100000000000001,16
259,4534.0,0.0,-0.8,-2.2,5.6000000000000005,-3.5,5.4,-22.6,5.0,-26.1,16
260,4546.0,0.0,-0.8,-2.2,5.5,-3.2,4.9,-22.6,5.0,-26.1,16
261,4562.0,-0.7000000000000001,-0.4,-3.4000000000000004,4.9,-3.1,4.2,-27.3,26.200000000000003,-21.1,16
262,4579.0,-0.8,-0.30000000000000004,-3.0,4.7,-3.0,4.7,-37.800000000000004,41.300000000000004,-11.4,16
263,4596.0,-1.0,-0.6000000000000001,-1.9000000000000001,4.4,-3.4000000000000004,5.800000000000001,-48.10000000000001,36.400000000000006,-4.300000000000001,16
264,4617.0,-0.7000000000000001,-1.0,-1.9000000000000001,4.7,-3.9000000000000004,5.7,-55.3,25.4,2.4000000000000004,16
265,4629.0,-0.1,-0.6000000000000001,-1.4000000000000001,5.2,-3.6,6.300000000000001,-58.800000000000004,21.900000000000002,4.1,16
266,4646.0,0.1,0.2,-0.4,5.4,-3.0,7.2,-61.199999999999996,9.8,8.899999999999999,16
267,4663.0,-0.1,0.30000000000000004,0.5,5.2,-3.1,8.0,-53.300000000000004,-4.5,12.7,16
268,4679.0,-0.2,0.0,0.5,5.1000000000000005,-3.5,8.0,-44.00000000000001,-21.300000000000004,18.8,16
269,4702.0,0.1,-0.7000000000000001,0.2,5.4,-4.3,7.6000000000000005,-36.0,-40.5,26.5,16
270,4712.0,0.30000000000000004,-0.6000000000000001,0.1,5.6000000000000005,-4.3,7.5,-34.7,-43.800000000000004,27.9,16
271,4736.0,1.1,-0.4,0.4,6.5,-4.3,7.6000000000000005,-26.200000000000003,-49.1,26.799999999999997,16
272,4745.0,0.6000000000000001,-0.5,0.2,6.1000000000000005,-4.5,7.4,-21.1,-48.50000000000001,23.400000000000002,16
273,4764.0,0.30000000000000004,-0.30000000000000004,-0.7000000000000001,5.9,-4.3,6.300000000000001,-19.0,-46.7,23.400000000000002,16
274,4779.0,0.4,-0.1,-0.5,6.0,-4.1000000000000005,6.4,-21.0,-39.1,26.000000000000004,16
275,4795.0,0.1,0.2,0.1,5.800000000000001,-4.0,7.0,-23.900000000000006,-40.5,28.3,16
276,4812.0,-0.30000000000000004,0.4,0.9,5.4,-3.8000000000000003,7.7,-17.5,-52.900000000000006,33.300000000000004,16
277,4831.0,0.1,0.5,0.1,5.800000000000001,-3.5,7.0,-6.2,-58.900000000000006,39.9,16
278,4845.0,0.8,0.4,-1.2000000000000002,6.5,-3.7,5.5,3.5,-48.2,44.300000000000004,16
279,4862.0,0.8,-0.2,-1.3,6.7,-4.3,5.4,2.2,-32.7,45.2,16
280,4879.0,1.2000000000000002,-0.6000000000000001,-0.5,7.0,-4.800000000000001,6.1000000000000005,-2.2,-31.9,43.800000000000004,16
281,4898.0,1.7000000000000002,-2.8000000000000003,0.8,7.6000000000000005,-7.1000000000000005,7.4,-0.6000000000000001,-40.2,40.6,16
282,4913.0,2.7,-3.6,0.30000000000000004,8.6,-8.0,6.9,22.9,-18.3,39.699999999999996,16
283,4932.0,3.6,-3.3000000000000003,-2.1,9.5,-7.7,4.4,29.300000000000004,-5.0,28.3,16
284,4945.0,3.7,-3.1,-2.3000000000000003,9.5,-7.6000000000000005,4.2,18.3,0.9000000000000001,19.1,16
285,4962.0,3.4000000000000004,-2.4000000000000004,0.0,9.200000000000001,-6.800000000000001,6.6000000000000005,7.6,-19.6,0.2,16
286,4981.0,2.7,-1.9000000000000001,-1.3,8.6,-6.2,5.2,11.8,-32.1,-18.4,16
287,4995.0,0.7000000000000001,-0.9,-2.2,6.7,-5.2,4.3,11.3,-29.600000000000005,-30.200000000000003,16
288,5022.0,-2.5,0.2,-2.0,3.6,-4.0,4.4,-0.7,-40.1,-33.1,16
289,5029.0,-3.0,0.2,-1.6,3.2,-4.0,4.800000000000001,-2.1,-38.400000000000006,-26.400000000000006,16
290,5045.0,-3.7,0.30000000000000004,-1.7000000000000002,2.5,-3.9000000000000004,4.6000000000000005,-1.8000000000000003,-33.400000000000006,-13.900000000000002,16
291,5062.0,-3.5,0.0,-1.7000000000000002,2.8000000000000003,-4.2,4.6000000000000005,-7.6,-20.900000000000002,8.3,16
292,5084.0,-0.2,-0.7000000000000001,0.30000000000000004,6.2,-5.0,6.5,-20.2,-33.800000000000004,29.700000000000006,16
293,5095.0,1.0,-1.7000000000000002,0.6000000000000001,7.4,-6.0,6.7,-20.1,-41.199999999999996,23.0,16
294,5123.0,0.4,-2.1,0.4,6.800000000000001,-6.6000000000000005,6.4,-12.299999999999999,-27.700000000000003,11.4,16
295,5128.0,0.4,-2.1,0.4,6.800000000000001,-6.6000000000000005,6.4,-12.299999999999999,-27.700000000000003,11.4,16
296,5145.0,1.0,-2.2,1.0,7.5,-6.6000000000000005,7.4,-6.2,-12.0,6.2,16
297,5164.0,0.9,-2.1,1.3,7.300000000000001,-6.6000000000000005,7.2,14.800000000000002,6.600000000000001,-7.6,16
298,5179.0,-0.4,-1.9000000000000001,0.2,6.1000000000000005,-6.300000000000001,6.1000000000000005,22.2,9.5,-16.0,16
299,5195.0,-1.0,-0.8,-0.4,5.4,-5.1000000000000005,5.6000000000000005,24.900000000000002,10.8,-16.700000000000003,16
300,5217.0,-1.8,-0.1,-1.8,4.6000000000000005,-4.3,4.2,24.1,20.8,-16.3,16
301,5229.0,-1.8,-0.1,-1.8,4.6000000000000005,-4.3,4.2,24.1,20.8,-16.3,16
302,5249.0,-1.3,-0.2,-2.0,5.1000000000000005,-4.4,4.2,11.2,34.7,-11.4,16
303,5262.0,-1.1,-0.4,-1.2000000000000002,5.2,-4.5,5.0,6.1000000000000005,31.099999999999998,-10.299999999999999,16
304,5279.0,-1.4000000000000001,-0.7000000000000001,-0.9,4.9,-4.800000000000001,5.4,2.2,19.300000000000004,-7.300000000000001,16
305,5297.0,-1.3,-0.5,-0.30000000000000004,4.9,-4.5,6.0,-1.3,3.5,-1.5,16
306,5314.0,-1.1,-0.1,0.0,5.2,-4.2,6.4,1.5,-5.8,0.1,16
307,5329.0,-1.3,-0.1,0.0,5.0,-4.2,6.4,4.7,-6.300000000000001,0.5,16
308,5345.0,-0.7000000000000001,0.0,-1.5,5.5,-4.1000000000000005,4.9,8.700000000000001,8.100000000000001,3.8,16
309,5365.0,-0.8,-0.1,-1.0,5.5,-4.2,5.300000000000001,4.800000000000001,14.800000000000002,4.1,16
310,5380.0,-0.4,0.30000000000000004,-0.2,5.9,-3.8000000000000003,6.2,3.0,9.4,6.0,16
311,5396.0,-0.2,0.30000000000000004,0.2,6.0,-3.8000000000000003,6.6000000000000005,3.9,-1.3,6.2,16
312,5414.0,-0.9,-0.1,0.30000000000000004,5.300000000000001,-4.2,6.7,4.800000000000001,-13.700000000000001,10.1,16
313,5435.0,-0.4,0.30000000000000004,-0.2,5.800000000000001,-3.8000000000000003,6.2,3.4,-26.700000000000003,17.0,16
314,5445.0,0.4,0.4,-0.5,6.7,-3.7,5.9,2.3,-25.200000000000003,15.5,16
315,5462.0,0.9,0.1,-0.9,7.1000000000000005,-4.0,5.4,-2.7,-19.5,9.3,16
316,5479.0,0.6000000000000001,0.2,-0.7000000000000001,6.9,-4.0,5.6000000000000005,-11.000000000000002,-14.900000000000002,3.6000000000000005,16
317,5498.0,0.5,0.4,0.7000000000000001,6.800000000000001,-3.7,6.9,-17.6,-14.200000000000001,2.0,16
318,5519.0,0.5,1.6,2.3000000000000003,6.9,-2.7,8.4,-11.000000000000002,-34.800000000000004,3.9,16
319,5533.0,0.5,1.6,2.3000000000000003,6.9,-2.7,8.4,-11.000000000000002,-34.800000000000004,3.9,16
320,5547.0,-0.4,0.2,0.7000000000000001,6.1000000000000005,-4.1000000000000005,6.7,2.8,-40.2,21.300000000000004,16
321,5564.0,0.7000000000000001,-2.8000000000000003,-1.1,7.9,-7.300000000000001,3.8000000000000003,10.0,-24.900000000000002,24.200000000000003,16
322,5579.0,2.0,-3.3000000000000003,-2.9000000000000004,8.5,-7.6000000000000005,3.1,-2.0,0.0,6.300000000000001,16
323,5595.0,3.5,-3.7,-2.0,9.9,-8.1,3.9000000000000004,-9.4,26.000000000000004,-17.5,16
324,5623.0,2.8000000000000003,-4.2,0.6000000000000001,9.3,-8.4,6.6000000000000005,3.2,33.800000000000004,-57.400000000000006,16
325,5629.0,2.8000000000000003,-4.2,0.6000000000000001,9.3,-8.4,6.6000000000000005,3.2,33.800000000000004,-57.400000000000006,16
326,5648.0,1.0,-3.8000000000000003,-2.8000000000000003,7.5,-7.800000000000001,3.4000000000000004,30.1,34.800000000000004,-81.2,16
327,5662.0,0.2,-3.1,-2.9000000000000004,6.7,-6.9,3.3000000000000003,19.6,36.1,-73.8,16
328,5681.0,0.7000000000000001,-3.1,-2.7,7.2,-6.7,3.6,8.2,26.9,-63.4,16
329,5696.0,-0.2,-2.8000000000000003,-1.9000000000000001,6.4,-6.300000000000001,4.5,-4.5,1.7,-48.9,16
330,5715.0,-0.8,-2.1,-1.4000000000000001,5.800000000000001,-5.6000000000000005,4.9,-14.200000000000001,-29.300000000000004,-31.400000000000002,16
331,5728.0,-0.7000000000000001,-1.5,-1.1,6.0,-5.0,5.2,-17.200000000000003,-45.0,-15.700000000000001,16
332,5745.0,0.1,-1.5,-1.1,6.9,-4.9,5.0,-16.6,-55.2,-6.1000000000000005,16
333,5762.0,1.0,-1.7000000000000002,-2.3000000000000003,7.9,-5.2,3.7,-17.300000000000004,-53.0,-9.8,16
334,5784.0,-3.9000000000000004,-0.2,-4.0,3.1,-3.7,1.9000000000000001,-27.5,-29.1,-25.7,16
335,5796.0,-2.8000000000000003,0.8,-3.7,4.2,-2.7,2.1,-39.2,10.4,-4.7,16
336,5815.0,-2.3000000000000003,0.2,-1.7000000000000002,4.800000000000001,-3.4000000000000004,4.1000000000000005,-42.60000000000001,37.50000000000001,3.4,16
337,5839.0,0.0,0.6000000000000001,-0.2,6.9,-3.0,5.7,-23.3,58.800000000000004,-1.5,16
338,5849.0,0.2,0.4,-0.5,7.1000000000000005,-3.3000000000000003,5.5,-16.1,64.4,-5.500000000000001,16
339,5862.0,-0.2,-0.6000000000000001,-0.6000000000000001,6.5,-4.3,5.4,-5.500000000000001,63.30000000000001,-11.700000000000001,16
340,5879.0,-0.8,-0.7000000000000001,-2.5,5.9,-4.4,3.7,-9.3,56.0,-13.399999999999999,16
341,5899.0,-1.5,-1.1,-2.9000000000000004,5.1000000000000005,-4.800000000000001,3.3000000000000003,-31.7,48.10000000000001,-5.8,16
342,5912.0,-1.4000000000000001,-0.8,-3.2,5.2,-4.5,3.1,-39.699999999999996,44.7,-2.7,16
343,5928.0,-0.6000000000000001,-0.4,-2.0,5.800000000000001,-4.2,4.3,-52.400000000000006,47.60000000000001,2.7,16
344,5948.0,-0.1,0.4,1.1,6.2,-3.5,7.5,-39.699999999999996,50.1,3.6000000000000005,16
345,5962.0,0.4,0.7000000000000001,2.4000000000000004,6.7,-3.3000000000000003,8.9,-28.1,42.400000000000006,4.0,16
346,5979.0,0.5,0.1,2.3000000000000003,6.7,-3.9000000000000004,8.700000000000001,2.1,17.7,4.4,16
347,6000.0,-0.8,-1.2000000000000002,-0.8,5.300000000000001,-5.2,5.7,10.1,4.9,19.200000000000003,16
348,6025.0,-0.2,-1.8,-0.5,5.9,-5.800000000000001,6.0,-8.3,-6.4,22.000000000000004,16
349,6036.0,0.4,-2.4000000000000004,-0.30000000000000004,6.5,-6.5,6.2,-15.5,-15.399999999999999,16.3,16
350,6045.0,0.7000000000000001,-2.5,-0.2,6.800000000000001,-6.6000000000000005,6.2,-18.5,-19.700000000000003,10.5,16
351,6066.0,-0.1,-1.6,0.1,6.1000000000000005,-5.9,6.4,-22.3,-29.300000000000004,-5.7,16
352,6079.0,-0.4,-1.3,-0.30000000000000004,5.800000000000001,-5.6000000000000005,6.1000000000000005,-21.200000000000003,-30.4,-6.0,16
353,6102.0,0.6000000000000001,-2.4000000000000004,-3.0,6.9,-6.7,3.2,-35.9,-34.1,-7.1000000000000005,16
354,6117.0,1.1,-2.2,-3.7,7.5,-6.6000000000000005,2.4000000000000004,-61.39999999999999,-30.599999999999998,-16.0,16
355,6131.0,0.4,-1.8,-3.5,6.800000000000001,-6.300000000000001,2.4000000000000004,-76.5,-18.4,-23.400000000000002,16
356,6145.0,0.30000000000000004,-2.2,-3.7,6.7,-6.7,2.2,-83.4,-9.100000000000001,-23.6,16
357,6162.0,1.0,-3.3000000000000003,-1.9000000000000001,7.5,-8.0,3.7,-101.7,7.6,-38.400000000000006,16
358,6179.0,-1.5,-1.6,-1.7000000000000002,5.1000000000000005,-6.4,3.8000000000000003,-99.8,6.4,-36.6,16
359,6197.0,-2.1,-0.7000000000000001,-2.4000000000000004,4.5,-5.6000000000000005,3.0,-99.7,6.9,-15.700000000000001,16
360,6213.0,-1.6,-1.5,-1.7000000000000002,4.9,-6.6000000000000005,3.5,-101.10000000000001,5.300000000000001,12.7,16
361,6232.0,-0.8,-1.8,-3.4000000000000004,5.7,-7.0,1.7000000000000002,-108.7,-11.700000000000001,31.400000000000002,16
362,6245.0,1.3,-2.2,-4.1000000000000005,7.800000000000001,-7.6000000000000005,0.8,-125.80000000000001,-13.6,45.0,16
363,6263.0,3.8000000000000003,-3.0,-4.3,10.200000000000001,-8.8,0.30000000000000004,-149.0,26.700000000000003,25.0,16
364,6279.0,3.8000000000000003,-2.6,-3.2,10.200000000000001,-8.6,1.2000000000000002,-160.70000000000002,57.3,-2.5,16
365,6295.0,2.8000000000000003,-2.0,-0.8,9.1,-8.200000000000001,3.4000000000000004,-163.10000000000002,62.300000000000004,-24.0,16
366,6312.0,1.4000000000000001,-0.9,-0.1,7.7,-7.300000000000001,3.9000000000000004,-162.6,45.5,-27.099999999999998,16
367,6332.0,0.6000000000000001,0.5,1.3,6.9,-6.0,5.1000000000000005,-153.50000000000003,12.5,-25.1,16
368,6345.0,-0.1,1.0,2.0,6.2,-5.6000000000000005,5.6000000000000005,-132.1,-8.8,-15.299999999999999,16
369,6364.0,0.7000000000000001,0.6000000000000001,2.0,7.0,-6.0,5.300000000000001,-110.6,-22.6,-5.7,16
370,6379.0,-0.4,1.2000000000000002,5.0,6.0,-5.6000000000000005,8.1,-65.6,-40.6,8.100000000000001,16
371,6395.0,1.1,1.9000000000000001,4.1000000000000005,7.5,-4.9,7.0,-30.799999999999997,-64.50000000000001,17.9,16
372,6415.0,1.1,1.7000000000000002,3.0,7.300000000000001,-5.6000000000000005,4.9,-15.2,-107.9,13.3,16
373,6430.0,0.1,-0.2,1.0,6.6000000000000005,-7.1000000000000005,3.4000000000000004,-4.800000000000001,-123.8,6.2,16
374,6446.0,-0.2,-0.6000000000000001,-1.6,6.300000000000001,-7.5,0.5,-7.8,-120.9,0.0,16
375,6462.0,-0.9,-0.4,-2.0,5.800000000000001,-7.4,-0.1,-16.3,-80.4,-2.2,16
376,6480.0,-2.9000000000000004,0.2,-3.1,3.8000000000000003,-6.7,-1.4000000000000001,-23.099999999999998,-28.3,7.6,16
377,6496.0,-3.1,0.4,-1.8,3.5,-6.5,-0.1,-34.400000000000006,10.0,30.599999999999998,16
378,6532.0,-1.0,0.5,0.5,5.5,-6.7,2.1,-44.2,35.5,52.7,16
379,6545.0,-0.30000000000000004,0.7000000000000001,0.6000000000000001,6.1000000000000005,-6.6000000000000005,2.1,-30.599999999999998,40.9,47.1,16
380,6562.0,-0.1,0.2,0.5,6.1000000000000005,-7.2,2.1,-23.700000000000003,28.700000000000003,34.1,16
381,6580.0,-1.3,0.2,-1.2000000000000002,4.9,-7.2,0.30000000000000004,-26.1,7.400000000000001,29.600000000000005,16
382,6595.0,-1.7000000000000002,1.0,-2.0,4.5,-6.5,-0.5,-31.3,-1.2000000000000002,35.0,16
383,6615.0,-0.4,0.7000000000000001,-3.1,5.6000000000000005,-6.9,-1.7000000000000002,-41.199999999999996,20.2,43.6,16
384,6635.0,1.4000000000000001,-0.1,-1.1,7.300000000000001,-7.800000000000001,0.2,-46.4,12.5,32.2,16
385,6650.0,1.2000000000000002,0.4,-1.6,7.1000000000000005,-7.300000000000001,-0.4,-52.2,-1.4,16.6,16
386,6662.0,1.7000000000000002,1.1,0.5,7.5,-6.7,1.6,-45.7,-12.0,7.9,16
387,6680.0,2.7,0.6000000000000001,-0.30000000000000004,8.6,-7.2,0.7000000000000001,-43.300000000000004,-22.000000000000004,-0.2,16
388,6695.0,2.5,0.4,1.0,8.4,-7.4,1.9000000000000001,-43.2,-45.8,-11.2,16
389,6721.0,0.1,1.2000000000000002,1.8,6.1000000000000005,-6.6000000000000005,2.4000000000000004,-44.00000000000001,-95.4,-14.200000000000001,16
390,6730.0,-0.1,1.5,1.8,5.800000000000001,-6.300000000000001,2.2,-38.300000000000004,-105.10000000000001,-8.8,16
391,6745.0,0.4,1.6,2.6,6.4,-6.2,2.8000000000000003,-28.0,-104.7,-2.1,16
392,6764.0,0.5,0.9,4.0,7.1000000000000005,-7.2,4.4,-3.0,-92.10000000000001,-15.2,16
393,6779.0,0.2,0.4,2.8000000000000003,6.300000000000001,-7.300000000000001,2.7,40.800000000000004,-85.30000000000001,-43.900000000000006,16
394,6798.0,-1.2000000000000002,0.30000000000000004,0.1,4.9,-7.300000000000001,0.0,41.800000000000004,-71.5,-40.6,16
395,6816.0,0.6000000000000001,-1.5,-1.6,6.9,-9.0,-1.8,26.6,-68.5,-40.4,16
396,6830.0,2.0,-1.5,-2.1,8.4,-9.0,-2.4000000000000004,5.4,-66.0,-55.2,16
397,6852.0,-0.4,-0.8,-1.4000000000000001,6.1000000000000005,-8.1,-1.9000000000000001,-9.3,-53.7,-51.6,16
398,6862.0,-0.2,-0.9,-1.5,6.4,-8.1,-2.0,-10.4,-47.80000000000001,-50.0,16
399,6879.0,-0.4,-1.3,-1.7000000000000002,6.300000000000001,-8.5,-2.3000000000000003,-0.8,-24.3,-42.2,16
400,6896.0,0.0,-2.4000000000000004,-3.7,6.7,-9.5,-4.3,6.8,6.500000000000001,-28.0,16
401,6915.0,-0.30000000000000004,-2.0,-4.0,6.5,-9.0,-4.6000000000000005,-4.300000000000001,35.2,-23.800000000000004,16
402,6929.0,-0.2,-1.7000000000000002,-3.3000000000000003,6.6000000000000005,-8.700000000000001,-3.8000000000000003,-6.4,37.800000000000004,-18.900000000000002,16
403,6946.0,-1.0,-0.4,-2.8000000000000003,5.800000000000001,-7.4,-3.3000000000000003,-15.6,27.2,-10.9,16
404,6962.0,-0.5,-0.7000000000000001,-2.2,6.4,-7.7,-2.7,-18.6,15.399999999999999,-0.9000000000000001,16
405,6979.0,1.1,-0.6000000000000001,-1.3,8.0,-7.6000000000000005,-1.8,-18.3,7.300000000000001,-1.3,16
406,6995.0,0.5,-0.1,-1.0,7.4,-7.1000000000000005,-1.5,-10.600000000000001,2.7,-3.5,16
407,7024.0,-2.2,-0.30000000000000004,-2.5,4.800000000000001,-7.300000000000001,-3.0,-4.0,10.0,4.5,16
408,7030.0,-1.0,0.5,-1.9000000000000001,5.9,-6.5,-2.4000000000000004,-3.6000000000000005,9.8,10.9,16
409,7045.0,1.4000000000000001,0.8,-2.1,8.3,-6.2,-2.5,0.4,12.600000000000001,0.2,16
410,7064.0,-0.4,0.7000000000000001,-2.6,6.5,-6.2,-3.1,-0.7,22.5,-21.900000000000002,16
411,7079.0,-1.7000000000000002,0.7000000000000001,-1.8,5.2,-6.300000000000001,-2.2,3.5,39.0,-16.5,16
412,7098.0,-1.9000000000000001,1.9000000000000001,-2.0,5.1000000000000005,-5.0,-2.4000000000000004,-14.0,17.1,-1.3,16
413,7125.0,-1.2000000000000002,2.1,-1.5,5.800000000000001,-4.800000000000001,-1.8,-20.900000000000002,-7.500000000000001,-4.6,16
414,7128.0,-1.8,1.8,-2.0,5.2,-5.0,-2.4000000000000004,-22.3,-13.5,-5.1000000000000005,16
415,7145.0,-1.8,1.8,-2.0,5.2,-5.0,-2.4000000000000004,-22.3,-13.5,-5.1000000000000005,16
416,7162.0,-1.0,0.8,-2.0,6.0,-6.0,-2.6,-49.6,-50.400000000000006,12.7,16
417,7179.0,-1.8,0.4,-1.9000000000000001,5.1000000000000005,-6.5,-2.7,-45.2,-62.50000000000001,9.3,16
418,7200.0,-2.0,0.4,-2.4000000000000004,4.9,-6.5,-3.4000000000000004,-45.5,-70.2,13.399999999999999,16
419,7217.0,-1.5,-0.30000000000000004,-2.0,5.300000000000001,-7.2,-3.4000000000000004,-48.10000000000001,-89.70000000000002,18.1,16
420,7229.0,-0.5,-0.30000000000000004,-1.0,6.300000000000001,-7.2,-2.5,-48.50000000000001,-89.4,14.400000000000002,16
421,7248.0,1.0,0.30000000000000004,0.1,7.7,-6.6000000000000005,-1.8,-24.8,-78.7,4.2,16
422,7262.0,-0.2,0.1,0.2,6.4,-6.800000000000001,-1.8,-18.4,-71.6,3.2,16
423,7281.0,0.4,-0.30000000000000004,-0.2,7.0,-7.2,-2.3000000000000003,-8.2,-51.0,-2.8,16
424,7295.0,0.1,0.30000000000000004,-0.5,6.6000000000000005,-6.6000000000000005,-2.8000000000000003,-10.299999999999999,-39.8,-2.7,16
425,7324.0,0.9,0.1,-1.6,7.4,-6.7,-4.1000000000000005,-24.400000000000002,-21.900000000000002,13.8,16
426,7329.0,1.6,0.2,0.7000000000000001,8.1,-6.7,-1.8,-25.8,-29.800000000000004,15.100000000000001,16
427,7345.0,1.6,0.7000000000000001,-0.5,8.1,-6.2,-3.1,-23.3,-38.2,16.5,16
428,7362.0,0.9,1.1,-0.4,7.300000000000001,-5.800000000000001,-3.1,-13.000000000000002,-40.1,16.1,16
429,7379.0,0.9,1.0,-1.0,7.300000000000001,-6.0,-3.8000000000000003,-6.4,-41.0,14.200000000000001,16
430,7398.0,0.4,1.5,-1.4000000000000001,6.300000000000001,-5.2,-3.8000000000000003,1.9,-35.9,7.500000000000001,16
431,7417.0,-1.2000000000000002,2.0,-0.4,5.1000000000000005,-4.9,-3.3000000000000003,19.0,-24.599999999999998,9.0,16
432,7429.0,-1.5,1.7000000000000002,-0.8,4.800000000000001,-5.300000000000001,-3.8000000000000003,23.2,-28.1,12.4,16
433,7447.0,-0.1,-0.1,-1.9000000000000001,6.1000000000000005,-7.1000000000000005,-4.9,28.0,-30.1,5.4,16
434,7462.0,-0.1,-0.2,-1.8,6.1000000000000005,-7.300000000000001,-4.800000000000001,32.2,-16.700000000000003,-2.0,16
435,7481.0,0.1,0.5,-2.6,6.2,-6.6000000000000005,-5.6000000000000005,31.9,-15.5,-5.1000000000000005,16
436,7495.0,1.1,-0.30000000000000004,-1.7000000000000002,7.2,-7.300000000000001,-4.6000000000000005,34.900000000000006,-14.900000000000002,-8.3,16
437,7521.0,0.6000000000000001,0.4,-1.5,6.800000000000001,-6.6000000000000005,-4.3,50.400000000000006,-14.300000000000002,-13.700000000000001,16
438,7530.0,-0.6000000000000001,1.1,-1.7000000000000002,5.6000000000000005,-6.0,-4.6000000000000005,59.80000000000001,-11.4,-12.5,16
439,7545.0,-1.3,1.6,-2.8000000000000003,4.9,-5.5,-5.5,64.60000000000001,2.0,-4.0,16
440,7563.0,-1.0,0.0,-1.2000000000000002,5.2,-7.1000000000000005,-3.8000000000000003,58.3,24.3,7.300000000000001,16
441,7579.0,-0.6000000000000001,-1.5,1.1,5.6000000000000005,-8.700000000000001,-1.3,59.60000000000001,38.60000000000001,10.600000000000001,16
442,7595.0,-0.1,-1.7000000000000002,-0.2,6.1000000000000005,-9.0,-2.5,59.5,43.50000000000001,6.500000000000001,16
443,7614.0,-0.9,0.1,0.0,5.300000000000001,-7.2,-2.0,38.800000000000004,42.7,-6.300000000000001,16
444,7647.0,-1.1,-1.0,-0.7000000000000001,5.5,-8.8,-3.0,27.400000000000002,20.3,-4.0,16
445,7662.0,-1.2000000000000002,-0.6000000000000001,-2.0,5.1000000000000005,-7.9,-3.7,25.8,5.500000000000001,-12.100000000000001,16
446,7679.0,-1.8,-1.1,-2.0,4.5,-8.4,-3.6,24.0,9.700000000000001,-10.9,16
447,7695.0,-1.3,-2.3000000000000003,-2.6,5.0,-9.600000000000001,-4.2,16.900000000000002,7.200000000000001,-13.200000000000003,16
448,7721.0,-1.7000000000000002,-1.0,-0.2,4.7,-8.3,-1.8,5.300000000000001,6.9,-14.900000000000002,16
449,7728.0,-1.6,0.30000000000000004,0.0,4.800000000000001,-7.0,-1.6,8.2,10.9,-15.2,16
450,7745.0,-1.5,1.3,-0.7000000000000001,4.9,-5.9,-2.2,10.0,19.300000000000004,-9.100000000000001,16
451,7765.0,-2.3000000000000003,0.4,0.5,4.1000000000000005,-6.9,-1.0,8.600000000000001,14.800000000000002,5.9,16
452,7779.0,-2.3000000000000003,0.1,0.4,4.1000000000000005,-7.1000000000000005,-1.0,10.299999999999999,9.700000000000001,11.2,16
453,7799.0,-2.2,0.6000000000000001,0.4,4.1000000000000005,-6.7,-1.0,25.900000000000002,7.0,24.3,16
454,7818.0,-2.1,0.4,0.30000000000000004,4.2,-7.0,-1.0,39.9,-5.300000000000001,32.8,16
455,7829.0,-1.4000000000000001,0.0,-0.4,4.800000000000001,-7.5,-1.7000000000000002,44.10000000000001,-20.2,33.50000000000001,16
456,7852.0,-1.6,0.6000000000000001,0.9,4.5,-7.0,-0.2,54.300000000000004,-43.300000000000004,39.8,16
457,7862.0,-1.3,0.30000000000000004,1.5,4.800000000000001,-7.300000000000001,0.30000000000000004,58.900000000000006,-57.800000000000004,40.6,16
458,7881.0,-0.7000000000000001,-0.1,-0.9,5.300000000000001,-7.800000000000001,-2.0,57.400000000000006,-87.00000000000001,36.7,16
459,7898.0,-0.9,0.1,-1.0,5.0,-7.6000000000000005,-2.2,52.80000000000001,-78.4,30.000000000000004,16
460,7927.0,-0.2,-0.2,-0.6000000000000001,5.5,-8.0,-1.7000000000000002,53.0,-50.3,23.5,16
461,7928.0,-0.2,-0.2,-0.6000000000000001,5.5,-8.0,-1.7000000000000002,53.0,-50.3,23.5,16
462,7946.0,0.0,0.6000000000000001,0.7000000000000001,5.7,-7.300000000000001,-0.4,48.50000000000001,-48.2,23.0,16
463,7963.0,-0.4,0.7000000000000001,1.6,5.2,-7.300000000000001,0.6000000000000001,51.1,-46.800000000000004,24.5,16
464,7991.0,0.0,0.2,0.5,5.5,-7.9,-0.5,53.7,-59.1,32.6,16
465,7995.0,0.0,0.2,0.5,5.5,-7.9,-0.5,53.7,-59.1,32.6,16
466,8014.0,0.4,-0.30000000000000004,-0.8,5.9,-8.4,-1.5,55.8,-31.9,25.8,16
467,8028.0,0.7000000000000001,-0.9,-1.0,6.2,-9.0,-1.7000000000000002,45.3,-21.1,19.799999999999997,16
468,8045.0,1.3,-0.1,-0.1,6.7,-8.3,-0.7000000000000001,39.699999999999996,-6.8,8.0,16
469,8062.0,0.9,-0.1,0.5,6.300000000000001,-8.3,0.0,44.9,9.100000000000001,1.1,16
470,8079.0,0.7000000000000001,-0.7000000000000001,1.1,6.1000000000000005,-8.8,0.7000000000000001,53.7,23.700000000000003,-5.6,16
471,8095.0,0.9,-1.3,1.0,6.300000000000001,-9.4,0.7000000000000001,59.40000000000001,40.1,-14.200000000000001,16
472,8122.0,1.4000000000000001,-2.0,-0.5,6.9,-10.100000000000001,-0.30000000000000004,47.60000000000001,48.800000000000004,-16.1,16
473,8128.0,0.6000000000000001,-1.7000000000000002,-1.6,6.1000000000000005,-9.8,-1.4000000000000001,36.400000000000006,42.900000000000006,-18.900000000000002,16
474,8145.0,-1.5,-1.5,-2.7,4.0,-9.600000000000001,-2.3000000000000003,21.1,54.6,-14.400000000000002,16
475,8162.0,-1.4000000000000001,-1.7000000000000002,-3.3000000000000003,4.1000000000000005,-9.8,-2.8000000000000003,15.5,66.2,-12.100000000000001,16
476,8179.0,-1.9000000000000001,-2.4000000000000004,-3.7,3.7,-10.4,-3.0,-11.4,105.10000000000001,-25.1,16
477,8196.0,-4.3,-1.3,-1.5,1.3,-9.3,-0.7000000000000001,-13.200000000000003,99.30000000000001,-7.8,16
478,8226.0,-2.9000000000000004,-2.5,-3.6,2.6,-10.5,-2.6,-35.1,20.7,11.8,16
479,8229.0,-2.9000000000000004,-2.5,-3.6,2.6,-10.5,-2.6,-35.1,20.7,11.8,16
480,8245.0,-2.3000000000000003,-1.3,-2.4000000000000004,3.3000000000000003,-9.4,-1.5,-30.4,43.900000000000006,20.8,16
481,8266.0,-3.1,-0.9,-1.8,2.3000000000000003,-9.0,-0.9,-26.6,69.7,16.900000000000002,16
482,8281.0,-2.8000000000000003,-0.8,-3.0,2.6,-9.0,-2.0,-32.5,75.2,12.7,16
483,8295.0,-2.8000000000000003,0.2,-2.3000000000000003,2.3000000000000003,-7.5,-0.4,-41.1,95.60000000000002,8.3,16
484,8318.0,-1.0,-0.30000000000000004,-1.2000000000000002,5.4,-9.600000000000001,-1.1,-45.400000000000006,76.7,14.5,16
485,8328.0,1.0,-1.7000000000000002,-2.5,6.2,-9.9,-1.5,-58.0,44.10000000000001,0.1,16
486,8346.0,-0.6000000000000001,-0.6000000000000001,-1.2000000000000002,4.6000000000000005,-8.9,-0.30000000000000004,-72.0,15.6,-8.3,16
487,8362.0,-1.2000000000000002,-1.1,-4.1000000000000005,4.0,-9.3,-3.3000000000000003,-82.10000000000001,-13.3,-2.5,16
488,8378.0,-1.2000000000000002,-1.9000000000000001,-3.8000000000000003,4.0,-10.200000000000001,-3.2,-94.9,17.5,-6.500000000000001,16
489,8395.0,-1.7000000000000002,-0.6000000000000001,-0.4,3.6,-8.8,-0.1,-97.50000000000001,54.300000000000004,-14.200000000000001,16
490,8416.0,-1.4000000000000001,0.2,0.0,3.9000000000000004,-8.1,0.2,-85.60000000000001,38.7,-10.4,16
491,8429.0,-1.1,0.1,-0.30000000000000004,4.2,-8.200000000000001,-0.2,-84.5,37.300000000000004,-11.2,16
492,8445.0,-1.5,0.6000000000000001,1.0,4.4,-7.2,-1.0,-75.60000000000001,45.3,-15.700000000000001,16
493,8462.0,0.5,1.1,-0.1,5.9,-7.1000000000000005,-0.30000000000000004,-61.8,68.5,-28.1,16
494,8479.0,0.8,1.6,-2.2,6.2,-6.6000000000000005,-2.4000000000000004,-57.3,61.8,-22.2,16
495,8495.0,1.4000000000000001,1.1,-1.7000000000000002,6.9,-7.0,-2.0,-59.5,54.199999999999996,-21.300000000000004,16
496,8518.0,3.2,2.5,-0.7000000000000001,8.8,-5.6000000000000005,-1.0,-41.900000000000006,45.2,-9.0,16
497,8528.0,3.4000000000000004,2.8000000000000003,-0.7000000000000001,9.0,-5.300000000000001,-1.0,-37.800000000000004,30.599999999999998,-6.1000000000000005,16
498,8548.0,2.9000000000000004,2.0,-0.7000000000000001,8.5,-6.1000000000000005,-1.0,-27.700000000000003,15.399999999999999,-7.1000000000000005,16
499,8562.0,0.9,2.1,0.30000000000000004,6.5,-5.9,-0.1,-14.0,27.3,-11.6,16
500,8581.0,1.7000000000000002,1.3,-0.9,7.4,-6.6000000000000005,-1.2000000000000002,2.8,40.2,-28.900000000000002,16
501,8595.0,1.3,1.5,0.5,7.1000000000000005,-6.4,0.2,7.400000000000001,17.200000000000003,-43.70000000000001,16
502,8620.0,-0.4,0.6000000000000001,-1.0,5.5,-7.2,-1.3,-2.5,-31.400000000000002,-22.1,16
503,8634.0,0.0,0.6000000000000001,1.0,6.0,-7.2,0.7000000000000001,0.0,-37.9,-19.0,16
504,8645.0,-0.30000000000000004,0.8,1.2000000000000002,5.7,-7.0,0.8,7.200000000000001,-28.900000000000002,-20.1,16
505,8662.0,-0.7000000000000001,-0.30000000000000004,0.4,5.300000000000001,-8.0,0.0,23.3,-9.0,-16.5,16
506,8678.0,-1.0,-0.30000000000000004,-0.5,5.1000000000000005,-8.0,-0.9,15.2,-2.4000000000000004,-4.4,16
507,8695.0,-0.6000000000000001,0.30000000000000004,1.4000000000000001,5.5,-7.4,1.1,20.2,-3.5,11.000000000000002,16
508,8723.0,-0.4,-0.6000000000000001,-1.4000000000000001,5.6000000000000005,-8.4,-1.6,34.7,22.5,16.700000000000003,16
509,8730.0,-0.6000000000000001,-1.6,-0.8,5.300000000000001,-9.3,-1.0,32.0,28.1,18.5,16
510,8746.0,0.4,-0.5,-0.6000000000000001,6.300000000000001,-8.3,-0.6000000000000001,41.0,34.300000000000004,19.300000000000004,16
511,8763.0,-0.30000000000000004,-2.5,-1.3,5.5,-10.3,-1.1,35.4,45.7,23.2,16
512,8785.0,0.7000000000000001,-1.7000000000000002,-2.4000000000000004,6.5,-9.600000000000001,-2.0,26.700000000000003,57.699999999999996,30.3,16
513,8795.0,1.1,-1.4000000000000001,-1.1,6.9,-9.3,-0.7000000000000001,22.000000000000004,55.8,34.1,16
514,8817.0,0.7000000000000001,0.0,-3.5,6.300000000000001,-8.0,-2.8000000000000003,38.800000000000004,64.50000000000001,41.7,16
515,8828.0,0.6000000000000001,-0.1,-3.7,6.2,-8.1,-3.0,34.60000000000001,69.7,44.2,16
516,8845.0,1.0,-0.5,-1.2000000000000002,6.4,-8.6,-0.30000000000000004,39.0,69.80000000000001,56.0,16
517,8873.0,-0.5,-0.6000000000000001,0.5,4.6000000000000005,-8.8,1.8,26.000000000000004,91.90000000000002,43.4,16
518,8879.0,-0.5,-0.6000000000000001,0.5,4.6000000000000005,-8.8,1.8,26.000000000000004,91.90000000000002,43.4,16
519,8896.0,-1.3,-0.1,-0.4,3.6,-8.5,1.2000000000000002,30.799999999999997,122.50000000000001,40.0,16
520,8928.0,0.8,0.6000000000000001,-1.4000000000000001,5.5,-7.800000000000001,0.7000000000000001,23.3,90.4,36.6,16
521,8945.0,0.7000000000000001,1.2000000000000002,-1.5,5.300000000000001,-7.2,0.7000000000000001,19.6,61.300000000000004,22.3,16
522,8965.0,1.7000000000000002,1.1,-1.2000000000000002,6.1000000000000005,-7.300000000000001,1.0,21.200000000000003,36.7,13.5,16
523,8980.0,2.1,0.8,-1.7000000000000002,6.5,-7.7,0.6000000000000001,21.400000000000002,18.900000000000002,3.2,16
524,8995.0,1.7000000000000002,0.0,-1.8,6.2,-8.4,0.6000000000000001,15.299999999999999,-8.5,-10.9,16
525,9012.0,0.9,0.6000000000000001,-1.5,5.4,-7.800000000000001,0.9,23.3,-16.200000000000003,-18.200000000000003,16
526,9028.0,0.30000000000000004,-0.5,-0.9,4.9,-8.8,1.5,17.400000000000002,-28.600000000000005,-20.900000000000002,16
527,9045.0,0.2,-1.4000000000000001,-1.9000000000000001,4.9,-9.700000000000001,0.5,17.400000000000002,-48.50000000000001,-22.5,16
528,9062.0,-2.1,-0.6000000000000001,-0.6000000000000001,2.7,-8.9,1.7000000000000002,10.8,-81.90000000000002,-25.0,16
529,9082.0,-2.3000000000000003,-0.9,-1.0,2.6,-9.1,1.2000000000000002,12.200000000000001,-94.10000000000001,-21.900000000000002,16
530,9097.0,-2.4000000000000004,-1.0,-1.5,2.6,-9.200000000000001,0.6000000000000001,15.000000000000002,-79.39999999999999,-18.8,16
531,9112.0,-1.8,-0.8,-1.6,3.3000000000000003,-9.0,0.4,17.400000000000002,-55.900000000000006,-18.900000000000002,16
532,9132.0,-1.7000000000000002,-0.7000000000000001,-0.9,3.3000000000000003,-8.9,1.1,21.500000000000004,-37.0,-21.0,16
533,9145.0,-1.1,-0.5,-1.1,4.1000000000000005,-8.6,0.9,28.500000000000004,-21.900000000000002,-9.4,16
534,9170.0,0.0,-0.30000000000000004,-0.4,5.1000000000000005,-8.4,1.6,20.8,-27.3,-6.4,16
535,9178.0,1.2000000000000002,-0.2,-0.8,6.4,-8.3,1.3,24.1,-34.800000000000004,-15.399999999999999,16
536,9198.0,1.8,0.7000000000000001,-0.8,7.1000000000000005,-7.300000000000001,1.2000000000000002,15.700000000000001,-103.00000000000001,-19.400000000000002,16
537,9212.0,1.2000000000000002,0.7000000000000001,-3.6,6.5,-7.300000000000001,-1.7000000000000002,18.5,-71.39999999999999,-16.4,16
538,9234.0,0.5,1.0,-1.4000000000000001,6.0,-7.0,0.5,-0.30000000000000004,-36.300000000000004,-20.8,16
539,9246.0,0.1,0.4,-0.4,5.6000000000000005,-7.5,1.4000000000000001,-7.6,-34.50000000000001,-31.3,16
540,9262.0,-3.1,-0.5,0.4,2.5,-8.4,2.1,-6.1000000000000005,-26.000000000000004,-17.300000000000004,16
541,9281.0,-1.9000000000000001,0.4,0.2,3.7,-7.5,1.9000000000000001,-13.000000000000002,-17.9,-3.5,16
542,9295.0,-2.8000000000000003,0.7000000000000001,1.5,2.8000000000000003,-7.2,3.1,-11.4,-18.8,3.7000000000000006,16
543,9322.0,-1.6,-0.7000000000000001,2.7,4.0,-8.6,4.2,-8.100000000000001,-91.90000000000002,36.300000000000004,16
544,9331.0,-0.4,-1.1,-1.3,5.2,-9.0,0.1,-11.4,-106.9,40.7,16
545,9346.0,0.7000000000000001,1.4000000000000001,-0.6000000000000001,6.2,-6.6000000000000005,0.7000000000000001,-9.0,-51.50000000000001,35.8,16
546,9362.0,1.0,-0.30000000000000004,-0.9,6.4,-8.4,0.30000000000000004,9.100000000000001,-1.3,24.900000000000002,16
547,9380.0,0.5,-0.1,1.9000000000000001,5.9,-8.1,3.1,23.6,14.5,4.0,16
548,9398.0,0.2,0.6000000000000001,0.9,5.6000000000000005,-7.5,2.3000000000000003,20.3,-7.200000000000001,-3.6000000000000005,16
549,9412.0,0.8,0.1,1.0,6.2,-7.9,2.3000000000000003,21.300000000000004,-5.4,-11.700000000000001,16
550,9428.0,0.6000000000000001,-0.4,2.5,6.0,-8.5,3.9000000000000004,37.1,-2.8,-20.2,16
551,9445.0,0.30000000000000004,0.0,2.1,5.800000000000001,-8.0,3.6,44.00000000000001,-19.6,-28.900000000000002,16
552,9462.0,-1.0,0.4,1.0,4.5,-7.6000000000000005,2.6,37.9,-33.6,-31.3,16
553,9479.0,-0.6000000000000001,1.3,0.7000000000000001,5.1000000000000005,-6.6000000000000005,2.4000000000000004,23.700000000000003,-27.800000000000004,-32.9,16
554,9496.0,-0.4,1.8,0.30000000000000004,5.300000000000001,-5.9,2.0,12.8,-17.1,-28.200000000000003,16
555,9512.0,2.6,1.6,-2.0,8.4,-6.1000000000000005,-0.30000000000000004,3.3000000000000007,-18.4,-34.60000000000001,16
556,9536.0,0.6000000000000001,-0.2,-5.0,6.5,-7.800000000000001,-3.4000000000000004,-33.800000000000004,-6.9,-77.5,16
557,9546.0,-0.1,-1.4000000000000001,-5.2,6.0,-8.9,-3.7,-50.60000000000001,-18.1,-81.10000000000001,16
558,9563.0,-1.3,-3.2,0.9,5.1000000000000005,-10.600000000000001,2.2,-69.10000000000001,-53.50000000000001,-47.0,16
559,9579.0,0.0,-0.5,0.4,6.4,-7.9,1.4000000000000001,-37.800000000000004,-32.300000000000004,0.5,16
560,9596.0,1.5,-1.9000000000000001,-0.1,7.9,-9.3,0.9,-18.3,-4.300000000000001,20.5,16
561,9613.0,0.0,-2.7,-3.9000000000000004,6.300000000000001,-10.200000000000001,-3.0,-25.5,6.300000000000001,22.3,16
562,9629.0,-1.5,-1.7000000000000002,-4.2,4.800000000000001,-9.200000000000001,-3.4000000000000004,-52.7,24.3,24.8,16
563,9648.0,-1.4000000000000001,-1.0,-3.2,4.800000000000001,-8.5,-2.4000000000000004,-60.00000000000001,31.2,30.200000000000003,16
564,9662.0,-0.6000000000000001,-0.6000000000000001,-2.4000000000000004,5.6000000000000005,-8.200000000000001,-1.7000000000000002,-62.1,23.400000000000002,24.7,16
565,9678.0,-0.30000000000000004,-0.4,-2.5,5.800000000000001,-8.1,-1.9000000000000001,-52.300000000000004,19.700000000000003,17.5,16
566,9695.0,-0.8,-0.5,-2.6,5.300000000000001,-8.200000000000001,-2.1,-44.4,-2.4000000000000004,17.0,16
567,9733.0,-0.8,0.1,-1.5,5.1000000000000005,-7.800000000000001,-1.3,-39.50000000000001,2.5,22.1,16
568,9745.0,-2.0,0.0,-1.9000000000000001,3.9000000000000004,-7.800000000000001,-1.8,-40.0,9.100000000000001,23.6,16
569,9762.0,-0.8,-0.30000000000000004,-0.5,5.0,-8.200000000000001,-0.5,-49.1,12.4,48.300000000000004,16
570,9782.0,0.5,0.8,0.7000000000000001,6.2,-7.2,0.7000000000000001,-49.1,7.1000000000000005,42.0,16
571,9796.0,-0.30000000000000004,1.0,0.7000000000000001,5.300000000000001,-7.1000000000000005,0.6000000000000001,-49.50000000000001,-2.4000000000000004,36.2,16
572,9812.0,-0.7000000000000001,1.3,-1.1,4.800000000000001,-6.800000000000001,-1.3,-48.0,16.900000000000002,17.799999999999997,16
573,9830.0,-1.7000000000000002,0.4,-1.8,3.8000000000000003,-7.800000000000001,-2.2,-46.199999999999996,20.5,9.5,16
574,9845.0,-2.0,1.0,-1.7000000000000002,3.4000000000000004,-7.2,-2.1,-46.50000000000001,32.400000000000006,8.600000000000001,16
575,9862.0,0.0,1.1,-1.2000000000000002,5.5,-7.0,-1.7000000000000002,-42.400000000000006,27.3,12.4,16
576,9878.0,-0.4,1.2000000000000002,-0.4,5.0,-7.0,-1.0,-36.400000000000006,22.9,18.3,16
577,9895.0,-0.2,1.3,0.7000000000000001,5.2,-6.9,0.1,-16.4,28.3,23.2,16
578,9912.0,-1.4000000000000001,2.0,-1.3,3.9000000000000004,-6.2,-1.8,-11.1,32.300000000000004,20.3,16
579,9928.0,-1.1,2.4000000000000004,-1.3,4.1000000000000005,-5.9,-1.8,-14.5,40.9,28.700000000000003,16
580,9945.0,-1.7000000000000002,2.1,-2.7,3.5,-6.2,-3.1,-11.3,56.400000000000006,26.5,16
581,9965.0,-0.6000000000000001,1.0,-2.6,4.6000000000000005,-7.300000000000001,-3.0,-9.899999999999999,72.9,39.400000000000006,16
582,9978.0,6.800000000000001,-0.6000000000000001,0.7000000000000001,11.8,-9.0,0.4,-8.3,65.3,20.2,16
583,9995.0,6.0,0.2,2.1,11.100000000000001,-8.200000000000001,1.8,-6.300000000000001,14.100000000000001,-18.200000000000003,16
584,10012.0,3.3000000000000003,-0.7000000000000001,2.9000000000000004,8.4,-9.0,2.6,1.7,-35.4,-12.200000000000001,16
585,10035.0,2.5,-0.9,2.0,7.6000000000000005,-9.3,1.6,15.6,-51.50000000000001,7.0,16
586,10048.0,0.7000000000000001,0.9,1.0,5.800000000000001,-7.5,0.6000000000000001,23.900000000000006,-47.80000000000001,16.6,16
587,10061.0,1.0,1.1,0.6000000000000001,6.0,-7.300000000000001,0.2,28.700000000000003,-47.60000000000001,20.599999999999998,16
588,10079.0,1.5,-0.6000000000000001,-2.2,6.5,-9.0,-2.5,42.60000000000001,-53.300000000000004,21.8,16
589,10095.0,-0.8,-0.30000000000000004,-0.9,4.1000000000000005,-8.8,-1.2000000000000002,39.0,-49.0,8.4,16
590,10114.0,3.0,-2.2,-1.3,7.9,-10.700000000000001,-1.6,44.10000000000001,-45.2,13.900000000000002,16
591,10128.0,0.5,-3.1,-1.3,5.4,-11.600000000000001,-1.5,71.30000000000001,-24.599999999999998,-16.6,16
592,10145.0,0.0,0.5,-2.3000000000000003,4.9,-8.0,-2.4000000000000004,64.9,-54.0,-39.2,16
593,10164.0,0.8,-1.6,1.4000000000000001,5.800000000000001,-10.0,1.4000000000000001,63.500000000000014,-42.800000000000004,-31.3,16
594,10179.0,0.7000000000000001,-0.7000000000000001,0.9,5.800000000000001,-9.1,0.9,68.2,-11.3,-17.799999999999997,16
595,10195.0,-0.7000000000000001,-0.30000000000000004,0.1,4.4,-8.700000000000001,0.30000000000000004,66.3,4.0,-13.399999999999999,16
596,10212.0,-0.6000000000000001,-0.2,-0.7000000000000001,4.6000000000000005,-8.6,-0.30000000000000004,52.400000000000006,16.1,2.9,16
597,10234.0,-0.9,-0.7000000000000001,1.1,4.2,-9.1,1.6,45.3,-39.400000000000006,19.200000000000003,16
598,10245.0,-0.7000000000000001,-0.6000000000000001,-1.9000000000000001,4.4,-9.0,-1.3,36.2,-91.50000000000001,30.9,16
599,10262.0,-1.8,-0.5,-3.5,3.2,-8.9,-3.0,5.500000000000001,-82.10000000000001,34.7,16
600,10284.0,-2.8000000000000003,-1.4000000000000001,-3.1,2.1,-9.8,-2.7,-5.7,-47.7,30.4,16
601,10295.0,-2.8000000000000003,-1.9000000000000001,-3.0,2.1,-10.4,-2.7,-15.100000000000001,12.7,18.8,16
602,10314.0,-2.3000000000000003,-1.7000000000000002,-1.2000000000000002,2.6,-10.200000000000001,-0.8,-9.5,36.8,10.4,16
603,10331.0,-1.7000000000000002,-1.4000000000000001,-2.0,3.1,-9.9,-1.7000000000000002,-34.300000000000004,44.6,18.1,16
604,10345.0,-1.9000000000000001,-1.1,0.2,2.9000000000000004,-9.700000000000001,0.5,-57.3,19.700000000000003,19.300000000000004,16
605,10362.0,-2.1,-0.5,-0.2,2.6,-9.1,0.0,-64.7,12.0,27.2,16
606,10378.0,-1.9000000000000001,0.4,0.7000000000000001,2.7,-8.200000000000001,0.7000000000000001,-56.2,14.200000000000001,37.800000000000004,16
607,10396.0,-1.8,0.7000000000000001,-0.8,2.7,-8.1,-0.8,-44.8,14.600000000000001,41.4,16
608,10412.0,-2.9000000000000004,0.9,-1.7000000000000002,1.0,-7.800000000000001,-2.1,-35.1,26.1,51.50000000000001,16
609,10432.0,-3.0,0.8,-2.6,1.2000000000000002,-8.0,-2.8000000000000003,-34.300000000000004,53.300000000000004,66.0,16
610,10445.0,-3.1,0.7000000000000001,-3.0,0.9,-8.3,-3.2,-33.7,86.1,74.60000000000001,16
611,10462.0,-1.1,0.8,-1.1,2.7,-8.200000000000001,-1.3,-27.400000000000002,133.0,78.3,16
612,10482.0,0.2,2.4000000000000004,1.6,3.9000000000000004,-6.7,1.4000000000000001,-18.8,138.8,72.80000000000001,16
613,10495.0,0.7000000000000001,1.1,1.2000000000000002,4.2,-8.1,1.1,-28.0,134.20000000000002,59.699999999999996,16
614,10512.0,0.4,0.7000000000000001,1.0,3.7,-8.5,1.0,-43.800000000000004,113.89999999999999,46.7,16
615,10528.0,0.5,1.0,1.2000000000000002,3.7,-8.3,1.2000000000000002,-49.4,75.60000000000001,41.300000000000004,16
616,10554.0,-1.2000000000000002,0.30000000000000004,-0.5,2.0,-9.0,-0.6000000000000001,-51.300000000000004,53.599999999999994,45.3,16
617,10570.0,-2.4000000000000004,0.1,0.30000000000000004,0.5,-9.200000000000001,0.1,-44.9,90.19999999999999,58.900000000000006,16
618,10579.0,-1.5,0.5,0.9,2.2,-8.9,2.3000000000000003,-38.800000000000004,107.30000000000001,58.2,16
619,10595.0,3.2,0.6000000000000001,2.4000000000000004,5.800000000000001,-8.8,2.2,-1.6,121.6,42.900000000000006,16
620,10612.0,4.2,0.5,2.8000000000000003,6.4,-9.1,2.6,0.8,96.5,23.800000000000004,16
621,10637.0,2.3000000000000003,-0.2,1.3,4.800000000000001,-9.600000000000001,1.2000000000000002,15.2,25.6,-8.100000000000001,16
622,10645.0,0.9,0.2,1.4000000000000001,3.5,-9.3,1.4000000000000001,19.300000000000004,5.0,-26.1,16
623,10662.0,0.6000000000000001,0.2,2.3000000000000003,3.3000000000000003,-9.200000000000001,2.4000000000000004,23.6,1.3,-32.2,16
624,10685.0,1.0,-0.8,2.8000000000000003,3.9000000000000004,-10.200000000000001,3.0,55.1,-14.600000000000001,-52.1,16
625,10695.0,0.7000000000000001,-0.6000000000000001,3.1,3.7,-10.0,3.4000000000000004,63.30000000000001,-21.6,-59.1,16
626,10713.0,-0.30000000000000004,-1.4000000000000001,2.8000000000000003,2.8000000000000003,-10.700000000000001,3.2,71.39999999999999,-38.300000000000004,-67.9,16
627,10729.0,-0.1,-3.1,0.1,3.1,-12.3,0.8,71.30000000000001,-35.3,-74.7,16
628,10746.0,0.0,-1.4000000000000001,-2.8000000000000003,3.5,-10.5,-2.0,43.70000000000001,-19.0,-70.0,16
629,10766.0,-1.1,-1.2000000000000002,-3.3000000000000003,2.6,-10.3,-2.5,13.5,-26.799999999999997,-39.0,16
630,10779.0,-0.1,-3.3000000000000003,-4.9,3.7,-12.3,-4.1000000000000005,18.8,-35.0,-22.2,16
631,10796.0,0.4,-2.9000000000000004,-3.5,4.3,-11.9,-2.6,34.400000000000006,-48.10000000000001,-31.9,16
632,10812.0,-0.1,-0.5,-3.0,3.8000000000000003,-9.5,-2.1,45.099999999999994,-68.3,-31.0,16
633,10837.0,-0.5,-0.7000000000000001,-2.9000000000000004,3.6,-9.600000000000001,-2.0,48.300000000000004,-95.20000000000002,-33.50000000000001,16
634,10845.0,-1.1,-0.4,-2.9000000000000004,3.1,-9.3,-2.0,48.50000000000001,-102.0,-37.0,16
635,10863.0,-1.7000000000000002,0.5,-2.7,2.6,-8.3,-1.7000000000000002,48.300000000000004,-111.70000000000002,-30.3,16
636,10880.0,-1.2000000000000002,1.6,-2.5,3.2,-7.1000000000000005,-1.6,45.9,-123.1,-15.700000000000001,16
637,10895.0,-2.4000000000000004,2.2,-4.5,2.0,-6.5,-3.7,31.3,-109.7,10.299999999999999,16
638,10912.0,-1.6,2.1,-2.6,2.8000000000000003,-6.6000000000000005,-1.8,21.6,-70.2,43.6,16
639,10930.0,2.6,0.2,-1.0,6.800000000000001,-8.6,-0.30000000000000004,26.200000000000003,-58.60000000000001,57.49999999999999,16
640,10948.0,2.6,-1.2000000000000002,-1.5,6.7,-10.100000000000001,-0.7000000000000001,37.400000000000006,-83.80000000000001,41.1,16
641,10961.0,1.4000000000000001,-0.7000000000000001,-1.6,5.4,-9.600000000000001,-0.8,47.80000000000001,-86.5,35.8,16
642,10978.0,0.4,-1.1,-1.4000000000000001,4.4,-10.0,-0.6000000000000001,34.900000000000006,-80.9,32.1,16
643,10995.0,0.4,-1.4000000000000001,-0.5,4.3,-10.4,0.2,26.400000000000006,-78.9,19.400000000000002,16
644,11012.0,0.7000000000000001,-0.6000000000000001,-0.2,4.6000000000000005,-9.600000000000001,0.6000000000000001,25.1,-59.300000000000004,4.0,16
645,11033.0,0.6000000000000001,1.3,-1.1,4.5,-7.7,-0.30000000000000004,6.8,-34.400000000000006,-12.200000000000001,16
646,11045.0,-0.8,1.9000000000000001,-1.0,3.1,-7.0,-0.30000000000000004,1.6,-23.099999999999998,-17.0,16
647,11062.0,-0.5,1.1,0.2,3.5,-7.9,0.9,10.0,6.699999999999999,-4.9,16
648,11091.0,-3.8000000000000003,0.8,-2.7,0.2,-8.1,-1.9000000000000001,15.299999999999999,29.400000000000002,-6.9,16
649,11095.0,-3.8000000000000003,0.8,-2.7,0.0,-8.1,-2.6,15.299999999999999,29.400000000000002,-6.9,16
650,11112.0,-1.4000000000000001,1.0,-3.1,2.6,-7.9,-2.1,-9.8,28.3,14.400000000000002,16
651,11144.0,-0.4,0.4,-1.0,3.6,-8.8,0.1,-25.1,14.300000000000002,16.5,16
652,11162.0,0.7000000000000001,0.8,-0.8,4.5,-8.200000000000001,0.0,-19.400000000000002,-6.4,19.5,16
653,11181.0,1.1,1.2000000000000002,-1.4000000000000001,4.9,-7.9,-0.6000000000000001,-12.100000000000001,7.300000000000001,15.700000000000001,16
654,11195.0,0.6000000000000001,-1.0,1.3,4.3,-10.0,2.1,-2.0,1.4,14.200000000000001,16
655,11212.0,1.0,-0.9,0.6000000000000001,4.7,-9.9,1.3,11.700000000000001,-19.0,9.3,16
656,11229.0,-0.2,-0.6000000000000001,0.2,3.5,-9.600000000000001,0.9,23.400000000000002,-13.3,3.4,16
657,11245.0,-1.5,0.0,-0.4,2.2,-9.0,0.4,26.1,-18.0,15.5,16
658,11266.0,0.4,0.6000000000000001,-0.6000000000000001,4.0,-8.5,0.2,12.200000000000001,-7.8,24.7,16
659,11278.0,0.6000000000000001,0.7000000000000001,-0.7000000000000001,4.2,-8.4,0.1,8.3,-4.800000000000001,25.7,16
660,11297.0,1.5,0.9,-0.2,5.0,-8.3,0.6000000000000001,5.2,-6.600000000000001,23.5,16
661,11312.0,2.3000000000000003,0.9,-0.2,5.800000000000001,-8.3,0.6000000000000001,4.9,-4.1,16.0,16
662,11329.0,1.3,0.7000000000000001,-1.2000000000000002,4.7,-8.4,-0.30000000000000004,2.3,12.0,3.0,16
663,11345.0,0.7000000000000001,-0.2,-1.4000000000000001,4.2,-9.3,-0.5,-11.2,30.699999999999996,0.7,16
664,11362.0,1.0,-1.2000000000000002,-0.9,4.5,-10.4,0.0,-16.900000000000002,49.6,-6.600000000000001,16
665,11378.0,1.3,-1.7000000000000002,0.1,4.800000000000001,-10.9,1.0,2.6,38.800000000000004,-18.5,16
666,11396.0,2.0,-1.6,-1.1,5.5,-10.700000000000001,-0.1,54.6,12.100000000000001,-22.2,16
667,11413.0,2.0,-0.7000000000000001,-1.4000000000000001,5.6000000000000005,-9.700000000000001,-0.2,47.0,-1.4,-31.9,16
668,11429.0,1.8,-0.8,-0.30000000000000004,5.5,-9.8,0.9,44.00000000000001,-7.500000000000001,-28.3,16
669,11445.0,0.5,-1.3,0.2,4.2,-10.200000000000001,1.6,60.2,-10.700000000000001,-23.099999999999998,16
670,11462.0,-1.9000000000000001,-1.6,-0.4,1.9000000000000001,-10.5,1.1,66.2,-3.6000000000000005,-18.4,16
671,11478.0,-2.7,-1.0,-0.30000000000000004,1.1,-9.8,1.4000000000000001,58.2,-3.6000000000000005,-11.000000000000002,16
672,11497.0,-2.2,-0.7000000000000001,0.2,1.7000000000000002,-9.5,2.0,60.2,3.9,-4.1,16
673,11512.0,-1.2000000000000002,-0.6000000000000001,-1.9000000000000001,2.7,-9.4,0.1,56.7,-2.6,-10.700000000000001,16
674,11533.0,-1.4000000000000001,1.3,-3.5,2.5,-7.4,-1.4000000000000001,26.700000000000003,-18.4,-13.700000000000001,16
675,11550.0,-3.4000000000000004,0.4,-4.3,0.6000000000000001,-8.3,-2.2,-8.700000000000001,-37.2,6.2,16
676,11563.0,-1.5,-0.9,-2.8000000000000003,2.5,-9.600000000000001,-0.7000000000000001,-10.299999999999999,-43.6,18.3,16
677,11579.0,0.5,-1.8,-2.2,4.5,-10.5,-0.2,-9.899999999999999,-73.5,25.4,16
678,11600.0,1.3,-1.2000000000000002,0.2,5.2,-9.9,2.0,-15.5,-92.60000000000001,4.6,16
679,11612.0,1.0,-2.2,4.7,5.0,-11.0,6.4,10.700000000000001,-53.10000000000001,-7.9,16
680,11628.0,1.1,-2.6,5.0,5.1000000000000005,-11.3,6.800000000000001,84.6,-6.2,-22.000000000000004,16
681,11647.0,-1.1,-0.9,-0.1,3.0,-9.600000000000001,1.8,98.8,-43.2,-38.0,16
682,11662.0,-1.8,-0.2,-3.8000000000000003,2.4000000000000004,-8.8,-1.7000000000000002,71.39999999999999,-55.5,-38.900000000000006,16
683,11681.0,-2.7,0.2,-2.0,1.6,-8.3,0.2,40.4,-36.5,-15.2,16
684,11695.0,-2.3000000000000003,0.6000000000000001,-1.5,2.1,-7.9,0.7000000000000001,27.3,-26.200000000000003,3.3000000000000007,16
685,11712.0,-4.2,1.2000000000000002,-1.7000000000000002,0.2,-7.2,0.6000000000000001,17.0,-21.300000000000004,22.2,16
686,11731.0,-4.1000000000000005,1.4000000000000001,-1.9000000000000001,0.30000000000000004,-7.4,0.5,5.4,-12.7,46.1,16
687,11746.0,-2.0,0.6000000000000001,-0.5,2.2,-8.0,1.7000000000000002,0.6000000000000001,-17.300000000000004,60.900000000000006,16
688,11762.0,-0.7000000000000001,0.2,-0.1,3.4000000000000004,-8.4,2.2,4.2,-24.0,55.3,16
689,11778.0,0.2,0.9,1.9000000000000001,4.2,-7.800000000000001,4.1000000000000005,42.1,-52.2,22.1,16
690,11798.0,-0.4,1.3,-0.5,3.6,-7.300000000000001,1.8,57.800000000000004,-79.1,8.3,16
691,11812.0,-1.0,2.4000000000000004,-2.4000000000000004,3.0,-6.300000000000001,0.0,26.700000000000003,-60.00000000000001,9.0,16
692,11828.0,1.2000000000000002,0.6000000000000001,-1.5,5.2,-8.1,0.8,-9.899999999999999,-11.2,14.100000000000001,16
693,11845.0,1.7000000000000002,0.4,0.8,5.7,-8.3,3.1,-11.5,-6.4,5.2,16
694,11862.0,0.9,0.2,0.2,4.9,-8.5,2.4000000000000004,-14.700000000000001,-18.5,-7.9,16
695,11880.0,0.0,0.8,0.5,4.0,-7.9,2.6,-16.3,-19.400000000000002,-8.5,16
696,11895.0,-1.1,1.0,0.8,3.0,-7.7,2.9000000000000004,-11.700000000000001,-19.1,-1.6,16
697,11912.0,-1.2000000000000002,0.6000000000000001,0.30000000000000004,2.9000000000000004,-8.1,2.3000000000000003,-10.200000000000001,-18.200000000000003,9.700000000000001,16
698,11956.0,1.6,-0.30000000000000004,1.6,5.5,-9.1,3.5,4.4,-33.0,9.600000000000001,16
699,11962.0,1.0,-0.7000000000000001,2.2,5.0,-9.4,4.2,4.800000000000001,-31.3,2.7,16
700,11978.0,1.8,-0.30000000000000004,3.4000000000000004,5.7,-9.1,5.300000000000001,11.700000000000001,-23.0,-7.8,16
701,11995.0,1.9000000000000001,0.30000000000000004,1.5,5.9,-8.5,3.5,18.3,-16.200000000000003,-14.400000000000002,16
702,12012.0,1.8,-0.6000000000000001,-0.30000000000000004,5.800000000000001,-9.3,1.7000000000000002,4.300000000000001,-18.8,-16.6,16
703,12037.0,1.0,-1.4000000000000001,-1.4000000000000001,5.1000000000000005,-10.100000000000001,0.6000000000000001,-1.4,-20.400000000000002,-20.599999999999998,16
704,12045.0,-0.5,-1.3,-2.0,3.7,-10.0,-0.1,-0.8,-13.8,-22.9,16
705,12062.0,-3.0,-0.7000000000000001,-0.9,1.3,-9.4,1.0,-0.5,3.7000000000000006,-16.5,16
706,12084.0,-4.1000000000000005,-2.6,-1.0,0.2,-11.200000000000001,0.9,0.8,8.0,13.100000000000001,16
707,12095.0,-4.0,-2.6,-0.9,1.0,-11.5,0.7000000000000001,-2.2,8.899999999999999,21.400000000000002,16
708,12117.0,-1.0,-3.8000000000000003,-1.9000000000000001,3.1,-12.5,0.0,-15.6,7.9,36.5,16
709,12129.0,0.1,-3.2,-3.8000000000000003,4.2,-11.9,-1.9000000000000001,-25.6,8.5,26.000000000000004,16
710,12145.0,-0.30000000000000004,-1.6,-1.8,3.7,-10.4,0.0,-32.7,14.5,21.400000000000002,16
711,12167.0,-1.9000000000000001,-0.1,-2.4000000000000004,1.9000000000000001,-8.9,-0.7000000000000001,-25.900000000000002,5.300000000000001,16.5,16
712,12178.0,-2.6,0.1,-2.8000000000000003,1.3,-8.8,-1.1,-23.800000000000004,2.8,18.0,16
713,12195.0,-2.0,-0.1,-2.8000000000000003,1.8,-9.0,-1.1,-21.500000000000004,-1.6,22.700000000000003,16
714,12212.0,-1.3,-0.4,-2.2,2.4000000000000004,-9.3,-0.6000000000000001,-21.300000000000004,-3.0,22.8,16
715,12228.0,-0.7000000000000001,-0.9,-1.2000000000000002,3.0,-9.9,0.30000000000000004,-23.2,-5.500000000000001,21.500000000000004,16
716,12245.0,-0.1,-1.2000000000000002,-0.7000000000000001,3.5,-10.200000000000001,0.7000000000000001,-25.4,-11.5,22.4,16
717,12263.0,0.8,-1.0,-1.5,4.1000000000000005,-10.200000000000001,-0.7000000000000001,-23.0,6.500000000000001,24.3,16
718,12278.0,1.4000000000000001,0.8,-0.6000000000000001,4.7,-8.5,-0.30000000000000004,-29.500000000000004,-9.3,19.200000000000003,16
719,12295.0,0.5,0.7000000000000001,0.9,3.7,-8.6,1.0,-27.2,12.9,21.0,16
720,12312.0,-0.4,1.3,-0.1,2.8000000000000003,-8.0,0.0,-14.400000000000002,7.300000000000001,16.700000000000003,16
721,12331.0,-0.9,1.3,-0.4,2.2,-8.0,-0.30000000000000004,-14.400000000000002,0.8,16.6,16
722,12346.0,-0.30000000000000004,0.8,-1.2000000000000002,2.8000000000000003,-8.5,-1.2000000000000002,-20.8,-8.899999999999999,14.700000000000001,16
723,12364.0,-1.1,0.6000000000000001,-0.7000000000000001,1.9000000000000001,-8.700000000000001,-0.7000000000000001,-34.1,-11.900000000000002,5.9,16
724,12378.0,-0.4,1.2000000000000002,0.30000000000000004,2.6,-8.1,0.1,-32.0,-3.4,9.600000000000001,16
725,12397.0,-0.1,1.1,-0.1,3.0,-8.200000000000001,0.1,-38.2,-1.1,10.1,16
726,12412.0,0.5,1.4000000000000001,0.9,3.5,-8.0,0.6000000000000001,-39.0,3.0,8.600000000000001,16
727,12432.0,0.30000000000000004,1.0,1.1,3.3000000000000003,-8.4,0.6000000000000001,-25.6,6.699999999999999,12.100000000000001,16
728,12449.0,-0.8,1.4000000000000001,-0.30000000000000004,2.1,-7.9,-0.8,-15.5,6.2,12.4,16
729,12462.0,-0.2,0.2,-0.2,2.7,-9.1,-0.7000000000000001,-15.700000000000001,2.0,13.000000000000002,16
730,12478.0,0.1,1.1,0.0,2.9000000000000004,-8.3,-0.6000000000000001,-10.4,-0.4,18.700000000000003,16
731,12496.0,0.0,0.5,0.0,2.8000000000000003,-8.8,-0.7000000000000001,-8.5,-4.5,19.700000000000003,16
732,12512.0,-0.2,-0.1,0.6000000000000001,2.5,-9.5,-0.1,-9.600000000000001,-6.600000000000001,20.599999999999998,16
733,12542.0,-0.1,-0.6000000000000001,0.1,2.7,-10.0,-0.30000000000000004,-14.400000000000002,-4.1,20.599999999999998,16
734,12544.0,-0.1,-0.6000000000000001,0.1,2.7,-10.0,-0.30000000000000004,-14.400000000000002,-4.1,20.599999999999998,16
735,12562.0,1.0,-0.1,-1.3,3.8000000000000003,-9.5,-1.7000000000000002,-16.6,-10.8,22.5,16
736,12579.0,0.30000000000000004,-0.7000000000000001,1.8,3.0,-10.100000000000001,1.3,-13.8,9.5,30.699999999999996,16
737,12595.0,1.5,-0.6000000000000001,1.8,4.1000000000000005,-10.100000000000001,1.3,0.8,0.4,29.1,16
738,12615.0,2.6,-1.3,1.5,5.2,-10.8,1.1,16.3,-7.6,15.899999999999999,16
739,12632.0,1.7000000000000002,0.5,0.0,4.2,-9.0,-0.4,24.5,-12.4,5.1000000000000005,16
740,12645.0,0.9,-0.1,-0.2,3.4000000000000004,-9.5,-0.5,27.0,-6.0,0.0,16
741,12662.0,1.5,-1.6,-1.6,4.0,-11.100000000000001,-1.9000000000000001,28.900000000000002,1.7,-8.3,16
742,12678.0,2.3000000000000003,-1.7000000000000002,-1.7000000000000002,4.800000000000001,-11.200000000000001,-1.9000000000000001,20.400000000000002,-11.000000000000002,-27.9,16
743,12695.0,2.7,-2.1,-0.1,5.300000000000001,-11.5,-0.2,21.8,-30.000000000000004,-44.8,16
744,12723.0,1.8,-2.4000000000000004,1.5,4.6000000000000005,-11.8,1.4000000000000001,37.800000000000004,-66.7,-72.4,16
745,12735.0,-1.3,-2.3000000000000003,3.7,1.7000000000000002,-11.700000000000001,3.6,62.6,-66.1,-77.1,16
746,12745.0,-3.0,-2.3000000000000003,3.5,0.1,-11.600000000000001,3.5,74.30000000000001,-65.2,-74.60000000000001,16
747,12762.0,-3.5,-1.6,1.5,-0.1,-10.8,1.7000000000000002,91.50000000000001,-51.70000000000001,-53.8,16
748,12779.0,-2.4000000000000004,-1.1,0.5,1.1,-10.3,0.9,91.50000000000001,-48.0,-45.8,16
749,12796.0,-1.7000000000000002,-0.6000000000000001,-0.9,1.9000000000000001,-9.700000000000001,-0.30000000000000004,78.9,-42.900000000000006,-41.6,16
750,12812.0,-1.2000000000000002,-0.2,-1.9000000000000001,2.6,-9.3,-1.2000000000000002,64.50000000000001,-30.4,-38.50000000000001,16
751,12829.0,-1.1,0.0,-1.8,2.7,-9.0,-0.9,51.0,-16.0,-33.7,16
752,12848.0,-0.7000000000000001,-0.30000000000000004,-2.5,3.1,-9.200000000000001,-1.6,34.1,-9.3,-26.700000000000003,16
753,12862.0,0.1,-0.1,-2.5,4.1000000000000005,-9.0,-1.5,14.600000000000001,8.0,-22.6,16
754,12878.0,1.3,-0.6000000000000001,-3.2,5.2,-9.5,-2.2,-2.9,15.8,-25.5,16
755,12896.0,0.30000000000000004,-2.5,-0.6000000000000001,4.3,-11.4,0.5,-21.200000000000003,39.2,-31.5,16
756,12912.0,-1.5,-2.0,1.6,2.6,-10.9,2.7,-7.200000000000001,53.50000000000001,-45.9,16
757,12942.0,-4.6000000000000005,0.4,2.9000000000000004,-0.30000000000000004,-8.4,4.0,20.900000000000002,7.8,-28.800000000000004,16
758,12945.0,-4.3,0.9,2.0,0.1,-7.800000000000001,3.1,26.700000000000003,5.0,-19.9,16
759,12962.0,-2.1,1.1,-0.2,2.2,-7.6000000000000005,1.0,25.1,-5.4,-5.1000000000000005,16
760,12978.0,-1.6,1.3,-0.6000000000000001,2.8000000000000003,-7.4,0.6000000000000001,27.5,-4.0,-7.8,16
761,12995.0,-1.8,1.6,-1.6,2.6,-7.1000000000000005,-0.30000000000000004,19.400000000000002,-8.8,-10.9,16
762,13019.0,-2.9000000000000004,1.7000000000000002,0.2,1.6,-7.0,1.6,4.800000000000001,-11.8,-6.300000000000001,16
763,13030.0,-2.6,1.4000000000000001,0.30000000000000004,1.9000000000000001,-7.2,1.6,6.600000000000001,-13.3,0.7,16
764,13045.0,-1.8,1.2000000000000002,-0.7000000000000001,2.7,-7.4,0.7000000000000001,0.8,-16.3,7.0,16
765,13066.0,-1.3,1.3,0.8,3.2,-7.300000000000001,2.1,-8.700000000000001,-8.8,8.100000000000001,16
766,13079.0,-1.3,1.4000000000000001,0.8,3.2,-7.300000000000001,2.0,-8.899999999999999,-5.2,8.700000000000001,16
767,13099.0,-0.7000000000000001,1.6,0.4,3.7,-7.0,1.6,-9.2,7.1000000000000005,9.899999999999999,16
768,13116.0,-0.7000000000000001,2.0,0.30000000000000004,3.7,-6.6000000000000005,1.5,-14.900000000000002,6.699999999999999,16.5,16
769,13128.0,-0.2,1.3,0.4,4.2,-7.4,1.6,-19.300000000000004,4.6,24.599999999999998,16
770,13145.0,0.6000000000000001,1.3,0.5,4.9,-7.4,1.7000000000000002,-23.6,5.6,31.5,16
771,13162.0,1.0,0.2,1.2000000000000002,5.2,-8.6,2.2,-23.900000000000006,3.6000000000000005,30.599999999999998,16
772,13180.0,0.9,-0.30000000000000004,1.0,5.4,-9.1,1.8,-20.8,6.300000000000001,29.900000000000006,16
773,13195.0,2.0,-0.8,1.7000000000000002,6.0,-9.700000000000001,2.7,-15.100000000000001,6.1000000000000005,19.799999999999997,16
774,13212.0,1.9000000000000001,-0.7000000000000001,2.2,6.0,-9.5,3.2,-9.3,-1.1,7.400000000000001,16
775,13242.0,1.1,0.2,3.7,5.1000000000000005,-8.700000000000001,4.7,-2.0,-2.4000000000000004,-12.7,16
776,13245.0,1.0,0.7000000000000001,3.8000000000000003,5.0,-8.200000000000001,4.7,1.8000000000000003,-4.7,-13.6,16
777,13262.0,1.1,1.1,3.2,5.300000000000001,-7.6000000000000005,3.3000000000000003,8.700000000000001,-5.6,-18.900000000000002,16
778,13278.0,1.3,1.0,1.4000000000000001,5.5,-7.800000000000001,2.4000000000000004,5.8,-10.0,-23.3,16
779,13302.0,2.2,0.30000000000000004,0.8,6.5,-8.5,1.8,-14.200000000000001,1.6,-33.800000000000004,16
780,13312.0,0.6000000000000001,-3.0,1.9000000000000001,4.9,-11.700000000000001,2.9000000000000004,-11.4,6.500000000000001,-41.7,16
781,13330.0,-0.4,-4.4,-0.6000000000000001,4.1000000000000005,-13.100000000000001,0.30000000000000004,-2.7,-4.2,-31.099999999999998,16
782,13350.0,-2.0,-1.7000000000000002,-0.9,2.6,-10.3,0.0,-2.0,4.7,-8.3,16
783,13362.0,-2.5,-1.1,-0.1,2.0,-9.700000000000001,0.8,1.0,6.1000000000000005,-1.6,16
784,13378.0,-1.9000000000000001,-1.4000000000000001,1.4000000000000001,2.6,-10.100000000000001,2.3000000000000003,4.4,9.0,5.300000000000001,16
785,13395.0,-2.4000000000000004,-1.8,-0.6000000000000001,2.2,-10.5,0.4,1.4,6.2,13.200000000000003,16
786,13415.0,-2.9000000000000004,-2.2,-2.0,1.6,-10.8,-1.1,-11.8,-11.3,17.400000000000002,16
787,13429.0,-2.4000000000000004,-1.7000000000000002,-2.1,2.1,-10.4,-1.2000000000000002,-12.299999999999999,-10.5,20.599999999999998,16
788,13450.0,-2.4000000000000004,0.2,-2.9000000000000004,1.9000000000000001,-8.5,-2.0,-14.5,-8.700000000000001,22.8,16
789,13462.0,-2.4000000000000004,0.7000000000000001,-3.1,1.9000000000000001,-8.0,-2.3000000000000003,-25.200000000000003,-18.4,24.7,16
790,13481.0,-2.0,0.4,-2.1,2.2,-8.4,-1.4000000000000001,-32.400000000000006,-16.6,28.700000000000003,16
791,13495.0,-1.3,-0.2,-0.6000000000000001,2.9000000000000004,-9.1,0.0,-33.800000000000004,-3.5,36.2,16
792,13519.0,-0.1,-0.7000000000000001,0.4,4.0,-9.600000000000001,0.8,-25.300000000000004,-4.4,41.4,16
793,13528.0,1.2000000000000002,-1.5,-0.4,5.2,-10.4,0.1,-22.9,-7.400000000000001,40.300000000000004,16
794,13545.0,1.0,-1.5,-2.2,4.9,-10.5,-1.9000000000000001,-28.700000000000003,-3.5,33.2,16
795,13562.0,-0.1,-0.2,-1.2000000000000002,3.7,-9.200000000000001,-0.9,-34.300000000000004,6.0,30.4,16
796,13578.0,-1.4000000000000001,0.9,-0.30000000000000004,2.3000000000000003,-8.200000000000001,-0.1,-31.6,2.3,32.9,16
797,13597.0,-1.8,1.4000000000000001,-0.1,1.7000000000000002,-7.800000000000001,-0.1,-36.9,-4.6,37.400000000000006,16
798,13619.0,-1.3,-0.1,0.4,2.0,-9.3,0.2,-35.8,-7.1000000000000005,47.0,16
799,13629.0,-0.1,-0.5,-0.2,3.1,-9.8,-0.4,-22.2,-2.8,50.900000000000006,16
800,13646.0,0.8,0.6000000000000001,-1.5,3.9000000000000004,-8.700000000000001,-1.8,-16.1,14.5,45.3,16
801,13662.0,1.0,0.0,-2.3000000000000003,4.0,-9.3,-2.6,-24.200000000000003,29.1,31.5,16
802,13678.0,1.7000000000000002,-0.6000000000000001,0.1,4.6000000000000005,-9.9,-0.2,-29.300000000000004,17.0,23.900000000000006,16
803,13695.0,0.8,0.2,0.7000000000000001,3.6,-9.200000000000001,0.30000000000000004,-31.099999999999998,21.300000000000004,11.4,16
804,13716.0,-0.2,-0.30000000000000004,0.30000000000000004,2.6,-9.700000000000001,-0.2,-34.800000000000004,3.2,-3.6000000000000005,16
805,13729.0,0.1,-0.2,1.1,2.9000000000000004,-9.600000000000001,0.5,-34.50000000000001,-1.6,-7.400000000000001,16
806,13746.0,-0.2,0.5,1.6,2.6,-8.9,1.0,-26.400000000000006,-5.1000000000000005,-15.8,16
807,13764.0,0.6000000000000001,-0.1,-0.4,3.6,-9.4,-1.1,3.9,4.4,-26.9,16
808,13778.0,-2.2,1.0,-1.5,0.8,-8.3,-2.2,-6.2,5.0,-9.600000000000001,16
809,13806.0,-1.5,0.9,1.4000000000000001,1.5,-8.4,0.7000000000000001,-17.200000000000003,3.5,24.5,16
810,13812.0,-1.2000000000000002,0.7000000000000001,1.7000000000000002,1.8,-8.6,1.0,-15.2,-5.9,28.600000000000005,16
811,13834.0,1.2000000000000002,-0.2,0.2,4.0,-9.5,-0.6000000000000001,-32.8,-50.60000000000001,28.700000000000003,16
812,13849.0,1.9000000000000001,0.2,1.1,5.2,-9.0,0.0,-29.900000000000006,-48.300000000000004,23.900000000000006,16
813,13862.0,2.8000000000000003,0.6000000000000001,-0.4,5.5,-8.700000000000001,-1.4000000000000001,-12.5,-30.000000000000004,21.6,16
814,13879.0,2.3000000000000003,0.6000000000000001,-0.8,4.9,-8.8,-1.8,-12.600000000000001,-13.8,18.8,16
815,13904.0,0.8,1.0,0.2,3.4000000000000004,-8.4,-0.9,-26.300000000000004,-2.7,14.100000000000001,16
816,13917.0,1.1,0.9,-0.30000000000000004,3.6,-8.5,-1.5,-24.0,-2.2,7.6,16
817,13932.0,1.2000000000000002,-1.9000000000000001,-0.9,3.8000000000000003,-11.3,-2.2,-20.0,-4.9,-2.4000000000000004,16
818,13945.0,1.7000000000000002,-2.0,-0.9,4.2,-11.4,-2.2,-16.5,-5.7,-6.8,16
819,13963.0,2.1,-1.7000000000000002,1.2000000000000002,4.7,-11.100000000000001,-0.1,-6.9,4.2,-17.0,16
820,13979.0,2.6,-1.8,1.5,5.2,-11.200000000000001,0.2,-4.300000000000001,1.6,-19.6,16
821,13996.0,1.4000000000000001,-1.2000000000000002,0.7000000000000001,4.1000000000000005,-10.5,-0.6000000000000001,12.0,-0.5,-30.5,16
822,14027.0,-0.5,-0.4,0.9,2.4000000000000004,-9.700000000000001,-0.4,30.200000000000003,-4.4,-30.3,16
823,14045.0,-0.5,0.1,0.5,2.4000000000000004,-9.200000000000001,-0.6000000000000001,39.1,2.9,-26.1,16
824,14066.0,-1.1,0.5,0.6000000000000001,1.9000000000000001,-8.8,-0.4,43.6,13.5,-16.6,16
825,14079.0,-1.3,0.30000000000000004,0.4,1.7000000000000002,-9.0,-0.5,41.50000000000001,9.899999999999999,-12.5,16
826,14096.0,-1.2000000000000002,-0.6000000000000001,-0.6000000000000001,1.9000000000000001,-9.9,-1.3,34.400000000000006,-6.300000000000001,2.4000000000000004,16
827,14115.0,-0.4,-1.0,-0.8,2.7,-10.3,-1.4000000000000001,29.900000000000006,10.200000000000001,7.400000000000001,16
828,14133.0,0.8,-1.6,-0.4,3.9000000000000004,-10.9,-1.0,28.400000000000002,30.599999999999998,-0.1,16
829,14145.0,0.1,-1.8,-0.1,3.2,-11.100000000000001,-0.6000000000000001,27.400000000000002,29.300000000000004,-16.0,16
830,14161.0,-1.2000000000000002,-0.9,-0.7000000000000001,1.9000000000000001,-10.200000000000001,-1.1,24.5,21.300000000000004,-20.2,16
831,14185.0,-2.2,-0.1,0.2,1.0,-9.4,-0.1,15.299999999999999,18.5,-15.100000000000001,16
832,14195.0,-2.5,0.1,0.6000000000000001,0.7000000000000001,-9.1,0.30000000000000004,14.300000000000002,21.8,-12.8,16
833,14213.0,-2.9000000000000004,-0.1,0.9,0.30000000000000004,-9.3,0.7000000000000001,12.9,21.500000000000004,-4.800000000000001,16
834,14228.0,-2.9000000000000004,0.2,1.1,0.2,-9.0,0.9,13.100000000000001,13.900000000000002,1.9,16
835,14245.0,-2.5,-0.1,1.1,0.6000000000000001,-9.4,1.0,19.9,9.700000000000001,0.2,16
836,14264.0,-1.5,0.8,0.2,1.7000000000000002,-8.5,0.2,20.1,8.2,5.2,16
837,14279.0,-1.1,0.9,-0.1,2.0,-8.4,0.0,17.0,7.1000000000000005,2.9,16
838,14295.0,-0.9,1.1,-0.1,2.2,-8.200000000000001,0.0,11.3,0.7,-1.4,16
839,14316.0,-1.1,1.5,0.30000000000000004,2.0,-7.800000000000001,0.4,7.200000000000001,-4.5,-3.1,16
840,14328.0,-0.9,1.6,0.1,2.1,-7.7,0.30000000000000004,0.6000000000000001,-2.1,-3.2,16
841,14347.0,-0.9,0.9,0.7000000000000001,2.2,-8.4,0.8,-3.7000000000000006,-0.6000000000000001,-4.5,16
842,14361.0,-0.8,1.0,0.4,2.3000000000000003,-8.3,0.6000000000000001,-5.300000000000001,-4.7,-7.1000000000000005,16
843,14378.0,-0.2,2.0,0.2,2.9000000000000004,-7.300000000000001,0.30000000000000004,-25.0,-2.0,-5.7,16
844,14395.0,-0.30000000000000004,1.5,0.7000000000000001,2.8000000000000003,-7.800000000000001,0.8,-30.3,7.200000000000001,-0.6000000000000001,16
845,14414.0,0.6000000000000001,0.30000000000000004,0.9,3.7,-9.0,0.9,-30.599999999999998,13.000000000000002,5.0,16
846,14428.0,0.6000000000000001,0.7000000000000001,1.0,3.6,-8.700000000000001,1.0,-26.700000000000003,8.5,5.1000000000000005,16
847,14445.0,0.8,-0.1,2.2,3.9000000000000004,-9.4,2.0,-11.6,-2.0,3.4,16
848,14465.0,1.3,0.2,2.1,4.4,-9.1,1.9000000000000001,2.2,-8.8,1.8000000000000003,16
849,14478.0,1.4000000000000001,0.4,2.8000000000000003,4.5,-9.0,2.7,12.9,-11.6,-0.1,16
850,14495.0,2.0,0.0,2.4000000000000004,5.1000000000000005,-9.3,2.3000000000000003,22.5,-10.700000000000001,-4.1,16
851,14523.0,2.8000000000000003,0.2,1.9000000000000001,6.0,-9.1,1.9000000000000001,18.700000000000003,-11.000000000000002,-17.200000000000003,16
852,14535.0,2.3000000000000003,0.6000000000000001,2.2,5.4,-8.700000000000001,2.2,16.8,-10.1,-20.0,16
853,14545.0,1.9000000000000001,1.6,2.0,5.1000000000000005,-7.6000000000000005,2.1,5.6,-1.3,-24.599999999999998,16
854,14564.0,0.9,0.2,2.2,4.3,-9.0,2.3000000000000003,0.2,6.8,-30.1,16
855,14578.0,1.1,-1.0,3.0,4.5,-10.200000000000001,3.1,4.800000000000001,15.700000000000001,-31.5,16
856,14597.0,1.8,-3.2,3.4000000000000004,5.300000000000001,-12.4,3.5,30.799999999999997,22.6,-37.400000000000006,16
857,14621.0,-3.4000000000000004,-1.6,-2.3000000000000003,0.30000000000000004,-10.700000000000001,-2.0,13.6,-11.900000000000002,-20.3,16
858,14628.0,-4.6000000000000005,-0.8,-0.8,-0.9,-9.9,-0.5,11.2,4.800000000000001,-9.0,16
859,14645.0,-3.0,-0.9,1.3,0.8,-10.0,1.7000000000000002,29.700000000000006,44.2,12.0,16
860,14661.0,-2.2,-2.3000000000000003,-4.2,1.5,-11.4,-3.7,24.900000000000002,17.7,18.0,16
861,14680.0,-0.2,-3.0,-5.2,3.4000000000000004,-12.100000000000001,-4.7,-9.2,-18.8,24.900000000000002,16
862,14696.0,0.0,-1.7000000000000002,-3.1,3.6,-10.8,-2.6,-24.0,-13.3,14.100000000000001,16
863,14722.0,-0.6000000000000001,-0.8,-2.0,2.9000000000000004,-9.9,-1.6,-34.300000000000004,-2.5,-6.500000000000001,16
864,14728.0,-1.0,-0.7000000000000001,-2.2,2.5,-9.8,-1.9000000000000001,-38.7,-8.600000000000001,-14.200000000000001,16
865,14745.0,-1.2000000000000002,-0.9,-1.5,2.4000000000000004,-10.100000000000001,-1.2000000000000002,-44.7,-18.700000000000003,-25.200000000000003,16
866,14762.0,-2.7,-0.2,-0.9,1.0,-9.3,-0.8,-48.0,-24.0,-31.3,16
867,14778.0,-2.8000000000000003,1.0,-0.9,1.0,-8.1,-1.0,-42.3,-14.100000000000001,-12.299999999999999,16
868,14795.0,0.0,-0.8,-1.2000000000000002,3.7,-9.9,-1.5,-50.3,-1.6,7.699999999999999,16
869,14817.0,0.6000000000000001,-1.2000000000000002,-1.4000000000000001,4.4,-10.3,-1.8,-38.7,-3.0,14.100000000000001,16
870,14828.0,0.6000000000000001,-0.8,-0.9,4.3,-9.9,-1.4000000000000001,-19.5,-8.5,19.9,16
871,14845.0,-0.30000000000000004,-0.5,-0.5,3.3000000000000003,-9.600000000000001,-1.0,4.800000000000001,-18.1,28.600000000000005,16
872,14866.0,-0.5,1.8,-0.30000000000000004,3.0,-7.300000000000001,-0.8,11.700000000000001,-22.9,31.0,16
873,14878.0,-0.5,2.4000000000000004,-0.30000000000000004,2.9000000000000004,-6.7,-0.8,-0.30000000000000004,12.7,31.5,16
874,14896.0,-0.8,2.4000000000000004,-0.30000000000000004,2.6,-6.800000000000001,-0.8,-20.599999999999998,32.400000000000006,30.3,16
875,14915.0,-0.1,1.9000000000000001,-0.9,3.2,-7.300000000000001,-1.5,-54.699999999999996,10.600000000000001,28.500000000000004,16
876,14929.0,-0.30000000000000004,2.1,-0.30000000000000004,3.0,-7.1000000000000005,-1.0,-62.50000000000001,7.9,26.000000000000004,16
877,14947.0,-0.2,0.5,-1.2000000000000002,2.9000000000000004,-8.700000000000001,-2.1,-54.50000000000001,12.9,31.9,16
878,14962.0,-0.6000000000000001,0.6000000000000001,-0.1,2.4000000000000004,-8.700000000000001,-1.2000000000000002,-39.50000000000001,11.8,23.700000000000003,16
879,14978.0,-1.2000000000000002,0.8,-0.1,1.8,-8.5,-1.2000000000000002,-29.400000000000002,5.8,22.6,16
880,14995.0,-0.7000000000000001,1.0,0.2,2.2,-8.200000000000001,-1.0,-27.6,4.2,24.5,16
881,15026.0,-0.9,1.5,-0.1,2.0,-7.800000000000001,-1.4000000000000001,-20.5,27.400000000000002,31.3,16
882,15028.0,-0.7000000000000001,0.8,-1.0,2.2,-8.5,-2.3000000000000003,-18.5,33.2,36.7,16
883,15047.0,-0.4,1.3,-0.1,2.3000000000000003,-8.0,-1.3,-13.100000000000001,48.300000000000004,47.5,16
884,15062.0,0.1,0.30000000000000004,0.1,2.7,-9.1,-1.2000000000000002,-6.2,49.0,52.00000000000001,16
885,15078.0,0.9,-0.2,1.1,3.4000000000000004,-9.600000000000001,-0.2,4.4,29.500000000000004,54.1,16
886,15096.0,2.7,-1.6,1.1,5.0,-11.100000000000001,-0.1,14.400000000000002,-8.5,40.300000000000004,16
887,15127.0,1.9000000000000001,-1.1,0.1,4.0,-10.600000000000001,-1.1,19.400000000000002,-19.1,24.200000000000003,16
888,15132.0,1.5,-0.2,0.1,3.6,-9.700000000000001,-1.1,12.299999999999999,-15.299999999999999,23.5,16
889,15145.0,1.7000000000000002,0.4,0.2,3.8000000000000003,-9.200000000000001,-0.9,-2.1,-6.500000000000001,24.900000000000002,16
890,15170.0,1.1,1.6,1.2000000000000002,3.1,-7.9,0.1,-12.5,6.699999999999999,20.400000000000002,16
891,15178.0,0.8,1.5,1.6,2.8000000000000003,-8.1,0.4,-10.200000000000001,6.1000000000000005,19.1,16
892,15195.0,0.8,1.0,1.0,2.8000000000000003,-8.5,-0.2,-4.6,3.7000000000000006,7.8,16
893,15216.0,1.2000000000000002,-1.5,-1.4000000000000001,3.1,-11.0,-2.6,9.899999999999999,23.5,0.7,16
894,15230.0,1.9000000000000001,-2.4000000000000004,-1.3,3.9000000000000004,-12.0,-2.4000000000000004,11.8,28.200000000000003,-0.7,16
895,15247.0,4.2,-3.5,0.0,6.2,-13.0,-1.0,23.900000000000006,39.300000000000004,-16.5,16
896,15262.0,4.2,-3.2,1.2000000000000002,6.2,-12.700000000000001,0.2,29.200000000000003,36.0,-22.1,16
897,15278.0,0.7000000000000001,-0.5,2.0,2.9000000000000004,-10.0,1.2000000000000002,48.800000000000004,26.6,-30.3,16
898,15295.0,-1.8,0.0,1.0,0.4,-9.600000000000001,0.4,77.4,27.0,-33.0,16
899,15322.0,-2.5,-1.6,-0.1,-0.1,-11.100000000000001,-0.4,70.0,18.700000000000003,-32.7,16
900,15329.0,-2.3000000000000003,-1.8,-0.4,0.1,-11.4,-0.6000000000000001,62.1,15.000000000000002,-30.200000000000003,16
901,15345.0,-2.4000000000000004,-1.0,-0.9,0.1,-10.5,-1.0,48.9,14.900000000000002,-28.200000000000003,16
902,15363.0,-2.8000000000000003,-0.7000000000000001,-1.3,-0.2,-10.100000000000001,-1.2000000000000002,38.400000000000006,19.9,-24.599999999999998,16
903,15378.0,-0.8,-1.1,-0.5,1.8,-10.600000000000001,-0.30000000000000004,32.6,21.8,-19.0,16
904,15397.0,-0.4,-0.9,0.30000000000000004,2.3000000000000003,-10.4,0.6000000000000001,34.400000000000006,6.699999999999999,-22.2,16
905,15418.0,-0.6000000000000001,-1.3,-1.6,2.2,-10.700000000000001,-1.2000000000000002,30.3,-9.700000000000001,-28.200000000000003,16
906,15428.0,-0.6000000000000001,-1.3,-1.7000000000000002,2.2,-10.700000000000001,-1.2000000000000002,27.700000000000003,-11.900000000000002,-29.1,16
907,15447.0,-2.1,-1.1,-0.5,0.8,-10.4,0.0,19.6,-11.6,-29.500000000000004,16
908,15462.0,-2.5,-0.6000000000000001,-0.1,0.5,-9.9,0.4,16.0,-13.6,-21.900000000000002,16
909,15480.0,-2.1,0.30000000000000004,0.5,0.9,-9.0,1.0,12.8,-8.700000000000001,-11.1,16
910,15495.0,-1.9000000000000001,0.4,0.5,1.1,-8.9,1.1,14.5,-4.0,-6.4,16
911,15520.0,-1.4000000000000001,0.9,-0.1,1.6,-8.4,0.6000000000000001,15.100000000000001,-6.1000000000000005,-4.300000000000001,16
912,15528.0,-1.6,0.7000000000000001,0.0,1.4000000000000001,-8.6,0.7000000000000001,14.600000000000001,-7.1000000000000005,-3.7000000000000006,16
913,15545.0,-1.5,1.0,-0.1,1.5,-8.3,0.6000000000000001,14.800000000000002,-13.8,-2.2,16
914,15562.0,-1.5,1.7000000000000002,-0.2,1.5,-7.6000000000000005,0.6000000000000001,12.100000000000001,-16.8,-2.3,16
915,15578.0,-1.7000000000000002,1.9000000000000001,0.1,1.4000000000000001,-7.4,0.8,8.100000000000001,-20.5,-1.8000000000000003,16
916,15596.0,-1.2000000000000002,2.2,-0.1,1.8,-7.1000000000000005,0.7000000000000001,2.7,-24.0,-3.7000000000000006,16
917,15617.0,-1.0,1.4000000000000001,-0.1,2.0,-7.9,0.7000000000000001,0.5,-14.100000000000001,-0.5,16
918,15628.0,0.0,0.7000000000000001,0.0,3.1,-8.6,0.7000000000000001,-5.300000000000001,-5.0,8.5,16
919,15644.0,0.8,0.8,0.1,3.8000000000000003,-8.5,0.8,-9.899999999999999,4.1,17.1,16
920,15662.0,0.4,0.8,0.8,3.3000000000000003,-8.5,1.4000000000000001,-8.899999999999999,12.100000000000001,19.0,16
921,15678.0,0.7000000000000001,1.0,1.1,3.7,-8.4,1.7000000000000002,-6.9,16.8,21.0,16
922,15695.0,0.9,0.5,1.5,3.8000000000000003,-8.9,2.2,-8.8,17.300000000000004,18.3,16
923,15724.0,1.4000000000000001,0.4,1.8,4.2,-9.0,2.5,-8.700000000000001,10.4,7.6,16
924,15730.0,1.4000000000000001,0.4,1.8,4.2,-9.0,2.5,-8.700000000000001,10.4,7.6,16
925,15745.0,1.5,0.1,2.5,4.3,-9.3,3.1,-5.500000000000001,-2.8,-4.9,16
926,15763.0,2.2,-0.30000000000000004,2.5,5.1000000000000005,-9.600000000000001,3.2,8.2,-15.6,-20.599999999999998,16
927,15778.0,1.7000000000000002,0.1,3.1,4.6000000000000005,-9.200000000000001,3.8000000000000003,13.900000000000002,-19.6,-30.799999999999997,16
928,15795.0,0.8,0.5,3.1,3.8000000000000003,-8.8,3.8000000000000003,18.8,-16.700000000000003,-32.300000000000004,16
929,15825.0,0.30000000000000004,0.4,2.7,3.5,-8.8,3.5,17.0,-10.200000000000001,-23.0,16
930,15832.0,0.9,-0.7000000000000001,2.8000000000000003,4.1000000000000005,-10.0,3.6,20.1,-12.8,-22.1,16
931,15845.0,2.5,-4.4,3.3000000000000003,5.800000000000001,-13.600000000000001,4.2,30.3,8.4,-21.8,16
932,15862.0,2.0,-3.7,-1.0,5.300000000000001,-12.8,0.0,39.2,-16.8,-36.1,16
933,15888.0,-3.8000000000000003,-1.7000000000000002,-2.2,-0.30000000000000004,-10.9,-1.1,17.400000000000002,-8.899999999999999,-25.0,16
934,15895.0,-4.2,-2.0,-1.5,-0.7000000000000001,-11.0,-0.4,20.599999999999998,4.2,-19.700000000000003,16
935,15912.0,-3.5,-0.5,0.0,0.0,-9.600000000000001,1.2000000000000002,21.200000000000003,15.2,-0.1,16
936,15939.0,-1.3,-0.7000000000000001,-4.4,2.3000000000000003,-9.700000000000001,-3.2,-19.6,-6.500000000000001,17.1,16
937,15945.0,-1.3,-0.7000000000000001,-4.4,2.7,-9.8,-1.7000000000000002,-19.6,-6.500000000000001,17.1,16
938,15962.0,-0.9,-0.8,-3.1,2.6,-9.9,-2.0,-21.900000000000002,4.1,18.5,16
939,15981.0,-0.9,0.0,-3.5,2.6,-9.200000000000001,-2.4000000000000004,-21.400000000000002,8.0,18.900000000000002,16
940,15995.0,-1.0,0.0,-2.9000000000000004,2.4000000000000004,-9.200000000000001,-1.9000000000000001,-24.5,13.100000000000001,16.700000000000003,16
941,16026.0,-0.6000000000000001,-0.5,-1.1,2.6,-9.700000000000001,-0.2,-29.400000000000002,25.6,19.6,16
942,16028.0,-0.6000000000000001,-0.5,-1.1,2.6,-9.700000000000001,-0.2,-29.400000000000002,25.6,19.6,16
943,16045.0,0.0,-0.9,-1.4000000000000001,3.2,-10.100000000000001,-0.6000000000000001,-35.3,29.700000000000006,22.2,16
944,16062.0,0.6000000000000001,-0.8,-1.6,3.7,-10.100000000000001,-0.9,-44.7,27.400000000000002,22.9,16
945,16078.0,0.5,-0.7000000000000001,-1.8,3.6,-10.0,-1.2000000000000002,-52.80000000000001,26.1,20.0,16
946,16095.0,-0.5,-0.1,-1.4000000000000001,2.5,-9.4,-1.0,-54.50000000000001,26.6,21.1,16
947,16111.0,-1.0,1.0,-0.9,1.9000000000000001,-8.3,-0.6000000000000001,-52.5,32.400000000000006,25.7,16
948,16128.0,-1.2000000000000002,1.1,0.0,1.6,-8.3,0.1,-44.7,40.300000000000004,38.400000000000006,16
949,16145.0,-0.30000000000000004,0.9,-0.30000000000000004,2.4000000000000004,-8.5,-0.2,-41.900000000000006,39.1,40.300000000000004,16
950,16162.0,0.1,0.7000000000000001,-0.1,2.7,-8.700000000000001,-0.2,-38.60000000000001,35.699999999999996,40.6,16
951,16183.0,1.0,0.7000000000000001,-0.8,3.5,-8.700000000000001,-0.9,-37.6,28.1,35.8,16
952,16195.0,0.1,0.6000000000000001,-0.4,2.5,-9.0,-0.6000000000000001,-41.0,17.7,25.1,16
953,16225.0,-0.2,0.4,0.2,2.1,-9.1,-0.1,-32.1,8.4,24.0,16
954,16228.0,-0.2,0.4,0.2,2.1,-9.1,-0.1,-32.1,8.4,24.0,16
955,16246.0,0.2,0.7000000000000001,-0.30000000000000004,2.4000000000000004,-8.8,-0.8,-30.9,6.0,22.700000000000003,16
956,16264.0,-0.2,0.2,0.0,2.0,-9.4,-0.6000000000000001,-36.2,0.7,22.1,16
957,16278.0,-0.1,0.0,-0.2,2.2,-9.600000000000001,-0.9,-30.000000000000004,-2.5,22.5,16
958,16297.0,0.30000000000000004,0.2,-0.1,2.4000000000000004,-9.3,-0.8,-20.3,-17.300000000000004,20.0,16
959,16311.0,0.4,0.4,0.5,2.4000000000000004,-9.1,-0.4,-15.399999999999999,-26.6,15.6,16
960,16328.0,0.1,0.2,1.1,2.0,-9.4,0.30000000000000004,-10.9,-28.1,13.900000000000002,16
961,16352.0,0.1,0.4,0.7000000000000001,1.9000000000000001,-9.1,-0.2,-5.8,-28.400000000000002,18.3,16
962,16362.0,0.30000000000000004,0.1,0.9,2.1,-9.5,0.0,-6.500000000000001,-32.400000000000006,18.0,16
963,16381.0,1.0,-0.6000000000000001,1.1,2.8000000000000003,-10.200000000000001,0.2,0.1,-40.1,18.200000000000003,16
964,16395.0,1.7000000000000002,-0.4,1.1,3.5,-10.100000000000001,0.2,0.2,-42.60000000000001,18.200000000000003,16
965,16416.0,3.3000000000000003,0.5,-0.1,5.0,-9.1,-1.1,1.7,-30.200000000000003,6.300000000000001,16
966,16434.0,2.0,0.0,0.8,3.6,-9.600000000000001,-0.2,0.2,-23.900000000000006,-3.0,16
967,16445.0,1.9000000000000001,-0.5,1.1,3.6,-10.3,-0.2,4.800000000000001,-22.4,-5.300000000000001,16
968,16461.0,2.8000000000000003,-1.9000000000000001,-0.6000000000000001,4.5,-11.5,-1.6,21.200000000000003,-2.9,-11.2,16
969,16478.0,1.0,-1.1,-0.1,2.7,-10.700000000000001,-0.9,17.200000000000003,-14.100000000000001,-39.300000000000004,16
970,16495.0,3.0,-2.2,-0.1,4.9,-11.8,-0.9,23.900000000000006,-14.800000000000002,-47.3,16
971,16512.0,2.1,-1.8,0.5,4.1000000000000005,-11.3,-0.2,40.6,-27.5,-68.5,16
972,16530.0,0.4,-0.30000000000000004,2.3000000000000003,2.5,-9.8,1.6,67.10000000000001,-32.1,-70.8,16
973,16547.0,0.2,-1.4000000000000001,2.3000000000000003,2.6,-10.9,1.8,110.4,-31.0,-77.1,16
974,16562.0,-2.3000000000000003,-0.30000000000000004,-0.4,0.2,-9.700000000000001,-0.6000000000000001,122.79999999999998,-37.400000000000006,-72.10000000000001,16
975,16578.0,-1.2000000000000002,-1.5,0.2,1.5,-10.9,0.2,73.5,-52.1,-71.6,16
976,16598.0,-2.9000000000000004,-0.4,-1.4000000000000001,0.1,-9.700000000000001,-1.2000000000000002,51.1,-28.200000000000003,-55.5,16
977,16613.0,-3.2,-0.1,-1.4000000000000001,-0.2,-9.4,-1.1,40.7,-21.1,-41.1,16
978,16629.0,-2.6,-0.8,-0.9,0.5,-10.100000000000001,-0.5,37.2,-13.200000000000003,-29.800000000000004,16
979,16646.0,-0.2,-1.3,-0.4,3.0,-10.600000000000001,0.1,41.900000000000006,-3.4,-15.700000000000001,16
980,16661.0,0.0,0.0,-0.7000000000000001,3.3000000000000003,-9.200000000000001,0.0,35.8,-17.0,-30.699999999999996,16
981,16679.0,-0.6000000000000001,-0.1,-1.0,2.7,-9.3,-0.30000000000000004,24.5,-22.8,-37.300000000000004,16
982,16697.0,-1.3,-0.6000000000000001,-0.7000000000000001,2.1,-9.700000000000001,0.1,12.7,-14.100000000000001,-34.900000000000006,16
983,16712.0,-1.8,-0.30000000000000004,0.1,1.7000000000000002,-9.4,0.8,1.5,0.30000000000000004,-38.2,16
984,16735.0,-1.7000000000000002,-0.8,0.30000000000000004,1.9000000000000001,-9.9,1.0,0.8,0.9000000000000001,-17.400000000000002,16
985,16746.0,-0.30000000000000004,-0.5,0.2,3.4000000000000004,-9.600000000000001,0.9,-0.8,2.0,-11.900000000000002,16
986,16762.0,-0.2,0.2,0.1,3.4000000000000004,-8.9,0.8,-2.8,-1.9,-20.400000000000002,16
987,16781.0,-0.7000000000000001,1.9000000000000001,-0.4,3.1,-7.1000000000000005,0.30000000000000004,-7.400000000000001,-15.700000000000001,-25.900000000000002,16
988,16795.0,-0.4,1.8,-0.7000000000000001,3.5,-7.2,-0.1,-9.3,-18.200000000000003,-31.099999999999998,16
989,16814.0,-1.4000000000000001,1.2000000000000002,-0.6000000000000001,2.5,-7.800000000000001,0.1,-8.0,-12.5,-39.400000000000006,16
990,16828.0,-2.3000000000000003,1.2000000000000002,-0.1,1.7000000000000002,-7.7,0.5,-5.4,3.2,-42.800000000000004,16
991,16845.0,-2.2,1.3,0.1,1.9000000000000001,-7.6000000000000005,0.7000000000000001,-4.9,20.400000000000002,-45.400000000000006,16
992,16865.0,-2.3000000000000003,0.5,0.30000000000000004,2.0,-8.3,0.9,-4.300000000000001,43.6,-40.1,16
993,16879.0,0.2,0.30000000000000004,0.5,4.5,-8.5,1.1,-9.600000000000001,51.6,-35.599999999999994,16
994,16897.0,3.7,1.0,0.2,8.1,-7.7,0.9,-18.5,62.4,-54.50000000000001,16
995,16913.0,4.3,1.0,-0.6000000000000001,8.9,-7.6000000000000005,0.1,-24.200000000000003,83.2,-81.50000000000001,16
996,16929.0,4.3,-0.6000000000000001,-0.6000000000000001,9.0,-9.200000000000001,0.1,-37.400000000000006,116.30000000000001,-97.7,16
997,16946.0,-1.5,-0.2,2.3000000000000003,3.6,-8.6,3.1,-43.4,114.2,-112.9,16
998,16961.0,-3.3000000000000003,0.1,2.8000000000000003,1.8,-8.200000000000001,3.7,-35.9,84.1,-102.3,16
999,16981.0,-2.6,0.9,1.6,2.8000000000000003,-7.2,2.5,-19.0,32.0,-69.00000000000001,16
1000,16995.0,0.2,1.7000000000000002,0.8,5.800000000000001,-6.300000000000001,1.7000000000000002,-12.4,49.4,-63.4,16
1001,17029.0,2.5,1.3,1.3,8.3,-6.5,2.3000000000000003,-10.4,62.50000000000001,-79.1,16
1002,17049.0,1.2000000000000002,1.4000000000000001,3.1,7.300000000000001,-6.2,4.2,-5.8,-5.0,-86.2,16
1003,17062.0,0.8,0.7000000000000001,2.9000000000000004,7.0,-6.800000000000001,4.0,-10.0,-22.5,-84.80000000000001,16
1004,17079.0,-0.1,1.3,2.9000000000000004,6.300000000000001,-6.1000000000000005,3.9000000000000004,-12.200000000000001,-7.6,-87.10000000000001,16
1005,17095.0,-1.8,1.9000000000000001,2.7,4.800000000000001,-5.300000000000001,3.8000000000000003,-7.400000000000001,11.5,-79.9,16
1006,17111.0,-2.4000000000000004,1.7000000000000002,2.3000000000000003,4.4,-5.300000000000001,3.4000000000000004,1.1,-1.0,-59.40000000000001,16
1007,17128.0,2.2,-0.6000000000000001,-1.9000000000000001,9.1,-7.5,-0.8,6.9,-2.6,-43.50000000000001,16
1008,17149.0,3.7,-1.9000000000000001,-2.8000000000000003,10.600000000000001,-8.700000000000001,-1.8,-6.9,13.700000000000001,-64.0,16
1009,17161.0,2.6,-3.9000000000000004,-1.2000000000000002,9.700000000000001,-10.600000000000001,-0.2,-12.299999999999999,8.2,-72.10000000000001,16
1010,17178.0,-0.7000000000000001,-4.9,-2.6,6.5,-11.4,-1.6,-29.600000000000005,-41.800000000000004,-67.4,16
1011,17196.0,-2.1,-4.3,0.5,5.300000000000001,-10.700000000000001,1.3,-38.800000000000004,-44.5,-46.6,16
1012,17212.0,-3.6,-3.5,1.1,3.9000000000000004,-9.8,1.8,-26.700000000000003,-12.200000000000001,-36.5,16
1013,17247.0,-4.2,-1.0,-1.0,3.3000000000000003,-7.300000000000001,-0.4,-19.0,-3.2,26.6,16
1014,17262.0,-3.5,-0.6000000000000001,-0.7000000000000001,3.9000000000000004,-6.9,-0.1,-9.5,9.0,40.0,16
1015,17278.0,-2.5,-0.4,-2.4000000000000004,4.9,-6.9,-1.8,-8.2,-3.4,44.5,16
1016,17297.0,-1.1,1.4000000000000001,-3.1,6.1000000000000005,-5.2,-2.6,-13.700000000000001,5.300000000000001,45.7,16
1017,17325.0,0.30000000000000004,0.5,-2.0,7.4,-6.2,-1.6,-21.200000000000003,1.0,49.300000000000004,16
1018,17335.0,1.2000000000000002,-0.4,-0.7000000000000001,8.200000000000001,-7.2,-0.2,-21.200000000000003,1.0,49.300000000000004,16
1019,17345.0,2.4000000000000004,-0.5,0.0,9.4,-7.4,0.4,-16.5,-37.400000000000006,33.1,16
1020,17361.0,1.9000000000000001,-0.2,0.6000000000000001,8.8,-7.2,0.8,-17.300000000000004,-59.9,19.700000000000003,16
1021,17380.0,0.5,0.30000000000000004,0.8,7.4,-6.6000000000000005,0.9,-10.0,-91.7,12.8,16
1022,17395.0,-1.0,0.6000000000000001,0.7000000000000001,5.9,-6.4,0.6000000000000001,2.7,-72.10000000000001,13.3,16
1023,17411.0,0.7000000000000001,0.9,-0.8,7.6000000000000005,-6.1000000000000005,-0.9,17.200000000000003,-40.4,15.6,16
1024,17429.0,0.9,0.1,-0.6000000000000001,8.0,-6.6000000000000005,-0.8,17.300000000000004,-10.5,14.5,16
1025,17445.0,2.3000000000000003,0.7000000000000001,-0.8,10.200000000000001,-6.300000000000001,-1.2000000000000002,11.5,-7.9,11.900000000000002,16
1026,17469.0,2.7,0.30000000000000004,0.5,6.7,-7.0,0.9,-4.800000000000001,-33.6,-14.5,16
1027,17478.0,-2.6,-0.1,1.3,4.2,-7.1000000000000005,1.0,4.9,-43.2,-15.399999999999999,16
1028,17495.0,-5.300000000000001,0.2,0.8,1.6,-6.800000000000001,0.4,1.5,-66.1,1.8000000000000003,16
1029,17511.0,-5.4,0.6000000000000001,1.1,1.4000000000000001,-6.4,0.6000000000000001,11.1,-60.8,25.900000000000002,16
1030,17528.0,-2.7,0.1,-0.6000000000000001,4.0,-7.0,-1.2000000000000002,22.5,-36.5,45.0,16
1031,17548.0,-2.4000000000000004,-0.8,-0.5,4.3,-8.0,-1.0,17.0,-28.500000000000004,74.7,16
1032,17561.0,0.4,0.9,-2.6,6.9,-6.5,-3.2,-0.6000000000000001,-23.800000000000004,102.89999999999999,16
1033,17578.0,0.7000000000000001,1.3,-1.7000000000000002,6.9,-6.300000000000001,-2.3000000000000003,-23.900000000000006,1.0,113.2,16
1034,17595.0,1.8,-0.1,1.0,7.800000000000001,-7.800000000000001,0.30000000000000004,-27.0,17.1,100.1,16
1035,17612.0,-0.30000000000000004,0.6000000000000001,2.6,5.5,-7.2,1.8,-11.6,14.700000000000001,96.4,16
1036,17639.0,2.2,-0.4,-1.8,7.5,-8.6,-2.4000000000000004,-15.000000000000002,-34.50000000000001,119.20000000000002,16
1037,17645.0,1.8,0.6000000000000001,-0.5,7.0,-7.7,-1.2000000000000002,-27.099999999999998,-47.5,104.9,16
1038,17661.0,2.0,1.4000000000000001,0.9,6.9,-7.0,0.1,-14.300000000000002,-42.2,83.10000000000001,16
1039,17678.0,3.5,1.1,0.0,8.200000000000001,-7.5,-0.9,-6.600000000000001,-9.2,64.7,16
1040,17695.0,3.8000000000000003,1.2000000000000002,1.1,8.4,-7.4,0.2,-12.600000000000001,4.0,32.9,16
1041,17712.0,3.5,0.5,0.9,8.1,-8.1,-0.1,-5.300000000000001,4.7,6.699999999999999,16
1042,17730.0,3.5,-1.2000000000000002,-0.1,8.0,-9.8,-1.1,7.699999999999999,-4.800000000000001,-20.3,16
1043,17745.0,1.4000000000000001,2.8000000000000003,-1.3,6.0,-5.800000000000001,-2.2,9.0,-27.0,-43.6,16
1044,17762.0,-0.4,2.8000000000000003,-2.2,4.3,-5.800000000000001,-3.1,24.599999999999998,24.5,-1.8000000000000003,16
1045,17779.0,4.2,-2.1,0.30000000000000004,8.9,-10.700000000000001,-0.6000000000000001,5.500000000000001,27.3,-6.4,16
1046,17798.0,4.7,-3.0,2.5,9.4,-11.600000000000001,1.7000000000000002,28.700000000000003,53.50000000000001,-39.50000000000001,16
1047,17812.0,0.6000000000000001,-2.7,2.9000000000000004,5.5,-11.200000000000001,2.3000000000000003,56.50000000000001,50.3,-60.00000000000001,16
1048,17828.0,-1.6,-1.9000000000000001,2.2,2.3000000000000003,-10.100000000000001,1.1,61.599999999999994,47.400000000000006,-56.300000000000004,16
1049,17850.0,-4.3,-1.6,0.8,1.2000000000000002,-9.9,0.0,56.800000000000004,45.7,-22.5,16
1050,17861.0,-4.1000000000000005,-1.3,-0.5,1.0,-9.700000000000001,-0.6000000000000001,48.400000000000006,47.900000000000006,1.7,16
1051,17882.0,-3.1,-0.5,-1.5,3.3000000000000003,-9.1,-1.6,32.1,48.0,23.2,16
1052,17895.0,-1.1,-0.7000000000000001,-1.6,3.9000000000000004,-9.1,-1.3,17.300000000000004,57.60000000000001,34.300000000000004,16
1053,17911.0,3.1,-1.1,-0.6000000000000001,8.0,-9.5,-0.2,12.299999999999999,70.6,27.800000000000004,16
1054,17935.0,3.3000000000000003,-1.1,-1.1,8.200000000000001,-9.600000000000001,-0.5,13.6,42.5,-19.200000000000003,16
1055,17944.0,2.4000000000000004,-1.3,-1.5,7.300000000000001,-9.8,-0.9,12.200000000000001,29.0,-31.099999999999998,16
1056,17962.0,-1.9000000000000001,-1.6,-0.5,3.1,-10.0,0.2,10.700000000000001,27.700000000000003,-31.5,16
1057,17978.0,-3.2,-0.7000000000000001,0.0,1.8,-9.1,0.7000000000000001,7.500000000000001,28.700000000000003,-10.9,16
1058,17995.0,-3.3000000000000003,0.8,-0.30000000000000004,1.8,-7.6000000000000005,0.6000000000000001,-3.7000000000000006,27.2,-3.4,16
1059,18011.0,-3.3000000000000003,1.0,0.4,1.7000000000000002,-7.300000000000001,1.2000000000000002,-13.399999999999999,18.3,-2.3,16
1060,18029.0,-3.0,1.1,0.0,2.1,-7.2,0.9,-8.4,18.4,0.8,16
1061,18061.0,-2.5,1.3,0.30000000000000004,2.5,-7.1000000000000005,1.2000000000000002,-5.7,29.200000000000003,10.9,16
1062,18078.0,-1.5,0.8,0.4,3.5,-7.6000000000000005,1.3,5.0,21.0,11.900000000000002,16
1063,18101.0,-0.7000000000000001,0.5,-0.4,4.3,-7.9,0.6000000000000001,2.7,13.200000000000003,17.6,16
1064,18116.0,-0.30000000000000004,0.5,-0.2,4.6000000000000005,-7.9,0.8,-4.800000000000001,13.3,16.700000000000003,16
1065,18128.0,-0.30000000000000004,0.8,-0.1,4.6000000000000005,-7.7,0.8,-8.100000000000001,15.399999999999999,13.8,16
1066,18147.0,0.0,1.1,0.4,4.9,-7.4,1.4000000000000001,-14.400000000000002,20.1,8.600000000000001,16
1067,18161.0,0.5,1.1,0.5,5.300000000000001,-7.300000000000001,1.5,-18.3,15.000000000000002,0.9000000000000001,16
1068,18183.0,0.9,1.0,1.6,5.7,-7.5,2.6,-22.4,20.900000000000002,-10.4,16
1069,18195.0,-0.2,-0.2,2.9000000000000004,4.6000000000000005,-8.6,3.8000000000000003,-11.6,11.6,-20.400000000000002,16
1070,18211.0,0.6000000000000001,0.0,3.0,5.5,-8.4,3.9000000000000004,6.699999999999999,-19.400000000000002,-15.899999999999999,16
1071,18231.0,0.7000000000000001,0.2,1.7000000000000002,5.6000000000000005,-8.200000000000001,2.7,11.2,-31.099999999999998,-18.3,16
1072,18245.0,0.8,0.5,1.1,5.800000000000001,-7.9,2.0,5.7,-19.400000000000002,-11.4,16
1073,18263.0,1.5,0.30000000000000004,2.6,6.5,-8.1,3.6,9.899999999999999,-11.5,-14.400000000000002,16
1074,18283.0,1.4000000000000001,-0.4,5.2,6.5,-8.700000000000001,6.2,32.6,-22.1,-32.0,16
1075,18295.0,0.6000000000000001,0.9,4.2,5.800000000000001,-7.4,5.2,46.7,-25.1,-36.2,16
1076,18312.0,-0.30000000000000004,0.9,2.3000000000000003,4.9,-8.0,2.5,42.400000000000006,-27.800000000000004,-37.1,16
1077,18328.0,2.3000000000000003,-2.9000000000000004,2.3000000000000003,7.6000000000000005,-11.100000000000001,3.4000000000000004,31.3,-16.0,-32.300000000000004,16
1078,18345.0,2.0,-3.3000000000000003,0.8,7.5,-11.4,2.0,45.099999999999994,2.5,-34.60000000000001,16
1079,18368.0,-2.2,0.7000000000000001,-1.8,3.3000000000000003,-7.300000000000001,-0.4,16.4,3.9,-16.200000000000003,16
1080,18378.0,-2.4000000000000004,0.4,-2.7,3.1,-7.6000000000000005,-1.4000000000000001,5.6,-9.0,-12.7,16
1081,18397.0,-3.1,-1.9000000000000001,-3.0,2.5,-9.9,-1.6,-8.2,12.600000000000001,3.0,16
1082,18411.0,-1.3,-1.4000000000000001,-2.7,4.3,-9.3,-1.3,-10.5,19.400000000000002,17.6,16
1083,18428.0,0.4,-1.4000000000000001,-5.300000000000001,5.9,-9.4,-4.0,-32.8,-12.8,13.5,16
1084,18448.0,-0.4,-0.30000000000000004,-3.6,5.1000000000000005,-8.4,-2.5,-48.50000000000001,12.100000000000001,9.600000000000001,16
1085,18462.0,-1.4000000000000001,1.0,-3.2,4.1000000000000005,-7.1000000000000005,-2.1,-53.300000000000004,24.0,16.900000000000002,16
1086,18480.0,-1.8,1.2000000000000002,-2.6,3.5,-7.0,-1.6,-50.400000000000006,49.0,25.6,16
1087,18495.0,-1.8,0.2,-1.4000000000000001,3.5,-8.0,-0.5,-38.400000000000006,59.40000000000001,39.8,16
1088,18515.0,-1.6,-0.7000000000000001,-0.4,3.6,-9.0,0.5,-21.300000000000004,52.5,55.7,16
1089,18533.0,-1.5,-1.8,-0.8,5.5,-9.600000000000001,0.1,-11.4,33.6,68.5,16
1090,18545.0,0.5,-1.2000000000000002,-0.8,5.5,-9.600000000000001,0.1,-16.900000000000002,24.8,75.1,16
1091,18561.0,3.7,-1.5,-2.4000000000000004,6.7,-10.100000000000001,-2.1,-32.9,6.699999999999999,62.300000000000004,16
1092,18581.0,-1.6,0.2,-1.2000000000000002,3.0,-8.5,-0.5,-71.19999999999999,30.000000000000004,45.0,16
1093,18595.0,-2.7,0.7000000000000001,-0.5,1.7000000000000002,-8.1,0.2,-71.0,32.400000000000006,48.10000000000001,16
1094,18614.0,-3.9000000000000004,1.4000000000000001,-0.30000000000000004,0.4,-7.5,0.2,-43.1,29.1,55.2,16
1095,18628.0,-3.0,1.5,0.0,1.1,-7.4,0.4,-41.7,26.799999999999997,63.2,16
1096,18652.0,-0.4,0.4,0.2,3.4000000000000004,-8.6,0.6000000000000001,-34.50000000000001,38.7,69.7,16
1097,18661.0,1.1,-1.0,0.4,4.9,-10.0,0.8,-34.1,34.800000000000004,65.89999999999999,16
1098,18678.0,2.6,-0.5,0.30000000000000004,6.2,-9.600000000000001,0.6000000000000001,-28.1,21.200000000000003,59.20000000000001,16
1099,18695.0,3.2,-0.2,0.0,6.7,-9.3,0.2,-25.900000000000002,-3.3000000000000007,37.50000000000001,16
1100,18713.0,0.8,0.5,-0.2,4.2,-8.700000000000001,0.0,-16.6,-35.9,15.700000000000001,16
1101,18728.0,-0.9,0.8,-0.9,2.5,-8.4,-0.8,-17.400000000000002,-57.20000000000001,14.800000000000002,16
1102,18745.0,-0.4,1.4000000000000001,-0.2,2.9000000000000004,-7.800000000000001,-0.2,-23.2,-35.5,21.6,16
1103,18761.0,-0.5,0.8,0.2,2.7,-8.4,0.1,-24.400000000000002,-16.8,23.400000000000002,16
1104,18779.0,0.6000000000000001,0.7000000000000001,0.7000000000000001,3.8000000000000003,-8.5,0.6000000000000001,-19.300000000000004,-13.3,30.5,16
1105,18795.0,1.4000000000000001,0.8,0.30000000000000004,4.6000000000000005,-8.5,0.1,-17.5,-7.9,19.5,16
1106,18812.0,1.6,0.0,1.2000000000000002,4.6000000000000005,-9.3,0.9,-8.5,-20.0,5.300000000000001,16
1107,18828.0,1.1,0.1,2.1,4.2,-9.200000000000001,1.8,2.5,-39.2,-5.8,16
1108,18845.0,0.8,0.0,1.9000000000000001,4.0,-9.3,1.5,23.700000000000003,-50.60000000000001,-6.1000000000000005,16
1109,18861.0,2.2,0.8,0.30000000000000004,5.300000000000001,-8.4,0.0,22.4,-37.400000000000006,9.5,16
1110,18880.0,3.5,0.2,0.30000000000000004,6.6000000000000005,-9.1,0.0,14.900000000000002,-24.900000000000002,5.2,16
1111,18899.0,1.4000000000000001,0.5,-0.6000000000000001,4.5,-8.8,-0.9,6.600000000000001,-14.100000000000001,2.1,16
1112,18912.0,1.5,0.5,-0.5,4.6000000000000005,-8.8,-0.7000000000000001,-3.7000000000000006,-7.8,5.1000000000000005,16
1113,18947.0,1.2000000000000002,-1.0,-1.2000000000000002,4.3,-10.3,-1.5,7.9,-3.9,-16.5,16
1114,18963.0,1.3,-1.3,0.8,4.4,-10.600000000000001,0.6000000000000001,3.3000000000000007,-7.200000000000001,-21.1,16
1115,18978.0,2.7,-1.6,1.9000000000000001,5.9,-10.9,1.7000000000000002,23.5,10.8,-24.200000000000003,16
1116,18997.0,3.1,-2.0,1.0,6.4,-11.3,0.8,43.1,18.8,-30.1,16
1117,19011.0,2.3000000000000003,-1.8,1.5,5.7,-11.100000000000001,1.5,58.60000000000001,18.1,-41.199999999999996,16
1118,19034.0,-1.1,-1.2000000000000002,0.7000000000000001,2.5,-10.4,1.0,92.7,8.700000000000001,-53.9,16
1119,19045.0,-1.3,-1.1,-0.4,2.3000000000000003,-10.200000000000001,0.0,94.5,8.600000000000001,-49.300000000000004,16
1120,19061.0,-3.2,-1.3,-1.1,0.6000000000000001,-10.3,-0.4,79.00000000000001,3.8,-51.1,16
1121,19079.0,-4.1000000000000005,-1.5,-0.7000000000000001,-0.2,-10.5,0.1,60.900000000000006,-9.4,-42.60000000000001,16
1122,19095.0,-3.8000000000000003,-1.5,0.0,0.1,-10.4,0.9,49.199999999999996,-20.8,-32.400000000000006,16
1123,19113.0,-0.1,-2.2,-0.2,3.9000000000000004,-11.0,0.9,40.2,-21.500000000000004,-18.3,16
1124,19132.0,0.7000000000000001,-2.0,0.8,4.800000000000001,-10.8,1.9000000000000001,55.400000000000006,-4.7,-31.5,16
1125,19145.0,-1.3,0.7000000000000001,-2.1,2.9000000000000004,-8.1,-0.8,40.800000000000004,-37.400000000000006,-41.199999999999996,16
1126,19161.0,0.0,-0.2,-3.0,4.3,-8.9,-1.7000000000000002,28.3,-13.100000000000001,-27.5,16
1127,19178.0,-0.7000000000000001,-0.1,-1.5,3.6,-8.8,-0.1,14.0,-6.500000000000001,-28.200000000000003,16
1128,19195.0,-1.4000000000000001,0.2,-1.2000000000000002,3.0,-8.4,0.1,8.2,-8.899999999999999,-22.1,16
1129,19211.0,-2.6,0.5,-0.2,1.9000000000000001,-8.1,1.2000000000000002,3.6000000000000005,-4.800000000000001,-15.100000000000001,16
1130,19229.0,-2.3000000000000003,0.1,0.1,2.2,-8.5,1.5,0.0,-9.3,-14.700000000000001,16
1131,19247.0,-2.8000000000000003,1.6,0.2,1.7000000000000002,-7.0,1.5,1.6,1.1,-5.8,16
1132,19265.0,-2.0,0.9,-0.2,2.6,-7.7,1.2000000000000002,7.9,22.3,11.4,16
1133,19279.0,-1.3,0.7000000000000001,0.1,3.2,-7.9,1.6,4.1,24.0,12.8,16
1134,19296.0,-2.6,2.3000000000000003,0.6000000000000001,1.9000000000000001,-6.300000000000001,2.1,1.6,2.2,5.6,16
1135,19311.0,-1.6,0.7000000000000001,0.2,2.8000000000000003,-7.9,1.7000000000000002,6.0,7.200000000000001,10.0,16
1136,19330.0,-1.2000000000000002,1.0,0.4,3.2,-7.6000000000000005,1.9000000000000001,3.1,3.8,9.600000000000001,16
1137,19346.0,-1.4000000000000001,1.8,-0.30000000000000004,3.0,-6.9,1.2000000000000002,0.5,9.3,14.200000000000001,16
1138,19361.0,-0.6000000000000001,1.0,-0.1,3.7,-7.6000000000000005,1.4000000000000001,-6.4,16.8,17.5,16
1139,19378.0,0.2,0.8,0.30000000000000004,4.5,-7.9,1.8,-13.3,15.399999999999999,16.8,16
1140,19395.0,1.2000000000000002,-1.0,1.3,5.4,-9.700000000000001,2.8000000000000003,-23.099999999999998,-2.7,-3.1,16
1141,19412.0,1.0,0.7000000000000001,1.9000000000000001,5.2,-8.0,3.3000000000000003,-17.799999999999997,-15.299999999999999,-3.4,16
1142,19428.0,2.6,-1.2000000000000002,2.7,6.9,-9.9,4.1000000000000005,-8.4,-27.800000000000004,-27.099999999999998,16
1143,19448.0,-1.4000000000000001,3.6,1.5,3.0,-5.1000000000000005,2.9000000000000004,2.6,-36.1,-24.7,16
1144,19461.0,0.30000000000000004,2.1,0.4,4.800000000000001,-6.6000000000000005,1.7000000000000002,4.800000000000001,-1.0,-0.4,16
1145,19478.0,2.1,1.5,1.7000000000000002,6.5,-7.2,3.0,4.0,27.3,5.8,16
1146,19495.0,4.2,-0.5,3.6,8.700000000000001,-9.200000000000001,5.0,7.200000000000001,20.2,-10.5,16
1147,19511.0,2.9000000000000004,-0.1,3.6,7.4,-8.700000000000001,5.0,19.5,14.200000000000001,-27.2,16
1148,19528.0,0.5,0.4,3.1,5.0,-8.1,4.5,22.000000000000004,14.400000000000002,-32.2,16
1149,19545.0,-0.6000000000000001,0.2,2.9000000000000004,4.1000000000000005,-8.3,4.5,20.599999999999998,9.3,-28.900000000000002,16
