,ms,accelX,accelY,accelZ,accelWithGX,accelWithGY,accelWithGZ,rotRateAlpha,rotRateBeta,rotRateGamma,interval
0,85.0,0.30000000000000004,2.4000000000000004,-1.3,-2.1,4.9,7.9,0.6000000000000001,-0.8,-6.8,16
1,103.0,0.1,2.3000000000000003,-1.4000000000000001,-2.2,4.9,7.800000000000001,0.5,-12.600000000000001,-3.8,16
2,119.0,0.0,2.1,-1.7000000000000002,-2.3000000000000003,4.7,7.5,2.9,-26.700000000000003,2.5,16
3,135.0,-0.1,2.1,-1.7000000000000002,-2.1,4.6000000000000005,7.5,3.4,-29.1,4.2,16
4,152.0,0.0,1.9000000000000001,-1.8,-2.2,4.5,7.4,-0.7,-19.400000000000002,-0.2,16
5,168.0,0.0,2.0,-1.6,-2.1,4.6000000000000005,7.7,-8.5,-7.300000000000001,-4.4,16
6,185.0,0.0,2.0,-1.6,-2.0,4.6000000000000005,7.800000000000001,-13.700000000000001,-7.400000000000001,-2.4000000000000004,16
7,202.0,0.1,2.3000000000000003,-1.1,-1.9000000000000001,4.9,8.3,-23.2,-13.900000000000002,3.9,16
8,218.0,0.4,2.4000000000000004,-0.7000000000000001,-1.5,4.800000000000001,8.8,-25.4,-15.2,4.9,16
9,235.0,0.6000000000000001,2.4000000000000004,-0.4,-1.4000000000000001,4.800000000000001,8.9,-23.700000000000003,-12.0,3.8,16
10,252.0,0.5,2.5,-0.30000000000000004,-1.4000000000000001,4.9,9.0,-19.400000000000002,3.0,-3.4,16
11,268.0,0.5,2.5,-0.2,-1.5,4.9,9.1,-16.200000000000003,8.700000000000001,-6.699999999999999,16
12,285.0,0.4,2.5,-0.2,-1.6,4.9,9.1,-14.100000000000001,5.9,-6.500000000000001,16
13,302.0,0.4,2.6,-0.2,-1.6,4.9,9.0,-7.699999999999999,-5.4,-4.4,16
14,318.0,0.2,2.5,-0.2,-1.7000000000000002,4.800000000000001,9.1,-2.0,-10.600000000000001,-2.8,16
15,335.0,0.2,2.4000000000000004,-0.30000000000000004,-1.8,4.7,9.0,-0.2,-7.200000000000001,-2.5,16
16,352.0,0.30000000000000004,2.4000000000000004,-0.4,-1.6,4.7,8.9,2.4000000000000004,4.6,-4.9,16
17,368.0,0.30000000000000004,2.4000000000000004,-0.4,-1.7000000000000002,4.7,8.9,3.1,7.300000000000001,-6.8,16
18,385.0,0.0,2.4000000000000004,-0.6000000000000001,-2.0,4.7,8.6,5.500000000000001,6.4,-6.9,16
19,402.0,-0.1,2.3000000000000003,-1.0,-2.1,4.7,8.1,8.4,0.7,-3.6000000000000005,16
20,418.0,-0.1,2.2,-1.5,-2.0,4.6000000000000005,7.7,8.2,-3.4,-0.8,16
21,435.0,0.1,2.2,-1.6,-1.9000000000000001,4.7,7.7,5.9,-4.1,0.4,16
22,452.0,0.1,2.2,-1.5,-1.9000000000000001,4.7,7.800000000000001,-3.2,-1.1,-1.2000000000000002,16
23,468.0,0.1,2.3000000000000003,-1.1,-1.9000000000000001,4.800000000000001,8.200000000000001,-8.8,2.9,-2.5,16
24,485.0,0.1,2.3000000000000003,-1.1,-1.9000000000000001,4.800000000000001,8.3,-10.1,2.0,-2.2,16
25,502.0,0.2,2.3000000000000003,-0.9,-1.7000000000000002,4.800000000000001,8.4,-8.2,-2.6,-0.4,16
26,518.0,0.4,2.3000000000000003,-1.0,-1.6,4.800000000000001,8.200000000000001,-3.4,-6.8,0.1,16
27,535.0,0.5,2.3000000000000003,-1.3,-1.5,4.7,8.0,-2.8,-9.2,0.5,16
28,552.0,0.6000000000000001,2.1,-1.3,-1.4000000000000001,4.6000000000000005,8.0,-4.9,-12.4,0.6000000000000001,16
29,568.0,0.30000000000000004,2.1,-1.1,-1.6,4.5,8.200000000000001,-8.2,-7.8,-2.2,16
30,585.0,0.30000000000000004,2.1,-1.1,-1.6,4.6000000000000005,8.200000000000001,-9.100000000000001,-3.8,-2.3,16
31,602.0,0.4,2.2,-1.0,-1.5,4.7,8.3,-9.2,-3.1,-1.6,16
32,618.0,0.4,2.1,-1.1,-1.4000000000000001,4.5,8.0,-7.200000000000001,-7.699999999999999,-0.30000000000000004,16
33,635.0,0.5,2.1,-1.5,-1.3,4.5,7.800000000000001,-6.300000000000001,-8.4,-0.30000000000000004,16
34,652.0,0.6000000000000001,2.0,-1.9000000000000001,-1.2000000000000002,4.5,7.5,-8.700000000000001,-11.700000000000001,-1.4,16
35,668.0,0.6000000000000001,1.9000000000000001,-2.2,-1.2000000000000002,4.3,7.2,-12.8,-21.0,-2.2,16
36,685.0,0.6000000000000001,1.9000000000000001,-2.2,-1.3,4.2,7.0,-14.200000000000001,-27.400000000000002,-2.2,16
37,701.0,0.1,1.6,-2.6,-1.7000000000000002,3.7,6.5,-14.600000000000001,-39.599999999999994,1.3,16
38,718.0,-0.2,1.2000000000000002,-3.6,-1.7000000000000002,3.4000000000000004,5.800000000000001,-12.0,-45.0,6.300000000000001,16
39,735.0,-0.2,1.0,-3.9000000000000004,-1.6,3.3000000000000003,5.5,-11.4,-45.8,8.700000000000001,16
40,751.0,-0.1,0.7000000000000001,-4.5,-1.4000000000000001,2.9000000000000004,5.0,-11.3,-48.50000000000001,11.6,16
41,768.0,-0.1,0.0,-5.0,-1.2000000000000002,2.2,4.5,-10.200000000000001,-53.7,14.5,16
42,785.0,-0.2,0.0,-5.0,-1.1,2.2,4.3,-13.8,-61.10000000000001,17.300000000000004,16
43,802.0,0.0,-0.1,-5.2,-0.8,2.0,4.4,-31.099999999999998,-87.7,28.3,16
44,818.0,1.0,0.2,-4.2,0.5,2.2,5.4,-65.10000000000001,-100.2,42.2,16
45,836.0,1.6,0.4,-3.1,1.3,2.3000000000000003,6.5,-105.4,-90.1,33.7,16
46,852.0,1.5,0.7000000000000001,-1.6,1.5,2.3000000000000003,8.0,-119.1,-68.80000000000001,25.900000000000002,16
47,868.0,1.7000000000000002,1.4000000000000001,-0.4,2.0,2.5,9.3,-132.8,-40.5,13.8,16
48,885.0,1.6,1.6,-0.4,2.1,2.6,9.8,-138.10000000000002,-43.800000000000004,10.600000000000001,16
49,902.0,1.6,2.1,1.3,2.2,2.5,11.0,-137.5,-88.3,17.300000000000004,16
50,918.0,1.4000000000000001,2.7,2.5,2.6,2.7,13.100000000000001,-133.4,-100.4,25.900000000000002,16
51,938.0,1.7000000000000002,3.2,4.0,3.1,2.6,13.9,-126.70000000000002,-44.4,15.2,16
52,952.0,1.7000000000000002,3.1,4.2,3.0,2.4000000000000004,13.9,-111.20000000000002,-15.6,5.0,16
53,968.0,1.7000000000000002,3.3000000000000003,4.3,2.7,2.4000000000000004,13.600000000000001,-89.10000000000001,1.0,-4.4,16
54,985.0,0.7000000000000001,3.5,3.1,1.5,2.1,12.100000000000001,-48.70000000000001,0.6000000000000001,-13.900000000000002,16
55,1001.0,-0.5,3.1,1.6,0.2,1.6,10.5,-26.5,-21.0,-7.8,16
56,1018.0,-2.3000000000000003,2.3000000000000003,-0.4,-0.9,1.0,9.3,-16.4,-52.300000000000004,10.9,16
57,1042.0,-2.7,2.0,-0.8,-1.0,0.4,8.700000000000001,-17.1,-66.4,33.0,16
58,1052.0,-2.3000000000000003,1.4000000000000001,-1.1,-0.6000000000000001,0.0,8.4,-21.0,-63.8,40.1,16
59,1081.0,-1.2000000000000002,1.2000000000000002,-1.3,1.3,-0.5,8.200000000000001,-32.2,-48.2,40.9,16
60,1085.0,-1.2000000000000002,1.2000000000000002,-1.3,1.3,-0.5,8.200000000000001,-32.2,-48.2,40.9,16
61,1102.0,-0.7000000000000001,1.0,-0.7000000000000001,1.3,-0.7000000000000001,8.8,-45.8,-54.300000000000004,34.60000000000001,16
62,1119.0,-1.8,0.6000000000000001,0.0,0.4,-1.3,9.3,-57.800000000000004,-56.400000000000006,44.300000000000004,16
63,1146.0,-1.5,0.8,0.30000000000000004,1.4000000000000001,-1.3,9.700000000000001,-62.1,-33.2,57.400000000000006,16
64,1153.0,-0.4,0.8,0.7000000000000001,2.0,-1.5,9.9,-62.900000000000006,-25.0,58.3,16
65,1169.0,0.2,0.8,0.6000000000000001,2.6,-1.7000000000000002,9.700000000000001,-60.00000000000001,-19.799999999999997,56.9,16
66,1186.0,0.2,0.9,0.6000000000000001,2.8000000000000003,-1.8,9.700000000000001,-57.20000000000001,-17.799999999999997,55.0,16
67,1203.0,0.6000000000000001,0.9,1.0,3.0,-1.9000000000000001,10.100000000000001,-57.20000000000001,-20.7,55.5,16
68,1219.0,0.4,1.1,1.5,2.8000000000000003,-1.9000000000000001,10.5,-59.60000000000001,-39.1,64.9,16
69,1238.0,0.4,1.1,1.7000000000000002,2.9000000000000004,-2.0,10.600000000000001,-55.8,-43.4,71.8,16
70,1259.0,1.2000000000000002,1.4000000000000001,1.8,4.0,-2.2,10.5,-43.50000000000001,-35.1,75.3,16
71,1272.0,1.6,1.2000000000000002,1.6,4.1000000000000005,-2.3000000000000003,10.3,-41.300000000000004,-34.0,72.10000000000001,16
72,1285.0,1.5,1.2000000000000002,1.3,4.0,-2.4000000000000004,10.0,-39.0,-34.900000000000006,68.7,16
73,1302.0,1.4000000000000001,1.4000000000000001,1.0,3.8000000000000003,-2.4000000000000004,9.4,-38.50000000000001,-41.900000000000006,66.4,16
74,1319.0,1.1,1.7000000000000002,0.7000000000000001,3.6,-2.4000000000000004,9.3,-43.4,-56.300000000000004,67.8,16
75,1341.0,0.9,1.7000000000000002,0.8,3.6,-2.5,9.200000000000001,-48.6,-66.2,69.20000000000002,16
76,1355.0,0.9,2.2,1.6,3.7,-2.1,10.0,-50.400000000000006,-63.4,65.6,16
77,1372.0,0.0,3.8000000000000003,3.7,2.8000000000000003,-0.7000000000000001,11.9,-57.3,-106.60000000000001,66.60000000000001,16
78,1386.0,-0.4,3.9000000000000004,4.2,2.6,-0.8,12.4,-48.9,-131.9,71.5,16
79,1402.0,-0.6000000000000001,4.2,3.8000000000000003,2.6,-0.6000000000000001,11.700000000000001,-8.4,-170.8,84.0,16
80,1419.0,-0.7000000000000001,4.0,3.0,3.2,-1.2000000000000002,9.700000000000001,18.6,-204.8,106.1,16
81,1436.0,0.5,3.6,1.6,4.2,-1.4000000000000001,9.200000000000001,29.900000000000006,-206.89999999999998,114.70000000000002,16
82,1464.0,1.8,4.0,2.0,6.2,-1.2000000000000002,8.9,26.000000000000004,-129.3,109.10000000000001,16
83,1469.0,1.8,4.0,2.0,6.4,-1.9000000000000001,8.4,26.000000000000004,-129.3,109.10000000000001,16
84,1485.0,2.2,2.9000000000000004,0.8,6.5,-2.3000000000000003,8.0,23.400000000000002,-48.300000000000004,78.10000000000001,16
85,1502.0,2.7,2.9000000000000004,0.1,6.9,-2.3000000000000003,7.300000000000001,19.400000000000002,9.600000000000001,52.1,16
86,1518.0,3.1,3.3000000000000003,-0.1,7.0,-1.6,7.0,-5.2,21.900000000000002,34.1,16
87,1535.0,2.8000000000000003,3.9000000000000004,-0.30000000000000004,6.800000000000001,-1.4000000000000001,7.0,-19.200000000000003,15.100000000000001,30.200000000000003,16
88,1561.0,2.5,4.0,0.30000000000000004,6.4,-1.5,7.5,-51.1,-12.200000000000001,38.2,16
89,1569.0,2.5,4.0,0.30000000000000004,6.4,-1.5,7.5,-51.1,-12.200000000000001,38.2,16
90,1586.0,2.1,4.2,0.7000000000000001,6.0,-1.4000000000000001,7.7,-56.50000000000001,-17.200000000000003,41.50000000000001,16
91,1602.0,2.0,4.0,0.8,5.9,-1.8,7.7,-48.50000000000001,-0.9000000000000001,40.0,16
92,1619.0,2.6,3.6,1.0,6.300000000000001,-2.3000000000000003,7.800000000000001,-35.9,8.899999999999999,36.9,16
93,1636.0,2.8000000000000003,3.5,1.1,6.5,-2.5,7.9,-33.6,7.699999999999999,36.400000000000006,16
94,1654.0,3.0,2.8000000000000003,1.3,6.6000000000000005,-3.3000000000000003,8.1,-35.1,0.4,38.900000000000006,16
95,1669.0,3.2,2.5,1.4000000000000001,6.800000000000001,-3.7,8.1,-37.50000000000001,-3.1,41.0,16
96,1685.0,3.8000000000000003,2.2,1.7000000000000002,7.300000000000001,-4.1000000000000005,8.3,-44.9,-4.5,45.3,16
97,1702.0,4.5,2.0,2.3000000000000003,8.0,-4.5,8.9,-57.1,1.8000000000000003,46.9,16
98,1720.0,5.2,1.6,3.1,8.5,-5.0,9.5,-67.60000000000001,9.2,52.7,16
99,1735.0,5.800000000000001,1.7000000000000002,3.5,9.0,-5.1000000000000005,9.8,-71.10000000000001,13.900000000000002,54.0,16
100,1757.0,6.9,1.9000000000000001,4.2,10.0,-5.0,10.3,-73.5,25.1,47.3,16
101,1768.0,7.300000000000001,2.1,4.4,10.600000000000001,-4.9,10.700000000000001,-69.7,31.2,31.7,16
102,1785.0,7.9,2.6,4.800000000000001,10.700000000000001,-4.6000000000000005,10.700000000000001,-63.10000000000001,33.800000000000004,16.200000000000003,16
103,1813.0,7.800000000000001,3.6,4.800000000000001,10.5,-3.8000000000000003,10.700000000000001,-39.599999999999994,36.0,-26.300000000000004,16
104,1822.0,6.7,3.9000000000000004,4.5,9.4,-3.6,10.3,-4.2,33.400000000000006,-76.2,16
105,1835.0,5.800000000000001,3.9000000000000004,4.2,8.6,-3.5,10.0,15.2,33.2,-96.80000000000001,16
106,1873.0,1.7000000000000002,2.1,1.6,5.0,-4.9,7.7,79.1,13.200000000000003,-126.89999999999999,16
107,1885.0,1.6,1.9000000000000001,1.5,4.7,-5.1000000000000005,7.2,85.9,9.700000000000001,-120.4,16
108,1904.0,0.6000000000000001,1.3,0.2,4.2,-5.2,6.2,86.3,5.500000000000001,-99.5,16
109,1919.0,0.5,1.1,-0.8,4.5,-4.9,5.6000000000000005,74.5,1.0,-76.60000000000001,16
110,1937.0,0.9,1.2000000000000002,-1.3,5.0,-4.9,5.300000000000001,60.300000000000004,-0.9000000000000001,-62.900000000000006,16
111,1960.0,1.3,0.7000000000000001,-1.9000000000000001,5.5,-5.0,4.9,53.50000000000001,-7.200000000000001,-53.8,16
112,1968.0,1.2000000000000002,0.5,-2.1,5.4,-5.1000000000000005,4.7,52.300000000000004,-9.3,-52.300000000000004,16
113,1993.0,1.1,0.1,-2.5,5.5,-5.300000000000001,4.4,46.9,-4.4,-53.8,16
114,2004.0,1.3,0.2,-2.6,5.800000000000001,-5.0,4.4,40.800000000000004,-0.30000000000000004,-54.4,16
115,2019.0,1.7000000000000002,0.6000000000000001,-2.4000000000000004,6.4,-4.3,4.800000000000001,18.3,0.1,-60.2,16
116,2038.0,1.4000000000000001,0.7000000000000001,-1.9000000000000001,6.1000000000000005,-4.2,5.2,-7.500000000000001,-0.7,-71.5,16
117,2053.0,0.7000000000000001,0.6000000000000001,-1.9000000000000001,5.4,-4.3,5.1000000000000005,-15.899999999999999,-0.5,-75.3,16
118,2069.0,-0.1,0.6000000000000001,-1.9000000000000001,4.800000000000001,-4.2,5.2,-22.000000000000004,8.600000000000001,-78.80000000000001,16
119,2085.0,-0.2,0.5,-1.8,4.5,-4.0,5.2,-24.200000000000003,15.299999999999999,-78.80000000000001,16
120,2102.0,-0.6000000000000001,0.9,-1.6,4.3,-3.8000000000000003,5.5,-32.0,25.8,-73.30000000000001,16
121,2121.0,-1.1,0.9,-1.4000000000000001,4.0,-3.8000000000000003,5.6000000000000005,-37.2,25.900000000000002,-63.70000000000001,16
122,2135.0,-1.3,0.8,-1.2000000000000002,3.8000000000000003,-3.9000000000000004,5.7,-36.400000000000006,26.1,-58.7,16
123,2159.0,-2.0,1.0,-1.1,3.1,-3.6,5.9,-29.0,45.5,-50.7,16
124,2169.0,-2.0,1.0,-1.1,3.1,-3.6,5.9,-29.0,45.5,-50.7,16
125,2186.0,-2.3000000000000003,1.0,-1.3,2.7,-3.6,5.6000000000000005,-23.700000000000003,58.400000000000006,-42.2,16
126,2202.0,-2.2,1.0,-1.5,2.8000000000000003,-3.6,5.6000000000000005,-27.0,51.300000000000004,-22.700000000000003,16
127,2219.0,-1.8,0.9,-1.1,3.1,-3.8000000000000003,6.1000000000000005,-34.2,35.4,-7.1000000000000005,16
128,2235.0,-1.7000000000000002,0.7000000000000001,-0.5,3.2,-4.0,6.6000000000000005,-38.60000000000001,24.1,2.9,16
129,2254.0,-1.3,0.8,0.30000000000000004,3.5,-4.0,7.4,-41.300000000000004,7.200000000000001,23.099999999999998,16
130,2269.0,-0.7000000000000001,0.5,0.9,4.1000000000000005,-4.4,8.0,-37.2,-6.2,38.300000000000004,16
131,2286.0,-0.4,0.5,1.1,4.3,-4.5,8.1,-33.2,-13.100000000000001,46.0,16
132,2302.0,0.1,-0.2,1.3,4.7,-5.4,8.200000000000001,-24.5,-26.1,59.5,16
133,2318.0,0.30000000000000004,-0.5,1.3,5.1000000000000005,-6.4,8.1,-15.2,-43.6,77.5,16
134,2338.0,0.9,-1.4000000000000001,1.1,5.5,-6.800000000000001,7.9,-12.600000000000001,-54.50000000000001,89.30000000000001,16
135,2353.0,3.3000000000000003,-1.4000000000000001,1.3,7.800000000000001,-6.9,8.0,-16.700000000000003,-80.50000000000001,110.9,16
136,2375.0,4.9,-0.4,1.5,9.4,-6.2,8.0,-30.4,-137.8,116.1,16
137,2385.0,4.7,0.2,1.5,9.200000000000001,-5.7,7.9,-31.799999999999997,-167.0,112.9,16
138,2402.0,4.2,1.1,1.7000000000000002,8.8,-4.7,7.6000000000000005,-22.700000000000003,-187.50000000000003,101.50000000000001,16
139,2419.0,3.6,2.1,1.4000000000000001,8.4,-4.2,7.300000000000001,-18.3,-171.70000000000002,91.4,16
140,2435.0,2.9000000000000004,2.6,0.5,7.800000000000001,-3.8000000000000003,6.0,-16.700000000000003,-105.10000000000001,65.4,16
141,2460.0,3.2,3.2,0.1,8.1,-3.3000000000000003,5.5,-35.3,-35.8,43.50000000000001,16
142,2469.0,3.2,3.3000000000000003,0.2,8.1,-3.3000000000000003,5.5,-48.400000000000006,-15.5,35.3,16
143,2485.0,3.0,3.0,1.0,7.9,-3.8000000000000003,6.1000000000000005,-54.6,9.5,21.6,16
144,2502.0,2.9000000000000004,2.9000000000000004,1.2000000000000002,7.6000000000000005,-4.2,6.300000000000001,-39.50000000000001,26.1,11.8,16
145,2519.0,2.7,2.6,1.2000000000000002,7.4,-4.5,6.1000000000000005,-22.700000000000003,24.7,11.3,16
146,2539.0,2.7,2.2,0.9,7.4,-5.0,5.7,-6.300000000000001,5.2,19.5,16
147,2552.0,2.5,2.5,0.30000000000000004,7.1000000000000005,-4.6000000000000005,5.300000000000001,1.4,-13.700000000000001,24.900000000000002,16
148,2568.0,2.4000000000000004,3.1,-0.1,7.0,-4.0,4.800000000000001,13.900000000000002,-58.60000000000001,35.699999999999996,16
149,2586.0,2.2,3.2,-0.2,6.800000000000001,-3.9000000000000004,4.7,17.0,-71.19999999999999,36.8,16
150,2602.0,1.6,3.4000000000000004,-0.4,6.0,-3.7,4.2,23.099999999999998,-74.5,35.9,16
151,2619.0,0.6000000000000001,3.2,-1.0,5.300000000000001,-3.9000000000000004,3.7,27.3,-69.00000000000001,33.800000000000004,16
152,2637.0,0.2,3.2,-1.2000000000000002,4.800000000000001,-4.1000000000000005,3.4000000000000004,29.800000000000004,-76.2,31.3,16
153,2653.0,-0.2,3.0,-1.6,4.6000000000000005,-4.2,3.1,28.600000000000005,-78.2,29.800000000000004,16
154,2669.0,-0.30000000000000004,3.0,-1.8,4.5,-4.2,2.8000000000000003,20.599999999999998,-75.3,30.699999999999996,16
155,2685.0,-0.2,2.9000000000000004,-1.7000000000000002,4.7,-4.3,2.9000000000000004,10.0,-66.4,30.799999999999997,16
156,2702.0,0.0,2.7,-1.0,4.9,-4.5,3.5,-18.5,-31.400000000000002,22.5,16
157,2718.0,0.2,2.6,0.0,5.1000000000000005,-4.7,4.4,-42.2,1.6,14.5,16
158,2736.0,0.5,2.9000000000000004,0.6000000000000001,5.300000000000001,-4.5,5.0,-49.6,12.8,11.8,16
159,2757.0,0.5,3.1,1.3,5.300000000000001,-4.4,5.5,-53.400000000000006,15.899999999999999,4.300000000000001,16
160,2774.0,0.5,3.2,1.5,5.300000000000001,-4.3,5.6000000000000005,-50.5,12.7,2.8,16
161,2785.0,0.5,3.4000000000000004,1.6,5.2,-4.2,5.7,-49.300000000000004,12.100000000000001,1.1,16
162,2804.0,0.5,3.5,1.9000000000000001,5.2,-4.2,5.9,-48.400000000000006,18.0,-3.7000000000000006,16
163,2819.0,0.5,3.6,2.0,5.4,-4.1000000000000005,5.9,-44.4,26.6,-4.800000000000001,16
164,2842.0,1.6,3.0,2.3000000000000003,6.300000000000001,-4.7,6.1000000000000005,-39.0,34.800000000000004,-4.0,16
165,2862.0,2.4000000000000004,2.1,2.5,7.1000000000000005,-5.7,6.300000000000001,-34.50000000000001,50.3,-6.300000000000001,16
166,2871.0,2.7,1.3,2.8000000000000003,7.4,-6.5,6.6000000000000005,-32.7,62.0,-8.8,16
167,2887.0,2.8000000000000003,1.0,2.8000000000000003,7.4,-6.7,6.6000000000000005,-31.9,74.4,-11.8,16
168,2902.0,3.1,0.8,2.9000000000000004,7.800000000000001,-7.1000000000000005,6.800000000000001,-27.2,92.50000000000001,-12.9,16
169,2919.0,3.8000000000000003,0.4,3.0,8.5,-7.6000000000000005,7.2,-22.1,85.69999999999999,-8.0,16
170,2935.0,4.1000000000000005,0.2,3.7,8.5,-7.6000000000000005,7.6000000000000005,-19.5,64.2,-1.6,16
171,2953.0,4.6000000000000005,-0.1,4.6000000000000005,8.9,-8.0,8.5,-5.300000000000001,7.1000000000000005,15.700000000000001,16
172,2971.0,4.7,0.30000000000000004,4.1000000000000005,8.9,-7.5,8.1,17.300000000000004,-23.900000000000006,22.3,16
173,2986.0,4.7,0.30000000000000004,4.1000000000000005,9.0,-7.5,7.7,24.3,-22.1,19.9,16
174,3003.0,5.0,0.1,3.0,9.3,-7.800000000000001,6.6000000000000005,25.8,6.600000000000001,5.2,16
175,3019.0,5.0,0.4,1.6,9.1,-7.5,5.7,16.200000000000003,47.1,-17.9,16
176,3037.0,4.7,0.7000000000000001,1.0,8.700000000000001,-7.0,5.0,9.2,63.2,-31.7,16
177,3052.0,4.0,0.6000000000000001,0.6000000000000001,8.200000000000001,-7.1000000000000005,4.9,-3.4,77.1,-55.2,16
178,3069.0,2.8000000000000003,0.30000000000000004,0.6000000000000001,7.1000000000000005,-7.4,4.9,-10.5,69.00000000000001,-65.5,16
179,3088.0,2.4000000000000004,0.1,0.5,6.7,-7.5,4.9,-13.000000000000002,64.2,-65.8,16
180,3102.0,1.7000000000000002,-0.30000000000000004,0.5,6.1000000000000005,-7.9,5.0,-20.8,66.60000000000001,-59.00000000000001,16
181,3121.0,1.9000000000000001,0.4,0.5,6.300000000000001,-7.1000000000000005,5.1000000000000005,-29.400000000000002,79.6,-48.10000000000001,16
182,3138.0,2.8000000000000003,1.5,0.6000000000000001,7.1000000000000005,-6.0,5.1000000000000005,-36.0,96.0,-42.7,16
183,3153.0,3.0,2.1,0.5,7.300000000000001,-5.300000000000001,5.1000000000000005,-33.400000000000006,97.40000000000002,-46.7,16
184,3169.0,3.0,2.1,0.5,7.4,-5.0,5.0,-28.1,94.10000000000001,-52.60000000000001,16
185,3191.0,1.4000000000000001,2.9000000000000004,-0.2,5.800000000000001,-4.5,4.5,-6.2,57.800000000000004,-73.4,16
186,3205.0,1.4000000000000001,2.9000000000000004,-0.2,5.2,-4.5,4.3,0.8,44.300000000000004,-76.60000000000001,16
187,3221.0,0.1,2.8000000000000003,-0.7000000000000001,4.1000000000000005,-4.4,3.9000000000000004,11.1,24.0,-76.7,16
188,3237.0,-1.0,2.7,-1.1,3.6,-4.4,3.7,14.600000000000001,19.0,-75.2,16
189,3253.0,-1.7000000000000002,2.7,-1.6,3.0,-4.3,3.4000000000000004,19.300000000000004,18.8,-70.4,16
190,3271.0,-2.0,2.7,-1.8,2.9000000000000004,-4.1000000000000005,3.2,22.6,21.7,-62.6,16
191,3286.0,-2.0,2.6,-1.9000000000000001,2.9000000000000004,-4.1000000000000005,3.2,23.700000000000003,22.700000000000003,-58.2,16
192,3302.0,-1.8,2.2,-1.9000000000000001,3.2,-4.4,3.3000000000000003,28.500000000000004,23.2,-49.6,16
193,3319.0,-1.6,1.8,-2.1,3.5,-4.7,3.2,37.0,20.2,-40.4,16
194,3336.0,-1.6,1.7000000000000002,-2.2,3.5,-4.7,3.1,40.800000000000004,16.1,-35.2,16
195,3352.0,-1.7000000000000002,1.3,-2.3000000000000003,3.5,-5.0,3.2,43.300000000000004,5.9,-22.8,16
196,3369.0,-1.7000000000000002,1.2000000000000002,-2.3000000000000003,3.6,-5.2,3.3000000000000003,43.1,2.3,-15.700000000000001,16
197,3385.0,-1.1,0.6000000000000001,-2.0,4.1000000000000005,-5.6000000000000005,3.7,46.50000000000001,-3.4,-2.0,16
198,3402.0,-0.6000000000000001,0.0,-1.8,4.6000000000000005,-6.0,3.9000000000000004,54.50000000000001,-8.899999999999999,7.500000000000001,16
199,3419.0,-0.30000000000000004,-0.8,-1.7000000000000002,4.9,-6.7,4.1000000000000005,60.8,-21.500000000000004,16.5,16
200,3436.0,-0.30000000000000004,-1.2000000000000002,-1.6,5.0,-7.1000000000000005,4.2,62.50000000000001,-29.800000000000004,20.400000000000002,16
201,3452.0,-0.5,-2.1,-1.2000000000000002,4.800000000000001,-7.9,4.7,57.60000000000001,-43.800000000000004,29.500000000000004,16
202,3468.0,-0.5,-2.1,-1.2000000000000002,4.800000000000001,-8.200000000000001,5.0,52.400000000000006,-48.70000000000001,38.400000000000006,16
203,3487.0,-0.5,-3.3000000000000003,-0.4,5.1000000000000005,-9.600000000000001,5.800000000000001,44.9,-51.6,63.70000000000001,16
204,3502.0,0.7000000000000001,-4.2,0.30000000000000004,6.0,-10.0,6.2,41.1,-57.1,93.2,16
205,3519.0,2.5,-4.3,0.1,7.7,-10.200000000000001,6.0,25.900000000000002,-70.7,118.50000000000001,16
206,3536.0,3.5,-3.0,-0.1,8.700000000000001,-9.0,5.800000000000001,6.699999999999999,-76.5,124.2,16
207,3552.0,4.2,-1.7000000000000002,-0.1,9.200000000000001,-7.800000000000001,5.7,-21.0,-79.1,118.60000000000001,16
208,3569.0,4.5,0.0,0.4,8.700000000000001,-5.2,7.4,-110.5,-34.900000000000006,61.300000000000004,16
209,3586.0,3.8000000000000003,1.5,2.1,8.200000000000001,-5.1000000000000005,8.1,-139.20000000000002,2.3,33.800000000000004,16
210,3602.0,2.2,2.1,4.2,6.300000000000001,-4.800000000000001,9.600000000000001,-167.40000000000003,86.1,-13.700000000000001,16
211,3619.0,0.5,1.8,5.800000000000001,5.2,-5.4,10.5,-152.70000000000002,121.2,-27.5,16
212,3635.0,0.5,1.7000000000000002,6.0,5.1000000000000005,-5.6000000000000005,10.600000000000001,-131.9,110.4,-16.8,16
213,3652.0,1.2000000000000002,2.2,5.6000000000000005,5.7,-5.300000000000001,10.100000000000001,-73.4,45.7,18.900000000000002,16
214,3669.0,1.4000000000000001,2.5,5.300000000000001,5.9,-5.0,9.700000000000001,-41.199999999999996,5.6,33.7,16
215,3686.0,1.7000000000000002,3.5,4.2,6.1000000000000005,-4.1000000000000005,8.5,18.200000000000003,-56.9,47.0,16
216,3702.0,1.2000000000000002,4.1000000000000005,2.9000000000000004,5.5,-3.5,7.2,64.50000000000001,-79.5,40.6,16
217,3718.0,0.6000000000000001,4.0,1.8,4.6000000000000005,-3.7,5.6000000000000005,102.10000000000001,-78.4,29.500000000000004,16
218,3737.0,-0.2,3.8000000000000003,0.1,4.2,-3.8000000000000003,4.6000000000000005,115.7,-78.2,28.700000000000003,16
219,3754.0,-0.4,3.5,-1.2000000000000002,4.1000000000000005,-3.9000000000000004,3.4000000000000004,126.89999999999999,-83.4,32.6,16
220,3770.0,-0.30000000000000004,3.1,-2.3000000000000003,4.2,-4.1000000000000005,2.6,119.30000000000003,-85.5,36.7,16
221,3786.0,-0.30000000000000004,3.0,-2.5,4.2,-4.2,2.4000000000000004,110.5,-84.1,38.0,16
222,3802.0,-0.1,2.7,-2.8000000000000003,4.5,-4.4,2.3000000000000003,84.80000000000001,-74.80000000000001,38.2,16
223,3820.0,0.2,2.1,-2.6,4.7,-4.9,2.5,54.699999999999996,-58.800000000000004,36.2,16
224,3843.0,0.2,1.8,-2.3000000000000003,4.9,-5.2,2.9000000000000004,28.600000000000005,-37.300000000000004,33.6,16
225,3852.0,0.5,1.9000000000000001,-2.1,5.1000000000000005,-5.1000000000000005,3.1,18.5,-28.800000000000004,33.1,16
226,3869.0,0.9,2.5,-1.9000000000000001,5.5,-4.4,3.3000000000000003,-4.0,-22.000000000000004,33.7,16
227,3888.0,1.3,2.8000000000000003,-1.5,5.800000000000001,-4.2,3.7,-18.1,-20.5,31.9,16
228,3903.0,1.9000000000000001,2.5,-0.30000000000000004,6.4,-4.6000000000000005,4.800000000000001,-50.60000000000001,-3.7000000000000006,19.200000000000003,16
229,3921.0,1.9000000000000001,2.3000000000000003,1.2000000000000002,6.300000000000001,-4.9,6.1000000000000005,-88.20000000000002,42.0,-3.1,16
230,3953.0,1.9000000000000001,1.4000000000000001,4.3,6.2,-6.0,9.0,-129.3,92.10000000000001,-15.8,16
231,3969.0,2.0,1.3,5.0,6.300000000000001,-6.300000000000001,9.600000000000001,-127.40000000000002,85.80000000000001,-10.8,16
232,3985.0,2.5,0.4,6.800000000000001,6.6000000000000005,-7.300000000000001,11.200000000000001,-96.30000000000001,49.300000000000004,7.300000000000001,16
233,4002.0,2.8000000000000003,0.30000000000000004,7.4,7.0,-7.7,11.9,-46.50000000000001,7.400000000000001,27.800000000000004,16
234,4019.0,3.6,0.30000000000000004,7.800000000000001,7.9,-7.800000000000001,11.8,-10.600000000000001,-16.0,39.50000000000001,16
235,4041.0,4.5,0.1,6.5,8.6,-8.0,9.9,22.1,-23.400000000000002,45.6,16
236,4057.0,5.1000000000000005,0.2,5.1000000000000005,9.0,-7.9,9.1,33.400000000000006,-1.3,38.400000000000006,16
237,4068.0,5.2,0.2,5.0,9.4,-7.6000000000000005,8.5,33.400000000000006,-1.3,38.400000000000006,16
238,4086.0,5.7,1.5,3.0,9.4,-6.6000000000000005,7.1000000000000005,30.799999999999997,49.9,12.4,16
239,4102.0,5.7,1.6,2.7,9.200000000000001,-6.6000000000000005,6.9,29.1,78.0,-19.799999999999997,16
240,4118.0,5.2,0.9,2.2,8.1,-7.4,6.2,35.699999999999996,77.1,-33.2,16
241,4139.0,3.0,0.8,0.4,6.6000000000000005,-7.0,5.1000000000000005,55.5,32.400000000000006,-50.400000000000006,16
242,4152.0,2.3000000000000003,1.2000000000000002,-0.30000000000000004,5.9,-6.6000000000000005,4.5,53.300000000000004,15.299999999999999,-45.2,16
243,4170.0,2.0,1.9000000000000001,-0.8,5.7,-5.7,4.2,37.50000000000001,-3.6000000000000005,-29.800000000000004,16
244,4185.0,1.9000000000000001,1.8,-0.8,5.9,-5.4,4.2,28.0,-2.3,-24.599999999999998,16
245,4203.0,2.5,2.7,-1.0,6.4,-4.5,3.9000000000000004,14.800000000000002,11.000000000000002,-28.400000000000002,16
246,4219.0,2.6,3.2,-1.5,6.5,-4.2,3.6,10.8,23.5,-45.0,16
247,4240.0,2.3000000000000003,3.0,-1.8,5.9,-4.3,3.2,4.300000000000001,30.200000000000003,-63.10000000000001,16
248,4252.0,1.4000000000000001,3.0,-2.1,5.5,-4.2,3.1,-1.2000000000000002,33.2,-69.7,16
249,4269.0,0.4,3.2,-2.1,4.6000000000000005,-4.0,3.2,-15.000000000000002,40.800000000000004,-78.0,16
250,4285.0,0.1,3.1,-1.9000000000000001,4.4,-4.0,3.4000000000000004,-21.1,45.9,-79.8,16
251,4302.0,-0.30000000000000004,2.7,-1.3,4.1000000000000005,-4.4,4.0,-27.099999999999998,57.60000000000001,-78.2,16
252,4320.0,-0.4,2.4000000000000004,-1.1,4.0,-4.7,4.4,-21.200000000000003,64.60000000000001,-72.7,16
253,4339.0,-0.4,1.9000000000000001,-0.9,4.0,-5.0,4.5,-6.4,61.39999999999999,-63.10000000000001,16
254,4352.0,-0.4,1.6,-1.0,4.1000000000000005,-5.2,4.4,1.9,55.5,-56.9,16
255,4369.0,-0.4,1.4000000000000001,-1.1,4.1000000000000005,-5.6000000000000005,4.3,18.5,35.2,-41.7,16
256,4385.0,-0.30000000000000004,0.9,-1.4000000000000001,4.2,-5.7,4.2,25.5,23.3,-33.300000000000004,16
257,4402.0,-0.2,0.6000000000000001,-1.6,4.4,-6.2,4.0,36.400000000000006,1.5,-18.900000000000002,16
258,4419.0,-0.30000000000000004,0.0,-1.9000000000000001,4.3,-6.4,3.7,44.7,-10.9,-8.899999999999999,16
259,4436.0,-0.4,0.0,-2.3000000000000003,4.2,-6.4,3.5,45.3,-15.100000000000001,-4.300000000000001,16
260,4458.0,-0.30000000000000004,-0.30000000000000004,-1.9000000000000001,4.5,-6.9,4.3,30.9,-15.6,3.6000000000000005,16
261,4469.0,-0.30000000000000004,-0.30000000000000004,-1.9000000000000001,4.5,-6.9,4.3,30.9,-15.6,3.6000000000000005,16
262,4487.0,0.2,-2.3000000000000003,-0.30000000000000004,4.9,-8.6,5.6000000000000005,28.3,-7.200000000000001,12.8,16
263,4502.0,0.2,-2.4000000000000004,-0.30000000000000004,4.9,-9.1,5.7,33.0,-11.3,19.700000000000003,16
264,4519.0,0.8,-3.4000000000000004,-0.30000000000000004,5.4,-9.5,5.7,42.900000000000006,-32.5,43.00000000000001,16
265,4535.0,1.0,-3.3000000000000003,-0.30000000000000004,5.7,-9.5,5.7,43.4,-43.800000000000004,53.599999999999994,16
266,4559.0,1.2000000000000002,-1.8,-0.8,5.800000000000001,-8.0,5.2,28.0,-59.40000000000001,76.7,16
267,4570.0,1.2000000000000002,-1.8,-0.8,5.800000000000001,-8.0,5.2,28.0,-59.40000000000001,76.7,16
268,4586.0,2.1,-1.3,-0.9,6.7,-7.6000000000000005,5.1000000000000005,0.4,-54.9,81.8,16
269,4602.0,2.7,-0.4,-0.9,7.4,-6.300000000000001,5.1000000000000005,-43.70000000000001,-35.1,65.8,16
270,4619.0,3.1,0.4,0.0,7.300000000000001,-6.2,6.300000000000001,-104.2,8.0,28.500000000000004,16
271,4635.0,2.6,0.6000000000000001,1.8,7.0,-6.2,7.4,-129.60000000000002,34.1,11.1,16
272,4658.0,2.0,0.5,3.8000000000000003,6.300000000000001,-6.5,9.1,-158.39999999999998,74.80000000000001,-13.6,16
273,4669.0,1.6,0.7000000000000001,4.4,5.800000000000001,-6.4,9.600000000000001,-157.0,83.60000000000001,-20.2,16
274,4685.0,0.8,1.6,5.0,5.0,-5.800000000000001,9.9,-121.30000000000001,66.5,-18.1,16
275,4702.0,0.4,2.6,4.6000000000000005,4.5,-5.0,9.3,-66.4,15.6,-2.4000000000000004,16
276,4720.0,0.1,3.2,4.1000000000000005,4.1000000000000005,-4.2,8.1,-17.0,-32.9,15.8,16
277,4735.0,0.0,3.7,2.9000000000000004,4.1000000000000005,-4.0,7.5,1.7,-48.9,21.300000000000004,16
278,4753.0,-0.30000000000000004,4.0,2.0,3.8000000000000003,-3.7,6.5,29.500000000000004,-52.60000000000001,21.6,16
279,4770.0,-1.0,3.9000000000000004,1.1,3.1,-3.8000000000000003,5.6000000000000005,51.300000000000004,-42.800000000000004,21.0,16
280,4793.0,-1.2000000000000002,4.0,0.9,2.9000000000000004,-3.6,5.5,67.8,-45.099999999999994,31.0,16
281,4802.0,-1.2000000000000002,4.0,0.8,3.0,-3.6,5.5,77.4,-53.400000000000006,38.900000000000006,16
282,4818.0,-0.7000000000000001,3.7,0.4,3.5,-3.9000000000000004,5.1000000000000005,102.2,-70.4,56.50000000000001,16
283,4837.0,-0.6000000000000001,3.5,0.2,3.8000000000000003,-4.4,4.800000000000001,110.6,-75.7,65.0,16
284,4859.0,0.6000000000000001,2.4000000000000004,-1.2000000000000002,4.7,-4.9,3.9000000000000004,109.2,-81.2,73.30000000000001,16
285,4869.0,0.6000000000000001,2.4000000000000004,-1.2000000000000002,4.7,-4.9,3.9000000000000004,109.2,-81.2,73.30000000000001,16
286,4886.0,1.0,2.2,-1.7000000000000002,5.2,-4.800000000000001,3.4000000000000004,96.4,-80.30000000000001,71.39999999999999,16
287,4902.0,1.4000000000000001,2.7,-2.1,5.5,-4.3,3.4000000000000004,78.10000000000001,-81.60000000000001,67.8,16
288,4919.0,1.9000000000000001,2.5,-1.8,5.9,-4.6000000000000005,3.7,50.7,-74.80000000000001,55.8,16
289,4935.0,2.2,2.4000000000000004,-1.5,6.1000000000000005,-4.7,4.0,36.8,-63.2,47.5,16
290,4960.0,2.4000000000000004,2.5,-0.7000000000000001,6.4,-4.6000000000000005,4.800000000000001,-11.000000000000002,-24.3,19.300000000000004,16
291,4969.0,2.4000000000000004,2.5,-0.7000000000000001,6.4,-4.6000000000000005,4.800000000000001,-11.000000000000002,-24.3,19.300000000000004,16
292,4991.0,2.5,2.3000000000000003,0.30000000000000004,6.300000000000001,-5.1000000000000005,6.300000000000001,-53.599999999999994,14.800000000000002,-8.0,16
293,5012.0,2.3000000000000003,1.8,1.4000000000000001,6.2,-5.5,6.7,-62.7,25.7,-14.300000000000002,16
294,5018.0,2.1,1.2000000000000002,2.5,6.1000000000000005,-6.1000000000000005,7.7,-74.10000000000001,40.9,-18.4,16
295,5038.0,2.2,0.7000000000000001,3.2,6.2,-7.1000000000000005,8.5,-75.5,43.50000000000001,-10.200000000000001,16
296,5053.0,2.3000000000000003,0.4,3.6,6.6000000000000005,-7.6000000000000005,8.9,-73.10000000000001,41.800000000000004,-2.0,16
297,5068.0,3.6,0.0,4.3,7.4,-7.6000000000000005,9.1,-65.2,31.2,17.400000000000002,16
298,5085.0,4.0,0.0,4.4,7.800000000000001,-7.7,9.200000000000001,-60.7,26.1,24.1,16
299,5104.0,5.0,0.4,4.9,8.700000000000001,-7.4,9.5,-48.800000000000004,19.200000000000003,28.800000000000004,16
300,5119.0,5.5,1.4000000000000001,4.800000000000001,9.1,-6.6000000000000005,9.3,-30.3,10.600000000000001,19.700000000000003,16
301,5135.0,5.800000000000001,1.3,4.6000000000000005,9.3,-6.7,9.1,-21.6,11.4,12.200000000000001,16
302,5153.0,5.800000000000001,1.4000000000000001,3.5,9.3,-6.6000000000000005,8.0,-7.300000000000001,22.5,-7.400000000000001,16
303,5172.0,5.300000000000001,1.5,2.6,8.8,-6.5,7.1000000000000005,-0.7,41.199999999999996,-34.900000000000006,16
304,5187.0,5.0,1.4000000000000001,2.4000000000000004,8.5,-6.6000000000000005,6.9,0.6000000000000001,45.400000000000006,-47.400000000000006,16
305,5202.0,3.7,0.6000000000000001,2.0,7.300000000000001,-7.300000000000001,6.5,4.2,36.7,-60.6,16
306,5218.0,3.1,0.2,1.7000000000000002,6.300000000000001,-7.5,6.2,9.0,19.200000000000003,-57.1,16
307,5235.0,2.1,0.6000000000000001,1.2000000000000002,5.9,-7.2,5.800000000000001,10.600000000000001,15.000000000000002,-53.10000000000001,16
308,5254.0,1.5,1.4000000000000001,0.5,5.4,-6.300000000000001,5.2,9.600000000000001,24.8,-47.0,16
309,5272.0,1.7000000000000002,2.6,-0.1,5.6000000000000005,-5.0,4.7,5.8,40.0,-44.9,16
310,5285.0,1.7000000000000002,2.8000000000000003,-0.2,5.7,-4.800000000000001,4.6000000000000005,4.5,43.900000000000006,-47.7,16
311,5305.0,1.5,3.4000000000000004,-0.7000000000000001,5.5,-4.1000000000000005,4.2,5.0,40.300000000000004,-56.7,16
312,5324.0,0.8,3.4000000000000004,-1.1,4.9,-4.0,3.9000000000000004,4.4,33.300000000000004,-68.60000000000001,16
313,5339.0,0.1,3.5,-1.3,4.3,-3.9000000000000004,3.7,1.7,30.5,-72.60000000000001,16
314,5356.0,-1.0,3.2,-1.6,3.3000000000000003,-4.0,3.4000000000000004,-5.6,28.800000000000004,-76.2,16
315,5368.0,-1.5,3.4000000000000004,-1.6,2.9000000000000004,-3.8000000000000003,3.5,-7.500000000000001,29.300000000000004,-76.3,16
316,5385.0,-1.8,3.8000000000000003,-1.0,2.7,-3.2,4.0,-16.6,29.200000000000003,-67.8,16
317,5402.0,-2.2,3.5,-0.6000000000000001,2.5,-3.5,4.5,-11.6,34.2,-61.599999999999994,16
318,5419.0,-2.3000000000000003,3.1,-0.6000000000000001,2.5,-3.8000000000000003,4.5,4.4,38.2,-51.4,16
319,5438.0,-1.9000000000000001,2.4000000000000004,-0.9,2.9000000000000004,-4.4,4.3,21.8,28.3,-35.3,16
320,5456.0,-1.6,1.8,-1.0,3.2,-4.9,4.2,29.300000000000004,21.200000000000003,-27.700000000000003,16
321,5472.0,-1.1,0.6000000000000001,-1.2000000000000002,3.7,-6.1000000000000005,4.2,40.6,6.500000000000001,-14.300000000000002,16
322,5485.0,-1.1,0.4,-1.3,3.7,-6.2,4.1000000000000005,45.2,-2.3,-7.9,16
323,5502.0,-1.0,0.2,-1.5,4.1000000000000005,-6.4,4.0,53.2,-18.200000000000003,8.100000000000001,16
324,5518.0,-0.4,0.0,-1.5,4.5,-6.5,4.1000000000000005,53.2,-22.000000000000004,16.3,16
325,5536.0,0.1,-0.8,-1.3,5.0,-7.2,4.3,51.70000000000001,-21.8,27.2,16
326,5554.0,0.7000000000000001,-1.8,-1.3,5.5,-8.200000000000001,4.4,52.900000000000006,-23.5,36.0,16
327,5570.0,1.2000000000000002,-2.6,-0.8,6.0,-9.0,5.0,45.7,-38.1,48.10000000000001,16
328,5586.0,1.3,-2.6,-0.8,6.300000000000001,-9.3,5.5,39.599999999999994,-44.9,54.50000000000001,16
329,5602.0,1.7000000000000002,-3.3000000000000003,0.7000000000000001,6.4,-9.600000000000001,6.4,34.50000000000001,-48.400000000000006,63.30000000000001,16
330,5618.0,1.9000000000000001,-3.1,0.9,6.6000000000000005,-9.5,6.6000000000000005,42.7,-56.800000000000004,76.7,16
331,5637.0,2.3000000000000003,-2.1,0.5,6.9,-8.5,6.300000000000001,45.400000000000006,-66.2,85.80000000000001,16
332,5659.0,3.3000000000000003,-0.9,0.4,7.9,-7.4,6.2,25.7,-90.80000000000001,88.50000000000001,16
333,5670.0,4.0,-1.0,0.8,8.6,-7.5,6.5,16.700000000000003,-82.8,76.80000000000001,16
334,5685.0,4.2,-0.9,0.9,8.8,-7.5,6.5,7.200000000000001,-67.3,61.50000000000001,16
335,5703.0,3.7,-0.9,1.0,8.3,-7.6000000000000005,6.5,-16.6,-25.1,27.6,16
336,5719.0,3.1,-0.7000000000000001,1.2000000000000002,7.300000000000001,-7.2,6.800000000000001,-36.8,-1.6,9.700000000000001,16
337,5735.0,2.2,0.0,1.5,6.800000000000001,-6.800000000000001,6.9,-41.4,-2.5,8.100000000000001,16
338,5754.0,1.4000000000000001,1.6,1.7000000000000002,5.9,-5.2,7.0,-42.0,-22.8,12.5,16
339,5769.0,1.0,2.2,1.7000000000000002,5.6000000000000005,-4.7,6.9,-37.2,-34.50000000000001,14.0,16
340,5785.0,0.1,3.5,1.7000000000000002,4.7,-3.6,6.7,-27.2,-48.9,13.000000000000002,16
341,5804.0,-1.0,4.2,1.9000000000000001,3.7,-2.9000000000000004,6.9,-20.1,-46.1,10.200000000000001,16
342,5819.0,-1.5,4.6000000000000005,2.2,2.9000000000000004,-2.2,7.1000000000000005,-9.899999999999999,-37.7,9.3,16
343,5836.0,-2.2,4.9,2.3000000000000003,2.6,-2.2,7.1000000000000005,0.9000000000000001,-36.8,11.2,16
344,5856.0,-2.0,4.3,1.7000000000000002,2.7,-2.9000000000000004,6.4,33.300000000000004,-41.4,22.1,16
345,5874.0,-1.7000000000000002,3.5,0.7000000000000001,3.0,-3.6,5.5,62.300000000000004,-52.300000000000004,33.0,16
346,5885.0,-1.7000000000000002,3.3000000000000003,0.30000000000000004,3.1,-3.8000000000000003,5.1000000000000005,69.9,-59.1,38.50000000000001,16
347,5904.0,-1.7000000000000002,2.9000000000000004,-0.6000000000000001,3.1,-4.1000000000000005,4.4,71.30000000000001,-63.30000000000001,45.2,16
348,5921.0,-1.7000000000000002,2.8000000000000003,-0.7000000000000001,3.1,-4.2,4.3,57.1,-53.8,48.70000000000001,16
349,5939.0,-1.5,2.7,-0.6000000000000001,3.6,-4.5,4.4,45.2,-43.300000000000004,52.7,16
350,5952.0,-0.5,2.2,-0.5,4.2,-4.800000000000001,4.5,41.1,-37.6,54.0,16
351,5969.0,-0.1,2.0,-0.4,5.300000000000001,-5.1000000000000005,5.1000000000000005,24.900000000000002,-31.3,57.3,16
352,5987.0,1.2000000000000002,1.8,0.5,5.800000000000001,-5.2,5.6000000000000005,13.700000000000001,-28.200000000000003,59.1,16
353,6005.0,2.4000000000000004,1.4000000000000001,1.9000000000000001,6.9,-5.7,6.9,-1.4,-24.400000000000002,58.1,16
354,6023.0,3.1,1.3,2.5,7.5,-5.9,7.6000000000000005,3.7000000000000006,-26.400000000000006,52.5,16
355,6039.0,3.4000000000000004,1.5,2.5,7.7,-5.7,7.5,6.1000000000000005,-27.0,48.400000000000006,16
356,6052.0,3.6,1.3,2.6,7.9,-6.0,7.6000000000000005,2.3,-22.5,46.4,16
357,6070.0,4.2,0.30000000000000004,3.0,8.4,-7.0,7.9,-7.200000000000001,-12.100000000000001,44.5,16
358,6085.0,4.3,0.2,3.1,8.5,-7.2,8.0,-12.7,-11.000000000000002,45.400000000000006,16
359,6102.0,4.800000000000001,0.1,3.4000000000000004,9.1,-7.4,8.4,-23.800000000000004,-7.6,46.0,16
360,6121.0,5.7,0.2,3.9000000000000004,10.0,-7.5,8.9,-41.1,9.4,40.0,16
361,6136.0,6.9,0.2,4.7,10.8,-7.5,9.5,-50.7,25.1,34.7,16
362,6152.0,8.0,0.9,5.4,11.700000000000001,-6.800000000000001,10.0,-61.39999999999999,68.9,13.6,16
363,6170.0,8.3,0.7000000000000001,5.7,11.9,-7.2,10.3,-45.6,94.7,-20.5,16
364,6186.0,8.3,0.7000000000000001,5.7,11.600000000000001,-7.6000000000000005,10.100000000000001,-27.9,94.9,-35.9,16
365,6202.0,7.5,-0.5,4.800000000000001,10.5,-8.700000000000001,8.9,9.4,73.9,-58.800000000000004,16
366,6219.0,6.0,-0.9,3.1,9.0,-8.5,7.300000000000001,27.2,44.10000000000001,-67.9,16
367,6237.0,4.4,0.0,1.7000000000000002,8.1,-7.7,6.6000000000000005,29.0,34.900000000000006,-68.5,16
368,6252.0,3.6,1.2000000000000002,0.9,7.300000000000001,-6.300000000000001,5.800000000000001,30.5,25.6,-69.4,16
369,6269.0,2.9000000000000004,2.2,0.4,6.800000000000001,-5.300000000000001,5.5,32.6,19.700000000000003,-76.0,16
370,6286.0,2.4000000000000004,2.4000000000000004,0.2,6.4,-4.9,5.300000000000001,36.0,17.5,-83.30000000000001,16
371,6302.0,1.0,2.6,-0.5,5.2,-4.6000000000000005,4.7,49.0,11.4,-99.39999999999999,16
372,6318.0,-0.2,2.4000000000000004,-1.2000000000000002,3.6,-4.5,3.9000000000000004,61.8,3.0,-108.7,16
373,6337.0,-1.8,2.5,-2.0,2.7,-4.3,3.4000000000000004,64.80000000000001,-0.1,-108.60000000000001,16
374,6353.0,-3.0,2.3000000000000003,-2.8000000000000003,1.8,-4.2,2.8000000000000003,64.30000000000001,1.5,-102.5,16
375,6371.0,-3.3000000000000003,2.1,-3.0,1.6,-4.2,2.7,61.300000000000004,5.6,-97.00000000000001,16
376,6385.0,-3.7,1.8,-3.3000000000000003,1.4000000000000001,-4.3,2.5,52.00000000000001,15.700000000000001,-82.7,16
377,6402.0,-3.5,1.5,-3.5,1.7000000000000002,-4.3,2.5,42.3,23.099999999999998,-67.2,16
378,6418.0,-3.4000000000000004,1.3,-3.5,2.0,-4.6000000000000005,2.7,35.3,26.1,-54.1,16
379,6435.0,-3.2,0.7000000000000001,-3.2,2.1,-4.800000000000001,2.9000000000000004,33.2,26.6,-47.7,16
380,6452.0,-3.1,0.4,-3.1,2.3000000000000003,-4.9,3.2,33.2,20.1,-32.1,16
381,6470.0,-2.7,-0.30000000000000004,-2.7,2.7,-5.5,3.7,34.2,12.4,-14.700000000000001,16
382,6487.0,-2.6,-0.5,-2.5,2.8000000000000003,-5.7,3.9000000000000004,33.7,11.000000000000002,-6.300000000000001,16
383,6502.0,-2.3000000000000003,-0.9,-2.1,3.2,-6.2,4.6000000000000005,34.400000000000006,10.600000000000001,9.700000000000001,16
384,6518.0,-1.8,-1.8,-1.5,3.5,-6.800000000000001,5.1000000000000005,36.5,6.500000000000001,25.200000000000003,16
385,6536.0,-1.7000000000000002,-2.1,-1.3,3.6,-7.1000000000000005,5.300000000000001,32.5,-1.9,36.7,16
386,6554.0,-1.3,-2.3000000000000003,-0.2,3.9000000000000004,-7.300000000000001,6.4,11.3,-19.5,64.10000000000001,16
387,6570.0,-0.2,-2.8000000000000003,1.2000000000000002,4.9,-8.0,7.800000000000001,-9.100000000000001,-25.7,94.6,16
388,6585.0,0.6000000000000001,-3.3000000000000003,1.8,5.6000000000000005,-8.5,8.4,-7.400000000000001,-27.9,107.7,16
389,6602.0,2.5,-3.9000000000000004,2.0,7.4,-9.4,8.5,33.0,-46.7,128.5,16
390,6620.0,3.6,-3.5,-0.1,8.4,-9.0,6.4,71.0,-88.7,137.4,16
391,6637.0,3.6,-2.7,-1.4000000000000001,8.4,-8.3,5.1000000000000005,70.3,-107.6,138.29999999999998,16
392,6652.0,3.6,-1.0,-2.8000000000000003,8.4,-6.7,3.6,33.50000000000001,-104.50000000000001,124.10000000000001,16
393,6669.0,3.5,0.30000000000000004,-2.7,8.200000000000001,-5.6000000000000005,3.6,-56.300000000000004,-36.0,88.7,16
394,6685.0,3.6,0.7000000000000001,-2.0,8.200000000000001,-5.300000000000001,4.2,-111.10000000000002,11.900000000000002,69.20000000000002,16
395,6703.0,3.3000000000000003,0.7000000000000001,0.7000000000000001,7.7,-5.7,6.7,-183.80000000000004,103.7,30.599999999999998,16
396,6726.0,2.6,1.0,2.6,6.7,-5.800000000000001,8.4,-191.39999999999998,137.3,15.700000000000001,16
397,6744.0,2.4000000000000004,1.9000000000000001,3.3000000000000003,6.2,-5.1000000000000005,8.8,-156.20000000000002,123.30000000000003,20.2,16
398,6753.0,2.4000000000000004,2.6,3.1,6.1000000000000005,-4.800000000000001,8.5,-129.60000000000002,97.2,28.3,16
399,6771.0,3.2,4.0,2.8000000000000003,6.7,-3.6,7.9,-77.80000000000001,28.1,52.60000000000001,16
400,6786.0,3.7,4.6000000000000005,2.7,7.1000000000000005,-3.0,7.800000000000001,-56.0,4.6,60.6,16
401,6802.0,4.1000000000000005,4.9,2.1,7.300000000000001,-2.9000000000000004,7.1000000000000005,-6.600000000000001,-9.5,47.2,16
402,6818.0,3.7,4.800000000000001,1.3,6.4,-3.1,5.5,19.5,-10.200000000000001,35.9,16
403,6841.0,2.5,4.5,-1.0,5.6000000000000005,-3.3000000000000003,4.1000000000000005,68.0,-25.7,23.6,16
404,6853.0,2.3000000000000003,4.3,-1.9000000000000001,5.4,-3.4000000000000004,3.3000000000000003,74.5,-30.599999999999998,25.4,16
405,6869.0,2.4000000000000004,4.2,-2.3000000000000003,5.5,-3.5,2.5,77.1,-37.2,29.200000000000003,16
406,6886.0,2.5,4.1000000000000005,-2.9000000000000004,5.5,-3.5,2.5,77.1,-37.2,29.200000000000003,16
407,6902.0,2.5,4.1000000000000005,-2.9000000000000004,5.5,-3.5,2.5,77.1,-37.2,29.200000000000003,16
408,6918.0,2.5,4.1000000000000005,-2.9000000000000004,5.5,-3.5,2.5,77.1,-37.2,29.200000000000003,16
409,6942.0,3.3000000000000003,3.9000000000000004,-4.2,6.300000000000001,-3.4000000000000004,1.6,2.6,-4.4,17.799999999999997,16
410,6954.0,3.6,4.2,-3.7,6.6000000000000005,-3.2,2.0,-18.5,4.1,12.8,16
411,6971.0,3.9000000000000004,4.2,-3.3000000000000003,7.2,-3.5,3.4000000000000004,-57.49999999999999,22.700000000000003,-3.4,16
412,6986.0,4.3,3.9000000000000004,-1.8,7.300000000000001,-3.6,3.8000000000000003,-70.4,34.2,-13.900000000000002,16
413,7003.0,4.4,3.7,-0.9,7.4,-4.2,5.0,-85.1,51.800000000000004,-34.7,16
414,7026.0,4.4,3.1,0.8,7.300000000000001,-4.6000000000000005,6.0,-92.3,66.0,-51.50000000000001,16
415,7040.0,4.2,2.6,1.8,7.1000000000000005,-5.300000000000001,6.9,-92.10000000000001,77.4,-62.0,16
416,7052.0,4.0,2.2,2.3000000000000003,7.0,-5.7,7.300000000000001,-88.3,79.00000000000001,-63.599999999999994,16
417,7071.0,4.2,0.9,2.9000000000000004,7.300000000000001,-7.1000000000000005,7.800000000000001,-72.2,76.4,-59.9,16
418,7085.0,4.2,0.9,3.0,7.4,-7.6000000000000005,7.9,-61.50000000000001,72.0,-54.6,16
419,7101.0,5.1000000000000005,-0.30000000000000004,3.0,8.200000000000001,-8.3,7.7,-44.10000000000001,58.60000000000001,-38.400000000000006,16
420,7118.0,6.2,-0.5,3.0,9.9,-8.8,7.800000000000001,-43.2,59.300000000000004,-29.700000000000006,16
421,7135.0,7.4,-1.1,3.3000000000000003,10.5,-9.200000000000001,7.9,-42.1,67.4,-30.599999999999998,16
422,7151.0,8.0,-0.7000000000000001,3.2,11.100000000000001,-8.8,7.800000000000001,-30.5,80.30000000000001,-42.3,16
423,7169.0,7.6000000000000005,-0.4,2.7,10.600000000000001,-8.5,7.300000000000001,-15.399999999999999,85.0,-59.20000000000001,16
424,7186.0,7.1000000000000005,-0.8,2.4000000000000004,10.200000000000001,-8.9,7.0,-2.5,88.10000000000001,-70.8,16
425,7202.0,5.7,-1.6,1.5,8.9,-9.600000000000001,6.2,19.700000000000003,91.6,-82.39999999999999,16
426,7219.0,4.9,-1.1,0.30000000000000004,8.1,-8.9,5.2,22.4,93.00000000000001,-76.60000000000001,16
427,7235.0,4.9,-0.1,-0.30000000000000004,8.200000000000001,-8.0,4.7,15.6,93.2,-71.8,16
428,7255.0,5.1000000000000005,1.7000000000000002,-0.9,8.4,-6.0,4.2,-3.1,90.9,-68.0,16
429,7270.0,5.1000000000000005,2.2,-1.0,8.3,-5.4,4.1000000000000005,-9.0,86.7,-72.30000000000001,16
430,7286.0,4.6000000000000005,2.7,-1.5,7.9,-4.9,3.7,-7.6,73.8,-90.30000000000001,16
431,7303.0,3.0,2.6,-2.3000000000000003,6.5,-4.9,3.0,-1.8000000000000003,61.599999999999994,-112.60000000000001,16
432,7319.0,1.5,2.4000000000000004,-2.8000000000000003,5.2,-4.9,2.6,-10.299999999999999,62.199999999999996,-124.39999999999999,16
433,7336.0,0.8,2.5,-2.8000000000000003,4.5,-4.800000000000001,2.6,-19.9,67.5,-128.1,16
434,7364.0,-0.5,2.7,-1.9000000000000001,3.5,-4.4,3.5,-54.699999999999996,98.7,-124.7,16
435,7369.0,-0.5,2.7,-1.9000000000000001,3.4000000000000004,-4.4,4.2,-54.699999999999996,98.7,-124.7,16
436,7386.0,-0.6000000000000001,2.6,-0.8,3.5,-4.5,4.6000000000000005,-58.60000000000001,119.49999999999999,-114.9,16
437,7405.0,-0.2,2.5,-0.1,3.9000000000000004,-4.5,5.300000000000001,-40.0,126.89999999999999,-102.2,16
438,7420.0,0.5,2.2,0.2,4.6000000000000005,-4.7,5.800000000000001,-10.1,119.7,-90.80000000000001,16
439,7437.0,0.6000000000000001,2.1,0.30000000000000004,4.9,-5.0,6.0,25.6,105.10000000000001,-80.10000000000001,16
440,7457.0,0.9,0.9,0.30000000000000004,5.0,-5.800000000000001,6.1000000000000005,44.8,96.1,-72.10000000000001,16
441,7470.0,1.3,-0.1,-0.4,5.300000000000001,-6.6000000000000005,5.7,88.9,66.60000000000001,-49.300000000000004,16
442,7486.0,1.5,-0.4,-1.1,5.6000000000000005,-6.7,5.2,110.5,44.4,-38.800000000000004,16
443,7502.0,2.0,-1.0,-2.6,6.0,-7.1000000000000005,3.9000000000000004,144.5,-7.6,-26.6,16
444,7518.0,1.9000000000000001,-1.9000000000000001,-3.5,5.9,-8.0,3.0,162.6,-52.300000000000004,-28.3,16
445,7535.0,1.1,-3.7,-4.3,5.4,-9.1,2.6,163.80000000000004,-67.5,-31.0,16
446,7561.0,-0.6000000000000001,-4.0,-5.2,3.3000000000000003,-8.700000000000001,1.6,128.3,-66.1,-25.6,16
447,7571.0,-1.3,-3.9000000000000004,-5.5,2.9000000000000004,-7.4,1.3,110.5,-52.60000000000001,-18.900000000000002,16
448,7588.0,-1.9000000000000001,-1.5,-6.0,3.0,-5.9,1.3,69.7,-26.9,-7.1000000000000005,16
449,7602.0,-1.6,-1.2000000000000002,-5.6000000000000005,3.3000000000000003,-5.5,1.7000000000000002,44.10000000000001,-22.2,-1.0,16
450,7619.0,-0.6000000000000001,-1.8,-3.8000000000000003,4.4,-6.0,3.5,4.2,-22.4,8.2,16
451,7637.0,-0.2,-2.7,-2.4000000000000004,4.800000000000001,-6.800000000000001,4.9,-17.1,-18.900000000000002,9.5,16
452,7653.0,-0.6000000000000001,-4.2,-1.1,4.4,-8.5,6.2,-40.9,0.8,6.8,16
453,7669.0,-0.9,-4.5,-1.0,4.2,-8.8,6.2,-55.60000000000001,-3.2,26.9,16
454,7685.0,-0.9,-4.0,-0.7000000000000001,4.1000000000000005,-8.5,6.5,-66.9,-20.2,49.6,16
455,7702.0,0.2,-4.2,0.2,5.1000000000000005,-9.0,7.2,-98.10000000000001,-65.0,98.10000000000001,16
456,7719.0,1.9000000000000001,-2.8000000000000003,1.4000000000000001,6.800000000000001,-8.0,8.1,-127.80000000000001,-112.5,143.6,16
457,7735.0,2.6,-1.3,2.1,7.5,-6.800000000000001,8.5,-141.2,-114.70000000000002,149.10000000000002,16
458,7760.0,3.0,1.8,3.5,7.800000000000001,-4.5,9.3,-156.8,-52.80000000000001,101.4,16
459,7769.0,3.0,1.8,3.5,7.800000000000001,-4.5,9.3,-156.8,-52.80000000000001,101.4,16
460,7785.0,3.0,3.4000000000000004,4.2,7.300000000000001,-2.8000000000000003,9.700000000000001,-147.1,-31.099999999999998,68.60000000000001,16
461,7803.0,1.0,5.7,5.300000000000001,5.6000000000000005,-1.4000000000000001,10.200000000000001,-128.1,3.3000000000000007,29.700000000000006,16
462,7820.0,-0.4,6.7,5.7,4.1000000000000005,-0.6000000000000001,10.4,-97.3,38.2,3.5,16
463,7835.0,-1.0,6.9,5.800000000000001,3.5,-0.5,10.3,-77.3,48.70000000000001,-3.5,16
464,7853.0,-1.3,6.9,5.1000000000000005,3.2,-0.6000000000000001,9.600000000000001,-33.1,51.800000000000004,-4.4,16
465,7869.0,-1.2000000000000002,7.6000000000000005,4.0,3.2,0.0,8.4,0.5,38.1,-1.3,16
466,7887.0,-1.2000000000000002,7.6000000000000005,3.9000000000000004,3.0,0.2,8.1,11.000000000000002,30.5,-1.6,16
467,7903.0,-1.4000000000000001,7.800000000000001,3.1,3.1,0.2,7.5,26.300000000000004,27.6,-3.6000000000000005,16
468,7918.0,-0.7000000000000001,7.1000000000000005,2.6,3.8000000000000003,-0.6000000000000001,7.2,32.2,28.700000000000003,-10.200000000000001,16
469,7935.0,-0.30000000000000004,6.300000000000001,2.2,4.0,-1.1,7.0,34.0,29.700000000000006,-13.100000000000001,16
470,7954.0,-0.1,5.4,1.6,4.2,-2.0,6.6000000000000005,33.9,34.0,-12.8,16
471,7970.0,0.6000000000000001,4.3,1.1,4.800000000000001,-3.0,6.2,30.4,36.5,-2.2,16
472,7986.0,1.2000000000000002,3.8000000000000003,0.9,5.4,-3.4000000000000004,6.0,27.2,33.50000000000001,5.0,16
473,8003.0,2.7,2.8000000000000003,0.7000000000000001,6.800000000000001,-4.4,6.0,9.4,23.700000000000003,16.700000000000003,16
474,8021.0,4.1000000000000005,0.4,1.3,9.0,-8.700000000000001,7.1000000000000005,-14.400000000000002,28.500000000000004,25.4,16
475,8035.0,6.4,-3.0,2.3000000000000003,10.3,-10.3,7.6000000000000005,-29.500000000000004,38.60000000000001,31.7,16
476,8061.0,9.700000000000001,-1.6,3.9000000000000004,13.3,-9.1,9.1,-92.0,90.4,47.400000000000006,16
477,8073.0,11.100000000000001,-0.4,5.4,14.700000000000001,-8.0,10.5,-126.30000000000001,111.80000000000001,48.400000000000006,16
478,8085.0,12.0,0.5,6.6000000000000005,15.4,-7.2,11.700000000000001,-151.0,124.2,38.2,16
479,8118.0,13.0,0.30000000000000004,8.5,16.0,-7.800000000000001,13.100000000000001,0.2,51.6,-71.10000000000001,16
480,8135.0,10.5,-2.7,5.7,13.5,-10.8,10.4,51.70000000000001,7.300000000000001,-103.89999999999999,16
481,8152.0,6.5,-4.0,2.8000000000000003,9.8,-11.8,7.7,96.1,-60.900000000000006,-152.0,16
482,8169.0,5.0,-3.9000000000000004,2.0,8.6,-11.600000000000001,6.9,94.2,-74.89999999999999,-160.50000000000003,16
483,8185.0,2.0,-2.6,0.4,6.2,-9.9,5.5,59.40000000000001,-60.1,-149.10000000000002,16
484,8202.0,0.7000000000000001,-0.9,-0.5,5.300000000000001,-7.9,4.5,18.200000000000003,-20.599999999999998,-129.3,16
485,8218.0,1.1,0.6000000000000001,-1.0,6.0,-6.1000000000000005,4.1000000000000005,-10.5,10.200000000000001,-123.00000000000001,16
486,8239.0,0.6000000000000001,1.2000000000000002,-1.2000000000000002,5.800000000000001,-5.4,3.9000000000000004,-30.599999999999998,21.6,-137.0,16
487,8254.0,-0.30000000000000004,1.5,-1.2000000000000002,5.0,-5.0,3.9000000000000004,-39.50000000000001,25.7,-146.7,16
488,8269.0,-1.1,1.6,-1.1,4.4,-4.800000000000001,3.9000000000000004,-47.7,29.800000000000004,-155.0,16
489,8285.0,-2.3000000000000003,2.0,-1.0,3.0,-3.9000000000000004,4.1000000000000005,-64.7,40.800000000000004,-161.5,16
490,8302.0,-4.0,2.6,-0.30000000000000004,2.0,-3.3000000000000003,4.6000000000000005,-75.7,54.6,-158.39999999999998,16
491,8318.0,-4.5,2.6,0.30000000000000004,1.7000000000000002,-3.1,5.2,-67.9,69.7,-149.4,16
492,8335.0,-4.5,2.6,0.5,1.8,-3.0,5.4,-57.00000000000001,73.5,-143.4,16
493,8352.0,-3.8000000000000003,2.0,0.7000000000000001,2.7,-3.4000000000000004,5.7,-29.0,74.2,-132.1,16
494,8371.0,-3.2,1.6,0.8,3.3000000000000003,-3.7,5.9,-13.900000000000002,73.0,-129.70000000000002,16
495,8391.0,-3.2,0.0,1.1,3.5,-4.800000000000001,6.5,29.200000000000003,98.0,-137.0,16
496,8403.0,-3.7,-0.30000000000000004,0.8,3.0,-4.9,6.300000000000001,46.9,105.80000000000001,-137.1,16
497,8419.0,-4.4,-1.0,0.1,2.3000000000000003,-5.2,5.9,74.0,106.70000000000002,-118.60000000000001,16
498,8441.0,-4.5,-1.7000000000000002,-0.4,2.1,-5.5,5.7,85.5,95.4,-83.4,16
499,8452.0,-4.1000000000000005,-2.1,-0.4,2.5,-5.7,5.9,89.5,86.60000000000001,-63.599999999999994,16
500,8469.0,-3.7,-2.4000000000000004,-0.30000000000000004,3.2,-6.300000000000001,6.5,101.0,61.50000000000001,-28.0,16
501,8486.0,-2.7,-3.5,0.0,3.7,-6.7,6.800000000000001,109.10000000000001,42.0,-12.299999999999999,16
502,8504.0,-2.5,-5.300000000000001,0.4,3.9000000000000004,-8.1,7.300000000000001,122.50000000000001,3.7000000000000006,12.100000000000001,16
503,8518.0,-3.6,-6.300000000000001,0.1,2.7,-8.9,7.2,133.9,-27.099999999999998,48.10000000000001,16
504,8535.0,-3.6,-6.4,0.0,2.8000000000000003,-8.9,7.0,135.9,-32.300000000000004,60.2,16
505,8552.0,-2.8000000000000003,-7.2,0.0,3.6,-9.5,7.1000000000000005,135.0,-38.7,107.5,16
506,8569.0,-1.2000000000000002,-6.4,-0.1,5.2,-8.6,7.0,128.20000000000002,-63.500000000000014,156.10000000000002,16
507,8585.0,-0.2,-6.0,-0.30000000000000004,6.2,-8.3,6.7,124.3,-84.9,174.20000000000002,16
508,8602.0,1.4000000000000001,-5.300000000000001,-1.3,7.9,-7.6000000000000005,5.7,114.99999999999999,-127.80000000000001,181.40000000000003,16
509,8619.0,1.8,-4.4,-1.6,8.6,-6.4,4.9,73.9,-144.8,156.5,16
510,8639.0,1.3,-2.9000000000000004,-1.4000000000000001,7.5,-5.300000000000001,5.300000000000001,-18.5,-93.2,108.8,16
511,8653.0,-0.9,-2.2,0.2,6.0,-5.1000000000000005,6.6000000000000005,-74.89999999999999,-45.6,86.89999999999999,16
512,8668.0,-2.5,-1.5,2.8000000000000003,4.4,-4.800000000000001,9.0,-161.8,29.200000000000003,74.80000000000001,16
513,8685.0,-2.4000000000000004,-1.2000000000000002,2.9000000000000004,4.0,-4.5,10.200000000000001,-177.3,44.10000000000001,82.8,16
514,8702.0,-2.0,0.4,6.0,4.5,-3.7,12.0,-148.4,25.900000000000002,111.80000000000001,16
515,8718.0,-0.5,1.8,6.0,5.800000000000001,-2.9000000000000004,11.8,-73.5,-22.9,132.8,16
516,8735.0,-0.30000000000000004,2.7,5.1000000000000005,6.0,-2.2,10.8,-37.9,-41.4,133.60000000000002,16
517,8753.0,-0.9,3.9000000000000004,3.0,5.300000000000001,-1.3,8.6,8.100000000000001,-65.89999999999999,122.79999999999998,16
518,8769.0,-0.8,4.1000000000000005,3.1,4.9,-1.1,8.1,21.200000000000003,-69.10000000000001,116.9,16
519,8785.0,-2.0,4.5,1.2000000000000002,4.0,-1.1,6.6000000000000005,39.2,-63.30000000000001,111.20000000000002,16
520,8802.0,-1.9000000000000001,4.7,0.2,4.0,-0.9,5.6000000000000005,47.80000000000001,-48.6,109.39999999999999,16
521,8818.0,-1.4000000000000001,5.0,-0.30000000000000004,4.4,-0.8,5.1000000000000005,46.300000000000004,-21.8,103.10000000000001,16
522,8835.0,-1.3,5.1000000000000005,-0.5,4.4,-0.8,4.9,43.00000000000001,-8.0,99.10000000000001,16
523,8853.0,-1.1,5.1000000000000005,-0.7000000000000001,4.4,-0.9,4.800000000000001,37.2,6.300000000000001,94.80000000000001,16
524,8871.0,-0.6000000000000001,4.9,-0.6000000000000001,4.6000000000000005,-1.2000000000000002,5.0,38.1,3.6000000000000005,95.69999999999999,16
525,8888.0,-0.4,4.7,-0.6000000000000001,4.800000000000001,-1.4000000000000001,5.0,41.6,-2.6,97.2,16
526,8902.0,0.5,4.4,-0.8,5.4,-1.8,4.9,47.80000000000001,-18.200000000000003,101.20000000000002,16
527,8918.0,1.8,3.9000000000000004,-0.8,6.6000000000000005,-2.4000000000000004,5.0,42.0,-23.0,100.2,16
528,8936.0,2.6,3.9000000000000004,-0.6000000000000001,7.300000000000001,-2.5,5.300000000000001,33.0,-20.3,97.00000000000001,16
529,8954.0,3.7,3.9000000000000004,0.1,8.200000000000001,-2.5,6.0,11.1,-5.300000000000001,82.3,16
530,8969.0,4.0,4.0,0.4,8.4,-2.5,6.300000000000001,6.600000000000001,-1.1,77.80000000000001,16
531,8985.0,4.5,4.0,0.9,8.8,-2.6,6.800000000000001,-6.2,10.1,60.8,16
532,9002.0,5.2,3.0,1.6,9.4,-3.7,7.5,-22.5,14.400000000000002,49.800000000000004,16
533,9021.0,6.4,3.4000000000000004,2.9000000000000004,10.4,-3.4000000000000004,8.700000000000001,-48.70000000000001,28.800000000000004,42.7,16
534,9041.0,6.9,3.8000000000000003,3.9000000000000004,10.8,-3.1,9.700000000000001,-65.0,45.2,36.300000000000004,16
535,9051.0,7.2,5.0,6.0,11.0,-2.0,11.700000000000001,-78.5,85.1,18.700000000000003,16
536,9068.0,7.9,3.0,7.300000000000001,11.4,-4.2,12.9,-43.70000000000001,94.4,0.6000000000000001,16
537,9085.0,8.3,2.3000000000000003,7.2,11.700000000000001,-5.0,12.8,-13.6,89.70000000000002,-5.6,16
538,9101.0,9.0,1.9000000000000001,6.5,12.5,-5.5,11.9,29.800000000000004,58.1,-14.900000000000002,16
539,9118.0,9.600000000000001,1.3,5.800000000000001,12.8,-6.0,11.700000000000001,38.900000000000006,18.1,-26.9,16
540,9135.0,9.3,0.7000000000000001,5.7,12.5,-6.4,11.600000000000001,44.00000000000001,-2.8,-35.1,16
541,9152.0,8.5,0.1,4.5,11.8,-6.9,10.5,73.7,-43.2,-58.900000000000006,16
542,9169.0,7.0,-1.1,2.2,10.600000000000001,-7.800000000000001,8.3,94.6,-69.00000000000001,-88.50000000000001,16
543,9185.0,6.800000000000001,-1.3,2.1,10.0,-7.6000000000000005,7.4,91.90000000000002,-71.39999999999999,-102.10000000000001,16
544,9202.0,4.9,-0.8,0.1,9.1,-7.0,6.4,57.60000000000001,-53.8,-125.30000000000001,16
545,9218.0,3.7,-0.4,0.30000000000000004,8.200000000000001,-6.300000000000001,6.6000000000000005,-0.2,-21.200000000000003,-145.8,16
546,9236.0,3.0,-0.4,1.1,7.7,-6.300000000000001,7.4,-23.0,-5.6,-156.9,16
547,9252.0,1.6,-0.5,1.9000000000000001,6.7,-6.1000000000000005,8.200000000000001,-35.4,14.200000000000001,-178.50000000000003,16
548,9269.0,-0.1,-0.30000000000000004,1.8,5.300000000000001,-5.7,8.1,-23.3,13.5,-193.3,16
549,9288.0,-2.8000000000000003,0.1,1.1,2.9000000000000004,-4.9,7.4,-13.399999999999999,7.500000000000001,-196.3,16
550,9302.0,-3.0,0.0,1.1,2.1,-4.3,7.1000000000000005,-10.4,7.500000000000001,-191.39999999999998,16
551,9318.0,-5.2,1.3,0.4,1.0,-3.2,6.6000000000000005,-4.800000000000001,20.400000000000002,-175.89999999999998,16
552,9336.0,-5.5,1.3,0.30000000000000004,0.8,-2.9000000000000004,6.5,-1.1,31.6,-168.5,16
553,9352.0,-5.9,1.5,0.0,0.5,-2.4000000000000004,6.300000000000001,8.700000000000001,51.2,-155.8,16
554,9368.0,-6.1000000000000005,1.5,-0.1,0.30000000000000004,-2.2,6.300000000000001,15.8,57.699999999999996,-149.4,16
555,9385.0,-6.300000000000001,1.1,-0.30000000000000004,0.2,-2.2,6.2,33.7,66.5,-134.9,16
556,9402.0,-6.4,0.4,-0.6000000000000001,0.1,-2.5,6.1000000000000005,55.5,70.2,-116.6,16
557,9419.0,-6.2,-0.6000000000000001,-0.9,0.2,-3.1,6.0,72.4,63.900000000000006,-98.8,16
558,9435.0,-5.9,-1.4000000000000001,-1.0,0.5,-3.8000000000000003,6.1000000000000005,84.3,55.400000000000006,-84.80000000000001,16
559,9455.0,-5.5,-2.4000000000000004,-1.1,1.4000000000000001,-5.0,6.2,108.3,33.400000000000006,-51.6,16
560,9469.0,-4.7,-3.4000000000000004,-1.2000000000000002,1.6,-5.2,6.1000000000000005,118.3,22.3,-34.400000000000006,16
561,9485.0,-4.1000000000000005,-3.8000000000000003,-1.5,2.2,-5.2,5.9,132.5,2.7,-4.7,16
562,9502.0,-3.8000000000000003,-4.1000000000000005,-1.8,2.4000000000000004,-5.2,5.7,144.0,-16.900000000000002,18.5,16
563,9521.0,-3.6,-5.0,-1.9000000000000001,2.7,-6.2,5.5,156.8,-40.1,37.300000000000004,16
564,9535.0,-3.8000000000000003,-6.6000000000000005,-1.8,2.5,-7.2,5.7,160.60000000000002,-54.6,48.2,16
565,9556.0,-3.7,-7.300000000000001,-1.5,2.8000000000000003,-7.6000000000000005,5.800000000000001,163.10000000000002,-88.8,81.50000000000001,16
566,9573.0,-4.5,-6.7,-1.1,2.2,-6.7,6.0,159.3,-114.00000000000001,131.79999999999998,16
567,9591.0,-4.2,-5.9,-1.3,2.9000000000000004,-5.9,5.5,157.9,-129.4,197.5,16
568,9605.0,-3.7,-5.5,-1.5,3.5,-5.6000000000000005,5.1000000000000005,159.5,-135.4,229.60000000000002,16
569,9618.0,-1.8,-4.2,-2.0,6.800000000000001,-4.2,4.1000000000000005,157.4,-130.70000000000002,276.00000000000006,16
570,9647.0,5.300000000000001,-1.6,-1.2000000000000002,13.100000000000001,-2.6,4.7,40.6,-56.6,262.8,16
571,9658.0,5.300000000000001,-1.2000000000000002,-1.1,13.8,-2.4000000000000004,5.300000000000001,-32.0,-7.200000000000001,232.0,16
572,9669.0,5.300000000000001,-1.2000000000000002,-1.1,13.8,-2.4000000000000004,5.300000000000001,-32.0,-7.200000000000001,232.0,16
573,9685.0,6.1000000000000005,-0.6000000000000001,0.7000000000000001,13.4,-3.1,7.6000000000000005,-164.20000000000002,97.8,165.4,16
574,9702.0,4.5,-0.1,4.6000000000000005,11.700000000000001,-3.0,10.600000000000001,-213.60000000000002,169.70000000000002,122.0,16
575,9721.0,3.8000000000000003,0.8,5.800000000000001,10.0,-2.6,12.3,-180.29999999999998,160.60000000000002,103.49999999999999,16
576,9742.0,2.3000000000000003,2.6,4.7,8.6,-1.6,11.0,-108.3,112.7,99.2,16
577,9751.0,1.9000000000000001,3.1,3.2,8.0,-1.3,9.600000000000001,-80.60000000000001,85.9,102.2,16
578,9770.0,1.3,3.6,0.1,7.1000000000000005,-1.1,6.5,-53.2,49.1,106.0,16
579,9787.0,1.5,3.8000000000000003,0.1,6.7,-1.2000000000000002,5.2,-41.7,25.8,107.9,16
580,9802.0,0.8,4.0,-2.5,5.800000000000001,-1.2000000000000002,3.1,-32.7,-29.600000000000005,119.1,16
581,9822.0,1.4000000000000001,4.0,-3.7,6.6000000000000005,-1.5,2.5,-35.9,-106.4,142.0,16
582,9843.0,3.2,4.800000000000001,-2.4000000000000004,9.0,-0.7000000000000001,3.9000000000000004,-65.89999999999999,-120.00000000000001,159.4,16
583,9853.0,4.4,5.300000000000001,-1.4000000000000001,9.5,-0.8,4.3,-87.10000000000001,-106.0,136.7,16
584,9868.0,3.8000000000000003,5.4,-0.4,8.8,-1.1,4.9,-85.4,-22.4,68.80000000000001,16
585,9886.0,3.2,5.7,-0.5,8.200000000000001,-0.9,4.800000000000001,-74.4,9.3,41.800000000000004,16
586,9902.0,1.8,6.2,-0.8,6.7,-0.6000000000000001,4.3,-65.10000000000001,25.900000000000002,15.899999999999999,16
587,9918.0,1.2000000000000002,5.7,-0.2,6.0,-1.2000000000000002,4.800000000000001,-64.30000000000001,7.6,30.3,16
588,9945.0,2.5,5.6000000000000005,0.0,7.2,-1.5,4.800000000000001,-57.1,-20.2,58.800000000000004,16
589,9952.0,3.8000000000000003,5.9,-0.1,8.5,-1.3,4.6000000000000005,-55.2,-35.599999999999994,67.9,16
590,9969.0,4.7,5.7,-0.1,9.3,-1.5,4.6000000000000005,-57.60000000000001,-59.20000000000001,72.2,16
591,9990.0,6.2,2.0,0.4,10.700000000000001,-5.6000000000000005,4.6000000000000005,-66.60000000000001,-141.2,70.6,16
592,10005.0,6.5,0.8,0.8,11.0,-6.9,4.800000000000001,-71.6,-147.8,74.10000000000001,16
593,10019.0,7.6000000000000005,-1.1,1.8,12.100000000000001,-9.1,5.4,-100.0,-122.0,94.80000000000001,16
594,10039.0,9.200000000000001,-1.0,2.9000000000000004,14.5,-9.1,6.6000000000000005,-132.8,-47.1,105.7,16
595,10051.0,12.0,-0.7000000000000001,4.800000000000001,16.3,-9.1,7.7,-141.8,7.400000000000001,94.5,16
596,10068.0,12.8,-0.9,5.6000000000000005,17.1,-9.9,9.1,-128.4,114.10000000000001,38.900000000000006,16
597,10085.0,13.0,-1.1,6.9,16.8,-9.8,9.3,-102.8,136.3,7.500000000000001,16
598,10104.0,12.0,-0.30000000000000004,6.300000000000001,15.8,-9.1,8.6,-36.0,122.60000000000001,-38.50000000000001,16
599,10118.0,11.3,-1.6,5.0,15.100000000000001,-10.3,7.4,22.9,80.4,-69.7,16
600,10136.0,9.1,-2.4000000000000004,3.3000000000000003,13.100000000000001,-11.0,5.9,67.00000000000001,37.0,-95.69999999999999,16
601,10154.0,7.1000000000000005,-2.6,2.3000000000000003,11.200000000000001,-11.100000000000001,5.0,83.30000000000001,17.799999999999997,-103.89999999999999,16
602,10168.0,6.2,-2.7,1.5,10.4,-11.0,4.3,92.3,4.6,-108.60000000000001,16
603,10185.0,3.5,-2.0,-0.5,8.1,-10.100000000000001,2.7,87.50000000000001,9.5,-119.20000000000002,16
604,10204.0,1.7000000000000002,-1.3,-1.2000000000000002,6.300000000000001,-8.0,1.7000000000000002,54.199999999999996,23.800000000000004,-123.00000000000001,16
605,10218.0,-0.5,0.6000000000000001,-2.3000000000000003,4.6000000000000005,-6.9,1.2000000000000002,23.400000000000002,42.800000000000004,-130.1,16
606,10235.0,-1.5,0.6000000000000001,-2.5,3.8000000000000003,-6.9,1.0,-6.600000000000001,63.0,-140.70000000000002,16
607,10256.0,-4.1000000000000005,-0.7000000000000001,-3.6,1.1,-6.9,-0.30000000000000004,-42.1,149.4,-183.4,16
608,10268.0,-4.1000000000000005,-0.7000000000000001,-3.6,0.4,-5.5,0.2,-49.0,216.6,-201.70000000000002,16
609,10285.0,-5.6000000000000005,1.9000000000000001,-3.6,0.30000000000000004,-4.7,0.4,-65.2,247.8,-204.0,16
610,10302.0,-5.6000000000000005,3.1,-2.6,0.4,-3.3000000000000003,1.8,-112.60000000000001,217.3,-186.8,16
611,10320.0,-5.4,3.2,-1.0,0.7000000000000001,-3.0,3.5,-151.6,101.7,-114.6,16
612,10336.0,-4.9,2.1,-0.1,1.2000000000000002,-4.1000000000000005,4.4,-152.8,52.400000000000006,-82.0,16
613,10353.0,-4.1000000000000005,1.8,1.0,2.2,-4.4,5.2,-107.00000000000001,17.400000000000002,-47.0,16
614,10372.0,-3.0,2.0,1.0,3.3000000000000003,-4.3,5.1000000000000005,-35.8,42.3,-48.50000000000001,16
615,10388.0,-2.7,2.1,0.7000000000000001,4.0,-3.9000000000000004,4.3,-8.2,72.0,-53.300000000000004,16
616,10402.0,-2.3000000000000003,2.2,0.1,4.2,-4.0,4.2,-5.2,80.7,-54.9,16
617,10418.0,-2.1,1.2000000000000002,0.1,4.3,-4.800000000000001,4.4,7.6,71.9,-51.9,16
618,10435.0,-2.1,0.5,0.0,4.3,-5.5,4.5,22.2,59.699999999999996,-48.2,16
619,10463.0,-2.9000000000000004,-1.3,-0.6000000000000001,3.5,-7.1000000000000005,4.1000000000000005,69.60000000000001,25.0,-25.6,16
620,10469.0,-2.8000000000000003,-1.6,-0.9,3.6,-7.300000000000001,3.9000000000000004,78.3,18.0,-12.299999999999999,16
621,10489.0,-2.2,-2.0,-1.1,4.2,-7.5,3.9000000000000004,87.80000000000001,8.8,12.7,16
622,10502.0,-2.1,-2.0,-1.2000000000000002,4.5,-7.7,4.0,92.3,-1.3,23.099999999999998,16
623,10519.0,-1.5,-3.0,-1.2000000000000002,5.2,-9.1,4.2,109.30000000000001,-32.8,41.4,16
624,10537.0,-0.9,-5.0,-1.0,5.300000000000001,-10.9,4.4,123.6,-65.6,60.8,16
625,10563.0,-1.9000000000000001,-5.300000000000001,-1.7000000000000002,4.4,-10.4,3.7,130.8,-91.2,85.5,16
626,10569.0,-2.3000000000000003,-4.3,-2.4000000000000004,4.0,-9.4,3.1,129.9,-101.7,104.00000000000001,16
627,10585.0,-2.3000000000000003,-3.6,-2.8000000000000003,4.0,-8.700000000000001,2.7,125.2,-114.3,125.9,16
628,10602.0,-1.1,-1.7000000000000002,-3.8000000000000003,5.2,-6.800000000000001,1.6,106.60000000000001,-146.0,165.5,16
629,10620.0,0.1,-2.2,-3.9000000000000004,7.2,-8.200000000000001,1.2000000000000002,75.60000000000001,-162.7,174.20000000000002,16
630,10636.0,1.6,-3.0,-4.2,8.4,-8.700000000000001,1.0,53.8,-155.3,168.9,16
631,10663.0,2.8000000000000003,-3.6,-3.1,9.0,-9.5,1.7000000000000002,-58.800000000000004,-52.7,122.50000000000001,16
632,10668.0,2.9000000000000004,-2.9000000000000004,-1.9000000000000001,9.0,-9.0,2.7,-84.4,-28.600000000000005,113.8,16
633,10685.0,3.0,-2.4000000000000004,-0.9,9.0,-8.700000000000001,3.7,-136.9,13.8,100.6,16
634,10702.0,3.4000000000000004,-2.2,2.0,9.1,-8.9,6.300000000000001,-218.4,68.2,87.7,16
635,10719.0,3.5,-1.6,4.800000000000001,8.9,-8.9,8.6,-233.29999999999998,84.3,80.7,16
636,10735.0,3.5,-0.5,5.6000000000000005,8.700000000000001,-8.0,9.200000000000001,-213.70000000000002,84.1,78.4,16
637,10753.0,3.6,2.4000000000000004,5.9,8.5,-5.4,9.200000000000001,-149.50000000000003,57.699999999999996,73.8,16
638,10775.0,4.0,4.2,5.300000000000001,8.6,-3.9000000000000004,8.3,-89.0,9.600000000000001,70.2,16
639,10787.0,4.1000000000000005,4.3,5.5,8.5,-2.7,7.4,-66.1,-12.7,66.1,16
640,10802.0,4.0,5.6000000000000005,4.800000000000001,8.200000000000001,-2.5,7.300000000000001,-34.60000000000001,-47.3,48.10000000000001,16
641,10819.0,2.2,6.2,4.0,6.5,-2.2,6.5,-0.8,-58.3,21.6,16
642,10835.0,1.2000000000000002,6.5,3.4000000000000004,5.6000000000000005,-2.0,5.800000000000001,17.0,-59.300000000000004,11.8,16
643,10851.0,0.6000000000000001,6.5,3.0,4.4,-2.0,5.0,41.6,-62.7,4.4,16
644,10868.0,-0.30000000000000004,6.2,2.4000000000000004,4.1000000000000005,-2.2,4.800000000000001,48.9,-64.2,8.899999999999999,16
645,10885.0,-0.4,6.2,2.3000000000000003,4.1000000000000005,-2.3000000000000003,4.800000000000001,48.70000000000001,-59.80000000000001,12.4,16
646,10902.0,-0.6000000000000001,5.5,2.1,3.8000000000000003,-2.9000000000000004,4.6000000000000005,54.50000000000001,-48.70000000000001,14.5,16
647,10919.0,-0.9,5.4,1.2000000000000002,3.5,-3.0,3.8000000000000003,68.60000000000001,-45.6,24.0,16
648,10935.0,-0.4,5.2,0.6000000000000001,4.0,-3.1,3.3000000000000003,70.10000000000001,-43.300000000000004,32.400000000000006,16
649,10954.0,0.9,4.9,0.2,5.2,-3.5,3.0,58.800000000000004,-33.800000000000004,45.7,16
650,10969.0,2.7,4.5,0.0,6.9,-3.9000000000000004,3.0,33.300000000000004,-13.8,46.1,16
651,10986.0,2.7,4.5,0.0,7.5,-4.0,3.1,16.4,2.2,40.300000000000004,16
652,11002.0,4.800000000000001,4.1000000000000005,0.7000000000000001,8.9,-4.3,3.7,-24.3,36.1,19.200000000000003,16
653,11019.0,5.2,3.8000000000000003,1.4000000000000001,9.200000000000001,-4.6000000000000005,4.4,-44.6,51.4,7.500000000000001,16
654,11035.0,5.5,3.4000000000000004,3.1,9.4,-5.1000000000000005,6.0,-71.7,67.10000000000001,-9.700000000000001,16
655,11055.0,5.9,0.1,5.5,9.8,-8.5,8.200000000000001,-53.10000000000001,57.00000000000001,-18.0,16
656,11069.0,6.0,-1.3,5.9,9.9,-9.9,8.5,-27.400000000000002,48.50000000000001,-13.6,16
657,11085.0,6.0,-1.3,5.9,10.3,-10.3,8.4,0.5,37.0,-4.4,16
658,11110.0,9.3,-3.2,4.6000000000000005,13.200000000000001,-11.8,7.4,41.4,19.1,27.800000000000004,16
659,11121.0,9.4,-3.2,4.5,14.200000000000001,-11.700000000000001,7.0,45.099999999999994,19.200000000000003,31.400000000000002,16
660,11135.0,11.5,-2.6,3.5,15.3,-11.200000000000001,6.5,51.6,20.0,34.400000000000006,16
661,11151.0,12.700000000000001,-1.5,2.2,16.3,-10.0,5.300000000000001,61.0,8.899999999999999,11.700000000000001,16
662,11174.0,11.4,-0.9,0.30000000000000004,15.0,-9.4,3.6,76.3,-6.600000000000001,-51.300000000000004,16
663,11185.0,10.700000000000001,-1.3,-0.30000000000000004,14.4,-9.700000000000001,3.1,82.3,-9.2,-86.8,16
664,11201.0,7.6000000000000005,-2.4000000000000004,-1.6,11.600000000000001,-10.5,2.0,66.1,-0.30000000000000004,-142.3,16
665,11219.0,4.5,-2.7,-2.0,8.9,-10.5,1.9000000000000001,14.400000000000002,27.099999999999998,-172.5,16
666,11235.0,3.3000000000000003,-2.5,-1.8,7.9,-10.200000000000001,2.1,-17.200000000000003,46.1,-179.5,16
667,11252.0,1.9000000000000001,-1.6,-0.7000000000000001,6.9,-9.1,3.2,-73.5,83.5,-177.6,16
668,11269.0,1.1,-0.5,0.6000000000000001,6.4,-7.800000000000001,4.4,-96.1,102.4,-174.10000000000002,16
669,11285.0,0.6000000000000001,-0.2,0.9,6.2,-7.4,4.7,-91.6,102.4,-174.6,16
670,11307.0,-1.3,0.6000000000000001,1.0,4.7,-6.1000000000000005,4.800000000000001,-42.400000000000006,75.9,-174.6,16
671,11324.0,-2.0,0.8,0.7000000000000001,4.1000000000000005,-5.800000000000001,4.5,-26.300000000000004,65.3,-171.50000000000003,16
672,11336.0,-3.1,0.8,-0.1,3.4000000000000004,-5.4,3.9000000000000004,-7.1000000000000005,52.2,-160.10000000000002,16
673,11352.0,-3.5,0.8,-0.4,3.1,-5.300000000000001,3.6,-3.0,49.6,-153.0,16
674,11368.0,-3.9000000000000004,0.7000000000000001,-0.7000000000000001,2.9000000000000004,-5.1000000000000005,3.4000000000000004,2.7,52.400000000000006,-138.00000000000003,16
675,11385.0,-4.0,0.6000000000000001,-0.8,2.9000000000000004,-5.0,3.3000000000000003,5.1000000000000005,56.6,-130.8,16
676,11402.0,-4.0,0.4,-1.1,3.1,-4.9,3.3000000000000003,11.4,62.6,-116.30000000000001,16
677,11419.0,-3.5,-0.30000000000000004,-1.2000000000000002,3.6,-5.300000000000001,3.3000000000000003,20.5,62.6,-105.7,16
678,11435.0,-3.5,-0.7000000000000001,-1.3,3.7,-5.5,3.3000000000000003,26.1,61.7,-102.4,16
679,11458.0,-3.8000000000000003,-1.1,-1.5,3.4000000000000004,-5.4,3.3000000000000003,34.900000000000006,55.5,-93.2,16
680,11468.0,-4.0,-1.0,-1.6,3.2,-5.300000000000001,3.4000000000000004,44.300000000000004,41.4,-80.30000000000001,16
681,11485.0,-4.2,-1.1,-1.6,3.2,-5.2,3.5,51.300000000000004,32.400000000000006,-73.5,16
682,11502.0,-4.3,-1.4000000000000001,-1.8,3.1,-5.300000000000001,3.4000000000000004,67.5,11.8,-58.3,16
683,11519.0,-4.5,-2.0,-2.2,2.9000000000000004,-5.7,3.0,80.9,-5.8,-44.8,16
684,11536.0,-4.800000000000001,-2.7,-2.7,2.6,-6.1000000000000005,2.7,81.90000000000002,-13.700000000000001,-32.6,16
685,11552.0,-5.1000000000000005,-2.8000000000000003,-2.8000000000000003,2.4000000000000004,-6.0,2.6,76.2,-10.8,-26.700000000000003,16
686,11569.0,-5.5,-3.2,-2.4000000000000004,2.1,-6.2,3.1,62.4,-1.3,-15.000000000000002,16
687,11586.0,-5.4,-3.6,-2.0,2.2,-6.5,3.5,53.7,3.2,-4.2,16
688,11602.0,-4.6000000000000005,-4.3,-1.0,3.0,-7.1000000000000005,4.6000000000000005,46.800000000000004,-0.1,26.9,16
689,11618.0,-3.6,-4.5,-0.2,3.9000000000000004,-7.300000000000001,5.4,53.300000000000004,-21.900000000000002,59.60000000000001,16
690,11637.0,-2.4000000000000004,-3.8000000000000003,0.4,5.2,-6.7,6.0,60.8,-52.400000000000006,86.89999999999999,16
691,11652.0,-2.4000000000000004,-3.9000000000000004,1.0,5.1000000000000005,-6.800000000000001,6.5,60.900000000000006,-63.8,94.10000000000001,16
692,11669.0,-3.7,-4.0,1.3,3.9000000000000004,-7.1000000000000005,6.7,63.8,-79.9,112.80000000000001,16
693,11686.0,-3.8000000000000003,-4.3,1.1,3.8000000000000003,-7.5,6.5,68.3,-84.3,132.8,16
694,11702.0,-3.0,-4.6000000000000005,0.6000000000000001,5.4,-8.4,5.4,61.9,-80.4,181.8,16
695,11719.0,1.4000000000000001,-5.0,-0.30000000000000004,8.9,-8.8,4.800000000000001,12.5,-58.400000000000006,218.50000000000003,16
696,11735.0,3.4000000000000004,-5.0,0.30000000000000004,10.700000000000001,-9.200000000000001,5.300000000000001,-27.5,-39.699999999999996,221.70000000000002,16
697,11753.0,4.6000000000000005,-5.0,2.5,11.700000000000001,-9.700000000000001,7.4,-115.50000000000003,6.2,202.60000000000002,16
698,11781.0,4.7,-3.5,5.0,10.700000000000001,-8.8,10.100000000000001,-183.4,51.70000000000001,171.3,16
699,11785.0,4.7,-3.5,5.0,10.700000000000001,-8.8,10.100000000000001,-183.4,51.70000000000001,171.3,16
700,11801.0,3.6,0.0,6.6000000000000005,9.600000000000001,-6.5,10.9,-167.1,41.50000000000001,161.00000000000003,16
701,11818.0,3.0,2.5,6.6000000000000005,8.6,-4.5,10.600000000000001,-116.9,2.5,154.00000000000003,16
702,11837.0,2.8000000000000003,3.9000000000000004,5.9,8.200000000000001,-3.4000000000000004,9.700000000000001,-83.2,-22.700000000000003,150.8,16
703,11852.0,3.0,4.7,4.2,8.0,-2.9000000000000004,7.800000000000001,-23.0,-60.8,138.6,16
704,11873.0,2.2,5.5,2.8000000000000003,7.0,-2.4000000000000004,6.2,12.299999999999999,-82.50000000000001,117.5,16
705,11885.0,1.9000000000000001,5.6000000000000005,2.4000000000000004,6.5,-2.3000000000000003,5.800000000000001,23.3,-84.6,107.9,16
706,11902.0,1.1,5.6000000000000005,1.4000000000000001,5.5,-2.4000000000000004,4.800000000000001,36.2,-72.4,94.7,16
707,11918.0,0.9,5.5,1.1,5.300000000000001,-2.6,4.4,40.1,-62.0,91.7,16
708,11937.0,0.9,5.5,1.1,5.300000000000001,-2.6,4.4,40.1,-62.0,91.7,16
709,11956.0,1.3,5.7,0.1,5.300000000000001,-2.6,3.6,54.699999999999996,-38.800000000000004,83.5,16
710,11969.0,1.1,5.800000000000001,-0.30000000000000004,4.9,-2.5,3.2,71.7,-47.900000000000006,78.7,16
711,11985.0,1.0,5.7,-0.6000000000000001,4.800000000000001,-2.6,3.1,83.00000000000001,-57.3,77.9,16
712,12002.0,1.2000000000000002,5.0,-1.3,4.800000000000001,-3.3000000000000003,2.5,105.20000000000002,-79.39999999999999,80.7,16
713,12018.0,1.6,4.6000000000000005,-1.9000000000000001,5.300000000000001,-3.6,2.0,114.50000000000001,-92.7,83.30000000000001,16
714,12035.0,2.2,4.6000000000000005,-2.4000000000000004,5.7,-3.6,1.7000000000000002,115.7,-97.8,83.70000000000002,16
715,12051.0,3.0,3.5,-2.8000000000000003,6.300000000000001,-4.6000000000000005,1.6,103.2,-96.20000000000002,79.7,16
716,12068.0,3.6,3.4000000000000004,-2.7,6.9,-4.7,1.8,70.6,-83.00000000000001,78.4,16
717,12085.0,3.9000000000000004,3.3000000000000003,-2.4000000000000004,7.1000000000000005,-4.800000000000001,2.1,49.4,-69.7,76.80000000000001,16
718,12110.0,6.2,3.6,-0.4,9.200000000000001,-4.5,4.3,-17.9,-13.8,71.8,16
719,12118.0,7.0,3.9000000000000004,0.4,9.9,-4.3,5.0,-38.60000000000001,-2.2,69.9,16
720,12135.0,8.200000000000001,3.9000000000000004,1.8,11.100000000000001,-4.3,6.300000000000001,-55.0,3.3000000000000007,65.0,16
721,12151.0,9.5,1.5,3.9000000000000004,12.200000000000001,-6.9,8.200000000000001,-63.10000000000001,9.3,44.7,16
722,12168.0,10.5,-0.5,4.6000000000000005,13.0,-9.0,8.8,-44.5,21.900000000000002,28.500000000000004,16
723,12185.0,10.600000000000001,-0.4,4.7,13.5,-8.4,8.6,-41.900000000000006,27.6,24.8,16
724,12202.0,13.200000000000001,2.0,4.9,15.5,-6.6000000000000005,8.9,-70.7,40.800000000000004,16.6,16
725,12220.0,14.5,2.8000000000000003,6.0,17.2,-6.300000000000001,10.3,-91.90000000000002,57.49999999999999,-25.5,16
726,12239.0,14.8,0.7000000000000001,7.5,16.400000000000002,-9.5,11.3,-67.00000000000001,81.8,-101.6,16
727,12255.0,12.100000000000001,-2.5,7.7,14.5,-11.4,11.200000000000001,-44.7,87.00000000000001,-137.1,16
728,12268.0,8.9,-3.9000000000000004,6.800000000000001,11.700000000000001,-12.600000000000001,10.3,3.5,84.80000000000001,-174.20000000000002,16
729,12285.0,7.800000000000001,-4.1000000000000005,6.0,10.8,-12.700000000000001,9.600000000000001,26.1,73.4,-174.5,16
730,12304.0,6.300000000000001,-4.0,4.0,9.700000000000001,-12.4,7.800000000000001,60.300000000000004,38.0,-159.9,16
731,12318.0,5.300000000000001,-3.1,2.0,9.200000000000001,-11.200000000000001,6.0,80.10000000000001,2.1,-151.8,16
732,12338.0,4.1000000000000005,-2.3000000000000003,0.9,7.6000000000000005,-9.4,4.4,82.10000000000001,-26.000000000000004,-156.3,16
733,12357.0,1.7000000000000002,-0.9,-0.7000000000000001,5.7,-7.800000000000001,3.2,68.2,-32.5,-163.10000000000002,16
734,12369.0,1.7000000000000002,-0.9,-0.7000000000000001,4.9,-7.2,2.5,55.900000000000006,-27.5,-165.20000000000002,16
735,12385.0,-0.6000000000000001,0.0,-2.1,4.6000000000000005,-7.0,2.3000000000000003,40.1,-19.700000000000003,-166.10000000000002,16
736,12402.0,-1.8,0.2,-2.5,3.8000000000000003,-6.4,2.0,-1.0,0.8,-165.4,16
737,12418.0,-2.7,0.5,-2.1,3.3000000000000003,-5.9,2.3000000000000003,-44.2,19.700000000000003,-162.0,16
738,12436.0,-3.1,0.7000000000000001,-1.6,3.0,-5.6000000000000005,2.9000000000000004,-59.9,29.800000000000004,-160.4,16
739,12454.0,-4.0,1.1,-0.7000000000000001,2.4000000000000004,-4.9,3.7,-71.30000000000001,48.10000000000001,-158.39999999999998,16
740,12468.0,-4.3,1.2000000000000002,-0.30000000000000004,2.2,-4.6000000000000005,4.0,-66.4,55.60000000000001,-155.1,16
741,12485.0,-4.7,1.3,0.2,2.0,-4.4,4.6000000000000005,-57.9,57.400000000000006,-152.0,16
742,12506.0,-5.0,0.7000000000000001,0.5,2.0,-4.6000000000000005,4.800000000000001,-30.799999999999997,51.0,-142.0,16
743,12518.0,-5.1000000000000005,0.1,0.2,2.1,-4.9,4.6000000000000005,5.4,34.1,-127.9,16
744,12540.0,-5.4,-0.5,-0.5,1.9000000000000001,-5.2,4.0,39.300000000000004,13.900000000000002,-112.60000000000001,16
745,12555.0,-5.6000000000000005,-0.9,-0.9,1.8,-5.4,3.7,52.2,5.6,-104.80000000000001,16
746,12571.0,-5.800000000000001,-2.1,-1.3,1.8,-6.300000000000001,3.4000000000000004,69.20000000000002,-3.9,-87.10000000000001,16
747,12588.0,-5.4,-3.6,-1.4000000000000001,2.2,-7.4,3.4000000000000004,74.60000000000001,-5.1000000000000005,-66.60000000000001,16
748,12604.0,-5.300000000000001,-3.9000000000000004,-1.4000000000000001,2.4000000000000004,-7.6000000000000005,3.5,73.7,-2.1,-54.6,16
749,12619.0,-4.5,-3.9000000000000004,-1.2000000000000002,3.2,-7.4,3.7,69.7,2.8,-28.600000000000005,16
750,12635.0,-4.0,-4.0,-0.9,3.8000000000000003,-7.300000000000001,4.0,69.00000000000001,-0.6000000000000001,-15.6,16
751,12652.0,-2.8000000000000003,-4.9,-0.30000000000000004,5.0,-8.1,4.800000000000001,76.0,-21.900000000000002,6.8,16
752,12668.0,-3.3000000000000003,-6.6000000000000005,0.30000000000000004,4.5,-9.700000000000001,5.4,87.50000000000001,-45.7,22.6,16
753,12685.0,-4.2,-6.7,0.30000000000000004,3.7,-9.700000000000001,5.4,95.4,-54.0,35.4,16
754,12702.0,-5.2,-6.5,-0.2,2.7,-9.5,4.800000000000001,114.00000000000001,-69.4,83.30000000000001,16
755,12718.0,-2.9000000000000004,-5.6000000000000005,-0.9,5.1000000000000005,-8.6,4.0,121.2,-82.10000000000001,146.3,16
756,12742.0,-0.5,-4.7,-1.3,8.6,-7.7,3.3000000000000003,107.19999999999999,-106.5,177.6,16
757,12752.0,2.4000000000000004,-3.9000000000000004,-1.6,10.3,-7.4,3.1,87.2,-114.6,176.40000000000003,16
758,12771.0,3.2,-3.5,-1.2000000000000002,11.3,-7.1000000000000005,3.8000000000000003,17.799999999999997,-95.30000000000001,150.70000000000002,16
759,12786.0,3.0,-2.9000000000000004,0.2,10.8,-6.9,4.6000000000000005,-25.5,-66.0,131.7,16
760,12802.0,0.8,-2.1,2.7,8.5,-6.5,6.800000000000001,-89.70000000000002,11.8,104.4,16
761,12821.0,-0.9,-0.6000000000000001,4.6000000000000005,6.6000000000000005,-5.4,8.700000000000001,-96.0,49.300000000000004,111.0,16
762,12849.0,-0.6000000000000001,1.2000000000000002,5.300000000000001,6.7,-4.0,9.4,-44.4,19.700000000000003,142.90000000000003,16
763,12851.0,0.30000000000000004,1.9000000000000001,4.9,7.4,-3.5,8.9,-9.5,-12.9,154.7,16
764,12869.0,1.2000000000000002,2.5,3.5,8.0,-3.3000000000000003,7.5,48.50000000000001,-65.5,160.60000000000002,16
765,12885.0,1.6,2.7,2.8000000000000003,8.3,-3.3000000000000003,6.800000000000001,66.3,-81.0,156.8,16
766,12902.0,1.7000000000000002,3.3000000000000003,1.8,8.200000000000001,-3.0,5.7,84.3,-79.1,134.5,16
767,12918.0,0.7000000000000001,3.6,1.1,7.0,-2.8000000000000003,5.0,88.50000000000001,-61.9,114.9,16
768,12948.0,-0.30000000000000004,4.0,0.5,5.9,-2.5,4.5,90.19999999999999,-45.400000000000006,104.50000000000001,16
769,12953.0,-0.30000000000000004,3.9000000000000004,0.2,5.800000000000001,-2.6,4.2,91.90000000000002,-42.400000000000006,104.7,16
770,12970.0,-0.1,3.9000000000000004,0.0,5.7,-2.7,3.8000000000000003,95.0,-42.0,105.5,16
771,12988.0,-0.2,3.7,-1.1,5.5,-3.0,3.3000000000000003,113.8,-50.8,103.60000000000001,16
772,13002.0,-0.30000000000000004,3.5,-1.5,5.300000000000001,-3.2,3.0,120.10000000000001,-56.400000000000006,102.5,16
773,13019.0,-0.30000000000000004,3.5,-1.9000000000000001,5.300000000000001,-3.1,2.4000000000000004,127.40000000000002,-68.2,105.7,16
774,13042.0,0.2,3.4000000000000004,-2.4000000000000004,5.7,-3.7,2.3000000000000003,125.60000000000001,-74.30000000000001,110.2,16
775,13052.0,1.0,2.2,-2.5,6.300000000000001,-4.5,2.4000000000000004,122.10000000000002,-76.80000000000001,114.00000000000001,16
776,13070.0,1.5,1.8,-2.5,7.800000000000001,-5.4,2.5,108.0,-73.4,126.60000000000002,16
777,13093.0,5.7,1.5,-2.1,10.600000000000001,-5.2,3.0,82.9,-51.6,135.4,16
778,13103.0,6.7,1.8,-2.0,11.5,-5.0,3.2,67.7,-35.5,130.70000000000002,16
779,13118.0,9.1,1.8,-0.7000000000000001,13.700000000000001,-5.1000000000000005,4.5,34.0,-17.0,106.60000000000001,16
780,13136.0,10.100000000000001,-0.4,1.2000000000000002,14.5,-7.4,6.5,7.699999999999999,-8.8,79.5,16
781,13151.0,10.4,-1.7000000000000002,2.1,14.700000000000001,-8.700000000000001,7.4,-0.7,-0.30000000000000004,71.19999999999999,16
782,13170.0,12.8,-3.2,3.5,16.900000000000002,-10.3,8.8,-11.8,32.400000000000006,71.9,16
783,13185.0,13.0,-3.1,3.5,18.2,-10.200000000000001,9.1,-18.700000000000003,45.7,75.5,16
784,13207.0,16.5,-1.9000000000000001,4.2,20.900000000000002,-8.8,9.700000000000001,-23.6,50.2,55.7,16
785,13219.0,17.900000000000002,-1.7000000000000002,4.4,21.200000000000003,-9.700000000000001,9.600000000000001,7.0,27.9,-12.8,16
786,13236.0,17.7,-2.2,4.2,20.1,-10.4,8.9,22.700000000000003,16.900000000000002,-54.4,16
787,13256.0,10.200000000000001,-3.7,1.5,14.0,-10.9,6.9,29.800000000000004,-0.1,-145.20000000000002,16
788,13269.0,8.5,-3.7,1.0,12.5,-10.700000000000001,6.6000000000000005,20.8,-3.2,-154.9,16
789,13289.0,6.0,-2.6,0.5,10.4,-9.4,6.0,5.500000000000001,-18.8,-164.5,16
790,13302.0,5.2,-2.1,0.2,9.8,-8.700000000000001,5.800000000000001,1.5,-28.200000000000003,-171.90000000000003,16
791,13318.0,3.5,-1.2000000000000002,-0.2,7.5,-6.9,5.0,-13.100000000000001,-41.300000000000004,-196.7,16
792,13338.0,0.0,0.0,-0.5,4.7,-5.7,4.9,-40.2,-39.300000000000004,-221.50000000000003,16
793,13357.0,-2.6,0.4,-0.1,3.2,-5.4,5.1000000000000005,-54.199999999999996,-31.400000000000002,-230.89999999999998,16
794,13368.0,-5.9,0.6000000000000001,0.8,0.4,-4.800000000000001,5.9,-67.60000000000001,-8.5,-236.00000000000003,16
795,13385.0,-7.1000000000000005,0.7000000000000001,1.3,-0.5,-4.6000000000000005,6.300000000000001,-68.1,11.3,-233.0,16
796,13401.0,-8.5,0.6000000000000001,1.5,-2.0,-3.9000000000000004,6.6000000000000005,-48.0,49.699999999999996,-210.8,16
797,13418.0,-9.3,1.1,1.2000000000000002,-2.1,-3.3000000000000003,6.300000000000001,-10.200000000000001,69.20000000000002,-171.20000000000002,16
798,13435.0,-8.6,1.0,0.7000000000000001,-1.3,-3.2,5.800000000000001,9.899999999999999,70.3,-148.3,16
799,13456.0,-7.300000000000001,0.1,-0.4,0.5,-3.9000000000000004,4.6000000000000005,62.800000000000004,48.0,-93.7,16
800,13472.0,-6.4,-0.8,-1.4000000000000001,0.9,-4.2,4.2,77.1,38.2,-81.3,16
801,13485.0,-6.2,-1.3,-1.9000000000000001,1.1,-4.5,3.8000000000000003,89.30000000000001,29.300000000000004,-70.9,16
802,13502.0,-6.0,-2.1,-2.8000000000000003,1.3,-5.0,3.0,104.60000000000001,15.5,-51.6,16
803,13518.0,-6.0,-2.6,-3.5,1.4000000000000001,-5.1000000000000005,2.4000000000000004,106.30000000000001,9.8,-29.700000000000006,16
804,13544.0,-5.800000000000001,-3.1,-3.9000000000000004,1.6,-5.4,2.2,101.50000000000001,10.5,-4.300000000000001,16
805,13556.0,-5.4,-3.4000000000000004,-3.9000000000000004,2.0,-5.6000000000000005,2.2,99.60000000000001,9.3,9.8,16
806,13568.0,-4.4,-4.1000000000000005,-3.7,2.9000000000000004,-6.0,2.5,97.2,-0.6000000000000001,39.0,16
807,13586.0,-4.2,-4.3,-3.6,3.2,-6.300000000000001,2.6,98.0,-7.200000000000001,52.80000000000001,16
808,13601.0,-3.7,-5.2,-3.4000000000000004,3.7,-7.1000000000000005,2.9000000000000004,104.2,-26.400000000000006,80.8,16
809,13618.0,-3.3000000000000003,-7.1000000000000005,-2.9000000000000004,4.1000000000000005,-8.9,3.4000000000000004,107.7,-45.9,117.20000000000002,16
810,13635.0,-3.3000000000000003,-7.9,-2.8000000000000003,4.0,-9.8,3.5,110.4,-53.10000000000001,141.4,16
811,13657.0,-1.7000000000000002,-8.1,-3.3000000000000003,5.6000000000000005,-10.100000000000001,2.9000000000000004,119.1,-63.10000000000001,199.9,16
812,13669.0,-0.6000000000000001,-7.800000000000001,-3.5,8.9,-9.200000000000001,2.1,113.3,-71.5,245.00000000000003,16
813,13685.0,1.7000000000000002,-6.7,-3.9000000000000004,10.3,-8.8,1.8,101.80000000000001,-81.10000000000001,253.6,16
814,13701.0,6.0,-4.9,-4.7,13.3,-7.9,1.2000000000000002,54.4,-96.60000000000001,238.60000000000005,16
815,13719.0,7.0,-3.9000000000000004,-3.7,14.200000000000001,-7.4,2.0,-50.900000000000006,-55.7,198.50000000000003,16
816,13735.0,6.9,-3.7,-2.2,14.0,-7.5,3.4000000000000004,-117.30000000000001,-7.8,172.4,16
817,13752.0,5.2,-3.5,1.8,12.0,-8.0,7.2,-223.00000000000003,101.7,121.80000000000001,16
818,13770.0,3.2,-2.8000000000000003,4.5,9.600000000000001,-8.0,9.8,-239.89999999999998,157.9,93.00000000000001,16
819,13785.0,2.7,-2.0,4.800000000000001,8.9,-7.5,10.100000000000001,-212.8,149.0,92.90000000000002,16
820,13801.0,2.3000000000000003,-0.30000000000000004,4.800000000000001,7.7,-5.6000000000000005,9.4,-122.90000000000002,48.50000000000001,112.9,16
821,13818.0,1.8,1.9000000000000001,2.2,7.2,-4.5,7.2,-56.800000000000004,-43.2,132.2,16
822,13836.0,1.9000000000000001,2.7,1.5,7.2,-4.0,6.300000000000001,-22.8,-93.7,141.8,16
823,13853.0,2.4000000000000004,4.0,1.4000000000000001,7.6000000000000005,-2.9000000000000004,6.1000000000000005,13.399999999999999,-138.20000000000002,143.4,16
824,13872.0,2.1,4.7,2.1,7.2,-2.4000000000000004,6.5,26.300000000000004,-91.30000000000001,107.6,16
825,13885.0,1.7000000000000002,4.9,2.3000000000000003,6.7,-2.3000000000000003,6.7,36.300000000000004,-42.0,81.0,16
826,13902.0,1.3,5.300000000000001,2.7,6.0,-2.0,7.4,56.800000000000004,38.1,41.0,16
827,13918.0,1.1,4.1000000000000005,3.0,5.5,-3.5,7.6000000000000005,84.3,58.2,24.8,16
828,13936.0,0.4,3.1,2.3000000000000003,4.9,-4.4,6.9,116.1,48.0,25.1,16
829,13961.0,0.0,3.0,0.7000000000000001,4.4,-3.9000000000000004,6.1000000000000005,116.1,54.0,24.5,16
830,13968.0,-0.7000000000000001,3.3000000000000003,0.5,3.7,-3.5,6.1000000000000005,102.60000000000001,55.400000000000006,29.0,16
831,13985.0,-0.9,3.2,0.6000000000000001,3.4000000000000004,-3.6,6.300000000000001,89.10000000000001,52.80000000000001,39.2,16
832,14003.0,-0.1,2.6,0.8,3.9000000000000004,-4.0,6.800000000000001,87.2,39.2,69.00000000000001,16
833,14019.0,1.0,2.6,0.4,5.5,-3.9000000000000004,6.4,106.5,9.2,91.7,16
834,14041.0,2.9000000000000004,2.4000000000000004,-0.5,6.7,-4.2,5.9,115.3,-28.1,97.2,16
835,14059.0,3.5,1.6,-1.1,6.9,-4.6000000000000005,5.6000000000000005,106.5,-46.7,95.60000000000002,16
836,14069.0,3.9000000000000004,1.3,-1.2000000000000002,7.300000000000001,-4.800000000000001,5.7,95.20000000000002,-42.900000000000006,95.60000000000002,16
837,14086.0,4.0,1.3,-1.2000000000000002,7.6000000000000005,-4.9,5.800000000000001,80.4,-33.400000000000006,95.9,16
838,14107.0,5.5,0.6000000000000001,-0.8,8.700000000000001,-5.4,6.300000000000001,50.1,-8.600000000000001,97.00000000000001,16
839,14118.0,7.1000000000000005,-0.2,0.30000000000000004,10.100000000000001,-6.300000000000001,7.4,23.2,-3.4,103.60000000000001,16
840,14135.0,7.9,-0.8,1.1,11.4,-7.4,8.6,17.200000000000003,-5.1000000000000005,107.7,16
841,14160.0,10.600000000000001,-1.9000000000000001,1.5,13.3,-8.0,8.700000000000001,27.9,-14.5,110.5,16
842,14168.0,10.600000000000001,-1.9000000000000001,1.5,14.4,-7.2,8.1,29.600000000000005,-23.6,108.39999999999999,16
843,14184.0,11.9,-1.0,0.9,14.9,-6.7,7.800000000000001,26.200000000000003,-31.3,102.0,16
844,14201.0,14.100000000000001,1.0,-0.2,16.5,-5.1000000000000005,7.0,5.1000000000000005,-38.400000000000006,67.00000000000001,16
845,14221.0,15.0,1.7000000000000002,0.0,17.3,-4.5,7.2,-33.1,-28.3,-3.6000000000000005,16
846,14236.0,13.3,0.4,1.6,15.700000000000001,-5.9,8.700000000000001,-76.80000000000001,18.6,-93.00000000000001,16
847,14258.0,9.700000000000001,-1.3,2.7,12.3,-7.7,9.700000000000001,-72.2,69.00000000000001,-163.20000000000002,16
848,14269.0,7.7,-1.5,2.6,10.4,-8.0,9.5,-64.2,74.4,-173.20000000000002,16
849,14285.0,7.6000000000000005,-1.5,2.6,9.700000000000001,-8.1,9.200000000000001,-45.9,75.4,-184.9,16
850,14301.0,5.0,-1.5,1.3,8.0,-7.9,8.200000000000001,-12.600000000000001,50.2,-182.8,16
851,14319.0,4.3,-1.5,0.5,7.6000000000000005,-7.4,7.0,10.8,22.5,-171.8,16
852,14336.0,3.8000000000000003,-1.1,-0.9,7.5,-7.0,6.1000000000000005,27.9,9.4,-173.1,16
853,14352.0,3.7,-1.2000000000000002,-0.9,7.1000000000000005,-6.800000000000001,5.6000000000000005,34.1,7.0,-179.40000000000003,16
854,14369.0,1.3,-1.2000000000000002,-2.4000000000000004,5.4,-6.6000000000000005,4.7,39.1,7.500000000000001,-194.20000000000002,16
855,14385.0,1.1,-1.4000000000000001,-2.4000000000000004,4.7,-6.4,4.2,39.2,9.600000000000001,-198.10000000000002,16
856,14401.0,-0.9,-1.3,-3.5,3.3000000000000003,-6.0,3.4000000000000004,36.5,14.100000000000001,-196.5,16
857,14418.0,-2.6,-1.3,-4.6000000000000005,2.3000000000000003,-5.7,2.7,27.5,21.1,-182.4,16
858,14435.0,-2.9000000000000004,-1.1,-4.9,2.1,-5.300000000000001,2.4000000000000004,19.799999999999997,26.400000000000006,-171.8,16
859,14455.0,-2.8000000000000003,-1.2000000000000002,-4.9,2.4000000000000004,-5.0,2.5,2.0,39.699999999999996,-152.2,16
860,14468.0,-2.5,-1.3,-4.3,2.7,-5.0,3.1,-13.000000000000002,53.400000000000006,-139.70000000000002,16
861,14485.0,-2.4000000000000004,-1.6,-4.0,2.9000000000000004,-5.1000000000000005,3.5,-16.700000000000003,61.300000000000004,-135.5,16
862,14501.0,-2.3000000000000003,-2.2,-3.5,2.9000000000000004,-5.5,4.1000000000000005,-16.3,74.7,-127.9,16
863,14520.0,-2.5,-2.5,-3.2,2.7,-5.7,4.5,-7.200000000000001,77.3,-115.60000000000001,16
864,14536.0,-2.6,-2.9000000000000004,-3.4000000000000004,2.5,-5.800000000000001,4.5,5.7,63.30000000000001,-96.1,16
865,14552.0,-2.7,-3.0,-3.6,2.4000000000000004,-5.800000000000001,4.3,11.8,52.1,-83.30000000000001,16
866,14568.0,-2.3000000000000003,-3.3000000000000003,-3.7,2.7,-6.0,4.3,14.900000000000002,36.2,-56.9,16
867,14585.0,-2.3000000000000003,-3.4000000000000004,-3.8000000000000003,3.0,-6.1000000000000005,4.4,12.600000000000001,35.2,-45.6,16
868,14601.0,-1.2000000000000002,-3.9000000000000004,-3.1,3.7,-6.4,5.0,5.4,43.50000000000001,-28.900000000000002,16
869,14618.0,-0.7000000000000001,-4.0,-2.6,4.1000000000000005,-6.4,5.6000000000000005,1.4,44.300000000000004,-15.100000000000001,16
870,14635.0,-0.8,-3.8000000000000003,-2.4000000000000004,4.0,-6.300000000000001,5.800000000000001,1.2000000000000002,39.8,-7.699999999999999,16
871,14653.0,-1.1,-3.5,-2.2,3.5,-5.9,6.1000000000000005,4.0,25.300000000000004,10.8,16
872,14676.0,-1.1,-3.5,-1.9000000000000001,3.4000000000000004,-5.9,6.5,12.8,5.500000000000001,30.599999999999998,16
873,14685.0,-1.2000000000000002,-3.9000000000000004,-1.7000000000000002,3.3000000000000003,-6.300000000000001,6.6000000000000005,20.0,-2.3,40.2,16
874,14702.0,-1.8,-4.3,-2.2,2.7,-6.7,6.1000000000000005,45.7,-21.400000000000002,69.20000000000002,16
875,14719.0,-1.6,-4.1000000000000005,-3.6,2.9000000000000004,-6.6000000000000005,4.800000000000001,63.500000000000014,-43.70000000000001,98.0,16
876,14734.0,-1.0,-3.9000000000000004,-4.2,3.5,-6.300000000000001,4.2,66.9,-60.2,117.7,16
877,14751.0,0.30000000000000004,-2.9000000000000004,-4.800000000000001,4.9,-5.300000000000001,3.5,55.7,-89.8,148.9,16
878,14768.0,0.7000000000000001,-2.7,-4.9,5.5,-5.1000000000000005,3.3000000000000003,43.70000000000001,-96.80000000000001,156.0,16
879,14784.0,2.1,-2.4000000000000004,-4.800000000000001,7.0,-5.0,3.3000000000000003,8.0,-86.60000000000001,152.2,16
880,14801.0,2.6,-2.9000000000000004,-4.2,7.6000000000000005,-5.7,3.8000000000000003,-43.800000000000004,-42.2,127.40000000000002,16
881,14818.0,2.5,-3.2,-3.0,7.4,-6.4,4.9,-110.30000000000001,21.400000000000002,105.10000000000001,16
882,14835.0,2.4000000000000004,-3.0,-2.1,7.2,-6.5,5.7,-143.6,48.400000000000006,99.60000000000001,16
883,14854.0,2.3000000000000003,-2.5,-0.1,6.800000000000001,-6.5,7.6000000000000005,-196.6,79.7,100.0,16
884,14870.0,2.9000000000000004,-1.3,1.5,7.1000000000000005,-6.1000000000000005,9.0,-218.60000000000002,78.80000000000001,112.20000000000002,16
885,14886.0,3.2,-0.8,2.0,7.2,-5.9,9.4,-215.4,70.2,118.10000000000001,16
886,14909.0,5.2,1.4000000000000001,2.7,8.6,-4.800000000000001,9.600000000000001,-168.8,14.0,135.0,16
887,14920.0,6.0,2.1,2.9000000000000004,9.200000000000001,-4.3,9.600000000000001,-148.3,-2.9,132.3,16
888,14939.0,7.0,3.2,3.1,9.9,-3.6,9.5,-126.0,-10.8,118.60000000000001,16
889,14952.0,6.2,4.800000000000001,2.9000000000000004,9.0,-2.2,9.200000000000001,-92.90000000000002,-16.200000000000003,71.10000000000001,16
890,14968.0,3.3000000000000003,5.5,3.4000000000000004,6.0,-1.8,9.4,-73.2,-12.100000000000001,35.699999999999996,16
891,14985.0,2.5,5.7,3.5,5.1000000000000005,-1.7000000000000002,9.4,-56.400000000000006,-8.5,30.5,16
892,15003.0,1.6,6.0,3.4000000000000004,4.0,-1.6,9.0,-13.3,-4.6,38.50000000000001,16
893,15018.0,2.0,5.800000000000001,2.7,4.800000000000001,-1.7000000000000002,8.200000000000001,29.1,-17.300000000000004,54.6,16
894,15037.0,2.8000000000000003,5.7,2.0,5.5,-2.0,7.300000000000001,64.7,-33.7,57.60000000000001,16
895,15052.0,3.1,5.5,1.4000000000000001,5.4,-1.8,6.5,79.6,-42.3,55.8,16
896,15076.0,2.8000000000000003,5.800000000000001,-1.0,5.2,-1.5,5.1000000000000005,97.40000000000002,-61.50000000000001,53.400000000000006,16
897,15088.0,2.7,5.800000000000001,-2.4000000000000004,5.0,-1.3,3.9000000000000004,97.50000000000001,-64.60000000000001,50.7,16
898,15101.0,2.7,5.800000000000001,-2.4000000000000004,5.1000000000000005,-1.4000000000000001,3.5,97.50000000000001,-64.60000000000001,50.7,16
899,15118.0,3.8000000000000003,5.800000000000001,-3.8000000000000003,6.1000000000000005,-1.1,2.7,58.7,-24.200000000000003,43.00000000000001,16
900,15136.0,4.800000000000001,5.800000000000001,-3.9000000000000004,7.6000000000000005,-1.3,2.9000000000000004,1.4,21.200000000000003,27.6,16
901,15152.0,6.1000000000000005,5.1000000000000005,-3.2,8.3,-1.7000000000000002,3.5,-29.500000000000004,43.800000000000004,17.9,16
902,15168.0,7.4,4.3,-1.4000000000000001,9.5,-2.6,5.2,-66.7,76.60000000000001,2.0,16
903,15188.0,8.700000000000001,3.8000000000000003,0.1,10.5,-3.3000000000000003,6.6000000000000005,-90.4,108.39999999999999,-19.5,16
904,15202.0,9.1,3.7,0.6000000000000001,10.9,-3.5,7.0,-94.3,113.3,-28.1,16
905,15227.0,10.8,1.6,2.3000000000000003,12.4,-5.800000000000001,8.5,-91.6,107.19999999999999,-41.50000000000001,16
906,15238.0,12.700000000000001,-1.4000000000000001,3.5,14.200000000000001,-9.0,9.600000000000001,-72.7,106.1,-52.2,16
907,15251.0,12.700000000000001,-1.4000000000000001,3.5,14.9,-8.200000000000001,9.4,-59.40000000000001,100.80000000000001,-56.6,16
908,15268.0,13.9,-0.1,3.5,16.0,-7.6000000000000005,9.600000000000001,-51.0,83.4,-67.9,16
909,15284.0,14.5,0.2,3.8000000000000003,16.3,-7.4,9.700000000000001,-43.70000000000001,75.00000000000001,-79.3,16
910,15302.0,14.8,-1.6,3.7,16.3,-9.4,9.4,-1.0,52.60000000000001,-122.0,16
911,15319.0,13.600000000000001,-3.5,2.5,14.200000000000001,-11.700000000000001,7.4,47.2,22.4,-168.6,16
912,15337.0,10.5,-4.4,0.0,12.5,-12.0,5.9,55.0,12.600000000000001,-190.40000000000003,16
913,15353.0,8.4,-5.1000000000000005,-1.6,10.9,-12.4,4.4,43.300000000000004,21.900000000000002,-191.70000000000002,16
914,15368.0,8.0,-4.9,-2.0,10.600000000000001,-12.100000000000001,4.2,25.0,37.9,-188.8,16
915,15385.0,7.7,-4.3,-1.9000000000000001,10.700000000000001,-11.200000000000001,4.3,-14.400000000000002,69.7,-184.7,16
916,15403.0,6.800000000000001,-3.6,-1.5,10.100000000000001,-10.4,4.7,-27.0,88.3,-191.70000000000002,16
917,15420.0,5.6000000000000005,-3.0,-1.8,9.200000000000001,-9.600000000000001,4.5,-15.399999999999999,82.39999999999999,-197.9,16
918,15436.0,4.7,-2.7,-2.2,8.4,-9.200000000000001,4.1000000000000005,-8.5,72.0,-198.20000000000002,16
919,15454.0,3.5,-2.6,-2.9000000000000004,7.5,-8.8,3.5,3.1,51.9,-195.20000000000002,16
920,15471.0,2.6,-1.8,-3.3000000000000003,6.9,-7.7,3.2,0.7,39.699999999999996,-189.1,16
921,15489.0,2.5,-1.9000000000000001,-3.3000000000000003,6.7,-7.4,3.2,-4.9,41.199999999999996,-187.50000000000003,16
922,15501.0,1.2000000000000002,-1.1,-3.3000000000000003,5.9,-6.6000000000000005,3.3000000000000003,-3.9,44.5,-188.10000000000002,16
923,15518.0,0.5,-1.3,-3.5,5.5,-6.5,3.1,3.4,53.400000000000006,-188.4,16
924,15535.0,0.30000000000000004,-1.8,-3.7,5.4,-6.800000000000001,3.0,5.9,58.60000000000001,-187.6,16
925,15561.0,0.0,-2.4000000000000004,-4.1000000000000005,5.300000000000001,-6.800000000000001,2.7,1.8000000000000003,70.2,-181.1,16
926,15569.0,-0.1,-2.5,-4.1000000000000005,5.300000000000001,-6.9,2.8000000000000003,-2.1,75.2,-179.40000000000003,16
927,15585.0,-0.1,-2.7,-4.2,5.4,-7.2,3.0,-5.4,79.7,-177.00000000000003,16
928,15601.0,0.1,-3.4000000000000004,-3.4000000000000004,5.6000000000000005,-7.300000000000001,3.7,-5.8,79.6,-170.30000000000004,16
929,15618.0,0.2,-4.1000000000000005,-2.9000000000000004,5.7,-7.7,4.6000000000000005,0.1,77.5,-163.4,16
930,15635.0,0.1,-4.1000000000000005,-2.3000000000000003,5.6000000000000005,-7.5,5.0,6.699999999999999,74.80000000000001,-158.10000000000002,16
931,15654.0,-0.1,-4.5,-2.0,5.4,-7.7,5.5,29.200000000000003,73.10000000000001,-149.10000000000002,16
932,15669.0,-1.0,-5.0,-2.4000000000000004,4.5,-7.800000000000001,5.2,61.199999999999996,54.699999999999996,-135.6,16
933,15685.0,-1.3,-5.4,-2.8000000000000003,4.1000000000000005,-8.0,4.9,78.4,34.50000000000001,-125.30000000000001,16
934,15702.0,-2.4000000000000004,-6.9,-3.8000000000000003,3.1,-9.0,4.0,103.60000000000001,-14.300000000000002,-99.8,16
935,15719.0,-4.0,-6.9,-4.6000000000000005,1.7000000000000002,-8.5,3.2,104.7,-48.10000000000001,-65.2,16
936,15735.0,-4.800000000000001,-6.5,-5.0,1.0,-7.9,2.9000000000000004,104.4,-58.0,-46.1,16
937,15762.0,-5.2,-4.9,-5.7,0.8,-5.800000000000001,2.0,102.10000000000001,-93.3,22.4,16
938,15768.0,-4.800000000000001,-4.6000000000000005,-5.800000000000001,1.3,-5.4,1.8,95.4,-109.30000000000001,45.400000000000006,16
939,15786.0,-4.4,-4.6000000000000005,-5.7,1.9000000000000001,-5.4,1.8,84.9,-125.00000000000001,66.60000000000001,16
940,15804.0,-3.4000000000000004,-5.2,-5.4,3.2,-5.9,1.9000000000000001,58.800000000000004,-139.4,92.2,16
941,15820.0,-3.8000000000000003,-5.9,-5.4,3.1,-6.7,1.5,24.400000000000002,-120.60000000000001,101.10000000000001,16
942,15835.0,-4.0,-5.6000000000000005,-5.4,3.1,-6.5,1.4000000000000001,-2.1,-99.60000000000001,110.2,16
943,15851.0,-3.8000000000000003,-5.1000000000000005,-5.0,3.3000000000000003,-6.2,1.6,-37.7,-72.30000000000001,124.2,16
944,15869.0,-1.7000000000000002,-4.2,-3.0,7.1000000000000005,-6.0,5.1000000000000005,-164.79999999999998,0.7,163.10000000000002,16
945,15886.0,0.9,-3.7,0.1,8.0,-5.9,6.4,-191.0,17.200000000000003,162.20000000000002,16
946,15901.0,1.5,-2.5,2.6,8.4,-5.6000000000000005,8.8,-207.4,44.4,146.20000000000002,16
947,15919.0,1.4000000000000001,-1.0,4.0,8.1,-4.800000000000001,10.100000000000001,-183.80000000000004,53.599999999999994,139.20000000000002,16
948,15942.0,1.7000000000000002,0.4,4.3,8.0,-4.1000000000000005,10.200000000000001,-136.4,31.099999999999998,148.1,16
949,15963.0,2.2,1.6,4.0,8.200000000000001,-3.2,9.4,-94.9,-24.8,164.79999999999998,16
950,15968.0,2.2,1.6,4.0,8.200000000000001,-3.2,9.4,-94.9,-24.8,164.79999999999998,16
951,15985.0,2.3000000000000003,2.3000000000000003,3.0,8.3,-3.0,8.4,-70.8,-64.60000000000001,172.29999999999998,16
952,16001.0,3.0,3.4000000000000004,2.8000000000000003,8.700000000000001,-2.2,7.9,-64.30000000000001,-53.300000000000004,162.0,16
953,16018.0,3.0,5.0,2.8000000000000003,8.3,-1.5,7.800000000000001,-70.3,-2.5,136.1,16
954,16049.0,2.9000000000000004,6.300000000000001,3.3000000000000003,7.6000000000000005,-0.4,8.3,-70.8,35.3,115.39999999999999,16
955,16051.0,2.9000000000000004,6.300000000000001,3.3000000000000003,7.6000000000000005,-0.4,8.3,-70.8,35.3,115.39999999999999,16
956,16070.0,3.5,7.1000000000000005,4.0,8.0,-0.30000000000000004,8.700000000000001,-53.50000000000001,24.0,109.50000000000001,16
957,16085.0,3.8000000000000003,7.1000000000000005,4.1000000000000005,8.1,-0.30000000000000004,8.8,-47.0,19.300000000000004,108.0,16
958,16107.0,4.3,7.1000000000000005,4.1000000000000005,8.5,-0.6000000000000001,8.6,-17.300000000000004,4.6,99.7,16
959,16118.0,5.0,7.1000000000000005,3.7,8.8,-0.7000000000000001,8.1,3.8,5.2,90.30000000000001,16
960,16134.0,5.300000000000001,6.9,3.4000000000000004,8.9,-1.0,8.0,10.8,10.0,85.9,16
961,16158.0,7.6000000000000005,3.4000000000000004,3.1,10.8,-4.6000000000000005,7.800000000000001,31.400000000000002,25.0,87.80000000000001,16
962,16168.0,9.0,1.6,2.9000000000000004,12.100000000000001,-6.4,7.6000000000000005,34.2,34.400000000000006,93.89999999999999,16
963,16185.0,10.200000000000001,0.8,2.6,13.100000000000001,-7.2,7.4,30.599999999999998,48.6,101.20000000000002,16
964,16201.0,15.3,1.2000000000000002,3.0,17.8,-6.9,7.9,-8.600000000000001,98.50000000000001,123.1,16
965,16219.0,22.3,2.8000000000000003,5.4,24.3,-5.4,10.4,-63.30000000000001,140.9,107.4,16
966,16239.0,24.200000000000003,1.7000000000000002,7.1000000000000005,25.6,-6.7,11.9,-44.300000000000004,134.3,13.700000000000001,16
967,16254.0,22.900000000000002,-0.6000000000000001,7.0,24.200000000000003,-9.0,11.8,-6.4,105.20000000000002,-50.0,16
968,16268.0,17.400000000000002,-2.8000000000000003,4.3,18.900000000000002,-11.200000000000001,9.200000000000001,69.20000000000002,26.300000000000004,-160.60000000000002,16
969,16285.0,14.600000000000001,-3.3000000000000003,2.9000000000000004,16.3,-11.600000000000001,7.9,86.3,0.7,-195.20000000000002,16
970,16305.0,10.600000000000001,-4.800000000000001,1.3,12.8,-12.8,6.5,78.5,-25.200000000000003,-211.1,16
971,16318.0,8.6,-4.5,0.7000000000000001,11.4,-12.200000000000001,6.2,40.1,-31.799999999999997,-200.0,16
972,16335.0,7.800000000000001,-4.3,0.7000000000000001,10.9,-11.8,6.1000000000000005,27.700000000000003,-25.4,-199.9,16
973,16352.0,6.1000000000000005,-3.8000000000000003,0.0,9.8,-11.100000000000001,5.5,23.900000000000006,-2.3,-214.60000000000002,16
974,16372.0,3.7,-3.0,-1.2000000000000002,7.9,-9.8,4.4,23.700000000000003,21.7,-231.00000000000006,16
975,16390.0,1.4000000000000001,-2.2,-2.3000000000000003,6.2,-8.6,3.4000000000000004,15.299999999999999,40.6,-237.10000000000002,16
976,16401.0,0.6000000000000001,-1.9000000000000001,-2.6,5.5,-8.200000000000001,3.1,10.1,48.9,-236.20000000000002,16
977,16418.0,-0.9,-1.3,-3.1,4.4,-7.1000000000000005,2.7,-0.4,64.30000000000001,-225.8,16
978,16435.0,-1.4000000000000001,-1.1,-3.2,4.1000000000000005,-6.7,2.7,-5.2,69.60000000000001,-216.0,16
979,16459.0,-1.4000000000000001,-1.2000000000000002,-2.9000000000000004,4.4,-6.2,3.1,-10.600000000000001,75.2,-179.6,16
980,16468.0,-1.0,-1.0,-2.8000000000000003,4.9,-5.9,3.4000000000000004,-7.500000000000001,73.9,-170.0,16
981,16485.0,-0.7000000000000001,-1.0,-2.7,5.300000000000001,-5.7,3.5,-1.2000000000000002,71.0,-163.29999999999998,16
982,16502.0,-0.5,-1.1,-2.8000000000000003,5.6000000000000005,-5.5,3.5,18.5,60.00000000000001,-153.3,16
983,16519.0,-0.5,-1.3,-3.4000000000000004,5.7,-5.300000000000001,3.1,34.2,48.400000000000006,-146.9,16
984,16535.0,-0.6000000000000001,-1.4000000000000001,-3.9000000000000004,5.6000000000000005,-5.2,2.7,43.4,38.60000000000001,-143.1,16
985,16555.0,-0.7000000000000001,-1.9000000000000001,-4.4,5.6000000000000005,-5.300000000000001,2.2,57.699999999999996,15.8,-134.6,16
986,16568.0,-0.8,-2.1,-4.6000000000000005,5.9,-5.5,1.9000000000000001,64.10000000000001,-3.0,-128.20000000000002,16
987,16586.0,-0.4,-3.1,-4.9,6.1000000000000005,-5.800000000000001,1.9000000000000001,64.30000000000001,-6.0,-125.7,16
988,16602.0,0.5,-4.4,-5.0,7.2,-6.7,1.8,56.9,-4.5,-127.00000000000003,16
989,16618.0,0.5,-6.2,-4.9,7.2,-8.1,2.0,39.2,-9.600000000000001,-137.5,16
990,16635.0,0.0,-6.800000000000001,-4.800000000000001,6.4,-8.200000000000001,2.0,25.6,-20.1,-136.4,16
991,16654.0,-1.3,-6.4,-4.5,5.7,-7.7,2.3000000000000003,-12.200000000000001,-35.0,-129.20000000000002,16
992,16673.0,-3.4000000000000004,-5.800000000000001,-3.2,3.7,-6.9,3.5,-50.5,-17.0,-125.00000000000001,16
993,16685.0,-4.0,-5.7,-2.7,3.1,-6.7,4.0,-60.8,1.0,-120.7,16
994,16701.0,-4.800000000000001,-6.1000000000000005,-1.6,2.4000000000000004,-6.9,5.1000000000000005,-62.6,38.60000000000001,-105.0,16
995,16720.0,-5.300000000000001,-6.6000000000000005,-1.0,1.8,-7.300000000000001,5.800000000000001,-53.9,45.2,-70.9,16
996,16735.0,-5.6000000000000005,-6.5,-0.9,1.4000000000000001,-7.2,5.9,-41.50000000000001,30.200000000000003,-46.7,16
997,16758.0,-5.4,-3.9000000000000004,-1.0,1.6,-4.6000000000000005,5.800000000000001,16.200000000000003,-68.3,39.9,16
998,16768.0,-5.4,-3.9000000000000004,-1.0,1.6,-4.6000000000000005,5.800000000000001,16.200000000000003,-68.3,39.9,16
999,16788.0,-3.8000000000000003,-1.1,-1.4000000000000001,3.5,-1.9000000000000001,5.1000000000000005,55.7,-164.20000000000002,95.9,16
1000,16802.0,-3.9000000000000004,-0.9,-1.3,3.6,-1.8,4.9,60.300000000000004,-183.2,102.2,16
1001,16818.0,-4.4,-1.3,-1.5,3.4000000000000004,-2.8000000000000003,3.8000000000000003,66.7,-199.30000000000004,115.3,16
1002,16834.0,-4.3,-1.9000000000000001,-2.5,3.8000000000000003,-3.0,3.0,57.60000000000001,-194.20000000000002,128.70000000000002,16
1003,16852.0,-1.7000000000000002,0.5,-2.6,6.6000000000000005,-0.9,2.4000000000000004,-6.300000000000001,-148.1,162.8,16
1004,16868.0,3.6,1.0,0.4,12.0,-1.0,5.0,-120.00000000000001,-73.8,171.39999999999998,16
1005,16885.0,4.9,1.1,2.0,13.3,-1.2000000000000002,6.5,-166.3,-34.400000000000006,153.0,16
1006,16902.0,5.300000000000001,1.1,5.6000000000000005,13.600000000000001,-2.0,9.9,-199.6,41.50000000000001,90.0,16
1007,16919.0,3.3000000000000003,1.5,7.2,11.4,-2.1,11.3,-178.0,68.3,48.800000000000004,16
1008,16937.0,1.8,2.4000000000000004,7.2,9.8,-1.5,11.3,-135.7,47.400000000000006,49.9,16
1009,16958.0,0.7000000000000001,3.6,6.6000000000000005,8.8,-0.2,10.5,-89.4,-3.8,70.2,16
1010,16977.0,1.0,4.0,6.5,8.8,-0.2,10.5,-89.4,-3.8,70.2,16
1011,16985.0,1.0,4.0,6.5,8.8,-0.2,10.5,-89.4,-3.8,70.2,16
1012,17002.0,2.0,4.800000000000001,5.9,9.4,-0.2,9.0,-6.4,-73.6,64.50000000000001,16
1013,17018.0,0.8,4.5,4.3,8.1,-0.6000000000000001,7.2,17.799999999999997,-64.60000000000001,49.300000000000004,16
1014,17037.0,0.1,4.7,2.4000000000000004,7.800000000000001,-0.30000000000000004,5.7,15.899999999999999,-35.5,43.50000000000001,16
1015,17055.0,0.5,4.9,1.8,8.200000000000001,-0.2,5.1000000000000005,8.5,-18.5,42.0,16
1016,17072.0,1.3,5.1000000000000005,1.7000000000000002,8.9,-0.1,5.0,-9.4,8.2,38.7,16
1017,17084.0,2.1,5.2,1.9000000000000001,9.600000000000001,-0.1,5.2,-15.899999999999999,16.3,35.8,16
1018,17104.0,2.9000000000000004,5.300000000000001,2.2,10.8,0.1,5.7,-15.299999999999999,21.1,22.6,16
1019,17118.0,3.7,5.5,2.3000000000000003,11.200000000000001,0.1,5.5,4.2,4.4,3.0,16
1020,17135.0,3.9000000000000004,5.6000000000000005,1.5,11.3,0.1,4.9,14.900000000000002,-7.500000000000001,-6.0,16
1021,17151.0,4.0,5.9,0.6000000000000001,11.4,0.5,4.0,22.9,-25.0,-23.400000000000002,16
1022,17173.0,4.1000000000000005,6.0,0.4,11.700000000000001,0.7000000000000001,3.8000000000000003,14.400000000000002,-32.5,-38.0,16
1023,17184.0,4.4,5.5,0.6000000000000001,12.0,0.2,3.9000000000000004,6.0,-32.300000000000004,-43.50000000000001,16
1024,17202.0,5.6000000000000005,2.1,2.1,13.3,-3.0,5.300000000000001,-11.000000000000002,-11.8,-57.400000000000006,16
1025,17218.0,6.800000000000001,-0.7000000000000001,3.3000000000000003,14.600000000000001,-5.7,6.5,-29.1,30.1,-61.9,16
1026,17242.0,8.9,-0.30000000000000004,4.2,16.8,-5.2,7.4,-53.9,64.9,-55.3,16
1027,17253.0,9.9,0.1,4.800000000000001,17.8,-4.7,8.1,-58.3,68.5,-59.1,16
1028,17269.0,10.0,-0.9,5.2,17.900000000000002,-5.6000000000000005,8.5,-37.6,47.80000000000001,-86.89999999999999,16
1029,17285.0,9.200000000000001,-1.5,4.800000000000001,17.2,-6.1000000000000005,8.200000000000001,-18.3,30.000000000000004,-105.4,16
1030,17306.0,5.9,-2.8000000000000003,2.8000000000000003,12.700000000000001,-7.4,5.6000000000000005,5.4,16.6,-133.10000000000002,16
1031,17319.0,3.6,-3.4000000000000004,1.6,11.9,-7.300000000000001,5.1000000000000005,-5.2,28.800000000000004,-127.40000000000002,16
1032,17335.0,3.1,-3.2,1.4000000000000001,11.4,-6.9,5.0,-17.300000000000004,28.900000000000002,-113.8,16
1033,17356.0,3.0,-2.5,1.8,11.5,-5.9,5.4,-30.1,13.900000000000002,-92.50000000000001,16
1034,17370.0,2.4000000000000004,-1.7000000000000002,1.8,10.9,-4.9,5.4,-18.8,-6.8,-91.10000000000001,16
1035,17385.0,1.9000000000000001,-1.7000000000000002,1.6,10.5,-4.7,5.2,-10.200000000000001,-15.299999999999999,-95.69999999999999,16
1036,17401.0,-0.1,-1.5,0.7000000000000001,8.6,-4.2,4.2,3.8,-23.900000000000006,-108.3,16
1037,17420.0,-2.2,-1.1,-0.30000000000000004,6.6000000000000005,-3.5,3.2,5.6,-23.5,-112.20000000000002,16
1038,17440.0,-3.5,-0.6000000000000001,-0.9,5.5,-2.7,2.5,-4.300000000000001,-14.5,-111.4,16
1039,17454.0,-3.9000000000000004,-0.30000000000000004,-1.0,5.1000000000000005,-2.2,2.4000000000000004,-13.6,-9.2,-109.7,16
1040,17468.0,-4.4,-0.4,-0.6000000000000001,4.7,-2.0,2.7,-31.9,-2.5,-105.9,16
1041,17485.0,-4.5,-0.5,-0.4,4.6000000000000005,-1.9000000000000001,2.9000000000000004,-37.300000000000004,2.2,-106.5,16
1042,17501.0,-5.0,-0.5,0.1,4.2,-1.7000000000000002,3.4000000000000004,-41.0,11.000000000000002,-109.10000000000001,16
1043,17518.0,-5.300000000000001,-0.7000000000000001,0.5,3.9000000000000004,-1.5,3.8000000000000003,-36.6,19.200000000000003,-111.20000000000002,16
1044,17536.0,-5.6000000000000005,-0.8,0.6000000000000001,3.6,-1.5,3.9000000000000004,-31.799999999999997,20.7,-111.6,16
1045,17556.0,-6.2,-1.1,0.6000000000000001,3.0,-1.5,4.0,-13.5,11.700000000000001,-102.2,16
1046,17570.0,-6.800000000000001,-1.3,0.5,2.4000000000000004,-1.4000000000000001,4.0,-6.300000000000001,8.899999999999999,-95.69999999999999,16
1047,17585.0,-6.800000000000001,-1.5,0.4,2.3000000000000003,-1.4000000000000001,3.9000000000000004,1.3,8.600000000000001,-88.60000000000001,16
1048,17601.0,-6.5,-2.1,0.2,2.7,-1.7000000000000002,3.7,12.7,15.899999999999999,-73.6,16
1049,17618.0,-6.0,-2.6,-0.1,3.1,-2.0,3.5,18.8,16.700000000000003,-53.8,16
1050,17637.0,-5.2,-3.1,-0.1,3.9000000000000004,-2.3000000000000003,3.5,19.0,12.100000000000001,-29.800000000000004,16
1051,17659.0,-4.6000000000000005,-3.2,0.1,4.5,-2.3000000000000003,3.7,13.5,13.900000000000002,-7.699999999999999,16
1052,17669.0,-4.6000000000000005,-3.2,0.0,4.9,-2.0,4.0,10.4,16.5,2.8,16
1053,17687.0,-3.6,-2.9000000000000004,1.0,5.4,-2.0,4.7,8.5,19.5,21.300000000000004,16
1054,17703.0,-3.6,-3.3000000000000003,1.3,5.4,-2.4000000000000004,5.1000000000000005,9.5,18.8,30.799999999999997,16
1055,17718.0,-3.8000000000000003,-3.8000000000000003,1.9000000000000001,5.2,-3.0,5.7,17.1,14.400000000000002,60.6,16
1056,17739.0,-3.4000000000000004,-3.3000000000000003,1.8,5.6000000000000005,-2.8000000000000003,5.7,35.699999999999996,-3.5,104.50000000000001,16
1057,17753.0,-2.7,-3.0,1.7000000000000002,6.300000000000001,-2.5,5.5,45.400000000000006,-19.799999999999997,129.8,16
1058,17768.0,-2.0,-2.6,1.6,7.1000000000000005,-2.4000000000000004,5.4,55.60000000000001,-43.70000000000001,154.8,16
1059,17787.0,2.3000000000000003,-1.3,0.4,11.5,-1.7000000000000002,3.8000000000000003,83.5,-97.10000000000001,182.9,16
1060,17802.0,3.1,-1.1,0.0,12.3,-1.8,3.3000000000000003,81.50000000000001,-96.9,167.60000000000002,16
1061,17818.0,2.7,-1.2000000000000002,-0.7000000000000001,11.9,-2.3000000000000003,2.3000000000000003,52.00000000000001,-71.10000000000001,126.89999999999999,16
1062,17835.0,2.2,-1.4000000000000001,-0.7000000000000001,11.4,-2.7,2.2,24.400000000000002,-45.7,113.3,16
1063,17855.0,1.3,-1.1,0.30000000000000004,10.5,-2.8000000000000003,3.1,-42.400000000000006,16.0,97.2,16
1064,17869.0,1.2000000000000002,-0.9,2.8000000000000003,10.4,-2.9000000000000004,5.7,-91.0,70.5,91.4,16
1065,17885.0,1.3,-0.7000000000000001,3.6,10.4,-2.8000000000000003,6.6000000000000005,-96.80000000000001,78.7,89.30000000000001,16
1066,17901.0,1.5,0.2,5.4,10.4,-2.4000000000000004,8.6,-88.20000000000002,84.0,88.20000000000002,16
1067,17918.0,1.3,1.0,5.7,10.100000000000001,-2.0,9.1,-33.400000000000006,43.70000000000001,90.4,16
1068,17935.0,1.1,1.2000000000000002,5.2,9.8,-1.9000000000000001,8.5,2.0,15.700000000000001,91.2,16
1069,17953.0,0.5,1.3,3.3000000000000003,9.0,-2.0,6.7,62.6,-32.300000000000004,91.50000000000001,16
1070,17968.0,-0.4,1.4000000000000001,1.7000000000000002,8.1,-2.1,5.1000000000000005,94.4,-52.80000000000001,90.0,16
1071,17984.0,-0.6000000000000001,1.6,1.2000000000000002,7.9,-2.0,4.6000000000000005,102.5,-52.80000000000001,89.0,16
1072,18002.0,-0.8,1.8,0.4,7.7,-1.9000000000000001,3.7,105.5,-45.0,86.2,16
1073,18020.0,-0.5,1.8,-0.2,7.9,-2.1,3.2,99.60000000000001,-33.6,82.8,16
1074,18037.0,-0.4,1.8,-0.6000000000000001,7.9,-2.2,2.9000000000000004,93.10000000000001,-23.700000000000003,77.60000000000001,16
1075,18054.0,-0.4,1.9000000000000001,-0.8,7.800000000000001,-2.1,2.7,90.5,-21.6,75.5,16
1076,18070.0,-0.5,2.0,-1.0,7.7,-2.1,2.5,85.0,-21.200000000000003,72.80000000000001,16
1077,18084.0,-0.5,1.9000000000000001,-1.1,7.6000000000000005,-2.3000000000000003,2.5,81.60000000000001,-20.900000000000002,72.0,16
1078,18101.0,-0.8,2.1,-1.3,7.2,-2.2,2.4000000000000004,72.60000000000001,-20.7,73.8,16
1079,18118.0,-0.8,2.2,-1.4000000000000001,7.5,-1.9000000000000001,2.2,60.00000000000001,-22.4,82.39999999999999,16
1080,18134.0,0.1,3.0,-1.6,8.0,-1.4000000000000001,2.1,51.2,-22.4,85.80000000000001,16
1081,18151.0,0.7000000000000001,3.8000000000000003,-1.6,8.5,-0.9,2.1,31.799999999999997,-17.1,83.60000000000001,16
1082,18168.0,1.3,4.6000000000000005,-1.3,9.0,-0.2,2.4000000000000004,10.8,-3.5,72.4,16
1083,18184.0,1.4000000000000001,4.7,-1.3,9.200000000000001,0.0,2.8000000000000003,-1.9,6.4,65.6,16
1084,18201.0,2.3000000000000003,5.300000000000001,0.1,9.8,0.2,3.9000000000000004,-23.2,22.000000000000004,54.50000000000001,16
1085,18218.0,2.7,5.2,1.2000000000000002,10.100000000000001,0.0,5.0,-29.500000000000004,25.0,42.900000000000006,16
1086,18235.0,2.7,4.9,1.7000000000000002,10.100000000000001,-0.4,5.5,-27.5,23.3,38.300000000000004,16
1087,18253.0,3.0,4.6000000000000005,2.1,10.200000000000001,-0.8,5.9,-18.200000000000003,19.400000000000002,34.50000000000001,16
1088,18270.0,3.7,4.800000000000001,2.5,10.8,-0.7000000000000001,6.2,-14.300000000000002,16.900000000000002,32.7,16
1089,18285.0,3.7,4.9,2.5,11.0,-0.6000000000000001,6.5,-13.700000000000001,14.100000000000001,30.9,16
1090,18301.0,4.1000000000000005,4.4,3.5,11.100000000000001,-1.3,7.300000000000001,-3.9,3.9,30.1,16
1091,18318.0,4.3,4.0,3.7,11.700000000000001,-2.1,7.5,18.5,-4.1,33.300000000000004,16
1092,18335.0,5.5,3.4000000000000004,3.5,12.5,-2.4000000000000004,7.300000000000001,23.5,-5.300000000000001,34.2,16
1093,18352.0,6.7,2.9000000000000004,3.2,13.600000000000001,-2.9000000000000004,7.0,33.9,-4.800000000000001,34.60000000000001,16
1094,18368.0,7.300000000000001,2.9000000000000004,3.1,15.100000000000001,-3.0,6.800000000000001,36.400000000000006,-4.2,32.2,16
1095,18388.0,8.3,2.9000000000000004,2.0,15.100000000000001,-3.0,6.0,52.400000000000006,-17.200000000000003,-3.0,16
1096,18404.0,8.3,2.8000000000000003,2.0,14.600000000000001,-3.1,5.5,57.400000000000006,-29.300000000000004,-20.599999999999998,16
1097,18420.0,6.6000000000000005,2.2,0.8,12.5,-3.7,4.4,52.900000000000006,-48.50000000000001,-49.0,16
1098,18442.0,3.8000000000000003,1.7000000000000002,-0.2,10.9,-3.8000000000000003,3.8000000000000003,27.3,-38.300000000000004,-62.199999999999996,16
1099,18453.0,3.3000000000000003,1.4000000000000001,-0.2,10.5,-4.0,3.8000000000000003,11.6,-24.400000000000002,-66.0,16
1100,18469.0,3.0,0.8,0.2,10.3,-4.4,4.1000000000000005,-14.5,9.0,-73.5,16
1101,18485.0,2.9000000000000004,0.7000000000000001,0.2,10.3,-4.5,4.3,-23.5,22.3,-76.89999999999999,16
1102,18501.0,2.7,0.5,0.6000000000000001,10.200000000000001,-4.4,4.6000000000000005,-32.300000000000004,40.300000000000004,-82.7,16
1103,18518.0,2.5,0.6000000000000001,0.5,10.100000000000001,-4.0,4.6000000000000005,-31.0,44.5,-85.80000000000001,16
1104,18543.0,2.1,0.9,0.4,9.8,-3.7,4.5,-24.400000000000002,34.300000000000004,-89.4,16
1105,18551.0,1.8,0.8,0.4,9.5,-3.7,4.5,-20.3,24.5,-90.6,16
1106,18568.0,0.9,1.0,0.2,8.700000000000001,-3.2,4.3,-12.600000000000001,6.4,-91.8,16
1107,18585.0,0.5,1.0,0.1,8.4,-3.1,4.2,-9.5,0.30000000000000004,-93.10000000000001,16
1108,18602.0,-0.1,0.9,-0.1,7.5,-2.9000000000000004,3.9000000000000004,-1.8000000000000003,-5.6,-96.60000000000001,16
1109,18619.0,-1.6,0.8,-0.6000000000000001,6.5,-2.8000000000000003,3.5,5.300000000000001,-8.5,-97.60000000000001,16
1110,18635.0,-2.1,0.8,-0.9,6.1000000000000005,-2.7,3.2,8.3,-9.5,-97.00000000000001,16
1111,18655.0,-3.2,0.5,-1.5,5.1000000000000005,-2.7,2.5,9.8,-10.1,-93.60000000000001,16
1112,18668.0,-3.8000000000000003,0.4,-2.0,4.6000000000000005,-2.5,2.1,4.300000000000001,-7.200000000000001,-85.4,16
1113,18689.0,-3.9000000000000004,0.4,-2.2,4.6000000000000005,-2.3000000000000003,1.9000000000000001,-5.8,-2.8,-74.7,16
1114,18701.0,-3.9000000000000004,0.30000000000000004,-2.1,4.7,-2.3000000000000003,1.9000000000000001,-11.3,0.6000000000000001,-70.3,16
1115,18718.0,-4.0,0.1,-1.9000000000000001,4.6000000000000005,-2.2,2.1,-19.300000000000004,6.4,-62.50000000000001,16
1116,18741.0,-4.0,0.0,-1.8,4.6000000000000005,-2.2,2.3000000000000003,-25.6,9.3,-51.300000000000004,16
1117,18753.0,-3.8000000000000003,0.1,-1.6,4.800000000000001,-2.1,2.5,-29.800000000000004,9.899999999999999,-44.5,16
1118,18770.0,-3.3000000000000003,0.30000000000000004,-1.1,5.300000000000001,-1.8,3.0,-35.699999999999996,9.600000000000001,-33.2,16
1119,18789.0,-3.0,0.5,-0.6000000000000001,5.7,-1.5,3.5,-36.1,8.0,-27.400000000000002,16
1120,18801.0,-2.9000000000000004,0.6000000000000001,-0.4,5.800000000000001,-1.4000000000000001,3.7,-34.60000000000001,7.1000000000000005,-24.5,16
1121,18818.0,-2.5,0.6000000000000001,0.1,6.2,-1.3,4.2,-29.800000000000004,7.500000000000001,-20.5,16
