,ms,accelX,accelY,accelZ,accelWithGX,accelWithGY,accelWithGZ,rotRateAlpha,rotRateBeta,rotRateGamma,interval
0,0.0,0.0,0.0,0.0,-0.1,3.4000000000000004,8.5,3.8,6.1000000000000005,-4.300000000000001,16
1,17.0,0.0,0.0,0.0,-0.30000000000000004,3.3000000000000003,8.6,-3.3000000000000003,1.6,-2.1999999999999997,16
2,34.0,0.0,0.0,0.1,-0.2,3.4000000000000004,8.8,-9.600000000000001,-2.3000000000000003,-0.2,16
3,51.0,0.1,0.0,0.4,0.0,3.2,9.1,-12.700000000000001,-0.1,1.2000000000000002,16
4,70.0,0.2,-0.1,0.5,0.1,3.1,9.3,-10.2,3.1,0.2,16
5,85.0,0.1,-0.1,0.30000000000000004,-0.1,3.1,9.200000000000001,-6.4,4.6000000000000005,-3.0000000000000004,16
6,100.0,-0.1,0.1,0.2,-0.30000000000000004,3.3000000000000003,9.200000000000001,-4.5,6.6000000000000005,-5.1,16
7,118.0,-0.2,0.2,0.4,-0.5,3.5,9.600000000000001,-4.1000000000000005,7.2,-3.9,16
8,134.0,-0.2,0.2,0.6000000000000001,-0.5,3.4000000000000004,9.600000000000001,-1.6,3.8,-1.3,16
9,151.0,-0.1,0.1,0.1,-0.4,3.4000000000000004,9.3,-0.5,-3.6,-0.8,16
10,167.0,-0.1,0.2,-0.1,-0.4,3.5,9.0,-2.5,-6.2,-1.5000000000000002,16
11,184.0,-0.1,0.30000000000000004,-0.2,-0.4,3.6,8.9,-4.2,-3.6,-0.7,16
12,201.0,-0.1,0.30000000000000004,-0.2,-0.4,3.6,8.9,-4.800000000000001,0.5,0.9,16
13,218.0,0.0,0.2,-0.1,-0.30000000000000004,3.5,9.0,-4.800000000000001,4.7,1.7,16
14,234.0,-0.1,0.1,-0.1,-0.4,3.4000000000000004,8.9,-3.8,6.5,3.3000000000000003,16
15,251.0,-0.1,0.1,-0.30000000000000004,-0.5,3.4000000000000004,8.8,-5.2,6.1000000000000005,4.3999999999999995,16
16,268.0,-0.1,0.2,-0.1,-0.5,3.4000000000000004,9.200000000000001,-8.0,6.8,5.8,16
17,284.0,-0.1,0.0,0.5,-0.5,3.3000000000000003,9.600000000000001,-8.700000000000001,9.9,8.600000000000001,16
18,301.0,-0.2,-0.1,0.6000000000000001,-0.5,3.0,9.700000000000001,-6.000000000000001,6.1000000000000005,9.700000000000001,16
19,317.0,0.0,-0.2,0.4,-0.30000000000000004,3.1,9.5,-3.6,-1.0999999999999999,7.500000000000001,16
20,334.0,0.1,0.0,0.2,-0.30000000000000004,3.2,9.4,-3.0000000000000004,-2.7,5.7,16
21,351.0,0.0,0.1,0.2,-0.4,3.3000000000000003,9.3,-2.7,-2.3000000000000003,8.600000000000001,16
22,367.0,0.0,0.0,-0.1,-0.30000000000000004,3.2,9.0,-4.9,-5.7,10.700000000000001,16
23,384.0,0.1,-0.1,-0.30000000000000004,-0.1,3.1,8.8,-8.0,-7.400000000000001,9.8,16
24,400.0,0.30000000000000004,-0.1,-0.4,0.0,3.1,8.9,-9.200000000000001,-4.7,9.1,16
25,417.0,0.30000000000000004,0.0,0.0,0.0,3.2,9.3,-8.4,3.1,9.600000000000001,16
26,434.0,0.1,0.0,0.30000000000000004,-0.2,3.1,9.5,-5.0,6.9,10.3,16
27,451.0,0.0,0.0,0.30000000000000004,-0.2,3.1,9.5,-1.8,5.1,9.3,16
28,467.0,0.1,0.0,0.1,-0.2,3.1,9.3,-0.9,3.5,7.6,16
29,484.0,0.1,0.1,0.0,-0.2,3.1,9.3,-0.9,3.5,7.6,16
30,501.0,0.0,0.2,0.0,-0.30000000000000004,3.3000000000000003,9.4,-4.0,3.5,6.000000000000001,16
31,517.0,-0.2,0.2,0.2,-0.5,3.3000000000000003,9.5,-2.1999999999999997,1.9,7.2,16
32,534.0,-0.2,0.2,0.2,-0.5,3.3000000000000003,9.200000000000001,0.2,-1.0999999999999999,9.1,16
33,551.0,-0.2,0.2,-0.2,-0.4,3.4000000000000004,9.0,-0.30000000000000004,-1.2000000000000002,10.2,16
34,567.0,-0.1,0.30000000000000004,-0.1,-0.4,3.4000000000000004,9.200000000000001,-2.1,1.0999999999999999,11.4,16
35,584.0,-0.1,0.2,0.0,-0.30000000000000004,3.3000000000000003,9.3,-2.5,1.0,12.100000000000001,16
36,601.0,0.0,0.1,0.0,-0.30000000000000004,3.2,9.200000000000001,-1.4,0.0,11.4,16
37,617.0,0.0,0.1,-0.1,-0.30000000000000004,3.2,9.200000000000001,0.4,-0.1,11.6,16
38,634.0,0.0,0.2,-0.2,-0.2,3.4000000000000004,9.0,0.30000000000000004,1.2000000000000002,12.700000000000001,16
39,650.0,0.0,0.2,-0.30000000000000004,-0.2,3.3000000000000003,8.9,-1.5000000000000002,1.7,13.5,16
40,668.0,0.1,0.1,-0.2,-0.1,3.2,9.0,-4.1000000000000005,1.7,13.0,16
41,684.0,0.2,0.0,-0.1,0.0,3.2,9.1,-5.6,4.1000000000000005,12.200000000000001,16
42,701.0,0.1,0.0,0.1,-0.1,3.1,9.3,-5.500000000000001,6.4,11.000000000000002,16
43,717.0,0.1,0.0,0.2,-0.2,3.2,9.5,-5.500000000000001,6.4,11.000000000000002,16
44,734.0,-0.1,0.1,0.4,-0.30000000000000004,3.2,9.600000000000001,-2.0,4.3999999999999995,8.1,16
45,751.0,-0.1,0.1,0.0,-0.30000000000000004,3.3000000000000003,9.200000000000001,0.1,0.30000000000000004,7.400000000000001,16
46,768.0,0.0,0.2,-0.30000000000000004,-0.30000000000000004,3.3000000000000003,9.200000000000001,0.1,0.30000000000000004,7.400000000000001,16
47,784.0,-0.1,0.30000000000000004,-0.30000000000000004,-0.30000000000000004,3.5,9.0,-4.5,3.9,6.8,16
48,801.0,-0.2,0.30000000000000004,0.0,-0.4,3.5,9.200000000000001,-4.5,5.300000000000001,8.4,16
49,818.0,-0.2,0.30000000000000004,-0.1,-0.4,3.4000000000000004,9.1,-3.4,4.800000000000001,10.2,16
50,834.0,-0.1,0.2,-0.2,-0.30000000000000004,3.4000000000000004,9.1,-4.2,4.800000000000001,10.8,16
51,851.0,0.0,0.2,0.0,-0.2,3.3000000000000003,9.200000000000001,-4.2,4.800000000000001,10.8,16
52,868.0,0.0,0.1,0.0,-0.2,3.2,9.200000000000001,-2.8,5.4,10.9,16
53,884.0,0.1,0.0,-0.1,-0.2,3.2,9.1,-2.5,6.000000000000001,9.600000000000001,16
54,900.0,0.0,0.1,0.0,-0.2,3.3000000000000003,9.3,-1.8,8.600000000000001,8.1,16
55,917.0,0.0,0.2,0.1,-0.30000000000000004,3.3000000000000003,9.4,0.5,10.3,8.4,16
56,934.0,0.0,0.1,0.0,-0.30000000000000004,3.3000000000000003,9.200000000000001,1.3,9.600000000000001,8.1,16
57,950.0,-0.1,0.1,0.0,-0.4,3.3000000000000003,9.200000000000001,0.5,7.9,6.7,16
58,967.0,-0.1,0.1,0.0,-0.4,3.3000000000000003,9.200000000000001,0.8,6.5,5.300000000000001,16
59,984.0,-0.1,0.2,-0.1,-0.4,3.3000000000000003,9.1,2.3000000000000003,5.7,4.9,16
60,1000.0,-0.1,0.2,-0.30000000000000004,-0.5,3.4000000000000004,8.9,2.4000000000000004,6.4,4.300000000000001,16
61,1017.0,-0.1,0.2,-0.2,-0.6000000000000001,3.4000000000000004,9.0,1.2000000000000002,8.700000000000001,4.0,16
62,1034.0,-0.2,0.2,-0.1,-0.6000000000000001,3.4000000000000004,9.1,1.3,9.8,4.5,16
63,1051.0,-0.1,0.2,0.0,-0.6000000000000001,3.4000000000000004,9.1,1.3,9.8,4.5,16
64,1068.0,0.0,0.1,-0.1,-0.4,3.4000000000000004,9.1,2.8,10.3,3.7000000000000006,16
65,1084.0,0.2,0.1,-0.1,-0.30000000000000004,3.4000000000000004,9.1,1.7,11.000000000000002,1.5000000000000002,16
66,1101.0,0.1,0.1,0.0,-0.4,3.4000000000000004,9.200000000000001,1.0,11.2,-0.9,16
67,1117.0,0.1,0.2,0.2,-0.5,3.5,9.4,2.3000000000000003,11.700000000000001,-2.1999999999999997,16
68,1134.0,0.0,0.2,0.2,-0.6000000000000001,3.5,9.3,4.0,11.000000000000002,-2.4000000000000004,16
69,1151.0,0.0,0.2,0.1,-0.7000000000000001,3.6,9.3,2.7,11.1,-1.9,16
70,1168.0,-0.1,0.30000000000000004,0.30000000000000004,-0.8,3.7,9.600000000000001,-0.30000000000000004,12.5,-0.5,16
71,1184.0,-0.2,0.30000000000000004,0.7000000000000001,-0.9,3.6,9.9,-1.8,11.000000000000002,1.3,16
72,1201.0,-0.30000000000000004,0.2,0.8,-1.0,3.5,10.100000000000001,-0.9,7.8,1.2000000000000002,16
73,1217.0,-0.30000000000000004,0.1,0.8,-1.1,3.4000000000000004,10.0,2.4000000000000004,2.7,-0.7,16
74,1234.0,-0.30000000000000004,0.1,0.5,-1.0,3.5,9.700000000000001,6.8,-2.1999999999999997,-2.9,16
75,1251.0,-0.2,0.1,0.2,-1.0,3.5,9.200000000000001,9.200000000000001,-4.0,-4.5,16
76,1267.0,-0.30000000000000004,0.1,-0.30000000000000004,-1.0,3.5,8.9,8.799999999999999,-3.1,-6.1000000000000005,16
77,1284.0,-0.2,0.1,-0.4,-1.0,3.5,8.9,7.400000000000001,-1.4,-6.6000000000000005,16
78,1301.0,-0.4,0.2,-0.6000000000000001,-1.2000000000000002,3.7,8.700000000000001,5.500000000000001,1.5000000000000002,-4.9,16
79,1317.0,-0.30000000000000004,0.2,-0.6000000000000001,-1.2000000000000002,3.7,8.6,3.5,4.1000000000000005,-1.9,16
80,1334.0,-0.30000000000000004,0.2,-0.5,-1.2000000000000002,3.7,8.6,3.5,4.1000000000000005,-1.9,16
81,1351.0,-0.1,0.1,-0.2,-1.0,3.6,9.0,-1.3,8.9,3.5,16
82,1368.0,-0.1,0.0,0.1,-1.0,3.5,9.3,-2.0,10.5,5.6,16
83,1384.0,-0.1,0.0,0.2,-1.0,3.5,9.5,-1.0999999999999999,11.3,7.1000000000000005,16
84,1401.0,0.0,0.0,0.4,-0.9,3.4000000000000004,9.600000000000001,1.3,9.3,9.600000000000001,16
85,1417.0,0.30000000000000004,-0.30000000000000004,0.30000000000000004,-0.6000000000000001,3.2,9.4,3.3000000000000003,5.300000000000001,11.3,16
86,1434.0,0.5,-0.4,0.1,-0.30000000000000004,3.1,9.1,4.0,1.2000000000000002,10.700000000000001,16
87,1451.0,0.7000000000000001,-0.5,-0.2,-0.1,3.1,8.9,4.2,-2.3000000000000003,9.1,16
88,1467.0,0.8,-0.4,-0.4,0.0,3.1,8.8,5.4,-5.300000000000001,8.3,16
89,1484.0,0.9,-0.30000000000000004,-0.5,0.2,3.3000000000000003,8.5,7.699999999999999,-6.8,7.9,16
90,1501.0,1.1,-0.1,-0.8,0.30000000000000004,3.5,8.1,9.4,-6.3,8.5,16
91,1517.0,1.2000000000000002,0.0,-1.3,0.4,3.6,7.800000000000001,6.7,-0.4,9.9,16
92,1534.0,1.1,0.1,-1.3,0.2,3.8000000000000003,8.0,-2.1,10.2,10.700000000000001,16
93,1551.0,0.6000000000000001,0.30000000000000004,-0.5,-0.2,3.9000000000000004,8.8,-11.2,18.0,13.100000000000001,16
94,1568.0,0.2,0.2,0.4,-0.6000000000000001,3.7,9.5,-16.3,20.0,17.400000000000002,16
95,1584.0,0.2,0.0,0.6000000000000001,-0.6000000000000001,3.5,9.9,-18.900000000000002,15.8,21.1,16
96,1601.0,0.30000000000000004,0.0,0.8,-0.4,3.4000000000000004,10.0,-21.1,6.8,21.1,16
97,1617.0,0.5,0.0,0.9,-0.4,3.4000000000000004,10.0,-21.1,6.8,21.1,16
98,1634.0,0.8,0.0,0.4,0.0,3.4000000000000004,9.3,-17.5,-15.000000000000002,9.5,16
99,1651.0,0.7000000000000001,0.30000000000000004,-0.5,0.0,3.7,8.6,-14.4,-20.6,4.2,16
100,1667.0,0.5,0.5,-0.9,-0.2,4.0,8.200000000000001,-14.200000000000001,-18.8,3.0000000000000004,16
101,1684.0,0.2,0.9,-1.1,-0.30000000000000004,4.1000000000000005,8.1,-13.700000000000001,-13.6,5.9,16
102,1701.0,0.4,0.8,-1.3,0.0,4.0,7.9,-10.4,-9.600000000000001,10.5,16
103,1718.0,0.7000000000000001,0.7000000000000001,-1.5,0.5,3.8000000000000003,7.800000000000001,-8.0,-0.9,13.8,16
104,1734.0,1.2000000000000002,0.5,-1.2000000000000002,0.7000000000000001,3.6,8.1,-6.7,12.100000000000001,14.0,16
105,1751.0,1.2000000000000002,0.2,-0.8,0.7000000000000001,3.4000000000000004,8.4,-4.7,17.599999999999998,12.3,16
106,1768.0,1.2000000000000002,0.2,-0.8,0.6000000000000001,3.4000000000000004,8.5,-5.0,16.900000000000002,9.3,16
107,1784.0,1.0,0.4,-0.5,0.30000000000000004,3.5,8.9,-8.700000000000001,15.9,7.2,16
108,1801.0,0.8,0.4,-0.2,0.30000000000000004,3.5,8.9,-8.700000000000001,15.9,7.2,16
109,1818.0,0.5,0.4,0.2,0.0,3.5,9.5,-12.700000000000001,9.600000000000001,9.600000000000001,16
110,1834.0,0.6000000000000001,0.30000000000000004,0.30000000000000004,0.1,3.3000000000000003,9.600000000000001,-12.3,6.1000000000000005,9.4,16
111,1851.0,0.8,0.2,0.30000000000000004,0.2,3.3000000000000003,9.600000000000001,-10.0,3.5,6.6000000000000005,16
112,1867.0,0.8,0.30000000000000004,0.30000000000000004,0.2,3.4000000000000004,9.600000000000001,-5.4,3.2,3.2,16
113,1884.0,0.7000000000000001,0.4,0.1,0.1,3.5,9.3,0.4,2.4000000000000004,0.30000000000000004,16
114,1901.0,0.6000000000000001,0.6000000000000001,-0.1,0.1,3.5,9.3,0.4,2.4000000000000004,0.30000000000000004,16
115,1917.0,0.5,0.8,-0.4,-0.2,3.9000000000000004,8.9,5.0,6.3,-1.4,16
116,1934.0,0.30000000000000004,0.9,-0.1,-0.30000000000000004,4.0,9.200000000000001,4.9,10.0,-1.4,16
117,1951.0,0.30000000000000004,0.8,0.2,-0.4,3.9000000000000004,9.600000000000001,7.400000000000001,12.100000000000001,-2.9,16
118,1968.0,0.30000000000000004,0.7000000000000001,0.5,-0.5,3.9000000000000004,9.8,12.6,12.4,-5.6,16
119,1984.0,0.1,0.8,0.6000000000000001,-0.6000000000000001,4.0,9.8,17.1,11.5,-9.9,16
120,2001.0,0.1,0.9,0.5,-0.6000000000000001,4.4,9.5,19.400000000000002,7.2,-13.9,16
121,2017.0,0.1,1.3,0.30000000000000004,-0.7000000000000001,4.7,9.5,16.900000000000002,8.9,-13.4,16
122,2034.0,-0.2,1.4000000000000001,0.7000000000000001,-1.1,4.800000000000001,10.0,10.3,20.4,-8.600000000000001,16
123,2050.0,-0.5,1.5,1.3,-1.8,4.9,11.0,-0.2,29.1,-1.0999999999999999,16
124,2067.0,-1.1,1.5,2.7,-2.2,4.7,12.100000000000001,-10.9,32.800000000000004,8.1,16
125,2084.0,-1.2000000000000002,1.2000000000000002,3.2,-2.2,4.7,12.100000000000001,-10.9,32.800000000000004,8.1,16
126,2101.0,-1.6,0.1,3.7,-2.7,3.1,13.100000000000001,-15.299999999999999,23.8,23.1,16
127,2117.0,-1.3,-0.6000000000000001,4.0,-2.3000000000000003,2.5,13.200000000000001,-6.000000000000001,8.9,29.300000000000004,16
128,2134.0,-0.8,-1.1,3.7,-2.3000000000000003,2.5,13.200000000000001,11.9,-17.400000000000002,30.299999999999997,16
129,2151.0,0.30000000000000004,-2.0,1.4000000000000001,-0.5,1.2000000000000002,9.700000000000001,28.0,-41.5,25.2,16
130,2168.0,0.8,-2.2,-1.0,-0.1,1.2000000000000002,7.9,33.400000000000006,-50.5,18.400000000000002,16
131,2184.0,0.7000000000000001,-2.3000000000000003,-1.9000000000000001,-0.1,1.2000000000000002,7.9,33.400000000000006,-50.5,18.400000000000002,16
132,2201.0,0.4,-2.0,-2.5,-0.5,1.7000000000000002,6.7,23.700000000000003,-25.6,8.700000000000001,16
133,2217.0,-0.30000000000000004,-1.5,-2.2,-1.1,2.1,7.1000000000000005,18.0,-1.8,8.5,16
134,2234.0,-0.7000000000000001,-1.3,-1.8,-1.5,2.4000000000000004,7.7,14.900000000000002,15.7,12.000000000000002,16
135,2251.0,-1.0,-1.1,-1.3,-1.6,2.7,7.9,12.700000000000001,18.1,14.100000000000001,16
136,2268.0,-0.8,-0.7000000000000001,-1.3,-1.4000000000000001,3.0,7.800000000000001,7.2,16.6,14.700000000000001,16
137,2284.0,-0.6000000000000001,-0.6000000000000001,-1.3,-1.2000000000000002,3.2,7.9,-1.0,18.6,16.8,16
138,2301.0,-0.30000000000000004,-0.5,-1.0,-1.0,3.1,8.200000000000001,-7.6,21.900000000000002,19.400000000000002,16
139,2317.0,-0.1,-0.6000000000000001,-0.6000000000000001,-0.9,3.0,8.6,-10.2,20.6,20.7,16
140,2334.0,0.0,-0.7000000000000001,-0.4,-0.7000000000000001,2.9000000000000004,8.700000000000001,-9.8,16.0,20.1,16
141,2351.0,0.2,-0.7000000000000001,-0.30000000000000004,-0.6000000000000001,2.9000000000000004,8.700000000000001,-8.1,10.700000000000001,17.400000000000002,16
142,2368.0,0.2,-0.8,-0.5,-0.6000000000000001,2.7,8.6,-5.7,7.500000000000001,13.4,16
143,2384.0,0.1,-0.9,-0.6000000000000001,-1.0,2.8000000000000003,8.6,-3.1,6.1000000000000005,8.700000000000001,16
144,2400.0,-0.5,-0.5,-0.30000000000000004,-1.4000000000000001,3.2,8.8,-0.30000000000000004,4.1000000000000005,7.6,16
145,2418.0,-0.8,-0.30000000000000004,-0.30000000000000004,-1.4000000000000001,3.2,8.8,3.0000000000000004,-1.0,10.4,16
146,2434.0,-0.7000000000000001,-0.4,-0.5,-1.4000000000000001,3.1,8.4,4.3999999999999995,-5.9,13.3,16
147,2451.0,-0.4,-0.6000000000000001,-0.9,-1.2000000000000002,3.0,8.200000000000001,2.4000000000000004,-7.2,12.3,16
148,2468.0,-0.30000000000000004,-0.6000000000000001,-0.9,-1.2000000000000002,3.0,8.200000000000001,2.4000000000000004,-7.2,12.3,16
149,2484.0,-0.2,-0.5,-0.7000000000000001,-1.0,3.1,8.4,1.8,-3.1,2.5,16
150,2501.0,-0.2,-0.30000000000000004,-0.8,-1.0,3.4000000000000004,8.200000000000001,5.6,-2.6,-3.0000000000000004,16
151,2517.0,-0.30000000000000004,-0.1,-0.9,-1.2000000000000002,3.8000000000000003,8.0,7.300000000000001,-2.7,-7.0,16
152,2534.0,-0.5,0.5,-1.0,-1.3,4.3,8.1,5.9,-3.2,-7.300000000000001,16
153,2550.0,-0.6000000000000001,0.9,-0.8,-1.4000000000000001,4.5,8.200000000000001,4.3999999999999995,-4.1000000000000005,-3.2,16
154,2568.0,-0.5,0.9,-0.8,-0.9,4.5,8.200000000000001,2.8,-5.500000000000001,2.1,16
155,2584.0,0.2,0.7000000000000001,-0.8,-0.4,4.3,8.4,-0.5,-3.3000000000000003,3.1,16
156,2601.0,0.5,0.6000000000000001,-0.1,-0.2,4.2,9.0,-4.1000000000000005,2.8,0.0,16
157,2617.0,0.5,0.6000000000000001,0.4,-0.30000000000000004,4.2,9.9,-4.7,8.0,-4.800000000000001,16
158,2634.0,0.2,0.6000000000000001,1.3,-0.6000000000000001,4.3,10.4,-1.8,8.799999999999999,-7.699999999999999,16
159,2651.0,0.1,0.7000000000000001,1.6,-0.7000000000000001,4.4,10.700000000000001,2.0,7.0,-8.200000000000001,16
160,2668.0,0.2,0.7000000000000001,1.8,-0.5,4.3,11.0,4.0,1.5000000000000002,-10.4,16
161,2684.0,0.5,0.7000000000000001,1.9000000000000001,-0.4,4.4,10.8,7.2,-13.200000000000001,-19.500000000000004,16
162,2701.0,0.4,0.8,1.5,-0.4,4.4,10.8,7.2,-13.200000000000001,-19.500000000000004,16
163,2718.0,0.0,1.5,0.6000000000000001,-0.9,5.4,9.600000000000001,-1.5000000000000002,-25.8,-30.7,16
164,2734.0,-0.4,1.8,0.9,-1.3,5.4,10.200000000000001,-16.2,-17.599999999999998,-24.8,16
165,2751.0,-0.7000000000000001,1.6,1.4000000000000001,-1.3,5.4,10.200000000000001,-16.2,-17.599999999999998,-24.8,16
166,2767.0,-0.9,0.7000000000000001,1.9000000000000001,-1.6,3.9000000000000004,11.0,-23.400000000000002,-9.3,-6.9,16
167,2784.0,-0.7000000000000001,-0.2,1.8,-1.3,3.2,11.0,-18.6,0.1,0.7,16
168,2801.0,-0.4,-0.6000000000000001,1.8,-0.9,2.5,11.0,-11.2,9.9,3.3000000000000003,16
169,2817.0,-0.1,-1.4000000000000001,1.8,-0.7000000000000001,1.9000000000000001,10.8,1.2000000000000002,10.8,0.8,16
170,2834.0,0.2,-2.0,0.9,-0.5,1.5,9.9,14.700000000000001,2.5,-5.0,16
171,2851.0,0.4,-2.0,0.2,-0.2,1.6,8.8,22.900000000000002,-8.3,-14.600000000000001,16
172,2868.0,0.5,-1.5,-1.1,-0.2,2.3000000000000003,7.9,22.6,-15.000000000000002,-23.3,16
173,2884.0,0.5,-0.7000000000000001,-1.7000000000000002,-0.30000000000000004,3.0,7.4,18.1,-15.000000000000002,-25.0,16
174,2901.0,0.4,-0.4,-1.9000000000000001,-0.5,3.4000000000000004,7.2,11.8,-5.4,-20.4,16
175,2917.0,0.1,-0.1,-1.6,-0.7000000000000001,3.6,7.6000000000000005,5.4,11.6,-10.700000000000001,16
176,2934.0,0.0,-0.2,-1.1,-0.8,3.4000000000000004,8.1,-0.1,23.8,0.4,16
177,2951.0,-0.1,-0.4,-0.8,-1.0,3.2,8.5,-6.1000000000000005,31.099999999999998,9.9,16
178,2968.0,-0.2,-0.5,-0.2,-1.3,3.0,9.1,-13.200000000000001,36.2,17.8,16
179,2984.0,-0.4,-0.6000000000000001,0.30000000000000004,-1.3,3.0,9.1,-13.200000000000001,36.2,17.8,16
180,3000.0,-0.4,-0.9,1.0,-1.3,2.4000000000000004,10.0,-13.8,24.200000000000003,34.2,16
181,3017.0,0.30000000000000004,-1.5,0.4,-0.6000000000000001,1.9000000000000001,9.3,-8.4,5.1,34.50000000000001,16
182,3034.0,0.7000000000000001,-1.7000000000000002,-0.2,-0.6000000000000001,1.9000000000000001,9.3,-8.4,5.1,34.50000000000001,16
183,3051.0,0.8,-1.8,-1.7000000000000002,-0.2,1.8,7.1000000000000005,-10.8,-30.100000000000005,12.700000000000001,16
184,3068.0,0.7000000000000001,-1.2000000000000002,-2.5,-0.1,2.3000000000000003,6.6000000000000005,-19.500000000000004,-33.0,4.0,16
185,3084.0,0.7000000000000001,-0.9,-2.5,-0.2,2.7,6.9,-27.1,-22.900000000000002,-1.2000000000000002,16
186,3101.0,0.5,-0.6000000000000001,-1.8,-0.30000000000000004,2.6,7.5,-25.6,-9.700000000000001,-2.3000000000000003,16
187,3117.0,0.4,-0.6000000000000001,-1.5,-0.30000000000000004,2.6,7.6000000000000005,-15.299999999999999,-4.6000000000000005,-3.6,16
188,3134.0,0.2,-0.5,-1.7000000000000002,-0.6000000000000001,2.8000000000000003,7.0,-5.8,-8.200000000000001,-4.9,16
189,3151.0,-0.1,-0.30000000000000004,-2.5,-0.8,3.1,6.5,-8.200000000000001,-13.5,-3.5,16
190,3168.0,0.0,0.4,-2.9000000000000004,-0.6000000000000001,3.6,6.300000000000001,-21.8,-24.000000000000004,-1.2000000000000002,16
191,3184.0,0.2,0.8,-2.8000000000000003,0.0,3.9000000000000004,6.7,-44.00000000000001,-31.900000000000002,2.6,16
192,3201.0,0.9,0.9,-0.8,0.7000000000000001,3.7,9.1,-58.60000000000001,-20.8,10.4,16
193,3217.0,1.5,0.2,0.8,0.7000000000000001,3.7,9.1,-58.60000000000001,-20.8,10.4,16
194,3235.0,1.6,0.0,1.1,1.4000000000000001,2.5,10.700000000000001,-40.8,-53.50000000000001,23.2,16
195,3251.0,1.3,-0.5,1.7000000000000002,1.5,1.8,11.3,-45.3,-96.3,24.400000000000002,16
196,3267.0,1.5,-0.8,2.2,1.5,1.8,11.3,-45.3,-96.3,24.400000000000002,16
197,3284.0,2.0,-0.8,3.3000000000000003,2.6,1.6,13.0,-77.0,-183.3,-7.699999999999999,16
198,3300.0,0.4,0.1,3.8000000000000003,1.5,2.2,13.3,-76.7,-185.20000000000002,-25.6,16
199,3317.0,-0.6000000000000001,0.6000000000000001,3.8000000000000003,1.5,2.2,13.3,-76.7,-185.20000000000002,-25.6,16
200,3334.0,-0.6000000000000001,0.6000000000000001,3.2,2.0,2.2,12.3,-30.9,-143.1,3.8,16
201,3354.0,0.0,0.2,2.1,2.8000000000000003,1.7000000000000002,11.0,-3.3000000000000003,-123.9,17.200000000000003,16
202,3367.0,0.0,0.0,1.1,2.9000000000000004,1.7000000000000002,9.200000000000001,12.5,-110.7,23.0,16
203,3384.0,0.0,0.4,-0.8,3.5,2.3000000000000003,8.200000000000001,9.700000000000001,-92.8,28.700000000000003,16
204,3401.0,0.8,1.4000000000000001,-0.7000000000000001,4.4,3.2,8.6,-2.6,-57.00000000000001,34.400000000000006,16
205,3417.0,1.1,1.9000000000000001,0.2,4.7,3.4000000000000004,10.5,-16.3,-4.3999999999999995,42.400000000000006,16
206,3434.0,0.8,1.3,3.1,4.2,2.1,13.100000000000001,-18.8,38.7,55.1,16
207,3450.0,0.5,-0.6000000000000001,5.5,3.9000000000000004,0.6000000000000001,14.700000000000001,-2.9,46.900000000000006,64.50000000000001,16
208,3468.0,0.4,-1.4000000000000001,5.6000000000000005,3.5,-0.6000000000000001,14.200000000000001,26.700000000000003,17.200000000000003,62.6,16
209,3484.0,-0.2,-2.3000000000000003,3.6,3.1,-0.9,12.100000000000001,51.900000000000006,-32.1,51.7,16
210,3500.0,-0.6000000000000001,-2.0,0.9,3.0,-0.4,9.8,64.60000000000001,-82.2,38.800000000000004,16
211,3517.0,-0.8,-1.5,-0.4,3.2,0.6000000000000001,7.6000000000000005,63.6,-111.30000000000001,28.900000000000002,16
212,3534.0,-0.6000000000000001,-0.30000000000000004,-2.3000000000000003,3.8000000000000003,1.7000000000000002,6.300000000000001,50.6,-110.8,27.2,16
213,3551.0,0.0,0.5,-2.8000000000000003,4.5,2.3000000000000003,5.9,34.6,-86.0,33.300000000000004,16
214,3568.0,0.1,0.7000000000000001,-2.7,4.800000000000001,2.5,6.0,20.4,-36.9,43.900000000000006,16
215,3584.0,0.4,0.6000000000000001,-2.1,5.1000000000000005,2.3000000000000003,6.6000000000000005,8.799999999999999,17.9,49.8,16
216,3600.0,0.5,0.4,-1.8,5.1000000000000005,2.3000000000000003,6.6000000000000005,8.799999999999999,17.9,49.8,16
217,3617.0,-1.4000000000000001,0.2,-2.2,3.6,1.5,6.9,-1.0999999999999999,105.3,51.1,16
218,3634.0,-0.5,-0.5,-2.5,3.5,1.0,6.1000000000000005,-3.4,124.8,50.9,16
219,3651.0,-0.7000000000000001,-0.7000000000000001,-3.2,3.5,1.0,6.1000000000000005,-3.4,124.8,50.9,16
220,3667.0,-0.5,-1.3,-2.9000000000000004,3.2,-0.1,6.6000000000000005,-34.0,113.4,36.0,16
221,3684.0,-0.1,-1.5,-1.6,3.1,-0.30000000000000004,7.6000000000000005,-53.9,66.4,11.2,16
222,3701.0,-0.30000000000000004,-1.4000000000000001,-1.4000000000000001,2.8000000000000003,-0.2,7.800000000000001,-67.3,21.900000000000002,-9.700000000000001,16
223,3717.0,-0.30000000000000004,-1.1,-1.4000000000000001,2.8000000000000003,-0.2,7.7,-72.5,8.700000000000001,-16.900000000000002,16
224,3734.0,-0.1,-1.0,-1.4000000000000001,3.1,-0.4,7.9,-73.8,19.6,-20.900000000000002,16
225,3751.0,0.30000000000000004,-1.3,-1.3,3.3000000000000003,-1.1,8.0,-77.5,20.0,-35.0,16
226,3767.0,0.4,-1.6,-1.1,3.3000000000000003,-1.2000000000000002,8.4,-80.10000000000001,13.4,-59.7,16
227,3784.0,0.30000000000000004,-1.2000000000000002,-0.2,3.3000000000000003,-1.2000000000000002,8.4,-74.10000000000001,14.100000000000001,-80.0,16
228,3801.0,0.2,-1.0,0.30000000000000004,3.0,-0.9,10.0,-55.7,16.8,-96.10000000000001,16
229,3817.0,-0.2,-0.8,1.1,2.5,-0.8,10.5,-24.000000000000004,8.5,-109.50000000000001,16
230,3834.0,-0.5,-0.8,1.2000000000000002,2.5,-0.8,10.5,-24.000000000000004,8.5,-109.50000000000001,16
231,3851.0,-0.7000000000000001,-0.8,1.2000000000000002,2.1,-0.4,10.600000000000001,56.2,-51.1,-124.39999999999999,16
232,3868.0,-1.5,-0.30000000000000004,1.3,1.5,0.5,10.5,91.2,-101.2,-127.50000000000001,16
233,3884.0,-1.8,-0.1,1.1,1.5,0.5,10.5,91.2,-101.2,-127.50000000000001,16
234,3900.0,-2.0,0.30000000000000004,0.9,2.2,2.0,9.700000000000001,141.1,-173.3,-99.5,16
235,3917.0,-0.7000000000000001,0.7000000000000001,0.7000000000000001,3.8000000000000003,3.2,8.5,150.8,-173.20000000000002,-80.4,16
236,3934.0,0.0,1.8,-1.4000000000000001,3.8000000000000003,3.2,8.5,150.8,-173.20000000000002,-80.4,16
237,3951.0,0.4,1.9000000000000001,-3.5,5.1000000000000005,4.4,6.1000000000000005,16.400000000000002,28.1,10.1,16
238,3968.0,0.30000000000000004,2.6,0.0,4.5,5.300000000000001,8.700000000000001,-22.2,68.4,29.900000000000006,16
239,3984.0,-0.2,3.3000000000000003,1.0,4.0,6.2,10.200000000000001,-41.7,69.5,47.2,16
240,4000.0,0.9,4.0,2.4000000000000004,5.9,5.7,11.200000000000001,-43.300000000000004,72.4,63.6,16
241,4017.0,3.5,1.3,2.9000000000000004,7.300000000000001,2.9000000000000004,11.600000000000001,-38.2,86.80000000000001,58.400000000000006,16
242,4034.0,3.0,-0.5,2.9000000000000004,5.5,0.2,11.4,-22.2,95.1,22.3,16
243,4050.0,0.2,-2.7,1.9000000000000001,3.4000000000000004,-1.0,10.700000000000001,-2.1,79.39999999999999,-9.4,16
244,4068.0,-0.8,-2.8000000000000003,0.30000000000000004,2.6,-0.7000000000000001,9.1,17.5,33.0,-30.299999999999997,16
245,4084.0,-0.7000000000000001,-2.3000000000000003,-1.3,2.8000000000000003,0.4,6.7,28.1,-2.1999999999999997,-39.2,16
246,4100.0,-0.4,-0.6000000000000001,-3.3000000000000003,3.0,1.9000000000000001,5.6000000000000005,20.8,8.799999999999999,-28.500000000000004,16
247,4117.0,-0.2,0.2,-3.5,3.0,1.9000000000000001,5.6000000000000005,20.8,8.799999999999999,-28.500000000000004,16
248,4134.0,1.1,0.6000000000000001,-2.3000000000000003,4.9,2.6,7.6000000000000005,-10.4,59.7,6.9,16
249,4151.0,2.3000000000000003,0.0,-0.2,4.6000000000000005,1.7000000000000002,9.3,-19.3,67.5,3.0000000000000004,16
250,4168.0,0.8,-0.8,0.8,4.6000000000000005,1.7000000000000002,9.3,-19.3,67.5,3.0000000000000004,16
251,4184.0,-1.4000000000000001,-1.9000000000000001,2.3000000000000003,1.1,-0.2,11.600000000000001,-31.099999999999998,53.50000000000001,5.500000000000001,16
252,4201.0,-1.0,-2.0,1.8,1.5,0.0,10.8,-27.5,14.900000000000002,0.9,16
253,4217.0,-1.0,-1.6,0.9,1.5,0.0,10.8,-27.5,14.900000000000002,0.9,16
254,4234.0,-1.9000000000000001,-1.1,-0.9,0.6000000000000001,0.7000000000000001,8.3,-29.600000000000005,-13.0,-14.200000000000001,16
255,4250.0,-1.8,-1.1,-0.9,0.9,0.4,8.6,-32.300000000000004,10.2,-8.799999999999999,16
256,4268.0,-1.3,-1.2000000000000002,-0.5,1.5,0.0,9.1,-30.9,38.6,-1.4,16
257,4284.0,-0.7000000000000001,-1.9000000000000001,0.0,1.5,-0.7000000000000001,9.5,-25.8,57.5,-2.8,16
258,4301.0,-1.4000000000000001,-2.2,0.1,0.6000000000000001,-0.8,9.5,-16.1,62.6,-13.6,16
259,4318.0,-1.7000000000000002,-2.0,0.0,0.30000000000000004,-0.30000000000000004,9.5,0.9,52.1,-30.100000000000005,16
260,4334.0,-1.9000000000000001,-1.1,-0.4,-0.2,0.6000000000000001,8.700000000000001,17.400000000000002,27.6,-38.300000000000004,16
261,4351.0,-2.0,-0.2,-1.5,-0.2,1.3,8.0,25.6,4.6000000000000005,-32.5,16
262,4367.0,-1.7000000000000002,0.0,-1.8,0.30000000000000004,1.5,7.6000000000000005,23.700000000000003,-8.3,-18.6,16
263,4384.0,-1.1,-0.1,-1.8,0.8,1.5,7.800000000000001,16.5,-13.100000000000001,-6.1000000000000005,16
264,4401.0,-0.5,0.1,-1.3,0.8,1.5,7.800000000000001,16.5,-13.100000000000001,-6.1000000000000005,16
265,4417.0,-0.2,0.4,-1.1,1.9000000000000001,2.3000000000000003,8.4,4.6000000000000005,-11.3,4.6000000000000005,16
266,4434.0,0.6000000000000001,1.0,-0.5,2.5,2.6,9.0,0.9,1.9,11.1,16
267,4451.0,0.8,1.0,-0.1,2.5,2.6,9.0,0.9,1.9,11.1,16
268,4468.0,0.8,0.6000000000000001,0.2,2.5,2.1,9.4,6.2,-4.300000000000001,7.9,16
269,4484.0,0.5,0.30000000000000004,-0.1,2.4000000000000004,2.0,9.200000000000001,7.8,-11.700000000000001,0.9,16
270,4501.0,0.6000000000000001,0.4,-0.2,2.4000000000000004,2.0,9.200000000000001,7.8,-11.700000000000001,0.9,16
271,4517.0,1.2000000000000002,0.8,-0.2,3.2,2.8000000000000003,9.200000000000001,10.9,-15.7,-6.1000000000000005,16
272,4534.0,1.3,1.3,0.1,3.2,3.2,9.5,12.5,-5.6,-10.2,16
273,4551.0,1.1,1.5,0.4,3.1,3.3000000000000003,10.3,14.900000000000002,11.9,-13.8,16
274,4568.0,1.1,1.2000000000000002,1.8,3.0,2.9000000000000004,11.600000000000001,20.1,29.200000000000003,-22.2,16
275,4584.0,1.1,0.8,3.0,2.8000000000000003,2.9000000000000004,12.3,32.4,39.300000000000004,-37.1,16
276,4601.0,0.9,1.0,2.9000000000000004,2.6,3.5,11.8,48.300000000000004,41.6,-52.800000000000004,16
277,4617.0,0.9,1.9000000000000001,1.8,2.4000000000000004,4.5,10.8,57.1,43.1,-61.4,16
278,4634.0,0.9,2.8000000000000003,0.7000000000000001,2.3000000000000003,5.4,10.0,53.2,45.6,-61.199999999999996,16
279,4650.0,1.1,3.0,0.5,2.1,5.6000000000000005,9.8,38.2,51.0,-52.6,16
280,4668.0,0.4,2.1,0.6000000000000001,1.3,4.4,10.200000000000001,14.700000000000001,54.1,-31.7,16
281,4684.0,0.1,0.9,1.0,1.3,4.4,10.200000000000001,14.700000000000001,54.1,-31.7,16
282,4700.0,0.6000000000000001,-1.3,2.2,1.5,0.6000000000000001,12.100000000000001,-32.0,26.700000000000003,8.5,16
283,4717.0,1.1,-3.3000000000000003,3.2,2.0,-1.0,12.700000000000001,-37.800000000000004,-4.800000000000001,11.9,16
284,4734.0,1.6,-4.1000000000000005,2.7,2.5,-1.6,12.100000000000001,-25.8,-35.3,3.3000000000000003,16
285,4751.0,1.4000000000000001,-3.9000000000000004,1.7000000000000002,2.2,-1.1,10.100000000000001,-8.4,-59.300000000000004,-11.9,16
286,4768.0,0.6000000000000001,-2.5,-1.3,1.6,0.1,7.9,2.8,-61.900000000000006,-20.2,16
287,4784.0,-0.1,-1.9000000000000001,-2.2,1.6,0.1,7.9,2.8,-61.900000000000006,-20.2,16
288,4800.0,-1.0,-0.8,-3.2,0.2,1.8,6.300000000000001,-1.0999999999999999,-10.2,-4.0,16
289,4817.0,-1.5,-0.5,-2.6,-0.2,1.9000000000000001,7.1000000000000005,-8.1,19.9,11.8,16
290,4834.0,-1.5,-0.6000000000000001,-1.9000000000000001,0.0,1.5,8.3,-13.6,35.0,23.6,16
291,4850.0,-0.9,-0.9,-0.4,0.4,1.4000000000000001,9.200000000000001,-14.200000000000001,30.299999999999997,23.5,16
292,4867.0,-0.6000000000000001,-0.8,0.1,0.5,1.5,9.5,-10.5,18.400000000000002,14.0,16
293,4884.0,-0.7000000000000001,-0.6000000000000001,0.0,0.1,1.9000000000000001,9.4,-6.000000000000001,9.0,0.8,16
294,4900.0,-1.3,0.2,0.1,-0.5,2.7,9.5,0.4,6.2,-7.500000000000001,16
295,4917.0,-1.8,0.7000000000000001,0.0,-0.5,2.7,9.5,9.4,7.400000000000001,-4.800000000000001,16
296,4934.0,-2.2,1.2000000000000002,-0.4,-1.1,3.5,8.8,16.5,9.8,7.300000000000001,16
297,4950.0,-1.7000000000000002,0.9,-1.0,-0.6000000000000001,3.1,8.4,17.3,8.600000000000001,16.6,16
298,4967.0,-1.4000000000000001,0.6000000000000001,-1.1,-0.30000000000000004,2.6,8.4,11.700000000000001,3.1,19.3,16
299,4984.0,-1.1,0.0,-0.9,-0.1,2.3000000000000003,8.6,7.1000000000000005,-5.8,16.3,16
300,5000.0,-0.9,-0.30000000000000004,-0.8,0.0,2.2,8.6,4.9,-9.8,11.5,16
301,5017.0,-1.0,-0.2,-0.7000000000000001,0.0,2.2,8.6,4.9,-9.8,11.5,16
302,5034.0,-1.1,-0.2,-0.4,-0.1,2.3000000000000003,9.1,7.8,-3.1,9.600000000000001,16
303,5051.0,-0.9,-0.1,-0.4,0.1,2.3000000000000003,8.9,15.9,1.0,12.000000000000002,16
304,5068.0,-1.0,-0.30000000000000004,-0.7000000000000001,0.1,2.3000000000000003,8.9,15.9,1.0,12.000000000000002,16
305,5084.0,-0.1,0.2,-1.1,1.0,2.8000000000000003,8.1,21.0,0.6000000000000001,11.4,16
306,5100.0,-0.2,0.30000000000000004,-1.3,0.8,2.9000000000000004,8.1,17.200000000000003,-0.9,5.8,16
307,5117.0,-0.30000000000000004,0.30000000000000004,-1.2000000000000002,0.8,3.1,8.3,12.4,1.0999999999999999,5.1,16
308,5134.0,0.0,0.6000000000000001,-0.7000000000000001,1.3,3.3000000000000003,8.700000000000001,9.5,8.600000000000001,6.4,16
309,5150.0,0.7000000000000001,0.5,-0.2,1.6,3.1,9.3,6.3,17.7,3.9,16
310,5167.0,0.6000000000000001,0.1,0.4,1.5,2.5,10.4,4.7,26.1,-3.2,16
311,5184.0,0.9,-0.5,2.0,2.0,2.2,11.5,12.3,29.600000000000005,-18.6,16
312,5200.0,1.4000000000000001,0.0,2.6,2.1,3.1,11.700000000000001,30.000000000000004,31.0,-44.3,16
313,5217.0,1.2000000000000002,1.0,1.9000000000000001,1.2000000000000002,4.7,10.3,49.0,42.300000000000004,-65.4,16
314,5234.0,-0.8,2.4000000000000004,0.2,-0.5,5.6000000000000005,9.4,47.0,64.8,-60.1,16
315,5250.0,-0.30000000000000004,2.6,0.4,-0.30000000000000004,5.7,9.8,25.6,78.3,-38.800000000000004,16
316,5267.0,-0.7000000000000001,1.2000000000000002,1.6,-0.6000000000000001,3.4000000000000004,11.600000000000001,8.9,71.6,-20.0,16
317,5284.0,0.30000000000000004,-0.7000000000000001,3.1,0.30000000000000004,2.3000000000000003,12.4,13.5,53.50000000000001,-7.400000000000001,16
318,5300.0,1.3,-1.7000000000000002,2.6,0.9,1.7000000000000002,11.8,27.7,32.1,-6.8,16
319,5317.0,1.5,-1.5,1.7000000000000002,1.1,2.2,10.200000000000001,33.5,10.0,-10.1,16
320,5334.0,1.3,-0.6000000000000001,-0.2,0.8,3.1,8.700000000000001,24.6,-5.500000000000001,-9.600000000000001,16
321,5350.0,1.1,0.0,-0.9,0.8,3.1,8.700000000000001,24.6,-5.500000000000001,-9.600000000000001,16
322,5367.0,0.6000000000000001,0.4,-0.9,0.0,3.9000000000000004,8.6,-17.5,8.0,10.700000000000001,16
323,5384.0,0.2,0.1,0.30000000000000004,-0.30000000000000004,3.3000000000000003,9.700000000000001,-29.800000000000004,25.3,24.3,16
324,5400.0,0.1,-0.5,1.0,-0.30000000000000004,2.4000000000000004,10.700000000000001,-31.8,31.2,34.50000000000001,16
325,5417.0,0.2,-1.3,1.7000000000000002,-0.2,1.9000000000000001,10.9,-23.1,24.200000000000003,37.1,16
326,5435.0,0.4,-1.4000000000000001,1.0,-0.2,1.8,10.100000000000001,-12.000000000000002,7.699999999999999,33.5,16
327,5450.0,0.2,-1.2000000000000002,0.4,-0.5,2.1,8.9,-3.9,-8.1,27.7,16
328,5467.0,-0.30000000000000004,-0.9,-1.2000000000000002,-0.7000000000000001,2.3000000000000003,7.9,-5.4,-19.200000000000003,26.200000000000003,16
329,5484.0,-0.4,-0.8,-1.7000000000000002,-0.6000000000000001,2.3000000000000003,7.5,-8.0,-21.0,28.1,16
330,5500.0,-0.2,-0.9,-1.9000000000000001,-0.30000000000000004,2.0,7.2,-7.2,-18.900000000000002,27.3,16
331,5517.0,0.2,-1.3,-2.2,0.1,1.8,7.0,-4.300000000000001,-18.8,22.1,16
332,5534.0,0.5,-1.4000000000000001,-2.5,0.4,1.7000000000000002,6.7,0.1,-19.8,14.100000000000001,16
333,5550.0,0.5,-1.2000000000000002,-2.8000000000000003,0.4,2.1,6.2,3.0000000000000004,-17.9,5.500000000000001,16
334,5568.0,0.4,-0.6000000000000001,-3.1,0.4,2.6,6.1000000000000005,1.3,-9.0,0.8,16
335,5584.0,0.30000000000000004,-0.30000000000000004,-3.1,0.4,2.6,6.1000000000000005,1.3,-9.0,0.8,16
336,5600.0,0.30000000000000004,0.0,-2.7,0.30000000000000004,3.0,6.800000000000001,-8.1,11.1,0.7,16
337,5617.0,0.4,0.0,-1.7000000000000002,0.4,3.0,7.7,-12.200000000000001,13.0,0.30000000000000004,16
338,5634.0,0.5,0.0,-1.1,0.4,3.0,7.7,-12.200000000000001,13.0,0.30000000000000004,16
339,5650.0,0.4,0.1,-0.4,0.30000000000000004,3.2,9.0,-11.5,12.700000000000001,-2.3000000000000003,16
340,5667.0,0.5,0.4,0.4,0.4,3.4000000000000004,9.700000000000001,-9.5,12.9,-0.1,16
341,5684.0,0.6000000000000001,0.5,0.7000000000000001,0.5,3.4000000000000004,10.200000000000001,-7.0,11.9,0.30000000000000004,16
342,5701.0,0.8,0.6000000000000001,1.2000000000000002,0.5,3.6,10.5,-8.799999999999999,8.0,-1.2000000000000002,16
343,5717.0,0.4,0.8,1.7000000000000002,0.5,3.6,10.5,-14.4,4.300000000000001,-0.8,16
344,5734.0,0.1,0.9,2.2,-0.2,3.8000000000000003,11.9,-18.1,0.7,4.1000000000000005,16
345,5751.0,0.0,1.0,3.3000000000000003,0.0,3.8000000000000003,12.5,-10.600000000000001,-0.8,8.4,16
346,5767.0,0.4,1.0,2.8000000000000003,0.30000000000000004,3.8000000000000003,12.0,1.0,-10.4,10.0,16
347,5784.0,0.6000000000000001,1.2000000000000002,2.1,0.6000000000000001,4.5,10.8,6.9,-16.700000000000003,8.1,16
348,5800.0,0.7000000000000001,2.1,0.9,0.5,5.2,10.200000000000001,2.0,-8.3,6.7,16
349,5817.0,0.1,2.6,1.5,-0.1,5.4,11.0,-10.0,17.5,7.400000000000001,16
350,5834.0,-0.5,2.2,2.8000000000000003,-1.1,4.3,13.4,-15.6,48.1,12.700000000000001,16
351,5850.0,-1.3,0.1,5.800000000000001,-1.6,2.5,15.600000000000001,1.0999999999999999,56.1,19.9,16
352,5868.0,-0.8,-1.5,5.9,-1.2000000000000002,1.4000000000000001,15.200000000000001,37.4,35.4,22.1,16
353,5884.0,-0.5,-1.6,4.1000000000000005,-0.9,1.6,12.0,63.70000000000001,-1.5000000000000002,17.7,16
354,5901.0,-0.5,-1.3,0.30000000000000004,-0.8,2.1,9.1,66.1,-28.900000000000002,16.6,16
355,5917.0,-0.4,-1.0,-1.1,-0.8,2.1,9.1,66.1,-28.900000000000002,16.6,16
356,5934.0,-0.30000000000000004,-0.4,-2.3000000000000003,-0.5,3.1,7.0,33.5,-17.7,27.5,16
357,5950.0,-0.4,-0.4,-2.0,-0.7000000000000001,3.1,7.300000000000001,17.400000000000002,10.600000000000001,34.50000000000001,16
358,5968.0,-0.6000000000000001,-0.4,-1.7000000000000002,-1.0,3.0,7.800000000000001,5.300000000000001,33.0,42.1,16
359,5984.0,-0.8,-0.7000000000000001,-1.0,-1.1,2.7,8.3,-2.1999999999999997,41.7,47.0,16
360,6000.0,-0.6000000000000001,-1.0,-0.6000000000000001,-1.0,2.6,8.6,-7.300000000000001,35.9,47.300000000000004,16
361,6017.0,-0.6000000000000001,-0.9,-0.7000000000000001,-0.9,2.6,8.4,-10.3,23.5,45.6,16
362,6034.0,-0.5,-0.7000000000000001,-1.1,-0.8,2.8000000000000003,7.9,-10.700000000000001,11.5,45.1,16
363,6050.0,-0.30000000000000004,-0.5,-1.9000000000000001,-0.6000000000000001,2.9000000000000004,7.300000000000001,-10.9,3.4,45.7,16
364,6067.0,-0.2,-0.5,-2.1,-0.30000000000000004,2.8000000000000003,7.0,-10.600000000000001,0.8,45.9,16
365,6084.0,0.1,-0.7000000000000001,-2.2,-0.1,2.6,7.0,-7.300000000000001,2.7,43.300000000000004,16
366,6100.0,0.2,-0.9,-2.2,0.0,2.5,6.9,-2.1,8.600000000000001,36.4,16
367,6117.0,0.1,-1.0,-2.2,-0.2,2.4000000000000004,7.1000000000000005,1.8,17.0,26.1,16
368,6134.0,-0.30000000000000004,-1.0,-1.7000000000000002,-0.6000000000000001,2.5,7.5,3.7000000000000006,23.2,16.700000000000003,16
369,6150.0,-0.6000000000000001,-0.7000000000000001,-1.1,-0.9,2.7,8.0,7.699999999999999,22.5,10.9,16
370,6167.0,-0.7000000000000001,-0.7000000000000001,-1.0,-1.1,2.7,8.0,12.9,15.6,8.799999999999999,16
371,6184.0,-0.7000000000000001,-0.6000000000000001,-1.4000000000000001,-1.1,2.9000000000000004,7.5,13.9,4.300000000000001,7.400000000000001,16
372,6201.0,-0.6000000000000001,-0.5,-1.7000000000000002,-1.1,2.9000000000000004,7.5,13.9,4.300000000000001,7.400000000000001,16
373,6217.0,-0.6000000000000001,-0.30000000000000004,-1.8,-0.9,3.3000000000000003,7.4,-1.6,-13.4,3.7000000000000006,16
374,6234.0,-0.4,-0.2,-1.1,-0.6000000000000001,3.3000000000000003,8.1,-7.699999999999999,-20.0,0.7,16
375,6250.0,-0.2,-0.2,-0.5,-0.2,3.4000000000000004,8.9,-6.7,-28.6,-5.4,16
376,6267.0,0.1,0.30000000000000004,0.0,-0.1,4.0,9.0,-2.0,-31.0,-11.9,16
377,6284.0,-0.2,1.2000000000000002,0.0,-0.30000000000000004,4.800000000000001,9.1,-1.3,-27.3,-11.3,16
378,6301.0,-0.30000000000000004,1.6,0.30000000000000004,-0.2,5.2,9.700000000000001,-4.9,-19.6,-2.0,16
379,6317.0,0.0,1.4000000000000001,1.1,0.2,4.6000000000000005,10.5,-11.3,-16.0,5.2,16
380,6334.0,0.7000000000000001,0.7000000000000001,2.4000000000000004,0.8,4.1000000000000005,11.600000000000001,-16.8,-22.900000000000002,3.9,16
381,6350.0,1.1,0.7000000000000001,2.9000000000000004,1.5,4.4,12.100000000000001,-12.700000000000001,-37.6,-9.3,16
382,6367.0,1.3,1.7000000000000002,2.2,1.4000000000000001,5.4,10.8,-7.6,-47.7,-25.400000000000002,16
383,6384.0,0.5,2.6,0.7000000000000001,0.8,5.9,9.9,-20.2,-43.6,-30.000000000000004,16
384,6400.0,0.1,2.5,1.0,0.4,5.4,10.9,-43.1,-30.9,-20.6,16
385,6417.0,-0.1,1.4000000000000001,2.7,0.6000000000000001,4.2,12.4,-48.6,-14.4,-6.7,16
386,6434.0,0.8,-0.30000000000000004,4.4,1.3,2.6,13.700000000000001,-31.6,-2.9,2.4000000000000004,16
387,6451.0,1.2000000000000002,-1.0,4.2,1.8,1.7000000000000002,12.9,1.0,-5.500000000000001,-2.1,16
388,6467.0,1.4000000000000001,-1.4000000000000001,1.8,1.9000000000000001,1.7000000000000002,10.600000000000001,21.700000000000003,-14.900000000000002,-11.4,16
389,6484.0,1.4000000000000001,-1.3,0.5,1.9000000000000001,1.7000000000000002,10.600000000000001,21.700000000000003,-14.900000000000002,-11.4,16
390,6500.0,1.1,-0.7000000000000001,-1.2000000000000002,1.6,2.6,7.9,5.500000000000001,-28.900000000000002,-19.700000000000003,16
391,6517.0,0.8,-0.30000000000000004,-1.6,1.5,2.8000000000000003,7.800000000000001,-12.200000000000001,-22.3,-14.900000000000002,16
392,6534.0,0.7000000000000001,-0.30000000000000004,-1.4000000000000001,1.4000000000000001,2.7,8.200000000000001,-25.8,-7.500000000000001,-7.8,16
393,6550.0,0.6000000000000001,-0.5,-0.9,1.3,2.4000000000000004,8.5,-33.1,8.1,-1.3,16
394,6567.0,0.4,-0.8,-0.6000000000000001,1.1,2.0,8.8,-37.800000000000004,21.1,3.9,16
395,6584.0,0.4,-1.0,-0.5,0.9,1.7000000000000002,8.9,-39.8,29.900000000000006,7.2,16
396,6600.0,0.1,-1.2000000000000002,-0.6000000000000001,0.6000000000000001,1.4000000000000001,8.6,-39.50000000000001,32.800000000000004,8.5,16
397,6617.0,0.0,-1.2000000000000002,-1.1,0.4,1.3,8.3,-39.2,28.200000000000003,8.9,16
398,6634.0,-0.1,-1.3,-1.3,0.4,1.1,8.1,-38.1,18.8,8.799999999999999,16
399,6650.0,0.0,-1.3,-1.7000000000000002,0.4,1.0,7.6000000000000005,-35.3,6.7,5.4,16
400,6668.0,0.0,-1.3,-2.0,0.4,0.9,7.5,-32.4,1.0999999999999999,-1.0999999999999999,16
401,6684.0,-0.1,-1.2000000000000002,-2.1,0.1,1.0,7.300000000000001,-31.2,-2.5,-7.0,16
402,6700.0,-0.5,-1.0,-2.3000000000000003,-0.2,1.0,7.300000000000001,-32.6,-4.1000000000000005,-9.4,16
403,6717.0,-0.6000000000000001,-0.9,-2.1,-0.2,1.0,7.300000000000001,-32.2,-4.7,-9.5,16
404,6734.0,-0.5,-1.1,-1.3,0.2,0.7000000000000001,8.3,-25.0,-9.4,-11.2,16
405,6751.0,0.0,-0.8,-1.5,0.4,1.0,8.0,-17.8,-15.5,-16.900000000000002,16
406,6768.0,-0.1,-0.6000000000000001,-1.7000000000000002,0.4,1.0,8.0,-18.900000000000002,-19.200000000000003,-21.0,16
407,6784.0,-0.30000000000000004,0.0,-1.5,0.30000000000000004,1.8,8.3,-25.900000000000002,-22.900000000000002,-19.400000000000002,16
408,6800.0,-0.1,0.30000000000000004,-0.5,0.5,1.8,9.200000000000001,-28.500000000000004,-28.700000000000003,-15.299999999999999,16
409,6818.0,0.1,0.2,0.1,1.2000000000000002,1.6,10.200000000000001,-21.900000000000002,-34.7,-13.5,16
410,6834.0,1.0,0.0,0.9,2.0,1.5,10.4,-8.9,-42.2,-19.3,16
411,6850.0,1.2000000000000002,0.4,0.4,2.1,2.0,9.8,0.8,-42.800000000000004,-28.1,16
412,6867.0,1.0,0.7000000000000001,0.0,1.5,2.6,9.200000000000001,-0.7,-36.1,-31.7,16
413,6884.0,0.30000000000000004,1.5,0.0,1.3,3.0,9.9,-8.700000000000001,-18.5,-24.5,16
414,6900.0,0.2,1.5,1.6,1.3,3.0,11.3,-10.700000000000001,0.0,-13.3,16
415,6917.0,0.30000000000000004,1.3,2.5,1.4000000000000001,2.6,12.5,-3.8,10.9,-4.300000000000001,16
416,6935.0,0.5,1.0,3.2,1.6,2.5,12.700000000000001,4.7,6.3,-2.1,16
417,6950.0,0.6000000000000001,1.3,2.8000000000000003,1.6,2.8000000000000003,12.3,7.400000000000001,-6.2,-3.8,16
418,6967.0,0.4,1.5,2.5,1.4000000000000001,3.2,11.600000000000001,3.8,-22.000000000000004,-2.7,16
419,6984.0,0.2,1.9000000000000001,1.4000000000000001,1.3,3.5,10.9,-7.0,-24.7,2.9,16
420,7000.0,0.0,2.0,1.2000000000000002,1.3,3.5,10.9,-7.0,-24.7,2.9,16
421,7017.0,-0.30000000000000004,1.3,2.9000000000000004,0.8,2.1,13.700000000000001,-30.9,15.100000000000001,21.400000000000002,16
422,7034.0,-0.4,-0.4,5.9,0.8,0.7000000000000001,15.700000000000001,-10.2,25.0,26.6,16
423,7050.0,0.30000000000000004,-1.4000000000000001,5.2,1.4000000000000001,0.0,14.9,33.2,15.299999999999999,22.5,16
424,7067.0,0.5,-1.5,3.5,1.4000000000000001,0.1,11.700000000000001,67.3,-15.2,9.3,16
425,7083.0,0.1,-1.3,-0.9,1.2000000000000002,0.6000000000000001,8.200000000000001,72.8,-44.7,-2.3000000000000003,16
426,7100.0,-0.30000000000000004,-0.9,-2.6,0.7000000000000001,1.4000000000000001,5.800000000000001,53.6,-57.699999999999996,-6.6000000000000005,16
427,7117.0,-1.2000000000000002,-0.30000000000000004,-4.4,0.1,1.8,5.5,18.400000000000002,-42.300000000000004,1.8,16
428,7133.0,-1.7000000000000002,-0.2,-2.7,-0.2,1.7000000000000002,7.2,-9.700000000000001,-6.2,17.200000000000003,16
429,7151.0,-1.7000000000000002,-0.4,-1.2000000000000002,0.0,1.2000000000000002,9.700000000000001,-14.3,34.900000000000006,30.100000000000005,16
430,7167.0,-1.3,-1.1,0.9,0.2,0.7000000000000001,10.4,-1.2000000000000002,42.900000000000006,34.7,16
431,7184.0,-0.7000000000000001,-1.0,0.4,0.6000000000000001,0.9,9.9,11.2,31.3,33.7,16
432,7200.0,-0.6000000000000001,-0.8,-0.1,0.7000000000000001,1.2000000000000002,8.8,17.0,13.0,30.7,16
433,7217.0,-0.30000000000000004,-0.6000000000000001,-1.3,1.0,1.5,8.0,16.0,-5.4,28.500000000000004,16
434,7233.0,-0.4,-0.2,-2.2,0.9,1.8,7.2,13.4,-20.2,27.7,16
435,7251.0,-0.30000000000000004,-0.2,-2.6,1.2000000000000002,1.8,6.7,6.4,-29.500000000000004,30.7,16
436,7267.0,-0.30000000000000004,-0.1,-3.1,1.2000000000000002,1.9000000000000001,6.4,1.0,-25.900000000000002,31.0,16
437,7284.0,-0.30000000000000004,-0.1,-3.0,1.3,1.7000000000000002,6.800000000000001,-0.5,-7.8,31.2,16
438,7300.0,-0.1,-0.4,-2.2,1.6,1.5,7.5,3.9,11.8,28.1,16
439,7317.0,0.1,-0.6000000000000001,-1.6,1.6,1.3,7.9,9.200000000000001,20.8,22.3,16
440,7333.0,0.0,-0.7000000000000001,-1.3,1.4000000000000001,1.3,8.1,13.200000000000001,26.3,14.900000000000002,16
441,7350.0,-0.1,-0.7000000000000001,-1.0,1.2000000000000002,1.3,8.6,14.200000000000001,25.700000000000003,7.6,16
442,7367.0,-0.30000000000000004,-0.7000000000000001,-0.5,1.0,1.4000000000000001,9.0,15.8,19.500000000000004,1.4,16
443,7384.0,-0.30000000000000004,-0.5,-0.4,0.9,1.7000000000000002,9.0,17.8,13.700000000000001,-3.7000000000000006,16
444,7400.0,-0.2,-0.4,-0.30000000000000004,1.1,1.8,9.0,19.700000000000003,7.0,-8.4,16
445,7417.0,0.1,-0.1,-0.5,1.4000000000000001,2.2,8.8,21.1,-0.30000000000000004,-14.800000000000002,16
446,7433.0,0.2,0.1,-0.6000000000000001,1.6,2.7,8.5,20.0,-5.6,-22.4,16
447,7450.0,0.5,0.8,-0.9,1.7000000000000002,3.4000000000000004,8.4,11.5,-7.0,-29.1,16
448,7467.0,0.5,1.5,-0.5,1.8,3.9000000000000004,8.9,-3.2,-2.8,-30.299999999999997,16
449,7484.0,0.6000000000000001,1.6,0.30000000000000004,2.0,3.8000000000000003,10.5,-15.2,3.9,-27.3,16
450,7500.0,1.0,1.1,2.4000000000000004,2.3000000000000003,3.3000000000000003,12.200000000000001,-14.900000000000002,10.5,-27.6,16
451,7517.0,1.2000000000000002,0.8,3.3000000000000003,2.3000000000000003,3.3000000000000003,12.200000000000001,-2.8,13.4,-36.6,16
452,7539.0,1.6,1.3,3.4000000000000004,2.7,3.5,12.9,14.200000000000001,7.6,-55.7,16
453,7550.0,1.1,2.0,2.3000000000000003,1.8,4.7,11.4,15.100000000000001,-0.30000000000000004,-69.5,16
454,7567.0,0.4,2.5,1.7000000000000002,1.8,4.7,11.4,-3.3000000000000003,-2.6,-62.300000000000004,16
455,7584.0,-0.7000000000000001,2.3000000000000003,2.9000000000000004,0.2,4.2,13.100000000000001,-16.0,2.6,-37.5,16
456,7600.0,-0.5,0.6000000000000001,4.7,0.6000000000000001,2.6,14.200000000000001,-6.7,6.2,-13.8,16
457,7617.0,0.0,-0.5,4.800000000000001,0.6000000000000001,2.6,14.200000000000001,-6.7,6.2,-13.8,16
458,7634.0,0.6000000000000001,-1.9000000000000001,3.3000000000000003,1.7000000000000002,0.6000000000000001,11.700000000000001,40.8,-17.9,-10.0,16
459,7650.0,0.7000000000000001,-1.9000000000000001,0.0,1.7000000000000002,0.9,9.0,45.4,-43.0,-21.8,16
460,7667.0,0.5,-1.6,-1.4000000000000001,1.5,1.6,7.0,32.1,-60.900000000000006,-30.000000000000004,16
461,7684.0,0.1,-0.6000000000000001,-3.1,1.4000000000000001,2.5,5.800000000000001,10.9,-64.2,-29.1,16
462,7700.0,-0.1,0.1,-3.8000000000000003,1.4000000000000001,3.0,5.6000000000000005,-13.3,-51.2,-20.1,16
463,7717.0,-0.1,0.30000000000000004,-3.5,1.5,2.9000000000000004,6.300000000000001,-33.300000000000004,-27.1,-6.8,16
464,7735.0,0.1,0.0,-2.3000000000000003,1.7000000000000002,2.4000000000000004,7.4,-42.6,-2.1,5.1,16
465,7750.0,0.30000000000000004,-0.8,-0.9,1.8,1.6,8.6,-43.800000000000004,19.9,11.5,16
466,7767.0,0.4,-1.2000000000000002,-0.2,1.8,0.8,9.600000000000001,-36.9,34.6,10.5,16
467,7784.0,0.4,-1.7000000000000002,0.5,1.7000000000000002,0.4,10.0,-25.8,37.6,3.3000000000000003,16
468,7800.0,0.30000000000000004,-1.8,0.30000000000000004,1.5,0.4,9.700000000000001,-15.7,32.1,-6.6000000000000005,16
469,7817.0,0.2,-1.7000000000000002,-0.1,1.2000000000000002,0.6000000000000001,9.0,-10.1,20.2,-16.0,16
470,7834.0,-0.2,-1.3,-1.1,0.9,1.0,8.200000000000001,-11.5,6.5,-22.2,16
471,7851.0,-0.4,-0.8,-1.9000000000000001,0.7000000000000001,1.4000000000000001,7.5,-17.400000000000002,-4.3999999999999995,-24.6,16
472,7867.0,-0.4,-0.5,-2.1,0.8,1.7000000000000002,7.300000000000001,-23.900000000000002,-7.1000000000000005,-22.900000000000002,16
473,7884.0,-0.4,-0.30000000000000004,-2.0,0.9,1.8,7.5,-26.9,-6.000000000000001,-21.0,16
474,7901.0,-0.2,-0.1,-1.9000000000000001,0.9,1.8,7.5,-26.9,-6.000000000000001,-21.0,16
475,7917.0,-0.1,0.1,-1.9000000000000001,1.0,2.0,7.7,-25.6,-0.1,-21.400000000000002,16
476,7934.0,0.0,0.2,-1.6,1.2000000000000002,2.1,8.0,-25.700000000000003,5.6,-21.3,16
477,7950.0,0.1,0.30000000000000004,-1.2000000000000002,1.2000000000000002,2.2,8.700000000000001,-23.8,13.700000000000001,-21.8,16
478,7967.0,0.2,0.6000000000000001,-0.4,1.2000000000000002,2.4000000000000004,9.3,-16.700000000000003,21.700000000000003,-22.3,16
479,7984.0,0.2,1.0,0.1,1.1,2.7,9.600000000000001,-9.200000000000001,23.700000000000003,-21.5,16
480,8001.0,0.2,1.1,0.2,1.1,2.8000000000000003,9.8,-4.5,20.4,-18.8,16
481,8017.0,0.30000000000000004,1.2000000000000002,0.4,1.2000000000000002,3.0,9.8,-1.8,14.900000000000002,-16.3,16
482,8034.0,0.30000000000000004,1.6,0.2,1.1,3.4000000000000004,9.700000000000001,-2.1999999999999997,14.200000000000001,-13.100000000000001,16
483,8051.0,0.2,1.8,0.4,0.8,3.6,10.100000000000001,-5.500000000000001,20.900000000000002,-5.8,16
484,8067.0,0.0,1.9000000000000001,1.0,0.6000000000000001,3.5,10.9,-6.2,37.800000000000004,4.800000000000001,16
485,8084.0,0.0,1.6,1.7000000000000002,0.6000000000000001,3.5,10.9,-0.4,58.9,14.3,16
486,8100.0,0.4,1.1,3.2,0.9,2.7,13.100000000000001,16.2,74.30000000000001,16.3,16
487,8117.0,1.0,0.8,3.5,1.1,2.7,12.9,35.8,77.9,8.0,16
488,8134.0,1.1,1.0,3.0,1.1,2.7,12.9,35.8,77.9,8.0,16
489,8150.0,0.7000000000000001,1.8,1.4000000000000001,-0.1,4.3,10.4,49.2,63.6,-13.4,16
490,8167.0,-1.0,2.5,0.6000000000000001,-1.9000000000000001,4.6000000000000005,10.4,31.3,67.1,-6.3,16
491,8184.0,-1.9000000000000001,2.3000000000000003,1.2000000000000002,-1.9000000000000001,4.6000000000000005,10.4,31.3,67.1,-6.3,16
492,8201.0,-2.1,0.7000000000000001,4.3,-2.3000000000000003,2.3000000000000003,14.8,9.4,75.9,39.300000000000004,16
493,8217.0,-0.9,-1.6,6.2,-1.8,0.4,15.600000000000001,40.7,60.20000000000001,42.5,16
494,8234.0,-0.6000000000000001,-2.7,5.7,-0.7000000000000001,0.2,13.100000000000001,87.7,36.0,37.800000000000004,16
495,8250.0,1.0,-1.9000000000000001,1.1,-0.30000000000000004,1.1,9.200000000000001,103.80000000000001,7.6,20.4,16
496,8268.0,0.6000000000000001,-1.5,-2.5,-0.6000000000000001,1.7000000000000002,6.6000000000000005,85.5,-8.0,10.4,16
497,8284.0,0.5,-1.2000000000000002,-3.3000000000000003,-0.8,2.3000000000000003,5.800000000000001,48.300000000000004,-17.9,4.5,16
498,8300.0,-0.1,-0.7000000000000001,-2.8000000000000003,-1.3,2.6,7.1000000000000005,14.200000000000001,-12.8,3.6,16
499,8317.0,-0.7000000000000001,-0.9,-0.9,-1.8,2.4000000000000004,8.5,1.2000000000000002,2.8,7.0,16
500,8334.0,-0.8,-1.1,-0.2,-1.8,2.0,9.4,6.9,19.9,11.6,16
501,8351.0,-0.7000000000000001,-1.6,0.2,-1.8,1.7000000000000002,9.200000000000001,20.8,27.8,12.200000000000001,16
502,8367.0,-0.5,-1.7000000000000002,-0.7000000000000001,-1.7000000000000002,1.8,8.3,29.800000000000004,24.8,9.3,16
503,8384.0,-0.6000000000000001,-1.4000000000000001,-1.3,-1.9000000000000001,2.3000000000000003,7.300000000000001,27.0,13.100000000000001,6.6000000000000005,16
504,8400.0,-0.8,-0.8,-2.3000000000000003,-2.0,2.8000000000000003,6.6000000000000005,16.6,-1.4,8.5,16
505,8417.0,-0.6000000000000001,-0.4,-2.8000000000000003,-1.7000000000000002,3.2,6.300000000000001,4.6000000000000005,-14.4,13.700000000000001,16
506,8437.0,-0.30000000000000004,-0.5,-2.5,-1.4000000000000001,3.1,6.4,-5.1,-18.8,19.1,16
507,8450.0,-0.1,-0.6000000000000001,-2.2,-1.1,3.0,6.9,-6.9,-16.700000000000003,21.6,16
508,8468.0,0.1,-0.7000000000000001,-1.9000000000000001,-1.1,3.0,6.9,-6.9,-16.700000000000003,21.6,16
509,8484.0,0.0,-0.8,-1.6,-1.1,2.8000000000000003,7.5,6.8,-3.3000000000000003,12.8,16
510,8500.0,-0.5,-0.7000000000000001,-1.4000000000000001,-1.5,3.0,7.7,11.6,1.4,6.4,16
511,8517.0,-0.9,-0.30000000000000004,-1.0,-1.9000000000000001,3.3000000000000003,7.9,15.000000000000002,2.4000000000000004,2.6,16
512,8534.0,-1.2000000000000002,-0.2,-0.9,-2.2,3.6,8.0,18.3,2.6,3.6,16
513,8550.0,-1.2000000000000002,-0.1,-0.9,-2.1,3.7,8.1,20.1,2.8,5.8,16
514,8567.0,-1.0,0.0,-0.7000000000000001,-1.8,3.8000000000000003,8.3,20.900000000000002,1.0,6.8,16
515,8584.0,-0.5,0.1,-0.6000000000000001,-1.4000000000000001,4.0,8.200000000000001,22.4,-5.1,5.0,16
516,8600.0,-0.1,0.4,-1.1,-1.0,4.4,7.7,18.3,-12.8,-0.1,16
517,8617.0,0.1,0.7000000000000001,-1.2000000000000002,-0.9,5.0,7.800000000000001,7.300000000000001,-14.600000000000001,-6.7,16
518,8634.0,0.0,1.3,-0.30000000000000004,-1.0,5.300000000000001,8.9,-3.2,-7.1000000000000005,-9.600000000000001,16
519,8652.0,-0.2,1.4000000000000001,1.4000000000000001,-1.2000000000000002,5.300000000000001,10.3,-5.0,3.6,-9.200000000000001,16
520,8668.0,-0.30000000000000004,1.3,2.1,-1.3,5.1000000000000005,11.200000000000001,2.7,11.8,-7.500000000000001,16
521,8684.0,0.0,1.0,2.5,-0.7000000000000001,5.2,11.200000000000001,10.8,4.6000000000000005,-9.5,16
522,8700.0,0.5,1.3,2.2,-0.7000000000000001,5.2,11.200000000000001,10.8,4.6000000000000005,-9.5,16
523,8717.0,0.6000000000000001,2.3000000000000003,0.6000000000000001,-0.7000000000000001,6.5,9.4,-2.7,-26.3,-29.1,16
524,8734.0,-0.5,2.7,0.8,-1.7000000000000002,6.6000000000000005,10.100000000000001,-30.7,-31.7,-28.0,16
525,8750.0,-1.2000000000000002,1.9000000000000001,3.2,-1.7000000000000002,6.6000000000000005,10.100000000000001,-30.7,-31.7,-28.0,16
526,8767.0,-1.0,0.8,4.6000000000000005,-1.3,3.8000000000000003,14.200000000000001,-31.4,-17.7,4.800000000000001,16
527,8784.0,0.4,-1.2000000000000002,5.1000000000000005,-0.1,2.4000000000000004,13.8,10.0,-8.4,7.400000000000001,16
528,8800.0,1.0,-1.8,4.0,0.6000000000000001,2.0,11.4,48.50000000000001,-9.3,-6.5,16
529,8817.0,1.6,-1.5,0.5,0.8,2.8000000000000003,8.4,60.7,-16.0,-24.9,16
530,8834.0,1.2000000000000002,-0.4,-2.2,0.4,3.9000000000000004,6.6000000000000005,51.0,-18.8,-37.5,16
531,8850.0,0.8,0.0,-2.7,-0.30000000000000004,4.5,5.800000000000001,32.300000000000004,-17.200000000000003,-38.5,16
532,8867.0,0.1,0.4,-3.1,-0.8,4.7,5.9,12.4,-3.8,-29.400000000000002,16
533,8884.0,-0.4,0.4,-2.2,-1.2000000000000002,4.6000000000000005,6.7,-1.5000000000000002,17.5,-14.700000000000001,16
534,8900.0,-0.5,0.2,-1.8,-1.4000000000000001,4.1000000000000005,7.5,-9.200000000000001,37.5,3.1,16
535,8917.0,-0.5,-0.7000000000000001,-0.8,-1.4000000000000001,3.3000000000000003,8.200000000000001,-14.700000000000001,43.6,18.0,16
536,8934.0,-0.1,-1.5,-0.2,-1.1,2.6,8.6,-17.400000000000002,36.3,27.400000000000002,16
537,8950.0,0.1,-1.7000000000000002,-0.30000000000000004,-0.8,2.3000000000000003,8.0,-15.8,18.5,30.799999999999997,16
538,8967.0,0.4,-2.0,-1.6,-0.6000000000000001,2.0,6.9,-19.9,-0.5,30.9,16
539,8984.0,0.4,-2.1,-2.2,-0.6000000000000001,2.0,6.9,-19.9,-0.5,30.9,16
540,9001.0,0.4,-2.1,-2.7,-0.4,1.8,6.5,-43.7,-15.8,30.7,16
541,9017.0,0.7000000000000001,-2.0,-2.0,-0.1,1.7000000000000002,6.9,-44.00000000000001,-13.3,29.500000000000004,16
542,9034.0,0.8,-2.0,-1.9000000000000001,-0.1,1.7000000000000002,6.9,-44.00000000000001,-13.3,29.500000000000004,16
543,9050.0,1.1,-2.0,-1.9000000000000001,0.30000000000000004,1.7000000000000002,6.9,-27.2,-4.5,14.900000000000002,16
544,9067.0,0.9,-1.5,-2.4000000000000004,0.2,2.2,6.6000000000000005,-25.900000000000002,-4.300000000000001,4.0,16
545,9084.0,0.7000000000000001,-1.1,-2.4000000000000004,0.2,2.2,6.6000000000000005,-25.900000000000002,-4.300000000000001,4.0,16
546,9101.0,0.4,-0.30000000000000004,-2.0,-0.2,3.2,7.300000000000001,-41.9,-16.8,-6.6000000000000005,16
547,9117.0,0.4,0.4,-1.1,-0.1,3.6,8.1,-44.5,-25.900000000000002,-5.500000000000001,16
548,9134.0,0.6000000000000001,0.5,-0.6000000000000001,0.30000000000000004,3.7,8.6,-37.300000000000004,-31.900000000000002,-3.8,16
549,9150.0,1.0,0.9,-0.8,0.7000000000000001,4.0,8.200000000000001,-28.0,-32.0,-4.5,16
550,9167.0,1.3,1.2000000000000002,-1.2000000000000002,1.0,4.2,7.9,-25.0,-29.200000000000003,-5.8,16
551,9184.0,1.4000000000000001,1.3,-1.1,1.1,4.3,8.1,-25.6,-22.1,-7.300000000000001,16
552,9200.0,1.2000000000000002,1.6,-0.7000000000000001,1.0,4.5,8.8,-27.1,-7.400000000000001,-5.8,16
553,9217.0,1.1,1.7000000000000002,-0.1,0.7000000000000001,4.4,9.700000000000001,-28.200000000000003,8.4,-1.7,16
554,9234.0,0.8,1.6,0.9,0.5,3.9000000000000004,10.700000000000001,-32.7,19.9,3.2,16
555,9250.0,0.7000000000000001,0.7000000000000001,2.5,0.5,3.1,12.200000000000001,-39.6,23.3,4.6000000000000005,16
556,9267.0,1.1,0.2,4.1000000000000005,0.7000000000000001,2.6,13.5,-39.50000000000001,16.700000000000003,-0.9,16
557,9284.0,1.2000000000000002,0.2,4.2,0.9,2.8000000000000003,13.200000000000001,-28.500000000000004,3.7000000000000006,-12.700000000000001,16
558,9300.0,1.0,0.8,2.7,0.5,3.3000000000000003,11.700000000000001,-18.900000000000002,-2.7,-21.6,16
559,9317.0,0.7000000000000001,1.1,1.7000000000000002,0.5,3.3000000000000003,11.700000000000001,-18.900000000000002,-2.7,-21.6,16
560,9334.0,-0.30000000000000004,1.2000000000000002,1.4000000000000001,-1.1,3.1,11.4,-49.7,3.7000000000000006,-11.1,16
561,9350.0,-1.0,0.2,3.5,-1.1,2.0,13.5,-67.3,6.5,5.300000000000001,16
562,9368.0,-0.2,-0.4,4.9,-1.1,2.0,13.5,-67.3,6.5,5.300000000000001,16
563,9384.0,-0.4,-2.6,6.7,-0.9,-1.3,16.1,-21.8,6.5,1.0999999999999999,16
564,9401.0,0.2,-2.7,4.6000000000000005,-0.1,-0.7000000000000001,13.600000000000001,26.9,-2.1999999999999997,-9.4,16
565,9417.0,0.6000000000000001,-1.7000000000000002,2.3000000000000003,-0.30000000000000004,0.7000000000000001,10.200000000000001,52.300000000000004,-10.3,-26.500000000000004,16
566,9434.0,-0.7000000000000001,-0.8,-1.0,-1.5,1.4000000000000001,8.0,46.1,-16.1,-29.700000000000003,16
567,9450.0,-1.8,-0.1,-2.6,-2.3000000000000003,2.0,7.1000000000000005,20.6,-17.1,-19.700000000000003,16
568,9467.0,-2.0,0.0,-2.2,-2.4000000000000004,2.0,8.200000000000001,-9.4,-9.0,-1.9,16
569,9484.0,-1.8,-0.30000000000000004,-0.4,-1.9000000000000001,1.6,9.5,-20.7,0.2,15.100000000000001,16
570,9500.0,-0.9,-0.9,0.6000000000000001,-1.3,1.0,10.200000000000001,-18.1,4.6000000000000005,22.900000000000002,16
571,9517.0,-0.6000000000000001,-1.1,0.7000000000000001,-0.8,0.7000000000000001,10.200000000000001,-9.3,2.6,20.1,16
572,9534.0,-0.4,-1.1,0.1,-0.8,0.9,9.5,-0.7,-2.3000000000000003,11.700000000000001,16
573,9550.0,-0.5,-0.9,-0.4,-0.9,1.3,8.8,-0.7,-2.3000000000000003,11.700000000000001,16
574,9567.0,-0.6000000000000001,-0.30000000000000004,-1.2000000000000002,-0.9,1.8,8.0,10.700000000000001,-13.200000000000001,1.9,16
575,9584.0,-0.6000000000000001,0.1,-2.4000000000000004,-0.9,2.1,6.9,14.500000000000002,-14.900000000000002,2.0,16
576,9600.0,-0.6000000000000001,0.30000000000000004,-3.1,-0.9,2.1,6.9,14.500000000000002,-14.900000000000002,2.0,16
577,9617.0,-0.6000000000000001,0.4,-3.7,-0.8,2.4000000000000004,6.1000000000000005,-2.7,-7.300000000000001,8.1,16
578,9633.0,-0.5,0.4,-2.7,-0.7000000000000001,2.3000000000000003,7.1000000000000005,-14.900000000000002,-4.300000000000001,11.6,16
579,9650.0,-0.4,0.2,-2.0,-0.7000000000000001,2.3000000000000003,7.1000000000000005,-14.900000000000002,-4.300000000000001,11.6,16
580,9667.0,-0.2,0.1,-0.8,-0.4,2.0,8.9,-9.5,-0.7,10.2,16
581,9684.0,-0.30000000000000004,0.1,-0.6000000000000001,-0.5,1.9000000000000001,8.9,-0.1,0.30000000000000004,7.0,16
582,9700.0,-0.4,0.1,-0.8,-0.6000000000000001,2.0,8.700000000000001,4.2,0.30000000000000004,5.0,16
583,9717.0,-0.4,0.2,-0.8,-0.6000000000000001,2.1,8.8,4.0,-1.8,4.1000000000000005,16
584,9734.0,-0.4,0.30000000000000004,-0.5,-0.6000000000000001,2.2,9.0,4.2,-5.9,4.0,16
585,9751.0,-0.4,0.30000000000000004,-0.5,-0.4,2.2,9.1,5.8,-9.8,4.0,16
586,9767.0,-0.1,0.30000000000000004,-0.30000000000000004,-0.1,2.4000000000000004,9.1,6.8,-13.9,2.0,16
587,9784.0,0.1,0.4,-0.4,-0.1,2.4000000000000004,9.1,6.8,-13.9,2.0,16
588,9801.0,0.4,0.8,-0.9,0.30000000000000004,2.9000000000000004,8.6,4.1000000000000005,-16.5,-9.1,16
589,9818.0,0.2,1.1,-0.6000000000000001,0.1,3.1,9.1,-2.0,-5.9,-12.4,16
590,9835.0,0.0,1.0,0.30000000000000004,-0.1,3.0,9.8,-5.500000000000001,6.6000000000000005,-12.5,16
591,9850.0,-0.1,0.9,0.7000000000000001,-0.1,2.8000000000000003,10.600000000000001,-6.8,14.800000000000002,-12.000000000000002,16
592,9867.0,0.2,0.6000000000000001,1.9000000000000001,0.2,2.6,11.5,-2.5,17.5,-15.8,16
593,9883.0,0.6000000000000001,1.0,1.7000000000000002,0.2,2.6,11.5,8.5,9.600000000000001,-26.700000000000003,16
594,9900.0,0.5,1.6,0.5,0.1,4.1000000000000005,9.200000000000001,6.5,-5.4,-38.1,16
595,9917.0,-0.2,2.6,-1.2000000000000002,-0.5,4.5,8.6,-21.200000000000003,-11.3,-35.8,16
596,9934.0,-0.6000000000000001,2.5,-0.6000000000000001,-0.5,4.5,8.6,-21.200000000000003,-11.3,-35.8,16
597,9951.0,-0.9,1.1,2.7,-0.9,2.2,13.5,-58.400000000000006,12.9,3.1,16
598,9967.0,0.1,-0.7000000000000001,5.6000000000000005,0.0,0.7000000000000001,15.3,-29.900000000000006,26.1,15.7,16
599,9984.0,0.6000000000000001,-1.5,5.800000000000001,0.7000000000000001,-0.2,14.4,15.9,23.400000000000002,11.8,16
600,10000.0,1.4000000000000001,-1.7000000000000002,2.6,1.1,0.2,11.100000000000001,37.6,5.6,-3.7000000000000006,16
601,10017.0,1.3,-0.9,-0.7000000000000001,0.8,1.0,8.8,20.2,-11.3,-16.3,16
602,10034.0,0.8,-0.5,-1.1,0.1,1.5,9.0,-18.5,-21.6,-19.400000000000002,16
603,10050.0,0.0,-0.1,0.6000000000000001,-0.30000000000000004,1.6,10.8,-43.50000000000001,-21.900000000000002,-12.3,16
604,10067.0,0.0,0.0,2.3000000000000003,-0.2,1.5,12.0,-38.5,-8.700000000000001,-1.2000000000000002,16
605,10084.0,0.1,-0.2,2.4000000000000004,0.0,1.0,11.700000000000001,-16.2,7.6,7.300000000000001,16
606,10100.0,0.30000000000000004,-0.7000000000000001,1.1,0.0,0.8,10.4,-1.0,11.5,8.700000000000001,16
607,10117.0,0.1,-0.7000000000000001,-0.7000000000000001,0.0,0.8,10.4,-2.9,4.1000000000000005,6.2,16
608,10134.0,0.0,-0.7000000000000001,-1.0,-0.4,0.7000000000000001,8.8,-16.3,-5.300000000000001,4.7,16
609,10150.0,-0.30000000000000004,-0.7000000000000001,-0.7000000000000001,-0.5,0.6000000000000001,9.1,-22.8,-12.6,5.1,16
610,10167.0,-0.4,-0.8,-0.6000000000000001,-0.5,0.6000000000000001,9.1,-22.8,-12.6,5.1,16
611,10184.0,-0.30000000000000004,-0.9,-1.1,-0.30000000000000004,0.30000000000000004,8.4,-7.9,-16.1,5.4,16
612,10200.0,-0.2,-1.0,-1.8,-0.2,0.30000000000000004,7.9,-0.9,-13.5,0.7,16
613,10217.0,-0.2,-0.9,-2.0,-0.2,0.30000000000000004,7.9,-0.9,-13.5,0.7,16
614,10234.0,-0.30000000000000004,-0.7000000000000001,-1.6,-0.4,0.7000000000000001,8.200000000000001,9.200000000000001,-8.700000000000001,-13.5,16
615,10250.0,-0.5,-0.2,-1.6,-0.6000000000000001,1.2000000000000002,8.0,19.700000000000003,-4.5,-17.400000000000002,16
616,10267.0,-0.6000000000000001,0.1,-1.9000000000000001,-0.7000000000000001,1.6,7.5,25.1,-0.5,-16.3,16
617,10284.0,-0.7000000000000001,0.4,-2.3000000000000003,-0.7000000000000001,1.9000000000000001,7.4,21.700000000000003,0.5,-11.000000000000002,16
618,10301.0,-0.5,0.5,-1.8,-0.5,2.0,7.9,16.5,-0.1,-4.1000000000000005,16
619,10317.0,-0.2,0.4,-1.4000000000000001,0.0,1.8,8.6,14.500000000000002,-0.1,0.7,16
620,10334.0,0.4,0.2,-0.8,0.5,1.8,8.8,16.0,-3.3000000000000003,0.0,16
621,10350.0,0.6000000000000001,0.4,-1.0,0.6000000000000001,2.0,8.6,15.2,-4.9,-3.2,16
622,10367.0,0.5,0.4,-1.0,0.4,2.1,8.8,10.4,-2.1,-4.6000000000000005,16
623,10384.0,0.30000000000000004,0.4,-0.6000000000000001,0.2,2.1,9.1,5.9,4.6000000000000005,-4.3999999999999995,16
624,10400.0,0.2,0.5,-0.2,0.2,2.1,9.4,2.1999999999999997,12.5,-1.9,16
625,10417.0,0.4,0.4,0.0,0.4,2.0,9.700000000000001,0.2,20.0,-0.2,16
626,10434.0,0.8,0.30000000000000004,0.7000000000000001,0.8,2.0,10.5,1.0999999999999999,24.200000000000003,-3.2,16
627,10450.0,1.1,0.30000000000000004,1.1,0.8,2.0,10.5,1.0999999999999999,24.200000000000003,-3.2,16
628,10467.0,1.0,0.9,0.4,0.5,2.9000000000000004,9.5,7.8,13.9,-22.3,16
629,10484.0,0.1,1.5,-0.30000000000000004,-0.4,3.3000000000000003,9.5,-9.5,17.3,-24.3,16
630,10500.0,-0.5,1.6,0.5,-0.4,3.3000000000000003,9.5,-9.5,17.3,-24.3,16
631,10517.0,-1.3,1.4000000000000001,3.9000000000000004,-1.8,2.7,14.3,-24.9,44.4,-3.7000000000000006,16
632,10534.0,-0.8,0.6000000000000001,5.1000000000000005,-1.3,2.1,14.4,6.3,44.6,8.4,16
633,10555.0,0.0,-0.1,2.7,-0.8,1.6,12.5,32.7,26.9,10.8,16
634,10567.0,0.0,-0.1,1.3,-0.8,1.7000000000000002,10.0,31.6,-2.0,6.9,16
635,10586.0,-0.2,-0.2,-1.0,-1.0,1.6,8.700000000000001,8.3,-17.1,6.2,16
636,10600.0,-0.4,-0.2,-0.8,-1.4000000000000001,1.5,9.700000000000001,-20.8,-12.8,10.0,16
637,10617.0,-0.9,-0.4,1.0,-1.5,1.2000000000000002,11.0,-26.8,1.3,16.6,16
638,10633.0,-0.7000000000000001,-0.8,2.2,-1.4000000000000001,0.8,11.8,-13.4,16.3,21.700000000000003,16
639,10650.0,-0.6000000000000001,-0.9,2.0,-1.2000000000000002,0.7000000000000001,11.100000000000001,8.5,18.0,21.8,16
640,10667.0,-0.4,-0.8,0.2,-1.1,1.0,9.5,20.5,7.8,18.400000000000002,16
641,10684.0,-0.4,-0.4,-1.5,-1.1,1.0,9.5,19.3,-7.0,16.2,16
642,10701.0,-0.4,-0.1,-2.2,-1.1,1.8,7.2,9.5,-18.5,17.9,16
643,10717.0,-0.30000000000000004,0.2,-2.5,-0.9,2.0,7.300000000000001,-2.0,-21.900000000000002,23.1,16
644,10733.0,-0.2,0.1,-2.1,-0.9,2.0,7.300000000000001,-2.0,-21.900000000000002,23.1,16
645,10750.0,0.30000000000000004,-0.30000000000000004,-1.4000000000000001,-0.2,1.4000000000000001,8.200000000000001,3.9,-13.8,28.200000000000003,16
646,10767.0,0.4,-0.6000000000000001,-1.5,-0.1,1.2000000000000002,8.1,13.0,-8.5,24.000000000000004,16
647,10784.0,0.4,-0.6000000000000001,-1.6,-0.1,1.2000000000000002,8.1,13.0,-8.5,24.000000000000004,16
648,10800.0,0.1,-0.5,-1.8,-0.4,1.4000000000000001,7.9,17.5,-5.300000000000001,14.3,16
649,10817.0,-0.1,-0.4,-1.4000000000000001,-0.5,1.5,8.1,16.900000000000002,-7.400000000000001,12.9,16
650,10834.0,-0.2,-0.4,-1.4000000000000001,-0.5,1.6,8.3,17.5,-11.3,12.100000000000001,16
651,10850.0,-0.1,-0.5,-1.1,-0.30000000000000004,1.6,8.4,19.6,-15.000000000000002,10.700000000000001,16
652,10867.0,0.0,-0.5,-1.2000000000000002,-0.2,1.6,8.3,21.400000000000002,-15.000000000000002,8.4,16
653,10884.0,0.1,-0.4,-1.2000000000000002,-0.1,1.8,8.3,19.6,-14.600000000000001,6.000000000000001,16
654,10900.0,0.30000000000000004,-0.30000000000000004,-0.9,0.2,1.9000000000000001,8.6,16.2,-16.3,2.6,16
655,10917.0,0.5,-0.2,-0.8,0.4,2.1,8.700000000000001,13.0,-17.5,-3.6,16
656,10934.0,0.5,0.0,-0.7000000000000001,0.4,2.5,8.8,6.9,-13.9,-9.700000000000001,16
657,10950.0,0.30000000000000004,0.5,-0.2,0.2,2.8000000000000003,9.5,-3.4,-6.000000000000001,-11.2,16
658,10967.0,0.1,0.5,0.4,0.2,2.8000000000000003,9.5,-3.4,-6.000000000000001,-11.2,16
659,10983.0,0.2,0.2,1.8,0.30000000000000004,2.3000000000000003,11.8,-13.5,5.300000000000001,-9.200000000000001,16
660,11000.0,0.8,-0.1,2.9000000000000004,0.8,2.2,12.5,-6.3,2.7,-17.8,16
661,11017.0,1.0,0.1,3.1,0.8,2.2,12.5,-6.3,2.7,-17.8,16
662,11034.0,0.6000000000000001,1.4000000000000001,1.4000000000000001,0.1,4.2,10.4,5.7,-14.200000000000001,-53.9,16
663,11050.0,-0.7000000000000001,2.5,0.9,-1.1,4.7,10.700000000000001,-11.6,-3.6,-52.7,16
664,11067.0,-1.4000000000000001,2.3000000000000003,1.8,-1.1,4.7,10.700000000000001,-11.6,-3.6,-52.7,16
665,11084.0,-1.2000000000000002,1.2000000000000002,4.2,-1.2000000000000002,2.8000000000000003,14.3,-7.8,33.300000000000004,-16.2,16
666,11100.0,-0.4,-0.4,4.9,-0.7000000000000001,1.6,14.3,23.6,41.6,-7.1000000000000005,16
667,11117.0,-0.1,-1.1,4.2,-0.4,1.0,12.5,51.1,31.3,-8.700000000000001,16
668,11134.0,0.30000000000000004,-1.2000000000000002,1.3,-0.30000000000000004,1.4000000000000001,10.0,52.800000000000004,4.1000000000000005,-15.6,16
669,11150.0,0.30000000000000004,-0.7000000000000001,-1.2000000000000002,-0.2,1.9000000000000001,8.200000000000001,32.300000000000004,-20.8,-17.9,16
670,11168.0,0.4,-0.4,-1.7000000000000002,0.1,2.4000000000000004,7.6000000000000005,5.500000000000001,-32.5,-13.700000000000001,16
671,11184.0,0.6000000000000001,-0.2,-1.9000000000000001,0.4,2.3000000000000003,7.7,-12.100000000000001,-24.8,-4.800000000000001,16
672,11200.0,1.0,-0.5,-1.4000000000000001,0.7000000000000001,1.9000000000000001,8.1,-20.3,-6.000000000000001,3.7000000000000006,16
673,11217.0,1.2000000000000002,-0.7000000000000001,-1.2000000000000002,1.0,1.5,8.700000000000001,-20.5,14.3,7.699999999999999,16
674,11234.0,1.4000000000000001,-1.1,-0.5,1.0,1.2000000000000002,9.1,-16.400000000000002,26.6,6.7,16
675,11250.0,1.3,-1.4000000000000001,-0.30000000000000004,1.0,1.2000000000000002,9.1,-12.3,29.300000000000004,3.0000000000000004,16
676,11267.0,1.3,-1.4000000000000001,-0.4,0.7000000000000001,1.0,9.0,-10.5,24.3,-2.1999999999999997,16
677,11284.0,1.0,-1.3,-0.7000000000000001,0.4,1.0,8.700000000000001,-12.000000000000002,13.4,-6.6000000000000005,16
678,11300.0,0.9,-1.2000000000000002,-0.9,0.4,1.0,8.700000000000001,-12.000000000000002,13.4,-6.6000000000000005,16
679,11317.0,0.6000000000000001,-1.1,-1.4000000000000001,0.0,1.1,7.800000000000001,-15.6,-7.400000000000001,-12.100000000000001,16
680,11334.0,0.30000000000000004,-1.1,-2.0,-0.2,1.0,7.5,-18.400000000000002,-7.9,-12.6,16
681,11350.0,0.2,-1.0,-2.1,-0.2,1.0,7.5,-18.400000000000002,-7.9,-12.6,16
682,11367.0,0.30000000000000004,-1.2000000000000002,-1.5,-0.1,0.6000000000000001,8.3,-18.900000000000002,0.1,-14.3,16
683,11384.0,0.5,-1.4000000000000001,-0.9,0.0,0.6000000000000001,8.5,-6.5,2.1,-21.400000000000002,16
684,11400.0,0.5,-1.2000000000000002,-1.3,-0.2,1.0,7.6000000000000005,6.1000000000000005,1.0,-30.799999999999997,16
685,11417.0,0.0,-0.6000000000000001,-2.5,-0.7000000000000001,1.6,7.0,4.3999999999999995,0.2,-35.1,16
686,11433.0,-0.6000000000000001,0.1,-2.5,-1.2000000000000002,2.1,7.1000000000000005,-5.500000000000001,-2.5,-32.4,16
687,11450.0,-0.6000000000000001,0.30000000000000004,-2.0,-1.1,2.4000000000000004,7.9,-14.4,-7.500000000000001,-24.400000000000002,16
688,11467.0,-0.30000000000000004,0.6000000000000001,-1.0,-0.8,2.4000000000000004,8.700000000000001,-14.800000000000002,-9.1,-15.7,16
689,11484.0,0.2,0.4,-0.5,-0.30000000000000004,2.3000000000000003,9.0,-10.4,-8.799999999999999,-10.8,16
690,11500.0,0.4,0.5,-0.4,-0.1,2.3000000000000003,9.1,-6.7,-6.5,-9.5,16
691,11517.0,0.4,0.6000000000000001,-0.2,-0.2,2.5,9.3,-6.5,-3.3000000000000003,-9.200000000000001,16
692,11534.0,0.2,0.8,-0.2,-0.5,2.6,9.700000000000001,-6.5,-3.3000000000000003,-9.200000000000001,16
693,11550.0,0.0,0.9,0.7000000000000001,-0.7000000000000001,2.5,11.0,-17.200000000000003,10.5,-1.0,16
694,11567.0,-0.1,0.5,2.8000000000000003,-0.7000000000000001,2.1,12.600000000000001,-13.700000000000001,17.1,4.2,16
695,11584.0,0.0,0.30000000000000004,3.5,-0.7000000000000001,2.1,12.600000000000001,-13.700000000000001,17.1,4.2,16
696,11600.0,0.30000000000000004,0.6000000000000001,3.3000000000000003,-0.4,2.6,12.200000000000001,16.2,-2.9,-5.7,16
697,11617.0,-0.2,1.3,1.3,-1.1,3.2,10.5,21.3,-18.8,-11.9,16
698,11633.0,-1.0,1.6,0.2,-1.1,3.2,10.5,21.3,-18.8,-11.9,16
699,11650.0,-2.3000000000000003,2.2,-0.4,-3.2,4.1000000000000005,9.600000000000001,-7.0,-1.0,11.1,16
700,11667.0,-3.0,1.8,1.6,-3.5,3.1,11.8,-14.600000000000001,37.900000000000006,46.0,16
701,11684.0,-2.6,0.4,3.6,-2.4000000000000004,0.6000000000000001,15.100000000000001,-8.3,58.400000000000006,77.1,16
702,11700.0,-0.30000000000000004,-2.4000000000000004,6.6000000000000005,-0.4,-1.0,15.8,26.0,30.7,74.89999999999999,16
703,11717.0,1.3,-2.9000000000000004,3.8000000000000003,0.4,-0.8,12.8,59.9,-23.400000000000002,44.3,16
704,11733.0,0.8,-2.5,1.3,-0.5,0.2,8.9,62.1,-63.10000000000001,13.8,16
705,11750.0,-0.7000000000000001,-1.0,-2.3000000000000003,-1.5,1.8,6.9,33.7,-66.80000000000001,7.6,16
706,11767.0,-1.7000000000000002,0.6000000000000001,-2.4000000000000004,-2.0,2.8000000000000003,7.5,-8.1,-38.7,22.3,16
707,11784.0,-1.6,0.4,-0.7000000000000001,-1.6,2.2,10.700000000000001,-32.6,4.5,47.5,16
708,11800.0,-0.8,-0.7000000000000001,3.0,-0.8,1.2000000000000002,13.0,-21.5,33.300000000000004,58.2,16
709,11817.0,-0.30000000000000004,-1.2000000000000002,3.7,-0.8,1.2000000000000002,13.0,-21.5,33.300000000000004,58.2,16
710,11834.0,0.0,-1.0,2.2,-0.4,1.4000000000000001,10.600000000000001,27.5,22.4,38.6,16
711,11850.0,-0.2,-0.4,-0.7000000000000001,-0.7000000000000001,1.9000000000000001,8.4,31.6,2.0,30.4,16
712,11868.0,-0.5,0.0,-2.8000000000000003,-0.8,2.4000000000000004,6.7,23.2,-22.000000000000004,29.000000000000004,16
713,11884.0,-0.4,0.2,-3.7,-0.5,2.7,5.4,9.8,-40.0,32.800000000000004,16
714,11900.0,0.0,0.6000000000000001,-4.800000000000001,0.1,3.0,4.6000000000000005,-5.500000000000001,-44.8,37.1,16
715,11917.0,0.30000000000000004,0.7000000000000001,-5.1000000000000005,0.1,3.0,4.6000000000000005,-5.500000000000001,-44.8,37.1,16
716,11934.0,0.6000000000000001,0.5,-4.800000000000001,0.9,2.6,5.0,-32.4,-33.2,37.6,16
717,11950.0,0.8,0.1,-3.6,1.1,2.2,6.1000000000000005,-37.4,-21.400000000000002,33.5,16
718,11967.0,0.9,-0.1,-2.9000000000000004,1.3,1.7000000000000002,7.5,-34.300000000000004,-6.2,25.700000000000003,16
719,11983.0,1.1,-0.4,-1.3,1.5,1.5,8.5,-21.8,5.6,14.0,16
720,12000.0,1.3,-0.5,-0.6000000000000001,1.7000000000000002,1.4000000000000001,8.9,-7.8,9.1,-0.9,16
721,12017.0,1.3,-0.5,-0.6000000000000001,1.6,1.6,8.8,0.30000000000000004,7.500000000000001,-17.400000000000002,16
722,12034.0,1.1,-0.2,-0.5,1.2000000000000002,1.8,9.1,1.0,4.5,-30.5,16
723,12050.0,0.4,0.2,0.1,0.7000000000000001,2.1,9.600000000000001,-0.5,3.0000000000000004,-37.6,16
724,12068.0,0.30000000000000004,0.30000000000000004,0.4,0.5,2.3000000000000003,10.0,-1.0999999999999999,1.4,-38.5,16
725,12083.0,0.30000000000000004,0.2,0.6000000000000001,0.6000000000000001,2.1,9.9,-1.3,-5.0,-39.699999999999996,16
726,12100.0,0.4,0.1,0.30000000000000004,0.6000000000000001,2.1,9.9,-1.3,-5.0,-39.699999999999996,16
727,12117.0,0.2,0.0,0.7000000000000001,0.2,1.8,11.0,-16.700000000000003,0.4,-44.4,16
728,12133.0,-0.2,-0.2,2.6,0.0,1.6,12.600000000000001,-18.2,2.3000000000000003,-44.6,16
729,12150.0,-0.2,-0.4,3.5,0.0,1.6,12.600000000000001,-18.2,2.3000000000000003,-44.6,16
730,12167.0,-0.1,-0.2,3.4000000000000004,0.0,2.1,12.100000000000001,7.8,-15.7,-59.9,16
731,12183.0,-0.4,1.1,0.9,-0.4,3.2,10.3,8.9,-16.8,-67.9,16
732,12200.0,-0.8,1.7000000000000002,0.4,-0.4,3.2,10.3,8.9,-16.8,-67.9,16
733,12217.0,-1.7000000000000002,2.3000000000000003,1.2000000000000002,-1.8,3.9000000000000004,11.3,-27.1,6.2,-48.9,16
734,12233.0,-1.9000000000000001,1.5,3.0,-1.9000000000000001,3.0,13.100000000000001,-32.6,20.4,-28.3,16
735,12250.0,-1.9000000000000001,0.7000000000000001,4.1000000000000005,-1.5,1.3,14.3,-19.0,25.700000000000003,-10.600000000000001,16
736,12267.0,-0.8,-1.4000000000000001,4.5,-0.7000000000000001,0.0,13.8,8.9,23.0,-6.7,16
737,12284.0,-0.2,-2.1,2.7,-0.30000000000000004,-0.30000000000000004,12.0,33.800000000000004,11.1,-15.000000000000002,16
738,12301.0,-0.1,-2.0,1.3,-0.30000000000000004,0.2,9.5,47.1,-11.700000000000001,-26.1,16
739,12317.0,-0.30000000000000004,-1.1,-1.9000000000000001,-0.4,1.2000000000000002,7.1000000000000005,45.3,-32.5,-29.900000000000006,16
740,12334.0,-0.4,-0.2,-4.1000000000000005,-0.4,2.0,5.4,31.0,-43.2,-23.3,16
741,12350.0,-0.4,0.1,-4.6000000000000005,-0.30000000000000004,2.4000000000000004,5.0,9.9,-39.6,-7.8,16
742,12367.0,-0.30000000000000004,0.1,-3.9000000000000004,-0.1,2.0,6.1000000000000005,-10.2,-19.1,12.000000000000002,16
743,12385.0,0.0,-0.8,-2.2,0.2,1.2000000000000002,7.5,-25.3,6.5,28.3,16
744,12400.0,0.30000000000000004,-1.2000000000000002,-1.1,0.6000000000000001,0.30000000000000004,9.700000000000001,-36.7,29.000000000000004,36.2,16
745,12417.0,0.6000000000000001,-2.2,1.8,0.7000000000000001,-0.5,11.8,-35.0,31.7,35.1,16
746,12433.0,0.9,-2.6,3.0,0.9,-0.8,12.600000000000001,-19.200000000000003,19.6,26.8,16
747,12450.0,0.9,-2.3000000000000003,2.5,0.8,-0.30000000000000004,11.3,-1.2000000000000002,3.3000000000000003,16.700000000000003,16
748,12467.0,0.6000000000000001,-1.6,0.30000000000000004,0.6000000000000001,0.2,9.700000000000001,0.1,-11.000000000000002,11.3,16
749,12484.0,0.4,-1.3,-0.4,0.6000000000000001,0.2,9.700000000000001,0.1,-11.000000000000002,11.3,16
750,12500.0,0.2,-0.9,-0.4,0.4,0.6000000000000001,9.4,-21.700000000000003,-14.900000000000002,17.400000000000002,16
751,12517.0,0.30000000000000004,-1.1,0.1,0.5,0.4,9.8,-21.6,-8.600000000000001,20.2,16
752,12534.0,0.4,-1.2000000000000002,0.30000000000000004,0.6000000000000001,0.2,10.100000000000001,-14.700000000000001,-4.2,19.200000000000003,16
753,12550.0,0.5,-1.3,0.4,0.7000000000000001,0.2,9.8,-4.1000000000000005,-3.9,14.900000000000002,16
754,12567.0,0.30000000000000004,-1.1,-0.5,0.5,0.4,9.1,3.1,-4.9,10.700000000000001,16
755,12584.0,0.1,-0.9,-0.9,0.2,0.8,8.5,3.1,-7.8,9.8,16
756,12600.0,-0.2,-0.4,-1.3,0.1,1.1,8.3,-1.5000000000000002,-10.600000000000001,12.8,16
757,12617.0,0.0,-0.30000000000000004,-1.3,0.30000000000000004,1.1,8.3,-5.4,-12.000000000000002,16.700000000000003,16
758,12634.0,0.1,-0.30000000000000004,-1.3,0.5,1.1,8.4,-7.1000000000000005,-11.700000000000001,18.6,16
759,12650.0,0.30000000000000004,-0.2,-1.4000000000000001,0.7000000000000001,1.2000000000000002,8.200000000000001,-7.2,-7.9,18.900000000000002,16
760,12667.0,0.30000000000000004,-0.1,-1.4000000000000001,0.8,1.2000000000000002,8.200000000000001,-8.700000000000001,-1.0999999999999999,18.2,16
761,12684.0,0.30000000000000004,-0.1,-1.3,0.7000000000000001,1.3,8.6,-11.8,8.1,17.5,16
762,12700.0,0.2,0.2,-0.4,0.5,1.5,9.5,-13.6,18.0,18.2,16
763,12717.0,0.1,0.2,0.2,0.5,1.5,9.5,-10.0,24.5,19.8,16
764,12733.0,0.1,0.2,1.1,0.4,1.4000000000000001,10.9,-2.6,24.000000000000004,20.1,16
765,12750.0,0.2,0.2,1.3,0.4,1.5,11.0,3.6,18.7,18.0,16
766,12767.0,0.2,0.30000000000000004,1.2000000000000002,0.4,1.5,11.0,3.6,18.7,18.0,16
767,12784.0,0.30000000000000004,0.7000000000000001,0.6000000000000001,0.4,2.2,10.100000000000001,8.3,5.6,11.4,16
768,12800.0,0.2,1.2000000000000002,0.0,0.30000000000000004,2.5,9.700000000000001,5.6,6.5,12.000000000000002,16
769,12817.0,0.1,1.2000000000000002,0.0,0.2,2.5,9.9,0.30000000000000004,15.000000000000002,16.700000000000003,16
770,12833.0,0.0,1.0,1.0,0.1,2.1,11.200000000000001,-2.1999999999999997,25.700000000000003,23.6,16
771,12850.0,0.2,0.2,2.5,0.30000000000000004,1.5,12.200000000000001,5.500000000000001,26.6,26.9,16
772,12867.0,0.5,-0.1,2.6,0.7000000000000001,1.2000000000000002,12.0,19.3,14.900000000000002,23.0,16
773,12883.0,0.8,-0.1,1.5,0.7000000000000001,1.4000000000000001,10.700000000000001,26.1,-2.1,14.600000000000001,16
774,12900.0,0.4,0.1,-0.1,0.4,1.6,9.5,20.5,-14.100000000000001,9.1,16
775,12917.0,0.2,0.1,-0.4,0.2,1.8,9.4,5.7,-11.9,7.9,16
776,12933.0,0.0,0.30000000000000004,0.1,0.1,1.8,10.0,-4.9,-1.0,8.700000000000001,16
777,12950.0,0.0,0.1,0.8,0.0,1.6,10.5,-9.4,10.5,8.3,16
778,12967.0,-0.1,0.2,0.9,-0.1,1.7000000000000002,10.5,-8.9,16.6,6.1000000000000005,16
779,12983.0,-0.2,0.4,0.30000000000000004,-0.30000000000000004,1.9000000000000001,9.8,-9.600000000000001,14.3,4.6000000000000005,16
780,13000.0,-0.4,0.5,-0.6000000000000001,-0.4,2.0,9.1,-13.200000000000001,6.1000000000000005,5.6,16
781,13017.0,-0.4,0.6000000000000001,-1.0,-0.4,2.0,8.4,-17.1,-3.2,8.1,16
782,13033.0,-0.4,0.6000000000000001,-1.7000000000000002,-0.30000000000000004,1.9000000000000001,7.9,-20.5,-10.1,11.3,16
783,13050.0,-0.2,0.5,-2.0,-0.2,1.8,7.7,-22.1,-13.200000000000001,14.200000000000001,16
784,13067.0,-0.2,0.5,-2.1,-0.1,1.7000000000000002,7.6000000000000005,-21.900000000000002,-10.9,15.100000000000001,16
785,13083.0,-0.1,0.30000000000000004,-2.0,0.0,1.5,7.800000000000001,-21.6,-5.7,15.299999999999999,16
786,13100.0,0.0,0.2,-1.7000000000000002,0.1,1.2000000000000002,8.4,-18.5,2.7,14.500000000000002,16
787,13117.0,0.1,0.0,-1.0,0.1,1.0,9.0,-10.4,14.0,12.3,16
788,13133.0,0.0,-0.2,-0.2,-0.1,0.9,9.600000000000001,-1.8,23.6,9.5,16
789,13150.0,-0.1,-0.30000000000000004,0.1,-0.2,0.7000000000000001,10.100000000000001,5.7,26.3,6.1000000000000005,16
790,13167.0,-0.2,-0.4,0.8,-0.30000000000000004,0.7000000000000001,10.600000000000001,14.3,20.900000000000002,2.1999999999999997,16
791,13183.0,-0.30000000000000004,-0.4,0.7000000000000001,-0.5,0.8,10.3,25.5,10.9,-2.6,16
792,13200.0,-0.4,-0.2,0.1,-0.6000000000000001,1.2000000000000002,9.200000000000001,30.5,-0.5,-6.8,16
793,13217.0,-0.6000000000000001,0.2,-1.1,-0.8,1.7000000000000002,8.4,23.700000000000003,-11.2,-7.699999999999999,16
794,13233.0,-0.6000000000000001,0.6000000000000001,-1.3,-0.7000000000000001,2.0,8.4,11.5,-18.1,-5.500000000000001,16
795,13250.0,-0.5,0.7000000000000001,-0.9,-0.5,2.2,9.0,3.7000000000000006,-18.400000000000002,-2.1,16
796,13267.0,-0.2,0.7000000000000001,-0.30000000000000004,-0.2,2.1,9.5,2.5,-13.100000000000001,0.5,16
797,13284.0,0.1,0.7000000000000001,0.1,-0.2,2.1,9.5,3.5,-7.699999999999999,0.5,16
798,13300.0,0.2,0.8,0.30000000000000004,0.30000000000000004,2.3000000000000003,10.100000000000001,2.9,-8.0,-2.1,16
799,13317.0,0.4,1.0,0.7000000000000001,0.5,2.5,10.3,2.4000000000000004,-12.6,-6.1000000000000005,16
800,13334.0,0.5,1.4000000000000001,0.4,0.5,2.5,10.3,1.5000000000000002,-17.5,-9.5,16
801,13350.0,0.30000000000000004,1.5,0.30000000000000004,0.30000000000000004,3.0,9.9,-6.1000000000000005,-17.8,-8.9,16
802,13367.0,-0.1,1.5,0.5,0.0,2.8000000000000003,10.4,-20.7,-12.6,-3.2,16
803,13383.0,-0.2,1.2000000000000002,1.2000000000000002,0.1,2.1,12.100000000000001,-32.4,-4.1000000000000005,5.6,16
804,13400.0,0.1,0.1,3.6,0.4,0.9,13.8,-23.3,3.7000000000000006,9.8,16
805,13417.0,0.4,-1.1,4.4,0.6000000000000001,0.0,13.9,0.9,5.7,4.300000000000001,16
806,13434.0,0.30000000000000004,-1.5,3.7,0.4,-0.30000000000000004,12.5,24.6,2.0,-7.6,16
807,13450.0,0.0,-1.3,1.7000000000000002,0.0,0.1,11.100000000000001,33.300000000000004,-3.7000000000000006,-18.400000000000002,16
808,13467.0,-0.5,-1.1,0.7000000000000001,-0.30000000000000004,0.4,10.4,36.6,-15.100000000000001,-23.5,16
809,13484.0,-0.5,-0.9,0.2,-0.1,0.9,9.1,44.8,-28.900000000000002,-24.8,16
810,13500.0,-0.30000000000000004,-0.5,-1.8,0.2,1.3,7.4,48.400000000000006,-38.5,-23.3,16
811,13517.0,0.1,-0.4,-3.3000000000000003,0.6000000000000001,1.5,6.2,41.800000000000004,-38.1,-19.9,16
812,13534.0,0.2,-0.30000000000000004,-3.8000000000000003,0.7000000000000001,1.7000000000000002,5.7,24.200000000000003,-23.3,-15.399999999999999,16
813,13550.0,0.2,-0.2,-3.6,0.8,1.7000000000000002,6.4,-0.2,-0.1,-9.1,16
814,13567.0,0.2,-0.2,-2.7,0.7000000000000001,1.4000000000000001,8.4,-0.2,-0.1,-9.1,16
815,13584.0,0.30000000000000004,-0.7000000000000001,0.0,0.7000000000000001,1.0,10.4,-22.1,47.0,3.3000000000000003,16
816,13600.0,0.4,-1.1,1.7000000000000002,0.6000000000000001,0.6000000000000001,11.4,-13.8,56.900000000000006,4.2,16
817,13617.0,0.4,-1.2000000000000002,2.0,0.6000000000000001,0.6000000000000001,11.4,-13.8,56.900000000000006,4.2,16
818,13633.0,0.4,-1.1,1.8,0.4,0.7000000000000001,11.100000000000001,2.6,37.6,0.8,16
819,13650.0,0.5,-0.9,0.7000000000000001,0.4,0.9,10.200000000000001,0.9,13.4,-2.0,16
820,13667.0,0.5,-0.7000000000000001,0.1,0.4,1.2000000000000002,9.1,-6.2,-9.5,-3.8,16
821,13684.0,0.5,-0.4,-1.0,0.5,1.3,8.5,-14.900000000000002,-17.7,-3.4,16
822,13700.0,0.6000000000000001,-0.2,-1.3,0.6000000000000001,1.4000000000000001,8.4,-21.200000000000003,-14.800000000000002,-2.1999999999999997,16
823,13717.0,0.6000000000000001,-0.2,-1.3,0.7000000000000001,1.3,8.4,-22.4,-9.200000000000001,-1.8,16
824,13734.0,0.8,-0.30000000000000004,-1.2000000000000002,0.9,1.3,8.5,-19.200000000000003,-6.4,-3.9,16
825,13750.0,0.8,-0.1,-1.4000000000000001,0.9,1.4000000000000001,8.200000000000001,-13.200000000000001,-3.8,-8.600000000000001,16
826,13767.0,0.7000000000000001,0.0,-1.7000000000000002,0.7000000000000001,1.6,7.800000000000001,-11.4,1.2000000000000002,-12.4,16
827,13783.0,0.4,0.4,-1.8,0.5,1.8,8.0,-14.700000000000001,6.3,-12.700000000000001,16
828,13800.0,0.4,0.5,-1.2000000000000002,0.5,1.8,8.0,-16.400000000000002,9.3,-11.5,16
829,13817.0,0.5,0.5,-1.0,0.6000000000000001,1.9000000000000001,8.6,-12.200000000000001,7.9,-11.4,16
830,13834.0,0.7000000000000001,0.7000000000000001,-1.3,0.7000000000000001,2.1,8.1,-8.200000000000001,3.6,-12.9,16
831,13850.0,0.8,0.8,-1.7000000000000002,0.7000000000000001,2.1,8.1,-8.200000000000001,3.6,-12.9,16
832,13867.0,0.7000000000000001,1.3,-2.3000000000000003,0.6000000000000001,2.6,7.5,-23.0,1.0,-13.8,16
833,13883.0,0.6000000000000001,1.4000000000000001,-1.3,0.6000000000000001,2.6,8.700000000000001,-34.900000000000006,8.0,-10.3,16
834,13900.0,0.6000000000000001,1.4000000000000001,-0.30000000000000004,0.6000000000000001,2.6,8.700000000000001,-34.900000000000006,8.0,-10.3,16
835,13917.0,0.8,1.4000000000000001,1.3,0.7000000000000001,2.4000000000000004,11.100000000000001,-23.900000000000002,24.200000000000003,-7.699999999999999,16
836,13933.0,0.8,1.5,1.3,0.6000000000000001,2.5,10.8,-12.8,24.9,-9.5,16
837,13950.0,0.8,1.5,1.0,0.30000000000000004,2.5,10.4,-12.6,19.200000000000003,-11.000000000000002,16
838,13967.0,0.4,1.6,0.8,0.0,2.5,10.700000000000001,-22.1,13.700000000000001,-9.700000000000001,16
839,13983.0,0.2,1.5,1.8,-0.1,2.3000000000000003,11.600000000000001,-28.6,9.9,-6.8,16
840,14000.0,0.1,1.4000000000000001,2.3000000000000003,-0.2,2.0,12.5,-25.5,7.300000000000001,-3.7000000000000006,16
841,14017.0,0.2,1.0,2.9000000000000004,0.0,1.6,12.5,-13.4,4.800000000000001,-2.8,16
842,14033.0,0.5,0.8,2.2,0.1,1.4000000000000001,11.8,-2.1,1.8,-5.8,16
843,14050.0,0.5,0.6000000000000001,1.7000000000000002,0.0,1.3,11.100000000000001,1.6,2.3000000000000003,-10.700000000000001,16
844,14067.0,0.2,0.6000000000000001,1.3,-0.4,1.3,11.3,-1.9,8.4,-13.700000000000001,16
845,14083.0,-0.4,0.4,2.2,-0.8,1.0,12.100000000000001,-4.9,11.9,-13.100000000000001,16
846,14100.0,-0.6000000000000001,0.1,2.7,-1.2000000000000002,0.6000000000000001,12.700000000000001,-0.7,13.100000000000001,-11.1,16
847,14117.0,-1.0,-0.5,3.0,-1.5,0.1,12.700000000000001,7.6,12.4,-9.700000000000001,16
848,14133.0,-1.1,-0.9,2.4000000000000004,-1.7000000000000002,-0.2,12.200000000000001,13.6,10.5,-8.799999999999999,16
849,14150.0,-1.1,-1.1,2.3000000000000003,-1.7000000000000002,-0.4,12.4,15.6,7.1000000000000005,-7.6,16
850,14167.0,-1.0,-1.2000000000000002,2.5,-1.5,-0.4,12.200000000000001,27.3,-5.0,-6.9,16
851,14184.0,-0.8,-1.2000000000000002,2.1,-1.5,-0.4,12.200000000000001,27.3,-5.0,-6.9,16
852,14200.0,-1.0,-0.9,0.1,-1.6,0.30000000000000004,9.0,65.5,-27.400000000000002,-11.5,16
853,14217.0,-1.4000000000000001,-0.4,-2.3000000000000003,-1.9000000000000001,1.0,7.1000000000000005,70.39999999999999,-31.2,-8.5,16
854,14234.0,-1.6,-0.1,-3.4000000000000004,-1.9000000000000001,1.0,7.1000000000000005,70.39999999999999,-31.2,-8.5,16
855,14250.0,-2.0,0.7000000000000001,-4.4,-2.5,2.4000000000000004,5.6000000000000005,35.1,-4.1000000000000005,18.2,16
856,14267.0,-2.4000000000000004,0.7000000000000001,-2.7,-2.8000000000000003,2.3000000000000003,7.4,6.8,16.700000000000003,39.9,16
857,14284.0,-2.4000000000000004,0.4,-1.1,-2.7,1.7000000000000002,10.0,-8.0,24.3,60.599999999999994,16
858,14300.0,-1.9000000000000001,-0.30000000000000004,1.5,-2.1,1.2000000000000002,11.3,-3.6,14.0,72.8,16
859,14317.0,-0.9,-0.8,1.3,-1.1,0.8,10.8,6.1000000000000005,-7.500000000000001,75.60000000000001,16
860,14334.0,-0.4,-1.0,0.5,-0.5,0.7000000000000001,9.600000000000001,7.500000000000001,-31.7,70.3,16
861,14350.0,0.0,-0.8,-1.0,-0.1,1.0,8.4,0.30000000000000004,-50.9,62.4,16
862,14367.0,0.1,-0.30000000000000004,-2.0,0.1,1.4000000000000001,7.7,-9.200000000000001,-57.5,56.1,16
863,14384.0,0.0,-0.2,-1.9000000000000001,0.1,1.5,8.0,-12.8,-50.0,54.0,16
864,14400.0,-0.2,-0.1,-1.4000000000000001,0.30000000000000004,1.4000000000000001,8.3,-6.7,-38.900000000000006,53.8,16
865,14417.0,0.1,-0.30000000000000004,-1.3,0.30000000000000004,1.4000000000000001,8.3,-6.7,-38.900000000000006,53.8,16
866,14434.0,-0.1,-0.8,-2.2,0.1,0.9,6.9,-1.7,-20.5,42.7,16
867,14450.0,-0.8,-0.6000000000000001,-3.1,0.2,1.0,6.5,-13.200000000000001,1.8,43.1,16
868,14467.0,0.2,-0.5,-3.1,0.2,1.0,6.5,-13.200000000000001,1.8,43.1,16
869,14484.0,1.2000000000000002,0.5,-2.2,1.5,2.1,7.800000000000001,-15.000000000000002,47.1,23.2,16
870,14500.0,0.1,0.2,-1.5,0.2,1.5,8.1,-1.5000000000000002,54.0,11.700000000000001,16
871,14517.0,-0.5,0.0,-1.5,0.2,1.5,8.1,-1.5000000000000002,54.0,11.700000000000001,16
872,14534.0,-0.2,0.2,-0.7000000000000001,-0.2,1.5,9.4,0.8,45.800000000000004,5.6,16
873,14550.0,-0.1,-0.1,0.6000000000000001,-0.2,1.4000000000000001,10.3,-8.3,10.600000000000001,0.9,16
874,14567.0,-0.1,0.1,0.9,-0.1,1.9000000000000001,10.4,-12.5,-23.8,-3.3000000000000003,16
875,14584.0,0.0,0.8,0.4,0.2,2.3000000000000003,9.700000000000001,-12.000000000000002,-34.2,-3.7000000000000006,16
876,14600.0,0.2,1.2000000000000002,-0.5,0.2,2.3000000000000003,9.700000000000001,-13.5,-26.9,-1.9,16
877,14617.0,0.30000000000000004,1.2000000000000002,-0.2,0.5,2.2,9.9,-14.200000000000001,-9.1,0.8,16
878,14634.0,0.4,0.7000000000000001,1.2000000000000002,0.6000000000000001,1.9000000000000001,11.200000000000001,-5.2,9.700000000000001,-0.2,16
879,14650.0,0.4,0.5,2.3000000000000003,0.5,1.8,12.0,13.100000000000001,22.8,-5.6,16
880,14667.0,0.2,0.4,2.2,0.1,1.8,11.700000000000001,30.7,25.0,-13.3,16
881,14683.0,-0.1,0.5,1.8,-0.30000000000000004,2.0,11.5,38.0,13.6,-20.4,16
882,14700.0,-0.5,0.5,1.9000000000000001,-0.4,2.4000000000000004,11.600000000000001,38.0,13.6,-20.4,16
883,14717.0,0.0,1.2000000000000002,1.5,0.30000000000000004,3.3000000000000003,9.9,36.2,-42.300000000000004,-37.0,16
884,14733.0,-0.5,2.1,-0.7000000000000001,-0.2,4.2,9.0,26.0,-51.5,-42.900000000000006,16
885,14750.0,-0.2,2.9000000000000004,-0.5,-0.2,4.2,9.0,26.0,-51.5,-42.900000000000006,16
886,14767.0,-0.6000000000000001,3.9000000000000004,0.4,-0.9,5.300000000000001,10.9,-17.599999999999998,-24.400000000000002,-34.1,16
887,14783.0,-1.8,2.4000000000000004,3.3000000000000003,-1.3,3.9000000000000004,13.5,-35.4,-7.0,-11.000000000000002,16
888,14800.0,-1.5,1.6,5.0,-1.3,3.9000000000000004,13.5,-35.4,-7.0,-11.000000000000002,16
889,14817.0,-0.4,-0.2,6.6000000000000005,0.4,1.1,15.8,3.6,-9.9,12.9,16
890,14834.0,0.7000000000000001,-1.3,4.0,1.3,0.4,13.200000000000001,35.4,-29.500000000000004,4.6000000000000005,16
891,14851.0,1.0,-1.4000000000000001,2.2,1.5,0.5,10.4,52.1,-44.6,-9.1,16
892,14867.0,0.7000000000000001,-1.5,-0.5,1.3,0.6000000000000001,8.700000000000001,55.1,-52.0,-18.3,16
893,14883.0,0.4,-1.4000000000000001,-2.0,1.3,0.8,7.4,55.1,-53.9,-22.000000000000004,16
894,14900.0,0.4,-1.3,-2.8000000000000003,1.5,1.3,6.1000000000000005,53.300000000000004,-47.400000000000006,-22.1,16
895,14917.0,0.6000000000000001,-0.9,-3.8000000000000003,1.7000000000000002,1.6,5.7,44.2,-32.0,-20.2,16
896,14934.0,0.6000000000000001,-0.9,-3.5,1.7000000000000002,1.7000000000000002,6.0,32.800000000000004,-17.1,-17.400000000000002,16
897,14950.0,0.6000000000000001,-1.0,-3.2,1.8,1.5,6.6000000000000005,21.5,-2.6,-15.7,16
898,14967.0,0.7000000000000001,-1.1,-2.2,1.8,1.5,7.4,12.9,11.000000000000002,-14.0,16
899,14983.0,0.6000000000000001,-1.2000000000000002,-1.4000000000000001,1.6,1.5,8.0,7.9,24.200000000000003,-11.700000000000001,16
900,15000.0,0.4,-1.2000000000000002,-0.9,1.2000000000000002,1.5,8.9,4.300000000000001,38.0,-6.7,16
901,15017.0,0.1,-1.1,0.1,0.8,1.5,9.600000000000001,1.2000000000000002,49.5,1.0,16
902,15033.0,-0.1,-1.3,0.4,0.8,1.5,9.600000000000001,1.2000000000000002,49.5,1.0,16
903,15050.0,-0.5,-1.9000000000000001,1.6,0.0,0.5,11.700000000000001,-15.7,59.5,19.500000000000004,16
904,15067.0,-0.6000000000000001,-2.4000000000000004,3.1,-0.2,0.1,12.600000000000001,-17.1,49.2,24.1,16
905,15084.0,-0.5,-2.6,3.4000000000000004,-0.2,0.1,12.600000000000001,-17.1,49.2,24.1,16
906,15100.0,-0.30000000000000004,-2.9000000000000004,2.7,0.2,-0.4,11.5,5.300000000000001,-3.4,20.3,16
907,15117.0,0.1,-2.6,0.30000000000000004,0.6000000000000001,0.0,9.4,13.5,-29.500000000000004,12.200000000000001,16
908,15134.0,0.2,-2.3000000000000003,-0.9,0.7000000000000001,0.6000000000000001,7.5,9.600000000000001,-48.7,4.3999999999999995,16
909,15150.0,0.1,-1.6,-2.9000000000000004,0.8,1.2000000000000002,6.2,-4.1000000000000005,-57.699999999999996,0.5,16
910,15167.0,0.1,-0.8,-3.7,1.0,1.7000000000000002,5.800000000000001,-20.5,-55.6,-0.30000000000000004,16
911,15184.0,0.2,-0.6000000000000001,-3.7,1.2000000000000002,1.9000000000000001,5.9,-33.300000000000004,-47.5,1.5000000000000002,16
912,15200.0,0.30000000000000004,-0.4,-3.3000000000000003,1.5,1.9000000000000001,6.300000000000001,-40.5,-33.5,3.5,16
913,15217.0,0.4,-0.4,-3.0,1.5,1.9000000000000001,6.300000000000001,-40.5,-33.5,3.5,16
914,15233.0,0.8,-0.30000000000000004,-2.1,2.0,1.7000000000000002,7.6000000000000005,-38.300000000000004,-1.0999999999999999,1.8,16
915,15250.0,1.0,-0.2,-1.6,2.1,1.8,8.0,-33.300000000000004,15.100000000000001,-3.1,16
916,15267.0,1.0,-0.1,-1.2000000000000002,2.1,1.8,8.0,-33.300000000000004,15.100000000000001,-3.1,16
917,15284.0,0.5,0.1,-0.30000000000000004,1.3,1.9000000000000001,9.4,-31.0,31.3,-9.8,16
918,15300.0,0.1,0.1,0.30000000000000004,1.0,1.8,10.0,-33.300000000000004,33.2,-8.4,16
919,15317.0,0.0,0.1,0.7000000000000001,1.0,1.8,10.0,-33.300000000000004,33.2,-8.4,16
920,15333.0,0.0,0.1,1.7000000000000002,0.6000000000000001,1.7000000000000002,11.4,-32.5,26.0,-4.2,16
921,15350.0,-0.1,0.30000000000000004,1.8,0.6000000000000001,1.7000000000000002,11.3,-26.0,16.3,-3.2,16
922,15367.0,0.0,0.4,1.6,0.6000000000000001,1.7000000000000002,11.3,-26.0,16.3,-3.2,16
923,15384.0,0.1,0.6000000000000001,0.7000000000000001,0.8,2.0,9.9,-16.6,-2.1,-2.1999999999999997,16
924,15400.0,0.2,0.9,-0.30000000000000004,0.9,2.2,9.200000000000001,-17.7,-4.1000000000000005,-1.2000000000000002,16
925,15417.0,0.2,0.9,-0.6000000000000001,0.9,2.2,9.0,-21.3,-0.9,0.9,16
926,15433.0,0.1,0.9,-0.5,0.8,2.0,9.200000000000001,-21.8,5.0,3.7000000000000006,16
927,15450.0,0.2,0.7000000000000001,-0.30000000000000004,0.9,1.8,9.3,-18.900000000000002,11.5,5.7,16
928,15467.0,0.30000000000000004,0.5,-0.4,0.9,1.5,9.3,-15.8,17.599999999999998,4.5,16
929,15484.0,0.30000000000000004,0.4,-0.2,0.8,1.4000000000000001,9.5,-14.100000000000001,20.5,1.3,16
930,15500.0,0.2,0.4,-0.1,0.8,1.4000000000000001,9.5,-14.100000000000001,20.5,1.3,16
931,15517.0,0.0,0.5,-0.1,0.30000000000000004,1.6,9.5,-11.5,20.900000000000002,-6.000000000000001,16
932,15533.0,-0.2,0.7000000000000001,-0.1,0.0,1.7000000000000002,9.700000000000001,-12.6,21.6,-8.0,16
933,15550.0,-0.4,0.9,0.1,0.0,1.7000000000000002,9.700000000000001,-12.6,21.6,-8.0,16
934,15567.0,-0.4,1.1,0.4,-0.2,2.1,9.9,-5.9,18.5,-7.699999999999999,16
935,15583.0,-0.30000000000000004,1.3,-0.1,-0.1,2.3000000000000003,9.4,-2.4000000000000004,15.2,-7.500000000000001,16
936,15600.0,-0.2,1.4000000000000001,-0.5,-0.1,2.3000000000000003,9.4,-2.4000000000000004,15.2,-7.500000000000001,16
937,15617.0,-0.1,1.6,-0.8,0.1,2.5,8.9,-6.9,16.1,-5.2,16
938,15633.0,0.2,1.6,-0.4,0.30000000000000004,2.5,9.4,-9.0,20.4,-3.2,16
939,15650.0,0.30000000000000004,1.5,0.1,0.30000000000000004,2.5,9.4,-9.0,20.4,-3.2,16
940,15667.0,0.8,1.6,1.0,0.8,2.6,10.600000000000001,3.3000000000000003,28.3,-5.6,16
941,15683.0,0.6000000000000001,1.7000000000000002,0.6000000000000001,0.30000000000000004,2.5,10.3,5.500000000000001,33.5,-7.300000000000001,16
942,15700.0,0.2,1.4000000000000001,0.7000000000000001,-0.30000000000000004,2.1,11.200000000000001,-6.7,49.2,-3.0000000000000004,16
943,15717.0,-0.2,1.0,3.0,-0.9,1.7000000000000002,13.5,-18.6,57.5,1.5000000000000002,16
944,15733.0,-0.5,0.30000000000000004,5.1000000000000005,-1.0,1.1,14.8,-10.3,49.4,6.8,16
945,15751.0,-0.2,0.0,4.9,-0.8,0.8,13.600000000000001,11.6,40.7,9.8,16
946,15767.0,0.0,-0.2,2.5,-0.8,0.6000000000000001,11.8,18.3,32.7,10.1,16
947,15783.0,0.30000000000000004,-0.5,1.3,-0.6000000000000001,0.4,11.100000000000001,11.6,19.400000000000002,10.3,16
948,15800.0,0.4,-0.6000000000000001,1.2000000000000002,-0.30000000000000004,0.30000000000000004,10.8,8.0,2.3000000000000003,10.0,16
949,15817.0,0.9,-0.7000000000000001,0.8,0.1,0.4,10.3,15.2,-12.6,8.9,16
950,15833.0,1.0,-0.7000000000000001,0.30000000000000004,0.1,0.4,10.3,15.2,-12.6,8.9,16
951,15850.0,0.9,-0.6000000000000001,-0.8,0.1,0.7000000000000001,8.700000000000001,30.7,-20.0,6.8,16
952,15867.0,0.7000000000000001,-0.5,-1.3,-0.1,0.8,8.5,28.500000000000004,-16.400000000000002,6.5,16
953,15883.0,0.4,-0.5,-1.1,-0.1,0.8,8.5,28.500000000000004,-16.400000000000002,6.5,16
954,15900.0,-0.2,-0.2,-0.30000000000000004,-1.1,1.2000000000000002,9.700000000000001,25.5,-10.1,10.600000000000001,16
955,15917.0,-0.9,-0.1,0.1,-1.5,1.4000000000000001,9.8,31.5,-11.000000000000002,17.1,16
956,15933.0,-1.1,-0.1,0.0,-1.5,1.4000000000000001,9.8,31.5,-11.000000000000002,17.1,16
957,15950.0,-1.2000000000000002,-0.1,-0.8,-1.7000000000000002,1.6,8.700000000000001,29.500000000000004,-20.5,33.7,16
958,15967.0,-1.3,-0.2,-1.3,-1.6,1.5,8.3,17.599999999999998,-26.400000000000002,42.400000000000006,16
959,15984.0,-1.1,-0.30000000000000004,-1.4000000000000001,-1.2000000000000002,1.4000000000000001,8.200000000000001,2.7,-32.0,50.6,16
960,16000.0,-0.7000000000000001,-0.4,-1.4000000000000001,-0.7000000000000001,1.2000000000000002,8.4,-12.100000000000001,-35.7,55.0,16
961,16017.0,-0.2,-0.8,-1.0,-0.2,0.8,8.700000000000001,-25.0,-38.800000000000004,54.3,16
962,16034.0,0.0,-1.0,-0.7000000000000001,0.2,0.5,9.3,-32.9,-39.00000000000001,48.2,16
963,16050.0,0.2,-1.1,0.0,0.4,0.30000000000000004,9.8,-32.0,-35.199999999999996,39.50000000000001,16
964,16067.0,0.2,-1.2000000000000002,0.30000000000000004,0.5,0.2,10.0,-24.6,-28.900000000000002,30.4,16
965,16084.0,0.2,-1.2000000000000002,0.2,0.6000000000000001,0.2,9.700000000000001,-14.0,-20.7,21.400000000000002,16
966,16100.0,0.2,-1.1,-0.30000000000000004,0.6000000000000001,0.2,9.200000000000001,-4.9,-12.100000000000001,13.4,16
967,16117.0,0.1,-1.0,-0.7000000000000001,0.6000000000000001,0.2,9.200000000000001,-4.9,-12.100000000000001,13.4,16
968,16134.0,-0.2,-0.8,-0.9,0.1,0.6000000000000001,8.700000000000001,3.6,-0.7,1.3,16
969,16150.0,-0.5,-0.5,-1.3,-0.1,0.9,8.3,5.9,0.1,-0.5,16
970,16167.0,-0.6000000000000001,-0.30000000000000004,-1.5,-0.1,0.9,8.3,5.9,0.1,-0.5,16
971,16184.0,-0.6000000000000001,-0.1,-2.0,-0.2,1.3,7.5,1.9,3.4,2.9,16
972,16200.0,-0.8,0.0,-2.3000000000000003,-0.4,1.3,7.4,-8.9,8.0,6.8,16
973,16217.0,-0.8,0.0,-2.0,-0.4,1.3,7.4,-8.9,8.0,6.8,16
974,16233.0,-0.8,-0.2,-1.1,-0.4,0.9,8.9,-32.9,9.3,13.9,16
975,16250.0,-0.6000000000000001,-0.30000000000000004,-0.30000000000000004,-0.1,0.8,9.4,-37.1,3.7000000000000006,13.9,16
976,16267.0,-0.30000000000000004,-0.30000000000000004,-0.2,0.2,0.8,9.600000000000001,-38.0,-3.5,10.3,16
977,16283.0,0.0,0.1,0.0,0.4,1.1,9.600000000000001,-36.6,-8.3,5.300000000000001,16
978,16300.0,0.1,0.6000000000000001,-0.1,0.4,1.4000000000000001,9.600000000000001,-35.9,-7.300000000000001,2.3000000000000003,16
979,16317.0,0.0,0.8,0.0,0.5,1.6,9.9,-35.1,-4.5,1.9,16
980,16334.0,0.1,1.0,0.5,0.6000000000000001,1.6,10.3,-30.799999999999997,-5.9,3.1,16
981,16351.0,0.2,1.0,0.7000000000000001,0.8,1.5,10.5,-30.799999999999997,-5.9,3.1,16
982,16367.0,0.5,1.1,0.8,1.0,1.6,10.4,-17.8,-10.0,0.2,16
983,16384.0,0.6000000000000001,1.3,0.5,1.1,1.8,10.200000000000001,-14.700000000000001,-11.5,-3.9,16
984,16400.0,0.6000000000000001,1.6,0.5,1.1,1.8,10.200000000000001,-12.700000000000001,-15.000000000000002,-8.0,16
985,16417.0,0.5,1.7000000000000002,0.6000000000000001,1.0,2.1,10.4,-8.3,-19.0,-11.1,16
986,16433.0,0.30000000000000004,1.8,0.6000000000000001,0.9,2.3000000000000003,10.200000000000001,0.0,-19.9,-13.3,16
987,16450.0,0.2,1.9000000000000001,0.4,0.9,2.3000000000000003,10.200000000000001,8.700000000000001,-18.900000000000002,-13.9,16
988,16467.0,0.1,2.0,0.1,0.9,2.4000000000000004,9.8,14.100000000000001,-16.8,-13.3,16
989,16483.0,0.1,1.9000000000000001,0.0,0.9,2.5,9.700000000000001,17.200000000000003,-16.900000000000002,-12.700000000000001,16
990,16500.0,0.1,1.9000000000000001,0.1,0.9,2.5,9.700000000000001,17.200000000000003,-16.900000000000002,-12.700000000000001,16
991,16517.0,-0.1,1.6,0.4,0.7000000000000001,2.2,10.3,19.8,-19.6,-14.3,16
992,16534.0,-0.4,1.3,1.0,0.5,2.0,10.700000000000001,23.5,-23.5,-16.400000000000002,16
993,16550.0,-0.5,1.1,1.2000000000000002,0.4,1.9000000000000001,11.0,28.700000000000003,-28.700000000000003,-19.500000000000004,16
994,16567.0,-0.7000000000000001,1.1,1.2000000000000002,0.4,2.1,10.700000000000001,37.0,-33.2,-22.3,16
995,16584.0,-0.8,1.1,1.0,0.4,2.1,10.700000000000001,37.0,-33.2,-22.3,16
996,16600.0,-0.8,1.2000000000000002,0.2,0.6000000000000001,2.6,9.5,46.2,-34.0,-26.1,16
997,16616.0,-0.6000000000000001,1.3,-0.4,0.7000000000000001,2.8000000000000003,9.200000000000001,45.2,-29.600000000000005,-27.400000000000002,16
998,16633.0,-0.4,1.4000000000000001,-0.2,1.0,3.0,9.4,43.900000000000006,-24.400000000000002,-30.100000000000005,16
999,16650.0,-0.1,1.6,0.0,1.6,3.8000000000000003,9.4,44.1,-21.6,-35.5,16
1000,16667.0,0.0,2.6,-0.7000000000000001,1.3,4.5,8.4,37.5,-15.000000000000002,-37.2,16
1001,16683.0,-0.4,2.7,-1.0,1.0,4.7,8.700000000000001,11.700000000000001,10.1,-26.200000000000003,16
1002,16700.0,-0.30000000000000004,2.3000000000000003,0.5,0.8,3.7,11.600000000000001,-20.6,29.400000000000002,-11.000000000000002,16
1003,16716.0,-0.5,0.9,4.3,1.0,2.5,14.3,-25.400000000000002,26.3,1.6,16
1004,16733.0,0.7000000000000001,-0.30000000000000004,5.300000000000001,2.0,1.5,14.9,-8.3,14.100000000000001,3.1,16
1005,16750.0,1.0,-0.7000000000000001,4.7,2.1,1.0,13.600000000000001,9.200000000000001,3.8,-7.699999999999999,16
1006,16767.0,0.7000000000000001,-1.0,2.8000000000000003,1.8,0.8,12.3,13.100000000000001,2.9,-18.3,16
1007,16783.0,0.5,-1.2000000000000002,2.5,1.8,0.8,12.3,13.100000000000001,2.9,-18.3,16
1008,16800.0,0.2,-1.6,2.4000000000000004,1.2000000000000002,0.2,11.9,17.1,10.0,-29.000000000000004,16
1009,16817.0,0.0,-1.8,1.5,1.0,0.2,10.8,36.800000000000004,17.3,-31.6,16
1010,16833.0,-0.1,-1.8,0.6000000000000001,0.8,0.5,9.200000000000001,59.1,26.700000000000003,-33.900000000000006,16
1011,16850.0,-0.30000000000000004,-1.4000000000000001,-1.6,0.5,1.1,7.5,69.10000000000001,37.900000000000006,-32.4,16
1012,16867.0,-0.6000000000000001,-1.1,-3.0,0.1,1.5,6.5,62.1,43.6,-26.8,16
1013,16884.0,-0.7000000000000001,-1.0,-3.2,-0.2,1.7000000000000002,6.4,43.400000000000006,40.7,-17.7,16
1014,16900.0,-0.7000000000000001,-1.1,-2.7,-0.1,1.6,7.1000000000000005,23.6,29.300000000000004,-7.0,16
1015,16917.0,-0.30000000000000004,-1.3,-1.5,0.1,1.5,8.1,11.2,15.000000000000002,2.7,16
1016,16933.0,-0.1,-1.4000000000000001,-1.0,0.5,1.4000000000000001,8.6,8.0,5.4,10.3,16
1017,16950.0,0.2,-1.3,-0.8,0.7000000000000001,1.5,8.700000000000001,8.0,3.5,16.6,16
1018,16967.0,0.4,-1.5,-0.5,0.8,1.3,8.9,4.5,5.0,22.5,16
1019,16984.0,0.4,-1.6,-0.30000000000000004,1.0,1.2000000000000002,9.4,0.4,4.0,27.7,16
1020,17000.0,0.8,-1.8,0.5,1.3,0.9,10.0,0.4,2.3000000000000003,30.7,16
1021,17017.0,0.9,-2.1,0.5,1.3,0.9,10.0,2.3000000000000003,1.7,29.700000000000003,16
1022,17033.0,0.9,-2.2,0.4,1.3,0.6000000000000001,9.700000000000001,0.1,1.7,26.700000000000003,16
1023,17050.0,0.7000000000000001,-2.2,0.2,1.2000000000000002,0.5,9.600000000000001,-6.2,0.5,24.3,16
1024,17066.0,0.7000000000000001,-2.3000000000000003,0.2,1.3,0.30000000000000004,9.700000000000001,-6.2,0.5,24.3,16
1025,17083.0,0.8,-2.4000000000000004,0.30000000000000004,1.5,0.2,9.700000000000001,-15.5,-1.7,19.0,16
1026,17100.0,1.2000000000000002,-2.2,0.0,1.9000000000000001,0.4,9.3,-15.7,-6.8,10.8,16
1027,17117.0,1.3,-1.6,-0.9,2.0,0.9,8.6,-16.2,-11.8,-0.30000000000000004,16
1028,17133.0,1.2000000000000002,-1.2000000000000002,-1.3,1.8,1.4000000000000001,8.0,-18.8,-13.700000000000001,-9.1,16
1029,17150.0,0.9,-0.7000000000000001,-1.7000000000000002,1.5,1.7000000000000002,7.800000000000001,-21.700000000000003,-11.1,-14.100000000000001,16
1030,17167.0,0.7000000000000001,-0.5,-1.6,1.4000000000000001,1.9000000000000001,7.9,-23.2,-6.6000000000000005,-15.9,16
1031,17183.0,0.7000000000000001,-0.30000000000000004,-1.4000000000000001,1.5,2.0,8.0,-20.8,-2.9,-16.2,16
1032,17200.0,0.9,-0.2,-1.5,1.7000000000000002,2.0,7.9,-15.9,0.0,-16.900000000000002,16
1033,17217.0,1.1,-0.1,-1.7000000000000002,1.8,2.2,7.6000000000000005,-13.700000000000001,2.8,-19.500000000000004,16
1034,17233.0,1.0,0.2,-2.0,1.7000000000000002,2.4000000000000004,7.5,-19.400000000000002,5.500000000000001,-22.000000000000004,16
1035,17253.0,0.7000000000000001,0.4,-1.5,1.3,2.5,8.0,-29.600000000000005,7.300000000000001,-21.6,16
1036,17267.0,0.5,0.4,-0.9,1.0,2.3000000000000003,9.200000000000001,-36.0,10.600000000000001,-18.7,16
1037,17283.0,0.2,0.2,0.7000000000000001,0.8,2.1,10.4,-32.1,13.700000000000001,-15.6,16
1038,17300.0,0.0,0.1,1.5,0.8,2.1,10.4,-32.1,13.700000000000001,-15.6,16
1039,17317.0,-0.1,0.1,1.4000000000000001,0.30000000000000004,2.0,10.9,-13.0,11.3,-14.4,16
1040,17333.0,-0.4,0.4,1.2000000000000002,0.0,2.2,10.700000000000001,-8.799999999999999,7.9,-13.3,16
1041,17350.0,-0.6000000000000001,0.6000000000000001,1.1,0.0,2.2,10.700000000000001,-8.799999999999999,7.9,-13.3,16
1042,17366.0,-0.9,0.8,1.1,-0.5,2.6,10.700000000000001,-7.8,-3.4,-1.8,16
1043,17383.0,-1.0,0.9,1.0,-0.5,2.7,10.5,-6.9,-14.0,6.000000000000001,16
1044,17400.0,-1.0,1.0,0.8,-0.30000000000000004,2.7,10.0,-4.5,-23.6,13.5,16
1045,17416.0,-0.7000000000000001,1.0,0.0,0.0,2.7,9.4,-4.2,-28.700000000000003,19.500000000000004,16
1046,17433.0,-0.6000000000000001,1.1,-0.7000000000000001,0.1,2.8000000000000003,8.8,-7.1000000000000005,-30.100000000000005,24.3,16
1047,17450.0,-0.7000000000000001,1.1,-0.7000000000000001,0.0,2.9000000000000004,9.0,-12.9,-30.200000000000003,31.0,16
1048,17466.0,-0.9,1.2000000000000002,-0.4,0.0,2.9000000000000004,9.200000000000001,-16.8,-34.50000000000001,40.0,16
1049,17483.0,-0.8,1.2000000000000002,-0.30000000000000004,0.30000000000000004,2.7,9.3,-19.1,-41.5,48.00000000000001,16
1050,17500.0,-0.7000000000000001,1.2000000000000002,-0.30000000000000004,0.5,2.7,9.200000000000001,-21.700000000000003,-49.9,52.7,16
1051,17517.0,-0.7000000000000001,1.3,-0.4,0.7000000000000001,2.8000000000000003,9.1,-25.5,-57.5,56.2,16
1052,17533.0,-0.6000000000000001,1.5,-0.7000000000000001,0.9,2.9000000000000004,8.9,-30.299999999999997,-64.60000000000001,60.20000000000001,16
1053,17550.0,-0.5,1.6,-0.7000000000000001,1.4000000000000001,2.7,8.9,-34.2,-71.7,63.4,16
1054,17567.0,-0.2,1.4000000000000001,-0.5,1.9000000000000001,2.5,8.9,-33.7,-72.9,64.30000000000001,16
1055,17584.0,0.30000000000000004,1.3,-0.6000000000000001,1.9000000000000001,2.5,8.9,-33.7,-72.9,64.30000000000001,16
1056,17600.0,0.5,1.3,-0.7000000000000001,3.0,2.1,8.8,-28.200000000000003,-58.60000000000001,55.900000000000006,16
1057,17617.0,0.8,1.1,-0.2,3.4000000000000004,1.8,9.4,-23.700000000000003,-45.5,48.6,16
1058,17633.0,1.0,0.9,0.30000000000000004,3.4000000000000004,1.8,9.4,-23.700000000000003,-45.5,48.6,16
1059,17650.0,1.7000000000000002,0.7000000000000001,1.1,4.5,1.6,10.4,10.3,-13.9,24.6,16
1060,17667.0,1.7000000000000002,1.4000000000000001,0.1,4.3,2.2,9.3,28.1,5.9,11.700000000000001,16
1061,17683.0,1.3,1.5,-0.4,3.8000000000000003,2.2,9.3,24.400000000000002,33.800000000000004,11.6,16
1062,17700.0,1.1,1.0,1.0,3.6,1.7000000000000002,11.3,6.5,46.7,14.700000000000001,16
1063,17716.0,1.1,0.30000000000000004,3.5,3.6,1.0,13.200000000000001,-1.7,40.0,15.6,16
1064,17733.0,1.3,-0.2,4.2,4.0,0.30000000000000004,13.700000000000001,5.7,26.0,14.700000000000001,16
1065,17750.0,1.8,-0.8,3.7,4.1000000000000005,-0.1,12.8,17.0,17.200000000000003,8.1,16
1066,17767.0,1.7000000000000002,-1.2000000000000002,2.3000000000000003,4.0,-0.30000000000000004,11.700000000000001,22.4,15.7,3.3000000000000003,16
1067,17783.0,1.8,-1.4000000000000001,1.8,4.2,-0.6000000000000001,11.0,23.700000000000003,15.100000000000001,0.1,16
1068,17800.0,2.2,-1.8,1.1,4.4,-0.8,10.5,27.3,9.700000000000001,-7.8,16
1069,17816.0,2.1,-1.9000000000000001,0.4,4.3,-0.8,9.9,36.2,2.3000000000000003,-18.6,16
1070,17833.0,2.0,-1.9000000000000001,-0.30000000000000004,4.2,-0.6000000000000001,8.700000000000001,45.4,-5.0,-30.4,16
1071,17850.0,1.6,-1.8,-1.5,3.7,-0.4,7.800000000000001,49.8,-8.799999999999999,-42.7,16
1072,17867.0,1.2000000000000002,-1.7000000000000002,-1.8,3.7,-0.4,7.800000000000001,49.8,-8.799999999999999,-42.7,16
1073,17884.0,0.0,-1.4000000000000001,-2.1,2.0,0.5,7.300000000000001,53.400000000000006,-6.7,-57.9,16
1074,17900.0,-0.9,-0.8,-2.1,1.2000000000000002,1.2000000000000002,7.2,52.7,-6.3,-57.1,16
1075,17916.0,-1.4000000000000001,-0.6000000000000001,-2.2,1.2000000000000002,1.2000000000000002,7.2,47.800000000000004,-6.5,-50.800000000000004,16
1076,17933.0,-2.0,-0.2,-2.2,0.1,2.1,7.1000000000000005,36.800000000000004,-7.400000000000001,-39.300000000000004,16
1077,17950.0,-2.5,-0.1,-1.9000000000000001,-0.4,2.2,7.5,22.1,-5.9,-22.7,16
1078,17967.0,-2.7,-0.30000000000000004,-1.4000000000000001,-0.6000000000000001,1.9000000000000001,8.4,6.4,-0.9,-2.6,16
1079,17983.0,-2.7,-0.6000000000000001,-0.30000000000000004,-0.4,1.6,9.3,-6.4,2.4000000000000004,17.8,16
1080,18000.0,-2.1,-1.3,0.8,0.2,0.8,10.200000000000001,-16.0,-4.9,33.2,16
1081,18018.0,-1.7000000000000002,-1.8,1.2000000000000002,0.9,0.1,10.600000000000001,-22.3,-19.9,38.7,16
1082,18034.0,-1.0,-2.2,1.1,1.6,-0.1,10.100000000000001,-24.000000000000004,-36.9,34.7,16
1083,18050.0,-0.4,-2.0,0.0,2.1,0.0,9.1,-22.2,-48.1,25.8,16
1084,18067.0,-0.4,-1.7000000000000002,-0.7000000000000001,2.3000000000000003,0.5,7.9,-18.8,-47.6,16.8,16
1085,18084.0,-0.30000000000000004,-0.9,-2.0,2.4000000000000004,1.1,6.9,-15.100000000000001,-38.1,10.4,16
1086,18101.0,-0.4,-0.30000000000000004,-2.9000000000000004,2.4000000000000004,1.6,6.2,-13.5,-23.700000000000003,6.6000000000000005,16
1087,18117.0,-0.5,0.0,-3.3000000000000003,2.4000000000000004,2.0,5.6000000000000005,-16.2,-10.8,5.1,16
1088,18133.0,-0.4,0.5,-3.7,2.4000000000000004,2.3000000000000003,5.5,-24.7,1.5000000000000002,5.2,16
1089,18150.0,-0.4,0.7000000000000001,-3.6,2.4000000000000004,2.3000000000000003,5.5,-24.7,1.5000000000000002,5.2,16
1090,18167.0,-0.4,0.9,-2.5,2.5,2.3000000000000003,7.300000000000001,-50.5,16.6,8.200000000000001,16
1091,18183.0,-0.1,0.7000000000000001,-0.6000000000000001,2.7,2.0,8.9,-54.9,15.7,6.9,16
1092,18200.0,0.1,0.6000000000000001,0.30000000000000004,2.7,2.0,8.9,-54.9,15.7,6.9,16
1093,18217.0,0.4,0.8,1.0,3.0,2.0,10.100000000000001,-34.800000000000004,11.2,-7.400000000000001,16
1094,18233.0,0.2,1.1,0.5,2.8000000000000003,2.2,9.700000000000001,-27.0,13.9,-13.700000000000001,16
1095,18250.0,0.1,1.2000000000000002,0.4,2.7,2.3000000000000003,9.8,-26.1,19.1,-15.7,16
1096,18267.0,0.1,1.4000000000000001,0.8,2.7,2.2,10.3,-23.700000000000003,20.8,-16.0,16
1097,18283.0,0.1,1.2000000000000002,1.3,2.6,2.1,10.600000000000001,-15.399999999999999,18.2,-17.1,16
1098,18300.0,0.1,1.1,1.3,2.5,2.2,10.4,-2.4000000000000004,14.4,-17.9,16
1099,18317.0,0.1,1.4000000000000001,0.5,2.5,2.4000000000000004,9.700000000000001,5.500000000000001,10.600000000000001,-17.3,16
1100,18333.0,0.2,1.6,-0.1,2.6,2.6,9.200000000000001,4.7,4.800000000000001,-15.2,16
1101,18350.0,0.2,1.7000000000000002,-0.30000000000000004,2.7,2.7,9.0,-2.1,-2.9,-12.5,16
1102,18367.0,0.5,1.8,-0.30000000000000004,2.9000000000000004,2.8000000000000003,9.0,-10.0,-9.3,-10.5,16
1103,18383.0,0.6000000000000001,1.6,0.0,3.1,2.5,9.4,-16.3,-9.9,-8.9,16
1104,18400.0,0.9,1.5,0.5,3.3000000000000003,2.2,10.100000000000001,-17.8,-6.000000000000001,-9.200000000000001,16
1105,18417.0,1.0,1.1,1.1,3.5,2.0,10.600000000000001,-13.9,-0.9,-12.200000000000001,16
1106,18433.0,0.9,0.8,1.5,3.4000000000000004,1.7000000000000002,10.8,-8.799999999999999,2.7,-17.599999999999998,16
1107,18450.0,0.9,0.7000000000000001,1.6,3.3000000000000003,1.6,11.200000000000001,-4.2,4.9,-23.0,16
1108,18467.0,0.9,0.6000000000000001,2.1,3.3000000000000003,1.5,11.5,1.0,6.8,-29.200000000000003,16
1109,18484.0,0.9,0.5,2.2,3.3000000000000003,1.5,11.5,1.0,6.8,-29.200000000000003,16
1110,18500.0,0.9,0.8,2.1,3.2,2.0,11.3,19.3,8.799999999999999,-44.9,16
1111,18517.0,0.6000000000000001,1.1,1.4000000000000001,2.9000000000000004,2.4000000000000004,10.700000000000001,25.8,12.6,-51.7,16
1112,18533.0,0.4,1.2000000000000002,1.1,2.5,2.6,10.4,26.3,20.0,-53.8,16
1113,18550.0,0.1,1.2000000000000002,1.1,2.2,2.5,10.8,24.1,31.6,-50.0,16
1114,18567.0,0.1,0.8,1.8,2.1,2.2,11.3,27.2,44.9,-44.9,16
1115,18584.0,0.2,0.5,1.9000000000000001,2.1,1.8,11.4,34.0,56.0,-41.6,16
1116,18600.0,0.30000000000000004,-0.1,1.7000000000000002,1.9000000000000001,1.4000000000000001,11.200000000000001,36.7,63.800000000000004,-39.699999999999996,16
1117,18617.0,0.30000000000000004,-0.8,1.7000000000000002,1.8,1.0,11.3,34.800000000000004,73.50000000000001,-38.6,16
1118,18633.0,0.4,-1.2000000000000002,2.0,1.6,0.4,12.100000000000001,34.2,85.3,-40.2,16
1119,18650.0,0.30000000000000004,-1.9000000000000001,2.8000000000000003,1.1,0.2,12.3,44.5,93.3,-45.9,16
1120,18667.0,0.2,-2.0,2.6,1.1,0.2,12.3,61.199999999999996,96.7,-52.1,16
1121,18684.0,-0.4,-1.9000000000000001,1.1,-0.2,0.7000000000000001,9.9,73.50000000000001,96.4,-53.1,16
1122,18700.0,-0.7000000000000001,-1.5,-0.8,-0.7000000000000001,1.2000000000000002,8.4,72.5,92.30000000000001,-51.0,16
1123,18717.0,-0.9,-1.2000000000000002,-2.0,-0.7000000000000001,1.2000000000000002,8.4,63.10000000000001,84.4,-46.0,16
1124,18733.0,-0.7000000000000001,-0.9,-2.5,-1.4000000000000001,2.2,6.6000000000000005,47.7,72.2,-39.400000000000006,16
1125,18750.0,-1.3,-0.8,-3.0,-2.0,2.2,6.300000000000001,25.8,56.0,-27.0,16
1126,18767.0,-1.3,-0.8,-3.0,-2.0,2.2,6.300000000000001,25.8,56.0,-27.0,16
1127,18783.0,-0.8,-0.9,-2.1,-1.5,1.9000000000000001,7.5,-16.5,13.100000000000001,4.0,16
1128,18800.0,0.0,-1.4000000000000001,-1.3,-0.7000000000000001,1.4000000000000001,8.200000000000001,-22.8,0.1,14.600000000000001,16
1129,18817.0,0.5,-1.6,-1.0,-0.1,1.4000000000000001,8.5,-19.0,-2.9,17.8,16
1130,18833.0,0.9,-1.2000000000000002,-1.0,0.1,1.8,8.1,-13.8,5.4,16.8,16
1131,18850.0,0.9,-0.5,-1.5,0.0,2.2,7.9,-18.900000000000002,14.4,16.900000000000002,16
1132,18867.0,0.8,-0.6000000000000001,-1.5,0.2,2.3000000000000003,8.0,-33.0,23.6,18.0,16
1133,18883.0,0.6000000000000001,-0.30000000000000004,-0.30000000000000004,-0.8,2.0,9.3,-46.4,25.400000000000002,17.3,16
1134,18900.0,-0.6000000000000001,-1.4000000000000001,0.4,-1.6,0.9,9.9,-51.0,19.8,25.400000000000002,16
1135,18917.0,-0.8,-1.9000000000000001,0.7000000000000001,-1.9000000000000001,0.2,10.4,-53.6,16.2,32.4,16
1136,18933.0,-0.9,-2.2,1.5,-1.8,-0.1,11.200000000000001,-53.2,8.799999999999999,34.7,16
1137,18950.0,-0.1,-2.1,2.4000000000000004,-1.0,0.0,11.9,-43.0,-4.1000000000000005,32.6,16
1138,18967.0,0.4,-1.8,2.5,-0.4,0.2,11.600000000000001,-19.200000000000003,-18.7,21.3,16
1139,18983.0,0.8,-1.5,0.9,-0.1,0.6000000000000001,10.0,4.2,-30.000000000000004,7.9,16
1140,19000.0,0.9,-1.2000000000000002,-0.2,-0.1,0.6000000000000001,10.0,4.2,-30.000000000000004,7.9,16
1141,19016.0,0.7000000000000001,-0.30000000000000004,-1.6,0.0,2.0,7.9,10.700000000000001,-31.3,-11.9,16
1142,19033.0,0.7000000000000001,0.5,-1.6,0.1,2.6,7.9,6.7,-29.1,-12.9,16
1143,19050.0,0.7000000000000001,0.7000000000000001,-1.6,0.1,2.6,7.9,6.7,-29.1,-12.9,16
1144,19067.0,0.7000000000000001,0.7000000000000001,-1.3,0.30000000000000004,2.7,8.4,8.5,-14.900000000000002,-7.2,16
1145,19083.0,0.8,0.6000000000000001,-0.9,0.30000000000000004,2.6,8.700000000000001,12.4,-5.7,-5.7,16
1146,19100.0,0.8,0.5,-0.7000000000000001,0.4,2.7,9.0,17.8,4.0,-5.9,16
1147,19117.0,0.8,0.6000000000000001,-0.5,0.2,2.7,9.0,21.400000000000002,11.2,-7.9,16
1148,19133.0,0.6000000000000001,0.5,-0.30000000000000004,0.0,2.7,9.200000000000001,22.7,15.6,-9.9,16
1149,19150.0,0.5,0.5,-0.1,-0.30000000000000004,2.8000000000000003,9.4,23.6,17.9,-11.700000000000001,16
1150,19167.0,0.2,0.5,0.1,-0.5,2.8000000000000003,9.600000000000001,24.6,18.2,-12.9,16
1151,19183.0,0.0,0.5,0.1,-0.7000000000000001,3.0,9.5,25.5,15.6,-14.100000000000001,16
1152,19200.0,-0.1,0.6000000000000001,0.0,-0.8,3.2,9.200000000000001,24.400000000000002,11.8,-14.4,16
1153,19216.0,0.0,0.7000000000000001,-0.30000000000000004,-0.8,3.2,9.0,21.0,6.5,-14.900000000000002,16
1154,19233.0,0.0,0.8,-0.5,-0.9,3.5,8.9,17.8,1.3,-16.3,16
1155,19250.0,0.0,0.9,-0.6000000000000001,-0.9,3.7,8.6,16.0,-1.6,-17.1,16
1156,19267.0,0.0,1.2000000000000002,-1.0,-0.9,3.9000000000000004,8.3,13.6,-0.9,-17.200000000000003,16
1157,19283.0,-0.1,1.3,-1.0,-1.0,4.1000000000000005,8.3,9.8,1.7,-16.900000000000002,16
1158,19300.0,-0.30000000000000004,1.4000000000000001,-0.9,-1.2000000000000002,4.2,8.4,7.1000000000000005,5.1,-15.100000000000001,16
1159,19317.0,-0.4,1.4000000000000001,-0.6000000000000001,-1.3,4.2,8.9,5.7,6.6000000000000005,-11.4,16
1160,19334.0,-0.5,1.4000000000000001,-0.2,-1.3,4.2,8.9,5.7,6.6000000000000005,-11.4,16
1161,19350.0,-0.30000000000000004,1.1,0.1,-1.1,3.9000000000000004,9.200000000000001,16.0,6.6000000000000005,-3.8,16
1162,19367.0,0.0,0.8,-0.4,-0.9,3.7,8.700000000000001,21.900000000000002,5.300000000000001,-3.2,16
1163,19384.0,0.1,0.7000000000000001,-0.7000000000000001,-0.8,3.6,8.200000000000001,23.2,4.7,-4.0,16
1164,19400.0,0.2,0.6000000000000001,-1.2000000000000002,-0.8,3.6,8.0,19.1,4.5,-4.5,16
1165,19417.0,0.2,0.5,-1.0,-0.8,3.6,8.200000000000001,13.100000000000001,2.8,-4.300000000000001,16
1166,19433.0,0.30000000000000004,0.5,-0.9,-0.8,3.5,8.4,8.1,-1.0,-5.300000000000001,16
1167,19450.0,0.1,0.30000000000000004,-0.2,-0.9,3.4000000000000004,9.5,6.6000000000000005,-2.6,-6.7,16
1168,19467.0,0.30000000000000004,0.30000000000000004,1.3,-0.6000000000000001,3.5,10.4,13.200000000000001,-8.9,-10.1,16
1169,19484.0,0.6000000000000001,0.6000000000000001,1.0,-0.5,4.2,9.5,18.5,-20.900000000000002,-18.5,16
1170,19500.0,0.1,1.4000000000000001,-0.30000000000000004,-1.1,4.7,8.9,4.2,-21.400000000000002,-22.3,16
1171,19517.0,-0.9,1.6,0.8,-1.1,4.7,8.9,-23.3,-18.5,-20.0,16
1172,19533.0,-1.2000000000000002,1.7000000000000002,2.0,-2.1,4.800000000000001,12.100000000000001,-42.800000000000004,-24.5,-12.4,16
1173,19550.0,-1.1,1.4000000000000001,3.6,-1.9000000000000001,4.2,13.0,-43.6,-32.7,-3.0000000000000004,16
1174,19567.0,-1.0,1.0,3.8000000000000003,-1.9000000000000001,4.2,13.0,-43.6,-32.7,-3.0000000000000004,16
1175,19584.0,-0.8,0.2,2.7,-1.3,2.8000000000000003,11.600000000000001,-25.700000000000003,-31.0,11.2,16
1176,19600.0,-0.5,-0.30000000000000004,2.0,-0.9,2.3000000000000003,11.4,-24.200000000000003,-23.0,17.8,16
1177,19617.0,-0.2,-0.7000000000000001,2.1,-0.9,2.3000000000000003,11.4,-24.200000000000003,-23.0,17.8,16
1178,19633.0,0.6000000000000001,-1.3,1.9000000000000001,0.5,1.3,10.8,1.4,-35.5,23.2,16
1179,19650.0,1.0,-1.5,0.1,0.8,1.2000000000000002,9.3,18.6,-45.6,16.5,16
1180,19667.0,1.0,-1.4000000000000001,-0.8,0.8,1.2000000000000002,9.3,18.6,-45.6,16.5,16
1181,19684.0,0.6000000000000001,-0.8,-2.1,0.5,2.3000000000000003,7.0,28.900000000000002,-48.7,4.2,16
1182,19700.0,0.1,-0.1,-2.8000000000000003,0.5,2.3000000000000003,7.0,23.2,-39.699999999999996,4.300000000000001,16
1183,19717.0,-0.4,0.0,-2.6,-0.5,3.1,7.1000000000000005,14.200000000000001,-22.3,9.3,16
1184,19733.0,-1.2000000000000002,0.1,-1.7000000000000002,-1.0,3.1,7.9,6.6000000000000005,-0.7,21.1,16
1185,19750.0,-1.5,0.0,-0.7000000000000001,-1.2000000000000002,2.9000000000000004,8.8,-0.6000000000000001,19.1,35.199999999999996,16
1186,19767.0,-1.4000000000000001,-0.2,-0.2,-1.0,2.5,9.600000000000001,-9.8,26.3,46.6,16
1187,19783.0,-1.0,-0.8,0.7000000000000001,-0.7000000000000001,2.0,10.200000000000001,-19.200000000000003,16.5,52.50000000000001,16
1188,19800.0,-0.5,-1.1,1.1,-0.2,1.7000000000000002,10.4,-23.900000000000002,-3.0000000000000004,53.8,16
1189,19817.0,-0.2,-1.2000000000000002,0.8,0.4,1.6,9.700000000000001,-22.7,-23.400000000000002,50.800000000000004,16
1190,19833.0,0.30000000000000004,-1.1,-0.6000000000000001,0.9,1.7000000000000002,8.5,-20.8,-33.6,44.9,16
1191,19850.0,0.5,-0.7000000000000001,-1.7000000000000002,0.9,1.7000000000000002,8.5,-21.8,-32.7,38.400000000000006,16
1192,19867.0,0.4,-0.4,-2.0,1.0,2.3000000000000003,7.4,-23.900000000000002,-23.1,33.900000000000006,16
1193,19883.0,0.2,-0.2,-1.7000000000000002,1.0,2.3000000000000003,7.800000000000001,-24.200000000000003,-13.4,31.099999999999998,16
1194,19900.0,0.2,-0.2,-1.3,1.0,2.3000000000000003,7.800000000000001,-24.200000000000003,-13.4,31.099999999999998,16
1195,19917.0,0.2,-0.1,-0.9,1.0,2.2,8.5,-11.5,1.3,24.1,16
1196,19933.0,0.0,-0.1,-1.0,0.8,2.2,8.4,-9.8,6.000000000000001,20.0,16
1197,19950.0,-0.1,-0.1,-0.9,0.8,2.2,8.4,-9.8,6.000000000000001,20.0,16
1198,19966.0,-0.4,0.0,-0.6000000000000001,0.30000000000000004,2.2,9.0,-19.200000000000003,8.799999999999999,14.3,16
1199,19983.0,-0.5,-0.1,-0.1,0.4,2.1,9.4,-23.0,4.300000000000001,13.0,16
1200,20000.0,-0.4,-0.1,0.1,0.5,2.0,9.8,-22.4,-0.6000000000000001,10.2,16
1201,20017.0,-0.30000000000000004,-0.1,0.5,0.6000000000000001,2.0,9.9,-15.8,-2.0,6.8,16
1202,20033.0,-0.2,0.1,0.30000000000000004,0.6000000000000001,2.1,9.8,-8.200000000000001,-0.4,2.9,16
