,ms,accelX,accelY,accelZ,accelWithGX,accelWithGY,accelWithGZ,rotRateAlpha,rotRateBeta,rotRateGamma,interval
0,111.0,-0.1,0.1,-0.1,-1.7000000000000002,8.6,4.6000000000000005,-2.0,-0.9000000000000001,-0.9000000000000001,16
1,118.0,0.0,0.1,-0.1,-1.7000000000000002,8.700000000000001,4.6000000000000005,-3.5,-0.4,0.1,16
2,135.0,0.0,0.0,-0.1,-1.6,8.5,4.800000000000001,-5.8,5.2,2.3,16
3,151.0,0.1,0.0,0.2,-1.5,8.5,4.9,-4.6,7.200000000000001,3.1,16
4,168.0,0.2,0.1,0.0,-1.4000000000000001,8.6,4.800000000000001,-1.2000000000000002,3.6000000000000005,2.5,16
5,184.0,0.2,0.1,-0.2,-1.4000000000000001,8.700000000000001,4.5,0.6000000000000001,-3.2,1.2000000000000002,16
6,201.0,0.2,0.1,-0.30000000000000004,-1.4000000000000001,8.700000000000001,4.4,-0.4,-4.5,1.0,16
7,218.0,0.1,0.1,-0.4,-1.4000000000000001,8.700000000000001,4.3,-5.500000000000001,-2.1,2.4000000000000004,16
8,235.0,0.2,0.1,0.2,-1.3,8.700000000000001,4.800000000000001,-8.600000000000001,2.3,4.0,16
9,251.0,0.2,0.1,0.1,-1.2000000000000002,8.700000000000001,4.800000000000001,-8.0,3.5,4.1,16
10,268.0,0.30000000000000004,0.1,0.1,-1.1,8.700000000000001,4.9,-5.300000000000001,6.2,3.1,16
11,284.0,0.2,0.1,-0.1,-1.2000000000000002,8.700000000000001,4.7,-2.1,0.4,0.9000000000000001,16
12,301.0,0.1,0.2,-0.2,-1.3,8.8,4.6000000000000005,-1.1,-2.0,-1.0,16
13,318.0,0.0,0.2,-0.1,-1.4000000000000001,8.8,4.6000000000000005,-2.9,-2.9,-1.3,16
14,335.0,-0.1,0.1,0.0,-1.5,8.700000000000001,4.7,-5.8,0.1,0.0,16
15,351.0,0.0,0.0,0.30000000000000004,-1.4000000000000001,8.700000000000001,5.0,-7.6,4.0,1.7,16
16,368.0,0.1,0.0,0.30000000000000004,-1.4000000000000001,8.6,5.1000000000000005,-6.600000000000001,4.9,2.2,16
17,384.0,0.0,-0.1,0.4,-1.4000000000000001,8.5,5.2,-2.9,2.9,1.4,16
18,401.0,-0.1,-0.1,0.30000000000000004,-1.5,8.5,5.1000000000000005,1.7,-0.4,1.2000000000000002,16
19,418.0,0.0,-0.1,0.1,-1.4000000000000001,8.5,4.9,3.1,-1.1,1.3,16
20,434.0,0.0,-0.1,-0.1,-1.4000000000000001,8.5,4.7,1.3,0.30000000000000004,0.9000000000000001,16
21,451.0,-0.1,-0.2,0.0,-1.5,8.4,4.800000000000001,-2.2,0.0,1.4,16
22,468.0,-0.1,-0.30000000000000004,0.1,-1.5,8.3,4.9,-2.4000000000000004,-1.7,1.8000000000000003,16
23,484.0,-0.1,-0.30000000000000004,0.1,-1.5,8.200000000000001,4.9,-0.5,-2.2,3.7000000000000006,16
24,501.0,0.0,-0.30000000000000004,0.0,-1.4000000000000001,8.3,4.800000000000001,2.1,-3.2,2.8,16
25,518.0,0.0,-0.2,-0.1,-1.4000000000000001,8.4,4.7,2.0,-3.6000000000000005,2.3,16
26,534.0,0.0,-0.1,-0.1,-1.3,8.4,4.7,-0.30000000000000004,-3.8,1.7,16
27,551.0,0.1,-0.2,-0.2,-1.3,8.4,4.7,-2.9,-2.4000000000000004,0.6000000000000001,16
28,568.0,0.0,-0.2,-0.2,-1.4000000000000001,8.4,4.7,-4.7,-0.4,-0.6000000000000001,16
29,584.0,-0.1,-0.1,-0.2,-1.5,8.4,4.7,-5.4,0.5,-1.2000000000000002,16
30,601.0,-0.2,0.0,-0.2,-1.6,8.5,4.7,-6.600000000000001,0.30000000000000004,-1.1,16
31,618.0,-0.2,0.0,-0.2,-1.6,8.5,4.7,-7.1000000000000005,-1.4,-0.8,16
32,634.0,-0.1,0.0,-0.1,-1.5,8.5,4.7,-7.400000000000001,-2.5,-1.1,16
33,651.0,-0.1,-0.1,-0.30000000000000004,-1.6,8.4,4.5,-9.3,-3.7000000000000006,-2.5,16
34,668.0,-0.2,-0.1,-0.1,-1.7000000000000002,8.3,4.800000000000001,-13.3,-2.3,-2.0,16
35,684.0,-0.30000000000000004,-0.1,0.0,-1.8,8.3,4.9,-14.0,-2.6,-1.1,16
36,701.0,-0.30000000000000004,-0.1,0.1,-1.7000000000000002,8.3,5.1000000000000005,-12.4,-2.6,3.0,16
37,718.0,0.1,0.0,-0.1,-1.4000000000000001,8.4,4.9,-9.5,-3.4,4.6,16
38,734.0,0.1,0.0,-0.2,-1.4000000000000001,8.5,4.7,-7.6,-5.7,0.5,16
39,751.0,-0.1,0.1,-0.4,-1.5,8.5,4.6000000000000005,-7.6,-5.8,-1.8000000000000003,16
40,768.0,-0.30000000000000004,0.2,-0.4,-1.7000000000000002,8.5,4.7,-8.8,-5.4,-3.3000000000000007,16
41,785.0,-0.4,0.30000000000000004,-0.1,-1.8,8.6,5.0,-11.900000000000002,-8.600000000000001,-3.0,16
42,801.0,-0.4,0.30000000000000004,0.1,-1.8,8.6,5.1000000000000005,-13.3,-9.100000000000001,-2.2,16
43,818.0,-0.1,0.1,0.2,-1.6,8.4,5.300000000000001,-11.8,-4.9,-1.9,16
44,834.0,0.0,0.2,-0.1,-1.4000000000000001,8.5,5.1000000000000005,-9.700000000000001,-0.30000000000000004,-5.1000000000000005,16
45,851.0,-0.1,0.2,-0.2,-1.5,8.5,4.9,-10.299999999999999,0.5,-6.9,16
46,868.0,-0.30000000000000004,0.5,-0.30000000000000004,-1.8,8.700000000000001,4.9,-12.8,-1.6,-9.600000000000001,16
47,884.0,-0.5,0.5,0.0,-2.0,8.8,5.2,-15.5,-6.9,-10.9,16
48,901.0,-0.5,0.6000000000000001,0.0,-2.0,8.9,5.2,-16.1,-10.200000000000001,-12.200000000000001,16
49,918.0,-0.30000000000000004,0.30000000000000004,0.1,-1.9000000000000001,8.5,5.4,-12.4,0.30000000000000004,-13.8,16
50,934.0,-0.2,0.1,-0.5,-1.8,8.3,4.800000000000001,-10.200000000000001,8.3,-13.6,16
51,951.0,-0.5,0.30000000000000004,-0.5,-2.2,8.4,4.9,-15.700000000000001,1.9,-15.2,16
52,968.0,-0.8,0.6000000000000001,-0.4,-2.5,8.8,4.9,-17.9,-2.4000000000000004,-15.399999999999999,16
53,984.0,-0.9,0.6000000000000001,-0.4,-2.6,8.700000000000001,5.0,-15.899999999999999,7.200000000000001,-10.1,16
54,1001.0,-0.30000000000000004,0.1,-0.4,-2.2,8.200000000000001,5.0,-8.700000000000001,15.399999999999999,-9.100000000000001,16
55,1018.0,-0.2,0.0,-0.7000000000000001,-2.0,8.1,4.7,-5.6,16.0,-10.700000000000001,16
56,1034.0,-0.4,0.0,-1.0,-2.3000000000000003,8.1,4.4,-3.5,14.800000000000002,-13.200000000000003,16
57,1051.0,-0.9,0.30000000000000004,-0.9,-2.8000000000000003,8.4,4.5,-4.0,10.9,-12.600000000000001,16
58,1068.0,-1.0,0.4,-0.6000000000000001,-3.1,8.5,4.7,-3.1,10.200000000000001,-10.299999999999999,16
59,1084.0,-1.0,0.2,-0.2,-3.1,8.200000000000001,5.1000000000000005,2.9,0.2,-3.6000000000000005,16
60,1101.0,-0.5,0.1,0.0,-2.6,8.200000000000001,5.300000000000001,14.300000000000002,-14.400000000000002,-1.2000000000000002,16
61,1118.0,-0.4,0.1,-0.1,-2.3000000000000003,8.3,5.0,19.200000000000003,-20.8,-3.1,16
62,1134.0,-0.30000000000000004,0.1,-0.6000000000000001,-2.4000000000000004,8.3,4.7,24.7,-20.599999999999998,-8.700000000000001,16
63,1151.0,-0.4,0.30000000000000004,-0.9,-2.4000000000000004,8.5,4.2,21.0,-13.5,-11.1,16
64,1168.0,-0.1,0.4,-1.3,-2.2,8.6,3.8000000000000003,11.4,-5.8,-14.400000000000002,16
65,1185.0,-0.1,0.4,-1.4000000000000001,-2.2,8.6,3.7,5.7,0.0,-16.1,16
66,1201.0,0.1,0.0,-1.2000000000000002,-2.1,8.200000000000001,3.9000000000000004,-6.8,1.4,-18.3,16
67,1218.0,-0.5,0.8,-1.0,-2.7,9.0,4.1000000000000005,-18.1,-8.700000000000001,-20.7,16
68,1234.0,-0.7000000000000001,1.0,-0.6000000000000001,-2.9000000000000004,9.200000000000001,4.5,-19.9,-9.0,-19.6,16
69,1251.0,-0.4,0.7000000000000001,-0.6000000000000001,-2.6,8.8,4.7,-22.5,-10.0,-14.900000000000002,16
70,1268.0,-0.30000000000000004,0.5,-0.8,-2.6,8.5,4.5,-33.2,-5.2,-10.1,16
71,1285.0,-0.2,0.4,-0.7000000000000001,-2.5,8.4,4.6000000000000005,-35.0,4.9,-8.600000000000001,16
72,1301.0,-0.30000000000000004,-0.2,-0.6000000000000001,-2.7,7.800000000000001,4.9,-47.0,1.6,-1.1,16
73,1318.0,-1.6,1.6,0.0,-3.9000000000000004,9.4,5.6000000000000005,-62.7,-20.900000000000002,5.8,16
74,1334.0,-1.8,1.8,0.2,-2.7,8.8,6.9,-77.1,-38.300000000000004,28.800000000000004,16
75,1351.0,0.0,-0.30000000000000004,0.30000000000000004,-2.0,7.300000000000001,6.300000000000001,-94.2,-76.2,55.0,16
76,1368.0,-0.7000000000000001,0.2,0.2,-2.3000000000000003,7.7,6.6000000000000005,-126.60000000000002,-118.10000000000001,80.10000000000001,16
77,1384.0,-0.30000000000000004,1.4000000000000001,0.6000000000000001,-1.5,8.6,7.300000000000001,-101.4,-63.900000000000006,68.9,16
78,1401.0,0.1,0.4,0.0,-1.1,7.6000000000000005,6.800000000000001,-78.80000000000001,-16.900000000000002,54.4,16
79,1418.0,0.30000000000000004,-0.8,-1.0,-0.9,6.2,5.9,-58.1,46.4,22.2,16
80,1434.0,-0.4,-0.4,-1.3,-1.7000000000000002,6.5,5.7,-60.7,55.400000000000006,8.0,16
81,1451.0,-1.1,0.7000000000000001,-0.5,-2.5,7.5,6.6000000000000005,-61.199999999999996,50.400000000000006,13.000000000000002,16
82,1468.0,-1.8,1.5,-0.1,-3.2,8.200000000000001,7.1000000000000005,-54.199999999999996,38.7,39.599999999999994,16
83,1484.0,-1.7000000000000002,2.3000000000000003,1.2000000000000002,-3.1,9.0,8.5,-46.0,54.800000000000004,66.5,16
84,1501.0,-1.2000000000000002,2.3000000000000003,2.3000000000000003,-2.6,9.0,9.600000000000001,-36.2,53.8,73.30000000000001,16
85,1518.0,2.2,-1.0,1.7000000000000002,0.9,5.6000000000000005,9.1,-14.900000000000002,9.2,67.8,16
86,1534.0,2.3000000000000003,-0.6000000000000001,1.8,1.2000000000000002,6.1000000000000005,9.200000000000001,5.6,-22.4,29.400000000000002,16
87,1551.0,1.8,-0.7000000000000001,0.30000000000000004,0.8,6.0,7.7,20.2,-48.50000000000001,-5.500000000000001,16
88,1568.0,1.2000000000000002,-0.7000000000000001,-0.5,0.30000000000000004,6.0,6.9,19.1,-48.400000000000006,-12.100000000000001,16
89,1584.0,1.1,-1.2000000000000002,-0.8,0.30000000000000004,5.5,6.6000000000000005,6.300000000000001,-42.7,-10.700000000000001,16
90,1601.0,0.6000000000000001,-1.5,-1.0,-0.1,5.2,6.4,-5.6,-25.1,0.30000000000000004,16
91,1618.0,0.5,-1.2000000000000002,-0.6000000000000001,-0.2,5.5,6.800000000000001,-7.1000000000000005,-17.799999999999997,8.4,16
92,1634.0,0.9,-0.8,0.0,0.30000000000000004,5.800000000000001,7.4,-0.1,-35.699999999999996,21.8,16
93,1651.0,1.4000000000000001,-0.9,-0.4,1.1,5.7,7.0,13.900000000000002,-75.1,19.799999999999997,16
94,1668.0,1.6,-1.0,-0.7000000000000001,1.4000000000000001,5.7,6.6000000000000005,19.799999999999997,-91.0,12.8,16
95,1684.0,1.6,-1.0,-1.6,1.6,5.7,5.7,21.7,-102.10000000000001,-6.0,16
96,1701.0,0.6000000000000001,-1.1,-1.9000000000000001,0.9,5.7,5.300000000000001,9.700000000000001,-89.5,-17.7,16
97,1718.0,-0.1,-1.1,-1.8,-0.30000000000000004,5.5,6.0,0.9000000000000001,-81.50000000000001,-18.5,16
98,1734.0,-1.0,-1.2000000000000002,-0.9,-0.5,5.5,6.300000000000001,-12.100000000000001,-79.9,-8.700000000000001,16
99,1751.0,-0.6000000000000001,-1.2000000000000002,-0.1,0.1,5.5,7.2,-17.1,-100.5,3.2,16
100,1768.0,0.4,-1.1,-0.6000000000000001,1.4000000000000001,5.4,6.6000000000000005,-20.7,-101.10000000000001,9.2,16
101,1784.0,0.7000000000000001,-1.1,-1.1,1.8,5.4,6.2,-25.4,-83.2,9.2,16
102,1801.0,-0.5,-0.6000000000000001,-1.7000000000000002,0.8,5.800000000000001,5.6000000000000005,-39.8,-18.1,12.0,16
103,1818.0,-0.9,-0.4,-0.8,0.4,5.9,6.6000000000000005,-52.400000000000006,19.1,26.6,16
104,1834.0,-0.7000000000000001,-0.2,-0.4,0.6000000000000001,6.1000000000000005,7.0,-53.400000000000006,17.300000000000004,33.0,16
105,1851.0,0.30000000000000004,0.1,0.2,1.6,6.2,7.7,-48.400000000000006,4.300000000000001,37.1,16
106,1868.0,1.0,0.7000000000000001,0.4,2.4000000000000004,6.6000000000000005,8.1,-33.400000000000006,-7.8,28.500000000000004,16
107,1884.0,1.3,0.8,0.30000000000000004,2.8000000000000003,6.7,8.0,-26.9,-11.900000000000002,20.8,16
108,1901.0,1.1,0.9,0.1,2.6,6.800000000000001,7.800000000000001,-19.799999999999997,-6.699999999999999,0.9000000000000001,16
109,1918.0,0.1,1.5,-0.30000000000000004,1.6,7.4,7.4,-15.399999999999999,3.5,-7.1000000000000005,16
110,1934.0,-0.2,1.6,-0.8,1.2000000000000002,7.5,6.9,-19.1,13.399999999999999,-2.4000000000000004,16
111,1951.0,-0.30000000000000004,1.6,-0.7000000000000001,1.2000000000000002,7.4,7.1000000000000005,-23.6,14.400000000000002,-0.7,16
112,1968.0,-0.4,1.6,0.0,1.0,7.4,7.800000000000001,-26.300000000000004,10.700000000000001,1.7,16
113,1985.0,-0.5,1.7000000000000002,0.0,0.9,7.5,7.9,-15.5,3.6000000000000005,2.0,16
114,2001.0,-0.6000000000000001,2.0,-0.1,0.8,7.7,7.800000000000001,-10.8,0.4,1.2000000000000002,16
115,2018.0,-0.5,2.1,0.1,0.9,7.800000000000001,8.0,-6.4,-6.0,-2.0,16
116,2034.0,-0.7000000000000001,2.0,0.6000000000000001,0.7000000000000001,7.800000000000001,8.5,-4.6,-19.400000000000002,-8.600000000000001,16
117,2051.0,-0.8,1.9000000000000001,0.9,0.6000000000000001,7.6000000000000005,8.8,-2.7,-22.6,-7.8,16
118,2068.0,-0.7000000000000001,1.7000000000000002,1.1,0.8,7.5,9.0,0.8,-18.200000000000003,0.9000000000000001,16
119,2084.0,-0.4,1.8,1.0,1.1,7.6000000000000005,9.0,-0.2,-1.8000000000000003,12.299999999999999,16
120,2101.0,-0.4,1.8,1.2000000000000002,1.1,7.5,9.1,-2.4000000000000004,5.9,15.899999999999999,16
121,2118.0,-1.0,1.9000000000000001,1.7000000000000002,0.5,7.6000000000000005,9.600000000000001,-3.7000000000000006,10.8,21.200000000000003,16
122,2135.0,-0.9,1.8,2.2,0.6000000000000001,7.5,10.200000000000001,1.7,2.4000000000000004,28.1,16
123,2151.0,-0.7000000000000001,1.2000000000000002,2.8000000000000003,0.9,7.0,10.8,3.9,-6.600000000000001,28.0,16
124,2168.0,-0.6000000000000001,0.8,3.1,1.0,6.5,11.100000000000001,4.4,-19.5,24.7,16
125,2184.0,-0.5,0.0,3.4000000000000004,1.3,5.800000000000001,11.4,7.200000000000001,-9.100000000000001,25.4,16
126,2201.0,-0.5,-0.30000000000000004,2.8000000000000003,1.2000000000000002,5.5,10.8,15.100000000000001,25.4,31.0,16
127,2218.0,-0.7000000000000001,-0.4,2.3000000000000003,1.1,5.4,10.4,17.300000000000004,38.50000000000001,33.0,16
128,2235.0,-0.6000000000000001,-0.6000000000000001,1.8,1.1,5.2,9.8,14.800000000000002,46.7,35.2,16
129,2251.0,0.2,-1.3,1.5,1.8,4.5,9.600000000000001,12.0,39.8,28.3,16
130,2268.0,-0.2,-1.3,1.0,1.4000000000000001,4.5,9.0,14.400000000000002,46.1,24.900000000000002,16
131,2284.0,-0.8,-1.3,0.0,0.6000000000000001,4.6000000000000005,8.1,16.6,73.30000000000001,34.800000000000004,16
132,2301.0,-0.6000000000000001,-1.8,-1.1,0.7000000000000001,4.0,7.0,12.5,91.10000000000001,40.2,16
133,2318.0,-1.3,-2.1,-1.0,-0.2,3.7,7.1000000000000005,6.9,88.60000000000001,35.8,16
134,2334.0,-1.1,-1.0,-0.7000000000000001,-0.1,4.800000000000001,7.4,6.8,78.60000000000001,42.900000000000006,16
135,2351.0,-0.6000000000000001,-1.2000000000000002,-0.6000000000000001,0.30000000000000004,4.6000000000000005,7.4,11.700000000000001,40.300000000000004,43.4,16
136,2368.0,-0.5,-1.1,-0.7000000000000001,0.5,4.800000000000001,7.300000000000001,12.0,16.1,41.7,16
137,2384.0,0.7000000000000001,-1.8,-0.5,1.8,4.1000000000000005,7.5,12.5,-7.699999999999999,23.099999999999998,16
138,2401.0,1.0,-2.4000000000000004,-0.4,2.1,3.4000000000000004,7.6000000000000005,11.900000000000002,-8.2,-4.2,16
139,2418.0,0.30000000000000004,-2.2,-0.6000000000000001,1.4000000000000001,3.7,7.4,17.300000000000004,23.5,-13.5,16
140,2434.0,-0.2,-1.9000000000000001,-0.7000000000000001,0.8,4.1000000000000005,7.2,20.0,34.50000000000001,-11.1,16
141,2451.0,-1.0,-1.1,-1.3,-0.1,4.9,6.6000000000000005,23.900000000000006,36.8,-3.7000000000000006,16
142,2468.0,-1.0,-1.1,-1.8,-0.2,5.0,6.1000000000000005,28.700000000000003,18.700000000000003,1.1,16
143,2485.0,-1.0,-1.2000000000000002,-1.9000000000000001,-0.2,4.9,5.9,29.900000000000006,8.5,2.0,16
144,2501.0,-0.9,-1.2000000000000002,-1.5,-0.1,5.0,6.2,31.799999999999997,-6.500000000000001,1.3,16
145,2518.0,-0.7000000000000001,-1.1,-1.5,0.1,5.2,6.1000000000000005,29.800000000000004,-5.0,0.6000000000000001,16
146,2539.0,-1.2000000000000002,-0.8,-1.6,-0.4,5.5,6.0,19.6,8.0,9.5,16
147,2551.0,-1.3,-0.7000000000000001,-1.4000000000000001,-0.5,5.6000000000000005,6.2,14.200000000000001,13.5,16.0,16
148,2568.0,-0.8,-0.4,-1.4000000000000001,0.0,5.9,6.1000000000000005,10.4,-2.9,24.7,16
149,2584.0,-1.4000000000000001,-0.8,-2.1,-0.8,5.4,5.1000000000000005,8.3,-8.4,30.9,16
150,2601.0,-1.3,0.2,-2.1,-0.30000000000000004,6.5,5.4,0.30000000000000004,3.6000000000000005,67.3,16
151,2618.0,-0.2,0.9,-0.30000000000000004,0.9,7.2,7.2,2.7,4.800000000000001,88.3,16
152,2634.0,1.5,-1.6,-0.30000000000000004,2.9000000000000004,4.7,7.1000000000000005,13.900000000000002,-47.400000000000006,52.1,16
153,2651.0,1.0,-1.3,-1.1,2.4000000000000004,4.9,6.300000000000001,17.7,-67.8,36.2,16
154,2668.0,-0.5,-0.5,-1.4000000000000001,1.2000000000000002,5.800000000000001,5.9,18.1,-83.2,26.400000000000006,16
155,2685.0,-1.7000000000000002,-1.4000000000000001,-1.9000000000000001,0.30000000000000004,4.9,5.300000000000001,11.000000000000002,-107.6,38.300000000000004,16
156,2702.0,-2.1,-1.4000000000000001,-1.6,0.1,4.9,5.5,7.1000000000000005,-120.60000000000001,55.1,16
157,2718.0,-0.1,-1.8,-1.3,2.6,4.4,5.6000000000000005,14.300000000000002,-152.5,92.39999999999999,16
158,2735.0,1.8,-3.9000000000000004,-0.6000000000000001,5.2,2.2,6.2,14.700000000000001,-134.8,104.2,16
159,2751.0,2.3000000000000003,-4.1000000000000005,-1.3,6.2,1.6,4.9,20.900000000000002,-145.60000000000002,90.70000000000002,16
160,2768.0,1.6,-4.5,-2.1,5.800000000000001,1.5,4.3,21.400000000000002,-151.9,82.39999999999999,16
161,2784.0,0.30000000000000004,-3.9000000000000004,-3.1,4.9,1.9000000000000001,3.1,16.1,-160.8,75.5,16
162,2801.0,0.0,-3.6,-4.0,5.2,2.1,1.8,-16.0,-167.9,93.00000000000001,16
163,2820.0,0.6000000000000001,-3.7,-3.9000000000000004,7.5,1.7000000000000002,2.5,-44.10000000000001,-158.6,106.70000000000002,16
164,2835.0,3.4000000000000004,-4.2,-1.8,9.3,0.9,3.9000000000000004,-100.6,-116.0,127.00000000000003,16
165,2851.0,6.2,-4.800000000000001,2.4000000000000004,12.5,-0.30000000000000004,8.1,-131.29999999999998,-70.6,102.7,16
166,2868.0,6.300000000000001,-3.9000000000000004,4.4,12.700000000000001,0.4,10.100000000000001,-124.0,-66.60000000000001,82.10000000000001,16
167,2885.0,6.4,-2.0,5.1000000000000005,13.200000000000001,2.0,10.9,-79.6,-64.7,52.7,16
168,2901.0,6.2,-1.2000000000000002,5.1000000000000005,13.200000000000001,2.6,10.9,-41.4,-33.800000000000004,24.7,16
169,2918.0,5.2,-0.7000000000000001,5.2,12.100000000000001,3.1,10.9,-29.0,-15.6,9.8,16
170,2934.0,2.2,0.8,4.6000000000000005,9.200000000000001,4.5,10.4,-11.000000000000002,-6.1000000000000005,6.300000000000001,16
171,2951.0,1.9000000000000001,1.0,3.5,9.0,4.7,9.3,7.9,-21.900000000000002,18.0,16
172,2968.0,2.1,0.5,2.7,8.5,5.0,7.800000000000001,23.099999999999998,-25.300000000000004,6.500000000000001,16
173,2984.0,0.30000000000000004,2.1,1.1,7.5,5.9,6.800000000000001,22.3,-24.599999999999998,1.6,16
174,3001.0,0.4,1.0,0.9,7.6000000000000005,4.800000000000001,6.5,18.3,-15.2,1.1,16
175,3018.0,-1.5,1.6,1.8,5.7,5.4,7.4,14.800000000000002,-26.700000000000003,-3.9,16
176,3034.0,-1.2000000000000002,1.1,1.4000000000000001,6.1000000000000005,5.0,6.9,17.7,-39.300000000000004,0.1,16
177,3051.0,-1.5,0.8,0.6000000000000001,5.800000000000001,4.800000000000001,5.9,31.6,-56.6,4.9,16
178,3068.0,-1.5,1.4000000000000001,-0.30000000000000004,6.0,5.4,4.800000000000001,40.9,-63.2,8.700000000000001,16
179,3084.0,-1.5,1.4000000000000001,-0.7000000000000001,6.1000000000000005,5.4,4.3,42.5,-61.300000000000004,9.899999999999999,16
180,3101.0,-1.9000000000000001,1.4000000000000001,-1.3,5.7,5.5,3.5,43.70000000000001,-56.6,16.8,16
181,3125.0,-2.2,1.9000000000000001,-1.2000000000000002,5.5,6.0,3.4000000000000004,44.9,-62.300000000000004,30.000000000000004,16
182,3136.0,-2.9000000000000004,2.6,-1.2000000000000002,5.0,6.6000000000000005,3.1,45.099999999999994,-93.60000000000001,50.900000000000006,16
183,3151.0,-3.4000000000000004,2.4000000000000004,-1.1,4.7,6.4,3.0,46.800000000000004,-108.7,71.5,16
184,3169.0,-1.5,0.4,-0.5,6.800000000000001,4.2,3.2,57.800000000000004,-124.8,95.0,16
185,3184.0,-0.4,0.2,0.2,8.1,3.9000000000000004,3.4000000000000004,71.10000000000001,-147.8,73.7,16
186,3201.0,-0.1,0.8,-0.1,8.6,4.4,2.7,73.7,-160.50000000000003,59.40000000000001,16
187,3218.0,-0.4,1.9000000000000001,-2.0,8.5,5.5,0.30000000000000004,65.10000000000001,-161.9,43.4,16
188,3236.0,-0.5,2.5,-2.7,8.5,6.0,-0.8,32.7,-99.7,48.0,16
189,3251.0,-0.6000000000000001,2.5,-2.2,8.5,5.9,-0.5,12.200000000000001,-70.7,56.2,16
190,3268.0,-0.7000000000000001,1.9000000000000001,-1.4000000000000001,8.5,5.1000000000000005,0.2,-18.5,-41.199999999999996,83.5,16
191,3284.0,0.9,2.7,-1.2000000000000002,10.200000000000001,5.5,0.30000000000000004,-52.5,-62.300000000000004,95.4,16
192,3301.0,1.7000000000000002,2.8000000000000003,-1.1,11.100000000000001,5.5,0.30000000000000004,-73.30000000000001,-85.9,96.60000000000001,16
193,3318.0,3.1,1.8,0.8,12.700000000000001,4.2,1.9000000000000001,-104.4,-100.80000000000001,95.20000000000002,16
194,3335.0,3.5,0.5,2.8000000000000003,13.200000000000001,2.5,3.7,-94.10000000000001,-80.2,84.2,16
195,3351.0,3.2,0.0,2.8000000000000003,12.600000000000001,2.0,3.1,-59.40000000000001,-59.40000000000001,71.39999999999999,16
196,3368.0,2.6,0.8,1.7000000000000002,12.4,2.4000000000000004,2.4000000000000004,-45.2,-54.4,62.4,16
197,3384.0,1.6,1.1,0.5,11.5,2.6,1.0,-26.700000000000003,-58.1,42.5,16
198,3401.0,0.5,0.4,0.30000000000000004,10.4,1.8,0.7000000000000001,-29.800000000000004,-53.300000000000004,33.800000000000004,16
199,3418.0,-0.2,0.30000000000000004,0.6000000000000001,9.700000000000001,1.6,0.9,-32.400000000000006,-52.900000000000006,37.0,16
200,3435.0,-1.3,0.30000000000000004,0.30000000000000004,8.6,1.5,0.4,-17.400000000000002,-47.400000000000006,64.7,16
201,3451.0,-2.3000000000000003,0.8,0.4,7.7,1.6,0.5,11.6,-8.3,108.2,16
202,3468.0,-2.2,0.8,0.5,7.7,1.4000000000000001,0.5,24.900000000000002,16.200000000000003,130.20000000000002,16
203,3485.0,-1.9000000000000001,0.0,0.6000000000000001,8.1,0.1,0.8,46.50000000000001,54.800000000000004,166.8,16
204,3501.0,-1.5,-0.7000000000000001,1.0,8.4,-1.3,1.4000000000000001,56.10000000000001,72.80000000000001,188.4,16
205,3518.0,-1.6,-1.2000000000000002,0.9,7.800000000000001,-2.8000000000000003,1.9000000000000001,58.60000000000001,76.0,194.4,16
206,3534.0,-2.1,-1.7000000000000002,1.2000000000000002,7.7,-3.2,2.1,75.3,64.9,214.10000000000002,16
207,3551.0,-0.8,-1.0,0.6000000000000001,8.700000000000001,-3.2,1.8,99.00000000000001,63.30000000000001,216.90000000000003,16
208,3568.0,1.8,-0.1,0.4,11.200000000000001,-2.9000000000000004,1.9000000000000001,91.4,91.90000000000002,162.3,16
209,3584.0,2.3000000000000003,0.4,-0.1,11.600000000000001,-2.6,1.6,86.3,81.7,116.1,16
210,3601.0,0.1,0.8,-1.4000000000000001,9.3,-2.3000000000000003,0.6000000000000001,76.80000000000001,63.10000000000001,30.599999999999998,16
211,3618.0,-2.1,1.2000000000000002,-1.6,7.0,-1.8,0.7000000000000001,65.10000000000001,73.9,12.200000000000001,16
212,3634.0,-2.1,0.5,-1.4000000000000001,6.9,-2.6,1.0,36.2,89.0,19.300000000000004,16
213,3651.0,-1.2000000000000002,-1.0,-0.8,7.7,-4.1000000000000005,1.9000000000000001,-1.4,74.7,29.900000000000006,16
214,3668.0,-0.7000000000000001,-1.0,-0.2,8.200000000000001,-4.2,2.6,-41.4,48.10000000000001,17.200000000000003,16
215,3684.0,-0.8,-0.9,-0.30000000000000004,8.1,-4.2,2.6,-58.1,39.50000000000001,6.4,16
216,3701.0,-1.6,-1.3,0.4,7.2,-4.6000000000000005,3.3000000000000003,-79.7,30.9,-1.1,16
217,3719.0,0.30000000000000004,-0.6000000000000001,4.6000000000000005,9.0,-4.1000000000000005,7.5,-80.4,41.800000000000004,8.3,16
218,3735.0,1.1,-0.1,9.0,9.200000000000001,-6.9,7.2,-23.0,69.10000000000001,2.0,16
219,3751.0,-1.3,-4.2,0.5,7.300000000000001,-7.7,3.8000000000000003,101.30000000000001,77.9,-10.5,16
220,3768.0,-3.1,-3.1,1.1,5.4,-6.5,4.800000000000001,68.60000000000001,74.80000000000001,14.400000000000002,16
221,3784.0,-1.8,-3.9000000000000004,1.2000000000000002,6.6000000000000005,-7.300000000000001,5.1000000000000005,73.10000000000001,34.7,41.4,16
222,3801.0,-0.4,-4.1000000000000005,0.1,8.0,-7.5,4.1000000000000005,61.39999999999999,11.3,38.800000000000004,16
223,3818.0,-0.2,-3.0,-0.5,8.200000000000001,-6.5,3.5,17.5,0.1,16.900000000000002,16
224,3834.0,-0.5,-2.8000000000000003,1.3,7.7,-6.4,5.300000000000001,14.900000000000002,24.599999999999998,24.400000000000002,16
225,3851.0,-0.9,-2.9000000000000004,0.4,7.4,-6.6000000000000005,4.6000000000000005,30.200000000000003,34.2,32.6,16
226,3868.0,-2.2,-3.6,-1.3,5.9,-7.300000000000001,3.0,34.0,36.5,47.5,16
227,3884.0,-1.4000000000000001,-3.8000000000000003,-1.1,6.5,-7.6000000000000005,3.3000000000000003,33.300000000000004,16.8,53.9,16
228,3901.0,-1.0,-3.6,-2.3000000000000003,6.9,-7.5,2.1,35.5,4.1,49.1,16
229,3918.0,-0.9,-2.4000000000000004,-4.800000000000001,7.0,-6.4,-0.4,6.0,-4.2,24.3,16
230,3935.0,-2.7,0.1,-3.6,5.2,-3.9000000000000004,0.8,-19.5,12.7,16.6,16
231,3951.0,-3.2,0.7000000000000001,-3.3000000000000003,4.4,-3.7,1.7000000000000002,-25.8,25.200000000000003,39.400000000000006,16
232,3968.0,-2.8000000000000003,0.0,-1.7000000000000002,4.9,-4.2,2.7,-26.799999999999997,30.000000000000004,45.8,16
233,3986.0,-2.2,0.5,-0.7000000000000001,5.4,-3.9000000000000004,3.7,-18.200000000000003,24.599999999999998,35.2,16
234,4003.0,-2.2,0.7000000000000001,-1.5,5.300000000000001,-3.8000000000000003,2.9000000000000004,-5.7,23.400000000000002,21.200000000000003,16
235,4018.0,-2.5,1.1,-1.7000000000000002,4.9,-3.4000000000000004,2.7,-4.0,27.2,26.000000000000004,16
236,4034.0,-1.4000000000000001,1.0,-0.2,5.800000000000001,-3.5,4.4,14.700000000000001,51.4,37.6,16
237,4051.0,-1.0,0.9,-0.30000000000000004,6.1000000000000005,-3.7,4.5,50.3,81.3,41.900000000000006,16
238,4068.0,-1.0,0.9,-0.5,6.0,-3.6,4.4,65.2,94.6,41.50000000000001,16
239,4084.0,-0.8,1.8,-0.7000000000000001,5.9,-2.7,4.7,90.30000000000001,115.50000000000003,35.1,16
240,4101.0,-0.2,2.9000000000000004,-1.0,6.2,-1.5,4.7,96.5,114.40000000000002,24.599999999999998,16
241,4118.0,0.6000000000000001,2.4000000000000004,-1.2000000000000002,6.9,-1.9000000000000001,4.7,99.39999999999999,115.20000000000002,14.400000000000002,16
242,4135.0,0.8,-0.2,-6.0,6.9,-4.3,0.2,55.400000000000006,63.500000000000014,-3.1,16
243,4151.0,1.8,1.2000000000000002,-1.2000000000000002,7.9,-2.9000000000000004,5.0,-51.70000000000001,47.0,-0.2,16
244,4168.0,2.2,2.1,0.2,8.3,-3.1,5.1000000000000005,-48.300000000000004,56.0,-24.7,16
245,4184.0,2.2,0.2,-1.6,8.200000000000001,-4.0,4.7,-51.6,61.599999999999994,-39.300000000000004,16
246,4201.0,1.6,-0.5,-4.2,7.6000000000000005,-4.9,2.0,-115.9,10.299999999999999,-57.3,16
247,4218.0,1.5,3.8000000000000003,0.9,7.6000000000000005,-0.7000000000000001,6.800000000000001,-167.60000000000002,2.8,-69.7,16
248,4234.0,2.4000000000000004,3.7,3.1,8.6,-0.9,8.9,-135.4,12.8,-69.10000000000001,16
249,4251.0,2.5,-0.6000000000000001,-0.30000000000000004,8.8,-5.2,5.4,-54.9,-7.6,-47.5,16
250,4268.0,3.7,-0.2,0.30000000000000004,10.100000000000001,-4.800000000000001,5.9,-56.300000000000004,10.4,-38.1,16
251,4284.0,3.6,1.0,0.6000000000000001,10.100000000000001,-3.6,6.300000000000001,-54.1,16.6,-45.7,16
252,4301.0,2.6,3.0,-0.7000000000000001,9.1,-1.6,4.9,-55.5,15.700000000000001,-66.60000000000001,16
253,4318.0,3.5,2.7,1.2000000000000002,10.200000000000001,-1.8,6.7,-76.3,10.4,-80.30000000000001,16
254,4335.0,2.1,2.9000000000000004,2.5,8.5,-1.7000000000000002,7.300000000000001,-70.5,0.0,-85.4,16
255,4351.0,1.8,1.9000000000000001,1.2000000000000002,8.6,-2.4000000000000004,6.6000000000000005,-39.8,13.5,-79.7,16
256,4368.0,0.9,1.0,2.2,7.800000000000001,-3.2,7.6000000000000005,-35.1,24.900000000000002,-57.3,16
257,4384.0,0.5,0.7000000000000001,3.5,7.4,-3.4000000000000004,9.0,-14.0,33.800000000000004,-46.1,16
258,4401.0,0.4,0.2,3.7,7.300000000000001,-3.9000000000000004,9.200000000000001,-2.0,32.2,-44.7,16
259,4419.0,-0.2,-0.1,3.1,6.7,-4.0,8.8,23.6,27.099999999999998,-42.1,16
260,4434.0,0.1,-0.7000000000000001,3.1,7.0,-4.5,8.9,45.400000000000006,18.5,-52.400000000000006,16
261,4451.0,-0.30000000000000004,-0.4,2.8000000000000003,6.6000000000000005,-4.0,8.6,51.70000000000001,10.200000000000001,-63.10000000000001,16
262,4468.0,-0.5,0.8,0.8,6.6000000000000005,-2.5,6.800000000000001,56.300000000000004,1.6,-79.19999999999999,16
263,4484.0,-0.8,0.6000000000000001,0.1,6.300000000000001,-2.5,6.1000000000000005,38.400000000000006,11.8,-82.7,16
264,4501.0,-0.9,0.0,0.30000000000000004,6.2,-2.9000000000000004,6.4,30.799999999999997,18.1,-82.39999999999999,16
265,4519.0,-2.1,-1.0,0.7000000000000001,5.1000000000000005,-3.6,6.800000000000001,34.0,20.2,-86.7,16
266,4535.0,-2.5,-0.5,-2.1,4.6000000000000005,-2.8000000000000003,4.2,54.0,13.5,-94.5,16
267,4551.0,-2.1,-0.2,-2.8000000000000003,5.0,-2.1,3.6,53.2,13.5,-99.8,16
268,4568.0,-2.4000000000000004,-0.4,-2.8000000000000003,4.800000000000001,-2.2,3.5,24.8,-6.9,-106.80000000000001,16
269,4584.0,-2.4000000000000004,-1.4000000000000001,-1.3,4.9,-2.9000000000000004,4.9,-0.9000000000000001,-11.3,-122.20000000000002,16
270,4601.0,-5.300000000000001,-1.9000000000000001,0.0,2.1,-3.1,6.1000000000000005,-4.1,-14.5,-125.00000000000001,16
271,4619.0,-6.300000000000001,-1.6,-0.2,1.1,-2.7,5.9,10.1,-47.400000000000006,-93.10000000000001,16
272,4635.0,-4.0,-1.5,-2.8000000000000003,3.5,-2.4000000000000004,3.1,29.700000000000006,-55.60000000000001,-49.4,16
273,4651.0,-1.8,-0.6000000000000001,-2.6,5.7,-1.4000000000000001,3.2,23.0,-27.700000000000003,-30.799999999999997,16
274,4668.0,-2.0,-1.0,-2.4000000000000004,5.6000000000000005,-1.7000000000000002,3.4000000000000004,17.200000000000003,-18.3,-36.0,16
275,4684.0,-0.8,-1.6,-1.6,6.800000000000001,-2.2,4.1000000000000005,17.1,-13.000000000000002,-62.50000000000001,16
276,4701.0,-1.2000000000000002,-1.9000000000000001,-2.2,6.4,-2.1,3.5,32.9,-4.0,-119.20000000000002,16
277,4719.0,-1.7000000000000002,-2.1,-2.4000000000000004,6.0,-2.1,3.3000000000000003,41.0,3.8,-145.3,16
278,4735.0,-1.8,-3.7,-3.4000000000000004,5.7,-3.2,2.3000000000000003,53.50000000000001,30.200000000000003,-171.60000000000002,16
279,4751.0,-0.8,-5.1000000000000005,-4.7,6.6000000000000005,-4.2,1.1,60.400000000000006,40.6,-156.5,16
280,4768.0,-0.1,-4.9,-5.800000000000001,7.1000000000000005,-3.6,0.2,57.60000000000001,140.5,-109.7,16
281,4784.0,0.2,-4.3,-5.4,7.1000000000000005,-2.8000000000000003,0.7000000000000001,57.00000000000001,188.5,-87.89999999999999,16
282,4801.0,-0.30000000000000004,-3.1,10.600000000000001,6.300000000000001,-1.4000000000000001,17.1,0.5,78.0,-49.199999999999996,16
283,4818.0,-0.1,-3.0,-4.7,6.800000000000001,-1.5,1.6,-85.1,-157.0,-5.8,16
284,4834.0,0.4,-4.5,-5.4,7.4,-3.1,0.8,-74.60000000000001,-119.30000000000003,17.0,16
285,4851.0,1.4000000000000001,-5.2,-2.0,8.6,-4.1000000000000005,3.9000000000000004,-45.0,-49.6,42.3,16
286,4868.0,0.7000000000000001,-5.2,-0.2,8.0,-4.3,5.6000000000000005,-58.60000000000001,-91.7,41.0,16
287,4884.0,0.2,-5.2,-2.0,7.7,-4.5,3.7,-76.0,-112.60000000000001,37.1,16
288,4902.0,-1.0,-4.6000000000000005,-2.6,6.7,-4.2,2.8000000000000003,-103.60000000000001,-93.60000000000001,52.60000000000001,16
289,4920.0,-1.9000000000000001,-4.6000000000000005,-2.1,5.9,-4.7,3.0,-135.0,-91.8,93.00000000000001,16
290,4935.0,-1.5,-5.6000000000000005,-1.2000000000000002,6.5,-6.300000000000001,3.7,-168.6,-107.10000000000001,123.6,16
291,4951.0,-1.6,-5.300000000000001,-0.9,6.4,-6.4,3.8000000000000003,-180.29999999999998,-128.8,136.3,16
292,4968.0,-1.3,-4.9,-0.8,6.9,-6.7,3.3000000000000003,-192.8,-180.29999999999998,167.50000000000003,16
293,4984.0,-0.6000000000000001,-6.0,-0.7000000000000001,7.800000000000001,-8.6,2.6,-190.50000000000003,-233.1,208.3,16
294,5001.0,0.5,-6.7,0.0,8.9,-9.8,2.9000000000000004,-183.6,-249.80000000000004,223.1,16
295,5018.0,3.6,-6.7,1.7000000000000002,11.9,-10.700000000000001,3.6,-160.70000000000002,-269.9,217.6,16
296,5034.0,4.6000000000000005,-4.6000000000000005,2.0,12.8,-9.200000000000001,3.0,-128.3,-238.50000000000003,162.6,16
297,5052.0,3.0,-3.3000000000000003,2.2,10.700000000000001,-6.7,2.0,-109.7,-198.10000000000002,143.3,16
298,5068.0,3.6,-1.2000000000000002,1.5,11.5,-6.4,1.7000000000000002,-74.4,-99.10000000000001,141.1,16
299,5084.0,3.9000000000000004,-1.2000000000000002,1.2000000000000002,11.600000000000001,-6.800000000000001,1.2000000000000002,-67.5,-31.9,112.5,16
300,5101.0,3.3000000000000003,-0.4,1.1,10.9,-6.1000000000000005,1.0,-74.5,-12.100000000000001,90.5,16
301,5118.0,2.5,0.5,1.6,10.100000000000001,-5.300000000000001,1.3,-90.70000000000002,-5.9,59.5,16
302,5134.0,3.5,1.1,2.1,11.0,-4.800000000000001,1.5,-95.4,-25.6,38.400000000000006,16
303,5151.0,3.8000000000000003,1.2000000000000002,1.6,11.3,-4.7,0.9,-86.00000000000001,-13.399999999999999,5.4,16
304,5168.0,4.3,1.1,2.7,11.8,-4.800000000000001,1.8,-80.60000000000001,9.8,-9.4,16
305,5184.0,3.9000000000000004,1.3,2.5,11.5,-4.5,1.8,-52.80000000000001,56.300000000000004,-39.0,16
306,5201.0,5.2,1.0,3.5,13.0,-4.6000000000000005,2.9000000000000004,-18.4,88.10000000000001,-81.8,16
307,5219.0,4.7,1.5,3.5,12.700000000000001,-3.9000000000000004,3.0,-5.500000000000001,82.50000000000001,-100.6,16
308,5236.0,4.1000000000000005,4.0,2.6,12.4,-1.1,2.5,13.900000000000002,105.9,-121.6,16
309,5251.0,2.7,6.4,1.3,11.100000000000001,1.7000000000000002,1.6,13.8,158.7,-106.80000000000001,16
310,5268.0,2.8000000000000003,7.1000000000000005,1.8,11.3,2.5,2.4000000000000004,1.5,186.00000000000003,-91.2,16
311,5284.0,1.6,8.200000000000001,3.4000000000000004,10.200000000000001,3.9000000000000004,4.5,-39.2,193.3,-63.599999999999994,16
312,5301.0,2.2,5.9,1.6,10.700000000000001,1.7000000000000002,3.1,-102.7,138.8,-27.5,16
313,5318.0,2.8000000000000003,5.300000000000001,4.2,11.200000000000001,1.1,8.5,-114.40000000000002,152.6,-23.099999999999998,16
314,5335.0,2.3000000000000003,5.4,7.1000000000000005,10.8,1.3,9.0,-97.2,117.7,-5.7,16
315,5351.0,1.9000000000000001,6.1000000000000005,7.1000000000000005,10.3,2.0,9.3,-34.2,102.4,25.200000000000003,16
316,5368.0,1.9000000000000001,5.800000000000001,7.300000000000001,10.200000000000001,1.6,9.9,39.400000000000006,115.60000000000001,40.7,16
317,5384.0,2.5,5.6000000000000005,7.5,10.700000000000001,1.3,10.4,65.89999999999999,109.2,44.8,16
318,5401.0,4.0,4.4,7.2,12.100000000000001,0.1,10.5,104.50000000000001,69.00000000000001,41.800000000000004,16
319,5418.0,4.9,2.9000000000000004,6.2,12.9,-1.2000000000000002,9.8,137.70000000000002,56.50000000000001,11.2,16
320,5436.0,4.6000000000000005,2.3000000000000003,5.9,12.200000000000001,-2.0,9.600000000000001,160.10000000000002,47.2,-36.7,16
321,5451.0,3.4000000000000004,1.6,5.1000000000000005,11.4,-2.0,9.3,166.60000000000002,39.699999999999996,-61.7,16
322,5468.0,1.5,1.1,3.4000000000000004,9.600000000000001,-2.0,8.0,167.0,33.2,-85.69999999999999,16
323,5484.0,1.2000000000000002,0.5,3.0,9.3,-2.3000000000000003,7.7,157.70000000000002,37.50000000000001,-86.00000000000001,16
324,5501.0,1.8,-0.8,3.2,10.0,-3.1,8.200000000000001,131.5,58.5,-81.3,16
325,5519.0,2.9000000000000004,-1.3,4.2,11.0,-3.3000000000000003,9.600000000000001,117.1,87.10000000000001,-79.6,16
326,5534.0,3.1,-1.6,4.4,11.0,-3.4000000000000004,9.9,116.69999999999999,99.7,-88.00000000000001,16
327,5551.0,2.3000000000000003,-2.3000000000000003,4.1000000000000005,10.3,-3.5,10.0,120.60000000000001,114.99999999999999,-116.1,16
328,5568.0,1.2000000000000002,-2.7,4.4,8.9,-3.3000000000000003,10.8,125.4,127.1,-131.2,16
329,5584.0,1.8,-3.7,4.5,9.200000000000001,-3.8000000000000003,11.3,136.0,146.8,-131.79999999999998,16
330,5601.0,2.2,-4.4,4.5,9.4,-4.2,11.4,144.0,156.8,-137.3,16
331,5620.0,2.0,-5.4,3.5,8.8,-4.4,10.8,164.1,161.70000000000002,-143.3,16
332,5635.0,2.0,-6.0,1.6,8.3,-4.3,9.3,169.9,168.5,-152.4,16
333,5651.0,1.7000000000000002,-6.7,1.0,7.800000000000001,-4.6000000000000005,8.8,165.6,168.6,-149.4,16
334,5668.0,1.8,-6.2,0.2,7.300000000000001,-3.5,8.200000000000001,143.6,170.2,-132.1,16
335,5684.0,1.7000000000000002,-5.6000000000000005,0.2,6.6000000000000005,-2.4000000000000004,8.4,124.0,171.10000000000002,-117.20000000000002,16
336,5701.0,1.7000000000000002,-5.9,-0.1,6.4,-2.5,8.200000000000001,116.0,163.7,-110.0,16
337,5719.0,2.0,-5.6000000000000005,-0.2,6.1000000000000005,-1.8,8.1,93.60000000000001,134.10000000000002,-102.4,16
338,5736.0,3.8000000000000003,-5.800000000000001,0.2,7.4,-1.6,8.6,73.7,107.5,-85.9,16
339,5751.0,4.7,-6.5,0.0,8.0,-2.1,8.4,66.2,105.20000000000002,-86.60000000000001,16
340,5768.0,4.6000000000000005,-6.4,-0.4,7.7,-2.0,8.0,44.10000000000001,105.10000000000001,-98.2,16
341,5785.0,4.4,-6.0,0.1,7.0,-1.4000000000000001,8.6,21.6,112.20000000000002,-103.10000000000001,16
342,5802.0,3.6,-6.5,-0.5,5.7,-1.9000000000000001,8.1,16.5,134.6,-87.80000000000001,16
343,5825.0,3.3000000000000003,-5.9,-0.6000000000000001,4.9,-1.2000000000000002,8.1,29.400000000000002,149.79999999999998,-71.9,16
344,5835.0,2.9000000000000004,-4.9,-0.5,4.3,-0.2,8.200000000000001,39.8,141.2,-63.4,16
345,5851.0,2.9000000000000004,-3.7,-1.2000000000000002,3.9000000000000004,1.2000000000000002,7.4,62.800000000000004,93.2,-49.199999999999996,16
346,5868.0,3.0,-3.5,-1.7000000000000002,3.9000000000000004,1.6,6.800000000000001,75.00000000000001,68.3,-48.400000000000006,16
347,5884.0,2.7,-3.2,-3.5,3.3000000000000003,2.1,4.9,90.6,49.0,-47.7,16
348,5901.0,1.4000000000000001,-2.4000000000000004,-4.3,1.8,3.2,3.9000000000000004,85.20000000000002,57.800000000000004,-39.50000000000001,16
349,5919.0,0.5,-1.7000000000000002,-3.8000000000000003,0.7000000000000001,4.0,4.2,64.50000000000001,61.9,-17.200000000000003,16
350,5936.0,0.1,-1.2000000000000002,-3.1,0.30000000000000004,4.6000000000000005,4.800000000000001,54.6,55.3,-4.5,16
351,5952.0,0.8,-1.0,-2.0,0.9,4.9,5.800000000000001,44.10000000000001,28.700000000000003,15.2,16
352,5968.0,2.2,-1.9000000000000001,-1.7000000000000002,2.2,4.1000000000000005,6.0,48.50000000000001,11.8,13.900000000000002,16
353,5984.0,2.4000000000000004,-2.1,-1.8,2.4000000000000004,4.0,5.9,54.6,14.300000000000002,5.8,16
354,6002.0,1.3,-1.5,-2.4000000000000004,1.3,4.7,5.1000000000000005,67.5,24.5,-9.600000000000001,16
355,6021.0,0.4,-1.0,-3.2,0.30000000000000004,5.300000000000001,4.1000000000000005,62.900000000000006,28.600000000000005,-10.8,16
356,6034.0,0.2,-0.9,-3.5,0.1,5.5,3.8000000000000003,52.00000000000001,26.9,-10.200000000000001,16
357,6051.0,-0.1,-0.6000000000000001,-3.0,-0.30000000000000004,5.9,4.2,24.1,17.400000000000002,-10.4,16
358,6068.0,0.4,-1.1,-1.7000000000000002,0.2,5.5,5.4,12.7,11.900000000000002,-6.500000000000001,16
359,6084.0,0.8,-1.2000000000000002,-1.4000000000000001,0.6000000000000001,5.300000000000001,5.7,15.2,11.700000000000001,-6.2,16
360,6101.0,1.1,-1.2000000000000002,-1.5,0.8,5.4,5.5,26.700000000000003,18.8,-13.5,16
361,6121.0,0.5,-1.0,-2.1,0.2,5.6000000000000005,4.800000000000001,33.6,22.4,-20.1,16
362,6134.0,0.4,-0.9,-2.3000000000000003,-0.4,6.0,4.6000000000000005,32.7,10.299999999999999,-23.800000000000004,16
363,6151.0,-0.2,-0.7000000000000001,-2.3000000000000003,-0.7000000000000001,6.0,4.5,32.2,-3.1,-24.900000000000002,16
364,6168.0,-0.6000000000000001,-0.6000000000000001,-2.7,-1.1,6.2,4.0,31.2,-26.9,-21.6,16
365,6184.0,-1.1,-0.6000000000000001,-3.1,-1.6,6.300000000000001,3.5,30.799999999999997,-31.9,-17.1,16
366,6201.0,-1.3,-0.7000000000000001,-3.3000000000000003,-1.7000000000000002,6.2,3.3000000000000003,26.000000000000004,-36.1,-0.4,16
367,6218.0,-1.6,-0.7000000000000001,-2.8000000000000003,-1.9000000000000001,6.2,3.8000000000000003,10.1,-44.8,14.600000000000001,16
368,6238.0,-1.4000000000000001,-0.6000000000000001,-1.3,-1.5,6.4,5.2,7.6,-52.2,22.8,16
369,6252.0,-1.7000000000000002,-0.6000000000000001,-0.9,-1.8,6.4,5.6000000000000005,15.100000000000001,-63.0,26.5,16
370,6268.0,-2.0,-0.2,-0.5,-1.8,6.800000000000001,5.9,31.6,-89.10000000000001,36.0,16
371,6284.0,-2.3000000000000003,-0.1,-1.1,-1.9000000000000001,7.0,5.2,39.300000000000004,-106.80000000000001,46.800000000000004,16
372,6301.0,-2.4000000000000004,-0.1,-1.1,-1.8,7.0,5.1000000000000005,36.9,-107.9,54.199999999999996,16
373,6319.0,-2.3000000000000003,-0.30000000000000004,-0.2,-1.3,6.9,5.9,34.300000000000004,-105.7,69.5,16
374,6334.0,-1.6,-0.1,-0.4,-0.2,7.1000000000000005,5.5,39.1,-100.70000000000002,80.10000000000001,16
375,6351.0,-1.2000000000000002,0.7000000000000001,-2.0,0.6000000000000001,7.9,3.8000000000000003,34.900000000000006,-97.2,78.9,16
376,6368.0,-1.0,0.9,-2.8000000000000003,1.0,8.200000000000001,3.0,-5.300000000000001,-84.0,79.00000000000001,16
377,6384.0,-1.1,0.5,-2.0,1.2000000000000002,7.5,3.9000000000000004,-84.5,-70.3,89.30000000000001,16
378,6401.0,-0.8,-0.2,0.9,1.8,6.5,7.0,-127.80000000000001,-57.3,108.8,16
379,6421.0,-0.7000000000000001,-1.3,2.2,2.3000000000000003,5.0,8.5,-114.2,-55.7,125.50000000000001,16
380,6434.0,-0.8,-1.7000000000000002,2.3000000000000003,2.5,4.4,8.8,-92.90000000000002,-60.300000000000004,130.3,16
381,6451.0,-0.9,-2.1,1.8,2.8000000000000003,3.8000000000000003,8.3,-34.1,-82.39999999999999,139.60000000000002,16
382,6468.0,-0.9,-2.3000000000000003,1.1,3.1,3.4000000000000004,7.5,-1.4,-94.10000000000001,140.20000000000002,16
383,6484.0,-0.7000000000000001,-1.7000000000000002,-1.0,3.7,3.9000000000000004,5.2,45.5,-114.2,143.70000000000002,16
384,6501.0,-1.1,-1.6,-2.7,3.9000000000000004,3.8000000000000003,3.2,44.10000000000001,-140.6,140.9,16
385,6519.0,-2.1,-1.8,-2.4000000000000004,3.4000000000000004,3.4000000000000004,3.1,19.6,-155.70000000000002,152.3,16
386,6535.0,-2.6,-2.3000000000000003,-1.8,3.3000000000000003,2.7,3.5,10.0,-151.6,171.39999999999998,16
387,6551.0,-1.3,-2.9000000000000004,-0.6000000000000001,5.1000000000000005,1.7000000000000002,4.5,6.500000000000001,-119.0,225.4,16
388,6568.0,1.2000000000000002,-2.2,0.0,8.1,1.9000000000000001,4.800000000000001,13.3,-56.2,264.2,16
389,6584.0,2.7,-2.5,0.1,9.8,1.2000000000000002,4.9,17.0,-22.1,263.1,16
390,6601.0,3.2,-3.2,0.2,10.5,-0.1,5.0,31.099999999999998,27.0,225.4,16
391,6621.0,2.3000000000000003,-1.6,-1.2000000000000002,9.8,1.2000000000000002,3.7,55.60000000000001,19.6,157.9,16
392,6634.0,1.1,-1.2000000000000002,-1.9000000000000001,8.700000000000001,1.4000000000000001,2.9000000000000004,68.3,1.8000000000000003,123.9,16
393,6651.0,-1.4000000000000001,-0.6000000000000001,-2.8000000000000003,6.300000000000001,1.9000000000000001,1.8,74.89999999999999,-25.6,100.6,16
394,6668.0,-2.3000000000000003,-1.7000000000000002,-3.7,5.6000000000000005,0.5,0.8,46.6,-38.300000000000004,127.3,16
395,6684.0,-1.6,-2.5,-3.5,6.300000000000001,-0.5,1.0,28.500000000000004,-38.0,141.1,16
396,6701.0,-0.30000000000000004,-2.6,-2.8000000000000003,7.7,-0.9,1.5,4.7,-33.7,148.8,16
397,6725.0,0.2,-3.0,-2.9000000000000004,8.4,-2.0,1.2000000000000002,-9.100000000000001,-48.0,134.4,16
398,6735.0,0.30000000000000004,-3.6,-3.1,8.4,-2.0,1.2000000000000002,-9.100000000000001,-48.0,134.4,16
399,6751.0,0.5,-4.1000000000000005,-3.0,8.9,-3.5,0.9,-27.800000000000004,-72.50000000000001,111.0,16
400,6767.0,0.4,-4.7,-2.7,8.9,-4.5,0.9,-61.50000000000001,-109.50000000000001,85.0,16
401,6784.0,0.1,-5.2,-2.4000000000000004,8.5,-5.7,1.2000000000000002,-103.8,-154.9,70.0,16
402,6801.0,-0.1,-5.800000000000001,-1.4000000000000001,8.6,-6.1000000000000005,1.5,-123.8,-178.0,69.10000000000001,16
403,6818.0,0.8,-7.1000000000000005,-0.5,9.700000000000001,-7.9,1.8,-153.89999999999998,-210.7,81.3,16
404,6834.0,2.7,-9.200000000000001,0.1,11.8,-10.4,1.6,-184.7,-211.60000000000002,96.80000000000001,16
405,6851.0,3.5,-10.100000000000001,0.6000000000000001,12.600000000000001,-11.600000000000001,1.8,-202.49999999999997,-194.5,104.60000000000001,16
406,6867.0,4.7,-11.600000000000001,2.5,13.8,-13.600000000000001,3.1,-226.6,-133.3,123.6,16
407,6884.0,4.0,-10.8,6.300000000000001,13.100000000000001,-13.4,6.6000000000000005,-201.2,-29.700000000000006,147.2,16
408,6901.0,3.0,-8.8,7.7,11.4,-10.600000000000001,8.4,-167.60000000000002,19.799999999999997,165.4,16
409,6918.0,2.9000000000000004,-6.7,7.7,11.700000000000001,-10.200000000000001,8.1,-80.50000000000001,76.0,204.3,16
410,6934.0,4.2,-5.2,6.2,12.700000000000001,-9.4,6.800000000000001,-2.3,58.900000000000006,218.7,16
411,6951.0,4.800000000000001,-3.2,4.4,13.0,-8.1,5.1000000000000005,54.800000000000004,-10.600000000000001,208.3,16
412,6968.0,4.9,-2.4000000000000004,3.4000000000000004,12.9,-7.5,4.2,76.3,-43.900000000000006,198.50000000000003,16
413,6984.0,4.7,-1.2000000000000002,1.3,12.5,-6.800000000000001,2.1,96.9,-79.39999999999999,170.9,16
414,7001.0,4.4,-0.6000000000000001,0.5,11.700000000000001,-6.0,0.6000000000000001,94.6,-80.2,156.6,16
415,7018.0,3.8000000000000003,0.4,-0.8,11.200000000000001,-5.7,0.0,70.4,-54.699999999999996,133.9,16
416,7035.0,3.0,1.5,-1.5,10.200000000000001,-4.9,-0.7000000000000001,26.400000000000006,-14.0,118.80000000000003,16
417,7051.0,2.3000000000000003,2.3000000000000003,-1.2000000000000002,9.3,-4.3,-0.4,-20.1,25.0,111.80000000000001,16
418,7067.0,2.1,2.6,-0.9,8.9,-4.2,-0.1,-38.7,39.8,109.30000000000001,16
419,7084.0,1.7000000000000002,2.9000000000000004,-0.1,8.3,-4.1000000000000005,0.7000000000000001,-64.0,50.5,102.7,16
420,7101.0,1.5,3.4000000000000004,0.7000000000000001,7.9,-3.8000000000000003,1.3,-71.9,37.2,92.60000000000001,16
421,7117.0,1.5,3.7,0.9,7.7,-3.6,1.5,-70.7,27.0,86.60000000000001,16
422,7134.0,1.6,4.0,0.9,7.7,-3.5,1.4000000000000001,-63.10000000000001,10.200000000000001,73.8,16
423,7151.0,2.0,4.0,0.6000000000000001,7.9,-3.6,1.0,-59.20000000000001,6.600000000000001,65.89999999999999,16
424,7168.0,2.2,4.1000000000000005,0.4,8.0,-3.6,0.6000000000000001,-62.800000000000004,19.9,60.900000000000006,16
425,7184.0,2.3000000000000003,4.2,0.2,8.0,-3.5,0.4,-67.7,30.3,58.3,16
426,7201.0,2.4000000000000004,4.0,0.30000000000000004,8.0,-3.8000000000000003,0.4,-82.7,50.3,52.80000000000001,16
427,7218.0,2.7,3.8000000000000003,0.5,8.200000000000001,-4.1000000000000005,0.5,-96.60000000000001,63.0,50.60000000000001,16
428,7234.0,3.0,3.8000000000000003,0.9,8.5,-4.1000000000000005,0.8,-101.50000000000001,66.3,51.800000000000004,16
429,7251.0,4.2,3.3000000000000003,1.9000000000000001,9.5,-4.6000000000000005,1.6,-101.4,64.10000000000001,54.800000000000004,16
430,7268.0,5.800000000000001,2.5,2.0,11.100000000000001,-5.5,1.6,-85.69999999999999,63.500000000000014,49.1,16
431,7284.0,6.7,2.3000000000000003,1.9000000000000001,11.9,-5.7,1.4000000000000001,-74.80000000000001,66.5,39.0,16
432,7302.0,6.5,3.4000000000000004,1.2000000000000002,11.8,-4.6000000000000005,0.8,-55.0,78.60000000000001,12.7,16
433,7318.0,5.9,3.9000000000000004,0.6000000000000001,11.200000000000001,-4.1000000000000005,0.1,-48.300000000000004,89.6,-7.699999999999999,16
434,7335.0,5.5,4.0,0.4,10.9,-3.9000000000000004,-0.1,-50.2,93.10000000000001,-14.0,16
435,7351.0,5.300000000000001,3.8000000000000003,0.7000000000000001,10.700000000000001,-4.1000000000000005,0.30000000000000004,-55.2,91.7,-18.900000000000002,16
436,7368.0,5.2,3.6,1.6,10.700000000000001,-4.2,1.2000000000000002,-45.7,74.0,-15.8,16
437,7384.0,5.4,4.0,2.6,11.0,-3.8000000000000003,2.3000000000000003,-11.1,33.400000000000006,-4.1,16
438,7401.0,5.800000000000001,4.0,2.8000000000000003,11.5,-3.8000000000000003,2.6,13.399999999999999,4.6,3.1,16
439,7418.0,7.1000000000000005,3.6,2.9000000000000004,12.8,-4.1000000000000005,2.7,66.5,-61.8,2.4000000000000004,16
440,7434.0,8.1,3.1,2.3000000000000003,13.8,-4.6000000000000005,2.2,107.8,-121.30000000000001,-19.9,16
441,7452.0,8.3,2.7,1.8,14.100000000000001,-4.9,1.7000000000000002,122.69999999999999,-140.9,-34.50000000000001,16
442,7468.0,8.4,2.2,0.8,14.4,-5.300000000000001,0.7000000000000001,140.4,-153.60000000000002,-66.80000000000001,16
443,7485.0,8.1,1.1,-0.30000000000000004,14.5,-6.1000000000000005,-0.30000000000000004,137.70000000000002,-150.3,-105.0,16
444,7501.0,7.7,0.6000000000000001,-0.6000000000000001,14.200000000000001,-6.5,-0.6000000000000001,127.80000000000001,-146.60000000000002,-124.7,16
445,7518.0,6.6000000000000005,-0.30000000000000004,-0.7000000000000001,13.600000000000001,-7.1000000000000005,-0.8,96.7,-140.6,-155.1,16
446,7534.0,5.7,-1.3,0.2,13.100000000000001,-7.7,0.0,64.2,-133.10000000000002,-172.2,16
447,7551.0,5.1000000000000005,-2.4000000000000004,1.4000000000000001,12.9,-8.3,0.9,43.4,-124.10000000000001,-185.80000000000004,16
448,7567.0,4.6000000000000005,-2.6,2.0,12.600000000000001,-8.3,1.3,37.7,-118.90000000000002,-195.1,16
449,7584.0,3.6,-3.5,2.4000000000000004,12.0,-8.6,1.6,33.0,-106.60000000000001,-214.70000000000002,16
450,7610.0,2.8000000000000003,-4.6000000000000005,2.4000000000000004,11.600000000000001,-9.200000000000001,1.3,34.50000000000001,-86.89999999999999,-231.8,16
451,7619.0,2.1,-4.9,2.2,11.100000000000001,-9.1,1.1,35.5,-76.2,-236.20000000000002,16
452,7634.0,1.0,-5.5,1.8,10.200000000000001,-9.0,0.5,32.1,-57.00000000000001,-239.4,16
453,7651.0,0.0,-6.0,1.5,9.5,-8.8,0.1,20.5,-44.9,-238.79999999999998,16
454,7668.0,-0.30000000000000004,-6.2,1.4000000000000001,9.3,-8.700000000000001,0.0,13.100000000000001,-39.599999999999994,-236.6,16
455,7684.0,-0.9,-6.7,1.2000000000000002,8.9,-8.4,-0.30000000000000004,0.4,-24.8,-228.4,16
456,7701.0,-1.4000000000000001,-7.2,1.0,8.4,-8.3,-0.5,-11.4,-9.700000000000001,-218.50000000000003,16
457,7717.0,-1.6,-7.6000000000000005,1.1,8.1,-8.3,-0.4,-18.5,-4.300000000000001,-213.3,16
458,7734.0,-2.0,-8.1,1.4000000000000001,7.9,-8.200000000000001,-0.1,-29.800000000000004,1.9,-199.70000000000002,16
459,7751.0,-2.1,-8.5,1.9000000000000001,7.7,-8.0,0.4,-30.1,3.9,-182.8,16
460,7768.0,-2.1,-8.9,2.3000000000000003,7.7,-7.800000000000001,0.8,-18.200000000000003,-1.7,-167.3,16
461,7784.0,-2.0,-9.0,2.3000000000000003,7.7,-7.800000000000001,0.9,-10.4,-6.1000000000000005,-161.3,16
462,7801.0,-2.2,-9.3,2.1,7.4,-7.6000000000000005,0.6000000000000001,3.7000000000000006,-13.399999999999999,-152.6,16
463,7817.0,-2.9000000000000004,-9.3,1.6,6.6000000000000005,-7.2,0.0,12.200000000000001,-10.200000000000001,-143.3,16
464,7834.0,-3.0,-9.600000000000001,1.2000000000000002,6.4,-7.300000000000001,-0.30000000000000004,13.200000000000003,-4.2,-138.40000000000003,16
465,7851.0,-3.2,-10.600000000000001,0.4,6.1000000000000005,-8.0,-1.1,7.6,13.8,-129.60000000000002,16
466,7868.0,-3.9000000000000004,-11.100000000000001,-0.2,5.2,-8.200000000000001,-1.6,-8.5,35.1,-117.30000000000001,16
467,7884.0,-4.7,-10.9,-0.4,4.4,-7.800000000000001,-1.7000000000000002,-17.1,48.400000000000006,-106.80000000000001,16
468,7905.0,-6.9,-9.0,-0.4,2.1,-5.800000000000001,-1.3,-29.200000000000003,85.4,-45.5,16
469,7918.0,-6.9,-8.5,-0.6000000000000001,2.0,-5.300000000000001,-1.4000000000000001,-27.400000000000002,91.8,-18.8,16
470,7935.0,-6.6000000000000005,-8.3,-1.1,2.7,-5.1000000000000005,-2.3000000000000003,-25.5,94.7,7.699999999999999,16
471,7951.0,-6.0,-7.9,-2.3000000000000003,2.9000000000000004,-4.9,-2.6,-31.799999999999997,85.69999999999999,49.50000000000001,16
472,7968.0,-6.0,-7.2,-2.5,2.9000000000000004,-4.5,-2.6,-51.2,54.199999999999996,82.3,16
473,7986.0,-5.6000000000000005,-7.0,-2.2,3.4000000000000004,-4.7,-2.2,-70.8,10.200000000000001,123.00000000000001,16
474,8001.0,-5.0,-7.1000000000000005,-2.0,4.0,-5.0,-2.0,-77.7,-9.3,145.4,16
475,8019.0,-3.6,-7.4,-1.6,5.5,-5.9,-1.7000000000000002,-86.89999999999999,-34.900000000000006,186.99999999999997,16
476,8034.0,-2.4000000000000004,-7.5,-1.3,6.800000000000001,-6.800000000000001,-1.5,-95.0,-43.900000000000006,219.9,16
477,8051.0,-1.8,-7.5,-1.0,7.4,-7.1000000000000005,-1.3,-99.30000000000001,-42.7,232.9,16
478,8067.0,-0.8,-6.9,0.0,8.3,-7.4,-0.4,-104.9,-38.2,251.70000000000002,16
479,8084.0,0.2,-6.2,0.7000000000000001,9.3,-7.5,0.2,-100.9,-30.799999999999997,265.90000000000003,16
480,8101.0,0.7000000000000001,-5.9,0.9,9.700000000000001,-7.7,0.30000000000000004,-96.1,-23.5,270.8,16
481,8117.0,2.0,-5.4,1.3,10.8,-8.0,0.7000000000000001,-83.60000000000001,-10.1,274.3,16
482,8134.0,3.1,-4.7,1.4000000000000001,11.700000000000001,-8.200000000000001,0.7000000000000001,-66.3,-5.6,271.5,16
483,8151.0,4.0,-3.5,1.4000000000000001,12.200000000000001,-7.800000000000001,0.6000000000000001,-47.3,-13.000000000000002,267.1,16
484,8168.0,4.4,-2.9000000000000004,1.3,12.4,-7.6000000000000005,0.4,-39.0,-20.900000000000002,264.1,16
485,8184.0,5.300000000000001,-1.8,0.9,12.9,-7.2,-0.1,-29.0,-35.699999999999996,257.9,16
486,8201.0,6.300000000000001,-0.8,1.1,13.5,-6.800000000000001,-0.1,-28.900000000000002,-42.400000000000006,248.4,16
487,8218.0,6.7,-0.30000000000000004,1.4000000000000001,13.600000000000001,-6.5,0.1,-29.800000000000004,-42.7,241.4,16
488,8235.0,7.6000000000000005,0.7000000000000001,1.8,14.0,-6.1000000000000005,0.5,-29.600000000000005,-33.2,224.9,16
489,8251.0,8.8,1.3,2.2,14.8,-5.9,0.8,-24.900000000000002,-10.9,202.0,16
490,8268.0,9.5,1.5,2.3000000000000003,15.3,-5.9,0.8,-19.9,0.5,186.99999999999997,16
491,8287.0,10.3,1.7000000000000002,2.0,15.8,-6.0,0.5,-9.600000000000001,17.1,149.4,16
492,8301.0,10.3,2.4000000000000004,1.4000000000000001,15.5,-5.5,0.0,-2.9,29.800000000000004,113.1,16
493,8318.0,10.100000000000001,2.6,1.1,15.0,-5.0,-0.5,-6.4,47.5,86.5,16
494,8334.0,9.8,3.1,0.6000000000000001,14.9,-4.9,-0.6000000000000001,-10.9,58.60000000000001,75.8,16
495,8351.0,10.0,3.0,0.30000000000000004,15.0,-5.2,-0.9,-23.099999999999998,78.60000000000001,58.400000000000006,16
496,8368.0,9.8,3.5,0.8,14.8,-4.7,-0.4,-27.400000000000002,86.7,47.80000000000001,16
497,8384.0,9.5,4.3,0.9,14.5,-3.9000000000000004,-0.2,-21.900000000000002,84.4,45.400000000000006,16
498,8401.0,9.200000000000001,6.1000000000000005,0.7000000000000001,14.200000000000001,-2.1,-0.30000000000000004,-2.2,71.8,34.800000000000004,16
499,8418.0,9.0,7.1000000000000005,-0.1,14.0,-1.1,-1.0,12.0,58.800000000000004,5.0,16
500,8435.0,8.700000000000001,7.2,-0.4,13.8,-1.0,-1.2000000000000002,12.299999999999999,50.5,-16.1,16
501,8451.0,7.7,6.9,-0.6000000000000001,13.0,-1.1,-1.3,4.7,30.4,-57.3,16
502,8468.0,6.6000000000000005,6.1000000000000005,0.1,12.200000000000001,-1.7000000000000002,-0.6000000000000001,-0.5,9.8,-86.89999999999999,16
503,8484.0,6.1000000000000005,5.4,0.5,11.9,-2.3000000000000003,-0.1,0.6000000000000001,-1.9,-99.9,16
504,8501.0,5.5,4.1000000000000005,1.1,11.600000000000001,-3.3000000000000003,0.4,8.2,-25.8,-124.3,16
505,8518.0,5.1000000000000005,2.8000000000000003,0.8,11.5,-4.3,0.0,15.2,-30.4,-140.8,16
506,8534.0,4.9,2.1,0.8,11.5,-5.2,0.30000000000000004,15.8,-26.5,-145.8,16
507,8551.0,4.5,1.0,1.3,11.600000000000001,-5.6000000000000005,0.5,17.799999999999997,-23.2,-151.20000000000002,16
508,8567.0,4.0,-0.1,2.1,11.4,-6.2,1.4000000000000001,28.900000000000002,-27.2,-156.20000000000002,16
509,8584.0,3.1,-0.7000000000000001,3.4000000000000004,10.9,-6.5,2.6,55.900000000000006,-50.2,-166.20000000000002,16
510,8601.0,2.7,-0.9,3.6,10.600000000000001,-6.4,2.9000000000000004,76.3,-67.9,-172.00000000000003,16
511,8617.0,2.0,-1.5,2.6,10.200000000000001,-6.6000000000000005,1.8,117.80000000000001,-90.6,-181.70000000000002,16
512,8634.0,1.4000000000000001,-2.3000000000000003,1.2000000000000002,9.9,-6.9,0.5,136.6,-87.10000000000001,-189.70000000000002,16
513,8651.0,1.2000000000000002,-2.8000000000000003,0.8,9.9,-7.1000000000000005,0.0,136.8,-83.5,-191.39999999999998,16
514,8667.0,0.8,-3.6,-0.1,9.8,-7.5,-0.9,128.3,-73.4,-193.8,16
515,8684.0,0.30000000000000004,-4.4,-0.30000000000000004,9.4,-7.7,-1.2000000000000002,107.00000000000001,-70.9,-196.6,16
516,8701.0,-0.1,-4.7,-0.2,9.0,-7.7,-1.1,94.4,-72.7,-197.20000000000002,16
517,8717.0,-0.4,-5.300000000000001,-0.1,9.0,-7.800000000000001,-1.2000000000000002,71.10000000000001,-76.3,-191.30000000000004,16
518,8734.0,-0.30000000000000004,-5.9,0.0,9.200000000000001,-7.9,-1.4000000000000001,46.800000000000004,-74.2,-179.30000000000004,16
519,8751.0,-0.1,-6.4,0.30000000000000004,9.4,-7.9,-1.3,19.799999999999997,-66.9,-171.39999999999998,16
520,8767.0,-0.1,-6.800000000000001,0.5,9.5,-8.0,-1.1,6.4,-64.0,-169.70000000000002,16
521,8784.0,-0.1,-7.800000000000001,1.2000000000000002,9.5,-8.4,-0.7000000000000001,-18.700000000000003,-61.199999999999996,-169.70000000000002,16
522,8801.0,-0.7000000000000001,-8.3,2.0,8.9,-8.5,0.0,-35.1,-57.00000000000001,-168.4,16
523,8819.0,-1.1,-8.6,2.5,8.5,-8.5,0.4,-40.0,-52.00000000000001,-166.00000000000003,16
524,8837.0,-2.1,-8.8,3.0,7.5,-8.3,0.8,-43.800000000000004,-34.1,-157.1,16
525,8851.0,-2.9000000000000004,-9.1,3.1,6.5,-8.1,0.9,-37.50000000000001,-2.9,-140.20000000000002,16
526,8868.0,-3.0,-9.5,3.0,6.4,-8.4,0.8,-29.700000000000006,14.300000000000002,-128.1,16
527,8885.0,-3.6,-9.700000000000001,2.2,5.800000000000001,-8.3,0.2,-15.000000000000002,44.8,-101.20000000000002,16
528,8901.0,-4.800000000000001,-9.0,1.6,4.5,-7.300000000000001,-0.2,-9.700000000000001,67.4,-71.0,16
529,8918.0,-5.6000000000000005,-8.3,1.3,3.0,-5.9,-0.4,-9.4,77.00000000000001,-52.60000000000001,16
530,8934.0,-6.6000000000000005,-7.0,1.0,2.7,-5.4,-0.4,-11.000000000000002,91.8,-6.1000000000000005,16
531,8951.0,-6.1000000000000005,-6.7,0.6000000000000001,3.2,-5.1000000000000005,-0.4,-10.200000000000001,101.7,46.50000000000001,16
532,8968.0,-5.1000000000000005,-6.2,0.1,4.2,-5.0,-0.6000000000000001,-0.5,98.7,87.2,16
533,8984.0,-4.6000000000000005,-6.0,-0.2,4.7,-5.0,-0.8,5.300000000000001,91.7,100.70000000000002,16
534,9001.0,-3.7,-5.6000000000000005,-0.8,5.6000000000000005,-5.0,-1.1,15.5,64.60000000000001,117.7,16
535,9017.0,-3.1,-5.2,-1.5,6.2,-5.0,-1.7000000000000002,21.500000000000004,29.0,130.1,16
536,9034.0,-3.0,-4.800000000000001,-1.8,6.300000000000001,-4.9,-2.1,21.900000000000002,13.700000000000001,136.0,16
537,9051.0,-3.1,-4.0,-2.5,6.2,-4.5,-2.8000000000000003,11.4,-5.4,147.5,16
538,9067.0,-3.2,-3.2,-2.7,6.0,-4.3,-3.0,-16.1,-9.8,161.8,16
539,9084.0,-3.1,-2.9000000000000004,-2.5,6.0,-4.3,-2.8000000000000003,-33.400000000000006,-7.9,170.9,16
540,9101.0,-2.6,-2.6,-1.6,6.4,-4.5,-2.0,-64.7,1.9,191.30000000000004,16
541,9118.0,-1.7000000000000002,-2.5,-0.7000000000000001,7.2,-5.1000000000000005,-1.1,-83.4,15.399999999999999,208.8,16
542,9135.0,-1.2000000000000002,-2.3000000000000003,-0.30000000000000004,7.6000000000000005,-5.300000000000001,-0.7000000000000001,-87.80000000000001,21.400000000000002,213.8,16
543,9151.0,0.0,-2.0,0.5,8.5,-5.6000000000000005,0.0,-86.5,26.9,216.5,16
544,9168.0,1.0,-1.6,0.6000000000000001,9.200000000000001,-5.800000000000001,0.1,-78.7,21.400000000000002,211.0,16
545,9184.0,1.8,-1.3,0.7000000000000001,9.700000000000001,-6.1000000000000005,0.2,-72.60000000000001,15.399999999999999,206.4,16
546,9201.0,2.2,-1.2000000000000002,0.9,10.0,-6.2,0.30000000000000004,-69.7,11.5,206.10000000000002,16
547,9217.0,3.3000000000000003,-1.0,1.0,10.700000000000001,-6.6000000000000005,0.30000000000000004,-61.599999999999994,2.9,209.5,16
548,9234.0,4.5,-0.5,1.3,11.5,-6.6000000000000005,0.5,-51.70000000000001,-4.300000000000001,212.60000000000002,16
549,9251.0,5.1000000000000005,-0.1,1.5,12.0,-6.5,0.6000000000000001,-45.8,-8.100000000000001,211.60000000000002,16
550,9268.0,6.9,0.4,1.1,13.3,-6.4,0.2,-32.6,-12.600000000000001,203.00000000000003,16
551,9284.0,8.6,0.7000000000000001,0.2,14.600000000000001,-6.4,-0.8,-25.4,-11.700000000000001,182.20000000000002,16
552,9301.0,9.200000000000001,0.9,-0.2,15.3,-6.1000000000000005,-1.5,-27.800000000000004,-8.4,170.30000000000004,16
553,9317.0,9.700000000000001,2.1,-0.30000000000000004,15.200000000000001,-5.5,-1.4000000000000001,-44.10000000000001,3.4,149.20000000000002,16
554,9334.0,10.5,3.4000000000000004,0.5,15.8,-4.5,-0.8,-60.300000000000004,18.3,135.0,16
555,9351.0,12.3,3.9000000000000004,1.2000000000000002,17.3,-4.0,-0.2,-60.1,32.2,112.60000000000001,16
556,9367.0,13.3,4.0,1.7000000000000002,18.3,-4.0,0.30000000000000004,-50.5,35.1,93.4,16
557,9384.0,13.600000000000001,4.800000000000001,2.2,18.5,-3.3000000000000003,0.8,-6.300000000000001,31.5,43.1,16
558,9401.0,12.0,5.6000000000000005,1.3,17.1,-2.4000000000000004,0.1,57.800000000000004,15.6,-11.6,16
559,9418.0,10.9,5.5,0.7000000000000001,16.1,-2.5,-0.4,87.40000000000002,0.8,-40.2,16
560,9434.0,9.200000000000001,4.4,-0.7000000000000001,14.700000000000001,-3.5,-1.6,121.80000000000001,-43.300000000000004,-87.60000000000001,16
561,9451.0,6.9,4.0,-1.9000000000000001,12.700000000000001,-3.6,-2.5,129.8,-77.00000000000001,-114.00000000000001,16
562,9468.0,6.0,4.0,-2.1,12.0,-3.5,-2.7,127.3,-84.9,-118.40000000000002,16
563,9484.0,5.300000000000001,2.9000000000000004,-2.4000000000000004,11.600000000000001,-4.4,-3.0,105.0,-95.0,-128.3,16
564,9501.0,4.7,2.0,-1.8,11.3,-5.0,-2.3000000000000003,71.8,-98.10000000000001,-142.7,16
565,9517.0,4.3,1.5,-1.2000000000000002,11.0,-5.5,-1.5,60.7,-98.2,-148.3,16
566,9534.0,3.6,0.8,-0.5,10.8,-5.7,-1.2000000000000002,51.0,-98.60000000000001,-154.2,16
567,9551.0,3.0,0.4,-0.2,10.5,-5.6000000000000005,-1.1,48.400000000000006,-104.10000000000001,-156.3,16
568,9568.0,2.7,-0.1,-0.30000000000000004,10.5,-5.7,-1.4000000000000001,39.50000000000001,-107.30000000000001,-160.20000000000002,16
569,9584.0,2.4000000000000004,-0.30000000000000004,-0.2,10.3,-5.7,-1.4000000000000001,30.699999999999996,-106.9,-163.5,16
570,9601.0,1.7000000000000002,-0.9,0.5,9.9,-5.9,-0.9,12.200000000000001,-104.9,-170.50000000000003,16
571,9617.0,1.1,-1.5,1.3,9.600000000000001,-6.0,-0.4,0.9000000000000001,-100.6,-175.10000000000002,16
572,9634.0,1.0,-1.9000000000000001,1.6,9.5,-6.1000000000000005,-0.30000000000000004,-1.3,-97.40000000000002,-176.9,16
573,9651.0,0.5,-2.7,2.2,9.3,-6.5,0.0,-1.3,-89.8,-180.0,16
574,9667.0,0.2,-3.5,2.4000000000000004,9.1,-6.7,0.0,0.8,-83.10000000000001,-181.9,16
575,9684.0,0.1,-3.9000000000000004,2.4000000000000004,9.0,-6.9,-0.1,1.8000000000000003,-80.30000000000001,-182.5,16
576,9701.0,-0.30000000000000004,-4.7,2.4000000000000004,8.8,-7.1000000000000005,-0.30000000000000004,0.7,-76.89999999999999,-181.8,16
577,9717.0,-0.8,-5.300000000000001,2.4000000000000004,8.3,-7.2,-0.5,-3.0,-71.10000000000001,-176.9,16
578,9735.0,-1.2000000000000002,-5.7,2.6,7.9,-7.1000000000000005,-0.5,-9.4,-61.50000000000001,-165.7,16
579,9751.0,-1.2000000000000002,-6.1000000000000005,2.6,8.0,-7.2,-0.6000000000000001,-13.000000000000002,-56.0,-159.0,16
580,9767.0,-1.3,-6.5,2.7,7.9,-7.300000000000001,-0.7000000000000001,-19.799999999999997,-43.2,-145.7,16
581,9784.0,-1.4000000000000001,-6.9,2.5,7.7,-7.2,-0.9,-28.800000000000004,-28.1,-134.9,16
582,9801.0,-1.7000000000000002,-7.0,2.4000000000000004,7.4,-7.1000000000000005,-1.1,-35.2,-18.900000000000002,-130.3,16
583,9817.0,-2.4000000000000004,-7.1000000000000005,2.2,6.7,-6.9,-1.2000000000000002,-53.599999999999994,3.1,-120.2,16
584,9834.0,-3.4000000000000004,-7.2,2.6,5.7,-6.6000000000000005,-0.7000000000000001,-73.9,25.4,-105.5,16
585,9851.0,-3.6,-7.4,2.8000000000000003,5.5,-6.6000000000000005,-0.4,-80.2,35.699999999999996,-95.60000000000002,16
586,9868.0,-3.5,-8.4,2.9000000000000004,5.5,-7.300000000000001,-0.1,-79.6,54.300000000000004,-72.7,16
587,9884.0,-4.5,-8.3,2.4000000000000004,4.6000000000000005,-7.1000000000000005,-0.4,-75.00000000000001,69.4,-45.099999999999994,16
588,9901.0,-5.0,-8.0,2.1,3.5,-6.300000000000001,-0.5,-75.2,77.3,-29.800000000000004,16
589,9917.0,-6.0,-7.300000000000001,1.7000000000000002,3.1,-6.0,-0.6000000000000001,-80.0,91.7,3.3000000000000007,16
590,9934.0,-6.0,-7.300000000000001,1.2000000000000002,3.1,-6.2,-0.7000000000000001,-86.3,105.10000000000001,39.8,16
591,9951.0,-5.4,-7.4,0.4,3.7,-6.5,-1.2000000000000002,-82.8,114.50000000000001,74.4,16
592,9968.0,-5.300000000000001,-7.1000000000000005,-0.1,3.9000000000000004,-6.300000000000001,-1.5,-80.10000000000001,112.80000000000001,88.60000000000001,16
593,9984.0,-4.800000000000001,-6.4,-1.0,4.4,-6.0,-2.0,-80.2,99.10000000000001,115.9,16
594,10002.0,-3.8000000000000003,-6.0,-1.4000000000000001,5.4,-6.0,-2.2,-90.30000000000001,68.80000000000001,140.8,16
595,10017.0,-3.3000000000000003,-5.7,-1.4000000000000001,5.9,-6.0,-2.1,-97.00000000000001,53.0,151.9,16
596,10035.0,-2.3000000000000003,-5.4,-1.1,6.800000000000001,-6.2,-1.7000000000000002,-106.5,27.9,170.8,16
597,10051.0,-1.6,-5.0,-0.4,7.5,-6.300000000000001,-1.0,-108.8,12.600000000000001,183.6,16
598,10067.0,-1.3,-4.7,0.0,7.7,-6.4,-0.7000000000000001,-107.19999999999999,6.600000000000001,188.9,16
599,10084.0,-0.7000000000000001,-4.0,0.5,8.200000000000001,-6.300000000000001,-0.30000000000000004,-96.9,-1.0,200.9,16
600,10101.0,0.1,-3.2,0.5,8.700000000000001,-6.1000000000000005,-0.30000000000000004,-82.7,1.2000000000000002,215.5,16
601,10117.0,1.1,-2.6,0.6000000000000001,9.5,-6.2,-0.2,-77.4,3.8,221.40000000000003,16
602,10138.0,2.5,-2.0,0.9,10.600000000000001,-6.2,0.0,-59.1,2.2,225.90000000000003,16
603,10151.0,3.1,-1.8,1.0,11.100000000000001,-6.300000000000001,0.0,-53.2,-5.500000000000001,220.4,16
604,10167.0,3.7,-0.8,1.3,11.4,-5.9,0.2,-40.800000000000004,-27.3,202.49999999999997,16
605,10184.0,4.0,-0.5,1.4000000000000001,11.5,-5.9,0.30000000000000004,-32.9,-39.300000000000004,195.5,16
606,10201.0,5.1000000000000005,-0.2,1.6,12.3,-6.1000000000000005,0.30000000000000004,-17.799999999999997,-55.7,187.10000000000002,16
607,10217.0,6.0,0.6000000000000001,1.4000000000000001,12.8,-5.7,0.0,2.8,-52.00000000000001,180.2,16
608,10234.0,6.6000000000000005,1.1,1.0,13.3,-5.4,-0.5,9.100000000000001,-43.800000000000004,174.00000000000003,16
609,10251.0,7.6000000000000005,1.8,0.4,14.0,-5.0,-1.2000000000000002,8.700000000000001,-19.799999999999997,150.8,16
610,10267.0,8.200000000000001,2.3000000000000003,-0.2,14.3,-4.7,-1.8,-3.2,2.2,122.69999999999999,16
611,10284.0,8.3,2.5,-0.5,14.100000000000001,-4.5,-2.2,-11.000000000000002,14.600000000000001,110.9,16
612,10301.0,8.3,3.1,-0.8,14.100000000000001,-4.2,-2.3000000000000003,-31.3,36.9,94.6,16
613,10318.0,8.1,3.5,-0.7000000000000001,13.9,-4.0,-2.2,-54.699999999999996,62.199999999999996,84.3,16
614,10335.0,8.5,3.4000000000000004,-0.2,14.600000000000001,-4.3,-1.2000000000000002,-71.6,71.8,70.5,16
615,10351.0,9.4,3.1,1.1,15.0,-4.5,-0.5,-72.0,65.89999999999999,62.300000000000004,16
616,10367.0,9.700000000000001,3.6,2.3000000000000003,15.3,-3.9000000000000004,0.7000000000000001,-46.0,40.4,45.9,16
617,10384.0,9.3,4.9,2.6,14.9,-2.7,1.0,0.8,5.300000000000001,28.0,16
618,10401.0,9.3,5.1000000000000005,2.3000000000000003,14.9,-2.5,0.7000000000000001,21.900000000000002,-14.200000000000001,17.1,16
619,10417.0,9.200000000000001,5.2,1.8,14.9,-2.4000000000000004,0.30000000000000004,53.2,-46.0,-11.4,16
620,10434.0,8.6,5.0,1.2000000000000002,14.4,-2.5,-0.2,75.9,-61.199999999999996,-46.7,16
621,10451.0,7.800000000000001,4.800000000000001,0.9,13.8,-2.6,-0.5,83.60000000000001,-65.10000000000001,-64.7,16
622,10467.0,6.4,4.2,0.30000000000000004,12.5,-3.1,-1.0,86.5,-72.10000000000001,-96.30000000000001,16
623,10484.0,5.7,3.0,0.0,12.100000000000001,-4.0,-1.3,76.80000000000001,-78.80000000000001,-118.10000000000001,16
624,10501.0,5.4,2.5,-0.1,11.9,-4.7,-1.5,70.4,-80.30000000000001,-125.9,16
625,10517.0,4.7,1.8,-0.2,11.700000000000001,-4.800000000000001,-1.5,55.1,-73.10000000000001,-137.4,16
626,10534.0,4.2,1.3,-0.1,11.4,-4.9,-1.5,35.1,-57.3,-145.9,16
627,10551.0,3.6,0.7000000000000001,0.2,11.100000000000001,-5.1000000000000005,-1.3,13.6,-34.400000000000006,-156.10000000000002,16
628,10567.0,3.3000000000000003,0.2,0.6000000000000001,11.0,-5.4,-0.9,3.1,-24.200000000000003,-162.20000000000002,16
629,10584.0,2.6,-0.8,1.6,10.600000000000001,-5.9,0.1,-6.699999999999999,-13.6,-175.60000000000002,16
630,10601.0,2.0,-1.9000000000000001,2.6,10.4,-6.6000000000000005,1.0,1.6,-19.5,-188.10000000000002,16
631,10618.0,1.8,-2.4000000000000004,2.9000000000000004,10.3,-6.800000000000001,1.3,12.0,-27.800000000000004,-193.60000000000002,16
632,10638.0,1.3,-3.4000000000000004,2.8000000000000003,10.100000000000001,-7.2,1.1,38.50000000000001,-46.1,-203.2,16
633,10651.0,0.7000000000000001,-4.4,1.8,9.8,-7.6000000000000005,0.1,52.80000000000001,-53.2,-210.7,16
634,10668.0,0.30000000000000004,-4.7,1.5,9.5,-7.7,-0.30000000000000004,51.300000000000004,-51.9,-213.3,16
635,10684.0,-0.30000000000000004,-5.4,1.0,9.0,-7.800000000000001,-0.8,39.0,-41.50000000000001,-213.20000000000002,16
636,10701.0,-0.9,-6.1000000000000005,1.0,8.6,-7.800000000000001,-0.9,20.599999999999998,-25.6,-206.10000000000002,16
637,10718.0,-1.2000000000000002,-6.800000000000001,1.2000000000000002,8.3,-8.0,-0.8,12.200000000000001,-19.300000000000004,-200.70000000000002,16
638,10734.0,-1.4000000000000001,-7.1000000000000005,1.3,8.200000000000001,-8.0,-0.7000000000000001,0.0,-12.200000000000001,-188.0,16
639,10751.0,-1.6,-7.7,1.5,8.0,-8.0,-0.5,-6.600000000000001,-14.200000000000001,-174.5,16
640,10767.0,-1.7000000000000002,-8.0,1.5,7.9,-7.9,-0.6000000000000001,-11.6,-20.3,-159.5,16
641,10784.0,-1.9000000000000001,-8.1,1.5,7.6000000000000005,-7.7,-0.6000000000000001,-15.299999999999999,-21.0,-152.4,16
642,10801.0,-2.6,-8.1,1.7000000000000002,6.800000000000001,-7.4,-0.4,-25.7,-15.5,-139.9,16
643,10817.0,-3.5,-8.5,1.8,5.800000000000001,-7.4,-0.4,-33.6,3.5,-125.60000000000001,16
644,10834.0,-3.8000000000000003,-8.9,1.7000000000000002,5.5,-7.6000000000000005,-0.30000000000000004,-34.1,15.299999999999999,-115.10000000000002,16
645,10851.0,-4.5,-9.3,1.4000000000000001,4.800000000000001,-7.800000000000001,-0.5,-30.1,34.50000000000001,-88.60000000000001,16
646,10867.0,-5.800000000000001,-8.9,0.9,3.4000000000000004,-7.2,-0.9,-23.5,48.70000000000001,-55.900000000000006,16
647,10884.0,-6.800000000000001,-8.6,0.30000000000000004,2.4000000000000004,-6.9,-1.4000000000000001,-22.9,54.9,-36.5,16
648,10901.0,-8.5,-8.0,-1.2000000000000002,0.7000000000000001,-6.4,-2.7,-34.7,74.30000000000001,9.899999999999999,16
649,10917.0,-9.600000000000001,-7.7,-2.1,-0.5,-6.2,-3.3000000000000003,-64.7,101.20000000000002,68.2,16
650,10937.0,-9.200000000000001,-7.2,-1.7000000000000002,0.0,-6.2,-2.5,-99.30000000000001,112.0,140.5,16
651,10951.0,-7.9,-7.2,-1.2000000000000002,1.3,-6.4,-1.8,-110.5,105.0,175.10000000000002,16
652,10968.0,-4.4,-7.4,-0.1,4.7,-7.300000000000001,-0.4,-115.60000000000001,67.8,219.5,16
653,10984.0,-2.5,-7.4,0.5,8.200000000000001,-8.1,0.6000000000000001,-108.39999999999999,41.199999999999996,228.4,16
654,11001.0,0.1,-6.9,1.2000000000000002,9.200000000000001,-8.0,0.9,-77.60000000000001,-11.4,225.10000000000002,16
655,11017.0,1.1,-6.0,1.3,10.100000000000001,-7.800000000000001,0.9,-35.9,-43.00000000000001,212.1,16
656,11034.0,1.1,-4.5,0.9,10.0,-7.0,0.30000000000000004,1.2000000000000002,-53.599999999999994,201.8,16
657,11051.0,1.0,-3.8000000000000003,0.4,9.8,-6.6000000000000005,-0.30000000000000004,12.9,-52.1,199.20000000000002,16
658,11068.0,1.2000000000000002,-2.6,-0.30000000000000004,9.700000000000001,-6.0,-1.0,18.6,-38.300000000000004,198.3,16
659,11084.0,1.8,-1.5,-0.5,10.100000000000001,-5.5,-1.3,11.900000000000002,-21.400000000000002,197.10000000000002,16
660,11101.0,2.1,-1.0,-0.4,10.3,-5.300000000000001,-1.2000000000000002,8.4,-15.5,193.5,16
661,11118.0,2.5,0.1,-0.30000000000000004,10.3,-4.7,-1.2000000000000002,0.2,-11.6,182.1,16
662,11134.0,3.0,0.7000000000000001,-0.2,10.600000000000001,-4.6000000000000005,-1.1,-8.5,-14.5,167.79999999999998,16
663,11151.0,3.5,1.1,0.0,10.9,-4.6000000000000005,-0.9,-15.2,-18.1,152.8,16
664,11167.0,3.8000000000000003,1.3,0.0,11.0,-4.5,-1.0,-16.8,-16.4,146.60000000000002,16
665,11184.0,4.3,1.6,-0.1,11.3,-4.5,-1.1,-22.5,-1.7,135.20000000000002,16
666,11201.0,4.4,1.8,0.0,11.0,-4.3,-1.0,-32.7,16.8,121.70000000000002,16
667,11218.0,4.3,2.3000000000000003,0.30000000000000004,10.9,-4.2,-0.8,-36.7,25.300000000000004,116.4,16
668,11234.0,4.7,2.2,0.6000000000000001,11.100000000000001,-4.6000000000000005,-0.5,-40.300000000000004,35.2,107.8,16
669,11251.0,5.4,2.0,0.7000000000000001,11.700000000000001,-4.9,-0.4,-35.599999999999994,31.2,103.40000000000002,16
670,11267.0,5.9,2.1,0.7000000000000001,12.100000000000001,-4.9,-0.5,-29.500000000000004,26.400000000000006,102.4,16
671,11284.0,6.800000000000001,2.8000000000000003,0.2,12.8,-4.4,-1.0,-15.100000000000001,15.399999999999999,98.3,16
672,11301.0,8.0,2.9000000000000004,-0.9,13.8,-4.4,-2.1,-9.600000000000001,6.600000000000001,89.8,16
673,11318.0,9.200000000000001,2.9000000000000004,-1.1,14.9,-4.6000000000000005,-2.3000000000000003,-19.700000000000003,-2.6,77.60000000000001,16
674,11334.0,9.4,3.5,-0.7000000000000001,15.0,-4.1000000000000005,-1.9000000000000001,-22.4,-9.5,72.4,16
675,11351.0,9.4,5.300000000000001,0.30000000000000004,14.9,-2.4000000000000004,-1.1,-9.600000000000001,-26.700000000000003,65.8,16
676,11367.0,10.0,6.4,0.6000000000000001,15.4,-1.3,-0.8,12.7,-46.1,45.0,16
677,11384.0,10.3,6.4,0.6000000000000001,15.700000000000001,-1.3,-0.8,18.700000000000003,-56.400000000000006,24.3,16
678,11401.0,10.600000000000001,5.7,0.8,16.1,-1.9000000000000001,-0.7000000000000001,24.3,-70.8,-23.5,16
679,11420.0,10.3,4.5,1.0,16.0,-3.0,-0.5,31.799999999999997,-68.80000000000001,-68.3,16
680,11434.0,9.700000000000001,3.9000000000000004,1.1,15.5,-3.4000000000000004,-0.5,35.8,-64.0,-89.8,16
681,11451.0,7.9,2.8000000000000003,1.1,14.100000000000001,-4.4,-0.4,40.2,-54.300000000000004,-127.40000000000002,16
682,11468.0,6.6000000000000005,1.5,1.2000000000000002,13.200000000000001,-5.300000000000001,-0.30000000000000004,39.599999999999994,-49.6,-153.50000000000003,16
683,11484.0,6.1000000000000005,0.9,1.2000000000000002,12.8,-5.7,-0.4,39.1,-48.50000000000001,-162.50000000000003,16
684,11501.0,5.0,0.0,1.2000000000000002,12.200000000000001,-6.2,-0.4,39.0,-47.3,-175.4,16
685,11517.0,4.2,-0.7000000000000001,1.1,11.700000000000001,-6.5,-0.5,36.8,-45.9,-184.20000000000002,16
686,11534.0,3.3000000000000003,-1.3,1.3,11.200000000000001,-6.6000000000000005,-0.4,31.9,-39.0,-192.70000000000002,16
687,11551.0,2.9000000000000004,-1.6,1.3,11.0,-6.6000000000000005,-0.4,29.300000000000004,-35.5,-197.3,16
688,11567.0,1.9000000000000001,-2.2,1.3,10.3,-6.7,-0.4,25.1,-23.3,-203.9,16
689,11584.0,0.9,-2.8000000000000003,1.6,9.600000000000001,-6.7,0.0,22.700000000000003,-12.9,-207.20000000000002,16
690,11601.0,0.4,-3.1,1.8,9.3,-6.800000000000001,0.1,23.2,-11.000000000000002,-208.00000000000003,16
691,11617.0,0.0,-4.0,1.8,9.1,-7.1000000000000005,0.1,28.3,-12.100000000000001,-207.4,16
692,11634.0,-0.4,-4.800000000000001,1.3,8.9,-7.300000000000001,-0.30000000000000004,33.1,-12.5,-205.6,16
693,11651.0,-0.5,-5.300000000000001,1.1,8.8,-7.4,-0.5,32.400000000000006,-11.8,-203.60000000000002,16
694,11667.0,-0.9,-6.0,0.9,8.6,-7.6000000000000005,-0.7000000000000001,26.9,-10.0,-197.20000000000002,16
695,11684.0,-1.5,-6.4,0.9,8.0,-7.4,-0.8,18.5,-9.700000000000001,-187.6,16
696,11701.0,-1.7000000000000002,-6.6000000000000005,0.9,7.9,-7.4,-0.8,14.300000000000002,-10.299999999999999,-182.20000000000002,16
697,11718.0,-1.8,-7.4,1.0,7.800000000000001,-7.6000000000000005,-0.7000000000000001,5.9,-14.5,-170.40000000000003,16
698,11734.0,-1.9000000000000001,-7.800000000000001,1.1,7.6000000000000005,-7.6000000000000005,-0.6000000000000001,-1.2000000000000002,-20.400000000000002,-156.0,16
699,11751.0,-2.4000000000000004,-8.0,1.3,7.1000000000000005,-7.4,-0.5,-7.1000000000000005,-21.1,-140.4,16
700,11767.0,-2.7,-8.0,1.4000000000000001,6.800000000000001,-7.2,-0.4,-9.8,-18.3,-133.10000000000002,16
701,11785.0,-3.0,-8.4,1.4000000000000001,6.4,-7.2,-0.5,-15.399999999999999,-5.9,-118.69999999999999,16
702,11801.0,-3.1,-9.4,1.1,6.2,-7.9,-0.8,-20.400000000000002,12.4,-102.5,16
703,11818.0,-3.3000000000000003,-9.700000000000001,0.9,6.0,-8.200000000000001,-0.8,-21.6,22.3,-91.30000000000001,16
704,11835.0,-4.3,-9.600000000000001,0.8,4.9,-7.9,-0.8,-20.1,37.50000000000001,-61.7,16
705,11851.0,-5.7,-8.4,0.9,3.5,-6.6000000000000005,-0.6000000000000001,-16.0,42.800000000000004,-20.7,16
706,11867.0,-5.9,-7.800000000000001,0.9,3.2,-6.1000000000000005,-0.5,-13.200000000000003,42.800000000000004,3.2,16
707,11884.0,-5.1000000000000005,-7.4,0.6000000000000001,4.1000000000000005,-5.9,-0.7000000000000001,-3.1,42.5,50.0,16
708,11901.0,-3.6,-7.300000000000001,-0.2,5.6000000000000005,-6.1000000000000005,-1.3,8.4,43.00000000000001,80.10000000000001,16
709,11918.0,-3.1,-7.0,-0.7000000000000001,6.5,-5.800000000000001,-2.4000000000000004,12.8,44.10000000000001,87.80000000000001,16
710,11934.0,-2.5,-6.300000000000001,-1.8,6.800000000000001,-5.6000000000000005,-2.8000000000000003,15.2,46.4,95.20000000000002,16
711,11951.0,-2.4000000000000004,-5.6000000000000005,-2.8000000000000003,6.800000000000001,-5.300000000000001,-3.6,3.9,39.8,99.10000000000001,16
712,11967.0,-3.0,-4.6000000000000005,-3.4000000000000004,6.2,-4.6000000000000005,-4.2,-26.1,32.1,109.8,16
713,11984.0,-3.3000000000000003,-4.1000000000000005,-3.4000000000000004,5.9,-4.4,-4.1000000000000005,-44.5,31.400000000000002,120.00000000000001,16
714,12001.0,-3.3000000000000003,-3.7,-3.0,5.9,-4.5,-3.7,-81.0,35.599999999999994,145.8,16
715,12017.0,-2.8000000000000003,-3.3000000000000003,-2.0,6.4,-4.6000000000000005,-2.6,-107.10000000000001,38.50000000000001,169.8,16
716,12034.0,-2.3000000000000003,-3.1,-1.6,6.800000000000001,-4.6000000000000005,-2.2,-113.60000000000001,36.7,178.8,16
717,12051.0,-1.3,-2.6,-1.0,7.6000000000000005,-4.7,-1.5,-114.9,31.7,190.30000000000004,16
718,12067.0,-0.2,-2.0,-0.6000000000000001,8.6,-4.6000000000000005,-1.2000000000000002,-111.10000000000002,23.800000000000004,192.1,16
719,12084.0,0.2,-1.7000000000000002,-0.5,8.9,-4.6000000000000005,-1.1,-109.9,18.0,190.60000000000002,16
720,12101.0,1.1,-1.2000000000000002,-0.2,9.600000000000001,-4.800000000000001,-0.9,-109.60000000000001,3.0,187.9,16
721,12128.0,2.9000000000000004,-0.5,0.8,11.0,-4.800000000000001,-0.1,-114.10000000000001,-23.800000000000004,190.2,16
722,12134.0,3.6,-0.30000000000000004,1.2000000000000002,11.600000000000001,-4.800000000000001,0.1,-111.4,-26.000000000000004,192.2,16
723,12151.0,4.3,0.0,1.5,12.100000000000001,-4.7,0.30000000000000004,-107.00000000000001,-25.0,192.8,16
724,12167.0,5.5,1.0,1.9000000000000001,13.100000000000001,-4.2,0.5,-96.30000000000001,-16.6,189.2,16
725,12184.0,7.1000000000000005,1.7000000000000002,2.1,14.4,-3.9000000000000004,0.5,-88.50000000000001,-6.4,173.7,16
726,12201.0,7.9,1.8,2.1,15.0,-4.0,0.4,-87.10000000000001,-2.2,160.3,16
727,12217.0,8.1,2.3000000000000003,2.5,15.100000000000001,-3.8000000000000003,0.6000000000000001,-87.7,4.2,131.0,16
728,12234.0,8.0,2.8000000000000003,3.1,14.8,-3.5,1.2000000000000002,-79.3,11.000000000000002,117.80000000000001,16
729,12251.0,8.3,3.2,3.3000000000000003,15.0,-3.1,1.3,-71.6,12.200000000000001,114.2,16
730,12268.0,8.700000000000001,4.4,3.2,15.200000000000001,-2.1,1.2000000000000002,-51.6,10.4,100.2,16
731,12285.0,9.3,4.4,2.3000000000000003,15.700000000000001,-2.2,0.2,-39.8,13.700000000000001,82.9,16
732,12301.0,9.3,4.4,2.4000000000000004,15.3,-1.8,0.9,-42.0,14.0,73.6,16
733,12317.0,8.700000000000001,5.6000000000000005,3.8000000000000003,15.0,-1.1,1.6,-35.699999999999996,10.9,63.2,16
734,12334.0,8.9,6.7,4.9,15.100000000000001,-0.1,2.8000000000000003,1.9,-4.2,51.6,16
735,12351.0,9.600000000000001,6.5,4.6000000000000005,15.9,-0.4,2.5,49.800000000000004,-37.7,17.799999999999997,16
736,12367.0,9.8,5.9,4.2,16.1,-1.0,2.2,68.80000000000001,-56.10000000000001,-6.300000000000001,16
737,12384.0,9.1,4.800000000000001,3.5,15.5,-2.0,1.5,94.10000000000001,-88.50000000000001,-56.0,16
738,12401.0,7.800000000000001,3.7,2.8000000000000003,14.5,-2.9000000000000004,0.9,109.9,-99.30000000000001,-92.50000000000001,16
739,12419.0,7.2,3.1,2.6,13.9,-3.5,0.7000000000000001,113.4,-100.30000000000001,-107.4,16
740,12434.0,5.800000000000001,2.0,2.4000000000000004,12.8,-4.2,0.5,113.7,-104.00000000000001,-135.8,16
741,12451.0,4.6000000000000005,1.2000000000000002,1.9000000000000001,11.9,-4.7,0.0,112.1,-106.70000000000002,-155.60000000000002,16
742,12467.0,4.2,0.9,1.7000000000000002,11.700000000000001,-4.9,-0.2,109.30000000000001,-105.3,-161.8,16
743,12484.0,3.8000000000000003,0.4,1.0,11.5,-5.0,-1.0,97.7,-96.7,-168.9,16
744,12501.0,3.6,-0.30000000000000004,0.5,11.600000000000001,-5.300000000000001,-1.5,78.2,-74.5,-174.10000000000002,16
745,12518.0,3.0,-1.1,0.7000000000000001,11.3,-5.7,-1.4000000000000001,54.699999999999996,-49.50000000000001,-182.4,16
746,12534.0,2.6,-1.6,0.9,11.100000000000001,-5.9,-1.2000000000000002,45.8,-39.0,-186.99999999999997,16
747,12551.0,1.7000000000000002,-2.4000000000000004,1.6,10.4,-6.2,-0.5,37.2,-29.300000000000004,-196.3,16
748,12567.0,1.1,-3.4000000000000004,2.0,10.0,-6.6000000000000005,-0.1,40.800000000000004,-36.0,-204.6,16
749,12584.0,0.7000000000000001,-3.9000000000000004,2.1,9.700000000000001,-6.800000000000001,-0.1,45.099999999999994,-41.6,-207.7,16
750,12601.0,0.2,-4.7,1.7000000000000002,9.4,-7.1000000000000005,-0.6000000000000001,51.70000000000001,-47.60000000000001,-209.4,16
751,12619.0,-0.4,-5.300000000000001,1.4000000000000001,8.9,-7.1000000000000005,-1.0,48.9,-41.6,-204.3,16
752,12634.0,-0.6000000000000001,-5.6000000000000005,1.1,8.8,-7.1000000000000005,-1.3,45.3,-35.5,-199.70000000000002,16
753,12651.0,-1.1,-6.0,0.5,8.3,-6.9,-1.9000000000000001,32.6,-16.700000000000003,-188.0,16
754,12667.0,-1.7000000000000002,-6.300000000000001,0.5,7.7,-6.800000000000001,-2.0,12.0,2.5,-174.10000000000002,16
755,12684.0,-1.9000000000000001,-6.5,0.5,7.300000000000001,-6.7,-1.8,1.7,10.299999999999999,-166.5,16
756,12701.0,-2.2,-7.0,0.7000000000000001,7.2,-6.800000000000001,-1.7000000000000002,-15.8,19.9,-150.70000000000002,16
757,12717.0,-2.4000000000000004,-7.5,1.0,6.9,-6.9,-1.3,-27.0,23.400000000000002,-135.0,16
758,12735.0,-2.9000000000000004,-7.800000000000001,1.1,6.4,-6.800000000000001,-1.1,-30.3,24.3,-120.2,16
759,12751.0,-3.3000000000000003,-7.9,1.2000000000000002,6.0,-6.7,-1.0,-30.3,26.000000000000004,-113.00000000000001,16
760,12767.0,-4.1000000000000005,-8.0,1.2000000000000002,5.1000000000000005,-6.6000000000000005,-0.8,-26.799999999999997,29.700000000000006,-95.69999999999999,16
761,12784.0,-4.2,-8.8,0.7000000000000001,5.0,-7.2,-1.2000000000000002,-21.200000000000003,27.5,-73.10000000000001,16
762,12801.0,-4.3,-9.0,0.5,4.9,-7.300000000000001,-1.3,-20.1,24.3,-60.5,16
763,12818.0,-5.1000000000000005,-9.0,0.30000000000000004,4.1000000000000005,-7.300000000000001,-1.5,-24.0,17.7,-30.599999999999998,16
764,12834.0,-6.2,-7.9,0.5,2.9000000000000004,-6.2,-1.2000000000000002,-30.000000000000004,17.9,13.000000000000002,16
765,12851.0,-6.2,-7.4,0.7000000000000001,2.9000000000000004,-5.800000000000001,-1.0,-29.800000000000004,19.9,39.50000000000001,16
766,12867.0,-4.5,-7.2,0.4,4.6000000000000005,-5.9,-1.2000000000000002,-20.0,25.0,89.0,16
767,12884.0,-2.8000000000000003,-6.6000000000000005,-0.6000000000000001,6.4,-5.7,-2.1,-13.3,25.4,112.7,16
768,12901.0,-2.2,-6.300000000000001,-1.1,7.300000000000001,-5.5,-2.8000000000000003,-13.700000000000001,24.8,117.30000000000001,16
769,12917.0,-1.7000000000000002,-5.6000000000000005,-1.5,7.5,-5.4,-2.9000000000000004,-18.700000000000003,21.0,121.2,16
770,12934.0,-1.5,-5.0,-1.9000000000000001,7.6000000000000005,-5.1000000000000005,-3.2,-25.4,9.5,128.60000000000002,16
771,12951.0,-1.3,-4.3,-2.2,7.800000000000001,-4.9,-3.6,-33.800000000000004,-2.8,138.50000000000003,16
772,12967.0,-0.9,-4.0,-2.4000000000000004,8.200000000000001,-4.800000000000001,-3.8000000000000003,-40.6,-8.4,142.10000000000002,16
773,12984.0,0.30000000000000004,-3.2,-2.6,9.3,-4.5,-4.1000000000000005,-60.00000000000001,-20.5,138.40000000000003,16
774,13001.0,0.5,-2.1,-2.6,9.5,-3.7,-4.2,-81.4,-27.2,125.30000000000001,16
775,13017.0,0.30000000000000004,-1.5,-2.8000000000000003,9.200000000000001,-3.3000000000000003,-4.5,-93.2,-24.5,120.10000000000001,16
776,13034.0,-0.2,-0.8,-2.3000000000000003,8.6,-2.9000000000000004,-4.1000000000000005,-124.7,-11.700000000000001,124.7,16
777,13051.0,-0.30000000000000004,-0.6000000000000001,-1.5,8.4,-3.0,-3.5,-156.5,-7.0,137.20000000000002,16
778,13067.0,-0.1,-0.6000000000000001,-0.7000000000000001,8.5,-3.2,-2.9000000000000004,-171.39999999999998,-9.899999999999999,144.20000000000002,16
779,13084.0,0.7000000000000001,-0.7000000000000001,1.0,9.200000000000001,-3.6,-1.4000000000000001,-188.3,-23.099999999999998,156.9,16
780,13101.0,1.6,-0.5,2.2,9.9,-3.8000000000000003,-0.4,-178.4,-32.400000000000006,169.70000000000002,16
781,13120.0,2.8000000000000003,-0.30000000000000004,3.1,10.9,-3.8000000000000003,0.30000000000000004,-154.6,-33.2,177.8,16
782,13134.0,3.4000000000000004,-0.1,3.5,11.4,-3.9000000000000004,0.5,-139.1,-29.300000000000004,178.60000000000002,16
783,13151.0,4.2,0.6000000000000001,4.3,12.0,-3.5,1.1,-106.30000000000001,-19.5,173.0,16
784,13167.0,4.9,1.4000000000000001,4.4,12.5,-3.0,1.1,-73.7,-14.200000000000001,163.5,16
785,13184.0,5.6000000000000005,1.4000000000000001,4.3,13.0,-3.1,1.0,-59.1,-11.000000000000002,160.50000000000003,16
786,13202.0,7.4,1.8,4.1000000000000005,14.600000000000001,-3.1,0.7000000000000001,-33.2,-10.8,148.9,16
787,13217.0,8.4,2.5,3.9000000000000004,15.4,-2.7,0.5,-10.4,-22.8,124.8,16
788,13235.0,8.8,3.0,3.7,15.8,-2.3000000000000003,0.30000000000000004,-1.3,-27.2,110.4,16
789,13251.0,9.3,3.9000000000000004,3.2,16.1,-1.6,-0.2,10.5,-24.599999999999998,78.5,16
790,13268.0,9.3,4.0,3.1,16.1,-1.6,-0.30000000000000004,11.6,-16.1,48.50000000000001,16
791,13284.0,9.1,4.1000000000000005,3.4000000000000004,15.8,-1.6,0.0,12.8,-12.100000000000001,38.7,16
792,13302.0,8.4,5.2,4.5,15.100000000000001,-0.5,1.2000000000000002,33.1,-6.500000000000001,28.1,16
793,13321.0,8.200000000000001,6.300000000000001,4.9,15.100000000000001,0.5,1.6,76.0,-10.5,13.900000000000002,16
794,13335.0,8.6,6.5,4.3,15.5,0.7000000000000001,1.3,122.79999999999998,-26.300000000000004,-15.299999999999999,16
795,13351.0,8.9,6.0,3.5,15.9,0.2,0.6000000000000001,147.1,-33.300000000000004,-35.1,16
796,13367.0,8.700000000000001,4.7,1.2000000000000002,15.9,-1.1,-1.5,182.8,-41.50000000000001,-77.7,16
797,13384.0,6.800000000000001,4.2,-1.4000000000000001,14.100000000000001,-1.4000000000000001,-3.8000000000000003,180.2,-38.800000000000004,-114.40000000000002,16
798,13401.0,5.9,4.0,-2.1,13.3,-1.5,-4.3,163.20000000000002,-33.9,-126.8,16
799,13417.0,4.3,3.2,-2.1,12.100000000000001,-2.1,-4.2,108.50000000000001,-33.400000000000006,-137.8,16
800,13434.0,3.3000000000000003,2.6,-0.5,11.3,-2.3000000000000003,-2.6,58.2,-38.1,-140.70000000000002,16
801,13451.0,3.3000000000000003,2.1,0.5,11.4,-2.6,-1.6,45.8,-40.1,-139.60000000000002,16
802,13467.0,3.9000000000000004,1.0,1.9000000000000001,12.200000000000001,-3.3000000000000003,-0.30000000000000004,43.4,-47.2,-144.3,16
803,13484.0,4.1000000000000005,0.2,2.3000000000000003,12.700000000000001,-3.7,0.0,61.199999999999996,-49.9,-161.8,16
804,13501.0,4.0,-0.4,1.8,12.4,-4.4,-1.0,72.4,-45.9,-172.1,16
805,13517.0,3.1,-1.4000000000000001,0.9,12.0,-4.6000000000000005,-1.4000000000000001,79.9,-32.5,-190.30000000000004,16
806,13534.0,2.1,-2.3000000000000003,0.6000000000000001,11.200000000000001,-5.0,-1.6,65.10000000000001,-25.4,-201.2,16
807,13551.0,1.7000000000000002,-3.4000000000000004,1.2000000000000002,10.9,-5.5,-1.1,57.00000000000001,-18.5,-201.9,16
808,13567.0,1.5,-4.0,1.3,10.8,-5.800000000000001,-0.9,57.400000000000006,-17.799999999999997,-199.9,16
809,13584.0,1.0,-4.7,1.5,10.4,-6.0,-0.8,62.1,-23.0,-197.20000000000002,16
810,13604.0,0.30000000000000004,-5.300000000000001,1.4000000000000001,9.8,-6.0,-0.9,65.5,-30.200000000000003,-194.4,16
811,13620.0,0.1,-5.7,1.4000000000000001,9.5,-6.2,-1.0,64.80000000000001,-33.300000000000004,-192.0,16
812,13635.0,-0.2,-6.5,1.2000000000000002,9.200000000000001,-6.4,-1.3,58.800000000000004,-37.800000000000004,-184.79999999999998,16
813,13651.0,-0.5,-7.1000000000000005,1.2000000000000002,8.9,-6.6000000000000005,-1.5,52.900000000000006,-39.300000000000004,-173.5,16
814,13668.0,-0.5,-7.300000000000001,1.1,8.700000000000001,-6.7,-1.8,50.8,-39.400000000000006,-166.60000000000002,16
815,13684.0,-0.9,-7.7,0.8,8.3,-6.6000000000000005,-2.0,42.2,-38.7,-154.2,16
816,13701.0,-1.7000000000000002,-8.0,0.7000000000000001,7.4,-6.5,-2.2,22.700000000000003,-32.7,-142.20000000000002,16
817,13717.0,-2.0,-8.200000000000001,0.7000000000000001,6.5,-6.5,-2.3000000000000003,10.5,-27.400000000000002,-133.8,16
818,13734.0,-2.9000000000000004,-8.4,1.1,6.1000000000000005,-6.5,-1.9000000000000001,-13.000000000000002,-11.700000000000001,-112.80000000000001,16
819,13751.0,-3.1,-9.0,1.7000000000000002,5.800000000000001,-6.800000000000001,-1.3,-25.1,-1.7,-89.2,16
820,13767.0,-3.4000000000000004,-9.5,1.7000000000000002,5.4,-7.2,-1.2000000000000002,-19.799999999999997,5.500000000000001,-62.1,16
821,13784.0,-3.8000000000000003,-9.4,1.7000000000000002,4.9,-7.0,-1.2000000000000002,-14.800000000000002,6.500000000000001,-47.0,16
822,13801.0,-5.0,-8.8,1.5,3.7,-6.4,-1.4000000000000001,-9.8,2.5,-13.399999999999999,16
823,13823.0,-5.7,-8.4,1.7000000000000002,3.0,-6.1000000000000005,-1.2000000000000002,-6.8,-5.9,27.6,16
824,13837.0,-5.6000000000000005,-8.1,1.8,3.0,-6.1000000000000005,-1.1,3.9,-19.200000000000003,70.0,16
825,13851.0,-5.4,-7.800000000000001,1.7000000000000002,3.3000000000000003,-6.0,-1.3,13.700000000000001,-26.000000000000004,90.1,16
826,13867.0,-4.4,-7.300000000000001,1.1,4.3,-5.9,-1.9000000000000001,36.300000000000004,-35.3,125.30000000000001,16
827,13884.0,-3.8000000000000003,-6.9,0.9,4.800000000000001,-5.800000000000001,-2.2,45.7,-39.0,138.50000000000003,16
828,13901.0,-2.6,-6.2,0.4,6.0,-5.6000000000000005,-2.9000000000000004,57.60000000000001,-46.800000000000004,159.3,16
829,13918.0,-1.2000000000000002,-5.300000000000001,-0.30000000000000004,7.4,-5.300000000000001,-3.7,58.2,-44.9,176.5,16
830,13934.0,-0.30000000000000004,-4.2,-0.5,8.200000000000001,-4.800000000000001,-4.0,46.800000000000004,-30.4,185.90000000000003,16
831,13951.0,0.0,-3.7,-0.7000000000000001,8.4,-4.7,-4.2,37.9,-17.300000000000004,189.50000000000003,16
832,13968.0,0.30000000000000004,-2.7,-0.5,8.700000000000001,-4.4,-4.0,18.3,19.1,197.5,16
833,13984.0,0.5,-2.0,-0.2,8.8,-4.2,-3.6,0.9000000000000001,52.80000000000001,205.4,16
834,14001.0,0.8,-1.6,-0.1,9.0,-4.1000000000000005,-3.4000000000000004,-7.1000000000000005,64.7,207.4,16
835,14021.0,1.6,-1.0,-0.1,9.700000000000001,-4.1000000000000005,-3.2,-19.9,78.0,207.50000000000003,16
836,14035.0,2.3000000000000003,-0.6000000000000001,-0.2,10.3,-4.2,-3.1,-26.300000000000004,80.7,199.4,16
837,14051.0,2.4000000000000004,-0.2,-0.2,10.3,-4.1000000000000005,-3.1,-26.700000000000003,77.7,193.3,16
838,14068.0,2.6,0.5,-0.30000000000000004,10.4,-3.8000000000000003,-2.9000000000000004,-26.200000000000003,59.60000000000001,181.50000000000003,16
839,14084.0,3.2,1.0,-0.6000000000000001,10.8,-3.7,-3.2,-26.799999999999997,40.4,170.40000000000003,16
840,14101.0,4.0,1.3,-0.4,11.3,-3.9000000000000004,-3.0,-29.700000000000006,28.1,159.8,16
841,14118.0,4.3,1.5,-0.30000000000000004,11.5,-3.8000000000000003,-2.9000000000000004,-31.9,24.599999999999998,153.10000000000002,16
842,14135.0,5.1000000000000005,1.8,-0.30000000000000004,12.100000000000001,-3.8000000000000003,-2.9000000000000004,-34.60000000000001,28.200000000000003,138.50000000000003,16
843,14151.0,5.6000000000000005,2.0,-0.4,12.4,-3.9000000000000004,-2.9000000000000004,-33.400000000000006,42.0,122.39999999999999,16
844,14167.0,5.7,2.1,-0.5,12.5,-3.9000000000000004,-3.0,-30.9,48.9,115.3,16
845,14184.0,6.1000000000000005,2.2,-1.1,12.8,-4.0,-3.5,-20.1,54.300000000000004,104.60000000000001,16
846,14201.0,6.4,2.5,-1.7000000000000002,12.9,-3.9000000000000004,-4.1000000000000005,-15.299999999999999,52.00000000000001,99.9,16
847,14220.0,7.2,3.1,-2.3000000000000003,13.700000000000001,-3.5,-4.6000000000000005,-7.699999999999999,37.0,83.80000000000001,16
848,14234.0,7.5,3.3000000000000003,-2.5,13.9,-3.3000000000000003,-4.800000000000001,-4.300000000000001,33.9,74.89999999999999,16
849,14251.0,7.6000000000000005,3.7,-3.0,14.0,-3.1,-5.2,5.300000000000001,33.800000000000004,60.5,16
850,14267.0,7.4,4.3,-3.2,13.700000000000001,-2.5,-5.4,11.1,36.9,55.8,16
851,14284.0,6.4,6.1000000000000005,-3.4000000000000004,12.700000000000001,-0.8,-5.6000000000000005,22.3,42.400000000000006,47.60000000000001,16
852,14301.0,6.0,7.0,-3.3000000000000003,12.3,0.2,-5.300000000000001,24.400000000000002,26.700000000000003,33.1,16
853,14317.0,6.2,7.1000000000000005,-3.0,13.0,0.0,-4.7,21.0,6.9,22.5,16
854,14335.0,7.2,6.5,-2.4000000000000004,13.5,-0.4,-4.4,14.900000000000002,-44.2,-4.5,16
855,14351.0,7.800000000000001,5.800000000000001,-1.7000000000000002,14.100000000000001,-0.9,-3.9000000000000004,14.5,-82.8,-35.4,16
856,14367.0,7.6000000000000005,4.800000000000001,-1.4000000000000001,14.100000000000001,-1.8,-3.8000000000000003,8.2,-98.39999999999999,-69.60000000000001,16
857,14384.0,7.300000000000001,4.3,-1.1,13.9,-2.2,-3.6,-0.9000000000000001,-98.0,-86.60000000000001,16
858,14401.0,6.5,3.2,-0.30000000000000004,13.3,-3.0,-3.0,-23.6,-85.20000000000002,-116.1,16
859,14419.0,5.7,2.2,0.6000000000000001,12.700000000000001,-3.6,-2.4000000000000004,-42.2,-62.0,-134.6,16
860,14434.0,5.300000000000001,1.7000000000000002,0.9,12.5,-3.9000000000000004,-2.1,-48.300000000000004,-48.10000000000001,-140.5,16
861,14451.0,4.800000000000001,0.9,1.6,12.3,-4.3,-1.7000000000000002,-53.599999999999994,-20.599999999999998,-150.9,16
862,14467.0,4.1000000000000005,0.0,1.9000000000000001,11.9,-4.6000000000000005,-1.4000000000000001,-50.2,1.4,-165.10000000000002,16
863,14484.0,3.5,-0.30000000000000004,2.0,10.9,-4.7,-1.2000000000000002,-46.4,8.2,-173.3,16
864,14501.0,2.3000000000000003,-0.9,2.2,10.5,-4.800000000000001,-1.2000000000000002,-37.50000000000001,12.7,-186.6,16
865,14519.0,1.9000000000000001,-1.9000000000000001,2.2,10.4,-5.2,-1.1,-28.1,6.8,-194.7,16
866,14534.0,1.6,-3.0,2.2,10.3,-5.7,-1.1,-15.5,-2.5,-202.0,16
867,14551.0,1.3,-3.6,2.2,10.100000000000001,-6.0,-1.2000000000000002,-9.100000000000001,-8.100000000000001,-205.0,16
868,14567.0,0.7000000000000001,-4.5,2.0,9.600000000000001,-6.300000000000001,-1.4000000000000001,-0.8,-17.5,-208.5,16
869,14584.0,0.2,-5.300000000000001,1.9000000000000001,9.200000000000001,-6.5,-1.5,1.6,-23.800000000000004,-205.10000000000002,16
870,14601.0,0.0,-5.6000000000000005,1.9000000000000001,9.0,-6.6000000000000005,-1.6,1.1,-24.200000000000003,-201.1,16
871,14620.0,-0.4,-6.2,1.9000000000000001,8.700000000000001,-6.6000000000000005,-1.6,-1.9,-21.1,-188.5,16
872,14634.0,-0.4,-6.800000000000001,1.8,8.700000000000001,-6.7,-1.7000000000000002,-5.500000000000001,-14.200000000000001,-172.5,16
873,14651.0,-0.4,-7.0,1.9000000000000001,8.6,-6.7,-1.7000000000000002,-7.200000000000001,-9.8,-164.6,16
874,14667.0,-0.7000000000000001,-7.300000000000001,1.9000000000000001,8.3,-6.5,-1.6,-11.6,-2.3,-150.2,16
875,14684.0,-1.1,-7.6000000000000005,1.9000000000000001,7.800000000000001,-6.4,-1.7000000000000002,-17.9,8.2,-138.8,16
876,14701.0,-1.6,-7.7,1.9000000000000001,6.6000000000000005,-6.2,-1.4000000000000001,-20.400000000000002,16.4,-134.3,16
877,14719.0,-2.7,-7.800000000000001,2.1,6.2,-6.2,-1.3,-19.6,31.2,-120.7,16
878,14734.0,-2.7,-8.8,1.8,6.1000000000000005,-6.9,-1.4000000000000001,-11.700000000000001,40.9,-100.6,16
879,14751.0,-3.1,-9.3,1.4000000000000001,5.7,-7.1000000000000005,-1.7000000000000002,0.6000000000000001,45.400000000000006,-76.80000000000001,16
880,14767.0,-3.4000000000000004,-9.200000000000001,1.2000000000000002,5.300000000000001,-7.1000000000000005,-1.8,8.2,45.8,-63.0,16
881,14784.0,-4.6000000000000005,-8.3,0.8,4.2,-6.1000000000000005,-2.1,24.8,46.199999999999996,-31.099999999999998,16
882,14801.0,-5.1000000000000005,-7.5,0.0,3.6,-5.300000000000001,-2.8000000000000003,39.9,47.60000000000001,4.800000000000001,16
883,14822.0,-4.9,-7.0,-1.1,3.8000000000000003,-5.1000000000000005,-3.8000000000000003,44.9,45.6,41.6,16
884,14834.0,-4.6000000000000005,-6.800000000000001,-1.5,4.2,-5.0,-4.1000000000000005,40.9,43.4,58.7,16
885,14851.0,-4.1000000000000005,-6.4,-1.8,4.7,-4.9,-4.3,24.400000000000002,32.8,89.4,16
886,14867.0,-3.7,-6.2,-1.8,5.1000000000000005,-4.9,-4.3,15.6,26.300000000000004,104.50000000000001,16
887,14884.0,-2.6,-6.1000000000000005,-1.5,6.300000000000001,-5.2,-4.0,0.4,15.299999999999999,131.2,16
888,14901.0,-2.1,-5.5,-1.1,6.800000000000001,-5.2,-3.6,-5.6,13.000000000000002,150.70000000000002,16
889,14920.0,-1.8,-4.6000000000000005,-1.4000000000000001,7.1000000000000005,-4.800000000000001,-3.8000000000000003,-7.0,19.1,168.70000000000002,16
890,14934.0,-1.5,-4.2,-1.5,7.4,-4.7,-3.9000000000000004,-11.3,22.5,175.89999999999998,16
891,14951.0,-1.2000000000000002,-3.2,-1.6,7.6000000000000005,-4.2,-3.9000000000000004,-26.300000000000004,24.900000000000002,183.7,16
892,14967.0,-0.9,-2.4000000000000004,-1.6,7.9,-4.0,-3.9000000000000004,-41.4,27.099999999999998,188.0,16
893,14984.0,-0.5,-2.1,-1.7000000000000002,8.3,-4.0,-3.9000000000000004,-50.8,27.6,189.9,16
894,15001.0,0.2,-1.6,-1.3,8.8,-4.0,-3.5,-70.2,30.000000000000004,191.1,16
895,15020.0,0.8,-1.2000000000000002,-0.5,9.200000000000001,-4.1000000000000005,-2.7,-84.80000000000001,30.000000000000004,190.8,16
896,15034.0,1.1,-1.1,0.0,9.5,-4.3,-2.2,-88.9,28.200000000000003,191.20000000000005,16
897,15051.0,1.9000000000000001,-0.8,0.6000000000000001,10.100000000000001,-4.5,-1.7000000000000002,-89.0,22.5,195.20000000000002,16
898,15067.0,3.1,-0.4,0.7000000000000001,11.100000000000001,-4.5,-1.6,-84.3,19.300000000000004,201.50000000000003,16
899,15084.0,4.0,-0.1,1.0,12.5,-4.2,-1.1,-81.8,19.300000000000004,203.00000000000003,16
900,15101.0,5.5,1.0,1.6,13.0,-3.9000000000000004,-0.8,-70.6,20.400000000000002,196.7,16
901,15117.0,6.4,2.1,1.6,13.700000000000001,-3.1,-0.8,-48.9,21.500000000000004,176.9,16
902,15137.0,7.2,2.4000000000000004,1.2000000000000002,14.3,-3.2,-1.2000000000000002,-35.2,17.6,151.0,16
903,15151.0,7.2,2.6,1.0,14.3,-3.2,-1.4000000000000001,-33.6,13.200000000000003,138.50000000000003,16
904,15167.0,7.2,2.9000000000000004,1.1,14.0,-3.0,-1.4000000000000001,-33.2,8.899999999999999,124.2,16
905,15184.0,7.6000000000000005,3.5,1.5,14.200000000000001,-2.7,-1.0,-30.000000000000004,12.600000000000001,120.00000000000001,16
906,15201.0,7.9,3.8000000000000003,1.6,14.5,-2.6,-0.9,-27.700000000000003,16.5,116.4,16
907,15217.0,9.5,3.9000000000000004,1.7000000000000002,15.9,-2.6,-0.8,-15.899999999999999,26.300000000000004,98.9,16
908,15234.0,9.8,4.4,1.9000000000000001,16.2,-2.2,-0.5,4.1,27.3,71.7,16
909,15251.0,9.4,5.2,1.9000000000000001,15.8,-1.5,-0.5,20.5,25.300000000000004,59.00000000000001,16
910,15267.0,8.4,6.800000000000001,1.6,14.700000000000001,0.0,-0.5,66.1,12.9,35.1,16
911,15284.0,8.1,7.0,0.6000000000000001,14.5,0.2,-1.3,102.10000000000001,-27.700000000000003,7.1000000000000005,16
912,15301.0,8.3,6.7,0.2,14.700000000000001,-0.1,-1.7000000000000002,111.6,-50.900000000000006,-10.700000000000001,16
913,15317.0,8.4,5.9,-0.9,14.9,-0.9,-2.7,116.30000000000001,-84.5,-46.4,16
914,15334.0,7.5,5.4,-1.5,14.200000000000001,-1.2000000000000002,-3.3000000000000003,109.60000000000001,-83.89999999999999,-78.4,16
915,15351.0,6.5,4.5,-1.7000000000000002,13.5,-1.9000000000000001,-3.4000000000000004,87.10000000000001,-70.6,-105.0,16
916,15367.0,6.1000000000000005,3.9000000000000004,-1.6,13.100000000000001,-2.3000000000000003,-3.4000000000000004,71.9,-64.4,-117.30000000000001,16
917,15384.0,5.1000000000000005,2.7,-0.9,12.5,-3.2,-2.7,44.7,-56.2,-136.5,16
918,15401.0,4.7,1.7000000000000002,-0.1,12.3,-3.8000000000000003,-2.0,30.200000000000003,-54.199999999999996,-147.9,16
919,15420.0,4.5,1.3,0.30000000000000004,12.3,-4.1000000000000005,-1.6,27.0,-54.6,-152.5,16
920,15436.0,4.0,0.5,0.6000000000000001,12.100000000000001,-4.5,-1.4000000000000001,24.400000000000002,-55.3,-163.10000000000002,16
921,15451.0,3.4000000000000004,-0.4,0.9,11.700000000000001,-4.800000000000001,-1.3,18.5,-52.60000000000001,-175.4,16
922,15467.0,3.1,-0.8,1.0,11.200000000000001,-5.1000000000000005,-1.0,14.300000000000002,-50.1,-181.1,16
923,15484.0,2.2,-1.4000000000000001,1.5,10.9,-5.1000000000000005,-0.8,9.2,-42.900000000000006,-190.0,16
924,15501.0,1.5,-2.3000000000000003,1.5,10.4,-5.4,-0.8,7.6,-36.6,-195.1,16
925,15517.0,1.2000000000000002,-2.8000000000000003,1.7000000000000002,10.100000000000001,-5.800000000000001,-0.6000000000000001,4.1,-34.0,-198.20000000000002,16
926,15534.0,0.7000000000000001,-3.7,2.0,9.9,-6.0,-0.5,3.0,-33.800000000000004,-198.79999999999998,16
927,15551.0,0.2,-4.7,2.3000000000000003,9.5,-6.300000000000001,-0.30000000000000004,5.6,-32.300000000000004,-198.60000000000002,16
928,15567.0,-0.2,-5.5,2.4000000000000004,9.1,-6.6000000000000005,-0.30000000000000004,7.200000000000001,-33.6,-193.9,16
929,15584.0,-0.5,-5.800000000000001,2.4000000000000004,8.8,-6.6000000000000005,-0.30000000000000004,8.0,-33.6,-190.30000000000004,16
930,15601.0,-1.1,-6.2,2.1,8.3,-6.4,-0.7000000000000001,7.500000000000001,-31.0,-179.2,16
931,15617.0,-1.3,-6.5,1.9000000000000001,7.9,-6.300000000000001,-1.0,0.7,-27.0,-162.9,16
932,15634.0,-1.4000000000000001,-6.7,1.8,7.9,-6.2,-1.1,-3.1,-24.400000000000002,-153.70000000000002,16
933,15651.0,-1.4000000000000001,-6.9,1.7000000000000002,7.800000000000001,-6.1000000000000005,-1.2000000000000002,-13.700000000000001,-20.400000000000002,-137.9,16
934,15667.0,-1.5,-7.2,1.8,7.6000000000000005,-6.0,-1.2000000000000002,-23.800000000000004,-18.6,-124.39999999999999,16
935,15684.0,-1.7000000000000002,-7.4,1.8,7.0,-5.9,-1.0,-30.000000000000004,-16.8,-118.69999999999999,16
936,15701.0,-2.3000000000000003,-7.5,2.2,6.7,-5.9,-0.8,-37.50000000000001,-3.8,-106.60000000000001,16
937,15717.0,-2.4000000000000004,-8.5,2.1,6.5,-6.6000000000000005,-0.8,-32.8,14.600000000000001,-89.5,16
938,15734.0,-2.7,-9.1,1.8,6.2,-7.0,-1.0,-22.9,24.8,-69.80000000000001,16
939,15751.0,-3.0,-9.1,1.6,5.9,-7.0,-1.1,-18.900000000000002,28.200000000000003,-59.1,16
940,15767.0,-3.9000000000000004,-8.9,1.4000000000000001,4.9,-6.7,-1.2000000000000002,-16.5,29.800000000000004,-31.799999999999997,16
941,15784.0,-4.5,-8.5,1.0,4.3,-6.4,-1.5,-18.3,29.0,5.9,16
942,15801.0,-4.6000000000000005,-8.200000000000001,0.9,4.2,-6.1000000000000005,-1.6,-19.0,30.599999999999998,28.600000000000005,16
943,15817.0,-4.3,-7.4,0.7000000000000001,4.5,-5.5,-1.7000000000000002,-15.399999999999999,33.400000000000006,75.60000000000001,16
944,15834.0,-3.5,-6.7,0.2,5.4,-5.2,-2.0,-7.6,30.5,110.80000000000001,16
945,15851.0,-3.0,-6.4,0.0,5.9,-5.1000000000000005,-2.2,-3.1,25.7,123.9,16
946,15867.0,-2.0,-5.9,-0.6000000000000001,7.0,-5.1000000000000005,-2.7,3.7000000000000006,13.700000000000001,141.70000000000002,16
947,15884.0,-1.6,-5.1000000000000005,-1.1,7.4,-4.9,-3.2,8.0,8.0,153.79999999999998,16
948,15901.0,-1.3,-4.5,-1.7000000000000002,7.7,-4.7,-3.8000000000000003,6.9,7.200000000000001,164.3,16
949,15917.0,-1.3,-4.0,-1.9000000000000001,7.6000000000000005,-4.6000000000000005,-4.1000000000000005,2.3,6.600000000000001,169.9,16
950,15934.0,-1.3,-3.0,-2.3000000000000003,7.7,-4.1000000000000005,-4.4,-15.5,7.1000000000000005,182.8,16
951,15951.0,-1.2000000000000002,-2.2,-1.8,7.7,-3.9000000000000004,-4.0,-43.6,10.8,195.79999999999998,16
952,15967.0,-1.0,-1.6,-1.4000000000000001,7.7,-3.6,-3.5,-56.0,15.2,202.20000000000002,16
953,15984.0,-0.1,-1.4000000000000001,-0.8,8.5,-4.0,-2.9000000000000004,-69.20000000000002,27.5,213.0,16
954,16001.0,0.8,-1.1,-0.30000000000000004,9.3,-4.3,-2.4000000000000004,-80.4,28.800000000000004,211.0,16
955,16017.0,1.2000000000000002,-0.8,0.1,9.600000000000001,-4.2,-2.0,-83.5,22.8,205.79999999999998,16
956,16034.0,2.4000000000000004,-0.6000000000000001,0.30000000000000004,10.5,-4.5,-1.9000000000000001,-84.4,7.6,191.30000000000004,16
957,16051.0,3.1,0.0,0.4,10.9,-4.4,-1.9000000000000001,-85.4,2.7,182.5,16
958,16067.0,3.5,0.0,0.5,11.200000000000001,-4.6000000000000005,-1.9000000000000001,-87.3,4.4,181.1,16
959,16084.0,4.2,0.4,1.2000000000000002,11.700000000000001,-4.6000000000000005,-1.3,-89.30000000000001,5.4,179.8,16
960,16101.0,5.5,1.1,1.7000000000000002,12.700000000000001,-4.2,-0.9,-86.4,11.8,177.9,16
961,16117.0,6.5,1.9000000000000001,2.3000000000000003,13.4,-3.8000000000000003,-0.4,-70.2,27.3,169.2,16
962,16134.0,7.2,2.1,2.3000000000000003,14.100000000000001,-3.7,-0.4,-59.40000000000001,30.5,162.6,16
963,16151.0,8.1,2.6,1.6,14.700000000000001,-3.4000000000000004,-1.1,-45.099999999999994,27.9,139.60000000000002,16
964,16167.0,8.1,3.5,1.0,14.600000000000001,-2.8000000000000003,-1.8,-39.50000000000001,17.9,120.80000000000001,16
965,16184.0,8.4,3.7,1.1,14.8,-2.7,-1.7000000000000002,-41.1,15.299999999999999,114.3,16
966,16201.0,8.8,4.3,1.5,15.100000000000001,-2.2,-1.3,-35.3,22.3,100.5,16
967,16217.0,9.3,4.800000000000001,1.8,15.5,-1.9000000000000001,-1.0,-26.1,25.900000000000002,86.00000000000001,16
968,16234.0,9.3,5.5,2.2,15.4,-1.3,-0.6000000000000001,-16.5,29.0,77.80000000000001,16
969,16251.0,8.9,6.7,2.6,15.0,-0.1,-0.1,16.3,23.800000000000004,54.300000000000004,16
970,16267.0,8.8,7.300000000000001,2.3000000000000003,14.9,0.5,-0.30000000000000004,55.7,-5.1000000000000005,17.200000000000003,16
971,16284.0,9.0,6.2,1.2000000000000002,15.200000000000001,-0.6000000000000001,-1.2000000000000002,73.10000000000001,-26.5,-3.9,16
972,16303.0,9.0,5.7,0.7000000000000001,15.200000000000001,-1.1,-1.7000000000000002,86.1,-67.5,-43.70000000000001,16
973,16318.0,8.3,5.2,0.2,14.700000000000001,-1.5,-2.2,86.1,-68.4,-73.5,16
974,16337.0,7.2,4.4,-0.1,13.8,-2.1,-2.4000000000000004,73.5,-47.900000000000006,-99.9,16
975,16351.0,6.5,4.0,-0.1,13.200000000000001,-2.4000000000000004,-2.4000000000000004,62.50000000000001,-39.699999999999996,-113.4,16
976,16367.0,5.300000000000001,3.1,0.5,12.4,-3.0,-1.7000000000000002,43.300000000000004,-33.7,-132.8,16
977,16384.0,5.0,2.2,1.0,12.3,-3.5,-1.2000000000000002,38.300000000000004,-35.5,-143.70000000000002,16
978,16401.0,4.9,1.8,1.0,12.4,-3.7,-1.2000000000000002,38.7,-36.6,-149.10000000000002,16
979,16417.0,4.6000000000000005,1.1,0.9,12.4,-4.1000000000000005,-1.4000000000000001,36.2,-32.8,-162.6,16
980,16434.0,4.0,0.0,1.1,12.100000000000001,-4.7,-1.1,29.1,-22.4,-177.4,16
981,16451.0,3.7,-0.4,1.2000000000000002,12.0,-4.800000000000001,-1.0,25.1,-18.1,-184.9,16
982,16467.0,3.1,-1.4000000000000001,1.7000000000000002,11.600000000000001,-5.300000000000001,-0.5,25.7,-6.4,-199.30000000000004,16
983,16484.0,2.5,-2.6,1.9000000000000001,11.4,-5.9,-0.30000000000000004,32.2,-7.6,-213.1,16
984,16501.0,2.0,-4.0,1.8,11.100000000000001,-6.7,-0.4,43.00000000000001,-17.200000000000003,-225.60000000000002,16
985,16517.0,1.7000000000000002,-4.6000000000000005,1.7000000000000002,10.9,-7.0,-0.5,47.3,-23.6,-229.50000000000003,16
986,16534.0,0.9,-5.6000000000000005,1.3,10.3,-7.300000000000001,-0.9,51.0,-33.2,-231.5,16
987,16551.0,0.30000000000000004,-6.4,1.2000000000000002,9.700000000000001,-7.5,-1.2000000000000002,44.9,-36.9,-224.1,16
988,16567.0,0.0,-6.7,1.0,9.5,-7.5,-1.4000000000000001,39.400000000000006,-37.300000000000004,-217.70000000000005,16
989,16584.0,-0.1,-7.5,1.3,9.3,-7.6000000000000005,-1.2000000000000002,28.1,-34.0,-202.20000000000002,16
990,16601.0,-0.1,-8.4,1.2000000000000002,9.3,-8.1,-1.4000000000000001,21.400000000000002,-34.7,-189.4,16
991,16617.0,-0.4,-8.700000000000001,1.0,9.0,-8.1,-1.6,14.5,-34.60000000000001,-185.3,16
992,16635.0,-1.3,-9.3,1.5,8.0,-8.200000000000001,-1.2000000000000002,-2.4000000000000004,-33.50000000000001,-173.6,16
993,16651.0,-2.3000000000000003,-9.4,2.4000000000000004,6.9,-7.800000000000001,-0.5,-11.8,-28.200000000000003,-157.60000000000002,16
994,16667.0,-2.7,-9.600000000000001,2.6,6.4,-7.800000000000001,-0.2,-9.899999999999999,-22.4,-148.8,16
995,16684.0,-2.9000000000000004,-10.4,2.2,6.1000000000000005,-8.3,-0.6000000000000001,0.4,-6.699999999999999,-129.10000000000002,16
996,16701.0,-3.6,-10.9,1.2000000000000002,5.2,-8.6,-1.6,10.600000000000001,13.000000000000002,-105.80000000000001,16
997,16717.0,-5.2,-10.5,0.2,3.6,-8.0,-2.6,2.9,27.0,-73.5,16
998,16734.0,-6.1000000000000005,-9.9,0.0,2.6,-7.300000000000001,-2.7,-7.6,31.3,-51.800000000000004,16
999,16751.0,-7.1000000000000005,-8.9,0.2,1.6,-6.4,-2.4000000000000004,-27.2,35.599999999999994,7.200000000000001,16
1000,16767.0,-6.4,-8.1,0.5,2.3000000000000003,-5.9,-1.9000000000000001,-33.7,32.6,74.30000000000001,16
1001,16784.0,-5.7,-7.9,0.5,3.1,-5.9,-1.9000000000000001,-29.400000000000002,34.0,106.1,16
1002,16801.0,-3.3000000000000003,-7.5,0.0,5.5,-5.9,-2.3000000000000003,-13.5,33.2,152.1,16
1003,16817.0,-1.7000000000000002,-6.800000000000001,-0.8,7.300000000000001,-5.800000000000001,-2.9000000000000004,5.500000000000001,22.8,171.10000000000002,16
1004,16834.0,-1.2000000000000002,-6.4,-1.4000000000000001,7.800000000000001,-5.6000000000000005,-3.6,11.700000000000001,15.5,175.70000000000002,16
1005,16851.0,-0.5,-5.2,-2.5,8.5,-5.1000000000000005,-4.6000000000000005,6.500000000000001,1.2000000000000002,181.8,16
1006,16867.0,0.0,-4.2,-2.8000000000000003,8.9,-4.6000000000000005,-5.0,-12.600000000000001,-4.800000000000001,190.2,16
1007,16884.0,-0.1,-3.6,-2.7,8.6,-4.0,-4.4,-37.50000000000001,1.1,197.6,16
1008,16901.0,-0.30000000000000004,-2.4000000000000004,-1.9000000000000001,8.6,-3.8000000000000003,-4.2,-49.1,3.2,203.00000000000003,16
1009,16917.0,0.4,-1.7000000000000002,-1.0,9.1,-3.6,-3.3000000000000003,-68.4,11.2,211.0,16
1010,16936.0,1.8,-0.9,-0.1,10.4,-3.5,-2.3000000000000003,-76.4,17.1,206.99999999999997,16
1011,16951.0,2.5,-0.4,0.6000000000000001,11.0,-3.2,-1.7000000000000002,-77.80000000000001,15.899999999999999,197.4,16
1012,16967.0,2.7,0.30000000000000004,1.0,11.0,-2.9000000000000004,-1.3,-65.3,11.2,169.9,16
1013,16984.0,2.4000000000000004,1.0,0.8,10.600000000000001,-2.7,-1.6,-55.3,-1.8000000000000003,154.00000000000003,16
1014,17001.0,2.5,1.3,0.7000000000000001,10.600000000000001,-2.5,-1.7000000000000002,-53.400000000000006,-6.2,153.50000000000003,16
1015,17017.0,3.5,2.1,0.7000000000000001,11.4,-2.2,-1.8,-45.8,-2.5,158.2,16
1016,17034.0,4.6000000000000005,2.8000000000000003,0.2,12.3,-1.7000000000000002,-2.3000000000000003,-44.300000000000004,6.600000000000001,151.3,16
1017,17050.0,5.0,3.4000000000000004,0.0,12.600000000000001,-1.3,-2.6,-47.5,14.0,142.79999999999998,16
1018,17067.0,5.2,4.3,0.0,12.700000000000001,-0.7000000000000001,-2.7,-64.60000000000001,27.6,119.39999999999999,16
1019,17084.0,5.0,4.5,0.5,12.4,-0.6000000000000001,-2.2,-78.10000000000001,43.70000000000001,102.8,16
1020,17101.0,5.4,4.6000000000000005,1.2000000000000002,12.8,-0.7000000000000001,-1.5,-78.2,49.300000000000004,96.80000000000001,16
1021,17117.0,5.800000000000001,4.800000000000001,1.4000000000000001,13.100000000000001,-0.5,-1.3,-74.89999999999999,47.400000000000006,94.10000000000001,16
1022,17134.0,6.800000000000001,5.2,0.9,14.0,-0.30000000000000004,-1.8,-66.0,47.80000000000001,87.60000000000001,16
1023,17150.0,7.9,5.0,0.4,15.0,-0.5,-2.2,-74.89999999999999,50.7,79.9,16
1024,17167.0,8.4,4.9,0.9,15.600000000000001,-0.7000000000000001,-1.8,-84.3,51.9,78.60000000000001,16
1025,17184.0,9.3,5.5,3.3000000000000003,16.400000000000002,-0.2,0.6000000000000001,-82.39999999999999,44.5,73.9,16
1026,17201.0,9.600000000000001,6.6000000000000005,4.9,16.7,0.9,2.2,-39.599999999999994,18.700000000000003,49.300000000000004,16
1027,17217.0,9.700000000000001,6.6000000000000005,5.0,16.900000000000002,0.9,2.3000000000000003,-12.7,0.2,27.800000000000004,16
1028,17238.0,9.9,5.300000000000001,4.2,17.1,-0.30000000000000004,1.6,27.3,-32.9,-28.200000000000003,16
1029,17251.0,9.1,3.7,3.5,16.5,-1.7000000000000002,0.9,48.50000000000001,-41.300000000000004,-80.50000000000001,16
1030,17267.0,8.4,3.1,3.3000000000000003,15.200000000000001,-2.7,0.4,58.1,-36.2,-101.10000000000001,16
1031,17284.0,6.800000000000001,1.9000000000000001,2.7,14.600000000000001,-3.1,0.1,74.89999999999999,-21.7,-130.1,16
1032,17301.0,5.4,1.0,1.9000000000000001,13.4,-3.7,-0.5,83.80000000000001,-10.0,-150.1,16
1033,17317.0,4.4,0.1,1.3,12.700000000000001,-4.3,-1.0,81.3,-2.6,-160.50000000000003,16
1034,17334.0,4.0,-0.2,1.1,12.5,-4.4,-1.2000000000000002,78.3,1.6,-163.7,16
1035,17351.0,3.5,-1.0,0.7000000000000001,12.3,-4.7,-1.4000000000000001,74.2,10.1,-170.1,16
1036,17367.0,2.8000000000000003,-1.5,0.2,11.700000000000001,-4.800000000000001,-1.8,68.3,19.0,-179.1,16
1037,17384.0,2.2,-1.8,0.1,11.200000000000001,-4.800000000000001,-1.8,63.10000000000001,22.6,-184.1,16
1038,17400.0,0.8,-2.2,0.4,10.100000000000001,-4.7,-1.4000000000000001,53.10000000000001,26.200000000000003,-191.9,16
1039,17417.0,-0.1,-3.0,0.7000000000000001,9.3,-4.9,-0.9,49.1,25.900000000000002,-195.7,16
1040,17434.0,-0.5,-3.4000000000000004,0.9,9.0,-5.0,-0.7000000000000001,48.70000000000001,22.8,-196.4,16
1041,17451.0,-1.4000000000000001,-4.1000000000000005,1.4000000000000001,8.200000000000001,-5.1000000000000005,-0.1,54.9,15.2,-196.3,16
1042,17468.0,-2.2,-4.7,1.3,7.5,-5.2,-0.1,68.0,5.6,-192.40000000000003,16
1043,17484.0,-2.4000000000000004,-5.1000000000000005,1.2000000000000002,7.0,-5.4,-0.5,73.6,0.2,-188.9,16
1044,17501.0,-2.7,-6.0,0.7000000000000001,6.800000000000001,-5.6000000000000005,-0.8,76.89999999999999,-10.1,-180.0,16
1045,17517.0,-3.3000000000000003,-6.800000000000001,0.30000000000000004,6.300000000000001,-6.0,-1.2000000000000002,71.5,-14.200000000000001,-172.6,16
1046,17538.0,-3.9000000000000004,-7.5,0.4,5.5,-6.2,-1.2000000000000002,67.4,-13.399999999999999,-158.79999999999998,16
1047,17551.0,-4.1000000000000005,-7.800000000000001,0.4,5.300000000000001,-6.300000000000001,-1.2000000000000002,67.8,-15.8,-145.4,16
1048,17567.0,-4.2,-7.800000000000001,0.1,5.0,-6.1000000000000005,-1.6,68.0,-26.200000000000003,-108.2,16
1049,17584.0,-3.5,-7.7,-0.7000000000000001,5.6000000000000005,-5.9,-2.6,56.2,-36.6,-70.2,16
1050,17600.0,-3.0,-8.1,-1.0,6.1000000000000005,-6.2,-3.0,44.8,-34.2,-56.7,16
1051,17617.0,-2.6,-8.5,-1.1,6.5,-6.5,-3.1,12.0,-16.4,-39.300000000000004,16
1052,17634.0,-2.1,-9.5,-0.7000000000000001,6.9,-7.5,-2.8000000000000003,-16.3,6.500000000000001,-22.6,16
1053,17651.0,-1.9000000000000001,-10.0,-0.5,7.1000000000000005,-8.1,-2.5,-24.7,14.300000000000002,-11.5,16
1054,17667.0,-2.4000000000000004,-10.3,-0.2,6.6000000000000005,-8.4,-2.1,-33.1,25.6,14.700000000000001,16
1055,17684.0,-3.4000000000000004,-9.3,0.0,5.6000000000000005,-7.6000000000000005,-1.8,-30.599999999999998,30.4,50.400000000000006,16
1056,17701.0,-4.0,-8.0,-0.1,5.0,-6.6000000000000005,-1.8,-26.1,26.799999999999997,90.19999999999999,16
1057,17717.0,-3.7,-7.6000000000000005,-0.1,5.4,-6.4,-1.8,-24.5,22.1,109.7,16
1058,17734.0,-2.4000000000000004,-7.1000000000000005,-0.30000000000000004,6.7,-6.4,-1.9000000000000001,-19.1,10.700000000000001,140.4,16
1059,17751.0,-0.9,-6.6000000000000005,-0.6000000000000001,8.200000000000001,-6.4,-2.2,-11.6,-0.7,158.7,16
1060,17767.0,-0.30000000000000004,-6.300000000000001,-0.7000000000000001,8.8,-6.300000000000001,-2.3000000000000003,-6.300000000000001,-5.9,162.6,16
1061,17784.0,0.2,-5.300000000000001,-1.3,9.3,-5.9,-3.0,5.300000000000001,-13.3,162.4,16
1062,17801.0,-0.2,-4.1000000000000005,-1.9000000000000001,8.8,-5.300000000000001,-3.6,2.6,-18.5,163.80000000000004,16
1063,17817.0,-0.4,-3.7,-2.1,8.6,-5.1000000000000005,-3.9000000000000004,-4.800000000000001,-19.1,168.70000000000002,16
1064,17834.0,-0.2,-2.9000000000000004,-1.8,8.6,-4.9,-3.7,-25.5,-15.6,183.4,16
1065,17851.0,0.2,-2.0,-1.0,8.9,-4.6000000000000005,-2.9000000000000004,-44.8,-13.100000000000001,199.1,16
1066,17867.0,0.5,-1.5,-0.4,9.4,-4.3,-2.0,-48.70000000000001,-10.1,205.5,16
1067,17884.0,1.3,-0.8,0.30000000000000004,9.700000000000001,-4.3,-1.8,-45.099999999999994,-7.8,210.6,16
1068,17901.0,2.3000000000000003,0.2,0.7000000000000001,10.5,-3.9000000000000004,-1.4000000000000001,-38.900000000000006,-13.200000000000003,201.60000000000002,16
1069,17917.0,3.2,0.6000000000000001,0.8,11.100000000000001,-3.9000000000000004,-1.4000000000000001,-32.400000000000006,-22.3,182.3,16
1070,17934.0,3.4000000000000004,0.9,0.8,11.100000000000001,-3.8000000000000003,-1.5,-28.900000000000002,-23.900000000000006,172.2,16
1071,17950.0,3.7,1.2000000000000002,0.6000000000000001,11.100000000000001,-3.9000000000000004,-1.7000000000000002,-24.400000000000002,-23.099999999999998,160.50000000000003,16
1072,17967.0,4.0,1.7000000000000002,0.5,11.200000000000001,-3.8000000000000003,-1.9000000000000001,-24.5,-7.8,157.8,16
1073,17984.0,4.4,2.0,0.5,11.4,-3.7,-1.9000000000000001,-27.6,0.1,156.8,16
1074,18001.0,5.0,2.7,0.7000000000000001,11.8,-3.3000000000000003,-1.8,-36.7,13.5,147.8,16
1075,18017.0,5.5,3.2,0.9,12.100000000000001,-3.0,-1.6,-43.6,19.300000000000004,129.5,16
1076,18034.0,5.7,3.2,0.9,12.200000000000001,-3.1,-1.7000000000000002,-43.4,19.1,120.4,16
1077,18050.0,6.800000000000001,2.8000000000000003,0.8,13.100000000000001,-3.7,-1.8,-41.900000000000006,14.200000000000001,108.2,16
1078,18067.0,7.1000000000000005,3.2,1.0,13.200000000000001,-3.5,-1.7000000000000002,-41.300000000000004,11.8,102.7,16
1079,18084.0,7.9,4.0,1.4000000000000001,13.9,-2.7,-1.3,-39.8,18.1,101.4,16
1080,18101.0,8.3,4.7,1.6,14.200000000000001,-2.1,-1.2000000000000002,-37.2,23.400000000000002,96.0,16
1081,18117.0,9.4,5.6000000000000005,1.4000000000000001,15.200000000000001,-1.3,-1.4000000000000001,-27.400000000000002,39.0,75.4,16
1082,18134.0,9.700000000000001,6.2,1.5,15.5,-0.8,-1.2000000000000002,-14.400000000000002,44.4,44.5,16
1083,18151.0,9.3,6.800000000000001,1.6,15.200000000000001,-0.2,-1.1,-1.3,42.2,28.900000000000002,16
1084,18167.0,8.5,7.5,1.4000000000000001,14.5,0.5,-1.1,38.50000000000001,24.400000000000002,-1.6,16
1085,18184.0,8.200000000000001,6.5,0.9,14.200000000000001,-0.4,-1.5,73.30000000000001,-18.900000000000002,-38.900000000000006,16
1086,18200.0,8.1,5.6000000000000005,0.6000000000000001,14.3,-1.3,-1.7000000000000002,83.10000000000001,-48.70000000000001,-57.699999999999996,16
1087,18219.0,8.3,3.9000000000000004,0.0,14.700000000000001,-2.8000000000000003,-2.2,94.3,-95.5,-86.2,16
1088,18234.0,7.800000000000001,3.0,-0.30000000000000004,14.4,-3.5,-2.6,91.90000000000002,-108.3,-108.3,16
1089,18251.0,7.2,2.8000000000000003,-0.30000000000000004,13.9,-3.6,-2.7,85.30000000000001,-103.10000000000001,-118.3,16
1090,18267.0,6.5,2.1,0.0,13.4,-4.1000000000000005,-2.4000000000000004,65.6,-83.00000000000001,-136.9,16
1091,18284.0,5.9,1.1,0.8,13.100000000000001,-4.7,-1.7000000000000002,48.9,-67.00000000000001,-156.3,16
1092,18301.0,5.4,0.1,1.2000000000000002,13.0,-5.300000000000001,-1.3,46.800000000000004,-58.2,-172.29999999999998,16
1093,18317.0,5.2,-0.30000000000000004,1.1,12.9,-5.5,-1.4000000000000001,48.2,-54.6,-179.40000000000003,16
1094,18334.0,4.6000000000000005,-1.1,0.8,12.600000000000001,-5.800000000000001,-1.7000000000000002,46.199999999999996,-48.300000000000004,-194.20000000000002,16
1095,18350.0,4.0,-2.1,0.9,12.3,-6.300000000000001,-1.7000000000000002,36.0,-44.300000000000004,-209.8,16
1096,18367.0,3.7,-2.6,0.9,12.200000000000001,-6.6000000000000005,-1.7000000000000002,31.3,-41.900000000000006,-216.6,16
1097,18384.0,3.0,-3.9000000000000004,1.1,11.8,-7.2,-1.7000000000000002,26.799999999999997,-36.300000000000004,-227.90000000000003,16
1098,18401.0,1.9000000000000001,-4.5,1.2000000000000002,10.9,-7.2,-1.6,24.7,-35.3,-234.2,16
1099,18418.0,1.4000000000000001,-4.9,1.2000000000000002,10.5,-7.2,-1.6,22.4,-36.300000000000004,-235.70000000000002,16
1100,18434.0,0.5,-5.6000000000000005,1.5,9.700000000000001,-7.2,-1.4000000000000001,15.299999999999999,-39.8,-235.8,16
1101,18450.0,0.30000000000000004,-6.9,1.7000000000000002,9.600000000000001,-7.9,-1.3,10.5,-41.300000000000004,-230.6,16
1102,18467.0,0.2,-7.6000000000000005,1.7000000000000002,9.200000000000001,-8.3,-1.6,8.899999999999999,-41.50000000000001,-226.8,16
1103,18484.0,-0.5,-8.200000000000001,1.6,8.8,-8.200000000000001,-1.6,6.1000000000000005,-34.300000000000004,-216.20000000000002,16
1104,18501.0,-1.6,-8.8,1.3,7.7,-8.200000000000001,-1.9000000000000001,3.1,-16.6,-206.5,16
1105,18517.0,-3.0,-9.3,1.4000000000000001,6.2,-8.200000000000001,-1.8,-3.9,-1.9,-189.3,16
1106,18534.0,-3.6,-9.3,1.6,5.5,-8.0,-1.6,-4.9,-0.2,-174.7,16
1107,18551.0,-4.4,-9.200000000000001,2.0,4.5,-7.5,-1.3,0.8,-11.8,-141.5,16
1108,18567.0,-4.7,-9.1,2.0,4.1000000000000005,-7.1000000000000005,-1.3,8.600000000000001,-30.000000000000004,-110.9,16
1109,18584.0,-4.7,-9.1,1.9000000000000001,4.1000000000000005,-7.0,-1.5,10.9,-34.900000000000006,-97.2,16
1110,18602.0,-4.3,-9.600000000000001,1.6,4.3,-7.4,-1.8,10.0,-35.3,-70.2,16
1111,18617.0,-4.3,-10.100000000000001,1.3,4.2,-7.800000000000001,-2.2,-4.1,-25.8,-44.5,16
1112,18634.0,-4.6000000000000005,-10.200000000000001,1.4000000000000001,3.9000000000000004,-7.9,-2.2,-15.899999999999999,-18.6,-28.700000000000003,16
1113,18650.0,-5.9,-9.5,2.2,2.5,-7.2,-1.4000000000000001,-38.900000000000006,1.1,13.5,16
1114,18667.0,-6.300000000000001,-8.5,3.2,2.1,-6.4,-0.2,-46.0,20.1,72.80000000000001,16
1115,18684.0,-5.800000000000001,-8.3,3.5,3.6,-6.4,0.2,-40.6,29.400000000000002,106.20000000000002,16
1116,18702.0,-4.0,-7.9,3.2,4.5,-6.5,0.0,-19.5,44.00000000000001,163.20000000000002,16
1117,18717.0,-2.1,-7.300000000000001,2.1,6.6000000000000005,-6.5,-0.9,-3.2,44.8,196.5,16
1118,18734.0,0.1,-6.800000000000001,1.1,8.8,-6.7,-1.8,2.0,37.7,208.00000000000003,16
1119,18751.0,0.6000000000000001,-6.300000000000001,0.8,9.3,-6.4,-2.0,1.8000000000000003,33.2,206.89999999999998,16
1120,18767.0,0.8,-4.9,0.5,9.5,-5.800000000000001,-2.3000000000000003,-1.0,24.8,200.2,16
1121,18784.0,0.5,-3.7,0.1,9.200000000000001,-5.2,-2.6,-9.3,22.8,197.8,16
