,ms,accelX,accelY,accelZ,accelWithGX,accelWithGY,accelWithGZ,rotRateAlpha,rotRateBeta,rotRateGamma,interval
0,175.0,0.0,-0.1,0.4,-1.6,2.6,10.0,-0.30000000000000004,-0.2,0.30000000000000004,16
1,193.0,-0.1,0.0,0.1,-1.6,2.8000000000000003,9.4,-0.30000000000000004,-0.2,0.30000000000000004,16
2,216.0,0.1,0.1,-0.5,-1.5,2.9000000000000004,9.1,3.7000000000000006,-2.7,0.0,16
3,227.0,0.1,0.1,-0.5,-1.5,2.8000000000000003,9.0,1.9,-3.7000000000000006,-0.6000000000000001,16
4,243.0,0.1,0.2,-0.4,-1.4000000000000001,2.9000000000000004,9.0,-0.1,-4.6,-1.2000000000000002,16
5,261.0,-0.1,0.1,-0.2,-1.5,2.9000000000000004,9.200000000000001,-1.4,-4.9,-2.5,16
6,275.0,-0.1,0.0,-0.1,-1.6,2.7,9.4,-1.7,-3.6000000000000005,-1.8000000000000003,16
7,294.0,-0.1,0.0,-0.1,-1.6,2.8000000000000003,9.3,-0.1,-3.7000000000000006,-0.30000000000000004,16
8,318.0,-0.1,0.1,-0.1,-1.6,2.8000000000000003,9.3,1.7,-4.1,0.30000000000000004,16
9,326.0,-0.1,0.0,-0.2,-1.6,2.8000000000000003,9.1,1.7,-4.1,0.30000000000000004,16
10,342.0,0.0,0.1,-0.30000000000000004,-1.5,2.9000000000000004,9.1,2.6,-7.200000000000001,0.7,16
11,359.0,0.0,0.1,-0.2,-1.5,2.9000000000000004,9.200000000000001,2.0,-8.5,0.2,16
12,377.0,-0.1,0.0,-0.1,-1.5,2.8000000000000003,9.4,2.0,-8.5,0.2,16
13,394.0,-0.1,0.0,0.1,-1.5,2.8000000000000003,9.5,0.6000000000000001,-7.0,0.8,16
14,412.0,-0.1,-0.1,0.2,-1.5,2.8000000000000003,9.600000000000001,2.5,-6.600000000000001,1.5,16
15,426.0,-0.1,-0.1,0.30000000000000004,-1.5,2.7,9.600000000000001,2.5,-6.600000000000001,1.5,16
16,442.0,-0.1,-0.1,0.1,-1.5,2.7,9.3,5.2,-5.0,2.0,16
17,460.0,-0.1,0.0,-0.30000000000000004,-1.5,2.9000000000000004,9.0,9.4,-4.6,2.9,16
18,475.0,-0.1,0.0,-0.6000000000000001,-1.5,2.9000000000000004,8.8,9.700000000000001,-7.1000000000000005,2.4000000000000004,16
19,492.0,-0.1,0.0,-0.6000000000000001,-1.4000000000000001,2.9000000000000004,8.8,9.700000000000001,-7.1000000000000005,2.4000000000000004,16
20,509.0,-0.1,0.0,-0.30000000000000004,-1.5,3.0,9.0,6.300000000000001,-10.9,0.8,16
21,525.0,-0.30000000000000004,-0.1,-0.30000000000000004,-1.6,2.8000000000000003,9.0,4.2,-11.2,0.8,16
22,546.0,-0.4,-0.2,-0.30000000000000004,-1.7000000000000002,2.7,9.0,4.2,-11.2,0.8,16
23,559.0,-0.4,-0.30000000000000004,-0.2,-1.6,2.7,9.200000000000001,2.4000000000000004,-13.700000000000001,2.7,16
24,614.0,0.1,-0.1,1.4000000000000001,-1.0,2.9000000000000004,10.700000000000001,2.7,-22.3,4.1,16
25,626.0,0.1,-0.2,1.6,-0.9,2.7,11.0,8.2,-16.6,2.5,16
26,644.0,0.2,-0.30000000000000004,1.4000000000000001,-0.8,2.6,10.8,14.600000000000001,-7.6,0.9000000000000001,16
27,662.0,0.30000000000000004,-0.4,0.5,-0.7000000000000001,2.6,10.100000000000001,21.1,0.1,-1.0,16
28,675.0,0.2,-0.4,-0.1,-0.8,2.7,9.1,21.1,0.1,-1.0,16
29,693.0,0.2,-0.4,-0.6000000000000001,-0.8,2.7,9.1,25.1,1.7,-2.4000000000000004,16
30,709.0,0.1,-0.5,-1.3,-0.8,2.7,8.1,24.5,-3.5,-2.2,16
31,726.0,0.30000000000000004,-0.5,-1.2000000000000002,-0.6000000000000001,2.5,8.200000000000001,20.0,-10.8,-1.2000000000000002,16
32,742.0,0.0,-0.9,-0.9,-0.9,2.3000000000000003,8.5,4.0,-12.4,4.7,16
33,758.0,0.0,-0.9,-0.5,-0.8,2.2,8.8,-3.0,-5.2,11.900000000000002,16
34,775.0,0.2,-0.7000000000000001,-0.4,-0.4,2.6,8.9,-3.0,-5.2,11.900000000000002,16
35,792.0,0.6000000000000001,-0.30000000000000004,-0.6000000000000001,-0.1,2.9000000000000004,8.5,-6.699999999999999,0.8,14.800000000000002,16
36,808.0,0.7000000000000001,-0.30000000000000004,-0.9,0.0,2.8000000000000003,8.4,-12.7,-3.8,7.400000000000001,16
37,825.0,0.8,-0.30000000000000004,-0.8,0.30000000000000004,2.9000000000000004,8.5,-12.7,-3.8,7.400000000000001,16
38,842.0,1.1,-0.1,-0.8,0.5,2.7,8.6,-15.2,-8.5,2.1,16
39,859.0,1.0,-0.6000000000000001,-0.30000000000000004,0.30000000000000004,2.2,9.200000000000001,-21.300000000000004,-13.3,-10.4,16
40,875.0,0.7000000000000001,-0.9,0.4,0.1,1.9000000000000001,9.8,-22.000000000000004,-7.8,-10.5,16
41,892.0,0.6000000000000001,-1.0,0.7000000000000001,0.1,1.6,10.100000000000001,-22.000000000000004,-7.8,-10.5,16
42,908.0,1.1,-1.2000000000000002,0.5,0.5,1.5,9.700000000000001,-22.3,3.2,-8.4,16
43,925.0,0.8,-0.9,0.1,0.0,1.6,9.5,-26.400000000000006,10.8,-12.7,16
44,942.0,-0.4,-1.0,0.30000000000000004,-1.1,1.4000000000000001,9.700000000000001,-27.800000000000004,5.7,-10.4,16
45,959.0,-0.6000000000000001,-0.8,0.7000000000000001,-1.3,1.6,10.3,-27.800000000000004,5.7,-10.4,16
46,975.0,-0.5,-0.7000000000000001,1.2000000000000002,-1.1,1.6,10.700000000000001,-18.700000000000003,3.5,8.600000000000001,16
47,992.0,-0.1,-0.5,1.3,-0.7000000000000001,1.7000000000000002,10.8,-8.3,6.600000000000001,15.700000000000001,16
48,1015.0,0.6000000000000001,-0.1,0.5,-0.2,2.1,10.100000000000001,-0.5,10.9,16.8,16
49,1026.0,0.7000000000000001,0.0,-0.2,0.1,2.4000000000000004,8.9,-0.5,10.9,16.8,16
50,1042.0,0.9,0.2,-1.1,0.2,2.4000000000000004,8.4,-3.2,3.1,-0.9000000000000001,16
51,1059.0,0.8,0.0,-1.2000000000000002,0.0,2.0,8.200000000000001,-3.2,3.1,-0.9000000000000001,16
52,1075.0,0.7000000000000001,-0.5,-1.0,-0.1,1.7000000000000002,8.8,-10.200000000000001,-2.6,-8.4,16
53,1094.0,0.4,-0.4,-0.6000000000000001,-0.30000000000000004,1.8,9.5,-21.500000000000004,-13.200000000000003,-8.4,16
54,1108.0,0.4,-0.1,0.7000000000000001,-0.2,2.0,10.3,-21.7,-15.5,-6.4,16
55,1128.0,0.6000000000000001,0.1,1.5,0.0,2.0,11.0,-18.5,-12.4,-6.699999999999999,16
56,1142.0,0.7000000000000001,0.1,1.6,0.1,2.0,11.0,-18.5,-12.4,-6.699999999999999,16
57,1159.0,0.4,0.1,0.6000000000000001,-0.2,2.0,10.100000000000001,-6.8,1.4,-10.1,16
58,1177.0,0.1,0.0,-0.4,-0.4,1.9000000000000001,9.200000000000001,-4.6,0.30000000000000004,-8.600000000000001,16
59,1192.0,0.0,0.0,-0.7000000000000001,-0.5,1.8,8.8,-4.6,0.30000000000000004,-8.600000000000001,16
60,1208.0,-0.1,-0.2,-1.0,-0.6000000000000001,1.7000000000000002,8.6,-4.4,-10.5,-3.4,16
61,1225.0,0.0,0.0,-0.6000000000000001,-0.5,1.9000000000000001,8.9,-5.0,-15.100000000000001,-1.6,16
62,1242.0,0.2,0.2,-0.30000000000000004,0.0,2.2,9.600000000000001,-5.0,-15.100000000000001,-1.6,16
63,1259.0,0.6000000000000001,0.4,0.30000000000000004,0.2,2.3000000000000003,9.9,-5.4,-6.500000000000001,-5.300000000000001,16
64,1275.0,0.5,0.4,0.2,0.1,2.3000000000000003,9.700000000000001,-6.300000000000001,-0.4,-9.3,16
65,1292.0,0.2,0.30000000000000004,-0.1,-0.2,2.1,9.5,-7.200000000000001,1.2000000000000002,-11.4,16
66,1308.0,0.0,0.2,-0.1,-0.5,1.9000000000000001,9.5,-7.200000000000001,1.2000000000000002,-11.4,16
67,1325.0,-0.30000000000000004,-0.1,0.1,-0.8,1.7000000000000002,9.8,-6.1000000000000005,-2.6,-7.200000000000001,16
68,1342.0,-0.5,-0.2,0.4,-0.8,1.7000000000000002,9.8,-6.1000000000000005,-2.6,-7.200000000000001,16
69,1359.0,-0.4,-0.2,0.7000000000000001,-0.7000000000000001,1.7000000000000002,10.3,-5.0,-0.9000000000000001,-1.6,16
70,1375.0,0.0,0.0,0.7000000000000001,-0.4,1.8,10.4,-0.30000000000000004,1.4,3.9,16
71,1392.0,0.30000000000000004,0.2,0.6000000000000001,-0.1,2.0,10.200000000000001,3.8,3.6000000000000005,3.1,16
72,1409.0,0.2,0.2,0.2,-0.2,2.0,9.8,7.0,0.9000000000000001,1.6,16
73,1425.0,0.1,0.1,0.0,-0.30000000000000004,1.9000000000000001,9.5,7.0,0.9000000000000001,1.6,16
74,1442.0,0.1,0.1,-0.30000000000000004,-0.30000000000000004,1.9000000000000001,9.3,9.0,-5.1000000000000005,3.2,16
75,1459.0,0.1,0.1,-0.30000000000000004,-0.30000000000000004,1.9000000000000001,9.3,9.0,-5.1000000000000005,3.2,16
76,1475.0,0.2,0.2,-0.2,-0.1,2.1,9.4,10.0,-5.7,4.9,16
77,1492.0,0.30000000000000004,0.30000000000000004,-0.30000000000000004,0.0,2.3000000000000003,9.3,13.200000000000003,-2.2,5.6,16
78,1508.0,0.4,0.5,-0.5,0.0,2.5,9.0,14.100000000000001,-0.7,4.1,16
79,1526.0,0.30000000000000004,0.5,-0.7000000000000001,-0.1,2.5,8.8,14.100000000000001,-0.7,4.1,16
80,1543.0,0.0,0.30000000000000004,-0.8,-0.30000000000000004,2.4000000000000004,8.8,13.100000000000001,-3.5,2.8,16
81,1558.0,0.0,0.2,-0.6000000000000001,-0.30000000000000004,2.2,8.9,6.1000000000000005,-9.3,5.500000000000001,16
82,1576.0,0.1,-0.30000000000000004,-0.2,-0.1,1.9000000000000001,9.3,2.6,-10.299999999999999,7.200000000000001,16
83,1592.0,0.30000000000000004,0.5,0.5,0.1,2.5,9.9,2.6,-10.299999999999999,7.200000000000001,16
84,1608.0,0.4,0.6000000000000001,0.4,0.30000000000000004,2.8000000000000003,9.700000000000001,6.4,9.0,3.9,16
85,1625.0,0.4,0.5,-0.30000000000000004,0.1,2.6,9.1,8.0,11.3,1.4,16
86,1642.0,-0.1,0.1,-0.7000000000000001,-0.30000000000000004,2.4000000000000004,8.8,7.200000000000001,8.5,1.8000000000000003,16
87,1659.0,-0.30000000000000004,0.1,-0.7000000000000001,-0.6000000000000001,2.3000000000000003,8.9,7.200000000000001,8.5,1.8000000000000003,16
88,1675.0,-0.30000000000000004,0.1,-0.1,-0.5,2.3000000000000003,9.5,3.6000000000000005,-1.1,8.600000000000001,16
89,1692.0,0.0,0.0,0.6000000000000001,-0.2,2.3000000000000003,10.100000000000001,4.800000000000001,2.2,10.4,16
90,1709.0,0.30000000000000004,0.0,0.7000000000000001,0.1,2.3000000000000003,10.3,4.800000000000001,2.2,10.4,16
91,1725.0,0.5,0.1,0.7000000000000001,0.30000000000000004,2.4000000000000004,10.200000000000001,8.5,15.299999999999999,8.5,16
92,1742.0,0.7000000000000001,0.1,0.4,0.30000000000000004,2.5,9.9,9.700000000000001,14.0,5.7,16
93,1760.0,0.4,0.2,0.4,0.1,2.5,9.9,9.4,7.200000000000001,2.0,16
94,1775.0,0.1,0.1,0.7000000000000001,-0.5,2.5,10.3,9.4,7.200000000000001,2.0,16
95,1792.0,-0.6000000000000001,0.0,1.2000000000000002,-1.0,2.4000000000000004,10.8,5.8,-2.6,5.0,16
96,1808.0,-0.7000000000000001,0.0,1.4000000000000001,-1.0,2.4000000000000004,10.8,5.8,-2.6,5.0,16
97,1825.0,-0.5,0.0,1.2000000000000002,-0.6000000000000001,2.4000000000000004,10.600000000000001,5.2,0.0,10.9,16
98,1842.0,0.1,-0.2,0.8,-0.2,2.2,10.4,5.1000000000000005,14.900000000000002,16.700000000000003,16
99,1860.0,0.4,-0.4,0.5,-0.1,2.0,10.0,8.100000000000001,21.500000000000004,16.4,16
100,1876.0,0.0,-0.9,-0.4,-0.5,1.6,9.200000000000001,11.6,20.0,19.5,16
101,1892.0,0.2,-0.30000000000000004,-0.1,-0.4,2.4000000000000004,9.4,11.6,20.0,19.5,16
102,1910.0,-0.2,0.1,-0.8,-0.8,2.7,8.700000000000001,19.400000000000002,13.5,19.200000000000003,16
103,1926.0,-0.2,0.2,-0.9,-0.7000000000000001,2.9000000000000004,8.700000000000001,18.900000000000002,6.600000000000001,18.8,16
104,1942.0,0.1,0.1,-0.9,-0.2,2.6,8.6,18.900000000000002,6.600000000000001,18.8,16
105,1959.0,0.6000000000000001,-0.2,-0.7000000000000001,0.0,2.5,8.9,8.5,9.5,11.8,16
106,1976.0,0.30000000000000004,-0.4,-0.4,-0.30000000000000004,2.3000000000000003,9.0,7.6,13.8,8.700000000000001,16
107,1993.0,0.2,-0.6000000000000001,-0.30000000000000004,-0.6000000000000001,2.0,9.0,7.6,13.8,8.700000000000001,16
108,2010.0,-0.1,-0.8,-0.8,-0.8,2.0,8.4,10.200000000000001,17.1,8.8,16
109,2025.0,-0.2,-0.6000000000000001,-1.6,-0.8,2.2,7.800000000000001,13.200000000000003,7.9,13.000000000000002,16
110,2042.0,-0.1,-0.30000000000000004,-1.6,-0.7000000000000001,2.5,7.7,9.8,-2.2,12.5,16
111,2058.0,0.0,-0.2,-1.4000000000000001,-0.6000000000000001,2.7,8.3,9.8,-2.2,12.5,16
112,2075.0,0.2,-0.1,-0.6000000000000001,-0.4,2.8000000000000003,9.0,1.2000000000000002,-16.1,3.7000000000000006,16
113,2092.0,0.0,-0.2,0.30000000000000004,-0.5,2.6,9.700000000000001,-2.2,-17.799999999999997,-0.9000000000000001,16
114,2108.0,-0.1,-0.30000000000000004,0.7000000000000001,-0.7000000000000001,2.6,10.4,-2.2,-17.799999999999997,-0.9000000000000001,16
115,2125.0,-0.30000000000000004,-0.30000000000000004,1.5,-0.7000000000000001,2.6,11.0,-4.300000000000001,-18.0,-3.0,16
116,2142.0,-0.4,-0.1,1.9000000000000001,-0.8,2.7,11.3,-0.5,-14.400000000000002,-5.2,16
117,2158.0,-0.4,-0.2,1.9000000000000001,-0.7000000000000001,2.6,11.100000000000001,-0.5,-14.400000000000002,-5.2,16
118,2175.0,-0.2,-0.2,1.4000000000000001,-0.6000000000000001,2.6,10.5,3.5,-8.600000000000001,-5.7,16
119,2192.0,-0.2,-0.2,0.30000000000000004,-0.5,2.7,9.4,7.1000000000000005,5.300000000000001,-5.8,16
120,2209.0,-0.1,-0.1,-0.7000000000000001,-0.6000000000000001,2.8000000000000003,8.700000000000001,5.6,7.300000000000001,-6.0,16
121,2225.0,-0.30000000000000004,0.0,-0.9,-0.7000000000000001,2.9000000000000004,8.1,5.6,7.300000000000001,-6.0,16
122,2242.0,-0.1,-0.1,-1.6,-0.6000000000000001,2.8000000000000003,7.800000000000001,3.4,8.100000000000001,-3.9,16
123,2259.0,-0.30000000000000004,-0.1,-1.4000000000000001,-0.8,2.8000000000000003,8.1,-3.4,-0.7,-4.4,16
124,2276.0,-0.5,-0.1,-1.1,-1.0,2.7,8.5,-3.4,-0.7,-4.4,16
125,2292.0,-0.6000000000000001,-0.2,-0.6000000000000001,-0.9,2.7,8.9,-5.1000000000000005,-3.2,-2.6,16
126,2309.0,-0.2,0.0,-0.2,-0.6000000000000001,2.9000000000000004,9.3,0.1,-7.500000000000001,0.8,16
127,2325.0,0.0,0.1,0.0,-0.4,3.0,9.4,7.400000000000001,-8.5,-1.0,16
128,2343.0,0.1,0.1,-0.30000000000000004,-0.30000000000000004,3.0,8.6,7.400000000000001,-8.5,-1.0,16
129,2359.0,0.0,0.0,-1.2000000000000002,-0.6000000000000001,2.9000000000000004,8.1,10.9,-8.100000000000001,-4.7,16
130,2375.0,-0.8,-0.30000000000000004,-1.0,-1.2000000000000002,2.6,8.6,3.7000000000000006,-24.200000000000003,-2.8,16
131,2392.0,-1.0,0.1,0.9,-1.2000000000000002,3.0,10.200000000000001,4.6,-21.400000000000002,5.0,16
132,2408.0,-0.5,0.0,0.7000000000000001,-0.6000000000000001,2.9000000000000004,10.0,4.6,-21.400000000000002,5.0,16
133,2426.0,-0.5,-0.1,0.7000000000000001,-0.7000000000000001,3.0,10.100000000000001,8.600000000000001,-6.500000000000001,14.400000000000002,16
134,2444.0,-0.4,0.30000000000000004,0.7000000000000001,-0.6000000000000001,3.4000000000000004,10.0,17.9,-7.400000000000001,14.100000000000001,16
135,2458.0,-0.30000000000000004,0.8,0.6000000000000001,-0.30000000000000004,4.1000000000000005,9.3,17.9,-7.400000000000001,14.100000000000001,16
136,2476.0,0.0,0.7000000000000001,-1.3,-0.30000000000000004,3.4000000000000004,7.7,31.099999999999998,-12.0,7.8,16
137,2492.0,-0.6000000000000001,0.30000000000000004,-1.1,-0.5,3.7,8.3,22.9,-25.8,3.6000000000000005,16
138,2512.0,-0.2,0.6000000000000001,-0.8,-0.2,3.9000000000000004,8.4,14.5,-12.5,1.3,16
139,2525.0,-0.1,0.6000000000000001,-1.2000000000000002,0.0,4.0,8.1,14.5,-12.5,1.3,16
140,2543.0,0.1,0.6000000000000001,-1.1,0.2,4.0,8.0,-1.6,-7.1000000000000005,-7.0,16
141,2559.0,0.0,0.6000000000000001,-1.3,0.1,4.0,7.800000000000001,-8.5,-7.6,-10.299999999999999,16
142,2575.0,-0.2,0.6000000000000001,-1.2000000000000002,-0.1,3.8000000000000003,8.0,-8.5,-7.6,-10.299999999999999,16
143,2592.0,-0.4,0.4,-1.1,-0.4,3.6,8.200000000000001,-10.9,-13.100000000000001,-12.5,16
144,2609.0,-0.6000000000000001,0.2,-0.9,-0.4,3.4000000000000004,8.6,-10.0,-31.799999999999997,-11.2,16
145,2625.0,-0.6000000000000001,0.2,-0.30000000000000004,-0.2,3.4000000000000004,9.3,-10.0,-31.799999999999997,-11.2,16
146,2642.0,-0.30000000000000004,0.2,0.4,0.0,3.5,9.8,-7.200000000000001,-35.699999999999996,-10.0,16
147,2658.0,-0.30000000000000004,0.30000000000000004,0.8,0.2,3.4000000000000004,10.0,-7.6,-18.6,-9.5,16
148,2675.0,-0.30000000000000004,0.0,0.6000000000000001,0.1,3.2,9.9,-9.8,-13.6,-9.899999999999999,16
149,2692.0,-0.4,-0.1,0.8,0.2,2.9000000000000004,9.9,-9.8,-13.6,-9.899999999999999,16
150,2709.0,-0.2,-0.2,0.4,0.30000000000000004,2.8000000000000003,9.5,-18.1,-2.9,-7.0,16
151,2725.0,0.30000000000000004,-0.2,-0.4,0.7000000000000001,2.8000000000000003,8.9,-26.5,-3.6000000000000005,-8.4,16
152,2742.0,0.6000000000000001,-0.1,0.1,1.1,2.8000000000000003,9.4,-32.1,-7.6,-12.4,16
153,2758.0,0.7000000000000001,-0.30000000000000004,0.6000000000000001,1.3,2.4000000000000004,10.0,-32.1,-7.6,-12.4,16
154,2775.0,0.7000000000000001,-0.7000000000000001,0.7000000000000001,1.0,2.1,10.100000000000001,-25.4,-9.100000000000001,-20.7,16
155,2794.0,-0.1,-1.0,0.5,0.4,1.7000000000000002,9.9,-16.8,-12.8,-21.8,16
156,2809.0,-0.30000000000000004,-1.1,0.30000000000000004,0.2,1.5,9.5,-16.8,-12.8,-21.8,16
157,2826.0,-0.30000000000000004,-1.1,0.1,0.30000000000000004,1.7000000000000002,9.5,-0.8,-18.200000000000003,-14.100000000000001,16
158,2842.0,-0.1,-0.8,0.0,0.5,1.9000000000000001,9.3,5.500000000000001,-21.0,-11.6,16
159,2858.0,-0.1,-0.7000000000000001,-0.1,0.7000000000000001,2.1,9.4,5.500000000000001,-21.0,-11.6,16
160,2875.0,0.30000000000000004,-0.6000000000000001,0.2,1.1,2.1,9.600000000000001,9.0,-25.0,-11.1,16
161,2892.0,0.7000000000000001,-0.7000000000000001,0.5,1.6,2.1,9.8,10.700000000000001,-23.3,-14.5,16
162,2908.0,1.3,-0.4,0.7000000000000001,2.2,2.4000000000000004,10.0,12.0,-22.000000000000004,-20.400000000000002,16
163,2925.0,1.5,-0.2,0.7000000000000001,2.5,2.7,9.9,12.0,-22.000000000000004,-20.400000000000002,16
164,2942.0,1.7000000000000002,-0.1,0.30000000000000004,2.2,2.7,9.5,12.7,-31.9,-40.800000000000004,16
165,2959.0,-0.7000000000000001,-0.8,-0.1,0.1,2.1,9.1,5.4,-31.7,-39.1,16
166,2977.0,-1.5,-0.9,-0.5,-0.5,2.0,8.6,-9.3,-19.400000000000002,-24.3,16
167,2993.0,-1.3,-0.9,-0.8,0.30000000000000004,1.9000000000000001,8.8,-9.3,-19.400000000000002,-24.3,16
168,3013.0,0.7000000000000001,-0.7000000000000001,0.6000000000000001,1.9000000000000001,2.1,10.100000000000001,-26.1,-2.7,-5.6,16
169,3027.0,1.0,-0.5,1.3,2.0,2.2,10.600000000000001,-18.700000000000003,9.0,-6.699999999999999,16
170,3042.0,0.5,-0.7000000000000001,0.9,0.2,0.4,9.0,-18.700000000000003,9.0,-6.699999999999999,16
171,3058.0,1.3,-0.9,-1.9000000000000001,2.4000000000000004,2.4000000000000004,7.9,-19.5,3.2,3.5,16
172,3075.0,0.5,1.4000000000000001,-1.2000000000000002,1.3,3.9000000000000004,8.1,-19.9,-1.1,-6.9,16
173,3092.0,-0.1,0.9,-0.5,0.8,3.4000000000000004,8.8,-13.3,-14.600000000000001,-13.8,16
174,3108.0,0.4,0.6000000000000001,0.2,1.5,3.0,9.5,-13.3,-14.600000000000001,-13.8,16
175,3126.0,0.5,0.30000000000000004,-0.2,1.5,2.8000000000000003,9.1,-3.6000000000000005,-1.8000000000000003,-21.200000000000003,16
176,3142.0,0.2,-0.1,-1.1,1.2000000000000002,2.4000000000000004,8.200000000000001,-8.0,7.500000000000001,-21.500000000000004,16
177,3158.0,0.2,-0.2,-1.4000000000000001,1.1,2.4000000000000004,8.200000000000001,-8.0,7.500000000000001,-21.500000000000004,16
178,3175.0,-0.2,0.30000000000000004,-0.8,0.7000000000000001,2.8000000000000003,8.6,-15.700000000000001,12.7,-16.4,16
179,3192.0,-0.30000000000000004,0.6000000000000001,0.1,0.6000000000000001,3.0,9.5,-9.8,9.5,-13.000000000000002,16
180,3211.0,-0.1,0.5,0.8,0.7000000000000001,3.0,10.200000000000001,1.3,16.200000000000003,-10.9,16
181,3226.0,0.2,0.30000000000000004,0.5,1.1,2.6,9.600000000000001,1.3,16.200000000000003,-10.9,16
182,3243.0,0.6000000000000001,0.1,-0.5,1.2000000000000002,2.7,8.8,6.8,25.6,-5.6,16
183,3258.0,0.0,0.4,-0.9,0.6000000000000001,2.9000000000000004,8.5,2.5,19.6,-3.8,16
184,3275.0,-0.5,0.6000000000000001,-0.8,-0.1,3.1,8.4,2.5,19.6,-3.8,16
185,3292.0,-0.9,0.8,-0.8,-0.30000000000000004,3.4000000000000004,8.4,-4.5,9.600000000000001,6.1000000000000005,16
186,3309.0,-0.6000000000000001,1.0,-1.3,0.0,3.5,8.1,-2.9,-2.4000000000000004,9.700000000000001,16
187,3325.0,-0.30000000000000004,1.2000000000000002,-1.0,0.4,3.7,8.6,2.5,-11.4,10.200000000000001,16
188,3346.0,0.2,0.8,-0.5,0.8,3.4000000000000004,8.700000000000001,7.0,-20.900000000000002,9.3,16
189,3361.0,0.30000000000000004,0.7000000000000001,-0.2,1.0,3.3000000000000003,9.200000000000001,9.0,-20.400000000000002,10.0,16
190,3375.0,0.30000000000000004,0.8,0.1,1.1,3.4000000000000004,9.4,10.299999999999999,-17.5,10.0,16
191,3392.0,0.2,0.8,0.1,0.9,3.3000000000000003,9.3,10.299999999999999,-17.5,10.0,16
192,3408.0,-0.4,0.1,-1.1,0.6000000000000001,3.2,8.700000000000001,15.100000000000001,-36.0,14.300000000000002,16
193,3425.0,-0.30000000000000004,0.8,0.2,0.9,3.5,9.5,22.000000000000004,-49.4,16.3,16
194,3442.0,0.4,0.5,0.5,1.7000000000000002,3.3000000000000003,9.700000000000001,28.700000000000003,-58.2,17.6,16
195,3458.0,0.30000000000000004,0.6000000000000001,0.8,1.7000000000000002,3.3000000000000003,10.0,28.700000000000003,-58.2,17.6,16
196,3475.0,0.30000000000000004,0.2,0.7000000000000001,1.9000000000000001,3.1,9.8,37.300000000000004,-60.300000000000004,19.799999999999997,16
197,3495.0,0.2,-0.1,1.2000000000000002,2.0,2.9000000000000004,10.3,39.8,-54.50000000000001,21.400000000000002,16
198,3512.0,0.5,0.0,0.0,2.4000000000000004,3.1,9.200000000000001,40.0,-47.60000000000001,22.4,16
199,3525.0,0.30000000000000004,0.0,-0.6000000000000001,2.3000000000000003,3.3000000000000003,8.3,35.4,-49.4,21.300000000000004,16
200,3542.0,0.0,-0.1,-0.7000000000000001,2.3000000000000003,3.2,8.200000000000001,26.9,-54.0,21.900000000000002,16
201,3558.0,0.2,-0.1,-0.7000000000000001,2.7,3.3000000000000003,8.3,26.9,-54.0,21.900000000000002,16
202,3575.0,0.4,-0.1,-0.1,3.1,3.0,9.0,17.200000000000003,-59.00000000000001,20.7,16
203,3592.0,0.30000000000000004,-0.7000000000000001,1.0,3.1,2.6,9.8,5.300000000000001,-56.800000000000004,17.300000000000004,16
204,3608.0,0.2,-0.9,1.1,2.8000000000000003,1.6,8.5,5.300000000000001,-56.800000000000004,17.300000000000004,16
205,3625.0,-0.1,-2.0,-0.30000000000000004,2.8000000000000003,1.3,8.0,8.100000000000001,-64.7,20.5,16
206,3642.0,-0.8,-1.6,-0.9,2.5,2.0,7.7,10.299999999999999,-91.2,40.4,16
207,3658.0,-1.1,-0.30000000000000004,0.1,2.6,3.0,8.6,17.300000000000004,-98.60000000000001,46.199999999999996,16
208,3675.0,-1.1,0.1,1.1,2.7,2.8000000000000003,9.3,17.300000000000004,-98.60000000000001,46.199999999999996,16
209,3693.0,-0.4,0.0,1.2000000000000002,4.2,3.4000000000000004,8.8,29.300000000000004,-92.7,50.400000000000006,16
210,3711.0,-0.5,-0.8,0.8,3.7,2.4000000000000004,8.8,22.3,-42.400000000000006,44.10000000000001,16
211,3725.0,-1.0,-1.0,0.5,3.3000000000000003,2.1,8.3,22.3,-42.400000000000006,44.10000000000001,16
212,3745.0,-1.3,-1.2000000000000002,0.0,3.3000000000000003,2.1,7.9,21.6,-25.300000000000004,53.599999999999994,16
213,3759.0,-1.2000000000000002,-0.9,-0.4,3.6,2.5,7.5,27.700000000000003,-18.8,76.0,16
214,3775.0,-0.1,0.2,-0.30000000000000004,4.7,3.4000000000000004,7.6000000000000005,33.400000000000006,-26.1,76.60000000000001,16
215,3793.0,0.4,0.7000000000000001,0.1,5.5,3.8000000000000003,8.1,33.400000000000006,-26.1,76.60000000000001,16
216,3809.0,0.6000000000000001,0.5,0.9,5.6000000000000005,3.4000000000000004,8.700000000000001,39.599999999999994,-32.8,66.80000000000001,16
217,3826.0,0.4,-0.30000000000000004,1.3,5.5,2.9000000000000004,8.8,47.7,-17.300000000000004,55.400000000000006,16
218,3846.0,0.2,-0.1,0.4,5.4,3.1,8.0,47.3,-5.8,56.50000000000001,16
219,3859.0,0.1,0.1,-0.1,5.300000000000001,3.4000000000000004,7.1000000000000005,47.3,-5.8,56.50000000000001,16
220,3877.0,0.0,0.4,-0.8,5.300000000000001,3.6,6.6000000000000005,31.2,-5.9,55.900000000000006,16
221,3892.0,0.1,0.5,-0.6000000000000001,5.5,3.6,6.9,23.900000000000006,-11.700000000000001,51.4,16
222,3911.0,0.0,0.1,0.1,5.5,3.3000000000000003,7.4,22.2,-13.700000000000001,45.9,16
223,3931.0,-0.7000000000000001,-0.30000000000000004,-0.7000000000000001,4.800000000000001,2.5,6.9,20.8,-8.100000000000001,45.8,16
224,3942.0,-0.5,0.4,-1.2000000000000002,4.9,3.3000000000000003,6.0,13.200000000000003,-2.8,43.4,16
225,3960.0,-1.2000000000000002,-0.4,-2.1,4.4,2.6,5.2,3.0,-8.2,42.800000000000004,16
226,3980.0,-0.9,-0.2,-1.8,4.7,2.7,5.5,-9.3,-8.899999999999999,41.800000000000004,16
227,3992.0,-1.1,-0.4,-1.8,4.6000000000000005,2.4000000000000004,5.4,-16.3,-12.7,39.400000000000006,16
228,4009.0,-1.0,-0.6000000000000001,-2.0,4.800000000000001,2.1,5.2,-18.1,-21.500000000000004,37.9,16
229,4026.0,-1.0,-0.6000000000000001,-2.1,4.800000000000001,2.0,4.9,-18.1,-21.500000000000004,37.9,16
230,4044.0,-1.1,-0.5,-1.9000000000000001,5.0,2.0,5.5,-16.700000000000003,-40.1,39.50000000000001,16
231,4058.0,-0.5,-0.8,1.3,5.800000000000001,1.4000000000000001,8.3,-8.0,-74.0,50.8,16
232,4075.0,-0.30000000000000004,-1.3,1.7000000000000002,6.1000000000000005,0.6000000000000001,9.700000000000001,8.899999999999999,-70.4,61.300000000000004,16
233,4092.0,-0.2,-1.4000000000000001,2.5,6.1000000000000005,0.7000000000000001,8.0,8.899999999999999,-70.4,61.300000000000004,16
234,4109.0,-1.2000000000000002,-0.7000000000000001,0.4,5.7,1.7000000000000002,6.5,49.300000000000004,-76.4,62.4,16
235,4125.0,-0.5,0.0,-1.8,6.5,2.1,4.5,53.50000000000001,-88.00000000000001,56.10000000000001,16
236,4142.0,-0.4,-0.2,-2.2,6.7,2.0,3.9000000000000004,53.50000000000001,-88.00000000000001,56.10000000000001,16
237,4163.0,-0.5,-0.30000000000000004,-1.5,6.9,1.9000000000000001,4.1000000000000005,29.500000000000004,-107.4,41.199999999999996,16
238,4175.0,-0.30000000000000004,-0.7000000000000001,0.30000000000000004,7.300000000000001,1.2000000000000002,5.800000000000001,16.900000000000002,-96.30000000000001,36.0,16
239,4192.0,0.1,-1.3,0.1,7.800000000000001,0.7000000000000001,5.4,8.4,-79.5,32.5,16
240,4208.0,0.0,-1.5,0.0,7.6000000000000005,0.4,5.1000000000000005,8.4,-79.5,32.5,16
241,4228.0,-0.5,-1.6,-0.30000000000000004,7.5,0.1,4.7,-1.2000000000000002,-73.8,32.8,16
242,4243.0,-0.7000000000000001,-2.1,-0.2,7.300000000000001,-0.4,4.6000000000000005,-2.3,-83.30000000000001,39.2,16
243,4258.0,-0.9,-2.3000000000000003,0.0,7.4,-0.9,4.7,-2.3,-83.30000000000001,39.2,16
244,4276.0,-0.5,-2.6,0.30000000000000004,8.0,-1.3,4.7,-0.2,-91.30000000000001,59.9,16
245,4292.0,0.2,-2.7,0.2,8.8,-1.5,4.4,-0.2,-90.5,66.1,16
246,4308.0,0.6000000000000001,-2.7,0.0,9.5,-1.6,3.7,-0.2,-90.5,66.1,16
247,4326.0,1.2000000000000002,-2.7,-0.7000000000000001,10.0,-1.9000000000000001,2.9000000000000004,-8.700000000000001,-84.69999999999999,68.2,16
248,4344.0,1.5,-2.9000000000000004,-1.0,10.4,-2.3000000000000003,2.7,-54.199999999999996,-69.10000000000001,66.1,16
249,4359.0,1.8,-2.9000000000000004,-0.1,10.700000000000001,-2.6,3.3000000000000003,-83.2,-57.20000000000001,64.7,16
250,4375.0,1.9000000000000001,-3.0,0.4,11.0,-3.0,4.2,-83.2,-57.20000000000001,64.7,16
251,4392.0,2.2,-2.8000000000000003,1.4000000000000001,11.3,-3.1,4.800000000000001,-124.60000000000001,-28.700000000000003,65.7,16
252,4409.0,2.5,-2.4000000000000004,1.9000000000000001,11.600000000000001,-3.0,5.2,-138.40000000000003,-10.9,65.6,16
253,4425.0,2.6,-2.0,2.0,11.600000000000001,-2.6,5.4,-138.40000000000003,-10.9,65.6,16
254,4443.0,2.3000000000000003,-1.2000000000000002,2.2,11.200000000000001,-2.1,5.5,-144.70000000000002,1.3,65.2,16
255,4458.0,1.9000000000000001,-0.1,2.4000000000000004,10.9,-1.6,5.6000000000000005,-135.7,5.4,63.70000000000001,16
256,4479.0,1.7000000000000002,0.7000000000000001,2.8000000000000003,10.600000000000001,-1.2000000000000002,6.0,-124.8,3.0,62.4,16
257,4496.0,1.9000000000000001,1.0,3.3000000000000003,10.8,-1.2000000000000002,6.4,-104.9,-2.4000000000000004,59.60000000000001,16
258,4514.0,1.7000000000000002,0.8,3.4000000000000004,10.700000000000001,-1.5,6.5,-84.5,-4.0,58.0,16
259,4528.0,1.7000000000000002,0.9,3.1,10.700000000000001,-1.6,6.1000000000000005,-65.8,-4.4,59.80000000000001,16
260,4543.0,2.0,1.1,2.5,10.8,-1.7000000000000002,5.6000000000000005,-49.699999999999996,-8.5,61.7,16
261,4559.0,2.3000000000000003,1.4000000000000001,2.4000000000000004,11.4,-1.3,5.300000000000001,-49.699999999999996,-8.5,61.7,16
262,4575.0,2.8000000000000003,2.0,2.0,11.600000000000001,-0.9,4.9,-27.9,-15.100000000000001,56.400000000000006,16
263,4592.0,2.7,2.5,1.6,11.5,-0.7000000000000001,4.5,-26.5,-12.7,48.2,16
264,4609.0,2.6,2.8000000000000003,1.5,11.4,-0.4,4.3,-26.5,-12.7,48.2,16
265,4626.0,2.3000000000000003,3.1,1.4000000000000001,11.0,-0.30000000000000004,4.3,-35.599999999999994,0.5,25.1,16
266,4645.0,1.6,3.0,1.4000000000000001,10.4,-0.5,4.3,-39.50000000000001,5.7,13.399999999999999,16
267,4659.0,1.2000000000000002,2.8000000000000003,1.5,9.700000000000001,-0.9,4.5,-39.50000000000001,5.7,13.399999999999999,16
268,4675.0,0.6000000000000001,2.3000000000000003,1.8,9.3,-1.2000000000000002,4.6000000000000005,-39.599999999999994,8.899999999999999,6.1000000000000005,16
269,4695.0,0.4,2.1,1.8,9.200000000000001,-1.3,4.7,-27.5,15.6,0.4,16
270,4708.0,0.1,2.1,1.8,8.9,-1.3,4.7,-17.5,18.3,-3.0,16
271,4725.0,0.1,2.2,1.4000000000000001,8.8,-1.4000000000000001,4.0,-17.5,18.3,-3.0,16
272,4748.0,0.0,1.9000000000000001,0.30000000000000004,8.8,-1.5,3.4000000000000004,-5.8,18.6,-7.300000000000001,16
273,4759.0,0.0,1.8,0.0,8.700000000000001,-1.6,3.0,-7.1000000000000005,19.9,-9.4,16
274,4775.0,-0.1,1.6,-0.2,8.6,-1.8,2.7,-7.1000000000000005,19.9,-9.4,16
275,4792.0,-0.2,1.5,-0.4,8.6,-1.8,2.6,-11.1,22.4,-9.700000000000001,16
276,4808.0,0.0,1.5,-0.5,8.8,-1.8,2.7,-17.300000000000004,23.700000000000003,-10.9,16
277,4825.0,0.4,1.5,-0.30000000000000004,9.200000000000001,-1.8,2.9000000000000004,-18.8,25.1,-15.8,16
278,4842.0,0.4,1.4000000000000001,-0.30000000000000004,9.0,-2.0,2.9000000000000004,-18.8,25.1,-15.8,16
279,4860.0,0.0,0.9,-0.6000000000000001,8.6,-2.3000000000000003,2.6,-24.200000000000003,30.9,-23.400000000000002,16
280,4875.0,-0.6000000000000001,0.7000000000000001,-1.0,8.1,-2.5,2.4000000000000004,-27.6,30.1,-21.400000000000002,16
281,4897.0,-0.7000000000000001,0.6000000000000001,-0.8,8.0,-2.6,2.5,-29.0,24.400000000000002,-16.900000000000002,16
282,4912.0,-0.4,0.4,-0.1,8.200000000000001,-2.7,3.1,-25.6,15.700000000000001,-11.6,16
283,4927.0,-0.1,0.4,0.2,8.6,-2.8000000000000003,3.7,-17.1,8.899999999999999,-8.0,16
284,4943.0,0.30000000000000004,0.30000000000000004,0.7000000000000001,9.0,-2.8000000000000003,4.1000000000000005,-6.2,5.6,-6.4,16
285,4959.0,0.5,0.2,0.6000000000000001,9.200000000000001,-3.0,3.9000000000000004,-6.2,5.6,-6.4,16
286,4975.0,0.6000000000000001,-0.1,0.2,9.3,-3.2,3.6,11.000000000000002,0.6000000000000001,-3.1,16
287,4992.0,0.7000000000000001,-0.5,-0.1,9.4,-3.6,3.3000000000000003,15.399999999999999,-2.5,1.4,16
288,5009.0,0.8,-0.6000000000000001,-0.1,9.600000000000001,-3.6,3.3000000000000003,15.399999999999999,-2.5,1.4,16
289,5025.0,1.2000000000000002,-0.4,0.0,10.0,-3.3000000000000003,3.5,18.5,-4.4,6.699999999999999,16
290,5055.0,1.7000000000000002,0.0,-0.1,10.600000000000001,-3.1,3.2,26.200000000000003,-4.1,8.700000000000001,16
291,5059.0,1.9000000000000001,-0.1,-0.30000000000000004,10.600000000000001,-3.1,3.2,26.9,-2.7,4.4,16
292,5076.0,1.9000000000000001,-0.4,-0.4,10.5,-3.6,3.0,26.9,-2.7,4.4,16
293,5092.0,1.6,-1.0,-0.6000000000000001,10.200000000000001,-4.1000000000000005,2.9000000000000004,17.5,6.0,0.6000000000000001,16
294,5109.0,1.4000000000000001,-1.3,-0.6000000000000001,10.100000000000001,-4.4,3.0,13.399999999999999,7.1000000000000005,4.6,16
295,5125.0,1.4000000000000001,-1.4000000000000001,-0.4,10.3,-4.5,3.4000000000000004,13.000000000000002,3.9,10.4,16
296,5141.0,1.9000000000000001,-1.4000000000000001,0.2,10.700000000000001,-4.4,4.0,13.000000000000002,3.9,10.4,16
297,5160.0,2.1,-1.0,0.7000000000000001,10.8,-4.0,4.3,23.700000000000003,-4.800000000000001,17.200000000000003,16
298,5176.0,2.0,-0.1,0.7000000000000001,10.8,-3.2,4.3,31.3,-6.9,16.6,16
299,5196.0,1.7000000000000002,0.8,0.5,10.5,-2.5,4.1000000000000005,37.2,-7.6,12.299999999999999,16
300,5208.0,1.6,1.1,0.2,10.3,-1.9000000000000001,3.7,39.9,-8.100000000000001,3.9,16
301,5225.0,1.2000000000000002,1.2000000000000002,-0.30000000000000004,10.0,-1.9000000000000001,3.4000000000000004,38.7,-8.899999999999999,-6.500000000000001,16
302,5242.0,1.0,0.9,-0.30000000000000004,9.600000000000001,-2.3000000000000003,3.4000000000000004,38.7,-8.899999999999999,-6.500000000000001,16
303,5259.0,0.4,0.2,-0.4,9.1,-2.8000000000000003,3.2,35.3,-6.8,-16.0,16
304,5276.0,-0.1,-0.5,-0.4,8.8,-3.3000000000000003,3.3000000000000003,28.600000000000005,-7.0,-25.6,16
305,5293.0,-0.30000000000000004,-1.1,0.0,8.6,-3.7,3.7,26.5,-7.400000000000001,-24.8,16
306,5311.0,-0.4,-1.2000000000000002,0.1,8.5,-3.8000000000000003,3.7,26.6,-8.4,-22.3,16
307,5329.0,-0.4,-1.2000000000000002,0.1,8.6,-3.6,3.8000000000000003,27.6,-13.6,-20.1,16
308,5341.0,-0.2,-1.1,0.5,8.8,-3.5,4.1000000000000005,28.200000000000003,-16.5,-18.900000000000002,16
309,5358.0,-0.2,-1.0,0.5,8.8,-3.3000000000000003,4.1000000000000005,28.200000000000003,-16.5,-18.900000000000002,16
310,5375.0,-0.30000000000000004,-0.9,0.7000000000000001,8.700000000000001,-3.2,4.3,27.700000000000003,-18.4,-19.300000000000004,16
311,5392.0,-0.6000000000000001,-0.8,0.9,8.4,-3.0,4.4,21.8,-14.5,-21.900000000000002,16
312,5408.0,-0.9,-0.6000000000000001,0.9,8.200000000000001,-2.8000000000000003,4.5,18.1,-9.4,-23.0,16
313,5425.0,-1.0,-0.6000000000000001,1.0,8.0,-2.7,4.7,18.1,-9.4,-23.0,16
314,5442.0,-1.3,-0.6000000000000001,1.2000000000000002,7.800000000000001,-2.6,4.7,15.700000000000001,1.7,-24.900000000000002,16
315,5460.0,-1.4000000000000001,-0.7000000000000001,1.0,7.7,-2.6,4.6000000000000005,17.799999999999997,3.2,-24.1,16
316,5475.0,-1.5,-0.7000000000000001,0.9,7.6000000000000005,-2.6,4.6000000000000005,17.799999999999997,3.2,-24.1,16
317,5492.0,-1.5,-0.9,0.8,7.6000000000000005,-2.6,4.4,21.900000000000002,1.9,-22.000000000000004,16
318,5508.0,-1.5,-0.9,0.5,7.6000000000000005,-2.6,4.2,33.1,-5.300000000000001,-15.6,16
319,5525.0,-1.4000000000000001,-1.0,0.4,7.7,-2.6,3.9000000000000004,33.1,-5.300000000000001,-15.6,16
320,5542.0,-1.3,-1.0,0.0,7.800000000000001,-2.5,3.5,37.2,-8.8,-12.299999999999999,16
321,5558.0,-1.1,-0.9,-0.5,8.1,-2.4000000000000004,3.1,35.5,-11.6,-8.2,16
322,5575.0,-1.0,-0.9,-0.6000000000000001,8.1,-2.4000000000000004,3.1,35.5,-11.6,-8.2,16
323,5593.0,-1.1,-0.9,-0.9,8.0,-2.3000000000000003,2.6,29.1,-10.9,-7.500000000000001,16
324,5610.0,-1.0,-0.8,-0.9,8.1,-2.1,2.7,20.2,-8.600000000000001,-6.0,16
325,5625.0,-1.0,-0.6000000000000001,-0.7000000000000001,8.200000000000001,-1.9000000000000001,2.9000000000000004,5.1000000000000005,-2.7,-3.4,16
326,5644.0,-1.0,-0.30000000000000004,-0.8,8.1,-1.7000000000000002,2.8000000000000003,-0.6000000000000001,0.5,-3.5,16
327,5658.0,-1.1,-0.30000000000000004,-0.8,8.0,-1.7000000000000002,2.9000000000000004,-0.6000000000000001,0.5,-3.5,16
328,5675.0,-1.2000000000000002,-0.4,-0.6000000000000001,7.800000000000001,-1.9000000000000001,2.9000000000000004,-10.4,6.500000000000001,-3.2,16
329,5692.0,-1.3,-0.5,-0.7000000000000001,7.800000000000001,-2.0,2.9000000000000004,-13.100000000000001,8.2,-0.7,16
330,5709.0,-1.3,-0.7000000000000001,-0.6000000000000001,7.7,-2.2,3.0,-13.100000000000001,8.2,-0.7,16
331,5727.0,-1.3,-0.9,-0.5,7.800000000000001,-2.5,3.1,-11.8,5.1000000000000005,8.4,16
332,5742.0,-1.1,-1.1,-0.30000000000000004,7.9,-2.7,3.3000000000000003,-8.899999999999999,1.6,15.8,16
333,5758.0,-0.9,-1.2000000000000002,-0.30000000000000004,8.4,-2.8000000000000003,3.4000000000000004,-8.899999999999999,1.6,15.8,16
334,5775.0,-0.1,-1.2000000000000002,-0.1,9.1,-2.8000000000000003,3.5,-5.6,-3.2,23.3,16
335,5792.0,0.5,-1.0,0.0,9.600000000000001,-2.7,3.5,-2.7,-8.2,31.7,16
336,5808.0,0.9,-0.7000000000000001,0.0,9.9,-2.6,3.5,-4.4,-8.899999999999999,31.2,16
337,5825.0,1.1,-0.6000000000000001,-0.1,10.200000000000001,-2.7,3.3000000000000003,-4.4,-8.899999999999999,31.2,16
338,5842.0,1.3,-1.0,-0.1,10.200000000000001,-3.2,3.4000000000000004,-17.5,-7.1000000000000005,26.1,16
339,5858.0,1.2000000000000002,-1.3,0.0,10.200000000000001,-3.2,3.4000000000000004,-17.5,-7.1000000000000005,26.1,16
340,5879.0,1.6,-2.1,0.4,10.600000000000001,-4.4,3.8000000000000003,-33.0,-3.4,31.0,16
341,5897.0,1.9000000000000001,-2.2,0.8,10.9,-4.7,4.1000000000000005,-36.2,-4.800000000000001,36.5,16
342,5909.0,2.0,-1.9000000000000001,1.0,11.0,-4.4,4.4,-35.5,-6.600000000000001,42.5,16
343,5926.0,2.1,-0.9,1.4000000000000001,11.0,-4.4,4.4,-31.099999999999998,-6.4,46.1,16
344,5942.0,2.0,-0.2,1.4000000000000001,10.9,-2.7,4.7,-31.099999999999998,-6.4,46.1,16
345,5959.0,1.8,1.0,1.4000000000000001,10.700000000000001,-1.8,4.7,-18.700000000000003,-1.8000000000000003,40.300000000000004,16
346,5975.0,1.3,1.9000000000000001,1.5,10.200000000000001,-1.1,4.800000000000001,-8.600000000000001,2.6,31.5,16
347,5992.0,1.0,2.2,1.4000000000000001,9.5,-0.8,4.4,-8.600000000000001,2.6,31.5,16
348,6012.0,0.1,2.2,0.1,9.0,-0.9,3.6,15.700000000000001,2.9,14.5,16
349,6028.0,0.1,1.9000000000000001,-0.4,8.9,-1.4000000000000001,2.9000000000000004,22.8,-4.300000000000001,7.0,16
350,6042.0,0.0,1.1,-0.9,8.9,-2.0,2.4000000000000004,23.3,-9.899999999999999,1.3,16
351,6058.0,0.0,0.7000000000000001,-1.1,9.0,-2.7,2.2,23.3,-9.899999999999999,1.3,16
352,6076.0,0.2,0.0,-1.0,9.1,-3.1,2.2,8.899999999999999,-11.8,-4.6,16
353,6092.0,0.4,-0.1,-1.0,9.3,-3.1,2.3000000000000003,-3.0,-7.500000000000001,-7.0,16
354,6109.0,0.5,0.0,-0.8,9.5,-2.9000000000000004,2.6,-3.0,-7.500000000000001,-7.0,16
355,6125.0,0.5,0.2,-0.4,9.4,-2.7,2.8000000000000003,-15.399999999999999,-2.3,-11.700000000000001,16
356,6142.0,0.1,0.5,-0.2,9.0,-2.5,3.0,-39.300000000000004,11.5,-26.5,16
357,6158.0,-0.5,0.4,0.30000000000000004,8.5,-2.5,3.6,-48.70000000000001,19.700000000000003,-33.2,16
358,6175.0,-0.8,0.30000000000000004,0.5,8.0,-2.7,3.8000000000000003,-48.70000000000001,19.700000000000003,-33.2,16
359,6192.0,-1.3,-0.1,0.7000000000000001,7.6000000000000005,-3.0,4.1000000000000005,-58.5,34.50000000000001,-39.400000000000006,16
360,6208.0,-1.9000000000000001,-0.6000000000000001,1.1,7.0,-3.4000000000000004,4.5,-56.300000000000004,40.4,-36.5,16
361,6226.0,-2.1,-0.7000000000000001,1.1,6.7,-3.6,4.5,-56.300000000000004,40.4,-36.5,16
362,6242.0,-2.2,-0.9,0.9,6.7,-3.6,4.2,-48.300000000000004,41.50000000000001,-29.300000000000004,16
363,6259.0,-2.0,-0.9,0.4,6.800000000000001,-3.6,3.9000000000000004,-21.8,23.3,-10.9,16
364,6275.0,-1.8,-0.7000000000000001,-0.1,7.1000000000000005,-3.4000000000000004,3.5,-11.2,10.700000000000001,-2.8,16
365,6291.0,-1.5,-0.5,-0.30000000000000004,7.4,-3.3000000000000003,3.2,-11.2,10.700000000000001,-2.8,16
366,6308.0,-1.1,-0.30000000000000004,-0.4,7.7,-3.1,3.1,-7.400000000000001,-0.4,7.300000000000001,16
367,6325.0,-0.9,-0.1,-0.4,7.9,-3.0,3.1,-12.9,2.9,9.700000000000001,16
368,6342.0,-0.8,-0.1,-0.30000000000000004,8.1,-2.9000000000000004,3.4000000000000004,-12.9,2.9,9.700000000000001,16
369,6358.0,-0.6000000000000001,0.1,-0.1,8.1,-2.9000000000000004,3.6,-18.900000000000002,9.0,11.6,16
370,6375.0,-0.5,0.1,0.1,8.200000000000001,-2.9000000000000004,3.7,-21.6,15.899999999999999,15.2,16
371,6392.0,-0.30000000000000004,0.2,0.1,8.3,-2.9000000000000004,3.7,-17.1,14.700000000000001,18.0,16
372,6410.0,-0.30000000000000004,0.30000000000000004,0.1,8.3,-2.8000000000000003,3.7,-17.1,14.700000000000001,18.0,16
373,6425.0,-0.30000000000000004,0.5,-0.2,8.4,-2.6,3.4000000000000004,-3.2,7.500000000000001,25.1,16
374,6446.0,0.0,0.8,-0.4,8.6,-2.4000000000000004,3.3000000000000003,1.8000000000000003,4.5,27.6,16
375,6458.0,0.2,1.0,-0.5,8.9,-2.2,3.1,1.8000000000000003,4.5,27.6,16
376,6475.0,0.6000000000000001,1.2000000000000002,-0.8,9.200000000000001,-2.2,2.8000000000000003,5.6,1.9,27.800000000000004,16
377,6492.0,0.9,1.1,-1.1,9.4,-2.4000000000000004,2.5,4.0,-0.30000000000000004,23.5,16
378,6508.0,1.1,0.9,-1.2000000000000002,9.600000000000001,-2.6,2.5,-2.1,1.8000000000000003,22.000000000000004,16
379,6525.0,1.2000000000000002,0.9,-1.0,9.8,-2.6,2.7,-2.1,1.8000000000000003,22.000000000000004,16
380,6542.0,1.5,1.1,-0.7000000000000001,10.0,-2.5,3.0,-12.100000000000001,7.200000000000001,18.6,16
381,6558.0,1.9000000000000001,1.1,-0.5,10.3,-2.5,3.2,-14.0,7.400000000000001,14.800000000000002,16
382,6575.0,2.0,1.1,-0.4,10.4,-2.5,3.4000000000000004,-14.0,7.400000000000001,14.800000000000002,16
383,6591.0,1.9000000000000001,1.1,-0.1,10.200000000000001,-2.6,3.6,-14.600000000000001,7.0,10.4,16
384,6610.0,1.7000000000000002,1.1,0.1,10.200000000000001,-2.6,3.7,-13.900000000000002,6.1000000000000005,4.4,16
385,6625.0,1.7000000000000002,1.0,0.1,10.3,-2.8000000000000003,3.8000000000000003,-13.900000000000002,6.1000000000000005,4.4,16
386,6644.0,1.8,0.6000000000000001,0.2,10.200000000000001,-3.2,3.8000000000000003,-13.900000000000002,5.300000000000001,2.0,16
387,6660.0,1.7000000000000002,0.2,0.4,10.200000000000001,-3.6,4.0,-17.1,4.4,2.1,16
388,6675.0,1.8,-0.2,0.6000000000000001,10.200000000000001,-4.0,4.3,-16.3,2.1,5.6,16
389,6694.0,1.7000000000000002,-0.2,0.9,10.200000000000001,-4.0,4.5,-11.8,-1.8000000000000003,10.9,16
390,6710.0,1.6,-0.1,0.9,10.100000000000001,-3.8000000000000003,4.5,-11.8,-1.8000000000000003,10.9,16
391,6725.0,1.7000000000000002,0.4,0.8,10.200000000000001,-3.5,4.4,4.4,-19.1,23.6,16
392,6742.0,1.9000000000000001,0.9,1.1,10.3,-3.0,4.6000000000000005,13.200000000000003,-27.9,26.799999999999997,16
393,6758.0,1.9000000000000001,1.4000000000000001,1.4000000000000001,10.4,-2.2,5.0,13.200000000000003,-27.9,26.799999999999997,16
394,6775.0,1.9000000000000001,2.4000000000000004,1.8,10.4,-1.5,5.2,33.2,-28.800000000000004,20.7,16
395,6792.0,1.7000000000000002,3.0,1.6,10.200000000000001,-1.0,5.0,43.50000000000001,-26.9,11.900000000000002,16
396,6811.0,1.7000000000000002,3.0,1.2000000000000002,10.200000000000001,-1.0,4.5,43.50000000000001,-26.9,11.900000000000002,16
397,6825.0,1.4000000000000001,2.3000000000000003,0.8,9.9,-1.7000000000000002,4.2,49.50000000000001,-25.0,-0.2,16
398,6842.0,0.9,1.1,0.7000000000000001,9.5,-2.7,4.2,55.0,-22.000000000000004,-15.5,16
399,6858.0,0.6000000000000001,0.2,0.8,9.3,-3.4000000000000004,4.3,60.6,-23.6,-14.0,16
400,6875.0,0.7000000000000001,-0.1,0.9,9.5,-3.6,4.4,60.6,-23.6,-14.0,16
401,6892.0,0.9,-0.2,0.8,9.700000000000001,-3.5,4.2,71.10000000000001,-23.800000000000004,-8.100000000000001,16
402,6908.0,1.2000000000000002,0.2,0.4,10.0,-3.1,3.9000000000000004,69.5,-21.200000000000003,-10.5,16
403,6925.0,1.2000000000000002,0.30000000000000004,0.2,10.0,-2.8000000000000003,3.6,69.5,-21.200000000000003,-10.5,16
404,6942.0,1.2000000000000002,0.30000000000000004,0.0,10.0,-2.8000000000000003,3.7,63.10000000000001,-19.0,-16.6,16
405,6960.0,1.0,0.1,0.4,9.9,-2.8000000000000003,4.0,45.0,-13.8,-32.300000000000004,16
406,6975.0,0.8,0.0,0.5,9.600000000000001,-2.9000000000000004,4.1000000000000005,45.0,-13.8,-32.300000000000004,16
407,6992.0,0.30000000000000004,-0.2,0.6000000000000001,9.200000000000001,-3.0,4.2,36.9,-8.2,-40.2,16
408,7009.0,-0.1,-0.6000000000000001,0.7000000000000001,9.0,-3.1,4.3,26.400000000000006,-1.6,-51.50000000000001,16
409,7027.0,-0.2,-1.0,0.8,8.9,-3.3000000000000003,4.4,25.1,-2.5,-55.2,16
410,7047.0,-0.6000000000000001,-1.5,0.8,8.6,-3.5,4.5,25.4,-4.6,-57.699999999999996,16
411,7067.0,-1.0,-1.9000000000000001,0.9,8.3,-3.8000000000000003,4.5,26.200000000000003,-6.8,-57.699999999999996,16
412,7075.0,-1.2000000000000002,-2.1,0.9,8.0,-3.9000000000000004,4.5,27.6,-8.0,-55.3,16
413,7091.0,-1.6,-2.3000000000000003,0.8,7.7,-4.0,4.4,28.500000000000004,-8.700000000000001,-50.60000000000001,16
414,7108.0,-1.7000000000000002,-2.4000000000000004,0.8,7.5,-3.9000000000000004,4.3,28.500000000000004,-8.700000000000001,-50.60000000000001,16
415,7125.0,-1.8,-2.3000000000000003,0.5,7.4,-3.7,4.0,28.500000000000004,-7.6,-40.5,16
416,7142.0,-1.9000000000000001,-2.3000000000000003,0.2,7.4,-3.6,3.8000000000000003,26.000000000000004,-5.6,-36.6,16
417,7158.0,-1.9000000000000001,-2.2,0.0,7.300000000000001,-3.3000000000000003,3.5,26.000000000000004,-5.6,-36.6,16
418,7175.0,-2.1,-1.9000000000000001,-0.30000000000000004,7.2,-3.0,3.2,17.9,1.6,-32.300000000000004,16
419,7192.0,-2.2,-1.8,-0.6000000000000001,7.0,-2.8000000000000003,3.0,13.900000000000002,4.300000000000001,-31.6,16
420,7208.0,-2.4000000000000004,-1.7000000000000002,-0.7000000000000001,6.6000000000000005,-2.7,2.7,13.900000000000002,4.300000000000001,-31.6,16
421,7225.0,-2.8000000000000003,-1.8,-1.2000000000000002,6.4,-2.8000000000000003,2.3000000000000003,9.3,7.6,-30.4,16
422,7243.0,-2.7,-2.4000000000000004,-1.5,6.5,-3.4000000000000004,2.2,-4.1,5.500000000000001,-24.8,16
423,7258.0,-2.8000000000000003,-3.4000000000000004,-1.2000000000000002,6.4,-4.2,2.5,-11.3,4.4,-17.200000000000003,16
424,7276.0,-2.8000000000000003,-3.8000000000000003,-0.8,6.4,-4.6000000000000005,2.8000000000000003,-16.200000000000003,3.0,-5.0,16
425,7292.0,-2.6,-3.7,-0.6000000000000001,6.7,-4.6000000000000005,3.1,-18.0,-0.6000000000000001,8.4,16
426,7308.0,-1.8,-3.5,-0.30000000000000004,7.4,-4.5,3.3000000000000003,-19.700000000000003,-3.2,19.799999999999997,16
427,7325.0,-1.4000000000000001,-3.3000000000000003,-0.4,8.200000000000001,-4.4,3.2,-19.700000000000003,-3.2,19.799999999999997,16
428,7342.0,-0.6000000000000001,-3.2,-0.30000000000000004,8.700000000000001,-4.4,3.5,-24.200000000000003,-6.300000000000001,27.3,16
429,7359.0,-0.4,-3.1,0.0,8.700000000000001,-4.4,3.5,-31.5,-6.2,32.0,16
430,7375.0,0.0,-3.1,0.4,9.1,-4.7,3.9000000000000004,-46.6,0.5,39.400000000000006,16
431,7392.0,0.0,-3.0,0.5,9.0,-4.800000000000001,4.1000000000000005,-46.6,0.5,39.400000000000006,16
432,7410.0,-0.1,-2.7,0.8,9.0,-4.6000000000000005,4.4,-50.3,1.3,53.8,16
433,7425.0,0.2,-2.2,1.1,9.200000000000001,-4.4,4.6000000000000005,-44.00000000000001,-2.8,62.0,16
434,7442.0,0.30000000000000004,-1.8,1.2000000000000002,9.4,-3.8000000000000003,4.7,-44.00000000000001,-2.8,62.0,16
435,7458.0,0.7000000000000001,-0.8,1.3,9.700000000000001,-3.2,4.7,-34.0,-7.300000000000001,68.80000000000001,16
436,7475.0,0.9,0.1,1.1,9.8,-2.6,4.4,-10.200000000000001,-14.300000000000002,73.5,16
437,7495.0,0.9,1.1,0.7000000000000001,9.700000000000001,-2.0,4.0,1.4,-16.4,73.30000000000001,16
438,7509.0,0.9,1.5,0.30000000000000004,10.0,-1.4000000000000001,3.3000000000000003,1.4,-16.4,73.30000000000001,16
439,7530.0,1.6,2.1,-0.4,10.600000000000001,-1.2000000000000002,2.7,14.400000000000002,-26.799999999999997,61.8,16
440,7542.0,2.5,2.1,-0.7000000000000001,11.4,-1.4000000000000001,2.5,9.8,-28.200000000000003,48.9,16
441,7561.0,3.1,1.5,-0.4,11.9,-2.0,2.7,-0.4,-23.5,35.0,16
442,7575.0,3.2,1.2000000000000002,-0.2,12.0,-2.5,3.0,-0.4,-23.5,35.0,16
443,7592.0,3.1,1.1,0.1,11.9,-2.4000000000000004,3.2,-26.1,1.4,11.900000000000002,16
444,7608.0,2.9000000000000004,1.6,0.2,11.700000000000001,-2.0,3.2,-38.2,13.399999999999999,0.0,16
445,7625.0,2.7,1.8,0.30000000000000004,11.3,-1.8,3.5,-38.2,13.399999999999999,0.0,16
446,7641.0,1.9000000000000001,1.8,0.6000000000000001,10.5,-1.9000000000000001,3.8000000000000003,-54.50000000000001,32.5,-27.099999999999998,16
447,7658.0,0.8,1.5,0.9,9.5,-2.1,4.0,-54.800000000000004,39.2,-36.7,16
448,7675.0,0.2,1.2000000000000002,0.9,8.6,-2.4000000000000004,4.1000000000000005,-54.800000000000004,39.2,-36.7,16
449,7691.0,-0.9,0.8,0.7000000000000001,7.800000000000001,-2.7,3.8000000000000003,-50.60000000000001,44.2,-41.6,16
450,7708.0,-1.6,0.6000000000000001,0.1,7.1000000000000005,-2.8000000000000003,3.3000000000000003,-34.60000000000001,41.50000000000001,-36.0,16
451,7725.0,-2.0,0.5,-0.5,6.800000000000001,-2.8000000000000003,2.9000000000000004,-25.1,30.9,-29.0,16
452,7741.0,-1.9000000000000001,0.5,-0.8,7.0,-2.7,2.5,-25.1,30.9,-29.0,16
453,7759.0,-1.6,0.5,-1.0,7.300000000000001,-2.7,2.4000000000000004,-12.100000000000001,8.100000000000001,-17.7,16
454,7777.0,-1.3,0.5,-1.0,7.5,-2.7,2.4000000000000004,-12.0,5.6,-14.600000000000001,16
455,7797.0,-1.1,0.5,-1.3,7.7,-2.7,2.2,-15.899999999999999,7.699999999999999,-12.5,16
456,7809.0,-1.0,0.5,-1.4000000000000001,7.800000000000001,-2.7,2.0,-15.899999999999999,7.699999999999999,-12.5,16
457,7830.0,-0.8,0.5,-1.5,8.0,-2.6,1.9000000000000001,-31.5,16.4,-9.5,16
458,7842.0,-0.7000000000000001,0.5,-1.6,8.1,-2.7,1.9000000000000001,-39.0,18.6,-9.0,16
459,7858.0,-0.6000000000000001,0.5,-1.5,8.1,-2.8000000000000003,2.0,-39.0,18.6,-9.0,16
460,7877.0,-0.7000000000000001,0.30000000000000004,-1.2000000000000002,7.9,-3.0,2.4000000000000004,-48.400000000000006,17.300000000000004,-5.500000000000001,16
461,7894.0,-0.9,0.2,-0.6000000000000001,7.800000000000001,-3.1,2.8000000000000003,-47.400000000000006,16.1,-0.2,16
462,7908.0,-1.0,0.30000000000000004,-0.5,7.7,-3.0,3.1,-47.400000000000006,16.1,-0.2,16
463,7925.0,-0.8,0.30000000000000004,-0.1,7.9,-3.0,3.3000000000000003,-42.3,13.100000000000001,6.4,16
464,7941.0,-0.7000000000000001,0.6000000000000001,0.1,7.9,-2.8000000000000003,3.4000000000000004,-25.1,5.8,19.9,16
465,7958.0,-0.4,0.8,0.0,8.200000000000001,-2.8000000000000003,3.4000000000000004,-16.1,1.7,26.000000000000004,16
466,7975.0,-0.1,0.7000000000000001,0.0,8.6,-2.9000000000000004,3.3000000000000003,-16.1,1.7,26.000000000000004,16
467,7992.0,0.30000000000000004,0.6000000000000001,0.0,9.0,-3.2,3.4000000000000004,-2.5,-7.1000000000000005,36.400000000000006,16
468,8008.0,1.0,0.5,0.30000000000000004,9.600000000000001,-3.3000000000000003,3.6,4.300000000000001,-11.3,41.6,16
469,8025.0,1.4000000000000001,0.5,0.4,10.200000000000001,-3.2,3.7,4.300000000000001,-11.3,41.6,16
470,8042.0,2.1,0.9,0.4,10.8,-2.9000000000000004,3.7,11.2,-15.299999999999999,44.8,16
471,8058.0,2.9000000000000004,1.5,0.4,11.4,-2.5,3.7,16.3,-16.6,39.400000000000006,16
472,8076.0,3.4000000000000004,1.4000000000000001,0.4,11.8,-2.7,3.6,11.6,-14.100000000000001,30.599999999999998,16
473,8091.0,3.4000000000000004,1.2000000000000002,0.6000000000000001,11.9,-3.2,4.1000000000000005,11.6,-14.100000000000001,30.599999999999998,16
474,8108.0,3.4000000000000004,0.5,1.2000000000000002,11.9,-3.9000000000000004,4.5,0.5,-7.0,18.900000000000002,16
475,8127.0,3.5,-0.1,1.9000000000000001,12.0,-4.3,5.1000000000000005,0.5,-5.7,19.1,16
476,8143.0,3.6,0.30000000000000004,2.7,12.100000000000001,-4.1000000000000005,5.800000000000001,7.400000000000001,-5.300000000000001,20.400000000000002,16
477,8161.0,3.6,0.7000000000000001,2.9000000000000004,12.100000000000001,-3.3000000000000003,6.0,7.400000000000001,-5.300000000000001,20.400000000000002,16
478,8176.0,3.5,1.6,2.5,12.0,-2.6,5.7,34.2,-11.700000000000001,13.8,16
479,8192.0,3.1,2.1,2.2,11.600000000000001,-2.1,5.5,44.4,-14.800000000000002,5.1000000000000005,16
480,8208.0,2.6,2.3000000000000003,2.1,10.8,-1.8,5.4,44.4,-14.800000000000002,5.1000000000000005,16
481,8226.0,1.5,2.5,1.7000000000000002,10.0,-1.6,5.0,60.300000000000004,-9.5,-13.200000000000003,16
482,8241.0,0.6000000000000001,2.2,0.9,9.200000000000001,-1.8,4.3,66.2,-8.2,-20.0,16
483,8261.0,0.0,1.3,0.2,8.700000000000001,-2.4000000000000004,3.8000000000000003,70.6,-10.5,-23.3,16
484,8275.0,-0.2,0.8,0.1,8.5,-3.1,3.6,70.6,-10.5,-23.3,16
485,8296.0,-0.5,0.0,-0.2,8.3,-3.6,3.3000000000000003,79.9,-24.3,-19.0,16
486,8308.0,-0.5,-0.8,-0.4,8.3,-4.1000000000000005,3.2,83.89999999999999,-35.599999999999994,-13.100000000000001,16
487,8325.0,-0.4,-0.9,-0.4,8.6,-4.1000000000000005,3.2,83.89999999999999,-35.599999999999994,-13.100000000000001,16
488,8341.0,0.0,-0.6000000000000001,-0.2,9.0,-3.7,3.3000000000000003,85.20000000000002,-51.800000000000004,-2.9,16
489,8358.0,0.4,-0.2,-0.1,9.4,-3.3000000000000003,3.3000000000000003,80.7,-53.0,-4.0,16
490,8376.0,0.6000000000000001,-0.1,-0.2,9.8,-3.0,3.2,80.7,-53.0,-4.0,16
491,8392.0,1.0,0.30000000000000004,0.1,10.200000000000001,-2.6,3.6,72.10000000000001,-50.60000000000001,-9.100000000000001,16
492,8408.0,0.9,0.30000000000000004,0.7000000000000001,10.0,-2.5,4.0,52.80000000000001,-34.400000000000006,-32.1,16
493,8425.0,0.6000000000000001,0.1,0.9,9.5,-2.8000000000000003,4.0,52.80000000000001,-34.400000000000006,-32.1,16
494,8441.0,-0.2,-0.5,0.6000000000000001,8.9,-3.1,3.7,43.300000000000004,-20.8,-42.0,16
495,8458.0,-0.7000000000000001,-0.9,0.5,8.5,-3.2,3.8000000000000003,25.900000000000002,-3.4,-50.1,16
496,8475.0,-1.0,-1.2000000000000002,0.7000000000000001,8.3,-3.4000000000000004,4.0,22.9,-2.4000000000000004,-50.7,16
497,8491.0,-1.1,-1.4000000000000001,0.8,8.1,-3.5,4.1000000000000005,22.9,-2.4000000000000004,-50.7,16
498,8508.0,-1.3,-1.6,0.9,8.0,-3.5,4.2,23.5,-4.7,-50.3,16
499,8526.0,-1.5,-1.9000000000000001,0.8,7.9,-3.6,4.1000000000000005,26.400000000000006,-7.699999999999999,-48.2,16
500,8541.0,-1.5,-2.0,0.7000000000000001,7.9,-3.6,3.8000000000000003,26.400000000000006,-7.699999999999999,-48.2,16
501,8558.0,-1.7000000000000002,-2.2,0.30000000000000004,7.7,-3.6,3.5,24.5,-5.500000000000001,-47.2,16
502,8578.0,-1.8,-2.3000000000000003,0.0,7.6000000000000005,-3.6,3.2,12.7,3.5,-44.6,16
503,8591.0,-2.1,-2.3000000000000003,-0.4,7.300000000000001,-3.5,2.9000000000000004,5.8,8.4,-42.7,16
504,8611.0,-2.7,-2.2,-0.7000000000000001,6.800000000000001,-3.4000000000000004,2.7,-1.4,12.299999999999999,-39.9,16
505,8625.0,-3.0,-2.2,-0.8,6.300000000000001,-3.3000000000000003,2.6,-8.0,14.400000000000002,-35.3,16
506,8641.0,-3.5,-2.2,-0.7000000000000001,5.800000000000001,-3.2,2.8000000000000003,-11.3,14.600000000000001,-28.500000000000004,16
507,8658.0,-3.9000000000000004,-2.2,-0.4,5.5,-3.2,3.1,-9.5,12.600000000000001,-19.799999999999997,16
508,8675.0,-3.9000000000000004,-2.2,-0.30000000000000004,5.4,-3.3000000000000003,3.1,-9.5,12.600000000000001,-19.799999999999997,16
509,8691.0,-3.8000000000000003,-2.5,-0.5,5.6000000000000005,-3.6,2.9000000000000004,2.9,0.1,2.2,16
510,8708.0,-3.2,-2.9000000000000004,-0.7000000000000001,6.1000000000000005,-3.9000000000000004,2.7,7.0,-7.200000000000001,14.400000000000002,16
511,8725.0,-2.7,-3.0,-0.8,6.9,-4.1000000000000005,2.7,7.0,-7.200000000000001,14.400000000000002,16
512,8742.0,-1.6,-2.9000000000000004,-0.5,7.800000000000001,-4.1000000000000005,2.8000000000000003,3.9,-15.899999999999999,33.6,16
513,8760.0,-1.0,-2.6,-0.5,8.3,-4.0,2.8000000000000003,-2.7,-15.5,39.1,16
514,8777.0,-0.2,-2.4000000000000004,-0.4,9.0,-3.9000000000000004,2.9000000000000004,-13.6,-12.7,41.7,16
515,8792.0,0.2,-2.3000000000000003,-0.2,9.600000000000001,-4.0,3.1,-13.6,-12.7,41.7,16
516,8808.0,0.8,-2.5,0.0,10.0,-4.5,3.2,-42.2,0.7,40.6,16
517,8825.0,1.0,-3.1,0.2,10.200000000000001,-5.1000000000000005,3.4000000000000004,-57.60000000000001,7.400000000000001,41.6,16
518,8842.0,1.0,-3.2,0.5,10.100000000000001,-5.4,3.9000000000000004,-57.60000000000001,7.400000000000001,41.6,16
519,8858.0,0.8,-2.9000000000000004,1.1,9.9,-5.2,4.4,-75.5,14.100000000000001,52.300000000000004,16
520,8875.0,0.8,-2.1,1.7000000000000002,9.8,-4.800000000000001,4.9,-72.60000000000001,12.9,59.9,16
521,8897.0,0.9,-1.0,2.0,9.9,-4.0,5.1000000000000005,-63.30000000000001,9.600000000000001,66.1,16
522,8909.0,1.0,-0.2,2.2,9.8,-2.9000000000000004,5.4,-63.30000000000001,9.600000000000001,66.1,16
523,8925.0,0.8,1.2000000000000002,2.3000000000000003,9.700000000000001,-2.0,5.300000000000001,-27.3,2.4000000000000004,67.60000000000001,16
524,8942.0,0.8,1.8,1.9000000000000001,9.700000000000001,-2.0,5.300000000000001,-6.0,-4.4,63.4,16
525,8959.0,1.2000000000000002,2.3000000000000003,0.9,10.100000000000001,-1.4000000000000001,3.7,-6.0,-4.4,63.4,16
526,8975.0,1.8,2.0,0.1,10.700000000000001,-1.9000000000000001,3.1,19.799999999999997,-21.400000000000002,49.6,16
527,8994.0,2.6,1.4000000000000001,-0.2,11.4,-2.4000000000000004,2.8000000000000003,23.6,-26.799999999999997,40.800000000000004,16
528,9008.0,3.0,1.2000000000000002,-0.30000000000000004,11.9,-2.8000000000000003,2.6,23.6,-26.799999999999997,40.800000000000004,16
529,9025.0,3.3000000000000003,1.1,-0.6000000000000001,12.0,-2.7,2.2,21.400000000000002,-26.9,31.0,16
530,9042.0,3.2,1.4000000000000001,-1.0,11.9,-2.4000000000000004,1.9000000000000001,-6.0,-8.2,6.0,16
531,9058.0,2.7,1.7000000000000002,-1.0,11.5,-2.2,1.9000000000000001,-30.1,10.4,-10.0,16
532,9075.0,2.2,1.6,-0.8,10.700000000000001,-2.3000000000000003,2.3000000000000003,-30.1,10.4,-10.0,16
533,9099.0,0.6000000000000001,1.0,0.0,9.700000000000001,-2.7,2.8000000000000003,-71.39999999999999,51.9,-35.5,16
534,9113.0,0.1,0.8,0.2,8.8,-3.0,3.2,-75.5,62.0,-40.0,16
535,9125.0,-0.4,0.6000000000000001,0.2,8.0,-3.3000000000000003,3.3000000000000003,-75.5,62.0,-40.0,16
536,9142.0,-1.3,0.30000000000000004,-0.1,7.300000000000001,-3.4000000000000004,3.0,-68.60000000000001,60.5,-39.0,16
537,9159.0,-1.6,0.30000000000000004,-0.30000000000000004,7.1000000000000005,-3.4000000000000004,2.9000000000000004,-40.0,32.1,-24.400000000000002,16
538,9175.0,-1.7000000000000002,0.30000000000000004,-0.30000000000000004,7.0,-3.3000000000000003,3.0,-25.6,16.3,-16.1,16
539,9192.0,-1.7000000000000002,0.4,-0.30000000000000004,7.2,-3.2,3.0,-25.6,16.3,-16.1,16
540,9209.0,-1.4000000000000001,0.5,-0.4,7.4,-3.1,2.7,-8.899999999999999,2.0,-3.3000000000000007,16
541,9225.0,-1.2000000000000002,0.6000000000000001,-0.8,7.6000000000000005,-3.0,2.4000000000000004,-10.1,3.0,-0.1,16
542,9242.0,-0.9,0.7000000000000001,-0.9,7.800000000000001,-3.0,2.3000000000000003,-15.100000000000001,7.0,1.3,16
543,9258.0,-0.9,0.7000000000000001,-1.0,7.800000000000001,-3.0,2.2,-15.100000000000001,7.0,1.3,16
544,9275.0,-0.8,0.7000000000000001,-1.0,7.9,-2.9000000000000004,2.3000000000000003,-27.0,15.100000000000001,4.6,16
545,9292.0,-0.7000000000000001,0.8,-0.7000000000000001,8.0,-2.9000000000000004,2.6,-29.200000000000003,15.6,6.2,16
546,9309.0,-0.6000000000000001,0.8,-0.5,8.0,-3.0,2.8000000000000003,-29.200000000000003,15.6,6.2,16
547,9325.0,-0.6000000000000001,0.9,-0.30000000000000004,8.0,-3.0,3.0,-24.8,12.7,10.5,16
548,9341.0,-0.6000000000000001,1.0,-0.1,8.0,-2.9000000000000004,3.1,-20.1,11.1,13.6,16
549,9358.0,-0.5,1.0,-0.1,8.1,-2.9000000000000004,3.2,-20.1,11.1,13.6,16
550,9376.0,-0.30000000000000004,1.2000000000000002,-0.1,8.200000000000001,-2.8000000000000003,3.1,-15.299999999999999,10.5,16.900000000000002,16
551,9394.0,-0.1,1.2000000000000002,-0.4,8.5,-2.9000000000000004,2.9000000000000004,-6.600000000000001,7.1000000000000005,22.4,16
552,9408.0,0.4,1.1,-0.4,8.9,-3.0,2.8000000000000003,-3.9,3.8,24.5,16
553,9425.0,0.7000000000000001,1.0,-0.4,9.3,-3.2,2.9000000000000004,-3.9,3.8,24.5,16
554,9441.0,1.3,0.8,-0.30000000000000004,9.9,-3.4000000000000004,3.0,1.1,-3.8,27.6,16
555,9458.0,2.0,0.7000000000000001,-0.1,10.4,-3.6,3.1,2.1,-6.699999999999999,27.9,16
556,9476.0,2.4000000000000004,0.7000000000000001,0.0,11.0,-3.6,3.3000000000000003,2.1,-6.699999999999999,27.9,16
557,9494.0,3.1,0.7000000000000001,0.1,11.600000000000001,-3.7,3.4000000000000004,2.4000000000000004,-7.8,26.400000000000006,16
558,9511.0,3.6,0.8,0.5,12.0,-3.6,3.8000000000000003,-2.1,-4.9,18.200000000000003,16
559,9526.0,4.0,1.0,0.6000000000000001,12.3,-3.4000000000000004,3.8000000000000003,-5.1000000000000005,-1.6,10.5,16
560,9541.0,4.1000000000000005,0.8,0.7000000000000001,12.4,-3.9000000000000004,4.0,-5.1000000000000005,-1.6,10.5,16
561,9558.0,3.9000000000000004,0.4,1.1,12.200000000000001,-4.1000000000000005,4.4,-12.200000000000001,6.9,-2.7,16
562,9575.0,3.6,0.30000000000000004,1.5,12.0,-4.1000000000000005,4.7,-8.100000000000001,6.9,-6.0,16
563,9591.0,3.4000000000000004,0.5,1.5,11.700000000000001,-3.8000000000000003,4.7,-8.100000000000001,6.9,-6.0,16
564,9608.0,3.0,0.9,1.4000000000000001,11.5,-3.4000000000000004,4.6000000000000005,0.1,4.6,-8.899999999999999,16
565,9625.0,2.8000000000000003,1.1,1.0,11.3,-3.2,4.3,16.4,-4.2,-18.900000000000002,16
566,9642.0,2.5,1.2000000000000002,0.9,10.8,-2.9000000000000004,4.2,20.5,-3.3000000000000007,-25.5,16
567,9658.0,1.7000000000000002,1.5,0.8,10.200000000000001,-2.4000000000000004,3.9000000000000004,20.5,-3.3000000000000007,-25.5,16
568,9675.0,1.1,1.8,0.30000000000000004,9.700000000000001,-2.2,3.6,24.7,2.8,-41.800000000000004,16
569,9691.0,0.4,1.2000000000000002,0.0,9.1,-2.6,3.5,25.6,4.1,-48.9,16
570,9708.0,0.1,0.9,0.1,8.700000000000001,-3.0,3.5,25.6,4.1,-48.9,16
571,9725.0,-0.5,0.1,-0.1,8.3,-3.5,3.4000000000000004,28.400000000000002,4.5,-52.60000000000001,16
572,9742.0,-0.9,-0.7000000000000001,-0.30000000000000004,8.0,-4.1000000000000005,3.2,38.400000000000006,-3.3000000000000007,-50.400000000000006,16
573,9758.0,-1.2000000000000002,-1.3,-0.30000000000000004,7.800000000000001,-4.4,3.2,43.50000000000001,-11.2,-44.300000000000004,16
574,9776.0,-1.2000000000000002,-1.4000000000000001,-0.30000000000000004,7.9,-4.4,3.3000000000000003,43.50000000000001,-11.2,-44.300000000000004,16
575,9791.0,-0.8,-1.3,-0.1,8.4,-4.1000000000000005,3.4000000000000004,51.0,-26.6,-31.7,16
576,9808.0,-0.2,-1.1,0.0,8.9,-3.8000000000000003,3.5,50.7,-30.3,-30.699999999999996,16
577,9825.0,-0.1,-1.0,0.1,9.0,-3.5,3.5,50.7,-30.3,-30.699999999999996,16
578,9841.0,-0.1,-0.8,0.1,9.0,-3.2,3.5,46.0,-28.600000000000005,-32.6,16
579,9859.0,-0.4,-0.8,0.2,8.8,-3.1,3.6,27.6,-14.5,-41.0,16
580,9875.0,-0.6000000000000001,-0.8,0.2,8.5,-3.1,3.6,27.6,-14.5,-41.0,16
581,9891.0,-1.1,-1.0,0.4,8.0,-3.2,3.9000000000000004,17.6,-5.300000000000001,-44.6,16
582,9908.0,-1.7000000000000002,-1.3,0.6000000000000001,7.6000000000000005,-3.3000000000000003,4.0,9.100000000000001,5.9,-45.400000000000006,16
583,9925.0,-1.8,-1.7000000000000002,0.6000000000000001,7.5,-3.5,4.1000000000000005,12.100000000000001,5.6,-41.900000000000006,16
584,9941.0,-1.9000000000000001,-1.8,0.6000000000000001,7.5,-3.6,4.0,12.100000000000001,5.6,-41.900000000000006,16
585,9958.0,-1.8,-2.0,0.30000000000000004,7.6000000000000005,-3.6,3.6,17.9,1.8000000000000003,-36.8,16
586,9975.0,-1.6,-1.9000000000000001,0.0,7.7,-3.5,3.5,25.8,-9.600000000000001,-26.000000000000004,16
587,9993.0,-1.6,-1.9000000000000001,-0.1,7.800000000000001,-3.4000000000000004,3.3000000000000003,25.5,-11.8,-21.900000000000002,16
588,10010.0,-1.7000000000000002,-1.8,-0.2,7.7,-3.2,3.1,25.5,-11.8,-21.900000000000002,16
589,10026.0,-1.8,-1.6,-0.30000000000000004,7.6000000000000005,-3.0,3.0,15.700000000000001,-8.8,-14.600000000000001,16
590,10044.0,-1.9000000000000001,-1.4000000000000001,-0.4,7.5,-2.8000000000000003,3.0,9.3,-5.9,-11.8,16
591,10058.0,-2.0,-1.3,-0.5,7.2,-2.5,2.9000000000000004,9.3,-5.9,-11.8,16
592,10075.0,-2.2,-1.0,-0.4,7.1000000000000005,-2.3000000000000003,2.9000000000000004,-2.7,0.6000000000000001,-6.699999999999999,16
593,10091.0,-2.4000000000000004,-0.9,-0.4,6.9,-2.2,3.0,-5.500000000000001,3.0,-4.2,16
594,10108.0,-2.5,-0.7000000000000001,-0.4,6.800000000000001,-2.1,2.9000000000000004,-6.0,3.3000000000000007,-1.0,16
595,10126.0,-2.6,-0.7000000000000001,-0.4,6.6000000000000005,-2.0,2.9000000000000004,-6.0,3.3000000000000007,-1.0,16
596,10141.0,-2.7,-0.8,-0.6000000000000001,6.6000000000000005,-2.3000000000000003,2.7,-2.9,-2.3,7.6,16
597,10158.0,-2.4000000000000004,-1.1,-0.5,6.800000000000001,-2.6,2.8000000000000003,-1.7,-6.0,14.400000000000002,16
598,10177.0,-2.2,-1.3,-0.4,7.2,-2.9000000000000004,2.9000000000000004,-1.7,-6.0,14.400000000000002,16
599,10191.0,-1.6,-1.5,-0.4,7.800000000000001,-3.1,2.8000000000000003,0.5,-13.000000000000002,30.000000000000004,16
600,10208.0,-0.8,-1.7000000000000002,-0.4,8.5,-3.4000000000000004,2.8000000000000003,-0.7,-16.8,37.1,16
601,10225.0,-0.30000000000000004,-1.7000000000000002,-0.30000000000000004,9.3,-3.6,2.9000000000000004,-0.7,-16.8,37.1,16
602,10241.0,0.6000000000000001,-1.7000000000000002,-0.1,10.0,-3.6,3.1,-4.800000000000001,-18.8,41.900000000000006,16
603,10259.0,1.2000000000000002,-1.7000000000000002,0.30000000000000004,10.4,-3.9000000000000004,3.4000000000000004,-21.7,-11.2,42.900000000000006,16
604,10275.0,1.4000000000000001,-2.1,0.6000000000000001,10.600000000000001,-4.4,3.6,-33.7,-1.7,42.1,16
605,10292.0,1.4000000000000001,-2.4000000000000004,0.7000000000000001,10.5,-5.1000000000000005,3.8000000000000003,-33.7,-1.7,42.1,16
606,10308.0,1.2000000000000002,-2.9000000000000004,1.0,10.3,-5.6000000000000005,4.2,-53.300000000000004,12.100000000000001,51.0,16
607,10327.0,1.0,-2.8000000000000003,1.8,10.100000000000001,-5.7,4.9,-51.9,12.200000000000001,61.50000000000001,16
608,10345.0,1.1,-2.0,2.5,10.0,-5.2,5.5,-40.6,7.300000000000001,73.30000000000001,16
609,10364.0,1.4000000000000001,-0.9,3.0,10.200000000000001,-4.5,5.9,-19.1,-1.0,83.4,16
610,10375.0,1.6,-0.2,2.8000000000000003,10.4,-3.6,5.7,9.2,-10.600000000000001,89.30000000000001,16
611,10392.0,1.6,1.1,1.9000000000000001,10.4,-2.7,5.0,36.1,-19.300000000000004,90.6,16
612,10408.0,1.6,1.7000000000000002,1.4000000000000001,10.4,-1.8,4.0,36.1,-19.300000000000004,90.6,16
613,10425.0,1.7000000000000002,3.0,0.1,10.4,-0.8,2.9000000000000004,68.0,-23.6,81.8,16
614,10443.0,2.2,3.9000000000000004,-1.2000000000000002,10.8,-0.2,1.8,70.6,-24.8,67.2,16
615,10458.0,2.5,4.0,-1.8,11.200000000000001,-0.4,1.0,70.6,-24.8,67.2,16
616,10475.0,2.8000000000000003,3.3000000000000003,-2.4000000000000004,11.4,-1.1,0.6000000000000001,62.900000000000006,-23.900000000000006,47.3,16
617,10492.0,2.8000000000000003,2.4000000000000004,-2.7,11.4,-1.8,0.30000000000000004,22.5,-7.500000000000001,10.700000000000001,16
618,10508.0,2.7,1.9000000000000001,-2.6,11.4,-2.3000000000000003,0.5,-3.0,2.1,-2.9,16
619,10525.0,2.7,1.8,-2.5,11.4,-2.3000000000000003,0.7000000000000001,-3.0,2.1,-2.9,16
620,10543.0,2.6,1.9000000000000001,-1.9000000000000001,11.200000000000001,-2.2,1.3,-49.0,15.5,-31.2,16
621,10561.0,2.1,1.7000000000000002,-1.0,10.8,-2.3000000000000003,2.1,-65.8,21.8,-46.7,16
622,10578.0,1.1,1.2000000000000002,-0.30000000000000004,10.0,-2.7,2.6,-79.5,30.200000000000003,-59.40000000000001,16
623,10592.0,0.6000000000000001,0.9,0.2,9.200000000000001,-3.1,3.4000000000000004,-79.5,30.200000000000003,-59.40000000000001,16
624,10608.0,0.1,0.6000000000000001,0.7000000000000001,9.200000000000001,-3.1,3.4000000000000004,-87.60000000000001,39.9,-67.3,16
625,10627.0,-1.3,0.1,1.7000000000000002,7.6000000000000005,-3.5,4.7,-75.00000000000001,51.0,-68.5,16
626,10643.0,-1.8,-0.1,1.6,7.1000000000000005,-3.6,4.800000000000001,-56.800000000000004,49.4,-62.7,16
627,10658.0,-2.0,-0.1,1.2000000000000002,6.9,-3.5,4.2,-36.0,41.199999999999996,-55.3,16
628,10675.0,-2.0,-0.2,0.2,6.9,-3.5,3.4000000000000004,-18.700000000000003,28.500000000000004,-47.900000000000006,16
629,10692.0,-1.9000000000000001,-0.30000000000000004,-0.4,7.1000000000000005,-3.4000000000000004,2.9000000000000004,-7.500000000000001,17.5,-41.50000000000001,16
630,10711.0,-1.9000000000000001,-0.30000000000000004,-0.7000000000000001,7.0,-3.5,2.5,-7.500000000000001,17.5,-41.50000000000001,16
631,10725.0,-1.9000000000000001,-0.4,-1.2000000000000002,7.1000000000000005,-3.4000000000000004,2.1,-8.0,15.100000000000001,-30.3,16
632,10742.0,-1.7000000000000002,-0.2,-1.4000000000000001,7.2,-3.2,2.0,-16.200000000000003,21.900000000000002,-25.8,16
633,10761.0,-1.5,-0.1,-1.5,7.4,-3.1,1.9000000000000001,-25.1,28.700000000000003,-22.8,16
634,10780.0,-1.4000000000000001,-0.1,-1.6,7.6000000000000005,-3.1,1.9000000000000001,-32.0,32.9,-20.8,16
635,10795.0,-1.2000000000000002,-0.30000000000000004,-1.7000000000000002,7.6000000000000005,-3.2,1.8,-35.3,31.9,-18.6,16
636,10808.0,-1.3,-0.30000000000000004,-1.7000000000000002,7.5,-3.3000000000000003,1.9000000000000001,-35.3,31.9,-18.6,16
637,10825.0,-1.3,-0.4,-1.4000000000000001,7.5,-3.3000000000000003,2.2,-36.6,28.0,-14.5,16
638,10842.0,-1.1,-0.2,-1.2000000000000002,7.6000000000000005,-3.1,2.5,-32.9,21.200000000000003,-3.1,16
639,10858.0,-1.0,0.0,-0.9,7.7,-3.0,2.7,-29.300000000000004,18.4,0.8,16
640,10875.0,-0.9,0.0,-0.9,7.9,-3.2,2.6,-29.300000000000004,18.4,0.8,16
641,10892.0,-0.8,-0.4,-1.1,7.9,-3.6,2.5,-25.0,12.9,8.3,16
642,10910.0,-0.6000000000000001,-0.9,-1.0,8.1,-4.1000000000000005,2.7,-24.5,9.0,15.700000000000001,16
643,10925.0,-0.2,-1.0,-0.7000000000000001,8.700000000000001,-4.3,3.1,-24.5,9.0,15.700000000000001,16
644,10941.0,0.4,-1.2000000000000002,-0.4,9.200000000000001,-4.6000000000000005,3.2,-21.7,4.300000000000001,23.5,16
645,10958.0,1.1,-1.0,-0.1,9.8,-4.4,3.4000000000000004,-15.299999999999999,-6.2,37.6,16
646,10975.0,2.1,-0.7000000000000001,0.0,10.700000000000001,-4.3,3.5,-15.100000000000001,-10.4,39.9,16
647,10992.0,2.5,-0.6000000000000001,0.2,11.200000000000001,-4.2,3.8000000000000003,-15.100000000000001,-10.4,39.9,16
648,11009.0,2.8000000000000003,-0.30000000000000004,0.7000000000000001,11.4,-4.1000000000000005,4.2,-21.0,-7.699999999999999,34.60000000000001,16
649,11026.0,2.9000000000000004,-0.4,1.1,11.4,-4.3,4.6000000000000005,-24.599999999999998,-3.4,30.699999999999996,16
650,11044.0,2.4000000000000004,-0.4,1.6,11.0,-4.5,4.9,-26.5,2.3,30.1,16
651,11058.0,2.3000000000000003,-0.2,1.7000000000000002,10.8,-4.2,5.1000000000000005,-26.5,2.3,30.1,16
652,11075.0,2.3000000000000003,0.2,1.9000000000000001,10.8,-4.0,5.300000000000001,-17.6,1.2000000000000002,33.50000000000001,16
653,11091.0,2.4000000000000004,0.6000000000000001,2.1,10.9,-3.7,5.5,-17.6,1.2000000000000002,33.50000000000001,16
654,11108.0,2.4000000000000004,0.8,2.3000000000000003,10.8,-3.3000000000000003,5.800000000000001,-8.0,-5.1000000000000005,33.800000000000004,16
655,11125.0,2.2,1.5,2.7,10.600000000000001,-2.7,6.1000000000000005,19.0,-16.5,32.2,16
656,11141.0,2.1,2.1,2.8000000000000003,10.600000000000001,-2.7,6.1000000000000005,19.0,-16.5,32.2,16
657,11161.0,1.7000000000000002,3.1,2.0,10.200000000000001,-1.3,5.5,47.400000000000006,-18.700000000000003,17.1,16
658,11175.0,1.5,3.0,1.6,9.8,-1.5,4.9,47.400000000000006,-18.700000000000003,17.1,16
659,11191.0,0.9,2.4000000000000004,1.0,9.3,-2.0,4.4,54.9,-11.5,-2.1,16
660,11208.0,0.4,1.6,0.6000000000000001,8.9,-2.6,4.2,57.1,-10.5,-6.0,16
661,11225.0,0.2,1.2000000000000002,0.6000000000000001,8.8,-3.1,4.1000000000000005,57.1,-10.5,-6.0,16
662,11242.0,0.30000000000000004,0.7000000000000001,0.5,8.9,-3.3000000000000003,4.0,68.0,-20.3,-5.6,16
663,11258.0,0.5,0.6000000000000001,0.1,9.1,-3.3000000000000003,3.7,71.8,-26.000000000000004,-5.9,16
664,11275.0,0.7000000000000001,0.6000000000000001,-0.1,9.4,-3.2,3.4000000000000004,71.8,-26.000000000000004,-5.9,16
665,11291.0,0.9,0.6000000000000001,-0.30000000000000004,9.700000000000001,-3.0,3.4000000000000004,70.5,-29.800000000000004,-8.4,16
666,11310.0,1.0,0.7000000000000001,-0.2,9.700000000000001,-2.8000000000000003,3.5,54.699999999999996,-25.1,-21.200000000000003,16
667,11325.0,1.0,0.8,-0.1,9.700000000000001,-2.6,3.6,54.699999999999996,-25.1,-21.200000000000003,16
668,11341.0,0.8,0.8,0.0,9.5,-2.5,3.6,44.300000000000004,-17.799999999999997,-30.3,16
669,11358.0,0.4,0.6000000000000001,0.0,9.3,-2.7,3.7,24.1,-0.6000000000000001,-48.2,16
670,11375.0,0.30000000000000004,0.30000000000000004,0.1,9.3,-2.7,3.7,24.1,-0.6000000000000001,-48.2,16
671,11391.0,-0.1,-0.2,0.2,8.8,-3.3000000000000003,4.1000000000000005,17.7,4.7,-54.300000000000004,16
672,11408.0,-0.4,-0.8,0.5,8.6,-3.6,4.2,15.6,6.0,-58.0,16
673,11425.0,-0.8,-1.2000000000000002,0.5,8.200000000000001,-3.8000000000000003,4.2,20.0,3.2,-59.20000000000001,16
674,11442.0,-1.0,-1.4000000000000001,0.4,8.0,-3.9000000000000004,4.2,20.0,3.2,-59.20000000000001,16
675,11459.0,-1.3,-1.8,0.30000000000000004,7.800000000000001,-4.0,4.0,23.3,0.5,-57.00000000000001,16
676,11475.0,-1.5,-2.0,-0.1,7.6000000000000005,-4.1000000000000005,3.7,24.200000000000003,-3.1,-50.400000000000006,16
677,11491.0,-1.6,-2.3000000000000003,-0.30000000000000004,7.5,-4.1000000000000005,3.5,20.3,-2.5,-46.4,16
678,11508.0,-1.7000000000000002,-2.3000000000000003,-0.4,7.300000000000001,-4.0,3.3000000000000003,20.3,-2.5,-46.4,16
679,11525.0,-2.0,-2.2,-0.6000000000000001,7.2,-3.9000000000000004,3.2,11.8,2.4000000000000004,-37.6,16
680,11541.0,-2.2,-2.0,-0.8,7.0,-3.6,3.0,8.700000000000001,5.2,-33.7,16
681,11558.0,-2.5,-1.8,-1.1,6.7,-3.3000000000000003,2.8000000000000003,6.2,7.9,-29.700000000000006,16
682,11575.0,-2.7,-1.7000000000000002,-1.3,6.4,-3.2,2.5,6.2,7.9,-29.700000000000006,16
683,11591.0,-2.9000000000000004,-1.6,-1.4000000000000001,6.2,-3.1,2.5,2.9,9.100000000000001,-19.300000000000004,16
684,11610.0,-3.0,-1.9000000000000001,-1.6,6.1000000000000005,-3.3000000000000003,2.3000000000000003,3.6000000000000005,6.2,-12.100000000000001,16
685,11625.0,-3.0,-2.0,-1.7000000000000002,6.2,-3.6,2.1,3.6000000000000005,6.2,-12.100000000000001,16
686,11642.0,-2.6,-2.3000000000000003,-1.9000000000000001,6.6000000000000005,-3.7,1.9000000000000001,2.5,-6.0,6.500000000000001,16
687,11659.0,-2.0,-2.3000000000000003,-2.0,7.1000000000000005,-3.8000000000000003,1.8,-3.3000000000000007,-13.000000000000002,15.100000000000001,16
688,11679.0,-1.3,-2.2,-1.6,7.7,-3.8000000000000003,2.1,-12.7,-17.0,21.6,16
689,11691.0,-1.1,-2.0,-1.2000000000000002,8.1,-3.6,2.8000000000000003,-12.7,-17.0,21.6,16
690,11708.0,-0.7000000000000001,-1.8,-0.4,8.5,-3.6,3.4000000000000004,-33.300000000000004,-9.3,27.400000000000002,16
691,11725.0,-0.2,-1.9000000000000001,0.1,8.8,-3.9000000000000004,3.7,-41.300000000000004,-3.1,28.800000000000004,16
692,11741.0,0.0,-2.1,0.30000000000000004,9.200000000000001,-4.4,3.9000000000000004,-41.300000000000004,-3.1,28.800000000000004,16
693,11758.0,0.4,-2.5,0.30000000000000004,9.5,-4.9,3.9000000000000004,-51.50000000000001,-0.5,35.9,16
694,11775.0,1.0,-3.0,0.5,10.0,-5.5,4.1000000000000005,-55.400000000000006,-5.500000000000001,42.7,16
695,11791.0,1.5,-3.1,1.1,10.4,-5.800000000000001,4.5,-58.1,-10.700000000000001,51.2,16
696,11808.0,1.6,-2.8000000000000003,1.5,10.600000000000001,-5.4,5.1000000000000005,-58.1,-10.700000000000001,51.2,16
697,11825.0,1.8,-1.5,2.2,10.8,-4.3,5.5,-52.60000000000001,-14.700000000000001,66.4,16
698,11844.0,2.1,0.1,2.4000000000000004,11.0,-3.2,5.7,-44.9,-12.8,65.6,16
699,11859.0,2.1,0.8,2.6,10.700000000000001,-2.2,5.9,-44.9,-12.8,65.6,16
700,11876.0,1.5,2.2,2.7,10.200000000000001,-1.3,5.800000000000001,-22.8,4.0,51.4,16
701,11895.0,1.1,2.9000000000000004,2.0,9.8,-0.9,5.1000000000000005,-6.300000000000001,7.0,43.00000000000001,16
702,11910.0,1.0,2.6,1.0,9.700000000000001,-1.2000000000000002,4.3,9.600000000000001,1.7,36.400000000000006,16
703,11925.0,1.3,2.4000000000000004,0.6000000000000001,10.200000000000001,-1.6,3.6,9.600000000000001,1.7,36.400000000000006,16
704,11941.0,1.9000000000000001,1.9000000000000001,-0.1,10.700000000000001,-2.1,3.1,29.600000000000005,-17.5,24.1,16
705,11958.0,2.5,1.2000000000000002,-0.6000000000000001,11.200000000000001,-2.7,2.6,27.700000000000003,-22.9,15.8,16
706,11975.0,2.6,1.1,-0.7000000000000001,11.3,-2.8000000000000003,2.5,27.700000000000003,-22.9,15.8,16
707,11991.0,2.5,1.3,-0.7000000000000001,11.200000000000001,-2.5,2.5,-0.7,-9.100000000000001,-3.7000000000000006,16
708,12011.0,2.2,1.6,-0.5,11.0,-2.2,2.7,-22.3,8.899999999999999,-17.5,16
709,12025.0,1.9000000000000001,1.6,-0.4,10.200000000000001,-2.1,2.9000000000000004,-22.3,8.899999999999999,-17.5,16
710,12042.0,0.8,1.5,-0.1,9.200000000000001,-2.4000000000000004,3.3000000000000003,-43.50000000000001,28.900000000000002,-31.6,16
711,12058.0,-0.30000000000000004,1.0,0.30000000000000004,8.4,-2.6,3.7,-63.900000000000006,52.60000000000001,-47.3,16
712,12075.0,-1.2000000000000002,0.7000000000000001,0.6000000000000001,7.6000000000000005,-2.8000000000000003,4.0,-58.800000000000004,52.5,-47.900000000000006,16
713,12091.0,-1.5,0.6000000000000001,0.6000000000000001,7.1000000000000005,-3.0,4.1000000000000005,-58.800000000000004,52.5,-47.900000000000006,16
714,12108.0,-2.0,0.2,0.6000000000000001,6.7,-3.2,4.1000000000000005,-30.3,33.1,-38.2,16
715,12125.0,-2.3000000000000003,0.0,0.30000000000000004,6.5,-3.4000000000000004,3.9000000000000004,-14.700000000000001,21.300000000000004,-29.300000000000004,16
716,12142.0,-2.2,-0.1,0.0,6.6000000000000005,-3.4000000000000004,3.6,-2.0,11.2,-20.3,16
717,12158.0,-2.0,0.0,-0.30000000000000004,6.9,-3.3000000000000003,3.2,-2.0,11.2,-20.3,16
718,12176.0,-1.6,0.1,-0.8,7.2,-3.2,2.8000000000000003,6.9,2.9,-7.8,16
719,12192.0,-1.2000000000000002,0.2,-1.3,7.5,-3.0,2.4000000000000004,3.1,3.1,-4.300000000000001,16
720,12208.0,-1.1,0.30000000000000004,-1.4000000000000001,7.800000000000001,-2.8000000000000003,2.2,3.1,3.1,-4.300000000000001,16
721,12225.0,-0.7000000000000001,0.5,-1.5,8.1,-2.8000000000000003,2.1,-8.100000000000001,3.2,-1.4,16
722,12241.0,-0.30000000000000004,0.30000000000000004,-1.5,8.4,-2.9000000000000004,2.1,-14.600000000000001,2.9,-1.6,16
723,12260.0,-0.30000000000000004,0.2,-1.2000000000000002,8.4,-3.0,2.3000000000000003,-21.6,4.800000000000001,-1.4,16
724,12275.0,-0.2,0.2,-0.9,8.6,-3.0,2.8000000000000003,-21.6,4.800000000000001,-1.4,16
725,12291.0,0.0,0.30000000000000004,-0.5,8.700000000000001,-2.9000000000000004,3.0,-31.3,15.100000000000001,-1.9,16
726,12309.0,0.1,0.5,-0.9,8.8,-2.8000000000000003,2.7,-41.1,28.400000000000002,-3.2,16
727,12329.0,0.4,0.6000000000000001,-1.0,9.0,-2.8000000000000003,2.6,-56.7,45.3,-5.4,16
728,12343.0,0.5,0.5,-0.7000000000000001,9.1,-3.0,3.2,-65.6,56.2,-7.9,16
729,12361.0,0.4,0.1,-0.1,8.9,-3.4000000000000004,3.7,-59.60000000000001,52.80000000000001,-7.400000000000001,16
730,12375.0,0.30000000000000004,-0.1,0.1,8.8,-3.8000000000000003,4.0,-59.60000000000001,52.80000000000001,-7.400000000000001,16
731,12392.0,0.30000000000000004,-0.5,0.30000000000000004,8.9,-4.1000000000000005,4.2,-44.2,38.0,-2.6,16
732,12409.0,0.7000000000000001,-0.6000000000000001,0.5,9.200000000000001,-4.2,4.4,-6.8,-1.7,12.7,16
733,12425.0,0.9,-0.5,0.7000000000000001,9.700000000000001,-4.1000000000000005,4.6000000000000005,-6.8,-1.7,12.7,16
734,12442.0,1.5,-0.5,0.9,10.100000000000001,-4.3,4.7,6.300000000000001,-13.8,17.5,16
735,12458.0,1.7000000000000002,-0.7000000000000001,0.9,10.200000000000001,-4.5,4.7,14.400000000000002,-16.1,20.5,16
736,12477.0,1.9000000000000001,-1.1,0.9,10.4,-4.9,4.7,13.399999999999999,-14.600000000000001,22.9,16
737,12491.0,2.0,-1.3,1.0,10.5,-5.2,4.9,13.399999999999999,-14.600000000000001,22.9,16
738,12508.0,1.9000000000000001,-1.1,1.4000000000000001,10.4,-4.800000000000001,5.2,12.8,-13.8,27.400000000000002,16
739,12525.0,1.8,0.0,1.6,10.3,-3.9000000000000004,5.300000000000001,25.200000000000003,-17.799999999999997,36.8,16
740,12541.0,1.8,0.5,1.5,10.3,-3.2,5.0,25.200000000000003,-17.799999999999997,36.8,16
741,12558.0,1.7000000000000002,0.9,1.2000000000000002,10.100000000000001,-3.1,5.0,35.0,-24.599999999999998,36.2,16
742,12575.0,1.2000000000000002,1.1,1.5,9.600000000000001,-2.9000000000000004,5.300000000000001,52.1,-34.400000000000006,33.300000000000004,16
743,12593.0,0.7000000000000001,1.6,1.7000000000000002,9.200000000000001,-2.4000000000000004,5.4,64.2,-35.599999999999994,32.0,16
744,12608.0,0.4,1.9000000000000001,1.5,8.8,-2.0,4.9,64.2,-35.599999999999994,32.0,16
745,12625.0,0.1,2.1,0.7000000000000001,8.5,-2.0,4.2,76.2,-36.1,29.400000000000002,16
746,12641.0,-0.1,1.8,-0.1,8.5,-2.2,3.6,86.7,-38.2,22.2,16
747,12658.0,0.1,1.2000000000000002,-0.5,8.700000000000001,-2.6,3.3000000000000003,87.10000000000001,-40.0,19.1,16
748,12675.0,0.1,1.0,-0.6000000000000001,8.6,-3.0,3.0,87.10000000000001,-40.0,19.1,16
749,12692.0,-0.1,0.7000000000000001,-0.8,8.5,-3.0,2.9000000000000004,85.80000000000001,-47.3,15.5,16
750,12708.0,-0.2,0.7000000000000001,-0.8,8.5,-3.0,3.0,83.70000000000002,-51.50000000000001,14.5,16
751,12725.0,-0.2,0.7000000000000001,-0.6000000000000001,8.6,-3.0,3.0,83.70000000000002,-51.50000000000001,14.5,16
752,12741.0,0.1,0.7000000000000001,-0.6000000000000001,8.9,-2.9000000000000004,3.0,80.60000000000001,-55.0,13.000000000000002,16
753,12758.0,0.5,0.8,-0.2,9.4,-2.8000000000000003,3.3000000000000003,64.60000000000001,-54.50000000000001,5.9,16
754,12775.0,0.7000000000000001,0.8,0.0,9.700000000000001,-2.5,3.6,64.60000000000001,-54.50000000000001,5.9,16
755,12792.0,0.9,1.0,0.4,9.8,-2.4000000000000004,3.8000000000000003,54.1,-47.7,-1.1,16
756,12810.0,1.0,0.9,0.6000000000000001,9.9,-2.5,3.9000000000000004,32.0,-29.200000000000003,-19.6,16
757,12826.0,0.9,0.7000000000000001,0.6000000000000001,9.9,-2.5,3.9000000000000004,32.0,-29.200000000000003,-19.6,16
758,12843.0,0.5,0.0,1.0,9.600000000000001,-3.0,4.2,10.299999999999999,-11.3,-35.0,16
759,12859.0,0.4,-0.2,1.2000000000000002,9.4,-3.2,4.5,10.299999999999999,-11.3,-35.0,16
760,12875.0,0.0,-0.4,1.4000000000000001,9.1,-3.3000000000000003,4.6000000000000005,2.2,-0.7,-43.900000000000006,16
761,12891.0,-0.2,-0.5,1.4000000000000001,8.8,-3.3000000000000003,4.7,2.2,-0.7,-43.900000000000006,16
762,12908.0,-0.6000000000000001,-0.7000000000000001,1.4000000000000001,8.5,-3.4000000000000004,4.7,3.6000000000000005,0.5,-47.1,16
763,12925.0,-0.9,-0.8,1.2000000000000002,8.4,-3.3000000000000003,4.5,7.6,4.300000000000001,-51.50000000000001,16
764,12942.0,-1.0,-0.9,0.8,8.3,-3.2,4.2,8.100000000000001,8.3,-53.7,16
765,12958.0,-1.1,-0.9,0.6000000000000001,7.9,-3.2,3.8000000000000003,8.100000000000001,8.3,-53.7,16
766,12975.0,-1.8,-1.2000000000000002,0.0,7.4,-3.3000000000000003,3.3000000000000003,6.1000000000000005,15.100000000000001,-56.300000000000004,16
767,12991.0,-2.4000000000000004,-1.4000000000000001,-0.6000000000000001,6.800000000000001,-3.3000000000000003,2.8000000000000003,1.4,16.8,-53.50000000000001,16
768,13009.0,-2.6,-1.5,-0.7000000000000001,6.5,-3.4000000000000004,2.8000000000000003,1.4,16.8,-53.50000000000001,16
769,13025.0,-3.0,-1.7000000000000002,-0.6000000000000001,6.2,-3.5,3.0,-3.5,18.200000000000003,-48.6,16
770,13041.0,-3.3000000000000003,-1.9000000000000001,-0.6000000000000001,5.800000000000001,-3.5,2.9000000000000004,-4.1,17.0,-34.2,16
771,13059.0,-3.6,-2.1,-0.8,5.6000000000000005,-3.7,2.8000000000000003,-0.7,11.8,-23.900000000000006,16
772,13074.0,-3.6,-2.3000000000000003,-0.9,5.7,-4.0,2.7,-0.7,11.8,-23.900000000000006,16
773,13091.0,-3.1,-2.6,-1.0,6.300000000000001,-4.2,2.6,5.0,-3.2,2.3,16
774,13108.0,-2.6,-2.7,-1.0,6.300000000000001,-4.2,2.6,5.0,-3.2,2.3,16
775,13125.0,-1.5,-2.5,-0.9,8.1,-4.1000000000000005,2.6,4.800000000000001,-9.600000000000001,14.100000000000001,16
776,13142.0,-0.6000000000000001,-2.3000000000000003,-0.8,8.700000000000001,-4.0,2.7,2.5,-15.8,21.6,16
777,13158.0,0.1,-2.0,-0.6000000000000001,9.3,-3.9000000000000004,2.8000000000000003,-12.7,-17.200000000000003,26.000000000000004,16
778,13175.0,0.5,-1.9000000000000001,-0.5,9.600000000000001,-3.9000000000000004,2.9000000000000004,-25.7,-10.5,24.3,16
779,13192.0,0.7000000000000001,-2.0,-0.5,9.9,-4.3,2.7,-25.7,-10.5,24.3,16
780,13208.0,1.0,-2.6,-0.8,10.100000000000001,-5.1000000000000005,2.4000000000000004,-58.1,5.8,22.1,16
781,13225.0,1.0,-3.4000000000000004,-1.0,10.100000000000001,-5.800000000000001,2.3000000000000003,-77.7,10.5,26.700000000000003,16
782,13241.0,1.0,-3.5,-0.7000000000000001,10.0,-6.0,3.1,-77.7,10.5,26.700000000000003,16
783,13258.0,1.0,-2.8000000000000003,0.6000000000000001,10.0,-5.2,4.2,-91.90000000000002,11.700000000000001,36.300000000000004,16
784,13275.0,1.0,-1.3,1.7000000000000002,10.100000000000001,-4.1000000000000005,5.1000000000000005,-83.89999999999999,2.7,54.9,16
785,13292.0,1.2000000000000002,0.7000000000000001,2.7,10.100000000000001,-2.5,5.9,-67.00000000000001,2.0,57.20000000000001,16
786,13308.0,1.1,1.7000000000000002,3.0,9.9,-1.1,6.2,-67.00000000000001,2.0,57.20000000000001,16
787,13325.0,1.0,3.1,2.9000000000000004,9.9,-0.30000000000000004,5.800000000000001,-18.3,6.699999999999999,45.9,16
788,13341.0,1.1,3.2,1.8,9.9,-0.5,4.9,5.8,1.7,36.8,16
789,13358.0,1.2000000000000002,2.4000000000000004,1.1,9.9,-1.2000000000000002,4.3,26.5,-8.0,31.9,16
790,13375.0,1.4000000000000001,2.1,0.7000000000000001,10.4,-1.8,3.8000000000000003,26.5,-8.0,31.9,16
791,13391.0,2.2,1.5,0.30000000000000004,11.100000000000001,-2.3000000000000003,3.4000000000000004,56.2,-35.5,22.700000000000003,16
792,13408.0,2.7,1.0,0.0,11.600000000000001,-2.6,3.1,57.00000000000001,-40.5,13.399999999999999,16
793,13428.0,2.8000000000000003,1.0,-0.1,11.700000000000001,-2.6,3.0,47.80000000000001,-34.1,1.5,16
794,13441.0,2.7,1.0,-0.2,11.600000000000001,-2.5,2.8000000000000003,30.3,-17.400000000000002,-13.000000000000002,16
795,13458.0,2.2,1.1,-0.7000000000000001,11.100000000000001,-2.4000000000000004,2.3000000000000003,5.6,5.300000000000001,-29.1,16
796,13475.0,1.7000000000000002,1.0,-1.0,10.200000000000001,-2.5,2.0,5.6,5.300000000000001,-29.1,16
797,13491.0,0.5,0.7000000000000001,-1.1,9.1,-2.7,2.1,-21.8,28.500000000000004,-43.4,16
798,13508.0,-0.7000000000000001,0.30000000000000004,-0.9,8.200000000000001,-2.9000000000000004,2.4000000000000004,-56.2,54.300000000000004,-57.00000000000001,16
799,13525.0,-1.6,-0.1,-0.7000000000000001,7.4,-3.2,2.6,-58.0,52.900000000000006,-55.900000000000006,16
800,13543.0,-1.9000000000000001,-0.30000000000000004,-0.7000000000000001,6.800000000000001,-3.4000000000000004,2.8000000000000003,-58.0,52.900000000000006,-55.900000000000006,16
801,13558.0,-2.5,-0.5,-0.6000000000000001,6.4,-3.4000000000000004,2.8000000000000003,-45.099999999999994,35.2,-42.3,16
802,13575.0,-2.7,-0.5,-0.7000000000000001,6.300000000000001,-3.4000000000000004,2.8000000000000003,-35.699999999999996,23.6,-32.9,16
803,13592.0,-2.5,-0.5,-0.5,6.5,-3.3000000000000003,2.9000000000000004,-27.700000000000003,14.800000000000002,-24.200000000000003,16
804,13608.0,-2.4000000000000004,-0.4,-0.6000000000000001,6.7,-3.2,2.8000000000000003,-27.700000000000003,14.800000000000002,-24.200000000000003,16
805,13625.0,-2.1,-0.30000000000000004,-0.9,6.9,-3.1,2.6,-23.5,12.4,-12.299999999999999,16
806,13645.0,-1.9000000000000001,-0.2,-1.2000000000000002,7.1000000000000005,-3.0,2.3000000000000003,-28.0,15.899999999999999,-8.600000000000001,16
807,13660.0,-1.8,-0.2,-1.3,7.1000000000000005,-3.1,2.2,-28.0,15.899999999999999,-8.600000000000001,16
808,13677.0,-1.7000000000000002,-0.30000000000000004,-1.1,7.2,-3.2,2.5,-37.6,18.4,0.1,16
809,13693.0,-1.4000000000000001,-0.30000000000000004,-0.7000000000000001,7.4,-3.3000000000000003,2.8000000000000003,-36.9,15.6,5.7,16
810,13710.0,-1.1,-0.2,-0.5,7.7,-3.2,3.0,-33.1,11.3,11.4,16
811,13725.0,-0.9,-0.1,-0.4,7.9,-3.2,3.2,-33.1,11.3,11.4,16
812,13749.0,-0.4,0.2,0.0,8.4,-2.9000000000000004,3.6,-24.5,5.2,20.7,16
813,13761.0,-0.30000000000000004,0.30000000000000004,0.0,8.4,-2.9000000000000004,3.6,-20.5,6.500000000000001,24.1,16
814,13775.0,-0.1,0.5,0.0,8.700000000000001,-2.8000000000000003,3.5,-20.5,6.500000000000001,24.1,16
815,13791.0,0.2,0.6000000000000001,-0.2,8.9,-2.8000000000000003,3.3000000000000003,-10.9,6.300000000000001,27.9,16
816,13808.0,0.5,0.5,-0.4,9.1,-3.0,3.1,-7.1000000000000005,3.5,30.1,16
817,13825.0,0.7000000000000001,0.5,-0.5,9.600000000000001,-3.1,3.1,-7.1000000000000005,3.5,30.1,16
818,13853.0,1.8,0.4,-0.30000000000000004,10.200000000000001,-3.2,3.1,-2.8,-4.0,33.400000000000006,16
819,13858.0,1.8,0.4,-0.30000000000000004,10.200000000000001,-3.2,3.1,-2.8,-4.0,33.400000000000006,16
820,13877.0,2.7,0.2,0.0,11.3,-3.6,3.4000000000000004,-6.2,-8.8,28.900000000000002,16
821,13892.0,2.8000000000000003,0.1,0.30000000000000004,11.3,-3.8000000000000003,3.9000000000000004,-6.2,-8.8,28.900000000000002,16
822,13908.0,2.9000000000000004,0.1,0.7000000000000001,11.5,-3.9000000000000004,4.2,-12.5,-4.4,26.200000000000003,16
823,13926.0,3.1,-0.1,1.2000000000000002,11.600000000000001,-4.1000000000000005,4.6000000000000005,-13.900000000000002,-4.1,25.8,16
824,13947.0,3.0,0.2,2.1,11.5,-4.0,5.4,-10.8,-3.2,26.9,16
825,13959.0,2.8000000000000003,0.6000000000000001,2.4000000000000004,11.200000000000001,-3.3000000000000003,5.800000000000001,-10.8,-3.2,26.9,16
826,13975.0,2.4000000000000004,1.4000000000000001,2.4000000000000004,10.9,-2.8000000000000003,5.7,13.200000000000003,-8.0,26.400000000000006,16
827,13991.0,2.4000000000000004,1.6,2.3000000000000003,10.9,-2.5,5.800000000000001,27.9,-14.200000000000001,23.700000000000003,16
828,14008.0,2.4000000000000004,1.7000000000000002,2.4000000000000004,10.8,-2.5,5.800000000000001,27.9,-14.200000000000001,23.700000000000003,16
829,14025.0,1.8,1.8,2.2,10.200000000000001,-2.3000000000000003,5.5,61.10000000000001,-24.400000000000002,16.700000000000003,16
830,14041.0,1.2000000000000002,2.3000000000000003,1.4000000000000001,9.700000000000001,-1.8,4.800000000000001,74.4,-27.700000000000003,12.7,16
831,14058.0,1.0,2.5,0.9,9.4,-1.5,4.1000000000000005,74.4,-27.700000000000003,12.7,16
832,14076.0,0.7000000000000001,2.4000000000000004,0.2,9.3,-1.7000000000000002,3.6,81.3,-29.300000000000004,6.699999999999999,16
833,14091.0,0.4,1.8,-0.2,9.1,-2.2,3.3000000000000003,81.0,-26.400000000000006,-6.600000000000001,16
834,14111.0,0.1,1.0,-0.6000000000000001,8.8,-2.7,3.0,78.80000000000001,-25.300000000000004,-10.1,16
835,14124.0,-0.1,0.6000000000000001,-0.7000000000000001,8.6,-3.2,2.8000000000000003,78.80000000000001,-25.300000000000004,-10.1,16
836,14146.0,-0.2,0.0,-0.9,8.700000000000001,-3.6,2.7,74.2,-32.300000000000004,-8.3,16
837,14159.0,0.2,-0.30000000000000004,-0.7000000000000001,9.0,-3.7,2.8000000000000003,71.30000000000001,-37.0,-5.8,16
838,14175.0,0.5,-0.30000000000000004,-0.6000000000000001,9.600000000000001,-3.5,3.0,71.30000000000001,-37.0,-5.8,16
839,14195.0,1.1,0.0,-0.6000000000000001,10.0,-3.2,2.8000000000000003,67.4,-39.599999999999994,-5.500000000000001,16
840,14208.0,1.2000000000000002,0.30000000000000004,-0.6000000000000001,10.200000000000001,-2.9000000000000004,2.8000000000000003,47.80000000000001,-35.699999999999996,-16.900000000000002,16
841,14227.0,1.2000000000000002,0.5,-0.4,10.3,-2.6,2.9000000000000004,31.9,-27.5,-26.799999999999997,16
842,14242.0,1.1,0.5,-0.30000000000000004,10.100000000000001,-2.5,3.2,31.9,-27.5,-26.799999999999997,16
843,14260.0,0.8,0.2,0.1,9.9,-2.6,3.5,-0.30000000000000004,-3.4,-48.6,16
844,14274.0,0.30000000000000004,-0.30000000000000004,0.5,9.5,-2.9000000000000004,3.8000000000000003,-10.700000000000001,6.4,-57.3,16
845,14293.0,-0.4,-0.9,0.9,8.9,-3.3000000000000003,4.2,-14.800000000000002,11.700000000000001,-62.7,16
846,14308.0,-0.8,-1.2000000000000002,1.0,8.3,-3.7,4.5,-14.800000000000002,11.700000000000001,-62.7,16
847,14325.0,-1.4000000000000001,-1.6,1.3,7.800000000000001,-3.9000000000000004,4.7,-6.300000000000001,11.000000000000002,-60.900000000000006,16
848,14342.0,-1.8,-1.8,1.4000000000000001,7.5,-3.9000000000000004,4.800000000000001,3.9,6.8,-56.0,16
849,14358.0,-1.8,-1.9000000000000001,1.3,7.4,-3.9000000000000004,4.6000000000000005,3.9,6.8,-56.0,16
850,14375.0,-2.0,-2.1,0.8,7.4,-3.9000000000000004,4.2,23.400000000000002,-6.600000000000001,-45.3,16
851,14392.0,-1.9000000000000001,-2.2,0.4,7.5,-3.9000000000000004,3.8000000000000003,25.8,-10.600000000000001,-40.4,16
852,14409.0,-1.8,-2.2,0.2,7.6000000000000005,-3.8000000000000003,3.6,25.8,-10.600000000000001,-40.4,16
853,14426.0,-1.7000000000000002,-2.2,0.1,7.6000000000000005,-3.6,3.4000000000000004,23.5,-10.5,-36.8,16
854,14441.0,-1.9000000000000001,-2.0,-0.2,7.4,-3.4000000000000004,3.2,10.600000000000001,-0.5,-33.400000000000006,16
855,14458.0,-2.3000000000000003,-1.9000000000000001,-0.4,7.1000000000000005,-3.2,3.1,2.8,5.8,-31.9,16
856,14475.0,-2.5,-1.9000000000000001,-0.4,6.7,-3.2,3.0,2.8,5.8,-31.9,16
857,14491.0,-2.9000000000000004,-1.9000000000000001,-0.6000000000000001,6.300000000000001,-3.1,2.9000000000000004,-7.699999999999999,15.399999999999999,-25.200000000000003,16
858,14508.0,-3.2,-1.8,-0.9,6.1000000000000005,-3.0,2.6,-8.5,14.5,-19.799999999999997,16
859,14524.0,-3.2,-1.9000000000000001,-1.1,6.0,-3.1,2.4000000000000004,-8.5,14.5,-19.799999999999997,16
860,14541.0,-3.2,-2.2,-1.2000000000000002,6.1000000000000005,-3.5,2.3000000000000003,-6.8,0.7,-5.1000000000000005,16
861,14558.0,-3.0,-2.5,-1.2000000000000002,6.300000000000001,-3.8000000000000003,2.4000000000000004,-7.300000000000001,-6.300000000000001,5.6,16
862,14575.0,-2.7,-2.6,-1.0,6.9,-4.0,2.7,-7.300000000000001,-6.300000000000001,5.6,16
863,14594.0,-1.8,-2.6,-0.6000000000000001,7.7,-4.0,3.0,-9.5,-11.1,16.700000000000003,16
864,14610.0,-0.9,-2.4000000000000004,-0.2,8.4,-3.8000000000000003,3.2,-17.400000000000002,-10.5,31.799999999999997,16
865,14625.0,-0.1,-2.0,-0.1,9.1,-3.6,3.2,-22.2,-7.8,34.50000000000001,16
866,14643.0,0.2,-1.9000000000000001,-0.2,9.600000000000001,-3.8000000000000003,3.0,-22.2,-7.8,34.50000000000001,16
867,14658.0,0.8,-2.1,-0.5,10.100000000000001,-4.1000000000000005,2.8000000000000003,-40.2,-1.6,36.400000000000006,16
868,14677.0,1.3,-2.4000000000000004,-0.4,10.4,-4.5,2.9000000000000004,-53.50000000000001,3.2,38.2,16
869,14691.0,1.4000000000000001,-2.4000000000000004,-0.30000000000000004,10.5,-4.7,3.3000000000000003,-53.50000000000001,3.2,38.2,16
870,14708.0,1.4000000000000001,-2.3000000000000003,0.4,10.5,-4.6000000000000005,3.9000000000000004,-65.10000000000001,7.9,41.1,16
871,14725.0,1.4000000000000001,-1.6,1.1,10.4,-4.1000000000000005,4.5,-67.9,9.4,50.1,16
872,14741.0,1.1,-0.6000000000000001,1.7000000000000002,10.100000000000001,-3.5,4.9,-58.1,6.9,53.50000000000001,16
873,14759.0,0.9,-0.2,1.9000000000000001,9.600000000000001,-2.9000000000000004,5.1000000000000005,-58.1,6.9,53.50000000000001,16
874,14781.0,0.30000000000000004,1.4000000000000001,1.8,9.200000000000001,-2.1,5.1000000000000005,-22.1,-3.1,61.50000000000001,16
875,14794.0,0.4,1.8,1.6,9.3,-1.6,4.7,1.4,-13.900000000000002,63.10000000000001,16
876,14810.0,0.8,2.2,0.9,9.600000000000001,-1.4000000000000001,4.0,21.6,-24.7,61.9,16
877,14825.0,1.3,2.2,0.5,10.5,-1.5,3.4000000000000004,21.6,-24.7,61.9,16
878,14842.0,2.3000000000000003,2.0,-0.1,11.200000000000001,-1.8,2.9000000000000004,37.7,-35.4,48.0,16
879,14858.0,2.8000000000000003,1.7000000000000002,-0.5,11.700000000000001,-2.1,2.5,31.6,-32.2,36.5,16
880,14875.0,2.9000000000000004,1.6,-0.7000000000000001,11.8,-2.1,2.2,31.6,-32.2,36.5,16
881,14898.0,2.7,1.7000000000000002,-0.6000000000000001,11.600000000000001,-2.1,2.3000000000000003,-2.1,-9.0,9.2,16
882,14908.0,2.4000000000000004,1.7000000000000002,-0.4,11.200000000000001,-2.1,2.5,-23.5,8.8,-5.1000000000000005,16
883,14926.0,2.0,1.6,-0.30000000000000004,10.600000000000001,-2.3000000000000003,2.8000000000000003,-23.5,8.8,-5.1000000000000005,16
884,14943.0,1.2000000000000002,1.3,0.1,9.8,-2.5,3.2,-42.0,25.300000000000004,-17.799999999999997,16
885,14959.0,0.2,1.1,0.5,9.0,-2.6,3.6,-56.7,43.4,-34.7,16
886,14975.0,-0.6000000000000001,0.9,0.7000000000000001,8.3,-2.8000000000000003,3.7,-52.1,45.3,-37.0,16
887,14994.0,-1.2000000000000002,0.6000000000000001,0.4,7.800000000000001,-3.0,3.6,-43.1,41.900000000000006,-35.3,16
888,15011.0,-1.2000000000000002,0.5,0.2,7.6000000000000005,-3.0,3.3000000000000003,-32.2,34.400000000000006,-31.3,16
889,15027.0,-1.3,0.5,-0.2,7.5,-3.0,3.0,-22.9,25.7,-27.0,16
890,15041.0,-1.4000000000000001,0.5,-0.5,7.5,-2.9000000000000004,2.6,-22.9,25.7,-27.0,16
891,15058.0,-1.3,0.5,-0.8,7.6000000000000005,-2.9000000000000004,2.6,-18.5,18.8,-23.099999999999998,16
892,15076.0,-1.0,0.4,-0.5,7.9,-3.0,2.9000000000000004,-22.4,20.599999999999998,-19.5,16
893,15092.0,-0.9,0.30000000000000004,-0.30000000000000004,7.9,-3.0,2.9000000000000004,-25.200000000000003,29.500000000000004,-18.4,16
894,15110.0,-0.9,0.1,-0.4,7.9,-3.2,2.8000000000000003,-25.200000000000003,29.500000000000004,-18.4,16
895,15126.0,-0.8,0.2,-1.0,7.9,-3.1,2.3000000000000003,-28.200000000000003,38.300000000000004,-12.9,16
896,15141.0,-0.8,0.2,-1.4000000000000001,7.9,-3.1,2.3000000000000003,-29.800000000000004,32.300000000000004,-10.1,16
897,15158.0,-0.8,0.4,-1.8,7.9,-2.9000000000000004,1.8,-29.800000000000004,32.300000000000004,-10.1,16
898,15174.0,-0.9,0.4,-1.4000000000000001,7.7,-2.9000000000000004,2.4000000000000004,-32.6,23.3,-7.200000000000001,16
899,15193.0,-0.9,0.5,-0.6000000000000001,7.800000000000001,-2.9000000000000004,3.0,-31.9,15.8,1.6,16
900,15208.0,-1.0,0.7000000000000001,-0.2,7.7,-2.7,3.4000000000000004,-25.900000000000002,16.4,5.6,16
901,15225.0,-1.0,0.8,-0.2,7.6000000000000005,-2.7,3.3000000000000003,-25.900000000000002,16.4,5.6,16
902,15241.0,-0.8,0.7000000000000001,-0.6000000000000001,7.800000000000001,-2.9000000000000004,3.0,-15.000000000000002,15.2,14.0,16
903,15258.0,-0.5,0.30000000000000004,-0.8,8.1,-3.3000000000000003,2.9000000000000004,-12.4,11.5,19.700000000000003,16
904,15275.0,-0.2,0.1,-0.6000000000000001,8.6,-3.7,3.1,-12.4,11.5,19.700000000000003,16
905,15291.0,0.6000000000000001,-0.1,-0.30000000000000004,9.200000000000001,-3.8000000000000003,3.3000000000000003,-8.100000000000001,5.7,26.5,16
906,15308.0,1.4000000000000001,0.1,-0.2,9.9,-3.6,3.3000000000000003,4.7,-8.8,35.9,16
907,15325.0,2.1,0.4,-0.4,10.5,-3.4000000000000004,3.2,4.7,-12.100000000000001,35.3,16
908,15341.0,2.5,0.5,-0.4,11.0,-3.3000000000000003,3.3000000000000003,4.7,-12.100000000000001,35.3,16
909,15358.0,2.7,0.9,0.0,11.100000000000001,-3.1,3.6,-10.9,-3.5,24.599999999999998,16
910,15375.0,2.6,0.8,0.4,11.0,-3.3000000000000003,3.9000000000000004,-19.6,2.9,17.9,16
911,15392.0,2.2,0.30000000000000004,0.9,10.600000000000001,-3.8000000000000003,4.4,-25.200000000000003,8.2,14.5,16
912,15410.0,2.0,0.2,1.2000000000000002,10.3,-4.0,4.800000000000001,-25.200000000000003,8.2,14.5,16
913,15425.0,1.9000000000000001,0.1,1.6,10.3,-4.1000000000000005,5.2,-21.0,10.0,18.6,16
914,15441.0,1.9000000000000001,0.4,2.0,10.3,-4.0,5.5,-10.1,4.5,22.3,16
915,15458.0,1.9000000000000001,0.5,2.1,10.3,-3.7,5.6000000000000005,-10.1,4.5,22.3,16
916,15475.0,2.0,0.8,2.2,10.3,-3.6,5.800000000000001,23.3,-17.799999999999997,27.9,16
917,15492.0,1.8,1.2000000000000002,2.4000000000000004,10.100000000000001,-3.1,5.9,41.800000000000004,-26.799999999999997,30.200000000000003,16
918,15508.0,1.7000000000000002,1.7000000000000002,2.3000000000000003,10.0,-2.3000000000000003,5.7,41.800000000000004,-26.799999999999997,30.200000000000003,16
919,15524.0,1.6,2.5,1.8,10.0,-1.7000000000000002,5.2,58.800000000000004,-31.799999999999997,29.900000000000006,16
920,15541.0,1.8,3.0,1.1,10.200000000000001,-1.4000000000000001,4.6000000000000005,78.80000000000001,-30.699999999999996,15.8,16
921,15558.0,1.7000000000000002,2.4000000000000004,0.30000000000000004,10.100000000000001,-1.8,3.9000000000000004,82.60000000000001,-29.200000000000003,5.7,16
922,15575.0,1.4000000000000001,1.9000000000000001,-0.1,9.8,-2.5,3.3000000000000003,82.60000000000001,-29.200000000000003,5.7,16
923,15591.0,1.2000000000000002,1.1,-0.7000000000000001,9.700000000000001,-3.1,2.9000000000000004,80.9,-34.400000000000006,-4.5,16
924,15608.0,1.3,0.5,-0.8,9.9,-3.4000000000000004,2.9000000000000004,77.80000000000001,-40.800000000000004,-6.1000000000000005,16
925,15625.0,1.4000000000000001,0.4,-0.7000000000000001,10.0,-3.4000000000000004,2.9000000000000004,77.80000000000001,-40.800000000000004,-6.1000000000000005,16
926,15642.0,1.4000000000000001,0.6000000000000001,-0.6000000000000001,10.100000000000001,-3.0,3.0,73.2,-45.0,-8.600000000000001,16
927,15660.0,1.3,0.7000000000000001,-0.5,10.100000000000001,-2.9000000000000004,3.0,54.4,-41.800000000000004,-21.400000000000002,16
928,15680.0,1.0,0.7000000000000001,-0.2,9.9,-2.8000000000000003,3.2,40.7,-32.9,-29.400000000000002,16
929,15691.0,0.9,0.6000000000000001,-0.1,9.700000000000001,-2.8000000000000003,3.4000000000000004,40.7,-32.9,-29.400000000000002,16
930,15709.0,0.6000000000000001,0.4,0.2,9.600000000000001,-2.8000000000000003,3.7,18.700000000000003,-16.0,-43.900000000000006,16
931,15724.0,0.4,0.2,0.5,9.4,-2.9000000000000004,3.9000000000000004,14.100000000000001,-12.0,-49.9,16
932,15745.0,0.2,-0.2,0.7000000000000001,9.4,-3.0,4.1000000000000005,11.900000000000002,-10.4,-55.7,16
933,15758.0,0.1,-0.4,0.7000000000000001,9.200000000000001,-3.2,4.1000000000000005,11.900000000000002,-10.4,-55.7,16
934,15775.0,-0.4,-0.8,0.8,8.8,-3.4000000000000004,4.1000000000000005,7.300000000000001,-5.300000000000001,-65.4,16
935,15794.0,-1.1,-1.3,0.9,8.200000000000001,-3.7,4.2,5.0,-1.3,-67.00000000000001,16
936,15812.0,-1.7000000000000002,-1.6,0.9,7.800000000000001,-3.8000000000000003,4.3,4.1,2.5,-66.7,16
937,15825.0,-2.0,-1.8,0.8,7.300000000000001,-3.9000000000000004,4.2,4.4,4.300000000000001,-64.2,16
938,15842.0,-2.4000000000000004,-2.2,0.7000000000000001,6.9,-4.1000000000000005,4.1000000000000005,5.300000000000001,4.5,-59.40000000000001,16
939,15859.0,-2.6,-2.4000000000000004,0.6000000000000001,6.7,-4.2,4.0,5.300000000000001,4.5,-59.40000000000001,16
940,15874.0,-2.9000000000000004,-2.5,0.4,6.4,-4.2,3.8000000000000003,7.0,3.6000000000000005,-53.2,16
941,15891.0,-3.0,-2.5,0.2,6.300000000000001,-4.0,3.6,11.5,-1.0,-37.9,16
942,15908.0,-3.1,-2.2,-0.30000000000000004,6.300000000000001,-3.7,3.2,12.0,-1.6,-30.9,16
943,15925.0,-3.0,-1.9000000000000001,-0.5,6.4,-3.2,2.8000000000000003,12.0,-1.6,-30.9,16
944,15941.0,-2.9000000000000004,-1.6,-0.9,6.4,-3.0,2.4000000000000004,3.7000000000000006,2.0,-24.7,16
945,15958.0,-2.9000000000000004,-1.6,-1.2000000000000002,6.4,-3.0,2.4000000000000004,3.7000000000000006,2.0,-24.7,16
946,15975.0,-3.0,-2.0,-1.4000000000000001,6.2,-3.5,2.2,-5.6,5.2,-22.700000000000003,16
947,15992.0,-3.1,-2.6,-1.1,6.1000000000000005,-4.0,2.5,-23.700000000000003,8.5,-11.5,16
948,16010.0,-3.1,-3.1,-0.7000000000000001,6.1000000000000005,-4.5,2.8000000000000003,-27.400000000000002,5.9,0.6000000000000001,16
949,16026.0,-2.9000000000000004,-3.2,-0.4,6.6000000000000005,-4.6000000000000005,3.3000000000000003,-27.400000000000002,5.9,0.6000000000000001,16
950,16044.0,-2.1,-3.1,0.1,7.4,-4.6000000000000005,3.7,-23.6,-6.699999999999999,25.4,16
951,16058.0,-1.1,-2.8000000000000003,0.4,8.1,-4.4,3.8000000000000003,-22.1,-9.700000000000001,33.1,16
952,16075.0,-0.6000000000000001,-2.4000000000000004,0.4,8.6,-4.2,3.8000000000000003,-24.400000000000002,-8.600000000000001,38.2,16
953,16091.0,-0.30000000000000004,-2.3000000000000003,0.4,9.1,-4.3,3.8000000000000003,-24.400000000000002,-8.600000000000001,38.2,16
954,16108.0,0.30000000000000004,-2.4000000000000004,0.6000000000000001,9.5,-4.6000000000000005,3.9000000000000004,-33.6,-2.8,45.5,16
955,16124.0,0.8,-2.5,0.6000000000000001,9.9,-4.9,3.9000000000000004,-37.300000000000004,-2.1,48.9,16
956,16141.0,1.0,-2.6,0.7000000000000001,10.100000000000001,-5.300000000000001,4.1000000000000005,-37.300000000000004,-2.1,48.9,16
957,16158.0,1.1,-2.7,1.1,10.200000000000001,-5.4,4.5,-40.4,-3.2,53.9,16
958,16175.0,1.5,-2.3000000000000003,1.8,10.5,-5.1000000000000005,5.0,-35.8,-10.1,68.80000000000001,16
959,16191.0,2.0,-1.3,2.3000000000000003,10.9,-4.5,5.5,-26.000000000000004,-14.100000000000001,73.7,16
960,16210.0,2.2,-0.6000000000000001,2.6,11.200000000000001,-3.4000000000000004,5.800000000000001,-26.000000000000004,-14.100000000000001,73.7,16
961,16224.0,2.1,1.1,2.8000000000000003,10.8,-2.2,5.800000000000001,0.4,-7.0,66.60000000000001,16
962,16242.0,1.5,2.5,2.1,10.3,-1.1,5.1000000000000005,14.5,0.1,57.49999999999999,16
963,16258.0,1.3,3.0,1.4000000000000001,9.9,-0.6000000000000001,3.9000000000000004,25.7,1.5,46.9,16
964,16274.0,1.3,3.1,0.1,10.200000000000001,-0.9,3.0,25.7,1.5,46.9,16
965,16292.0,1.9000000000000001,2.4000000000000004,-0.8,10.700000000000001,-1.5,2.3000000000000003,34.400000000000006,-6.9,23.900000000000006,16
966,16309.0,2.4000000000000004,1.7000000000000002,-1.5,11.200000000000001,-2.1,1.8,29.500000000000004,-10.1,11.4,16
967,16328.0,2.6,1.1,-1.9000000000000001,11.3,-2.6,1.3,17.0,-10.0,-1.1,16
968,16341.0,2.4000000000000004,0.8,-1.9000000000000001,11.100000000000001,-3.0,1.3,-3.4,-1.7,-12.0,16
969,16359.0,2.0,0.8,-1.8,10.8,-2.9000000000000004,1.5,-29.500000000000004,14.300000000000002,-22.5,16
970,16374.0,1.8,0.8,-1.5,10.3,-3.0,1.9000000000000001,-29.500000000000004,14.300000000000002,-22.5,16
971,16391.0,1.0,0.5,-0.9,9.5,-3.3000000000000003,2.7,-55.0,32.0,-32.8,16
972,16408.0,0.0,0.1,0.0,8.700000000000001,-3.6,3.4000000000000004,-81.2,55.60000000000001,-43.800000000000004,16
973,16424.0,-1.0,-0.2,0.6000000000000001,7.9,-3.8000000000000003,3.9000000000000004,-77.9,57.400000000000006,-41.7,16
974,16447.0,-1.8,-0.4,0.9,7.1000000000000005,-3.9000000000000004,4.3,-64.7,51.1,-34.0,16
975,16461.0,-2.0,-0.30000000000000004,1.0,6.800000000000001,-3.8000000000000003,4.5,-43.6,38.1,-22.4,16
976,16475.0,-1.9000000000000001,0.0,0.7000000000000001,6.9,-3.5,4.2,-18.900000000000002,20.8,-11.2,16
977,16491.0,-1.7000000000000002,0.2,0.4,7.1000000000000005,-3.1,3.5,-18.900000000000002,20.8,-11.2,16
978,16510.0,-1.4000000000000001,0.5,-0.6000000000000001,7.4,-2.9000000000000004,2.8000000000000003,1.1,5.2,-3.3000000000000007,16
979,16525.0,-1.0,0.7000000000000001,-1.1,7.7,-2.8000000000000003,2.3000000000000003,7.9,-3.2,2.5,16
980,16542.0,-1.1,0.7000000000000001,-1.5,7.6000000000000005,-2.8000000000000003,2.1,-0.30000000000000004,1.9,2.6,16
981,16564.0,-1.1,0.6000000000000001,-1.5,7.6000000000000005,-2.9000000000000004,2.0,-11.000000000000002,9.2,3.5,16
982,16576.0,-1.1,0.6000000000000001,-1.5,7.5,-2.9000000000000004,2.0,-20.8,15.2,5.4,16
983,16595.0,-1.0,0.7000000000000001,-1.3,7.6000000000000005,-2.9000000000000004,2.2,-26.400000000000006,15.700000000000001,7.400000000000001,16
984,16608.0,-0.9,0.7000000000000001,-1.1,7.7,-3.0,2.6,-26.400000000000006,15.700000000000001,7.400000000000001,16
985,16624.0,-0.8,0.6000000000000001,-0.6000000000000001,7.7,-3.1,3.1,-27.800000000000004,12.9,9.700000000000001,16
986,16641.0,-0.8,0.6000000000000001,-0.2,7.7,-3.1,3.3000000000000003,-21.500000000000004,8.100000000000001,18.0,16
987,16658.0,-0.6000000000000001,1.0,-0.1,7.9,-2.8000000000000003,3.4000000000000004,-15.000000000000002,5.2,22.1,16
988,16675.0,-0.4,1.1,-0.1,8.1,-2.7,3.4000000000000004,-15.000000000000002,5.2,22.1,16
989,16693.0,-0.2,1.3,-0.30000000000000004,8.3,-2.6,3.2,-4.6,1.9,26.300000000000004,16
990,16708.0,0.2,1.2000000000000002,-0.5,8.6,-2.8000000000000003,3.0,-3.2,0.8,27.3,16
991,16724.0,0.4,1.1,-0.4,8.9,-3.0,3.1,-3.2,0.8,27.3,16
992,16741.0,0.8,0.9,-0.30000000000000004,9.3,-3.3000000000000003,3.2,-1.8000000000000003,-1.0,28.500000000000004,16
993,16758.0,1.6,0.8,-0.1,10.0,-3.4000000000000004,3.4000000000000004,3.9,-8.8,32.1,16
994,16774.0,2.5,0.9,0.1,10.8,-3.4000000000000004,3.6,6.1000000000000005,-11.700000000000001,30.799999999999997,16
995,16791.0,2.9000000000000004,0.9,0.2,11.5,-3.3000000000000003,3.6,6.1000000000000005,-11.700000000000001,30.799999999999997,16
996,16808.0,3.5,1.2000000000000002,0.2,11.9,-3.1,3.7,1.3,-9.0,18.1,16
997,16825.0,3.7,1.2000000000000002,0.4,12.100000000000001,-3.2,3.8000000000000003,-7.300000000000001,-1.6,7.8,16
998,16843.0,3.7,1.0,0.6000000000000001,11.9,-3.6,4.2,-17.300000000000004,8.600000000000001,-1.7,16
999,16859.0,3.2,0.5,1.1,11.4,-4.0,4.6000000000000005,-17.300000000000004,8.600000000000001,-1.7,16
1000,16878.0,2.6,0.2,1.5,10.9,-4.2,5.0,-20.7,20.400000000000002,-8.5,16
1001,16891.0,2.3000000000000003,0.1,1.6,10.4,-4.2,5.1000000000000005,-20.7,20.400000000000002,-8.5,16
1002,16910.0,1.8,0.4,1.5,10.100000000000001,-3.8000000000000003,4.9,-11.3,17.6,-6.4,16
1003,16926.0,1.6,0.7000000000000001,1.3,10.100000000000001,-3.7,4.9,17.200000000000003,-3.1,-0.5,16
1004,16942.0,1.6,0.7000000000000001,1.2000000000000002,10.0,-3.6,4.800000000000001,31.799999999999997,-13.700000000000001,1.0,16
1005,16958.0,1.5,0.8,1.0,9.8,-3.2,4.4,31.799999999999997,-13.700000000000001,1.0,16
1006,16975.0,1.2000000000000002,1.3,0.6000000000000001,9.700000000000001,-2.7,4.1000000000000005,43.1,-19.9,1.7,16
1007,16991.0,1.1,1.8,0.30000000000000004,9.600000000000001,-2.3000000000000003,3.9000000000000004,55.2,-21.6,-4.4,16
1008,17008.0,0.9,1.7000000000000002,-0.30000000000000004,9.5,-2.3000000000000003,3.4000000000000004,56.7,-20.3,-11.1,16
1009,17026.0,0.8,1.5,-0.6000000000000001,9.3,-2.7,2.9000000000000004,56.7,-20.3,-11.1,16
1010,17042.0,0.5,0.8,-0.9,9.200000000000001,-3.1,2.7,53.2,-22.5,-19.300000000000004,16
1011,17058.0,0.6000000000000001,0.2,-0.8,9.3,-3.5,2.8000000000000003,52.7,-28.400000000000002,-20.1,16
1012,17075.0,0.7000000000000001,0.1,-0.7000000000000001,9.600000000000001,-3.5,3.1,52.7,-28.400000000000002,-20.1,16
1013,17091.0,1.0,0.0,-0.30000000000000004,9.9,-3.4000000000000004,3.3000000000000003,51.9,-33.800000000000004,-20.7,16
1014,17108.0,1.1,0.1,-0.1,10.0,-3.2,3.4000000000000004,43.6,-33.50000000000001,-28.1,16
1015,17125.0,0.8,0.1,0.1,9.8,-3.1,3.5,35.2,-29.700000000000006,-33.800000000000004,16
1016,17141.0,0.7000000000000001,0.1,0.30000000000000004,9.600000000000001,-3.1,3.9000000000000004,35.2,-29.700000000000006,-33.800000000000004,16
1017,17158.0,0.30000000000000004,-0.2,0.8,9.3,-3.1,4.2,19.300000000000004,-17.799999999999997,-43.4,16
1018,17174.0,-0.2,-0.4,1.1,8.9,-3.2,4.5,16.5,-12.9,-45.6,16
1019,17191.0,-0.5,-0.4,1.2000000000000002,8.6,-3.1,4.6000000000000005,16.5,-12.9,-45.6,16
1020,17208.0,-0.9,-0.5,1.2000000000000002,8.3,-3.1,4.5,16.900000000000002,-9.700000000000001,-46.4,16
1021,17225.0,-1.2000000000000002,-0.6000000000000001,1.2000000000000002,8.1,-3.0,4.6000000000000005,23.900000000000006,-11.1,-45.7,16
1022,17241.0,-1.5,-0.9,1.2000000000000002,7.800000000000001,-3.1,4.6000000000000005,29.700000000000006,-13.6,-43.900000000000006,16
1023,17258.0,-1.7000000000000002,-0.9,1.1,7.6000000000000005,-3.0,4.4,29.700000000000006,-13.6,-43.900000000000006,16
1024,17275.0,-1.8,-1.0,0.9,7.6000000000000005,-2.9000000000000004,4.2,40.800000000000004,-19.300000000000004,-37.7,16
1025,17291.0,-1.7000000000000002,-1.0,0.6000000000000001,7.7,-2.8000000000000003,3.8000000000000003,42.400000000000006,-20.3,-35.5,16
1026,17308.0,-1.6,-1.0,0.4,7.9,-2.8000000000000003,3.5,42.400000000000006,-20.3,-35.5,16
1027,17325.0,-1.5,-1.1,-0.1,7.9,-2.7,3.1,40.6,-19.0,-34.7,16
1028,17343.0,-1.6,-1.2000000000000002,-0.4,7.9,-2.7,2.8000000000000003,26.300000000000004,-12.8,-34.900000000000006,16
1029,17358.0,-1.8,-1.2000000000000002,-0.6000000000000001,7.7,-2.6,2.6,15.899999999999999,-8.2,-34.800000000000004,16
1030,17375.0,-1.9000000000000001,-1.3,-0.6000000000000001,7.5,-2.5,2.6,15.899999999999999,-8.2,-34.800000000000004,16
1031,17393.0,-2.2,-1.2000000000000002,-0.6000000000000001,7.300000000000001,-2.4000000000000004,2.6,-4.2,2.7,-32.400000000000006,16
1032,17410.0,-2.3000000000000003,-1.1,-0.6000000000000001,7.1000000000000005,-2.3000000000000003,2.6,-10.700000000000001,6.1000000000000005,-30.799999999999997,16
1033,17425.0,-2.4000000000000004,-1.1,-0.6000000000000001,6.9,-2.2,2.7,-10.700000000000001,6.1000000000000005,-30.799999999999997,16
1034,17443.0,-2.7,-1.2000000000000002,-0.5,6.7,-2.4000000000000004,2.7,-15.8,6.500000000000001,-25.8,16
1035,17460.0,-2.8000000000000003,-1.6,-0.4,6.6000000000000005,-2.7,2.9000000000000004,-15.6,4.0,-20.599999999999998,16
1036,17480.0,-2.7,-2.1,-0.2,6.7,-3.1,3.0,-14.900000000000002,1.1,-14.0,16
1037,17491.0,-2.7,-2.4000000000000004,-0.2,6.800000000000001,-3.5,3.1,-14.900000000000002,1.1,-14.0,16
1038,17508.0,-2.2,-2.8000000000000003,0.0,7.300000000000001,-3.9000000000000004,3.3000000000000003,-15.399999999999999,-5.8,5.8,16
1039,17524.0,-1.4000000000000001,-2.8000000000000003,0.30000000000000004,7.9,-4.0,3.5,-17.0,-7.699999999999999,15.000000000000002,16
1040,17541.0,-1.1,-2.8000000000000003,0.5,8.5,-3.9000000000000004,3.7,-17.0,-7.699999999999999,15.000000000000002,16
1041,17558.0,-0.5,-2.3000000000000003,0.7000000000000001,9.0,-3.6,3.8000000000000003,-24.200000000000003,-1.9,25.1,16
1042,17576.0,0.0,-2.1,0.7000000000000001,9.4,-3.6,3.7,-28.700000000000003,3.7000000000000006,25.200000000000003,16
1043,17592.0,0.1,-2.2,0.4,9.5,-4.1000000000000005,3.3000000000000003,-28.700000000000003,3.7000000000000006,25.200000000000003,16
1044,17608.0,0.2,-2.9000000000000004,0.1,9.5,-4.800000000000001,3.2,-34.7,6.500000000000001,25.7,16
1045,17625.0,0.1,-3.3000000000000003,0.4,9.4,-5.2,3.7,-48.300000000000004,7.200000000000001,37.50000000000001,16
1046,17641.0,0.6000000000000001,-3.1,1.1,9.8,-5.2,4.2,-47.7,6.1000000000000005,47.1,16
1047,17658.0,0.8,-2.7,1.3,10.100000000000001,-4.7,4.4,-47.7,6.1000000000000005,47.1,16
1048,17675.0,1.0,-1.8,1.2000000000000002,10.200000000000001,-4.1000000000000005,4.3,-37.2,1.6,57.3,16
1049,17692.0,0.8,-0.7000000000000001,1.2000000000000002,9.9,-3.3000000000000003,4.3,-33.300000000000004,3.2,58.0,16
1050,17708.0,0.30000000000000004,0.4,1.1,9.4,-2.5,4.2,-27.700000000000003,6.300000000000001,57.60000000000001,16
1051,17725.0,0.2,0.9,1.1,9.1,-1.9000000000000001,4.1000000000000005,-27.700000000000003,6.300000000000001,57.60000000000001,16
1052,17741.0,0.2,1.4000000000000001,0.8,9.3,-1.8,3.8000000000000003,-6.600000000000001,2.7,53.400000000000006,16
1053,17758.0,0.8,1.1,0.4,9.8,-2.2,3.5,4.6,-4.6,50.0,16
1054,17775.0,1.1,0.9,0.2,10.3,-2.6,3.2,4.6,-4.6,50.0,16
1055,17791.0,1.9000000000000001,0.5,0.0,10.9,-3.1,3.0,16.6,-18.700000000000003,42.1,16
1056,17808.0,2.4000000000000004,0.2,0.0,11.4,-3.3000000000000003,3.1,16.5,-20.400000000000002,36.9,16
1057,17824.0,2.7,0.30000000000000004,0.0,11.600000000000001,-3.1,3.0,16.5,-20.400000000000002,36.9,16
1058,17841.0,2.7,0.9,-0.1,11.5,-2.6,2.9000000000000004,11.000000000000002,-16.0,29.400000000000002,16
1059,17858.0,2.4000000000000004,1.4000000000000001,-0.1,11.200000000000001,-2.3000000000000003,2.9000000000000004,-15.100000000000001,9.700000000000001,5.1000000000000005,16
1060,17875.0,1.6,1.5,-0.2,10.5,-2.2,2.8000000000000003,-30.599999999999998,26.9,-8.3,16
1061,17892.0,0.30000000000000004,1.2000000000000002,-0.2,9.4,-2.4000000000000004,2.9000000000000004,-40.7,38.300000000000004,-17.7,16
1062,17909.0,-0.30000000000000004,1.0,-0.2,8.4,-2.7,3.0,-42.800000000000004,41.800000000000004,-21.300000000000004,16
1063,17925.0,-1.1,0.7000000000000001,-0.30000000000000004,7.7,-2.9000000000000004,2.9000000000000004,-37.800000000000004,38.2,-19.6,16
1064,17944.0,-1.6,0.6000000000000001,-0.5,7.2,-3.0,2.8000000000000003,-29.300000000000004,30.1,-14.400000000000002,16
1065,17958.0,-1.7000000000000002,0.7000000000000001,-0.6000000000000001,7.1000000000000005,-2.8000000000000003,2.6,-29.300000000000004,30.1,-14.400000000000002,16
1066,17976.0,-1.4000000000000001,0.9,-0.8,7.4,-2.6,2.4000000000000004,-14.0,11.2,-3.8,16
1067,17992.0,-1.0,1.1,-1.1,7.7,-2.5,2.2,-13.200000000000003,8.3,-2.7,16
1068,18011.0,-0.7000000000000001,1.1,-1.2000000000000002,8.0,-2.5,2.1,-18.200000000000003,10.700000000000001,-3.8,16
1069,18025.0,-0.8,1.0,-1.3,8.0,-2.6,2.0,-26.9,16.6,-5.1000000000000005,16
1070,18041.0,-0.7000000000000001,0.8,-1.1,8.0,-2.8000000000000003,2.2,-35.699999999999996,22.4,-4.800000000000001,16
1071,18061.0,-0.6000000000000001,0.7000000000000001,-0.8,8.1,-2.9000000000000004,2.5,-40.6,25.0,-3.6000000000000005,16
1072,18078.0,-0.4,0.8,-0.4,8.200000000000001,-2.9000000000000004,2.8000000000000003,-41.199999999999996,23.900000000000006,-2.0,16
1073,18092.0,-0.30000000000000004,0.8,-0.2,8.3,-2.9000000000000004,3.1,-38.900000000000006,21.7,-1.0,16
1074,18108.0,-0.2,0.9,0.1,8.4,-2.8000000000000003,3.4000000000000004,-35.699999999999996,20.900000000000002,-0.5,16
1075,18124.0,-0.30000000000000004,0.9,0.2,8.4,-2.8000000000000003,3.6,-35.699999999999996,20.900000000000002,-0.5,16
1076,18141.0,-0.2,0.9,0.2,8.4,-2.8000000000000003,3.6,-31.400000000000002,29.1,2.1,16
1077,18158.0,-0.2,1.1,0.1,8.4,-2.7,3.5,-28.500000000000004,32.400000000000006,4.2,16
1078,18175.0,-0.2,1.1,0.1,8.4,-2.8000000000000003,3.5,-28.500000000000004,32.400000000000006,4.2,16
1079,18191.0,-0.1,0.9,-0.2,8.5,-3.0,3.4000000000000004,-22.3,31.3,7.1000000000000005,16
1080,18208.0,0.2,0.7000000000000001,-0.30000000000000004,8.700000000000001,-3.2,3.3000000000000003,-4.5,15.6,16.200000000000003,16
1081,18225.0,0.6000000000000001,0.6000000000000001,-0.30000000000000004,9.0,-3.4000000000000004,3.3000000000000003,4.800000000000001,5.4,21.400000000000002,16
1082,18242.0,0.9,0.5,-0.30000000000000004,9.5,-3.5,3.3000000000000003,4.800000000000001,5.4,21.400000000000002,16
1083,18258.0,1.6,0.4,-0.30000000000000004,10.100000000000001,-3.6,3.3000000000000003,16.0,-8.100000000000001,28.3,16
1084,18274.0,2.1,0.8,-0.4,10.5,-3.3000000000000003,3.2,16.0,-9.100000000000001,28.200000000000003,16
1085,18291.0,2.3000000000000003,1.0,-0.4,10.8,-3.0,3.1,16.0,-9.100000000000001,28.200000000000003,16
1086,18308.0,2.7,1.2000000000000002,-0.6000000000000001,11.0,-2.9000000000000004,3.0,12.4,-8.100000000000001,24.599999999999998,16
1087,18324.0,2.6,1.0,-0.4,11.0,-3.2,3.2,-4.1,-0.4,11.700000000000001,16
1088,18341.0,2.5,0.7000000000000001,-0.2,10.8,-3.8000000000000003,3.6,-11.900000000000002,3.6000000000000005,8.4,16
1089,18358.0,2.4000000000000004,0.1,0.30000000000000004,10.600000000000001,-4.3,4.1000000000000005,-11.900000000000002,3.6000000000000005,8.4,16
1090,18374.0,2.1,-0.2,0.9,10.5,-4.4,4.5,-11.4,2.6,13.399999999999999,16
1091,18391.0,2.0,0.4,1.3,10.3,-3.9000000000000004,4.800000000000001,-2.4000000000000004,-2.8,17.7,16
1092,18408.0,2.0,0.7000000000000001,1.4000000000000001,10.5,-3.4000000000000004,4.9,-2.4000000000000004,-2.8,17.7,16
1093,18425.0,2.2,1.2000000000000002,1.4000000000000001,10.600000000000001,-3.1,4.9,9.100000000000001,-9.899999999999999,19.799999999999997,16
1094,18441.0,2.1,1.6,1.3,10.5,-2.7,4.9,30.000000000000004,-20.5,17.300000000000004,16
1095,18458.0,2.0,1.9000000000000001,1.3,10.3,-2.1,4.800000000000001,30.000000000000004,-20.5,17.300000000000004,16
1096,18476.0,1.8,2.6,1.1,10.200000000000001,-1.6,4.5,38.900000000000006,-21.900000000000002,13.5,16
1097,18491.0,1.6,2.7,0.7000000000000001,10.0,-1.6,4.2,52.300000000000004,-22.9,-2.5,16
1098,18508.0,1.2000000000000002,2.0,0.2,9.700000000000001,-2.2,3.8000000000000003,54.9,-22.700000000000003,-10.1,16
1099,18524.0,1.1,1.5,0.1,9.5,-2.9000000000000004,3.7,54.9,-22.700000000000003,-10.1,16
1100,18541.0,0.9,0.7000000000000001,0.0,9.5,-3.4000000000000004,3.6,56.9,-24.1,-13.8,16
1101,18558.0,1.0,0.30000000000000004,-0.1,9.700000000000001,-3.6,3.5,63.900000000000006,-35.0,-14.300000000000002,16
1102,18574.0,1.2000000000000002,0.2,-0.2,10.0,-3.5,3.3000000000000003,64.7,-40.4,-16.200000000000003,16
1103,18591.0,1.4000000000000001,0.30000000000000004,-0.30000000000000004,10.3,-3.3000000000000003,3.2,64.7,-40.4,-16.200000000000003,16
1104,18608.0,1.7000000000000002,0.4,-0.2,10.600000000000001,-3.0,3.3000000000000003,52.7,-41.300000000000004,-28.3,16
1105,18626.0,1.6,0.4,-0.1,10.600000000000001,-2.9000000000000004,3.4000000000000004,40.800000000000004,-34.50000000000001,-38.800000000000004,16
1106,18641.0,1.4000000000000001,0.30000000000000004,0.1,10.3,-2.9000000000000004,3.5,40.800000000000004,-34.50000000000001,-38.800000000000004,16
1107,18658.0,0.8,0.2,0.30000000000000004,9.8,-2.9000000000000004,3.7,27.400000000000002,-24.1,-49.699999999999996,16
1108,18674.0,0.1,-0.2,0.5,9.200000000000001,-3.0,3.9000000000000004,6.0,-3.4,-66.4,16
1109,18691.0,-0.30000000000000004,-0.4,0.7000000000000001,8.700000000000001,-3.3000000000000003,4.1000000000000005,6.0,-3.4,-66.4,16
1110,18709.0,-0.9,-1.0,0.8,8.200000000000001,-3.6,4.2,3.5,1.1,-70.8,16
1111,18726.0,-1.4000000000000001,-1.5,0.9,7.9,-3.8000000000000003,4.2,7.8,0.6000000000000001,-70.3,16
1112,18745.0,-1.9000000000000001,-1.9000000000000001,0.8,7.5,-4.0,4.2,11.700000000000001,-2.8,-66.4,16
1113,18758.0,-2.0,-2.1,0.9,7.4,-4.1000000000000005,4.3,11.700000000000001,-2.8,-66.4,16
1114,18776.0,-2.1,-2.4000000000000004,1.0,7.300000000000001,-4.1000000000000005,4.4,16.1,-6.600000000000001,-61.599999999999994,16
1115,18791.0,-2.3000000000000003,-2.6,0.9,7.1000000000000005,-4.2,4.3,21.900000000000002,-9.5,-51.2,16
1116,18810.0,-2.6,-2.7,0.7000000000000001,6.9,-4.1000000000000005,4.1000000000000005,21.400000000000002,-7.9,-44.9,16
1117,18825.0,-2.7,-2.7,0.6000000000000001,6.800000000000001,-4.0,3.8000000000000003,21.400000000000002,-7.9,-44.9,16
1118,18841.0,-2.7,-2.6,0.30000000000000004,6.7,-3.8000000000000003,3.6,14.0,-1.8000000000000003,-32.0,16
1119,18858.0,-2.7,-2.4000000000000004,0.0,6.800000000000001,-3.5,3.4000000000000004,9.700000000000001,0.9000000000000001,-26.9,16
1120,18874.0,-2.6,-2.2,-0.1,6.800000000000001,-3.2,3.2,9.700000000000001,0.9000000000000001,-26.9,16
1121,18891.0,-2.7,-1.9000000000000001,-0.4,6.6000000000000005,-2.9000000000000004,2.9000000000000004,3.0,4.300000000000001,-20.2,16
1122,18912.0,-2.9000000000000004,-1.6,-0.7000000000000001,6.4,-2.7,2.6,0.0,4.7,-17.200000000000003,16
1123,18926.0,-3.0,-1.6,-0.9,6.300000000000001,-2.6,2.5,-3.1,4.0,-13.900000000000002,16
1124,18941.0,-3.0,-1.6,-1.0,6.4,-2.7,2.4000000000000004,-3.1,4.0,-13.900000000000002,16
1125,18958.0,-2.9000000000000004,-2.0,-1.0,6.5,-3.1,2.4000000000000004,-9.700000000000001,0.4,-5.6,16
1126,18974.0,-2.7,-2.5,-0.9,6.6000000000000005,-3.5,2.4000000000000004,-14.100000000000001,-1.5,1.2000000000000002,16
1127,18992.0,-2.4000000000000004,-2.6,-0.8,7.1000000000000005,-3.9000000000000004,2.6,-14.100000000000001,-1.5,1.2000000000000002,16
1128,19010.0,-1.8,-2.9000000000000004,-0.6000000000000001,7.6000000000000005,-4.1000000000000005,2.8000000000000003,-24.7,-3.1,15.899999999999999,16
1129,19028.0,-1.3,-2.9000000000000004,-0.30000000000000004,8.0,-4.2,3.1,-31.099999999999998,-1.6,22.1,16
1130,19042.0,-1.0,-2.6,0.1,8.200000000000001,-4.1000000000000005,3.4000000000000004,-37.0,2.1,27.400000000000002,16
1131,19058.0,-0.7000000000000001,-2.5,0.1,8.700000000000001,-4.2,3.3000000000000003,-37.0,2.1,27.400000000000002,16
1132,19074.0,-0.1,-3.0,0.0,9.1,-5.0,3.3000000000000003,-49.800000000000004,5.2,34.400000000000006,16
1133,19091.0,0.2,-3.9000000000000004,0.1,9.3,-5.9,3.3000000000000003,-58.1,3.4,41.800000000000004,16
1134,19109.0,0.30000000000000004,-4.4,0.2,9.700000000000001,-6.800000000000001,3.9000000000000004,-58.1,3.4,41.800000000000004,16
