,ms,accelX,accelY,accelZ,accelWithGX,accelWithGY,accelWithGZ,rotRateAlpha,rotRateBeta,rotRateGamma,interval
0,290.0,0.026759088039398193,-0.07386660575866699,0.0726766586303711,0.957550048828125,1.99139404296875,9.557785034179688,-3.2618797815446494,-0.47122841121751974,1.7188034442553688,16
1,306.0,0.12648189067840576,-0.09604835510253906,0.3654613494873047,0.815185546875,1.9638671875,9.356796264648438,-2.516132407205977,0.2544108862046349,1.594657925901217,16
2,337.0,0.0008711814880371094,-0.09999322891235352,0.2281808853149414,0.815185546875,1.9638671875,9.356796264648438,0.5743915884413923,0.5840084947927703,1.1863765380745348,16
3,353.0,0.0010409951210021973,-0.09530401229858398,0.21567916870117188,0.8426971435546875,2.0117340087890625,9.12469482421875,0.37768214034502506,0.2640277925560129,1.8001100161352006,16
4,371.0,0.026684105396270752,-0.04413461685180664,-0.01570606231689453,0.9300384521484375,2.0607757568359375,9.0792236328125,-0.6670635951001254,0.3217292306642806,2.0807488287526845,16
5,389.0,0.10826057195663452,0.008115053176879883,-0.05888843536376953,0.90252685546875,2.026092529296875,9.27783203125,-1.6838328757049035,0.5446666051734969,1.9941966715902828,16
6,407.0,0.0724288821220398,-0.015239953994750977,0.1283416748046875,0.8474884033203125,1.992584228515625,9.3316650390625,-2.2800810694903366,0.26053073570096635,1.1243037788974588,16
7,423.0,0.0724288821220398,-0.015239953994750977,0.1283416748046875,0.8474884033203125,1.992584228515625,9.3316650390625,-2.2800810694903366,0.26053073570096635,1.1243037788974588,16
8,440.0,0.016514956951141357,-0.03303670883178711,0.1643524169921875,0.8773956298828125,1.9949798583984375,9.360382080078125,-1.991573878948998,0.7186451837120617,1.088458946133232,16
9,458.0,0.016514956951141357,-0.03303670883178711,0.1643524169921875,0.8845672607421875,1.97943115234375,9.423797607421875,-1.991573878948998,0.7186451837120617,1.088458946133232,16
10,475.0,0.04659920930862427,-0.02478957176208496,0.1841421127319336,0.8785858154296875,1.9818267822265625,9.373550415039062,-1.459146972768164,1.1942449159983894,0.42926372895696135,16
11,491.0,0.05238032341003418,-0.030242919921875,0.17902660369873047,0.80322265625,1.9758453369140625,9.238357543945312,-0.5254327924707409,1.9242555344893524,-0.6495783108248927,16
12,508.0,0.05238032341003418,-0.030242919921875,0.17902660369873047,0.7792816162109375,1.9698486328125,9.255096435546875,-0.5254327924707409,1.9242555344893524,-0.6495783108248927,16
13,526.0,-0.038788557052612305,-0.0353693962097168,0.05555248260498047,0.7792816162109375,1.9698486328125,9.255096435546875,-0.9223487455185219,0.4388806353083393,0.9389597655799929,16
14,543.0,-0.038788557052612305,-0.0353693962097168,0.05555248260498047,1.00421142578125,2.05120849609375,9.22998046875,-0.9223487455185219,0.4388806353083393,0.9389597655799929,16
15,559.0,-0.036192893981933594,-0.03148245811462402,0.052994728088378906,0.9766998291015625,2.032073974609375,9.232376098632812,-1.01239795953597,0.9144803675946672,0.6819260867340731,16
16,576.0,0.15247076749801636,0.03357863426208496,0.027098655700683594,0.90850830078125,2.022491455078125,9.322097778320312,-1.3638521734681461,-0.387299046696403,-1.352486738689245,16
17,593.0,0.15247076749801636,0.03357863426208496,0.027098655700683594,0.867828369140625,2.0117340087890625,9.316116333007812,-1.3638521734681461,-0.387299046696403,-1.352486738689245,16
18,611.0,0.0345994234085083,0.01678633689880371,0.10360431671142578,0.8905487060546875,1.9363555908203125,9.477630615234375,-0.8812583274717252,-1.7721335612948284,-1.1199324578286507,16
19,632.0,0.05256164073944092,-0.05461394786834717,0.2573261260986328,0.8905487060546875,1.9363555908203125,9.477630615234375,-1.0333803006662492,-0.9835472404818362,-0.6137334780606658,16
20,649.0,0.050068438053131104,-0.0515899658203125,0.24994659423828125,0.852264404296875,1.95550537109375,9.636749267578125,-0.19933224073765213,-0.005245585282569793,-0.3217292306642806,16
21,666.0,0.012308061122894287,-0.033766984939575195,0.3981046676635742,0.915679931640625,2.0428314208984375,9.45849609375,1.8481945478920903,0.5429180767459736,-0.18971533438627416,16
22,683.0,0.07446461915969849,0.046677470207214355,0.21483135223388672,0.879791259765625,2.084716796875,9.062484741210938,2.259972992573819,0.11802566885782034,0.278016019976199,16
23,700.0,0.03690946102142334,0.08230209350585938,-0.17527198791503906,0.945587158203125,2.115814208984375,9.012222290039062,0.6408356686872764,-0.5376724914634038,-0.1285168394229599,16
24,717.0,0.09863626956939697,0.11027693748474121,-0.2196969985961914,0.8762054443359375,2.115814208984375,9.258682250976562,-0.46860561857623484,-0.7090282773606836,-0.37243655506245527,16
25,735.0,0.02524024248123169,0.10930490493774414,0.026040077209472656,0.8762054443359375,2.0416412353515625,9.258682250976562,-0.9074862538845742,-1.967968745177434,-0.4336350500257695,16
26,752.0,0.007379651069641113,0.03663778305053711,0.026518821716308594,0.8092041015625,1.9698486328125,9.367568969726562,-0.9520737287864174,-11.30773334079295,-0.4922107523477989,16
27,768.0,-0.07414191961288452,-0.032158613204956055,0.13329505920410156,0.8115997314453125,1.9590911865234375,9.385513305664062,-0.7894605850267538,-0.9485766719313709,-0.4878394312789907,16
28,791.0,-0.07198792695999146,-0.039937734603881836,0.1468648910522461,0.8115997314453125,1.9842071533203125,9.379531860351562,-0.6635665382450788,-0.9651876919928418,-0.5018276586991769,16
29,808.0,0.00982576608657837,-0.029097437858581543,0.27336597442626953,0.8115997314453125,1.9842071533203125,9.379531860351562,0.15649329426333214,0.4616115048661418,-0.0734381939559771,16
30,825.0,-0.0671074390411377,-0.015705347061157227,0.13105201721191406,0.7661285400390625,2.0715484619140625,8.90216064453125,1.7502769559507876,2.2319965377334468,-0.10491170565139586,16
31,842.0,-0.05869096517562866,-0.01981830596923828,0.127777099609375,0.762542724609375,2.085906982421875,8.851913452148438,1.7214262368966537,2.782782992403275,0.28675866211381534,16
32,858.0,-0.09715986251831055,0.08608341217041016,-0.3867044448852539,0.804412841796875,2.0057525634765625,9.384307861328125,-4.437765149054044,-0.08567789294863995,0.9634391635653186,16
33,879.0,-0.09715986251831055,0.08608341217041016,-0.3867044448852539,0.9228515625,1.9710540771484375,9.844924926757812,-4.437765149054044,-0.08567789294863995,0.9634391635653186,16
34,896.0,-0.056607961654663086,0.01753091812133789,0.1404714584350586,0.8726043701171875,2.0356597900390625,9.574539184570312,-4.26378657051548,-1.4267991968589837,0.49133648813403724,16
35,913.0,0.006579101085662842,0.0517650842666626,0.31206321716308594,0.8726043701171875,2.0356597900390625,9.574539184570312,1.7511512201645492,0.2640277925560129,-1.0805905682093773,16
36,933.0,0.007732033729553223,0.04578733444213867,0.30712890625,0.7003326416015625,2.06317138671875,9.409439086914062,1.877045266946224,0.3995387456890659,-0.30074688953400147,16
37,950.0,-0.16212457418441772,0.06767284870147705,0.14037418365478516,0.78765869140625,2.07275390625,9.3316650390625,1.3795889293158554,-0.7527414880487653,0.8646473074102542,16
38,967.0,-0.07584565877914429,0.07245683670043945,0.06241607666015625,0.8534698486328125,2.115814208984375,9.210830688476562,1.3760918724608089,-0.5682717389450609,1.3874573072397103,16
39,984.0,-0.07584565877914429,0.07245683670043945,0.06241607666015625,0.9168701171875,2.1265869140625,9.19647216796875,1.3760918724608089,-0.5682717389450609,1.3874573072397103,16
40,1000.0,0.050222039222717285,0.11840295791625977,-0.06946754455566406,0.90252685546875,2.097869873046875,9.2060546875,0.29987262532023984,-0.2176917892266464,0.3619453844973157,16
41,1017.0,0.03373122215270996,0.08724641799926758,-0.05851554870605469,0.90252685546875,2.097869873046875,9.2060546875,0.3785564045587867,-0.9083605180983357,-0.26839911362482105,16
42,1034.0,0.0310857892036438,0.08499336242675781,-0.05716133117675781,0.852264404296875,2.014129638671875,9.328079223632812,0.15999035111837867,-0.7431245816973873,-0.17834989960737296,16
43,1051.0,-0.020146489143371582,0.0003046989440917969,0.06410503387451172,0.79962158203125,2.0021514892578125,9.239547729492188,0.5315526419670723,-0.23168001664683252,0.13988227420186114,16
44,1071.0,-0.0727701187133789,-0.013248205184936523,-0.02353191375732422,0.852264404296875,2.0524139404296875,9.16058349609375,0.8296767388597889,-0.5604033610212062,0.26315352834225125,16
45,1088.0,-0.021278440952301025,0.03493189811706543,-0.10038089752197266,0.8570556640625,2.038055419921875,9.192886352539062,0.3558255350009843,-0.37680787613126343,0.5105703008367931,16
46,1104.0,-0.017048180103302002,0.020564794540405273,-0.06698894500732422,0.8426971435546875,2.0536041259765625,9.204849243164062,-0.4974563376303687,-0.01661102006147101,0.5123188292643164,16
47,1122.0,-0.031478166580200195,0.03773760795593262,-0.05459022521972656,0.8426971435546875,2.0536041259765625,9.204849243164062,-1.045619999658912,-0.1827212206761811,0.5053247155542234,16
48,1139.0,-0.032337307929992676,0.04091072082519531,-0.05444049835205078,0.85107421875,2.0368499755859375,9.3017578125,-1.6593534777195778,-0.5787629095102005,0.6172305349157123,16
49,1156.0,-0.025478482246398926,0.02769160270690918,0.04058074951171875,0.8570556640625,2.0524139404296875,9.416610717773438,-1.4031940630874196,-0.7842149997441841,0.7308848827047244,16
50,1172.0,-0.020847320556640625,0.044440269470214844,0.15077781677246094,0.8726043701171875,2.07513427734375,9.4644775390625,-0.31473511695418754,-0.4406291637358626,0.23517707350187905,16
51,1189.0,-0.0056008100509643555,0.06527233123779297,0.1931743621826172,0.8702239990234375,2.109832763671875,9.320907592773438,0.38030493298630996,0.21069767551655336,0.2753932273349141,16
52,1207.0,-0.007242023944854736,0.0955808162689209,0.048526763916015625,0.909698486328125,2.1816253662109375,9.104354858398438,0.8891267053955799,0.2902557189688619,0.22730869557802436,16
53,1223.0,0.03129035234451294,0.1611323356628418,-0.1630086898803711,0.909698486328125,2.1816253662109375,9.104354858398438,0.34096304336703653,-0.2692733778385827,0.032347775909180386,16
54,1240.0,0.02929997444152832,0.15712308883666992,-0.1584758758544922,0.9168701171875,2.1935882568359375,9.141448974609375,-0.7361304679872942,-0.6758062372377416,-0.4703541470037581,16
55,1258.0,0.03408670425415039,0.1670374870300293,-0.11845874786376953,0.8762054443359375,2.143341064453125,9.37115478515625,-1.3341271902002507,-0.5079475081955083,-0.1879668059587509,16
56,1275.0,-0.0073691606521606445,0.11585617065429688,0.10774421691894531,0.897735595703125,2.108642578125,9.491989135742188,-0.47647399650008954,-0.3654424413523622,-0.4283894647431997,16
57,1291.0,0.012911856174468994,0.07758951187133789,0.22259807586669922,0.885772705078125,2.07513427734375,9.46685791015625,1.3690977587507158,-0.5201872071881711,-0.6539496318937008,16
58,1308.0,-9.179115295410156e-06,0.0371551513671875,0.19332218170166016,0.858245849609375,2.07513427734375,9.10675048828125,2.842232958939066,-0.43450931423953115,-0.48084531756889765,16
59,1326.0,-0.02779310941696167,0.02914595603942871,-0.16051959991455078,0.858245849609375,2.07513427734375,9.10675048828125,2.340405300239889,-0.5717687958001074,-0.5761401168689155,16
60,1344.0,-0.028626978397369385,0.024610519409179688,-0.15508460998535156,0.858245849609375,2.073944091796875,9.034957885742188,0.36281964871107736,-0.9223487455185219,-0.6793032940927881,16
61,1360.0,-0.02946770191192627,0.022523880004882812,-0.22036457061767578,0.873809814453125,2.0775299072265625,9.238357543945312,-0.34096304336703653,-0.698537106795544,-1.0395001501625807,16
62,1377.0,-0.014458298683166504,0.02524423599243164,-0.0163726806640625,0.78765869140625,2.0655670166015625,9.209640502929688,0.2500395651358268,-0.47122841121751974,-1.0176435448185397,16
63,1394.0,-0.09859460592269897,0.012491226196289062,-0.04366874694824219,0.8821868896484375,2.12060546875,9.056503295898438,-0.0489587959706514,-0.3942931604064961,-0.21681752501288476,16
64,1412.0,-0.07995367050170898,0.02868509292602539,-0.2023487091064453,0.8821868896484375,2.12060546875,9.056503295898438,-1.9163871565654975,0.08567789294863995,0.14775065212571584,16
65,1429.0,-0.0024968385696411133,0.07411384582519531,-0.1876964569091797,0.92047119140625,2.0835113525390625,9.450119018554688,-3.1552195474657303,-0.37943066877254833,-0.1792241638211346,16
66,1446.0,-0.0038089752197265625,0.07995891571044922,-0.1840963363647461,0.8941497802734375,2.0595855712890625,9.580520629882812,-2.138450266860952,-1.8954048154352185,-1.8621827753122764,16
67,1463.0,0.030629873275756836,0.04802370071411133,0.2025747299194336,0.858245849609375,2.1050567626953125,9.399871826171875,-2.138450266860952,-1.8954048154352185,-1.8621827753122764,16
68,1480.0,-0.00031387805938720703,0.026235103607177734,0.3289680480957031,0.91448974609375,2.2294769287109375,9.052902221679688,-0.050707324398174665,-2.3919868888518256,-2.0999826414554406,16
69,1497.0,-0.039971113204956055,0.06821274757385254,0.1475849151611328,0.875,2.21990966796875,9.012222290039062,1.651485099795723,-1.60165203961131,-1.8875364375113637,16
70,1514.0,0.014394164085388184,0.18550729751586914,-0.1958465576171875,0.875,2.21990966796875,9.012222290039062,1.7083122736902292,-0.3566997992147459,-1.2711801668094131,16
71,1531.0,-0.026189208030700684,0.17201662063598633,-0.23105907440185547,0.90850830078125,2.20794677734375,9.140243530273438,-1.8097269224865784,-0.8261796820047423,-0.16436167218718684,16
72,1548.0,-0.026189208030700684,0.17201662063598633,-0.23105907440185547,0.885772705078125,2.1576995849609375,9.40106201171875,-1.8097269224865784,-0.8261796820047423,-0.16436167218718684,16
73,1565.0,0.005279839038848877,0.16437745094299316,-0.10305213928222656,0.839111328125,2.0894927978515625,9.538650512695312,-2.802891069319793,-0.7614841301863816,-0.4021615383303508,16
74,1582.0,-0.01784062385559082,0.12024736404418945,0.15446090698242188,0.76373291015625,2.0787353515625,9.5721435546875,-2.8151307683124553,0.07431245816973873,-0.7588613375450967,16
75,1599.0,-0.062163472175598145,0.0574193000793457,0.28740692138671875,0.7063140869140625,2.1026611328125,9.410629272460938,-1.782624731859968,0.7850892639579456,-0.8873781769680567,16
76,1615.0,-0.18798476457595825,0.06784415245056152,0.15427017211914062,0.7063140869140625,2.1026611328125,9.410629272460938,2.0405326749196493,0.244793979853257,-0.1879668059587509,16
77,1633.0,-0.18798476457595825,0.06784415245056152,0.15427017211914062,0.72784423828125,2.1481170654296875,9.075637817382812,2.0405326749196493,0.244793979853257,-0.1879668059587509,16
78,1650.0,-0.18472278118133545,0.06233525276184082,0.1535787582397461,0.8726043701171875,2.2163238525390625,8.90216064453125,1.5867895479773624,0.8322995315010738,0.7361304679872942,16
79,1667.0,-0.16084444522857666,0.10487079620361328,-0.17918968200683594,0.915679931640625,2.1744384765625,9.11871337890625,-0.04458747490184324,0.11452861200277381,1.3673492303231927,16
80,1683.0,-0.017895162105560303,0.1737384796142578,-0.3493814468383789,0.9132843017578125,2.0990753173828125,9.43695068359375,-1.5623101499920367,-1.0919560029882784,0.8786355348304403,16
81,1701.0,0.014017343521118164,0.06396627426147461,0.18361282348632812,0.8127899169921875,2.085906982421875,9.45849609375,-1.5500704509993737,-1.637496872375537,-1.7432828422406945,16
82,1720.0,0.014017343521118164,0.06396627426147461,0.18361282348632812,0.8127899169921875,2.085906982421875,9.45849609375,-1.5500704509993737,-1.637496872375537,-1.7432828422406945,16
83,1742.0,-0.08708548545837402,0.04900026321411133,0.20149517059326172,0.73382568359375,2.079925537109375,9.189300537109375,0.7641069228276665,-0.18621827753122763,-0.42664093631567646,16
84,1764.0,-0.1634836196899414,0.04326939582824707,-0.0672760009765625,0.8426971435546875,2.149322509765625,9.105545043945312,-1.2038618223497675,1.0228891301011096,1.0534883775827668,16
85,1780.0,-0.051816701889038086,0.11707139015197754,-0.15099334716796875,0.957550048828125,2.1361541748046875,9.241943359375,-2.5921933938032393,1.342869832337867,2.0326642969957947,16
86,1798.0,0.06516021490097046,0.11062908172607422,-0.016411781311035156,0.985076904296875,2.109832763671875,9.219207763671875,-2.7722918218381354,1.5710527921296529,1.98195697259762,16
87,1815.0,0.09496146440505981,0.09150171279907227,-0.04082679748535156,0.9061126708984375,2.1074371337890625,9.137847900390625,-2.8911917549097175,1.4372903674241233,1.0272604511699177,16
88,1833.0,0.018076062202453613,0.09665846824645996,-0.12307357788085938,0.864227294921875,2.1074371337890625,9.336456298828125,-3.214669514001521,0.5402952841046886,0.4336350500257695,16
89,1850.0,0.018206000328063965,0.10395693778991699,-0.12372779846191406,0.85107421875,2.1002655029296875,9.354400634765625,-2.8649638284968684,-0.26577632098353615,-0.1932123912413207,16
90,1867.0,-0.024182140827178955,0.10903823375701904,0.0729513168334961,0.85107421875,2.1002655029296875,9.354400634765625,-1.682958611491142,-0.387299046696403,-0.3427115717945598,16
91,1885.0,-0.03784513473510742,0.10453343391418457,0.08936691284179688,0.915679931640625,2.1481170654296875,9.268264770507812,-1.0517398491552434,-0.37243655506245527,-0.24042265878444882,16
92,1902.0,0.07317560911178589,0.18278300762176514,0.02146434783935547,0.915679931640625,2.1481170654296875,9.268264770507812,-0.5717687958001074,-1.0613567555066215,-0.4589887122248569,16
93,1919.0,0.020216703414916992,0.14665865898132324,0.0021343231201171875,0.8606414794921875,2.1146240234375,9.227584838867188,-0.6862974078028812,-0.7308848827047244,-0.5604033610212062,16
94,1940.0,-0.036724627017974854,0.11498844623565674,-0.03923320770263672,0.8474884033203125,2.0583953857421875,9.350814819335938,-2.2258766882371153,-0.12414551835415176,0.5394210198909271,16
95,1959.0,-0.04848736524581909,0.06299102306365967,0.08040046691894531,0.9348297119140625,2.1014556884765625,9.222793579101562,-2.1393245310747138,0.30074688953400147,0.2622792641284896,16
96,1976.0,0.038845062255859375,0.10824048519134521,-0.047504425048828125,0.95635986328125,2.121795654296875,9.289794921875,-1.7913673739975842,0.4178982941780602,-0.6897944646579277,16
97,1992.0,0.06003302335739136,0.12969207763671875,0.017821311950683594,0.867828369140625,2.0894927978515625,9.227584838867188,-1.9286268555581605,0.2089491470890301,-1.0972015882708483,16
98,2009.0,-0.027218163013458252,0.09953713417053223,-0.04424476623535156,0.867828369140625,2.0894927978515625,9.227584838867188,-1.9976937284453293,-0.396915953047781,-1.5002373908149607,16
99,2027.0,-0.026707351207733154,0.10130083560943604,-0.04396247863769531,0.858245849609375,2.050018310546875,9.288604736328125,-1.7179291800416072,-0.4248924078881532,-1.4635182938369722,16
100,2047.0,-0.03512310981750488,0.06425607204437256,0.015680313110351562,0.8307342529296875,2.010528564453125,9.2957763671875,-1.7223005011104153,-0.12064846149910523,-1.6409939292305835,16
101,2067.0,-0.0601690411567688,0.027914762496948242,0.021325111389160156,0.8762054443359375,2.0667724609375,9.311325073242188,-1.4101881767975126,0.16523593640094847,-0.7177709194983,16
102,2083.0,-0.08624237775802612,0.03190958499908447,0.07694244384765625,1.0245513916015625,2.0763397216796875,9.17852783203125,-1.4224278757901754,-0.27364469890739085,-0.4082813878266822,16
103,2101.0,-0.013416707515716553,0.08783614635467529,0.032382965087890625,1.0245513916015625,2.0763397216796875,9.17852783203125,-1.190747859143343,-1.2624375246717967,-0.7702267723239979,16
104,2121.0,0.12169915437698364,0.09936332702636719,-0.09590721130371094,0.8654327392578125,2.0368499755859375,9.198867797851562,-2.1498157016398536,-1.6602277419333393,-1.792241638211346,16
105,2142.0,-0.039579808712005615,0.06398630142211914,-0.0743856430053711,0.798431396484375,1.9997711181640625,9.33526611328125,-2.547605918901396,-1.4731352001883502,-1.5430763372892806,16
106,2159.0,-0.039579808712005615,0.06398630142211914,-0.0743856430053711,0.8450927734375,1.9997711181640625,9.316116333007812,-2.547605918901396,-1.4731352001883502,-1.5430763372892806,16
107,2176.0,-0.05879640579223633,0.037602782249450684,0.037749290466308594,0.9431915283203125,2.0177154541015625,9.398666381835938,-2.626289698139943,-0.2937527758239084,0.4257666721019148,16
108,2193.0,0.03777033090591431,0.060726046562194824,0.11558151245117188,0.927642822265625,2.044036865234375,9.433364868164062,-2.400729530989442,0.09092347823120975,0.1905895986000358,16
109,2210.0,0.021731317043304443,0.08923852443695068,0.14512348175048828,0.927642822265625,2.044036865234375,9.433364868164062,-1.112064079904796,-0.05245585282569793,-0.46336003329366504,16
110,2226.0,0.02175039052963257,0.08879029750823975,0.14060401916503906,0.7709197998046875,2.0189056396484375,9.286209106445312,-0.5481636620285434,0.2535366219908733,-0.8183113040808877,16
111,2243.0,0.02175039052963257,0.08879029750823975,0.14060401916503906,0.786468505859375,2.0524139404296875,9.143829345703125,-0.5481636620285434,0.2535366219908733,-0.8183113040808877,16
112,2260.0,-0.1107214093208313,0.10125946998596191,-0.1465749740600586,0.852264404296875,2.079925537109375,9.293380737304688,-3.2041783434363817,-0.22993148821930925,0.5053247155542234,16
113,2278.0,-0.04574763774871826,0.13440167903900146,0.0011644363403320312,0.909698486328125,1.9830169677734375,9.608047485351562,-3.676281018867663,-1.1636456685167325,0.30774100324409454,16
114,2295.0,0.007583737373352051,0.0440143346786499,0.30584144592285156,0.8726043701171875,1.9937896728515625,9.621200561523438,-2.0903657351040623,-1.8027328087764853,-0.8419164378524517,16
115,2313.0,-0.03244364261627197,0.05571341514587402,0.30998802185058594,0.8726043701171875,1.9937896728515625,9.621200561523438,-0.009616906351377954,-1.5719270563434147,-1.7563968054471188,16
116,2331.0,-0.03423810005187988,0.05244743824005127,0.30199527740478516,0.79364013671875,2.03326416015625,9.16656494140625,0.988792825764406,-1.1391662705314067,-1.5011116550287225,16
117,2351.0,-0.11486262083053589,0.09062933921813965,-0.1511554718017578,0.8175811767578125,2.016510009765625,9.129470825195312,-0.6836746151615963,-1.0246376585286328,-0.07693525081102363,16
118,2367.0,-0.09258800745010376,0.0768284797668457,-0.18738651275634766,0.8785858154296875,1.9949798583984375,9.279022216796875,-1.8245894141205263,-0.549037926242305,0.7597356017588583,16
119,2385.0,-0.032396912574768066,0.0585099458694458,-0.03760528564453125,0.933624267578125,1.9578857421875,9.314926147460938,-1.6173887954590194,-0.4353835784532928,0.6329672907634216,16
120,2401.0,0.020106971263885498,0.025188565254211426,-0.0023756027221679688,0.94439697265625,1.9722442626953125,9.233566284179688,-1.551818979426897,-0.7396275248423407,0.6233503844120437,16
121,2418.0,0.02810579538345337,0.04297506809234619,-0.08215808868408203,0.94439697265625,1.9722442626953125,9.233566284179688,-1.7974872234939157,-0.5735173242276307,0.00786837792385469,16
122,2435.0,0.026388704776763916,0.0471569299697876,-0.08089447021484375,0.8726043701171875,1.9578857421875,9.288604736328125,-2.3019376748343774,-0.23255428086059415,-0.4922107523477989,16
123,2453.0,-0.0442318320274353,0.037599921226501465,-0.026307106018066406,0.861846923828125,1.911224365234375,9.43096923828125,-2.07288045082883,0.021856605344040804,-0.20195503337893703,16
124,2469.0,-0.054036736488342285,-0.00430607795715332,0.11196422576904297,0.921661376953125,2.00933837890625,9.162979125976562,-1.2965338290085004,-0.4021615383303508,0.4598629764386185,16
125,2487.0,-0.06114363670349121,-0.012642621994018555,0.14650821685791016,0.843902587890625,1.97943115234375,9.2598876953125,-0.30074688953400147,-0.49920486605789194,0.6793032940927881,16
126,2504.0,0.0033612847328186035,0.09891247749328613,-0.15685558319091797,0.843902587890625,1.97943115234375,9.2598876953125,-2.0020650495141377,-0.09004921401744811,0.9739303341304582,16
127,2521.0,-0.0724896788597107,0.0744781494140625,-0.05977916717529297,0.969512939453125,2.0236968994140625,9.533859252929688,-3.388648092540086,0.33834025072575163,0.8209340967221725,16
128,2541.0,0.051192283630371094,0.12639832496643066,0.20745372772216797,0.8474884033203125,1.9961700439453125,9.489593505859375,-1.1269265715387438,-0.4703541470037581,0.49395928077532214,16
129,2558.0,0.051192283630371094,0.12639832496643066,0.20745372772216797,0.7972412109375,2.03326416015625,9.350814819335938,-1.1269265715387438,-0.4703541470037581,0.49395928077532214,16
130,2575.0,-0.06969296932220459,0.09901392459869385,0.15814876556396484,0.8426971435546875,2.0177154541015625,9.381927490234375,-0.9258458023735684,0.09966612036882606,0.7492444311937188,16
131,2592.0,-0.06870853900909424,0.12029039859771729,0.04713630676269531,0.89892578125,2.004547119140625,9.33526611328125,-1.252820618320419,0.36281964871107736,1.8473202836783287,16
132,2609.0,-0.06870853900909424,0.12029039859771729,0.04713630676269531,0.89892578125,2.004547119140625,9.33526611328125,-1.252820618320419,0.36281964871107736,1.8473202836783287,16
133,2628.0,-0.013682305812835693,0.10657298564910889,-0.00044918060302734375,1.0257568359375,2.020111083984375,9.298171997070312,-0.4624857690799034,-0.40128727411658915,0.7737238291790445,16
134,2645.0,0.10862094163894653,0.12008607387542725,-0.03663825988769531,0.921661376953125,1.99139404296875,9.252700805664062,-0.5210614714019327,-0.5866312874340551,-0.5096960366230315,16
135,2661.0,0.10862094163894653,0.12008607387542725,-0.03663825988769531,0.858245849609375,1.914825439453125,9.249114990234375,-0.5210614714019327,-0.5866312874340551,-0.5096960366230315,16
136,2678.0,-0.059131085872650146,0.018747687339782715,-0.08231258392333984,0.8115997314453125,1.8430328369140625,9.373550415039062,-2.4138434941958664,-0.5359239630358805,0.4624857690799034,16
137,2695.0,-0.059131085872650146,0.018747687339782715,-0.08231258392333984,0.8714141845703125,1.821502685546875,9.5841064453125,-2.4138434941958664,-0.5359239630358805,0.4624857690799034,16
138,2713.0,-0.04336988925933838,-0.05931985378265381,0.2422943115234375,0.8714141845703125,1.821502685546875,9.5841064453125,-1.5124770898076236,0.4388806353083393,1.5789211700535075,16
139,2732.0,-0.04147833585739136,-0.05474066734313965,0.23490524291992188,0.96832275390625,1.896881103515625,9.468063354492188,-0.4161497657505369,0.6425841971147996,1.2283412203350932,16
140,2750.0,0.05470466613769531,0.020541906356811523,0.11538505554199219,0.8965301513671875,1.904052734375,9.22998046875,0.24916530092206515,0.36281964871107736,0.7343819395597709,16
141,2769.0,-0.01663827896118164,0.02709949016571045,-0.11931800842285156,0.9240570068359375,1.9363555908203125,9.10675048828125,-0.2701476420523443,-0.18446974910370437,0.24829103670830352,16
142,2787.0,0.009827673435211182,0.05927538871765137,-0.23604202270507812,0.855865478515625,1.9315643310546875,9.158187866210938,-0.8331737957148354,-0.3016211537477631,0.16785872904223337,16
143,2804.0,-0.05732458829879761,0.056671738624572754,-0.18016338348388672,0.8654327392578125,1.932769775390625,9.293380737304688,-1.8910334943664102,-0.017485284275232642,0.4205210868193451,16
144,2820.0,-0.046092987060546875,0.06203949451446533,-0.044910430908203125,0.8654327392578125,1.932769775390625,9.293380737304688,-2.357890584515122,0.45549165536981034,0.49658207341660704,16
145,2837.0,-0.04419428110122681,0.06659340858459473,-0.04497814178466797,0.8426971435546875,1.9100341796875,9.35321044921875,-2.2372421230160167,0.26577632098353615,0.7833407355304224,16
146,2855.0,-0.06559675931930542,0.04863739013671875,0.013293266296386719,0.89892578125,1.927978515625,9.34722900390625,-2.0956113203866322,-0.2981240968927166,1.0342545648800108,16
147,2872.0,-0.010274529457092285,0.0712810754776001,0.005919456481933594,0.92645263671875,1.9136199951171875,9.596084594726562,-2.6131757349335185,-0.1390080099880995,1.1732625748681103,16
148,2889.0,0.01703011989593506,0.06195366382598877,0.24636077880859375,0.9001312255859375,1.9351654052734375,9.299362182617188,-2.1568098153499466,0.741376053269864,0.8856296485405334,16
149,2906.0,0.06538832187652588,0.06719386577606201,0.27582836151123047,0.9001312255859375,1.9351654052734375,9.299362182617188,-0.33571745808446674,1.2091074076323372,0.20720061866150682,16
150,2922.0,-0.005284607410430908,0.08125185966491699,-0.05755043029785156,0.855865478515625,1.932769775390625,9.219207763671875,1.442535952706693,1.1636456685167325,-0.5639004178762527,16
151,2940.0,-0.0029219388961791992,0.07535982131958008,-0.05544567108154297,0.8893585205078125,1.9602813720703125,9.244338989257812,1.145286120027738,0.2124462039440766,-0.8847553843267717,16
152,2956.0,-0.012159407138824463,0.09372568130493164,-0.1033315658569336,0.8570556640625,1.9219970703125,9.35919189453125,-0.18709254174498927,-0.08742642137616322,-0.8340480599285971,16
153,2974.0,-0.012159407138824463,0.09372568130493164,-0.1033315658569336,0.8785858154296875,1.9219970703125,9.360382080078125,-0.18709254174498927,-0.08742642137616322,-0.8340480599285971,16
154,2990.0,-0.02032291889190674,0.05146491527557373,0.012160301208496094,0.9013214111328125,1.9531097412109375,9.2239990234375,0.34883142129089123,-0.20457782602022193,-0.9966612036882606,16
155,3008.0,-0.02032291889190674,0.05146491527557373,0.012160301208496094,0.9013214111328125,1.9531097412109375,9.2239990234375,0.34883142129089123,-0.20457782602022193,-0.9966612036882606,16
156,3024.0,0.0018830299377441406,0.08014261722564697,-0.12069988250732422,0.9013214111328125,1.950714111328125,9.241943359375,-0.34970568550465286,-0.3654424413523622,-0.11540287621653544,16
157,3041.0,0.002301931381225586,0.07942628860473633,-0.09789562225341797,0.92645263671875,1.904052734375,9.334060668945312,-1.6138917386039728,0.2649020567697745,-0.2010807691651754,16
158,3058.0,0.002301931381225586,0.07942628860473633,-0.09789562225341797,0.9252471923828125,1.951904296875,9.326889038085938,-1.6138917386039728,0.2649020567697745,-0.2010807691651754,16
159,3075.0,0.02874225378036499,0.08452653884887695,-0.014225959777832031,0.815185546875,1.93994140625,9.368759155273438,-1.052614113369005,0.8305510030735506,-0.5604033610212062,16
160,3092.0,0.02874225378036499,0.08452653884887695,-0.014225959777832031,0.879791259765625,1.93994140625,9.3197021484375,-1.052614113369005,0.8305510030735506,-0.5604033610212062,16
161,3109.0,-0.07690882682800293,0.07335591316223145,0.026108741760253906,0.879791259765625,1.9375457763671875,9.3197021484375,-1.1540287621653544,0.5875055516478168,-0.43713210688081605,16
162,3135.0,-0.012758374214172363,0.07366633415222168,-0.022912979125976562,0.8773956298828125,1.9411468505859375,9.368759155273438,-1.4084396483699892,-1.3009051500773086,-0.4432519563771475,16
163,3156.0,-0.018234848976135254,0.0782325267791748,0.0251312255859375,0.8893585205078125,1.9172210693359375,9.649917602539062,-1.0491170565139585,-1.5789211700535075,-0.7999517555918934,16
164,3175.0,-0.009862959384918213,0.05326437950134277,0.2980489730834961,0.858245849609375,1.902862548828125,9.529083251953125,0.5551577757386364,-1.549196186785612,-0.6967885783680208,16
165,3191.0,-0.04375737905502319,0.033527255058288574,0.17352581024169922,0.927642822265625,1.97943115234375,9.216812133789062,2.5703367884591986,-1.6051490964663566,-0.36019685606979246,16
166,3209.0,0.021150171756744385,0.1000053882598877,-0.1331195831298828,0.927642822265625,1.97943115234375,9.216812133789062,2.621044112857373,-1.4110624410112742,-0.5437923409597352,16
167,3225.0,0.017489731311798096,0.0924990177154541,-0.12817096710205078,0.933624267578125,2.0117340087890625,9.003860473632812,0.7964546987368468,-1.1750111032956336,-0.8384193809974052,16
168,3242.0,0.018970191478729248,0.12196516990661621,-0.3233013153076172,0.8762054443359375,2.004547119140625,9.332870483398438,-2.3063089959031857,-0.4248924078881532,-0.3916703677652112,16
169,3259.0,0.018970191478729248,0.12196516990661621,-0.3233013153076172,0.8965301513671875,1.927978515625,9.438156127929688,-2.3063089959031857,-0.4248924078881532,-0.3916703677652112,16
170,3276.0,-0.03861558437347412,0.11749410629272461,0.004477500915527344,0.9228515625,1.916015625,9.495574951171875,-2.1987744976105046,-0.6294702339083751,-0.22381163872297782,16
171,3293.0,0.006023228168487549,0.03475475311279297,0.15824222564697266,0.9228515625,1.916015625,9.189300537109375,-1.0325060364524876,-0.7133995984294919,-1.3078992637874016,16
172,3310.0,0.006023228168487549,0.03475475311279297,0.15824222564697266,0.8486785888671875,1.9124298095703125,9.44293212890625,-1.0325060364524876,-0.7133995984294919,-1.3078992637874016,16
173,3326.0,-0.06907033920288086,0.030350804328918457,0.10919857025146484,0.762542724609375,1.8980712890625,9.427383422851562,0.6897944646579277,0.2718961704798676,-0.03584483276422692,16
174,3344.0,-0.06907033920288086,0.030350804328918457,0.10919857025146484,0.77569580078125,1.9578857421875,9.080429077148438,0.6897944646579277,0.2718961704798676,-0.03584483276422692,16
175,3361.0,-0.15359675884246826,0.014521956443786621,0.09337329864501953,0.8379058837890625,2.0057525634765625,9.062484741210938,0.4406291637358626,0.556032039952398,1.1461603842414998,16
176,3377.0,-0.14074641466140747,0.07524096965789795,-0.2524595260620117,0.9061126708984375,2.010528564453125,9.352005004882812,-1.1426633273864533,-0.8086943977295097,1.2886654510846458,16
177,3395.0,-0.08264100551605225,0.12763571739196777,-0.2696390151977539,0.9061126708984375,2.010528564453125,9.352005004882812,-2.450562591173855,-2.107851019379295,0.6504525750386543,16
178,3412.0,-0.026053547859191895,0.1393425464630127,0.019194602966308594,0.9073028564453125,1.9758453369140625,9.481216430664062,-0.44237769216338585,-1.9006504007177882,-1.2799228089470294,16
179,3433.0,-0.028034090995788574,0.1038661003112793,0.1480550765991211,0.8702239990234375,1.98541259765625,9.357986450195312,0.4248924078881532,-0.9616906351377953,-0.9188516886634753,16
180,3452.0,-0.06678134202957153,0.11247003078460693,0.02498340606689453,0.8271484375,1.9949798583984375,9.276641845703125,-0.22381163872297782,-0.6932915215129742,-0.04196468226055834,16
181,3470.0,-0.11089426279067993,0.12261176109313965,-0.05616188049316406,0.8379058837890625,1.950714111328125,9.306549072265625,-0.6137334780606658,-0.4161497657505369,0.2858843979000537,16
182,3486.0,-0.09757089614868164,0.07847678661346436,-0.025966644287109375,0.8821868896484375,2.0536041259765625,9.274246215820312,-1.0132722237497316,0.47122841121751974,0.7973289629506085,16
183,3503.0,-0.05156213045120239,0.179878830909729,-0.0573883056640625,0.8821868896484375,2.0536041259765625,9.274246215820312,-1.4617697654094488,0.10753449829268075,1.1592743474479241,16
184,3520.0,-0.04942357540130615,0.1788489818572998,-0.05666160583496094,0.9898529052734375,2.085906982421875,9.32330322265625,-1.3586065881855762,0.7544900164762885,0.4869651670652291,16
185,3537.0,0.05907553434371948,0.20891869068145752,-0.008367538452148438,0.85107421875,2.0464324951171875,9.363967895507812,-1.3822117219571404,1.0753449829268076,-0.5595290968074446,16
186,3554.0,-0.07479137182235718,0.1683582067489624,0.030402183532714844,0.7422027587890625,1.986602783203125,9.373550415039062,-1.511602825593862,0.6137334780606658,-1.1356692136763602,16
187,3571.0,-0.17647796869277954,0.10823667049407959,0.03811931610107422,0.7780914306640625,1.9339599609375,9.37115478515625,-0.6932915215129742,0.6364643476184682,-0.43975489952210095,16
188,3588.0,-0.13513046503067017,0.056600213050842285,0.03406524658203125,0.9013214111328125,1.9722442626953125,9.42498779296875,-1.2414551835415175,0.49920486605789194,0.27626749154867575,16
189,3605.0,-0.01072227954864502,0.09548020362854004,0.08472442626953125,0.9013214111328125,1.9722442626953125,9.42498779296875,-1.1041957019809414,0.31211232431290264,0.5883798158615784,16
190,3622.0,-0.009564101696014404,0.09453022480010986,0.08194446563720703,0.99224853515625,2.0069427490234375,9.302963256835938,-0.12327125414039013,0.44237769216338585,-0.05245585282569793,16
191,3641.0,0.07938367128372192,0.12524855136871338,-0.03891563415527344,0.9360198974609375,2.0021514892578125,9.171356201171875,0.31735790959547244,-0.4362578426670544,-0.9669362204203651,16
192,3658.0,0.019794166088104248,0.11724638938903809,-0.16554832458496094,0.9420013427734375,1.956695556640625,9.342437744140625,-0.63209302654966,-2.045778260202219,-1.2134787287011455,16
193,3675.0,0.020077764987945557,0.0710604190826416,0.005615234375,0.94439697265625,1.8729400634765625,9.602066040039062,-0.4878394312789907,-2.0492753170572655,-0.5114445650505548,16
194,3692.0,0.018310368061065674,-0.01300036907196045,0.2583580017089844,0.8426971435546875,1.96746826171875,9.380722045898438,0.9258458023735684,-0.7282620900634396,-0.06294702339083752,16
195,3709.0,-0.08157616853713989,0.07515239715576172,0.036865234375,0.8426971435546875,1.96746826171875,9.380722045898438,2.1830377417627953,0.3899218393376879,0.2596564714872047,16
196,3726.0,-0.07825523614883423,0.06866633892059326,0.036629676818847656,0.9778900146484375,2.0129241943359375,9.061279296875,1.2309640129763781,0.6242246486258053,0.8331737957148354,16
197,3743.0,0.05632972717285156,0.11060214042663574,-0.2749824523925781,0.915679931640625,2.1074371337890625,9.028976440429688,-0.7859635281717073,0.4825938459964209,1.01239795953597,16
198,3760.0,-0.004922091960906982,0.20267987251281738,-0.29949283599853516,1.020965576171875,2.12060546875,9.182113647460938,-1.5220939961590014,0.4161497657505369,0.4642342975074267,16
199,3778.0,0.0985865592956543,0.21421146392822266,-0.143280029296875,0.9898529052734375,1.992584228515625,9.563766479492188,-1.746779899095741,0.370688026634932,-0.33746598651199,16
200,3794.0,0.04282957315444946,0.2020500898361206,-0.23933696746826172,0.9898529052734375,1.992584228515625,9.563766479492188,-3.338815032355673,-0.26839911362482105,-1.542202073075519,16
201,3811.0,0.06733900308609009,0.10096752643585205,0.23507308959960938,0.9898529052734375,1.992584228515625,9.563766479492188,-4.034729346509932,-0.8996178759607194,-3.0957695809299395,16
202,3828.0,0.06778305768966675,0.10716545581817627,0.23260879516601562,0.843902587890625,1.8202972412109375,9.856887817382812,-1.475757992829635,0.1634874079734252,-3.2286577414217073,16
203,3845.0,-0.07564330101013184,-0.0670081377029419,0.5236272811889648,0.8570556640625,1.8645782470703125,9.791091918945312,2.5318691630536865,0.32784908016061204,-2.2608472567875806,16
204,3863.0,-0.060074806213378906,-0.03483378887176514,0.4580802917480469,1.092742919921875,1.9232025146484375,9.88800048828125,6.008817941183698,0.363693912924839,-2.0956113203866322,16
205,3881.0,0.12807482481002808,0.0357433557510376,0.3660097122192383,1.086761474609375,2.079925537109375,9.367568969726562,9.152672053870527,1.0298832438112027,-2.8264962030913567,16
206,3898.0,0.18224138021469116,-0.029534459114074707,0.5611343383789062,1.086761474609375,2.079925537109375,9.367568969726562,13.49339387519703,0.9240972739460451,-4.4578732259705625,16
207,3918.0,0.18280476331710815,0.03936147689819336,0.058147430419921875,0.8426971435546875,2.139739990234375,8.922500610351562,15.947453523225931,-0.7203937121395849,-4.68168486469354,16
208,3938.0,-0.061066627502441406,0.05952811241149902,-0.37656307220458984,0.735015869140625,2.180419921875,8.577926635742188,12.230956350525233,-0.9643134277790802,-2.756555065990426,16
209,3954.0,-0.061066627502441406,0.05952811241149902,-0.37656307220458984,0.8187713623046875,2.2809295654296875,8.528884887695312,12.230956350525233,-0.9643134277790802,-2.756555065990426,16
210,3971.0,-0.09086745977401733,0.16335773468017578,-0.7549839019775391,0.939605712890625,2.2701568603515625,8.997879028320312,0.558654832593683,-2.2092656681756444,0.9162288960221905,16
211,3989.0,0.02428293228149414,0.1537914276123047,-0.2846488952636719,0.6261444091796875,2.07513427734375,9.296981811523438,-1.7528997485920723,-1.4845006349672514,0.8803840632579636,16
212,4005.0,-0.28965938091278076,-0.036360740661621094,0.013489723205566406,0.6261444091796875,2.07513427734375,9.296981811523438,-1.390080099880995,0.9765531267717431,2.419089079478436,16
213,4022.0,-0.29280078411102295,-0.02919793128967285,0.012273788452148438,0.6165771484375,2.3072509765625,8.917709350585938,-3.0170858016913926,-2.428705985829814,5.366233744068898,16
214,4040.0,-0.313171923160553,0.2127094268798828,-0.36666011810302734,0.9599456787109375,2.151702880859375,9.182113647460938,-3.0170858016913926,-2.428705985829814,5.366233744068898,16
215,4058.0,0.02048105001449585,0.0675814151763916,-0.10326194763183594,1.0125885009765625,2.2067413330078125,9.262283325195312,-2.996977724774875,-0.5647746820900144,5.550703493172603,16
216,4074.0,0.06882882118225098,0.13124465942382812,-0.024637222290039062,0.8690185546875,2.155303955078125,9.16058349609375,-2.732949932218862,-0.13463668891929134,4.46224454703937,16
217,4093.0,-0.07891368865966797,0.08788013458251953,-0.1272287368774414,0.8079986572265625,2.1265869140625,9.025390625,-2.6542661529803153,-1.3804631935296172,3.570495049002506,16
218,4112.0,-0.14713340997695923,0.06882715225219727,-0.26273155212402344,0.8079986572265625,2.1265869140625,9.025390625,-3.944680132492484,-2.804639597747316,3.4349840958694524,16
219,4129.0,-0.15745329856872559,0.08210921287536621,-0.2635011672973633,0.9013214111328125,2.1469268798828125,9.22998046875,-5.451911637017538,-3.9350632261411063,2.562468410535344,16
220,4148.0,-0.07637494802474976,0.11790323257446289,-0.060837745666503906,1.2291412353515625,2.06915283203125,10.05670166015625,-5.8138570215148535,-4.338099028685218,1.7939901666388691,16
221,4166.0,0.23800861835479736,0.0648338794708252,0.7575502395629883,0.6895599365234375,2.0835113525390625,9.85809326171875,-2.44793979853257,0.9660619562066035,-3.1071350157088404,16
222,4183.0,0.23800861835479736,0.0648338794708252,0.7575502395629883,0.8127899169921875,2.1385498046875,9.505157470703125,-2.44793979853257,0.9660619562066035,-3.1071350157088404,16
223,4199.0,-0.29361867904663086,0.07717323303222656,0.5562667846679688,0.8127899169921875,2.1385498046875,9.505157470703125,3.0127144806225843,2.593067658017001,-3.2863591795299754,16
224,4217.0,-0.16585475206375122,0.11871933937072754,0.2048807144165039,1.2901611328125,2.251007080078125,9.544631958007812,5.964230466281855,-0.9232230097322836,-2.0396584107058877,16
225,4240.0,0.3181772232055664,0.1894526481628418,0.2505607604980469,1.0413055419921875,2.3251953125,9.227584838867188,8.995304495393434,4.793590684055029,-4.307499781203561,16
226,4263.0,0.085468590259552,0.23428821563720703,-0.061600685119628906,0.891754150390625,2.3538970947265625,8.892593383789062,10.888960782401128,5.287549964830351,-4.923856051905513,16
227,4280.0,-0.0513080358505249,0.23307323455810547,-0.38968658447265625,0.921661376953125,2.39697265625,8.921295166015625,9.379980749448551,1.7380372569581246,-4.8915082759963315,16
228,4297.0,-0.012549996376037598,0.2531571388244629,-0.3553495407104492,0.921661376953125,2.39697265625,8.921295166015625,5.815605549942377,2.6184213202160884,-4.370446804594399,16
229,4314.0,-0.00500255823135376,0.23946332931518555,-0.35169029235839844,0.7721099853515625,2.31561279296875,9.121109008789062,2.759177858631711,1.1584000832341625,-3.2575084604758415,16
230,4330.0,-0.1503559947013855,0.15024924278259277,-0.14992141723632812,0.8570556640625,2.32159423828125,9.115127563476562,2.06238928026369,0.30774100324409454,-1.734540200103078,16
231,4348.0,-0.06339901685714722,0.15019536018371582,-0.15416622161865234,0.6668243408203125,2.29168701171875,8.624588012695312,1.832457792044381,0.7737238291790445,0.8594017221276844,16
232,4365.0,-0.25243186950683594,0.11994695663452148,-0.6420717239379883,1.2123870849609375,2.513031005859375,9.22637939453125,-1.4434102169204546,0.5271813208982642,4.247175550454009,16
233,4383.0,-0.21274983882904053,0.2288532257080078,-0.7930202484130859,1.2123870849609375,2.513031005859375,9.22637939453125,-6.131214931110326,-1.1347949494625984,6.629545532954457,16
234,4399.0,0.28078705072402954,0.3729877471923828,-0.043532371520996094,1.2279510498046875,2.513031005859375,9.792282104492188,-9.203379378268702,-1.7563968054471188,5.537589529966178,16
235,4416.0,0.29112422466278076,0.39568662643432617,0.5150299072265625,1.2279510498046875,2.3479156494140625,9.792282104492188,-7.913839662970294,0.6731834445964567,2.5580970894665356,16
236,4447.0,-0.13548076152801514,0.1850128173828125,0.7967796325683594,0.6656341552734375,2.0894927978515625,9.9932861328125,3.1176261862739802,-2.4890302165793665,-1.157525819020401,16
237,4471.0,-0.2787736654281616,-0.02895355224609375,0.7082958221435547,0.6907501220703125,2.32757568359375,8.546829223632812,8.128908659555655,-2.868460885351915,-0.18446974910370437,16
238,4487.0,-0.23290812969207764,0.09620428085327148,-0.20672607421875,0.6907501220703125,2.32757568359375,8.546829223632812,6.901441703434324,-1.8962790796489801,0.40915565204044385,16
239,4504.0,-0.27122753858566284,0.18046808242797852,-0.7229537963867188,0.910888671875,2.3359527587890625,8.323089599609375,-4.701792941610058,-3.3711628082648537,1.5413278088617575,16
240,4521.0,-0.27122753858566284,0.18046808242797852,-0.7229537963867188,1.0113983154296875,2.239044189453125,8.723892211914062,-4.701792941610058,-3.3711628082648537,1.5413278088617575,16
241,4539.0,-0.06355077028274536,0.20726943016052246,-0.9458551406860352,1.1513671875,2.1409454345703125,9.465667724609375,-9.231355833109074,-5.392461670481747,1.0779677755680923,16
242,4556.0,0.14854419231414795,0.05536031723022461,0.19118404388427734,1.0018157958984375,2.0595855712890625,9.497970581054688,-5.242962489928508,-4.1562520722228,-2.4601794975252327,16
243,4573.0,0.14854419231414795,0.05536031723022461,0.19118404388427734,0.903717041015625,2.0021514892578125,9.414230346679688,-5.242962489928508,-4.1562520722228,-2.4601794975252327,16
244,4590.0,-0.10606789588928223,-0.07194805145263672,0.13656330108642578,0.903717041015625,2.0021514892578125,9.414230346679688,-0.11715140464405871,0.228182959791786,-2.6813683436069256,16
245,4611.0,-0.10297024250030518,-0.07269978523254395,0.1359405517578125,0.94439697265625,2.1289825439453125,9.368759155273438,0.34183730758079817,0.598870986426718,-2.3963582099206335,16
246,4627.0,-0.10297024250030518,-0.07269978523254395,0.1359405517578125,0.9168701171875,2.161285400390625,9.3197021484375,0.34183730758079817,0.598870986426718,-2.3963582099206335,16
247,4644.0,-0.08246302604675293,0.08045125007629395,0.041347503662109375,0.933624267578125,2.23187255859375,9.207244873046875,1.1129383441185576,0.6924172572992127,-1.4661410864782571,16
248,4663.0,-0.06356209516525269,0.14652132987976074,-0.0701436996459961,0.961151123046875,2.2892913818359375,9.056503295898438,1.5194712035177167,0.19146386281379743,-0.7641069228276665,16
249,4679.0,-0.03598242998123169,0.19887018203735352,-0.21900558471679688,1.0831756591796875,2.326385498046875,9.075637817382812,1.4801293138984433,-0.5123188292643164,-0.34358583600832143,16
250,4696.0,0.08490830659866333,0.23180437088012695,-0.19823932647705078,1.0831756591796875,2.326385498046875,9.075637817382812,0.7553642806900501,-0.2963755684651933,-0.7020341636505906,16
251,4713.0,0.08486181497573853,0.22825264930725098,-0.19686317443847656,0.873809814453125,2.239044189453125,9.326889038085938,0.9354627087249464,0.060324230749552614,-1.3489896818341984,16
252,4730.0,-0.12355309724807739,0.13667511940002441,0.054940223693847656,0.8953399658203125,2.2354583740234375,9.34124755859375,1.4748837286158734,-0.3453343644358447,-1.3227617554213493,16
253,4749.0,-0.10203444957733154,0.1289973258972168,0.06985855102539062,0.9228515625,2.29766845703125,9.072052001953125,0.8646473074102542,-0.5595290968074446,-1.2440779761828025,16
254,4768.0,-0.07619798183441162,0.18894672393798828,-0.19796085357666016,0.8307342529296875,2.302459716796875,9.238357543945312,0.027976454840372228,-1.309647792214925,-0.5201872071881711,16
255,4785.0,-0.17160165309906006,0.19307231903076172,-0.031126022338867188,1.0664215087890625,2.1947784423828125,9.34124755859375,-0.2089491470890301,-1.8001100161352006,-0.18621827753122763,16
256,4802.0,0.061524033546447754,0.08433985710144043,0.07187080383300781,1.0664215087890625,2.1947784423828125,9.34124755859375,0.6119849496331425,-0.1311396320642448,-0.8427907020662134,16
257,4818.0,0.061061739921569824,0.08215570449829102,0.07201004028320312,0.9886627197265625,2.2115325927734375,9.204849243164062,0.4922107523477989,-0.549037926242305,-1.475757992829635,16
258,4836.0,-0.01797163486480713,0.0970613956451416,-0.06364822387695312,0.80322265625,2.20196533203125,9.038543701171875,0.24391971563949535,-1.1304236283937903,-1.5308366382966179,16
259,4853.0,-0.2000105381011963,0.08613038063049316,-0.22356605529785156,0.723052978515625,2.2246856689453125,8.787307739257812,-1.2335868056176629,-0.9546965214277023,-0.13988227420186114,16
260,4869.0,-0.2817126512527466,0.11574101448059082,-0.47420692443847656,1.04608154296875,2.2952728271484375,9.117507934570312,-4.043471988647549,-0.7090282773606836,1.6034005680388332,16
261,4887.0,-0.06103050708770752,0.14687323570251465,-0.2809276580810547,1.04608154296875,2.2952728271484375,9.117507934570312,-5.717687958001074,0.01923381270275591,2.189157591259127,16
262,4904.0,0.0365452766418457,0.21511268615722656,-0.148529052734375,1.2291412353515625,2.2940826416015625,9.509933471679688,-6.0298002823139765,-1.207358879204814,1.5675557352746063,16
263,4921.0,0.21141743659973145,0.23413467407226562,0.2393655776977539,0.9372100830078125,2.19000244140625,9.55419921875,-1.918135684993021,-2.414717758409628,-3.533775952024517,16
264,4941.0,0.21141743659973145,0.23413467407226562,0.2393655776977539,0.7780914306640625,2.2103271484375,9.151016235351562,-1.918135684993021,-2.414717758409628,-3.533775952024517,16
265,4958.0,-0.08376908302307129,0.13209152221679688,0.2822704315185547,0.9300384521484375,2.1876068115234375,9.19049072265625,-0.767603979682713,-1.8184695646241948,-3.5661237279336975,16
266,4979.0,-0.0951920747756958,0.13785600662231445,-0.08204364776611328,0.987457275390625,2.1828155517578125,9.594879150390625,-3.4000135273189875,-1.5649329426333216,-1.1855022738607732,16
267,4996.0,-0.04020869731903076,0.1401369571685791,0.31960582733154297,0.987457275390625,2.1828155517578125,9.594879150390625,-2.4295802500435757,-0.7343819395597709,-0.5455408693872584,16
268,5013.0,-0.04054760932922363,0.14302325248718262,0.31756591796875,1.01019287109375,2.2007598876953125,9.459686279296875,-0.2308057524330709,0.17048152168351827,-0.3156093811679492,16
269,5031.0,-0.01588118076324463,0.1591334342956543,0.18166351318359375,0.975494384765625,2.2940826416015625,9.087600708007812,1.008026638467162,1.0377516217350573,-0.42926372895696135,16
270,5048.0,-0.047663331031799316,0.24980545043945312,-0.1895761489868164,0.9778900146484375,2.3299713134765625,8.88421630859375,0.12764257520919828,0.8707671569065856,0.01661102006147101,16
271,5065.0,-0.04396617412567139,0.28656840324401855,-0.39190101623535156,0.9994354248046875,2.332366943359375,8.922500610351562,-1.5885380764048855,0.08130657187983178,0.5717687958001074,16
272,5082.0,-0.024045705795288086,0.29319214820861816,-0.3531484603881836,1.0831756591796875,2.33355712890625,9.137847900390625,-2.2853266547729065,-1.0700993976442377,0.7046569562918755,16
273,5099.0,0.05631387233734131,0.3008604049682617,-0.13857269287109375,1.0831756591796875,2.33355712890625,9.137847900390625,-3.3711628082648537,-1.1688912537993021,-0.3619453844973157,16
274,5116.0,0.05392575263977051,0.30870747566223145,-0.13974666595458984,0.95635986328125,2.2163238525390625,9.46087646484375,-3.483942891840104,-0.6793032940927881,-0.8113171903707946,16
275,5133.0,-0.07304811477661133,0.19852352142333984,0.1808605194091797,0.9431915283203125,2.1385498046875,9.690597534179688,-2.4925272734344133,-0.013113963206424483,-0.7982032271643701,16
276,5154.0,-0.08505010604858398,0.12300634384155273,0.40818119049072266,0.9420013427734375,2.1409454345703125,9.5302734375,0.2885071905413386,0.2858843979000537,-0.6897944646579277,16
277,5172.0,-0.08458280563354492,0.12179279327392578,0.24735069274902344,1.014984130859375,2.2223052978515625,9.179733276367188,1.8717996816636544,0.4388806353083393,-0.38817331091016466,16
278,5188.0,-0.00977182388305664,0.19701933860778809,-0.10180377960205078,0.9958343505859375,2.2103271484375,9.046920776367188,1.9172614207792593,0.6478297823973694,-0.6591952171762706,16
279,5206.0,-0.02734363079071045,0.18059158325195312,-0.23299694061279297,0.9408111572265625,2.1816253662109375,9.012222290039062,0.5691460031588225,-0.027102190626610595,-1.4302962537140302,16
280,5223.0,-0.02767050266265869,0.17936468124389648,-0.23187255859375,0.9168701171875,2.1576995849609375,9.082809448242188,-0.6111106854193809,-1.0779677755680923,-2.1323304173646207,16
281,5242.0,-0.08597660064697266,0.1513378620147705,-0.26534366607666016,0.873809814453125,2.132568359375,9.110336303710938,-0.810442926157033,-2.514383878778454,-2.034412825423318,16
282,5260.0,-0.1633669137954712,0.10664582252502441,-0.16561031341552734,0.973114013671875,2.1241912841796875,9.11273193359375,-1.727546086392985,-1.7546482770195957,-0.5516607188835899,16
283,5276.0,-0.1633669137954712,0.10664582252502441,-0.16561031341552734,1.04608154296875,2.1576995849609375,9.256301879882812,-1.727546086392985,-1.7546482770195957,-0.5516607188835899,16
284,5293.0,-0.06674468517303467,0.10406947135925293,-0.1635589599609375,1.04608154296875,2.1576995849609375,9.256301879882812,-2.941899079307892,-0.5805114379377238,-0.16261314375966357,16
285,5310.0,0.005382180213928223,0.15050363540649414,-0.02278900146484375,1.003021240234375,2.1696624755859375,9.143829345703125,-2.6157985275748032,-0.12589404678167504,-0.7160223910707767,16
286,5327.0,0.005382180213928223,0.15050363540649414,-0.02278900146484375,0.96234130859375,2.197174072265625,9.354400634765625,-2.6157985275748032,-0.12589404678167504,-0.7160223910707767,16
287,5346.0,-0.07438480854034424,0.20395958423614502,0.07183647155761719,1.1956329345703125,2.21392822265625,9.634368896484375,-2.2398649156573014,1.7782534107911598,-1.8578114542434683,16
288,5363.0,0.16689229011535645,0.2223062515258789,0.34883594512939453,0.9168701171875,2.23187255859375,9.306549072265625,-0.23255428086059415,3.4209958684492667,-3.66928690515757,16
289,5380.0,0.16689229011535645,0.2223062515258789,0.34883594512939453,0.738616943359375,2.2067413330078125,8.993087768554688,-0.23255428086059415,3.4209958684492667,-3.66928690515757,16
290,5398.0,-0.2720503807067871,0.21089613437652588,-0.2926149368286133,0.738616943359375,2.2067413330078125,8.993087768554688,-0.4572401837973336,0.45024607008724055,-3.4664576075648714,16
291,5415.0,-0.2705097198486328,0.21234345436096191,-0.29193973541259766,0.6656341552734375,2.2522125244140625,9.0911865234375,-1.7572710696608806,-1.1321721568213137,-1.1041957019809414,16
292,5433.0,-0.3452887535095215,0.2611275911331177,-0.19362258911132812,0.7840728759765625,2.1864013671875,9.2718505859375,-1.582418226908554,-1.449530066416786,0.17834989960737296,16
293,5453.0,-0.23194801807403564,0.19951534271240234,-0.013317108154296875,1.0472869873046875,2.26177978515625,9.497970581054688,-1.958351838826056,-2.6971050994546353,1.2921625079396923,16
294,5469.0,0.02426588535308838,0.2767350673675537,0.21203136444091797,1.150177001953125,2.1923828125,9.622406005859375,-0.011365434778901218,-1.9146386281379744,0.860275986341446,16
295,5486.0,0.12231528759002686,0.20465779304504395,0.33592796325683594,1.0712127685546875,2.21392822265625,9.294586181640625,1.4565241801268791,-1.0657280765754296,0.08655215716240158,16
296,5505.0,0.03994143009185791,0.21815943717956543,0.009954452514648438,1.0712127685546875,2.21392822265625,9.294586181640625,3.805672122504385,-1.2807970731607912,0.08917494980368648,16
297,5521.0,0.03532695770263672,0.20755362510681152,0.012495994567871094,0.94439697265625,2.2306671142578125,9.134262084960938,3.388648092540086,-1.9391180261233,0.21419473237159986,16
298,5539.0,-0.09717357158660889,0.21698904037475586,-0.14515399932861328,1.019775390625,2.2127227783203125,9.300567626953125,1.3883315714534719,-2.4016037952032034,0.4353835784532928,16
299,5555.0,-0.026796460151672363,0.19588661193847656,0.022142410278320312,0.979095458984375,2.115814208984375,9.490798950195312,0.48084531756889765,-1.0735964544992842,0.8882524411818182,16
300,5572.0,-0.0676877498626709,0.09610676765441895,0.21207809448242188,0.987457275390625,2.1624755859375,9.066070556640625,1.5937836616874554,1.2064846149910524,1.397074213591088,16
301,5589.0,-0.053197383880615234,0.13738250732421875,-0.21138286590576172,0.9180755615234375,2.203155517578125,8.758590698242188,2.315051638040802,3.8511338616199895,1.872673945877416,16
302,5608.0,-0.11271488666534424,0.17375802993774414,-0.5169658660888672,0.945587158203125,2.272552490234375,8.774139404296875,0.7326334111322477,3.8677448816814604,1.8237151499067645,16
303,5630.0,-0.10289061069488525,0.17414402961730957,-0.516087532043457,0.979095458984375,2.239044189453125,9.042144775390625,-1.1514059695240695,3.83539710577228,1.7861217887150145,16
304,5651.0,-0.031237363815307617,0.22353672981262207,-0.23395538330078125,0.9073028564453125,2.1828155517578125,9.381927490234375,-3.721742757983268,0.47210267543128137,-1.2781742805195062,16
305,5667.0,-0.10161232948303223,0.17612385749816895,0.10321712493896484,0.9599456787109375,2.1301727294921875,9.640350341796875,-3.697263359997942,-0.5184386787606479,-2.2966920895518075,16
306,5684.0,-0.04873645305633545,0.12913870811462402,0.3587961196899414,0.8606414794921875,2.1361541748046875,9.521896362304688,-1.4573984443406407,-0.6434584613285612,-3.175327624382248,16
307,5701.0,-0.1480315923690796,0.1345536708831787,0.23940658569335938,0.8606414794921875,2.1361541748046875,9.521896362304688,0.8515333442038296,-1.0132722237497316,-2.426083193188529,16
308,5718.0,-0.1480315923690796,0.1345536708831787,0.23940658569335938,0.8127899169921875,2.2115325927734375,9.299362182617188,0.8515333442038296,-1.0132722237497316,-2.426083193188529,16
309,5738.0,-0.19261085987091064,0.19296717643737793,0.018973350524902344,0.85107421875,2.25579833984375,9.046920776367188,3.3597973734859523,0.014862491633947747,0.14600212369819257,16
310,5757.0,-0.15670418739318848,0.2301006317138672,-0.23082923889160156,0.9467926025390625,2.30963134765625,9.128280639648438,1.309647792214925,-1.984579765238905,1.0587339628653365,16
311,5774.0,-0.06936097145080566,0.28122544288635254,-0.14757156372070312,1.2279510498046875,2.2701568603515625,9.305343627929688,0.05944996653579099,-3.9062125070869724,1.1688912537993021,16
312,5791.0,0.20250427722930908,0.2391948699951172,0.030632972717285156,1.2279510498046875,2.2701568603515625,9.305343627929688,1.1417890631726915,-2.197900233396743,-0.6530753676799392,16
313,5809.0,0.19820523262023926,0.23589110374450684,0.031391143798828125,1.0377197265625,2.2988739013671875,8.9954833984375,0.27102190626610595,-0.9354627087249464,-1.991573878948998,16
314,5832.0,0.00539398193359375,0.2646052837371826,-0.2772665023803711,1.0496826171875,2.302459716796875,9.41900634765625,-1.4888719560360595,-1.7476541633095026,-1.6576049492920546,16
315,5851.0,0.013817906379699707,0.27171802520751953,0.1459217071533203,1.0891571044921875,2.268951416015625,9.285003662109375,-0.1556190300495705,0.5866312874340551,-1.4573984443406407,16
316,5867.0,0.05859112739562988,0.23758769035339355,0.011173248291015625,0.9228515625,2.3239898681640625,9.123489379882812,-0.506198979767985,2.7338241964326238,-2.0169275411480854,16
317,5886.0,-0.0984412431716919,0.29446935653686523,-0.15136241912841797,0.9228515625,2.3239898681640625,9.123489379882812,-2.1716723069838944,2.972498326789549,-1.7100608021177524,16
318,5903.0,-0.09145176410675049,0.29993271827697754,-0.15291595458984375,0.9491729736328125,2.3347625732421875,9.203659057617188,-3.12287177155655,1.195119180212151,-1.4652668222644953,16
319,5919.0,-0.062294840812683105,0.31647515296936035,-0.07426166534423828,1.0664215087890625,2.284515380859375,9.566162109375,-2.4872816881518434,-0.07868377923854689,-2.1017311698829637,16
320,5936.0,0.055689454078674316,0.26778244972229004,0.28635501861572266,0.98028564453125,2.2067413330078125,9.556594848632812,-0.009616906351377954,-0.2640277925560129,-2.7504352164940946,16
321,5955.0,-0.02765500545501709,0.185469388961792,0.27616024017333984,0.846282958984375,2.1876068115234375,9.41302490234375,2.117467925730673,0.912731839167144,-3.3213297480804402,16
322,5972.0,-0.15445053577423096,0.15752077102661133,0.1331043243408203,0.7075042724609375,2.20794677734375,8.927276611328125,3.2435202330556554,2.6315352834225125,-2.566839731604152,16
323,5988.0,-0.28455692529678345,0.1689291000366211,-0.35017967224121094,0.7075042724609375,2.20794677734375,8.927276611328125,2.400729530989442,2.046652524415981,-1.211730200273622,16
324,6006.0,-0.278278112411499,0.1635744571685791,-0.34824085235595703,0.8726043701171875,2.2809295654296875,8.996673583984375,0.8366708525698819,1.30702499957364,-0.6548238961074625,16
325,6023.0,-0.10897129774093628,0.23416924476623535,-0.2777700424194336,1.1250457763671875,2.3515167236328125,9.0194091796875,-0.0008742642137616321,1.0377516217350573,-1.2327125414039013,16
326,6040.0,0.14559155702590942,0.3038291931152344,-0.2543344497680664,0.94439697265625,2.30364990234375,9.119903564453125,-0.6775547656652648,0.08480362873487832,-2.7880285776858447,16
327,6057.0,-0.03426384925842285,0.25548434257507324,-0.1533985137939453,0.8379058837890625,2.2342681884765625,9.107940673828125,-0.33047187280189694,-0.8051973408744632,-2.6411521897738908,16
328,6074.0,-0.1414443850517273,0.18578028678894043,-0.16463756561279297,0.7721099853515625,2.30364990234375,9.0911865234375,-0.43450931423953115,-1.0386258859488189,-1.4355418389966,16
329,6091.0,-0.20779049396514893,0.25698375701904297,-0.18112468719482422,0.7721099853515625,2.30364990234375,9.0911865234375,-1.8901592301526486,-0.4074071236129206,-0.37943066877254833,16
330,6108.0,-0.20615023374557495,0.2623624801635742,-0.18187332153320312,0.852264404296875,2.245025634765625,9.36517333984375,-2.9069285107574268,0.919725952877237,0.10666023407891911,16
331,6124.0,-0.12188303470611572,0.2086045742034912,0.09009552001953125,0.8654327392578125,2.251007080078125,9.66546630859375,-1.3419955681241054,1.682958611491142,-0.33134613701565857,16
332,6142.0,-0.1034233570098877,0.21262741088867188,0.3884878158569336,0.828338623046875,2.2892913818359375,9.470458984375,1.9627231598948642,1.5465733941443272,-1.2484492972516106,16
333,6159.0,-0.1352086067199707,0.24176287651062012,0.19396400451660156,0.7673187255859375,2.3239898681640625,9.033767700195312,3.7707015539539195,1.4075653841562277,-1.1959934444259128,16
334,6175.0,-0.19172072410583496,0.26538753509521484,-0.23990440368652344,0.79962158203125,2.29168701171875,8.768157958984375,3.372911336692377,0.9171031602359521,-0.6303444981221368,16
335,6193.0,-0.1569913625717163,0.22583770751953125,-0.5021944046020508,0.79962158203125,2.29168701171875,8.768157958984375,1.2292154845488548,0.30511821060280964,0.2666505851972978,16
336,6209.0,-0.15581119060516357,0.22518539428710938,-0.5002202987670898,0.8415069580078125,2.2641754150390625,8.845932006835938,-1.3122705848562097,0.3654424413523622,0.9966612036882606,16
337,6226.0,-0.11432313919067383,0.20349836349487305,-0.4220762252807617,0.855865478515625,2.1995697021484375,9.110336303710938,-3.3475576744932893,-0.4537431269422871,1.5002373908149607,16
338,6243.0,-0.10178422927856445,0.14823555946350098,-0.15898418426513672,0.92047119140625,2.16845703125,9.17852783203125,-3.6212023734006804,-0.40391006675787405,2.081623092966446,16
339,6260.0,-0.037871360778808594,0.12589788436889648,-0.09237098693847656,0.8068084716796875,2.167266845703125,8.999069213867188,-2.8037653335335544,0.6871716720166429,2.0326642969957947,16
340,6278.0,-0.14938843250274658,0.13286805152893066,-0.27276039123535156,0.5735015869140625,2.1014556884765625,8.923690795898438,-3.1919386444437188,1.3315043975589658,2.0501495812710275,16
341,6295.0,-0.37929779291152954,0.07957959175109863,-0.3496732711791992,0.5735015869140625,2.1014556884765625,8.923690795898438,-5.743041620200161,1.1269265715387438,3.082655617723515,16
342,6312.0,-0.3769381046295166,0.099578857421875,-0.3527069091796875,0.699127197265625,2.1696624755859375,9.252700805664062,-8.552926803230047,0.9984097321157839,4.028609497013601,16
343,6335.0,-0.2502468228340149,0.19274771213531494,-0.029100418090820312,1.0018157958984375,2.19598388671875,10.013626098632812,-9.569696083834826,0.774598093392806,4.130898410023712,16
344,6353.0,0.04642379283905029,0.2601315975189209,0.7192659378051758,1.0365142822265625,2.3945770263671875,9.897567749023438,-3.852008125833751,-1.3315043975589658,2.6507690961252686,16
345,6371.0,0.07638788223266602,0.4595503807067871,0.6005773544311523,0.9886627197265625,2.497467041015625,9.415420532226562,2.251230350436203,-1.064853812361668,1.4136852336525592,16
346,6389.0,0.02364403009414673,0.5494658946990967,0.12064838409423828,0.9886627197265625,2.497467041015625,9.415420532226562,5.805114379377238,-2.0204245980031317,0.6784290298790265,16
347,6406.0,0.01792830228805542,0.5332111120223999,0.12366962432861328,0.8929443359375,2.6171112060546875,9.013427734375,4.691301771044918,-1.732791671675555,1.1889993307158198,16
348,6423.0,-0.08261561393737793,0.6424897909164429,-0.2750053405761719,1.0305328369140625,2.56805419921875,9.066070556640625,1.2606889962442736,-1.4390388958516465,1.7834989960737295,16
349,6440.0,0.051059603691101074,0.5909512042999268,-0.22104644775390625,0.97430419921875,2.386199951171875,9.40106201171875,-0.8410421736386902,-0.44500048480467075,2.146318644784807,16
350,6460.0,-0.006914913654327393,0.41025078296661377,0.11304855346679688,0.8965301513671875,2.30963134765625,9.483612060546875,-0.7842149997441841,0.11802566885782034,2.447065534318808,16
351,6479.0,-0.08549410104751587,0.33423686027526855,0.19449234008789062,1.0257568359375,2.256988525390625,9.489593505859375,-0.185344013317466,-0.034970568550465285,1.9618488956811024,16
352,6496.0,0.04340207576751709,0.2789837121963501,0.19995880126953125,1.0700225830078125,2.1923828125,9.550613403320312,1.5666814710608448,0.5708945315863457,1.0727221902855226,16
353,6514.0,0.042559921741485596,0.27030813694000244,0.20079803466796875,1.0700225830078125,2.1923828125,9.550613403320312,3.9988845137457054,-1.0176435448185397,-0.8786355348304403,16
354,6534.0,0.0801345705986023,0.18959283828735352,0.26467227935791016,0.7780914306640625,2.1780242919921875,9.0433349609375,6.918052723495795,-4.346841670822835,-2.352644999232552,16
355,6552.0,-0.23821008205413818,0.1217794418334961,-0.22833251953125,0.861846923828125,2.21990966796875,8.601852416992188,10.358282404647817,-6.311313359145222,0.14250506684314604,16
356,6570.0,-0.16981995105743408,0.13980507850646973,-0.6600828170776367,1.0640411376953125,2.371856689453125,8.795684814453125,7.07629454618665,-4.944838393035791,2.512635350350931,16
357,6587.0,-0.16981995105743408,0.13980507850646973,-0.6600828170776367,1.0640411376953125,2.371856689453125,8.795684814453125,7.07629454618665,-4.944838393035791,2.512635350350931,16
358,6604.0,0.012038946151733398,0.26542139053344727,-0.4547080993652344,1.0233612060546875,2.326385498046875,8.798065185546875,3.3589231092721907,-0.9442053508625627,3.237400383559324,16
359,6621.0,0.012038946151733398,0.26542139053344727,-0.4547080993652344,0.89892578125,2.356292724609375,8.729873657226562,3.3589231092721907,-0.9442053508625627,3.237400383559324,16
360,6638.0,-0.1658233404159546,0.2440786361694336,-0.5140552520751953,1.07958984375,2.290496826171875,9.2838134765625,-1.3148933774974947,-2.514383878778454,3.2024298150088586,16
361,6657.0,0.009693264961242676,0.18014812469482422,0.03970909118652344,0.90252685546875,2.221099853515625,9.537460327148438,-0.05944996653579099,-0.1468763879119542,1.6576049492920546,16
362,6674.0,0.009693264961242676,0.18014812469482422,0.03970909118652344,0.90252685546875,2.221099853515625,9.537460327148438,-0.05944996653579099,-0.1468763879119542,1.6576049492920546,16
363,6691.0,-0.1598196029663086,0.09536933898925781,0.29351806640625,0.92645263671875,2.3407440185546875,9.075637817382812,4.470987189176987,1.3734690798195242,0.21069767551655336,16
364,6708.0,-0.13313937187194824,0.20536065101623535,-0.16583633422851562,1.019775390625,2.4699554443359375,8.805252075195312,1.9863282936664282,0.1739785785385648,-0.5402952841046886,16
365,6728.0,-0.04126739501953125,0.3306000232696533,-0.4336233139038086,0.9228515625,2.4352569580078125,8.915313720703125,-0.2561594146321582,-1.7406600495994096,-1.0491170565139585,16
366,6745.0,-0.1438983678817749,0.29678988456726074,-0.32198143005371094,0.93841552734375,2.4352569580078125,8.880630493164062,-1.5107285613801003,-3.3099643133015393,-0.6285959696946135,16
367,6764.0,-0.1370084285736084,0.301530122756958,-0.35549259185791016,1.090362548828125,2.5417327880859375,8.822006225585938,-3.0336968217528635,-3.7418508348997856,-0.3129865885266643,16
368,6782.0,0.007212400436401367,0.4169883728027344,-0.4139575958251953,0.95635986328125,2.4388427734375,8.970352172851562,-4.907245031844041,-1.9705915378187189,0.20457782602022193,16
369,6799.0,-0.13116562366485596,0.32748913764953613,-0.26729774475097656,0.95635986328125,2.4388427734375,8.970352172851562,-5.888169479684592,-1.445158745347978,0.7649811870414281,16
370,6817.0,-0.1352165937423706,0.34192371368408203,-0.2692394256591797,1.1358184814453125,2.3933868408203125,9.197677612304688,-5.641626971403812,-1.590286604832409,0.8777612706166786,16
371,6836.0,0.03998720645904541,0.30991554260253906,-0.044579505920410156,0.9766998291015625,2.3933868408203125,9.127090454101562,-5.032264814411954,-1.008026638467162,0.9774273909855047,16
372,6857.0,-0.1226644515991211,0.3392817974090576,-0.12115764617919922,1.0484771728515625,2.26776123046875,9.867660522460938,-7.256392974221547,0.2421711872119721,1.3690977587507158,16
373,6877.0,-0.04942023754119873,0.23134756088256836,0.6125736236572266,0.9049072265625,2.2749481201171875,9.865264892578125,-6.1845450481497855,1.3052764711461167,1.4128109694387976,16
374,6895.0,-0.18760144710540771,0.24649500846862793,0.6051273345947266,0.9049072265625,2.2749481201171875,9.865264892578125,-0.10928302672020401,2.7172131763711524,1.4390388958516465,16
375,6912.0,-0.1823728084564209,0.2392258644104004,0.6034536361694336,0.9778900146484375,2.4208984375,8.924896240234375,5.124936821070688,1.3061507353598785,1.8971533438627417,16
376,6929.0,-0.10879039764404297,0.3717985153198242,-0.3329315185546875,1.0484771728515625,2.4591827392578125,8.69158935546875,4.0749455003429675,-0.2937527758239084,2.224128159809592,16
377,6946.0,-0.03984379768371582,0.40256524085998535,-0.5623788833618164,0.9539642333984375,2.437652587890625,8.623397827148438,0.6766805014515033,-0.19233812702755906,1.6025263038250717,16
378,6963.0,-0.13582777976989746,0.3824031352996826,-0.628361701965332,0.762542724609375,2.3395538330078125,8.336257934570312,-2.505641236640838,-0.6303444981221368,1.4652668222644953,16
379,6981.0,-0.3312551975250244,0.29625415802001953,-0.9139614105224609,0.762542724609375,2.3395538330078125,9.123489379882812,-6.690744027917771,-2.3395310360261274,3.0739129755858987,16
380,6998.0,-0.3434716463088989,0.31973958015441895,-0.13000965118408203,0.7960357666015625,2.338348388671875,9.123489379882812,-10.67564031424329,-5.9624819378543314,4.9465869214633145,16
381,7017.0,-0.32691526412963867,0.345190167427063,-0.13333606719970703,1.6143798828125,2.2234954833984375,10.022003173828125,-8.954214077346636,-5.537589529966178,4.213953510331067,16
382,7037.0,0.483278751373291,0.2473762035369873,0.7588748931884766,1.080780029296875,2.1385498046875,9.463272094726562,-3.8546309184750362,1.9391180261233,0.058575702322029355,16
383,7054.0,-0.03605806827545166,0.16365981101989746,0.19524860382080078,0.9372100830078125,2.2246856689453125,9.164169311523438,1.4871234276085363,1.6917012536287581,-3.9175779418658734,16
384,7071.0,-0.03605806827545166,0.16365981101989746,0.19524860382080078,0.9372100830078125,2.2246856689453125,9.164169311523438,1.4871234276085363,1.6917012536287581,-3.9175779418658734,16
385,7089.0,-0.17337381839752197,0.24305152893066406,-0.10286521911621094,1.1118927001953125,2.254608154296875,8.964370727539062,1.9434893471921082,0.9852957689093594,-2.6315352834225125,16
386,7105.0,-0.16637861728668213,0.23793697357177734,-0.10230827331542969,0.9838714599609375,2.3981781005859375,8.891387939453125,0.5315526419670723,2.6560146814078385,-2.041406939133411,16
387,7122.0,0.017757177352905273,0.26810359954833984,-0.3022651672363281,0.963531494140625,2.4639739990234375,8.885406494140625,-1.9041474575728348,3.7033832094942736,-1.0342545648800108,16
388,7139.0,-0.1210935115814209,0.4948582649230957,-0.38358306884765625,1.0760040283203125,2.386199951171875,9.45489501953125,-5.750909998124016,-1.290413979512169,1.770385032867305,16
389,7157.0,-0.1210935115814209,0.4948582649230957,-0.38358306884765625,1.3128814697265625,2.3311767578125,9.7587890625,-5.750909998124016,-1.290413979512169,1.770385032867305,16
390,7173.0,-0.0142287015914917,0.4298532009124756,0.1827249526977539,1.3128814697265625,2.3311767578125,9.7587890625,-4.5269400988577315,-2.0667606013324984,2.07288045082883,16
391,7191.0,0.21983933448791504,0.3759549856185913,0.48178958892822266,0.99224853515625,2.338348388671875,9.287399291992188,2.398106738348157,0.12589404678167504,-1.015020752177255,16
392,7209.0,0.21983933448791504,0.3759549856185913,0.48178958892822266,1.0556640625,2.3168182373046875,9.127090454101562,2.398106738348157,0.12589404678167504,-1.015020752177255,16
393,7226.0,-0.041562795639038086,0.34353840351104736,-0.14560222625732422,1.1130828857421875,2.3479156494140625,9.156997680664062,2.628912490781228,-1.1330464210350752,-1.2781742805195062,16
394,7242.0,0.016642332077026367,0.36653804779052734,-0.1139211654663086,0.93841552734375,2.46636962890625,8.84832763671875,1.9006504007177882,1.216975785556192,-1.2886654510846458,16
395,7261.0,0.016642332077026367,0.36653804779052734,-0.1139211654663086,1.038909912109375,2.373046875,8.699966430664062,1.9006504007177882,1.216975785556192,-1.2886654510846458,16
396,7278.0,-0.050896644592285156,0.3936631679534912,-0.5687036514282227,1.038909912109375,2.373046875,8.699966430664062,-4.478855567100841,0.4755997322863279,-0.6994113710093057,16
397,7295.0,-0.05043220520019531,0.40582776069641113,-0.5693016052246094,1.044891357421875,2.326385498046875,9.33526611328125,-5.960733409426807,-0.7072797489331604,-1.259814732030512,16
398,7312.0,-0.04471719264984131,0.369468092918396,0.06328201293945312,0.98028564453125,2.1002655029296875,9.777938842773438,-3.1622136611758234,-0.34620862864960633,-2.1305818889370975,16
399,7331.0,-0.10755348205566406,0.1457536220550537,0.5030593872070312,0.8821868896484375,2.24981689453125,9.250320434570312,0.5367982272496421,0.5892540800753401,-1.3201389627800646,16
400,7350.0,-0.20426011085510254,0.2909170389175415,-0.02385425567626953,1.0293426513671875,2.2534027099609375,8.960784912109375,1.6007777753975485,-0.5464151336010201,-0.35407700657346103,16
401,7366.0,-0.0592341423034668,0.2906365394592285,-0.311248779296875,1.1992340087890625,2.407745361328125,8.906951904296875,0.30948953167161775,-1.2773000163057446,0.006994113710093057,16
402,7384.0,0.10646426677703857,0.44426119327545166,-0.36336326599121094,1.1992340087890625,2.407745361328125,8.906951904296875,-1.2082331434185756,-1.587663812191124,-0.506198979767985,16
403,7400.0,0.10292744636535645,0.44652485847473145,-0.36235713958740234,1.1932525634765625,2.3634796142578125,9.13067626953125,-2.086868678249016,-1.152280233737831,-1.6313770228792055,16
404,7417.0,0.09482395648956299,0.4056648015975952,-0.13892650604248047,1.043701171875,2.26177978515625,9.310134887695312,-2.051023845484789,-0.7973289629506085,-1.578046905839746,16
405,7441.0,-0.05537235736846924,0.30739498138427734,0.03947639465332031,1.1525726318359375,2.2749481201171875,9.218017578125,-1.6917012536287581,-0.32872334437437367,-0.6967885783680208,16
406,7458.0,-0.07558155059814453,0.2878986597061157,-0.10695457458496094,1.068817138671875,2.3467254638671875,9.026580810546875,-1.732791671675555,-0.07868377923854689,-0.5875055516478168,16
407,7475.0,-0.02377164363861084,0.4002777338027954,-0.24568557739257812,1.068817138671875,2.3467254638671875,9.026580810546875,-1.442535952706693,1.5588130931369901,-0.8707671569065856,16
408,7493.0,-0.02377164363861084,0.4002777338027954,-0.24568557739257812,1.0592498779296875,2.254608154296875,9.068466186523438,-1.442535952706693,1.5588130931369901,-0.8707671569065856,16
409,7510.0,-0.019385695457458496,0.40407252311706543,-0.24631118774414062,1.0664215087890625,2.272552490234375,9.22039794921875,-2.7600521228454724,1.3183904343525412,-0.5201872071881711,16
410,7527.0,-0.017666101455688477,0.34273576736450195,-0.055118560791015625,1.0054168701171875,2.251007080078125,9.293380737304688,-2.7312014037913386,-0.6259731770533286,-0.7238907689946315,16
411,7543.0,-0.017666101455688477,0.34273576736450195,-0.055118560791015625,0.9551544189453125,2.1995697021484375,9.233566284179688,-2.7312014037913386,-0.6259731770533286,-0.7238907689946315,16
412,7563.0,-0.1370757818222046,0.2772641181945801,-0.04286479949951172,0.891754150390625,2.1660614013671875,9.19647216796875,-1.5456991299305656,-3.2041783434363817,-0.7877120565992305,16
413,7580.0,-0.2066652774810791,0.24692749977111816,-0.07966423034667969,0.891754150390625,2.1660614013671875,9.19647216796875,-1.640119665016822,-2.1471929089985684,0.013988227420186114,16
414,7596.0,-0.2066652774810791,0.24692749977111816,-0.07966423034667969,0.9551544189453125,2.2007598876953125,9.183319091796875,-1.640119665016822,-2.1471929089985684,0.013988227420186114,16
415,7614.0,-0.14327824115753174,0.28543996810913086,-0.091949462890625,1.068817138671875,2.3287811279296875,9.08880615234375,-2.8885689622684327,0.6924172572992127,2.0685091297600215,16
416,7631.0,-0.02942800521850586,0.41131162643432617,-0.18312931060791016,1.1107025146484375,2.34912109375,9.18450927734375,-3.752342005464925,-0.4310122573844846,1.5273395814415713,16
417,7648.0,0.007655143737792969,0.42990565299987793,-0.08658218383789062,1.1178741455078125,2.290496826171875,9.477630615234375,-3.705131737921797,-2.419089079478436,1.008026638467162,16
418,7665.0,0.006406545639038086,0.3689842224121094,0.2001047134399414,1.0712127685546875,2.3515167236328125,9.533859252929688,-2.203145818679313,-3.3632944303409986,0.3584483276422692,16
419,7683.0,-0.04730629920959473,0.42147016525268555,0.24948978424072266,1.0712127685546875,2.3515167236328125,9.533859252929688,-0.28675866211381534,-2.66213453090417,0.4047843309716357,16
420,7699.0,-0.05210244655609131,0.42017602920532227,0.24895763397216797,0.975494384765625,2.3515167236328125,9.162979125976562,0.1031631772238726,-0.7536157522625269,0.9013664043882427,16
421,7720.0,-0.14743375778198242,0.4221804141998291,-0.12216854095458984,0.909698486328125,2.344329833984375,8.93804931640625,-2.478539046014227,1.2676831099543666,2.3823699825004474,16
422,7742.0,-0.20792639255523682,0.4250931739807129,-0.3486356735229492,0.969512939453125,2.2426300048828125,9.414230346679688,-5.569937305875358,3.16571071803087,3.273245216323551,16
423,7760.0,-0.20276761054992676,0.34935498237609863,-0.11691761016845703,0.9934539794921875,2.2282867431640625,9.526687622070312,-6.660144780436114,3.276742273178597,4.060957272922781,16
424,7776.0,-0.13558673858642578,0.356181263923645,0.11889076232910156,0.9934539794921875,2.2282867431640625,9.526687622070312,-5.465025600223963,1.7126835947590373,4.513826135651307,16
425,7793.0,-0.11311876773834229,0.3543720245361328,0.22779178619384766,1.144195556640625,2.151702880859375,9.848526000976562,-3.7925581592979603,-1.3760918724608089,4.192096904987026,16
426,7810.0,0.0163729190826416,0.2852131128311157,0.5469646453857422,1.5629425048828125,2.180419921875,10.382125854492188,2.6420264539876523,-4.5960069717449,1.7196777084691304,16
427,7827.0,0.0163729190826416,0.2852131128311157,0.5469646453857422,1.396636962890625,2.1301727294921875,9.590103149414062,2.6420264539876523,-4.5960069717449,1.7196777084691304,16
428,7844.0,0.42413389682769775,0.2953451871871948,1.0806617736816406,1.26861572265625,2.133758544921875,9.257492065429688,10.009450983356926,-2.308057524330709,-2.4182148152646743,16
429,7864.0,0.11410641670227051,0.1736292839050293,-0.028150558471679688,1.225555419921875,2.14453125,9.022994995117188,14.434976433418308,-5.594416703860684,-5.6468725566863816,16
430,7881.0,0.11410641670227051,0.1736292839050293,-0.028150558471679688,1.225555419921875,2.14453125,9.022994995117188,14.434976433418308,-5.594416703860684,-5.6468725566863816,16
431,7901.0,0.06638848781585693,0.10350584983825684,-0.2428426742553711,1.4516754150390625,2.350311279296875,8.380523681640625,12.01413882551235,2.8789520559170545,-6.12247228897271,16
432,7917.0,0.30643296241760254,0.28208446502685547,-0.8777627944946289,1.1884613037109375,2.4125213623046875,8.111328125,5.575182891157928,5.527098359401038,-6.5937007001902295,16
433,7936.0,0.06308424472808838,0.334963321685791,-1.142868995666504,0.6895599365234375,2.34912109375,8.226181030273438,-1.3236360196351111,6.427590499575519,-6.333169964489263,16
434,7955.0,-0.4166215658187866,0.27887392044067383,-1.0277185440063477,0.69793701171875,2.24981689453125,8.73345947265625,-6.179299462867216,4.132646938451235,-3.9577940956989086,16
435,7976.0,-0.35055673122406006,0.2125239372253418,-0.110076904296875,0.73980712890625,2.2414398193359375,9.152206420898438,-9.463910113969668,-0.4126527088954904,0.817437039867126,16
436,7993.0,-0.35055673122406006,0.2125239372253418,-0.110076904296875,0.9300384521484375,2.1828155517578125,9.69537353515625,-9.463910113969668,-0.4126527088954904,0.817437039867126,16
437,8010.0,-0.3521606922149658,0.23583221435546875,-0.11452484130859375,1.0724029541015625,2.204345703125,10.030380249023438,-8.246934328413476,-1.497614598173676,0.8121914545845562,16
438,8027.0,-0.16743016242980957,0.1928567886352539,0.4240560531616211,0.96234130859375,2.26776123046875,9.609237670898438,-3.812666236214478,-2.95676157094184,-0.2902557189688619,16
439,8046.0,-0.03300678730010986,0.21663105487823486,0.7561826705932617,1.0891571044921875,2.3359527587890625,8.90814208984375,1.3017794142910701,-3.338815032355673,-1.3236360196351111,16
440,8064.0,-0.034999847412109375,0.3265194892883301,-0.3594694137573242,1.156158447265625,2.4053497314453125,8.963180541992188,3.36941427983733,-3.7252398148383143,-0.8322995315010738,16
441,8083.0,0.023282647132873535,0.38825464248657227,-0.3008108139038086,1.156158447265625,2.4053497314453125,8.963180541992188,0.9136061033809055,-2.9217910023913745,-0.5263070566845025,16
442,8099.0,0.023282647132873535,0.38825464248657227,-0.3008108139038086,1.219573974609375,2.3670654296875,8.947616577148438,0.9136061033809055,-2.9217910023913745,-0.5263070566845025,16
443,8117.0,0.08395469188690186,0.3487870693206787,-0.31394100189208984,1.03411865234375,2.383819580078125,8.94403076171875,-2.2757097484215283,0.36893949820740873,-0.6041165717092878,16
444,8134.0,-0.09840559959411621,0.37111878395080566,-0.31807613372802734,0.9766998291015625,2.239044189453125,8.9954833984375,-3.0555534270969043,1.4748837286158734,-0.010491170565139585,16
445,8151.0,-0.14898574352264404,0.23541641235351562,-0.26843929290771484,0.9420013427734375,2.3311767578125,8.9835205078125,-4.242804229385201,3.3090900490877777,0.9485766719313709,16
446,8168.0,-0.17547905445098877,0.3411208391189575,-0.2833528518676758,0.9420013427734375,2.3311767578125,8.9835205078125,-6.480920616614979,2.778411671334467,1.7520254843783107,16
447,8185.0,-0.17547905445098877,0.3411208391189575,-0.2833528518676758,0.76373291015625,2.2163238525390625,8.831573486328125,-6.480920616614979,2.778411671334467,1.7520254843783107,16
448,8202.0,-0.34618961811065674,0.2668956518173218,-0.44208621978759766,1.2542572021484375,2.2103271484375,10.178726196289062,-8.536315783168575,-1.34986394604796,3.032822557539102,16
449,8219.0,0.1421431303024292,0.2762787342071533,0.8980398178100586,1.20880126953125,2.1529083251953125,9.773147583007812,-3.1919386444437188,0.9520737287864174,0.6670635951001254,16
450,8237.0,0.10349547863006592,0.2200164794921875,0.4891166687011719,0.78167724609375,2.109832763671875,9.292190551757812,1.4670153506920187,4.032106553868648,-2.309806052758232,16
451,8254.0,-0.3157985210418701,0.16884875297546387,0.008891105651855469,0.843902587890625,2.239044189453125,8.822006225585938,3.448098059075877,-0.1494991805532391,-2.031790032782033,16
452,8271.0,-0.25468993186950684,0.2868635654449463,-0.4570283889770508,0.843902587890625,2.239044189453125,8.822006225585938,3.6229509018282036,-1.9531062535434862,-0.34620862864960633,16
453,8288.0,-0.259141206741333,0.2823033332824707,-0.45376110076904297,0.9479827880859375,2.2462310791015625,8.946426391601562,-1.0298832438112027,-1.9303753839856836,1.2484492972516106,16
454,8307.0,-0.15707051753997803,0.2943209409713745,-0.32892513275146484,1.2781982421875,2.34912109375,9.302963256835938,-3.0354453501803866,0.6705606519551719,2.0833716213939693,16
455,8327.0,0.17633235454559326,0.4036257266998291,0.025338172912597656,1.3583526611328125,2.4292755126953125,9.165374755859375,-2.5292463704124017,2.922665266605136,1.266808845740605,16
456,8344.0,0.2609987258911133,0.4876641035079956,-0.113677978515625,1.1094970703125,2.380218505859375,9.033767700195312,-1.7546482770195957,1.333252925986489,-0.6329672907634216,16
457,8361.0,0.013932228088378906,0.44171857833862305,-0.2455120086669922,0.975494384765625,2.3287811279296875,9.269454956054688,-2.172546571197656,-0.4668570901487116,-1.7214262368966537,16
458,8378.0,-0.11869454383850098,0.3953791856765747,-0.011290550231933594,0.8726043701171875,2.1708526611328125,9.556594848632812,-3.1473511695418757,0.4904622239202756,-1.2624375246717967,16
459,8397.0,-0.20781123638153076,0.24906468391418457,0.2703437805175781,1.0544586181640625,2.1588897705078125,9.408233642578125,-1.102447173553418,2.404226587844488,0.04371321068808161,16
460,8414.0,-0.20781123638153076,0.24906468391418457,0.2703437805175781,0.979095458984375,2.2881011962890625,9.025390625,-1.102447173553418,2.404226587844488,0.04371321068808161,16
461,8432.0,-0.021866440773010254,0.23664045333862305,0.12090206146240234,1.07958984375,2.313232421875,8.8447265625,0.5892540800753401,0.31473511695418754,-1.112064079904796,16
462,8451.0,-0.0003744363784790039,0.3890721797943115,-0.43945980072021484,0.822357177734375,2.167266845703125,9.003860473632812,-2.273961219994005,-2.2748354842077667,-3.5538840289410345,16
463,8468.0,-0.0003744363784790039,0.3890721797943115,-0.43945980072021484,0.822357177734375,2.167266845703125,9.003860473632812,-2.273961219994005,-2.2748354842077667,-3.5538840289410345,16
464,8485.0,-0.2753866910934448,0.2554370164871216,-0.27862071990966797,1.103515625,2.23785400390625,9.275436401367188,-2.918293945536328,-7.356933358804135,-2.687488193103257,16
465,8502.0,-0.013165593147277832,0.32959258556365967,-0.005771636962890625,1.3224639892578125,2.2223052978515625,9.384307861328125,-1.5028601834562456,-7.976786686361131,-3.937686018782391,16
466,8519.0,-0.013165593147277832,0.32959258556365967,-0.005771636962890625,1.2841796875,2.1864013671875,9.411834716796875,-1.5028601834562456,-7.976786686361131,-3.937686018782391,16
467,8536.0,0.13734936714172363,0.2762007713317871,0.13303279876708984,1.1585540771484375,2.139739990234375,9.399871826171875,0.03147351169541876,-3.846762540551181,-4.4823526239558875,16
468,8553.0,0.13734936714172363,0.2762007713317871,0.13303279876708984,1.0532684326171875,2.115814208984375,9.306549072265625,0.03147351169541876,-3.846762540551181,-4.4823526239558875,16
469,8571.0,-0.1028738021850586,0.19664740562438965,0.02980518341064453,1.0532684326171875,2.115814208984375,9.306549072265625,1.8280864709755729,-1.8245894141205263,-3.9132066207970655,16
470,8588.0,-0.10530304908752441,0.19009506702423096,0.031226158142089844,0.945587158203125,2.2246856689453125,8.930877685546875,1.4766322570433967,-1.8377033773269507,-3.5748663700713137,16
471,8604.0,-0.10530304908752441,0.19009506702423096,0.031226158142089844,0.9934539794921875,2.302459716796875,8.746627807617188,1.4766322570433967,-1.8377033773269507,-3.5748663700713137,16
472,8622.0,-0.16250324249267578,0.37913942337036133,-0.5262746810913086,1.1776885986328125,2.4472198486328125,8.774139404296875,-4.468364396535701,1.835080584685666,-1.620885852314066,16
473,8639.0,0.02879953384399414,0.5364093780517578,-0.5006084442138672,1.019775390625,2.4053497314453125,9.33526611328125,-6.8909505328691845,2.6254154339261815,-2.381495718286686,16
474,8656.0,-0.12280058860778809,0.5088053941726685,0.05620288848876953,0.79364013671875,2.3646697998046875,9.19647216796875,-5.972098844205709,0.3156093811679492,-4.056585951853973,16
475,8673.0,-0.3473644256591797,0.47904419898986816,-0.08488178253173828,0.79364013671875,2.3646697998046875,9.19647216796875,-4.47798130288708,-1.796612959280154,-3.6133339954768258,16
476,8689.0,-0.3473644256591797,0.47904419898986816,-0.08488178253173828,0.6967315673828125,2.2869110107421875,9.337646484375,-4.47798130288708,-1.796612959280154,-3.6133339954768258,16
477,8709.0,-0.4450284242630005,0.4161885976791382,0.053154945373535156,0.8259429931640625,2.32757568359375,9.274246215820312,-3.2548856678345564,-0.2570336788459198,-1.2624375246717967,16
478,8732.0,-0.20238268375396729,0.4474691152572632,0.02681446075439453,0.963531494140625,2.2007598876953125,9.610427856445312,-4.662451051990784,1.839451905754474,-0.7265135616359163,16
479,8749.0,-0.20238268375396729,0.4474691152572632,0.02681446075439453,0.7769012451171875,2.03326416015625,9.612823486328125,-4.662451051990784,1.839451905754474,-0.7265135616359163,16
480,8768.0,-0.3429453372955322,0.19293200969696045,0.31618404388427734,0.7769012451171875,2.03326416015625,9.612823486328125,-1.190747859143343,3.3790311861887083,-0.25528515041839656,16
481,8785.0,-0.3302788734436035,0.19404137134552002,0.313140869140625,0.8606414794921875,2.0607757568359375,9.311325073242188,-0.23867413035692558,4.876645784362384,0.10141464879634933,16
482,8802.0,-0.3302788734436035,0.19404137134552002,0.313140869140625,0.9061126708984375,2.1505126953125,9.014617919921875,-0.23867413035692558,4.876645784362384,0.10141464879634933,16
483,8819.0,-0.17160868644714355,0.31143414974212646,-0.28763389587402344,0.8271484375,2.179229736328125,8.682022094726562,-1.0910817387745169,5.339131553442288,0.8777612706166786,16
484,8836.0,-0.17160868644714355,0.31143414974212646,-0.28763389587402344,0.9551544189453125,2.1241912841796875,8.893783569335938,-1.0910817387745169,5.339131553442288,0.8777612706166786,16
485,8854.0,-0.0982668399810791,0.30437183380126953,-0.41109657287597656,1.00421142578125,2.0835113525390625,9.078033447265625,-5.712442372718504,3.886104430170455,2.138450266860952,16
486,8871.0,-0.041409969329833984,0.2797887325286865,-0.2301025390625,1.00421142578125,2.0835113525390625,9.078033447265625,-6.46518386076727,2.551977239970204,2.1830377417627953,16
487,8890.0,-0.041409969329833984,0.2797887325286865,-0.2301025390625,1.21478271484375,2.073944091796875,9.354400634765625,-6.46518386076727,2.551977239970204,2.1830377417627953,16
488,8907.0,0.174125075340271,0.3020230531692505,0.03986930847167969,1.044891357421875,2.1110382080078125,9.43695068359375,-5.0077854164266284,0.27889028418996065,-0.08830068558992485,16
489,8923.0,0.004445433616638184,0.3493161201477051,0.11968135833740234,1.0413055419921875,2.1780242919921875,9.273040771484375,-3.600220032270401,-0.21594326079912313,-0.46860561857623484,16
490,8946.0,-5.7578086853027344e-05,0.4239276647567749,-0.04570770263671875,1.1657257080078125,2.2366485595703125,9.285003662109375,-3.353677523989621,-0.5700202673725842,-0.1337624247055297,16
491,8963.0,0.12246537208557129,0.4902578592300415,-0.035274505615234375,1.22674560546875,2.24981689453125,9.37713623046875,-3.839768426841088,-0.5210614714019327,-0.2745189631211525,16
492,8979.0,0.1825944185256958,0.512061357498169,0.05463123321533203,1.22674560546875,2.24981689453125,9.37713623046875,-4.171988828070509,0.2308057524330709,-0.7789694144616143,16
493,9000.0,0.18444907665252686,0.521408200263977,0.05197715759277344,0.897735595703125,2.1182098388671875,9.558990478515625,-4.4823526239558875,1.3384985112690588,-1.1190581936148891,16
494,9017.0,-0.13254952430725098,0.4103679656982422,0.22711563110351562,0.834320068359375,2.1050567626953125,9.495574951171875,-3.951674246202577,2.806388126174839,0.8559046652726379,16
495,9035.0,-0.13254952430725098,0.4103679656982422,0.22711563110351562,0.8426971435546875,2.1050567626953125,9.408233642578125,-3.951674246202577,2.806388126174839,0.8559046652726379,16
496,9055.0,-0.187272310256958,0.40503954887390137,0.16042232513427734,0.9240570068359375,2.1230010986328125,9.43096923828125,-2.7766631429069437,3.3685400156235685,1.2755514878782213,16
497,9072.0,-0.0829918384552002,0.4305143356323242,0.09166526794433594,0.9240570068359375,2.1230010986328125,9.43096923828125,-0.9678104846341268,1.6427424576581067,0.7632326586139049,16
498,9090.0,-0.07792937755584717,0.42822182178497314,0.0908670425415039,0.9479827880859375,2.0823211669921875,9.547027587890625,1.3682234945369542,1.877045266946224,-0.4458747490184324,16
499,9106.0,-0.0479358434677124,0.3791571855545044,0.20666980743408203,0.67401123046875,2.132568359375,9.014617919921875,3.4376068885107376,2.134953210005906,-1.0805905682093773,16
500,9123.0,-0.31730884313583374,0.4209250211715698,-0.32350730895996094,0.8259429931640625,2.173248291015625,8.906951904296875,1.3463668891929135,0.03934188961927344,-0.10840876250644238,16
501,9140.0,-0.31730884313583374,0.4209250211715698,-0.32350730895996094,0.873809814453125,2.1505126953125,9.288604736328125,1.3463668891929135,0.03934188961927344,-0.10840876250644238,16
502,9157.0,-0.11750173568725586,0.44358253479003906,-0.0489501953125,0.8666229248046875,2.1002655029296875,9.769561767578125,-3.7680787613126343,-0.13988227420186114,-0.16173887954590194,16
503,9174.0,-0.12471878528594971,0.39877915382385254,0.4289722442626953,0.8666229248046875,2.1002655029296875,9.769561767578125,-1.5229682603727632,-0.4205210868193451,-0.6967885783680208,16
504,9190.0,-0.12478739023208618,0.3971879482269287,0.4272346496582031,0.80322265625,2.03924560546875,9.600860595703125,1.3367499828415355,-0.2421711872119721,-0.5708945315863457,16
505,9207.0,-0.18678146600723267,0.3298753499984741,0.2582845687866211,0.80322265625,2.1002655029296875,9.165374755859375,2.2319965377334468,0.6618180098175556,0.36893949820740873,16
506,9225.0,-0.18678146600723267,0.3298753499984741,0.2582845687866211,0.915679931640625,2.108642578125,9.0313720703125,2.2319965377334468,0.6618180098175556,0.36893949820740873,16
507,9242.0,-0.07122725248336792,0.391953706741333,-0.30864810943603516,1.0520782470703125,2.1780242919921875,9.039749145507812,-0.45811444801109524,-0.24654250828078025,1.5666814710608448,16
508,9258.0,0.06207406520843506,0.4616199731826782,-0.29912757873535156,0.9707183837890625,2.1648712158203125,9.12469482421875,-0.9319656518698999,-1.4276734610727453,0.6076136285643343,16
509,9276.0,-0.022607147693634033,0.44965362548828125,-0.21349048614501953,0.9707183837890625,2.1648712158203125,9.12469482421875,-1.2615632604580351,-0.9835472404818362,-0.14075653841562277,16
510,9293.0,-0.02375471591949463,0.45292818546295166,-0.21341228485107422,0.77569580078125,2.0404510498046875,9.296981811523438,-2.5274978419848786,0.05507864546698282,0.0489587959706514,16
511,9310.0,-0.02375471591949463,0.45292818546295166,-0.21341228485107422,0.8008270263671875,2.028472900390625,9.535064697265625,-2.5274978419848786,0.05507864546698282,0.0489587959706514,16
512,9326.0,-0.190479576587677,0.3234107494354248,0.19440269470214844,0.85107421875,2.07275390625,9.462081909179688,0.16173887954590194,0.13988227420186114,1.3323786617727273,16
513,9343.0,-0.14050191640853882,0.3640226125717163,0.12139415740966797,0.8953399658203125,2.1289825439453125,9.11273193359375,1.6812100830636185,-0.29462704003767004,1.252820618320419,16
514,9360.0,-0.09790796041488647,0.41574931144714355,-0.22628307342529297,0.8606414794921875,2.03924560546875,9.25390625,0.5621518894487294,-0.8401679094249285,0.860275986341446,16
515,9379.0,-0.13400131464004517,0.3247305154800415,-0.08456134796142578,0.8606414794921875,2.03924560546875,9.25390625,-0.4327607858120079,-0.2692733778385827,0.8847553843267717,16
516,9397.0,-0.1342516541481018,0.3242443799972534,-0.08428192138671875,0.8594512939453125,2.08709716796875,9.222793579101562,-0.042838946474319975,-0.04721026754312813,0.625098912839567,16
517,9414.0,-0.1351853609085083,0.3706475496292114,-0.1148996353149414,0.969512939453125,2.1002655029296875,9.201263427734375,0.08130657187983178,0.01661102006147101,0.4388806353083393,16
518,9436.0,-0.023702919483184814,0.38200318813323975,-0.13596248626708984,0.9348297119140625,2.132568359375,9.08880615234375,0.11278008357525054,1.0141464879634932,-0.08830068558992485,16
519,9453.0,-0.05507415533065796,0.41248369216918945,-0.24769306182861328,0.863037109375,2.0416412353515625,9.177337646484375,-0.1005403845825877,1.138292006317645,-0.4589887122248569,16
520,9470.0,-0.12030917406082153,0.3143874406814575,-0.15538692474365234,0.8570556640625,2.010528564453125,9.210830688476562,-1.2816713373745527,1.045619999658912,-0.0708154013146922,16
521,9486.0,-0.11455929279327393,0.3108559846878052,-0.1522846221923828,0.8666229248046875,2.04522705078125,9.385513305664062,-2.6324095476362745,0.7649811870414281,0.0655698160321224,16
522,9506.0,-0.11466830968856812,0.279299259185791,-0.11711311340332031,0.92047119140625,2.0942840576171875,9.50634765625,-2.8378616378702577,1.2126044644873837,0.35495127078722266,16
523,9522.0,-0.04724478721618652,0.3505162000656128,0.17080211639404297,0.9934539794921875,2.1110382080078125,9.289794921875,0.5875055516478168,-0.9039891970295276,-0.38030493298630996,16
524,9540.0,-0.04724478721618652,0.3505162000656128,0.17080211639404297,0.9491729736328125,2.156494140625,9.036163330078125,0.5875055516478168,-0.9039891970295276,-0.38030493298630996,16
525,9557.0,0.02297675609588623,0.35466885566711426,-0.043819427490234375,0.9491729736328125,2.156494140625,9.036163330078125,1.1662684611580172,-0.727387825849678,-0.11278008357525054,16
526,9574.0,-0.01981055736541748,0.3789517879486084,-0.28133392333984375,0.945587158203125,2.0990753173828125,9.147430419921875,-1.7161806516140838,0.3925446319789728,0.3951674246202577,16
527,9591.0,-0.01981055736541748,0.3789517879486084,-0.28133392333984375,0.95635986328125,2.07275390625,9.336456298828125,-1.7161806516140838,0.3925446319789728,0.3951674246202577,16
528,9608.0,-0.010214149951934814,0.28848278522491455,0.020941734313964844,0.9946441650390625,2.151702880859375,9.474044799804688,-1.737162992744363,0.42401814367439156,-0.912731839167144,16
529,9625.0,0.028186917304992676,0.36048686504364014,0.15340805053710938,1.0472869873046875,2.191192626953125,9.566162109375,-1.0255119227423946,-0.30948953167161775,-2.017801805361847,16
530,9642.0,0.028186917304992676,0.36048686504364014,0.15340805053710938,1.0377197265625,2.1864013671875,9.300567626953125,-1.0255119227423946,-0.30948953167161775,-2.017801805361847,16
531,9662.0,0.06928932666778564,0.3853558301925659,-0.019608497619628906,1.0377197265625,2.1864013671875,9.300567626953125,2.9978519889886366,-0.18097269224865786,-4.354710048746689,16
532,9679.0,0.06928932666778564,0.3853558301925659,-0.019608497619628906,0.98626708984375,2.2581939697265625,8.966766357421875,2.9978519889886366,-0.18097269224865786,-4.354710048746689,16
533,9695.0,0.02054375410079956,0.44196856021881104,-0.3499107360839844,0.6524658203125,2.0404510498046875,9.080429077148438,-0.30774100324409454,-1.1321721568213137,-4.5960069717449,16
534,9712.0,-0.31395047903060913,0.2247675657272339,-0.23534679412841797,0.76373291015625,2.0129241943359375,9.2239990234375,-1.549196186785612,-1.7887445813562994,-2.843981487366589,16
535,9729.0,-0.31395047903060913,0.2247675657272339,-0.23534679412841797,0.875,1.99737548828125,9.302963256835938,-1.549196186785612,-1.7887445813562994,-2.843981487366589,16
536,9746.0,-0.10049474239349365,0.18461477756500244,-0.012182235717773438,0.8175811767578125,1.8681640625,9.046920776367188,-0.10403744143763423,-2.663883059331693,-2.6603860024766464,16
537,9763.0,-0.16329848766326904,0.05379784107208252,-0.266204833984375,0.8175811767578125,1.8681640625,9.046920776367188,0.4668570901487116,-2.9908578752785435,-3.54077006573461,16
538,9780.0,-0.16947197914123535,0.05344891548156738,-0.2643461227416992,0.6608428955078125,2.028472900390625,9.012222290039062,-1.2064846149910524,-3.5949744469878313,-4.362578426670544,16
539,9799.0,-0.332979679107666,0.21688759326934814,-0.2977142333984375,0.7362213134765625,1.93994140625,9.468063354492188,-2.6096786780784718,-3.966536737836525,-3.7252398148383143,16
540,9816.0,-0.2627685070037842,0.1317908763885498,0.15736770629882812,0.90252685546875,2.151702880859375,9.603256225585938,-0.9783016551992664,-1.8429489626095206,-2.512635350350931,16
541,9838.0,-0.09863317012786865,0.3421269655227661,0.29161643981933594,0.8941497802734375,2.2581939697265625,9.428573608398438,0.5525349830973515,-0.8139399830120795,-1.4154337620800823,16
542,9858.0,-0.0622406005859375,0.4189671277999878,0.2342529296875,0.94439697265625,2.2366485595703125,9.545822143554688,1.008026638467162,-1.6908269894149965,1.0587339628653365,16
543,9878.0,-0.06452715396881104,0.41340577602386475,0.2342967987060547,1.1944427490234375,2.28570556640625,9.5302734375,2.037035618064603,0.2421711872119721,1.1225552504699357,16
544,9894.0,-0.06452715396881104,0.41340577602386475,0.2342967987060547,1.2004241943359375,2.2713470458984375,9.332870483398438,2.037035618064603,0.2421711872119721,1.1225552504699357,16
545,9914.0,0.20095044374465942,0.42940711975097656,0.0220947265625,1.0496826171875,2.2007598876953125,9.070846557617188,2.6796198151794024,4.074071236129206,-1.2126044644873837,16
546,9932.0,0.06156522035598755,0.35172414779663086,-0.23905181884765625,0.8809814453125,2.14453125,8.824386596679688,1.0840876250644238,3.776821403450251,-2.1498157016398536,16
547,9951.0,-0.09530454874038696,0.294635534286499,-0.48476219177246094,0.8534698486328125,2.0296783447265625,9.155792236328125,-1.7721335612948284,3.8292772562759487,-1.7616423907296888,16
548,9971.0,-0.11086475849151611,0.18519222736358643,-0.15513038635253906,0.6955413818359375,2.0057525634765625,9.311325073242188,-3.125494564197835,3.9062125070869724,-1.6978211031250896,16
549,9989.0,-0.09982597827911377,0.19095313549041748,-0.15686702728271484,0.6955413818359375,2.0057525634765625,9.311325073242188,-2.0116819558655155,3.2540114036207948,-1.4635182938369722,16
550,10006.0,-0.24850785732269287,0.1699131727218628,-0.0028705596923828125,0.7063140869140625,2.1660614013671875,9.048126220703125,-0.8051973408744632,2.414717758409628,-0.29462704003767004,16
551,10026.0,-0.22654753923416138,0.33581507205963135,-0.26728248596191406,0.669219970703125,2.1409454345703125,9.322097778320312,-2.516132407205977,1.0832133608506622,1.0246376585286328,16
552,10043.0,-0.22654753923416138,0.33581507205963135,-0.26728248596191406,0.80322265625,2.20196533203125,9.237152099609375,-2.516132407205977,1.0832133608506622,1.0246376585286328,16
553,10063.0,-0.26125335693359375,0.31645405292510986,0.005148887634277344,0.80322265625,2.20196533203125,9.237152099609375,-2.4304545142573373,0.33921451493951327,1.3848345145984253,16
554,10081.0,-0.12839311361312866,0.3864089250564575,-0.08127117156982422,0.9479827880859375,2.143341064453125,9.470458984375,-1.948734932474678,-0.3532027423596994,0.743998845911149,16
555,10098.0,0.016688227653503418,0.33024168014526367,0.1506185531616211,0.8881683349609375,2.03326416015625,9.579330444335938,-0.7160223910707767,0.9275943308010917,0.7335076753460094,16
556,10116.0,-0.03881901502609253,0.21834659576416016,0.25817108154296875,0.8893585205078125,2.1002655029296875,9.433364868164062,1.4836263707534898,2.313303109613279,0.3182321738092341,16
557,10133.0,-0.031834542751312256,0.278434157371521,0.11229610443115234,0.967132568359375,2.1768341064453125,9.080429077148438,2.7451896312115247,1.8683026248086079,-0.1390080099880995,16
558,10150.0,0.04876279830932617,0.34948086738586426,-0.23914432525634766,0.95635986328125,2.1768341064453125,9.232376098632812,0.1661102006147101,0.22643443136426272,-0.489587959706514,16
559,10168.0,0.03543668985366821,0.3490331172943115,-0.08679580688476562,0.95635986328125,2.109832763671875,9.232376098632812,-1.005403845825877,-2.1821634775490337,-0.49920486605789194,16
560,10185.0,0.0249062180519104,0.28087127208709717,-0.08540534973144531,1.092742919921875,2.1170196533203125,9.675033569335938,0.8331737957148354,-5.7771379245368655,-1.1356692136763602,16
561,10202.0,0.14419150352478027,0.28061115741729736,0.35864734649658203,1.1944427490234375,2.1696624755859375,9.82818603515625,3.457714965427255,-6.911058609785702,-1.9207584776343058,16
562,10219.0,0.22565442323684692,0.31891512870788574,0.5142059326171875,1.086761474609375,2.2127227783203125,9.618804931640625,5.537589529966178,-8.27053946218504,-3.344060617638243,16
563,10243.0,0.09651291370391846,0.34050440788269043,0.3097505569458008,1.22076416015625,2.278533935546875,8.799270629882812,8.34485192035478,-8.73127670283742,-4.495466587162312,16
564,10264.0,0.09958887100219727,0.31734323501586914,0.07893085479736328,1.22076416015625,2.278533935546875,8.799270629882812,10.104745782656945,-8.325618107652023,-5.687088710519417,16
565,10283.0,0.17418622970581055,0.3118232488632202,-0.48142528533935547,0.815185546875,2.248626708984375,8.3099365234375,10.33292874244873,-7.696147873743648,-11.135503290681909,16
566,10299.0,-0.24449777603149414,0.2570916414260864,-0.9600744247436523,0.623748779296875,2.00335693359375,8.15081787109375,4.698295884755011,-7.313220148116053,-10.587339628653366,16
567,10316.0,-0.24449777603149414,0.2570916414260864,-0.9600744247436523,0.440704345703125,1.9889984130859375,8.416412353515625,4.698295884755011,-7.313220148116053,-10.587339628653366,16
568,10333.0,-0.6222771406173706,0.00361025333404541,-0.8458433151245117,1.0939483642578125,2.25579833984375,8.90814208984375,-8.123663074273086,1.8027328087764853,-2.5100125577096457,16
569,10350.0,0.042737722396850586,0.2962977886199951,-0.3597440719604492,1.0879669189453125,2.320404052734375,9.746826171875,-12.18636887562339,6.399614044735147,-0.2885071905413386,16
570,10368.0,0.060579776763916016,0.3935173749923706,0.46711158752441406,1.0879669189453125,2.320404052734375,9.746826171875,-13.153305096043756,11.111898156910344,-0.6976628425817825,16
571,10384.0,0.09163665771484375,0.4218754768371582,0.45557689666748047,0.73980712890625,2.2007598876953125,10.013626098632812,-9.046886084005369,11.91359844092976,0.2850101336862921,16
572,10401.0,-0.22647374868392944,0.31892430782318115,0.7126560211181641,0.699127197265625,2.296478271484375,9.773147583007812,-3.9883933431805656,9.85558048173488,1.6602277419333393,16
573,10418.0,-0.24564135074615479,0.41960275173187256,0.4667634963989258,0.73382568359375,2.3311767578125,9.640350341796875,-0.5639004178762527,5.910026085028633,1.965345952536149,16
574,10436.0,-0.1999601125717163,0.44988977909088135,0.332061767578125,0.621368408203125,2.2366485595703125,9.505157470703125,2.690985249958304,2.07288045082883,0.7107768057882069,16
575,10452.0,-0.30826258659362793,0.3419051170349121,0.19818973541259766,0.6285400390625,2.2103271484375,9.107940673828125,6.056028208726826,-0.12064846149910523,-1.4512785948443094,16
576,10469.0,-0.29932618141174316,0.29599177837371826,-0.19450950622558594,0.6285400390625,2.2103271484375,9.107940673828125,7.099025415744453,-0.13725948156057624,-1.6611020061471011,16
577,10486.0,-0.29784440994262695,0.2780897617340088,-0.190277099609375,0.7792816162109375,2.26776123046875,8.640151977539062,4.793590684055029,-0.5035761871267002,-2.291446504269238,16
578,10503.0,-0.29784440994262695,0.2780897617340088,-0.190277099609375,0.8666229248046875,2.254608154296875,8.658096313476562,0.49133648813403724,-1.8062298656315319,-3.3309466544318185,16
579,10520.0,-0.06245911121368408,0.31370067596435547,-0.6331367492675781,0.8319244384765625,2.156494140625,8.951217651367188,-2.5939419222307625,-1.0587339628653365,-3.2636283099721726,16
580,10542.0,-0.09436142444610596,0.22285878658294678,-0.3405418395996094,0.828338623046875,2.145721435546875,9.060089111328125,-4.003255834814514,1.6331255513067289,-2.4322030426848604,16
581,10559.0,-0.09132486581802368,0.22104918956756592,-0.23336410522460938,0.762542724609375,2.145721435546875,9.167755126953125,-3.6587957345924305,2.119216454158196,-1.5631844142057982,16
582,10575.0,-0.15045857429504395,0.23041880130767822,-0.12789154052734375,0.762542724609375,2.108642578125,9.167755126953125,-4.116035918389764,1.925129798703114,-0.3016211537477631,16
583,10593.0,-0.14367300271987915,0.2051922082901001,-0.13055992126464844,0.7015228271484375,2.139739990234375,9.257492065429688,-5.0995831588716,2.864089564283107,1.5081057687388155,16
584,10610.0,-0.19646930694580078,0.24885988235473633,-0.04413127899169922,0.786468505859375,2.1780242919921875,9.302963256835938,-4.521694513575161,3.3475576744932893,2.2993148821930927,16
585,10627.0,-0.10329729318618774,0.2976114749908447,-0.0017747879028320312,0.7733001708984375,2.2581939697265625,9.069656372070312,-3.6124597312630637,3.3423120892107194,2.478539046014227,16
586,10644.0,-0.10977959632873535,0.3871191740036011,-0.2368907928466797,0.711090087890625,2.30963134765625,9.177337646484375,-4.009375684310845,2.1061024909517716,1.882290852228794,16
587,10662.0,-0.16950970888137817,0.4485135078430176,-0.13119888305664062,0.711090087890625,2.30963134765625,9.177337646484375,-4.346841670822835,-0.1223969899266285,1.5264653172278098,16
588,10678.0,-0.17139840126037598,0.45704185962677,-0.13248062133789062,0.867828369140625,2.296478271484375,9.34124755859375,-3.0975181093574626,-1.3393727754828204,0.7195194479258232,16
589,10695.0,-0.017772912979125977,0.45657920837402344,0.027787208557128906,0.8379058837890625,2.2892913818359375,9.37713623046875,-3.773324346595204,0.5962481937854331,-0.06207275917707588,16
590,10712.0,-0.017772912979125977,0.45657920837402344,0.027787208557128906,0.7840728759765625,2.1935882568359375,9.652313232421875,-3.773324346595204,0.5962481937854331,-0.06207275917707588,16
591,10730.0,-0.04493153095245361,0.45819103717803955,0.061065673828125,0.828338623046875,2.19000244140625,9.519500732421875,-4.0924307846182,1.2676831099543666,-0.058575702322029355,16
592,10747.0,-0.09566348791122437,0.3687092065811157,0.3330698013305664,0.828338623046875,2.19000244140625,9.519500732421875,-1.6689703840709558,0.5621518894487294,-0.7002856352230673,16
593,10766.0,-0.05060291290283203,0.3656754493713379,0.1989612579345703,0.957550048828125,2.266571044921875,9.420211791992188,-0.03322204012294202,-0.5018276586991769,-1.1732625748681103,16
594,10782.0,0.07934516668319702,0.43601489067077637,0.09891223907470703,1.003021240234375,2.30963134765625,9.12469482421875,0.8235568893634575,1.0132722237497316,-1.2694316383818898,16
595,10800.0,0.07934516668319702,0.43601489067077637,0.09891223907470703,0.98626708984375,2.3000640869140625,8.7490234375,0.8235568893634575,1.0132722237497316,-1.2694316383818898,16
596,10817.0,0.12943249940872192,0.4770481586456299,-0.19626235961914062,0.91448974609375,2.245025634765625,8.786102294921875,-1.167142725371779,2.0003165210866145,-2.6201698486436116,16
597,10837.0,0.049732983112335205,0.4256627559661865,-0.5344390869140625,0.5136871337890625,2.12060546875,9.262283325195312,-5.134553727422065,-1.3734690798195242,-5.642501235617574,16
598,10858.0,-0.35583412647247314,0.3108494281768799,-0.059548377990722656,0.5136871337890625,2.12060546875,9.262283325195312,-3.897469864949356,-5.406449897901933,-5.627638743983626,16
599,10876.0,-0.3679196238517761,0.3158458471298218,-0.05924510955810547,0.621368408203125,1.899261474609375,9.544631958007812,-1.582418226908554,-6.349780984550734,-3.5302788951694706,16
600,10893.0,-0.2722405791282654,0.09569859504699707,0.22311115264892578,0.80322265625,2.0667724609375,9.41302490234375,-0.2596564714872047,-4.652834145639406,-3.58360901220893,16
601,10911.0,-0.09772485494613647,0.25937891006469727,0.09239387512207031,0.6249542236328125,2.1110382080078125,9.171356201171875,1.4748837286158734,-2.6297867549949894,-4.723649546954098,16
602,10929.0,-0.28084850311279297,0.2983812093734741,-0.1472930908203125,0.7828826904296875,2.248626708984375,9.134262084960938,0.7116510700019686,-3.303844463805208,-3.091398259861131,16
603,10945.0,-0.13272011280059814,0.43398356437683105,-0.18257904052734375,0.8702239990234375,2.1624755859375,9.16058349609375,-1.1085670230497495,-5.327766118663386,-2.277458276849052,16
604,10962.0,-0.05598539113998413,0.3502542972564697,-0.1552906036376953,0.8702239990234375,2.1624755859375,9.16058349609375,-2.2556016715050107,-3.6395619218896744,-2.9768696478583574,16
605,10979.0,-0.06146126985549927,0.35494208335876465,-0.15526771545410156,0.69195556640625,2.131378173828125,9.255096435546875,-2.842232958939066,-1.6864556683461884,-2.8055138619610775,16
606,10997.0,-0.24097543954849243,0.32982683181762695,-0.06169700622558594,0.66802978515625,2.2187042236328125,9.280227661132812,-3.0817813535097534,-0.9922898826194525,-2.488155952365605,16
607,11013.0,-0.1971116065979004,0.4151015281677246,-0.20474910736083984,0.72784423828125,2.173248291015625,9.491989135742188,-4.185977055490695,-1.7214262368966537,-2.3893640962105405,16
608,11030.0,-0.21502673625946045,0.3962365388870239,0.17107391357421875,0.909698486328125,2.2474212646484375,9.549423217773438,-3.013588744836346,-2.250356086222441,-0.3759336119175018,16
609,11047.0,-0.21502673625946045,0.3962365388870239,0.17107391357421875,0.909698486328125,2.2474212646484375,9.549423217773438,-3.013588744836346,-2.250356086222441,-0.3759336119175018,16
610,11064.0,-0.037456631660461426,0.474961519241333,0.22676563262939453,0.9168701171875,2.1935882568359375,9.527877807617188,-1.8586857184572299,-1.1584000832341625,-0.4441262205909091,16
611,11080.0,-0.038914263248443604,0.4754709005355835,0.2255115509033203,0.9192657470703125,2.251007080078125,9.385513305664062,-0.11365434778901218,-0.29462704003767004,-0.9573193140689872,16
612,11098.0,-0.03087383508682251,0.41851603984832764,0.20330047607421875,1.0173797607421875,2.25579833984375,9.141448974609375,0.9284685950148533,0.48346811021018254,-0.8987436117469578,16
613,11114.0,0.07774233818054199,0.4701489210128784,-0.18219852447509766,1.026947021484375,2.27972412109375,9.063674926757812,0.47734826071385117,1.6270057018103974,-2.521377992488547,16
614,11131.0,0.07774233818054199,0.4701489210128784,-0.18219852447509766,0.8762054443359375,2.28570556640625,9.025390625,0.47734826071385117,1.6270057018103974,-2.521377992488547,16
615,11149.0,0.09239524602890015,0.49059033393859863,-0.25916481018066406,0.8762054443359375,2.28570556640625,9.025390625,-0.09004921401744811,1.1225552504699357,-4.042597724433787,16
616,11168.0,-0.060547053813934326,0.49128198623657227,-0.29448413848876953,0.646484375,2.103851318359375,9.189300537109375,-1.0517398491552434,-3.565249463719936,-6.215144295631442,16
617,11185.0,-0.060547053813934326,0.49128198623657227,-0.29448413848876953,0.62255859375,2.01531982421875,9.391494750976562,-1.0517398491552434,-3.565249463719936,-6.215144295631442,16
618,11202.0,-0.32373708486557007,0.22481131553649902,0.07190799713134766,0.6608428955078125,2.132568359375,9.564971923828125,-1.8280864709755729,-3.338815032355673,-4.2296902661787765,16
619,11219.0,-0.32373708486557007,0.22481131553649902,0.07190799713134766,0.54718017578125,2.0021514892578125,9.56976318359375,-1.8280864709755729,-3.338815032355673,-4.2296902661787765,16
620,11236.0,-0.2917114496231079,0.3430147171020508,0.24466323852539062,0.55316162109375,2.05718994140625,9.472854614257812,-0.7632326586139049,-3.7322339285484074,-4.055711687640211,16
621,11256.0,-0.40098971128463745,0.26277685165405273,0.1519327163696289,0.55316162109375,2.05718994140625,9.472854614257812,0.7667297154689514,1.223969899266285,0.3593225918560308,16
622,11276.0,-0.39434313774108887,0.2601433992385864,0.15108871459960938,0.6955413818359375,2.197174072265625,9.361587524414062,0.5193129429744094,2.725955818508769,1.147908912669023,16
623,11293.0,-0.2457675337791443,0.39676809310913086,0.039460182189941406,0.67401123046875,2.1947784423828125,9.201263427734375,0.8996178759607194,1.3892058356672334,0.5665232105175376,16
624,11310.0,-0.26609891653060913,0.3902294635772705,-0.11988639831542969,0.54718017578125,2.03924560546875,9.252700805664062,1.008026638467162,-1.1942449159983894,0.11889993307158198,16
625,11329.0,-0.3957158327102661,0.23158931732177734,-0.0673055648803711,0.6082000732421875,2.04522705078125,9.313720703125,0.7125253342157302,-1.7625166549434503,1.4128109694387976,16
626,11356.0,-0.33639347553253174,0.23557424545288086,-0.0057506561279296875,0.8331298828125,2.1983642578125,9.180923461914062,0.4983306018441303,0.3890475751239263,3.233903326704277,16
627,11364.0,-0.11005353927612305,0.38670217990875244,-0.13799095153808594,0.8331298828125,2.1983642578125,9.180923461914062,0.46860561857623484,1.6086461533214031,3.472577457061203,16
628,11381.0,-0.10792458057403564,0.38512396812438965,-0.13759136199951172,0.810394287109375,2.233062744140625,8.827987670898438,0.1005403845825877,0.7588613375450967,2.385867039355494,16
629,11399.0,-0.1313433051109314,0.4201955795288086,-0.4887723922729492,0.981475830078125,2.2881011962890625,9.014617919921875,-1.1592743474479241,-0.6941657857267359,2.5886963369481926,16
630,11416.0,-0.17240965366363525,0.36482298374176025,-0.4671621322631836,0.8666229248046875,2.1876068115234375,9.390289306640625,-2.669128644614263,-1.696946838911328,2.7985197482509845,16
631,11433.0,0.028974056243896484,0.48596370220184326,-0.30054664611816406,0.78765869140625,2.1026611328125,9.499160766601562,-3.0310740291115787,-2.431328778471099,1.117309665187366,16
632,11455.0,-0.17579805850982666,0.31088948249816895,0.18160152435302734,0.78765869140625,2.1026611328125,9.499160766601562,-1.3725948156057624,-0.9608163709240337,1.4390388958516465,16
633,11472.0,-0.17786258459091187,0.3114659786224365,0.18077373504638672,1.0532684326171875,2.2940826416015625,9.523101806640625,0.2570336788459198,-0.6102364212056193,1.0928302672020402,16
634,11490.0,-0.17786258459091187,0.3114659786224365,0.18077373504638672,1.0293426513671875,2.3180084228515625,9.35919189453125,0.2570336788459198,-0.6102364212056193,1.0928302672020402,16
635,11507.0,0.05504798889160156,0.513288140296936,0.04241371154785156,0.864227294921875,2.2713470458984375,8.975143432617188,2.11047381202058,-3.976153644187903,-3.84064269105485,16
636,11524.0,0.05504798889160156,0.513288140296936,0.04241371154785156,0.5316314697265625,2.1995697021484375,8.720306396484375,2.11047381202058,-3.976153644187903,-3.84064269105485,16
637,11541.0,-0.4597465991973877,0.39187443256378174,-0.59063720703125,0.1081085205078125,1.9459228515625,9.012222290039062,-3.3326951828593416,-2.989983611064782,-0.8707671569065856,16
638,11561.0,-0.8832034468650818,0.15152239799499512,-0.299774169921875,0.1081085205078125,1.9459228515625,9.012222290039062,-6.462561068125985,1.088458946133232,4.781350985062366,16
639,11578.0,-0.8743517994880676,0.17653346061706543,-0.30397891998291016,0.66204833984375,2.0356597900390625,9.340042114257812,-10.476308073505638,6.20815018192135,13.358757186277739,16
