,ms,accelX,accelY,accelZ,accelWithGX,accelWithGY,accelWithGZ,rotRateAlpha,rotRateBeta,rotRateGamma,interval
0,149.0,0.30000000000000004,0.0,-0.2,-1.2000000000000002,2.3000000000000003,9.1,-2.4000000000000004,-4.2,11.3,16
1,155.0,0.30000000000000004,0.0,-0.2,-1.2000000000000002,2.3000000000000003,9.1,-2.4000000000000004,-4.2,11.3,16
2,173.0,0.4,0.0,0.0,-1.1,2.3000000000000003,9.4,-4.800000000000001,-3.1,10.200000000000001,16
3,189.0,0.30000000000000004,0.0,0.2,-1.0,2.3000000000000003,9.5,-5.8,1.1,9.5,16
4,205.0,0.30000000000000004,-0.1,0.2,-1.0,2.2,9.600000000000001,-5.6,3.1,9.4,16
5,222.0,0.30000000000000004,-0.1,0.30000000000000004,-1.1,2.2,9.700000000000001,-2.7,4.1,8.4,16
6,239.0,0.2,0.0,0.2,-1.1,2.2,9.700000000000001,-0.30000000000000004,4.5,6.600000000000001,16
7,255.0,0.2,0.0,0.2,-1.2000000000000002,2.3000000000000003,9.600000000000001,0.9000000000000001,5.0,5.2,16
8,272.0,0.2,0.1,0.1,-1.1,2.4000000000000004,9.5,2.4000000000000004,3.6000000000000005,2.8,16
9,289.0,0.2,0.1,0.0,-1.1,2.3000000000000003,9.5,1.3,4.5,0.9000000000000001,16
10,305.0,0.2,0.0,0.0,-1.1,2.3000000000000003,9.4,0.5,4.9,0.4,16
11,322.0,0.2,0.0,0.0,-1.2000000000000002,2.3000000000000003,9.4,0.1,4.9,0.0,16
12,339.0,0.30000000000000004,0.1,0.0,-1.1,2.4000000000000004,9.4,0.2,3.3000000000000007,0.8,16
13,355.0,0.4,0.1,0.0,-0.9,2.4000000000000004,9.5,-0.5,3.2,0.6000000000000001,16
14,372.0,0.30000000000000004,0.1,0.30000000000000004,-1.0,2.4000000000000004,9.700000000000001,-1.6,4.6,-0.30000000000000004,16
15,389.0,0.30000000000000004,0.0,0.5,-1.0,2.3000000000000003,9.9,-1.3,5.0,-0.8,16
16,405.0,0.1,0.0,0.5,-1.2000000000000002,2.3000000000000003,9.9,-0.9000000000000001,5.500000000000001,-1.1,16
17,422.0,0.1,0.0,0.4,-1.3,2.3000000000000003,9.9,0.4,5.2,-1.1,16
18,439.0,-0.1,0.0,0.2,-1.5,2.3000000000000003,9.700000000000001,2.0,4.1,-2.2,16
19,455.0,-0.1,0.0,0.2,-1.5,2.3000000000000003,9.700000000000001,2.8,3.1,-2.4000000000000004,16
20,472.0,-0.1,0.0,0.0,-1.5,2.3000000000000003,9.5,2.6,1.7,-2.0,16
21,489.0,0.0,0.0,-0.1,-1.4000000000000001,2.3000000000000003,9.4,1.7,-0.2,-1.1,16
22,505.0,0.1,0.0,-0.2,-1.3,2.3000000000000003,9.3,1.2000000000000002,-1.9,-1.0,16
23,522.0,0.2,0.0,-0.30000000000000004,-1.2000000000000002,2.3000000000000003,9.200000000000001,-0.2,-3.9,-1.0,16
24,539.0,0.30000000000000004,0.0,-0.2,-1.1,2.3000000000000003,9.3,-2.2,-4.4,-1.3,16
25,556.0,0.2,0.0,-0.1,-1.1,2.3000000000000003,9.4,-2.6,-4.2,-1.6,16
26,572.0,0.2,-0.1,0.0,-1.1,2.2,9.5,-1.3,-3.3000000000000007,-1.8000000000000003,16
27,589.0,0.2,-0.1,0.0,-1.1,2.2,9.5,1.2000000000000002,-2.0,-2.3,16
28,605.0,0.1,-0.1,0.1,-1.2000000000000002,2.2,9.5,2.0,-0.7,-2.7,16
29,622.0,-0.2,0.0,0.0,-1.5,2.3000000000000003,9.5,4.1,1.7,-3.9,16
30,639.0,-0.4,0.1,-0.1,-1.8,2.4000000000000004,9.4,6.300000000000001,1.9,-4.300000000000001,16
31,655.0,-0.5,0.1,-0.2,-1.9000000000000001,2.4000000000000004,9.3,5.8,2.4000000000000004,-3.7000000000000006,16
32,672.0,-0.7000000000000001,0.2,-0.30000000000000004,-2.1,2.5,9.200000000000001,2.5,2.5,-1.0,16
33,689.0,-0.6000000000000001,0.2,-0.2,-2.0,2.5,9.3,-3.3000000000000007,-0.4,2.4000000000000004,16
34,705.0,-0.5,0.2,0.0,-1.9000000000000001,2.5,9.5,-6.4,-0.30000000000000004,3.2,16
35,722.0,-0.8,0.30000000000000004,0.4,-2.2,2.6,9.9,-10.4,1.9,2.8,16
36,739.0,-0.9,0.1,0.6000000000000001,-2.3000000000000003,2.4000000000000004,10.100000000000001,-9.700000000000001,2.4000000000000004,4.6,16
37,755.0,-0.9,0.0,0.7000000000000001,-2.3000000000000003,2.3000000000000003,10.200000000000001,-8.100000000000001,3.1,5.500000000000001,16
38,772.0,-0.9,-0.1,0.8,-2.4000000000000004,2.2,10.4,-3.4,5.9,6.9,16
39,789.0,-0.7000000000000001,0.1,0.8,-2.3000000000000003,2.3000000000000003,10.4,3.6000000000000005,9.600000000000001,8.0,16
40,805.0,-0.8,0.1,0.9,-2.4000000000000004,2.4000000000000004,10.5,7.400000000000001,11.6,8.4,16
41,822.0,-0.9,-0.1,0.9,-2.5,2.3000000000000003,10.4,13.000000000000002,16.900000000000002,10.5,16
42,839.0,-1.2000000000000002,-0.2,0.4,-2.9000000000000004,2.2,10.0,18.700000000000003,17.5,15.2,16
43,855.0,-1.1,-0.2,0.2,-2.8000000000000003,2.2,9.5,19.799999999999997,12.8,21.900000000000002,16
44,872.0,-1.2000000000000002,-0.30000000000000004,-0.2,-2.9000000000000004,2.2,9.3,18.1,11.900000000000002,24.5,16
45,889.0,-1.2000000000000002,-0.30000000000000004,-0.5,-3.0,2.3000000000000003,8.9,14.400000000000002,7.500000000000001,30.5,16
46,905.0,-1.2000000000000002,-0.4,-1.0,-3.0,2.2,8.4,12.7,0.0,37.1,16
47,922.0,-1.1,-0.5,-1.2000000000000002,-2.9000000000000004,2.2,8.200000000000001,10.299999999999999,-2.8,40.9,16
48,939.0,-0.8,-0.6000000000000001,-1.5,-2.6,2.0,7.9,2.4000000000000004,-3.3000000000000007,47.7,16
49,956.0,-0.5,-0.6000000000000001,-1.8,-2.2,2.1,7.6000000000000005,-4.9,-3.9,53.400000000000006,16
50,972.0,-0.4,-0.6000000000000001,-1.4000000000000001,-2.1,2.1,7.9,-10.5,-0.9000000000000001,55.7,16
51,989.0,-0.1,-0.7000000000000001,-0.7000000000000001,-1.7000000000000002,1.9000000000000001,8.6,-21.1,10.700000000000001,60.900000000000006,16
52,1005.0,0.0,-0.6000000000000001,0.1,-1.7000000000000002,1.9000000000000001,9.5,-22.4,19.6,62.6,16
53,1022.0,-0.1,-0.5,0.4,-1.8,2.0,9.8,-22.4,26.5,63.10000000000001,16
54,1039.0,-0.30000000000000004,-0.2,0.8,-2.0,2.3000000000000003,10.200000000000001,-19.400000000000002,36.2,62.4,16
55,1055.0,-0.7000000000000001,-0.1,0.9,-2.6,2.4000000000000004,10.3,-10.0,33.800000000000004,59.00000000000001,16
56,1072.0,-1.0,-0.2,0.6000000000000001,-2.8000000000000003,2.3000000000000003,10.0,-3.6000000000000005,31.2,58.5,16
57,1089.0,-0.9,-0.30000000000000004,-0.9,-2.8000000000000003,2.3000000000000003,8.4,6.699999999999999,18.200000000000003,62.50000000000001,16
58,1105.0,0.2,-0.30000000000000004,-1.9000000000000001,-1.7000000000000002,2.3000000000000003,7.4,2.6,-2.5,68.7,16
59,1122.0,0.6000000000000001,-0.2,-1.8,-1.2000000000000002,2.5,7.5,-6.300000000000001,-5.0,70.5,16
60,1139.0,0.9,-0.30000000000000004,-0.5,-0.8,2.3000000000000003,8.8,-26.700000000000003,8.100000000000001,73.4,16
61,1155.0,0.9,-0.5,1.0,-0.8,2.0,10.4,-29.0,15.000000000000002,76.4,16
62,1172.0,0.8,-0.6000000000000001,1.3,-0.9,2.0,10.700000000000001,-21.8,15.8,78.80000000000001,16
63,1189.0,0.7000000000000001,-0.6000000000000001,0.8,-1.0,2.0,10.100000000000001,-4.4,20.8,85.0,16
64,1205.0,0.5,-0.6000000000000001,0.0,-1.2000000000000002,2.0,9.4,3.9,22.700000000000003,91.8,16
65,1222.0,0.5,-0.6000000000000001,-0.2,-1.2000000000000002,2.0,9.1,4.7,21.500000000000004,94.10000000000001,16
66,1239.0,0.30000000000000004,-0.5,0.1,-1.3,2.2,9.5,-2.7,23.0,97.00000000000001,16
67,1255.0,0.0,-0.5,1.0,-1.6,2.1,10.3,-14.900000000000002,27.700000000000003,100.2,16
68,1272.0,-0.1,-0.6000000000000001,1.3,-1.7000000000000002,2.1,10.600000000000001,-17.799999999999997,29.0,101.30000000000001,16
69,1289.0,-0.4,-0.6000000000000001,1.5,-2.0,2.1,10.8,-19.300000000000004,29.300000000000004,103.10000000000001,16
70,1305.0,-0.7000000000000001,-0.6000000000000001,1.0,-2.3000000000000003,2.0,10.4,-20.5,28.700000000000003,105.9,16
71,1322.0,-0.8,-0.7000000000000001,0.8,-2.4000000000000004,1.9000000000000001,10.200000000000001,-20.8,26.300000000000004,107.8,16
72,1339.0,-0.7000000000000001,-0.8,0.30000000000000004,-2.3000000000000003,1.8,9.8,-17.400000000000002,17.300000000000004,112.80000000000001,16
73,1355.0,-0.2,-0.8,-0.1,-1.7000000000000002,1.8,9.3,-14.400000000000002,8.100000000000001,117.60000000000001,16
74,1372.0,0.1,-0.9,-0.2,-1.3,1.8,9.200000000000001,-15.000000000000002,5.500000000000001,119.0,16
75,1389.0,0.4,-1.0,-0.1,-1.0,1.6,9.4,-15.2,6.2,120.7,16
76,1405.0,0.7000000000000001,-1.3,0.5,-0.6000000000000001,1.3,9.9,-12.7,10.8,121.9,16
77,1422.0,0.7000000000000001,-1.4000000000000001,0.6000000000000001,-0.5,1.2000000000000002,10.100000000000001,-9.3,15.2,121.5,16
78,1439.0,0.6000000000000001,-1.6,0.7000000000000001,-0.6000000000000001,1.0,10.100000000000001,-0.6000000000000001,24.7,121.80000000000001,16
79,1455.0,0.8,-1.7000000000000002,0.30000000000000004,-0.4,1.0,9.8,5.6,30.699999999999996,123.19999999999999,16
80,1472.0,0.8,-1.6,0.4,-0.4,1.1,9.9,4.7,35.699999999999996,123.6,16
81,1489.0,0.7000000000000001,-1.5,0.8,-0.5,1.2000000000000002,10.200000000000001,-3.9,52.80000000000001,124.0,16
82,1505.0,0.1,-1.7000000000000002,1.2000000000000002,-1.2000000000000002,1.1,10.600000000000001,-15.6,66.60000000000001,124.50000000000001,16
83,1522.0,0.0,-1.7000000000000002,1.2000000000000002,-1.4000000000000001,1.0,10.600000000000001,-26.000000000000004,72.10000000000001,127.3,16
84,1539.0,-0.1,-1.8,1.2000000000000002,-1.5,0.9,10.600000000000001,-29.300000000000004,73.30000000000001,127.6,16
85,1555.0,-0.2,-1.6,0.6000000000000001,-1.8,1.0,10.100000000000001,-35.599999999999994,69.7,126.70000000000002,16
86,1572.0,-0.30000000000000004,-1.6,0.5,-2.0,0.9,10.0,-42.60000000000001,62.50000000000001,124.0,16
87,1589.0,-0.4,-1.6,0.4,-2.1,0.8,9.8,-44.10000000000001,57.3,123.00000000000001,16
88,1605.0,0.0,-1.6,0.2,-1.8,0.8,9.600000000000001,-40.7,40.6,122.50000000000001,16
89,1622.0,0.4,-1.4000000000000001,-0.6000000000000001,-1.3,0.9,8.8,-37.0,21.200000000000003,118.90000000000002,16
90,1639.0,0.8,-1.2000000000000002,-0.8,-0.9,1.1,8.700000000000001,-36.6,13.5,116.2,16
91,1655.0,1.4000000000000001,-1.0,-0.5,-0.30000000000000004,1.2000000000000002,9.0,-37.2,4.7,108.2,16
92,1672.0,1.8,-0.7000000000000001,0.1,0.2,1.4000000000000001,9.600000000000001,-36.0,2.8,98.50000000000001,16
93,1689.0,2.0,-0.6000000000000001,0.30000000000000004,0.5,1.5,9.8,-33.9,4.4,93.89999999999999,16
94,1705.0,2.3000000000000003,-0.30000000000000004,0.9,0.8,1.7000000000000002,10.5,-29.0,11.8,84.4,16
95,1722.0,2.2,-0.4,1.6,0.7000000000000001,1.6,11.200000000000001,-22.5,29.700000000000006,73.30000000000001,16
96,1739.0,1.8,-0.4,1.9000000000000001,0.30000000000000004,1.5,11.5,-16.0,39.1,67.3,16
97,1755.0,0.7000000000000001,-0.6000000000000001,1.6,-0.9,1.3,11.100000000000001,0.9000000000000001,47.60000000000001,60.00000000000001,16
98,1772.0,0.6000000000000001,-0.6000000000000001,0.30000000000000004,-1.1,1.4000000000000001,9.9,15.2,40.7,56.50000000000001,16
99,1789.0,0.5,-0.5,-0.30000000000000004,-1.2000000000000002,1.6,9.200000000000001,17.200000000000003,35.1,53.599999999999994,16
100,1805.0,0.5,-0.2,-1.1,-1.3,1.9000000000000001,8.4,11.8,22.4,47.7,16
101,1822.0,0.6000000000000001,-0.1,-1.1,-1.1,2.1,8.4,-0.2,7.500000000000001,42.1,16
102,1839.0,0.8,0.0,-0.9,-1.0,2.1,8.5,-6.2,2.5,39.1,16
103,1855.0,0.8,-0.1,-0.5,-1.0,2.1,8.9,-14.600000000000001,-4.0,33.2,16
104,1872.0,0.9,-0.30000000000000004,-0.2,-0.8,1.8,9.3,-14.300000000000002,-12.7,29.700000000000006,16
105,1889.0,1.1,-0.1,-0.4,-0.5,2.0,9.1,-9.8,-18.8,27.3,16
106,1905.0,1.7000000000000002,0.4,-0.9,0.2,2.5,8.6,-2.8,-27.400000000000002,20.5,16
107,1922.0,1.9000000000000001,0.5,-0.5,0.5,2.6,9.0,-17.1,-17.9,13.900000000000002,16
108,1939.0,1.9000000000000001,0.2,0.4,0.5,2.3000000000000003,9.9,-27.700000000000003,-7.699999999999999,10.200000000000001,16
109,1955.0,0.8,-0.6000000000000001,2.4000000000000004,-0.6000000000000001,1.4000000000000001,12.0,-34.60000000000001,16.900000000000002,4.4,16
110,1972.0,-0.1,-0.9,2.7,-1.5,1.0,12.3,-15.700000000000001,26.200000000000003,5.500000000000001,16
111,1989.0,-0.1,-0.8,1.9000000000000001,-1.6,1.1,11.5,0.8,21.500000000000004,5.9,16
112,2005.0,0.0,-0.4,-0.1,-1.6,1.5,9.4,27.6,4.2,2.5,16
113,2022.0,0.0,0.0,-1.6,-1.5,2.1,7.9,35.2,-9.5,-3.7000000000000006,16
114,2039.0,0.0,0.2,-1.9000000000000001,-1.4000000000000001,2.3000000000000003,7.6000000000000005,30.4,-16.4,-5.9,16
115,2055.0,0.5,0.1,-1.5,-0.9,2.2,8.0,12.8,-27.700000000000003,-6.9,16
116,2072.0,0.8,-0.2,-0.5,-0.5,2.0,9.0,2.8,-28.700000000000003,-7.699999999999999,16
117,2089.0,0.7000000000000001,-0.1,0.0,-0.5,2.0,9.5,1.4,-28.400000000000002,-8.2,16
118,2106.0,0.6000000000000001,0.2,0.5,-0.5,2.4000000000000004,10.100000000000001,-0.9000000000000001,-25.1,-9.4,16
119,2122.0,0.2,0.2,1.0,-0.9,2.4000000000000004,10.5,-3.7000000000000006,-7.0,-9.700000000000001,16
120,2139.0,-0.2,0.1,1.2000000000000002,-1.4000000000000001,2.2,10.8,-6.0,3.0,-10.200000000000001,16
121,2155.0,-1.1,-0.2,1.6,-2.3000000000000003,1.9000000000000001,11.200000000000001,-5.7,14.100000000000001,-9.3,16
122,2172.0,-1.8,-0.7000000000000001,1.2000000000000002,-3.1,1.4000000000000001,10.8,2.2,13.6,-5.2,16
123,2189.0,-1.8,-0.6000000000000001,0.5,-3.1,1.5,10.100000000000001,9.2,5.500000000000001,-3.1,16
124,2205.0,-1.1,-0.30000000000000004,-0.7000000000000001,-2.4000000000000004,1.9000000000000001,8.9,20.2,-11.700000000000001,-3.2,16
125,2224.0,-0.9,0.2,-1.7000000000000002,-2.1,2.5,7.800000000000001,18.3,-17.0,-9.700000000000001,16
126,2240.0,-0.2,0.4,-2.2,-1.4000000000000001,2.7,7.300000000000001,4.9,-30.1,-15.6,16
127,2264.0,0.5,0.30000000000000004,-1.8,-0.5,2.6,7.800000000000001,-7.9,-27.700000000000003,-21.900000000000002,16
128,2272.0,0.6000000000000001,0.30000000000000004,-1.5,-0.5,2.6,8.0,-13.000000000000002,-23.0,-25.200000000000003,16
129,2289.0,0.30000000000000004,0.2,-0.9,-0.7000000000000001,2.4000000000000004,8.6,-17.200000000000003,-18.6,-26.799999999999997,16
130,2305.0,0.0,-0.30000000000000004,0.1,-1.0,1.9000000000000001,9.600000000000001,-17.400000000000002,-11.6,-22.9,16
131,2322.0,0.2,-0.2,0.0,-0.8,1.9000000000000001,9.600000000000001,-9.2,-6.4,-19.1,16
132,2339.0,0.2,-0.1,-0.1,-0.7000000000000001,2.0,9.5,-6.9,2.3,-16.5,16
133,2355.0,0.2,-0.1,-0.2,-0.8,1.9000000000000001,9.4,-7.500000000000001,5.7,-16.5,16
134,2372.0,-0.1,-0.4,-0.2,-1.2000000000000002,1.6,9.4,-4.5,4.4,-16.900000000000002,16
135,2389.0,0.0,-0.4,-0.5,-0.5,1.7000000000000002,8.8,1.6,-3.7000000000000006,-16.6,16
136,2405.0,0.9,0.0,-1.0,0.0,2.0,8.6,14.5,-21.400000000000002,-18.4,16
137,2422.0,1.5,0.6000000000000001,-0.8,0.6000000000000001,2.6,8.700000000000001,9.3,-19.700000000000003,-23.3,16
138,2439.0,1.8,0.5,0.5,1.0,2.6,10.0,-4.9,-14.800000000000002,-27.2,16
139,2455.0,1.9000000000000001,0.4,1.3,1.1,2.5,10.9,-8.100000000000001,-9.600000000000001,-26.700000000000003,16
140,2472.0,1.9000000000000001,0.30000000000000004,2.2,1.1,2.3000000000000003,11.8,-4.7,1.7,-24.599999999999998,16
141,2489.0,1.8,0.30000000000000004,2.3000000000000003,0.9,2.3000000000000003,11.9,1.1,17.400000000000002,-20.2,16
142,2506.0,1.1,0.4,1.8,0.2,2.4000000000000004,11.4,0.2,25.5,-17.7,16
143,2522.0,0.4,0.30000000000000004,1.3,-0.7000000000000001,2.3000000000000003,11.0,-5.300000000000001,31.0,-11.6,16
144,2539.0,0.2,0.30000000000000004,0.9,-0.9,2.3000000000000003,10.5,-7.1000000000000005,20.7,-6.9,16
145,2555.0,0.30000000000000004,0.30000000000000004,0.6000000000000001,-0.9,2.3000000000000003,10.200000000000001,-5.2,13.6,-6.300000000000001,16
146,2572.0,0.4,0.6000000000000001,-0.4,-0.7000000000000001,2.5,9.200000000000001,-1.1,-0.9000000000000001,-8.700000000000001,16
147,2589.0,0.8,0.7000000000000001,-0.6000000000000001,-0.6000000000000001,2.6,8.9,-3.6000000000000005,-12.8,-12.0,16
148,2605.0,0.9,0.8,-0.8,-0.2,2.7,8.8,-6.4,-17.200000000000003,-14.600000000000001,16
149,2622.0,1.2000000000000002,0.7000000000000001,-0.8,0.2,2.6,8.8,-12.8,-27.400000000000002,-18.4,16
150,2639.0,1.5,0.5,-0.4,0.6000000000000001,2.4000000000000004,9.200000000000001,-10.4,-27.9,-20.1,16
151,2655.0,1.4000000000000001,0.4,-0.2,0.5,2.2,9.5,-6.300000000000001,-28.1,-20.400000000000002,16
152,2672.0,1.7000000000000002,0.5,-0.4,0.9,2.3000000000000003,9.200000000000001,3.9,-27.2,-19.9,16
153,2689.0,1.6,0.8,-0.5,0.9,2.6,9.200000000000001,8.899999999999999,-22.9,-21.900000000000002,16
154,2705.0,1.5,0.8,-0.30000000000000004,0.8,2.6,9.3,8.700000000000001,-17.799999999999997,-22.8,16
155,2722.0,1.1,0.6000000000000001,0.1,0.5,2.5,9.8,9.2,-8.600000000000001,-22.6,16
156,2739.0,1.3,0.6000000000000001,0.4,0.7000000000000001,2.5,10.0,15.8,-3.4,-20.5,16
157,2755.0,1.2000000000000002,0.6000000000000001,0.5,0.6000000000000001,2.6,10.200000000000001,18.5,1.1,-21.300000000000004,16
158,2772.0,0.30000000000000004,0.4,1.1,-0.4,2.4000000000000004,10.8,16.6,12.600000000000001,-21.300000000000004,16
159,2789.0,-0.30000000000000004,0.2,1.3,-1.1,2.3000000000000003,11.0,19.400000000000002,18.1,-18.4,16
160,2805.0,-0.7000000000000001,0.0,1.4000000000000001,-1.5,2.2,11.0,23.0,19.400000000000002,-16.6,16
161,2822.0,-1.4000000000000001,-0.4,1.1,-2.3000000000000003,1.8,10.700000000000001,27.3,21.500000000000004,-11.8,16
162,2839.0,-1.7000000000000002,-0.6000000000000001,0.2,-2.7,1.7000000000000002,9.8,30.000000000000004,11.8,-5.4,16
163,2855.0,-1.5,-0.5,-0.1,-2.5,1.9000000000000001,9.5,29.0,4.9,-3.4,16
164,2872.0,-1.4000000000000001,-0.1,-0.30000000000000004,-2.4000000000000004,2.3000000000000003,9.3,17.7,0.8,-1.8000000000000003,16
165,2889.0,-1.2000000000000002,-0.30000000000000004,0.1,-2.3000000000000003,2.2,9.600000000000001,-1.3,3.0,0.0,16
166,2905.0,-1.2000000000000002,-0.30000000000000004,0.5,-2.2,2.1,10.0,-10.5,6.8,0.9000000000000001,16
167,2922.0,-1.5,-0.6000000000000001,1.5,-2.6,1.8,11.100000000000001,-26.000000000000004,21.500000000000004,2.5,16
168,2939.0,-2.4000000000000004,-0.9,1.7000000000000002,-3.6,1.3,11.3,-28.1,37.1,6.1000000000000005,16
169,2955.0,-2.7,-1.1,1.5,-4.0,1.1,11.100000000000001,-23.3,40.4,10.200000000000001,16
170,2979.0,-2.6,-1.0,-0.9,-4.1000000000000005,1.1,8.700000000000001,6.699999999999999,24.900000000000002,20.8,16
171,2989.0,-2.4000000000000004,-0.7000000000000001,-1.9000000000000001,-3.9000000000000004,1.5,7.6000000000000005,17.0,12.5,22.4,16
172,3005.0,-2.1,-0.2,-2.7,-3.6,2.0,6.9,21.6,2.1,23.400000000000002,16
173,3022.0,-1.3,0.0,-2.8000000000000003,-2.8000000000000003,2.3000000000000003,6.7,8.3,-8.0,22.3,16
174,3039.0,-0.8,-0.1,-2.4000000000000004,-2.3000000000000003,2.2,7.1000000000000005,-8.8,-2.2,19.300000000000004,16
175,3055.0,-0.8,-0.2,-2.3000000000000003,-2.3000000000000003,2.1,7.2,-11.000000000000002,-0.2,19.1,16
176,3072.0,-0.4,-0.1,-2.3000000000000003,-1.8,2.1,7.2,-8.2,-2.1,20.3,16
177,3089.0,0.0,-0.1,-2.2,-1.4000000000000001,2.2,7.300000000000001,-9.600000000000001,5.8,21.900000000000002,16
178,3106.0,0.1,-0.2,-2.0,-1.4000000000000001,2.0,7.5,-10.299999999999999,17.200000000000003,23.400000000000002,16
179,3122.0,-0.1,-0.2,-2.1,-1.6,2.0,7.4,-7.8,21.0,25.7,16
180,3139.0,-0.2,-0.1,-2.0,-1.8,2.1,7.4,-1.1,19.799999999999997,31.6,16
181,3156.0,0.2,-0.2,-2.2,-1.6,2.1,7.300000000000001,2.1,15.899999999999999,34.60000000000001,16
182,3175.0,0.4,0.1,-2.3000000000000003,-1.1,2.3000000000000003,7.0,6.1000000000000005,6.600000000000001,36.300000000000004,16
183,3189.0,0.7000000000000001,0.4,-2.3000000000000003,-0.8,2.6,7.1000000000000005,0.30000000000000004,3.9,33.50000000000001,16
184,3206.0,0.6000000000000001,0.5,-2.0,-1.0,2.9000000000000004,7.9,-7.200000000000001,6.699999999999999,31.5,16
185,3222.0,0.6000000000000001,0.5,-0.8,-0.9,2.8000000000000003,8.5,-25.4,11.4,27.099999999999998,16
186,3239.0,0.2,0.5,0.5,-1.4000000000000001,2.7,9.9,-35.0,14.600000000000001,19.700000000000003,16
187,3256.0,-0.5,0.4,1.5,-2.1,2.4000000000000004,10.9,-35.4,19.6,15.8,16
188,3272.0,-0.7000000000000001,0.30000000000000004,1.7000000000000002,-2.3000000000000003,2.3000000000000003,11.100000000000001,-33.1,20.7,15.2,16
189,3289.0,-0.9,0.1,1.7000000000000002,-2.6,2.1,11.100000000000001,-24.0,15.000000000000002,14.200000000000001,16
190,3305.0,-0.7000000000000001,0.30000000000000004,1.6,-2.4000000000000004,2.2,11.100000000000001,-3.1,3.8,12.0,16
191,3322.0,-0.7000000000000001,0.6000000000000001,1.1,-2.4000000000000004,2.5,10.5,8.899999999999999,-2.8,10.700000000000001,16
192,3339.0,-0.30000000000000004,1.1,0.7000000000000001,-2.0,3.1,10.200000000000001,16.900000000000002,-15.5,9.600000000000001,16
193,3355.0,-0.2,1.1,1.6,-1.7000000000000002,3.1,11.0,5.8,-16.6,4.7,16
194,3372.0,-0.4,0.9,2.3000000000000003,-2.0,2.9000000000000004,11.8,0.5,-12.299999999999999,3.1,16
195,3389.0,-0.7000000000000001,0.5,2.8000000000000003,-2.2,2.5,12.3,1.4,-10.0,4.5,16
196,3405.0,-0.2,0.6000000000000001,2.1,-1.7000000000000002,2.6,11.600000000000001,12.100000000000001,-14.100000000000001,5.0,16
197,3422.0,-0.1,0.7000000000000001,1.4000000000000001,-1.6,2.8000000000000003,11.0,10.9,-13.000000000000002,4.2,16
198,3439.0,0.2,0.9,1.4000000000000001,-1.3,3.0,10.9,-4.7,-12.100000000000001,1.5,16
199,3456.0,0.30000000000000004,0.9,1.6,-0.9,2.8000000000000003,11.700000000000001,-18.1,-9.899999999999999,-2.1,16
200,3472.0,0.6000000000000001,0.6000000000000001,2.5,-0.8,2.6,12.100000000000001,-23.900000000000006,-5.2,-3.8,16
201,3489.0,0.2,0.1,3.2,-1.2000000000000002,2.0,12.9,-34.2,14.100000000000001,-7.200000000000001,16
202,3505.0,-0.6000000000000001,-0.7000000000000001,3.3000000000000003,-2.1,1.1,13.0,-34.300000000000004,26.000000000000004,-6.500000000000001,16
203,3522.0,-0.6000000000000001,-0.9,3.0,-2.2,0.8,12.700000000000001,-25.200000000000003,24.3,-5.500000000000001,16
204,3539.0,-0.30000000000000004,-0.7000000000000001,1.0,-1.8,1.1,10.700000000000001,6.0,6.4,-7.200000000000001,16
205,3555.0,0.30000000000000004,-0.1,-0.8,-1.3,1.7000000000000002,8.9,24.599999999999998,-10.4,-12.200000000000001,16
206,3572.0,0.6000000000000001,0.0,-1.2000000000000002,-1.0,1.9000000000000001,8.5,23.900000000000006,-14.400000000000002,-15.8,16
207,3589.0,1.0,-0.1,-0.7000000000000001,-0.5,1.7000000000000002,9.0,12.8,-11.6,-22.1,16
208,3605.0,1.2000000000000002,-0.6000000000000001,-0.2,-0.30000000000000004,1.3,9.5,11.4,1.0,-25.200000000000003,16
209,3622.0,1.2000000000000002,-0.7000000000000001,-0.2,-0.30000000000000004,1.2000000000000002,9.5,14.600000000000001,5.300000000000001,-25.4,16
210,3639.0,1.0,-0.6000000000000001,-0.4,-0.5,1.3,9.200000000000001,21.8,11.3,-24.3,16
211,3657.0,0.7000000000000001,-0.8,-0.7000000000000001,-0.9,1.2000000000000002,8.9,25.200000000000003,15.2,-20.3,16
212,3675.0,0.4,-0.9,-1.1,-1.3,1.2000000000000002,8.5,31.3,13.6,-16.3,16
213,3689.0,0.4,-1.0,-1.3,-1.3,1.2000000000000002,8.3,35.1,9.2,-13.8,16
214,3705.0,0.6000000000000001,-0.9,-1.8,-1.1,1.4000000000000001,7.7,39.9,2.6,-9.899999999999999,16
215,3722.0,0.6000000000000001,-0.8,-2.0,-1.1,1.5,7.5,39.9,0.8,-9.2,16
216,3739.0,0.6000000000000001,-0.8,-2.0,-1.1,1.7000000000000002,7.4,35.9,-2.7,-7.200000000000001,16
217,3755.0,1.0,-0.8,-1.3,-0.7000000000000001,1.8,8.1,31.6,-8.5,-5.500000000000001,16
218,3775.0,1.1,-0.7000000000000001,-0.6000000000000001,-0.5,1.9000000000000001,8.8,28.800000000000004,-5.4,-4.5,16
219,3789.0,1.1,-0.7000000000000001,-0.2,-0.5,2.0,9.200000000000001,26.200000000000003,-1.3,-2.7,16
220,3806.0,0.8,-0.9,0.6000000000000001,-0.8,1.8,9.9,18.700000000000003,12.100000000000001,0.7,16
221,3822.0,0.5,-1.0,0.9,-1.5,1.7000000000000002,10.4,16.6,22.9,5.9,16
222,3838.0,0.0,-1.1,0.9,-1.8,1.7000000000000002,10.200000000000001,19.5,21.8,9.5,16
223,3855.0,-0.2,-1.1,0.0,-2.0,1.8,9.3,26.200000000000003,11.6,15.899999999999999,16
224,3872.0,-0.4,-0.9,-0.6000000000000001,-2.2,2.1,8.6,23.900000000000006,5.2,21.6,16
225,3889.0,-0.4,-0.8,-0.7000000000000001,-2.2,2.2,8.5,19.400000000000002,2.4000000000000004,23.0,16
226,3905.0,-0.6000000000000001,-0.8,-0.8,-2.4000000000000004,2.3000000000000003,8.4,10.200000000000001,-9.0,24.5,16
227,3922.0,-0.7000000000000001,-0.8,-1.0,-2.3000000000000003,2.2,8.3,5.500000000000001,-19.9,27.2,16
228,3939.0,-0.6000000000000001,-0.8,-1.2000000000000002,-2.2,2.3000000000000003,8.0,4.2,-26.000000000000004,29.400000000000002,16
229,3955.0,-0.1,-0.8,-1.4000000000000001,-1.6,2.3000000000000003,7.9,-0.1,-37.50000000000001,32.7,16
230,3972.0,0.2,-0.6000000000000001,-1.5,-1.1,2.5,7.800000000000001,-7.6,-38.2,33.50000000000001,16
231,3988.0,0.4,-0.5,-1.2000000000000002,-0.8,2.6,8.0,-12.8,-35.599999999999994,33.50000000000001,16
232,4005.0,0.2,-0.4,0.0,-0.9,2.7,9.200000000000001,-21.6,-22.700000000000003,32.1,16
233,4022.0,-0.30000000000000004,-0.4,1.5,-1.4000000000000001,2.6,10.8,-23.3,-2.1,29.600000000000005,16
234,4039.0,-0.8,-0.5,2.1,-1.9000000000000001,2.5,11.4,-20.900000000000002,9.100000000000001,28.800000000000004,16
235,4056.0,-1.6,-0.6000000000000001,2.3000000000000003,-2.8000000000000003,2.3000000000000003,11.600000000000001,-6.9,24.3,31.5,16
236,4072.0,-1.9000000000000001,-0.6000000000000001,2.2,-3.0,2.3000000000000003,11.5,1.1,27.800000000000004,34.50000000000001,16
237,4089.0,-1.7000000000000002,-0.30000000000000004,1.5,-2.9000000000000004,2.7,10.8,7.1000000000000005,34.800000000000004,37.9,16
238,4105.0,-1.6,0.2,1.2000000000000002,-2.9000000000000004,3.2,10.600000000000001,-7.400000000000001,40.300000000000004,34.1,16
239,4122.0,-1.7000000000000002,0.30000000000000004,2.1,-3.2,3.2,11.5,-37.0,52.60000000000001,28.200000000000003,16
240,4139.0,-2.1,0.0,2.7,-3.7,2.8000000000000003,12.100000000000001,-53.0,59.80000000000001,24.5,16
241,4155.0,-3.3000000000000003,-0.9,3.8000000000000003,-5.1000000000000005,1.7000000000000002,13.3,-67.4,66.1,19.700000000000003,16
242,4172.0,-3.5,-1.2000000000000002,2.8000000000000003,-5.5,1.2000000000000002,12.3,-41.0,49.199999999999996,22.4,16
243,4189.0,-3.2,-0.9,1.3,-5.2,1.5,10.8,-21.6,33.50000000000001,23.900000000000006,16
244,4205.0,-2.5,-0.1,-0.6000000000000001,-4.6000000000000005,2.3000000000000003,8.9,0.2,8.8,24.900000000000002,16
245,4222.0,-2.0,0.0,-0.6000000000000001,-4.2,2.4000000000000004,8.9,-9.600000000000001,3.0,23.0,16
246,4239.0,-1.9000000000000001,-0.2,-0.4,-4.0,2.2,9.0,-12.200000000000001,2.4000000000000004,23.5,16
247,4255.0,-1.3,-0.6000000000000001,-0.7000000000000001,-3.4000000000000004,1.8,8.8,-2.3,1.7,29.0,16
248,4272.0,-0.8,-0.5,-1.6,-2.9000000000000004,1.9000000000000001,7.9,8.0,0.8,34.400000000000006,16
249,4289.0,-0.7000000000000001,-0.5,-1.9000000000000001,-2.8000000000000003,2.0,7.5,8.100000000000001,-0.30000000000000004,37.400000000000006,16
250,4305.0,-0.4,-0.5,-2.4000000000000004,-2.4000000000000004,1.9000000000000001,7.0,4.4,3.4,44.300000000000004,16
251,4322.0,-0.1,-0.7000000000000001,-2.6,-2.1,1.9000000000000001,6.800000000000001,2.4000000000000004,5.0,50.3,16
252,4339.0,0.0,-0.6000000000000001,-2.8000000000000003,-2.0,1.9000000000000001,6.6000000000000005,3.3000000000000007,4.5,52.60000000000001,16
253,4355.0,0.30000000000000004,-0.6000000000000001,-3.1,-1.7000000000000002,2.0,6.300000000000001,4.5,0.5,55.8,16
254,4374.0,0.6000000000000001,-0.6000000000000001,-3.1,-1.3,2.1,6.2,-0.30000000000000004,-0.9000000000000001,56.9,16
255,4388.0,0.6000000000000001,-0.6000000000000001,-2.8000000000000003,-1.2000000000000002,2.0,6.5,-4.2,0.5,56.50000000000001,16
256,4405.0,0.8,-0.6000000000000001,-2.3000000000000003,-1.0,2.1,7.0,-9.100000000000001,5.0,54.800000000000004,16
257,4422.0,1.0,-0.30000000000000004,-1.9000000000000001,-0.8,2.3000000000000003,7.4,-10.8,3.1,51.0,16
258,4439.0,1.1,-0.2,-1.6,-0.7000000000000001,2.4000000000000004,7.6000000000000005,-13.200000000000003,4.7,48.50000000000001,16
259,4455.0,0.9,0.0,-0.9,-0.9,2.6,8.4,-22.4,14.600000000000001,42.3,16
260,4472.0,0.4,0.0,0.2,-1.3,2.6,9.5,-30.699999999999996,23.2,36.300000000000004,16
261,4490.0,0.2,0.0,0.9,-1.6,2.5,10.200000000000001,-28.800000000000004,24.7,31.400000000000002,16
262,4505.0,0.1,-0.1,1.4000000000000001,-1.8,2.3000000000000003,10.700000000000001,-25.5,25.6,28.800000000000004,16
263,4522.0,-0.4,-0.2,1.7000000000000002,-2.3000000000000003,2.2,11.100000000000001,-14.100000000000001,26.799999999999997,22.1,16
264,4539.0,-0.5,-0.1,1.6,-2.5,2.4000000000000004,10.700000000000001,-4.2,20.3,19.400000000000002,16
265,4555.0,-0.30000000000000004,0.2,0.9,-2.3000000000000003,2.7,10.3,16.900000000000002,3.8,16.1,16
266,4572.0,0.0,0.6000000000000001,0.4,-1.9000000000000001,3.1,9.700000000000001,19.9,-9.899999999999999,8.899999999999999,16
267,4588.0,0.1,0.6000000000000001,0.5,-1.8,3.1,10.100000000000001,9.100000000000001,-18.4,-0.6000000000000001,16
268,4605.0,0.1,0.4,1.4000000000000001,-1.8,3.0,10.8,4.5,-20.900000000000002,-4.9,16
269,4622.0,-0.1,0.1,2.1,-1.9000000000000001,2.7,11.5,2.2,-23.800000000000004,-10.9,16
270,4640.0,0.0,0.0,2.0,-1.6,2.6,11.200000000000001,4.800000000000001,-29.0,-13.000000000000002,16
271,4655.0,0.30000000000000004,0.2,1.8,-1.4000000000000001,2.7,11.200000000000001,3.0,-29.200000000000003,-13.399999999999999,16
272,4672.0,0.7000000000000001,0.2,2.1,-0.9,2.7,11.5,-5.4,-21.900000000000002,-16.8,16
273,4689.0,0.8,0.2,2.4000000000000004,-0.9,2.8000000000000003,12.100000000000001,-10.0,-8.600000000000001,-23.400000000000002,16
274,4705.0,0.4,0.2,3.1,-1.2000000000000002,2.6,12.600000000000001,-15.5,3.7000000000000006,-26.300000000000004,16
275,4722.0,-1.1,-0.9,4.5,-2.9000000000000004,1.5,14.0,-30.4,42.800000000000004,-27.800000000000004,16
276,4739.0,-1.7000000000000002,-1.5,3.3000000000000003,-3.6,0.8,12.9,-6.4,38.1,-23.099999999999998,16
277,4755.0,-1.3,-1.4000000000000001,1.8,-3.2,1.0,11.4,20.1,18.1,-22.000000000000004,16
278,4772.0,-0.4,-0.30000000000000004,-1.3,-2.3000000000000003,2.2,8.200000000000001,57.60000000000001,-16.1,-22.6,16
279,4788.0,0.7000000000000001,0.7000000000000001,-2.3000000000000003,-1.2000000000000002,3.3000000000000003,7.1000000000000005,44.00000000000001,-28.0,-26.5,16
280,4805.0,1.0,0.6000000000000001,-1.8,-0.8,3.3000000000000003,7.7,24.599999999999998,-27.3,-31.0,16
281,4822.0,0.8,-0.1,0.30000000000000004,-1.0,2.5,9.700000000000001,-2.5,-4.4,-35.0,16
282,4839.0,0.4,-0.4,0.9,-1.4000000000000001,2.2,10.3,6.8,-6.600000000000001,-32.400000000000006,16
283,4855.0,0.5,-0.4,0.6000000000000001,-1.3,2.3000000000000003,10.100000000000001,16.6,-16.1,-29.700000000000006,16
284,4872.0,0.9,-0.2,-0.8,-0.9,2.5,8.6,24.8,-9.4,-24.5,16
285,4888.0,0.7000000000000001,0.1,-1.9000000000000001,-1.2000000000000002,2.8000000000000003,7.5,18.5,2.0,-24.0,16
286,4905.0,0.4,0.1,-2.0,-1.4000000000000001,2.8000000000000003,7.4,13.8,1.1,-24.0,16
287,4922.0,0.2,-0.30000000000000004,-1.9000000000000001,-1.6,2.5,7.4,8.0,-0.5,-20.900000000000002,16
288,4939.0,0.1,-0.7000000000000001,-1.2000000000000002,-1.8,2.1,8.1,9.4,1.0,-15.299999999999999,16
289,4955.0,0.1,-0.9,-0.7000000000000001,-1.8,1.9000000000000001,8.6,13.200000000000003,1.6,-12.299999999999999,16
290,4972.0,0.0,-0.7000000000000001,-0.8,-1.8,2.1,8.5,25.0,-4.2,-5.7,16
291,4989.0,0.5,-0.7000000000000001,-0.6000000000000001,-1.4000000000000001,2.2,8.700000000000001,27.2,-2.3,1.2000000000000002,16
292,5005.0,0.5,-0.8,-0.30000000000000004,-1.3,2.2,9.0,24.400000000000002,7.200000000000001,2.4000000000000004,16
293,5022.0,0.0,-0.9,0.2,-2.0,2.1,9.4,22.9,16.0,1.7,16
294,5038.0,-0.30000000000000004,-1.0,0.1,-2.3000000000000003,2.1,9.3,31.0,9.3,5.9,16
295,5055.0,-0.2,-1.0,0.0,-2.2,2.1,9.1,33.400000000000006,7.200000000000001,8.3,16
296,5072.0,-0.30000000000000004,-1.0,-0.4,-2.2,2.3000000000000003,8.700000000000001,32.400000000000006,6.1000000000000005,8.700000000000001,16
297,5089.0,-0.6000000000000001,-1.0,-0.8,-2.6,2.3000000000000003,8.3,28.700000000000003,0.0,10.200000000000001,16
298,5105.0,-0.5,-1.0,-1.0,-2.5,2.4000000000000004,8.0,26.9,-5.6,12.200000000000001,16
299,5122.0,-0.30000000000000004,-0.9,-1.4000000000000001,-2.2,2.6,7.6000000000000005,21.8,-17.400000000000002,16.1,16
300,5138.0,0.1,-0.8,-1.6,-1.7000000000000002,2.8000000000000003,7.4,10.1,-24.5,20.5,16
301,5155.0,0.30000000000000004,-0.7000000000000001,-1.4000000000000001,-1.5,2.9000000000000004,7.6000000000000005,2.2,-24.3,21.900000000000002,16
302,5172.0,0.30000000000000004,-0.7000000000000001,-0.7000000000000001,-1.4000000000000001,2.8000000000000003,8.3,-15.399999999999999,-18.6,23.2,16
303,5189.0,0.1,-0.6000000000000001,0.2,-1.4000000000000001,2.8000000000000003,9.200000000000001,-25.6,-11.000000000000002,23.6,16
304,5205.0,-0.2,-0.6000000000000001,0.6000000000000001,-1.7000000000000002,2.8000000000000003,9.700000000000001,-27.099999999999998,-5.0,23.6,16
305,5224.0,-0.5,-0.6000000000000001,1.1,-2.1,2.8000000000000003,10.3,-22.700000000000003,6.699999999999999,24.7,16
306,5238.0,-1.0,-0.6000000000000001,1.2000000000000002,-2.5,2.7,10.4,-11.900000000000002,14.400000000000002,25.0,16
307,5255.0,-1.1,-0.7000000000000001,1.0,-2.7,2.6,10.200000000000001,-5.0,15.8,25.7,16
308,5272.0,-1.2000000000000002,-0.30000000000000004,0.9,-2.8000000000000003,3.1,10.0,-0.6000000000000001,17.799999999999997,25.5,16
309,5289.0,-1.1,-0.1,1.0,-2.8000000000000003,3.2,10.200000000000001,-15.6,25.4,24.1,16
310,5305.0,-0.9,-0.1,1.4000000000000001,-2.6,3.3000000000000003,10.9,-36.7,30.5,18.3,16
311,5322.0,-1.1,0.2,1.8,-2.9000000000000004,3.4000000000000004,11.0,-47.80000000000001,32.8,13.6,16
312,5339.0,-1.3,-0.1,3.1,-3.2,2.8000000000000003,12.3,-71.7,41.900000000000006,5.6,16
313,5355.0,-2.0,-0.8,3.8000000000000003,-4.1000000000000005,1.8,13.200000000000001,-67.5,59.40000000000001,1.5,16
314,5372.0,-2.4000000000000004,-1.0,3.0,-4.6000000000000005,1.6,12.4,-51.70000000000001,53.300000000000004,2.7,16
315,5388.0,-1.5,-0.8,0.8,-3.8000000000000003,1.7000000000000002,10.100000000000001,-16.1,24.900000000000002,9.600000000000001,16
316,5405.0,-0.6000000000000001,-0.2,-0.9,-3.0,2.3000000000000003,8.4,1.1,10.299999999999999,7.500000000000001,16
317,5422.0,-0.5,-0.2,-1.1,-2.9000000000000004,2.4000000000000004,8.200000000000001,-0.9000000000000001,8.100000000000001,4.7,16
318,5439.0,-0.2,-0.30000000000000004,-1.1,-2.7,2.1,8.200000000000001,-9.100000000000001,12.9,1.7,16
319,5455.0,-0.1,-0.8,-1.5,-2.6,1.7000000000000002,7.800000000000001,-3.6000000000000005,12.600000000000001,1.8000000000000003,16
320,5472.0,-0.2,-0.9,-1.7000000000000002,-2.7,1.6,7.6000000000000005,2.1,8.8,3.4,16
321,5490.0,0.1,-0.8,-1.9000000000000001,-2.4000000000000004,1.6,7.4,7.9,-0.4,9.3,16
322,5505.0,0.1,-0.8,-2.3000000000000003,-2.3000000000000003,1.7000000000000002,6.9,8.0,3.2,13.100000000000001,16
323,5522.0,0.2,-0.7000000000000001,-2.6,-2.2,1.8,6.6000000000000005,6.4,5.4,15.8,16
324,5539.0,0.4,-0.7000000000000001,-2.8000000000000003,-2.1,1.9000000000000001,6.4,0.8,6.2,20.5,16
325,5555.0,0.2,-0.7000000000000001,-2.7,-2.2,1.9000000000000001,6.4,-2.3,5.2,22.4,16
326,5573.0,0.7000000000000001,-0.5,-2.9000000000000004,-1.8,2.0,6.300000000000001,-6.500000000000001,-5.2,28.800000000000004,16
327,5590.0,1.5,-0.1,-2.8000000000000003,-0.9,2.4000000000000004,6.300000000000001,-14.200000000000001,-14.700000000000001,29.0,16
328,5605.0,1.5,0.30000000000000004,-2.1,-0.8,2.8000000000000003,7.0,-30.9,-4.9,24.900000000000002,16
329,5622.0,1.4000000000000001,0.5,-1.7000000000000002,-0.9,2.9000000000000004,7.5,-39.300000000000004,0.2,22.700000000000003,16
330,5638.0,0.9,0.5,-0.5,-1.3,2.8000000000000003,8.700000000000001,-47.1,2.0,19.400000000000002,16
331,5659.0,0.8,0.7000000000000001,0.0,-1.4000000000000001,2.9000000000000004,9.3,-44.9,4.6,16.8,16
332,5672.0,0.6000000000000001,0.9,0.30000000000000004,-1.7000000000000002,3.0,9.5,-41.4,6.600000000000001,14.600000000000001,16
333,5689.0,0.0,1.1,0.6000000000000001,-2.3000000000000003,3.1,9.8,-36.1,15.100000000000001,11.700000000000001,16
334,5705.0,-0.6000000000000001,0.8,1.4000000000000001,-2.9000000000000004,2.8000000000000003,10.700000000000001,-29.600000000000005,25.4,9.8,16
335,5722.0,-1.0,0.8,1.4000000000000001,-3.4000000000000004,2.7,10.700000000000001,-21.6,26.1,9.8,16
336,5739.0,-0.8,1.1,0.6000000000000001,-3.2,3.0,9.9,2.0,5.0,10.8,16
337,5755.0,-0.2,1.6,-0.4,-2.6,3.6,8.8,17.7,-10.700000000000001,6.699999999999999,16
338,5772.0,-0.1,1.8,-0.6000000000000001,-2.5,3.9000000000000004,8.700000000000001,17.1,-12.100000000000001,4.0,16
339,5789.0,0.0,1.9000000000000001,-0.6000000000000001,-2.3000000000000003,4.0,8.700000000000001,5.6,-16.4,-1.1,16
340,5805.0,-0.2,1.4000000000000001,1.1,-2.5,3.4000000000000004,10.4,-13.900000000000002,-14.200000000000001,-4.9,16
341,5823.0,-0.5,1.0,2.0,-2.8000000000000003,3.0,11.4,-23.5,-6.2,-4.800000000000001,16
342,5839.0,-1.2000000000000002,0.0,3.2,-3.5,1.9000000000000001,12.5,-27.3,0.5,-2.7,16
343,5855.0,-1.2000000000000002,-0.30000000000000004,2.6,-3.5,1.6,12.0,-9.600000000000001,-7.0,1.8000000000000003,16
344,5873.0,-0.6000000000000001,0.1,1.7000000000000002,-2.8000000000000003,2.0,11.100000000000001,1.0,-15.700000000000001,2.7,16
345,5888.0,0.0,0.8,1.3,-2.2,2.7,10.8,4.300000000000001,-25.7,-3.1,16
346,5905.0,0.2,1.1,2.0,-2.0,2.9000000000000004,11.5,-15.899999999999999,-12.5,-9.899999999999999,16
347,5922.0,0.30000000000000004,0.9,2.5,-1.9000000000000001,2.7,12.0,-23.800000000000004,-10.1,-12.9,16
348,5938.0,0.0,0.1,3.9000000000000004,-2.1,1.8,13.5,-32.400000000000006,-1.4,-17.1,16
349,5955.0,-1.0,-0.8,4.6000000000000005,-3.2,0.8,14.200000000000001,-28.1,17.200000000000003,-15.399999999999999,16
350,5972.0,-1.3,-0.8,4.0,-3.5,0.7000000000000001,13.600000000000001,-14.400000000000002,18.900000000000002,-12.5,16
351,5989.0,-0.8,-0.4,1.2000000000000002,-3.0,1.2000000000000002,10.8,24.0,-1.4,-6.300000000000001,16
352,6005.0,0.30000000000000004,0.30000000000000004,-0.30000000000000004,-1.9000000000000001,2.0,9.3,36.5,-17.9,-5.0,16
353,6022.0,0.6000000000000001,0.4,-0.1,-1.5,2.2,9.5,28.400000000000002,-18.5,-7.699999999999999,16
354,6038.0,0.7000000000000001,0.0,1.0,-1.4000000000000001,1.8,10.600000000000001,12.8,-6.8,-12.4,16
355,6055.0,0.4,-0.30000000000000004,1.3,-1.8,1.6,10.9,14.100000000000001,1.7,-10.1,16
356,6072.0,1.0,-0.6000000000000001,1.2000000000000002,-1.2000000000000002,1.3,10.8,20.400000000000002,-0.8,-7.699999999999999,16
357,6088.0,0.7000000000000001,-0.7000000000000001,0.9,-1.4000000000000001,1.2000000000000002,10.5,24.400000000000002,6.500000000000001,-8.5,16
358,6105.0,0.0,-0.8,-0.5,-2.2,1.3,9.1,33.800000000000004,8.0,-7.699999999999999,16
359,6122.0,-0.1,-0.6000000000000001,-1.1,-2.1,1.5,8.0,40.6,-9.899999999999999,-6.1000000000000005,16
360,6139.0,0.2,-0.7000000000000001,-1.9000000000000001,-2.0,1.5,7.7,40.5,-15.5,-6.8,16
361,6155.0,0.30000000000000004,-0.7000000000000001,-2.4000000000000004,-1.8,1.7000000000000002,7.1000000000000005,37.0,-22.700000000000003,-9.0,16
362,6174.0,0.6000000000000001,-0.9,-2.4000000000000004,-1.4000000000000001,1.5,7.1000000000000005,29.800000000000004,-25.900000000000002,-10.200000000000001,16
363,6188.0,0.7000000000000001,-1.0,-2.2,-1.3,1.4000000000000001,7.2,26.000000000000004,-24.400000000000002,-11.000000000000002,16
364,6205.0,0.2,-1.4000000000000001,-1.1,-1.7000000000000002,1.1,8.3,25.1,-23.099999999999998,-10.700000000000001,16
365,6222.0,0.30000000000000004,-1.2000000000000002,-1.8,-1.5,1.4000000000000001,7.6000000000000005,41.199999999999996,-32.6,-3.9,16
366,6239.0,0.6000000000000001,-1.1,-2.3000000000000003,-1.2000000000000002,1.6,7.1000000000000005,44.6,-38.2,-1.3,16
367,6258.0,1.1,-1.1,-2.1,-0.5,1.7000000000000002,7.300000000000001,34.400000000000006,-32.8,-3.2,16
368,6273.0,0.6000000000000001,-1.1,-1.3,-0.9,1.7000000000000002,8.1,25.5,-18.1,-5.0,16
369,6289.0,0.5,-1.1,-1.1,-1.0,1.8,8.200000000000001,26.700000000000003,-19.400000000000002,-4.1,16
370,6305.0,0.6000000000000001,-1.1,-0.7000000000000001,-0.8,1.9000000000000001,8.6,30.200000000000003,-19.400000000000002,-1.6,16
371,6322.0,0.30000000000000004,-1.0,-0.5,-1.1,2.0,8.700000000000001,26.200000000000003,-4.4,-0.30000000000000004,16
372,6339.0,-0.1,-1.0,-0.30000000000000004,-1.5,2.1,8.9,23.3,-0.1,1.3,16
373,6361.0,-0.4,-0.9,-0.30000000000000004,-1.8,2.3000000000000003,8.9,23.099999999999998,-1.3,7.6,16
374,6372.0,-0.1,-0.7000000000000001,-0.6000000000000001,-1.5,2.5,8.6,21.0,-6.1000000000000005,11.3,16
375,6389.0,-0.1,-0.5,-0.7000000000000001,-1.5,2.8000000000000003,8.5,14.700000000000001,-4.6,12.0,16
376,6405.0,-0.30000000000000004,-0.30000000000000004,0.1,-1.6,3.0,9.200000000000001,-4.4,1.9,13.6,16
377,6422.0,-0.6000000000000001,-0.5,1.4000000000000001,-2.0,2.8000000000000003,10.600000000000001,-20.2,5.8,14.200000000000001,16
378,6443.0,-0.9,-0.5,2.0,-2.3000000000000003,2.7,11.3,-19.0,6.4,12.4,16
379,6455.0,-0.9,-0.2,1.8,-2.3000000000000003,2.9000000000000004,11.0,-11.700000000000001,3.3000000000000007,11.3,16
380,6473.0,-0.5,0.1,1.0,-1.8,3.2,10.3,-0.1,-2.2,9.2,16
381,6490.0,-0.4,0.30000000000000004,1.0,-1.7000000000000002,3.4000000000000004,10.3,-3.0,1.4,6.1000000000000005,16
382,6505.0,-0.6000000000000001,0.4,1.9000000000000001,-2.0,3.5,11.200000000000001,-25.1,16.8,-1.3,16
383,6522.0,-0.9,-0.2,3.3000000000000003,-2.4000000000000004,2.7,12.600000000000001,-46.199999999999996,37.800000000000004,-4.4,16
384,6539.0,-1.2000000000000002,-0.6000000000000001,3.9000000000000004,-2.8000000000000003,2.2,13.200000000000001,-49.800000000000004,50.3,-5.4,16
385,6557.0,-2.3000000000000003,-1.1,4.0,-4.1000000000000005,1.6,13.4,-42.5,59.5,-5.500000000000001,16
386,6572.0,-2.1,-1.1,2.0,-4.1000000000000005,1.5,11.5,-11.3,50.0,-3.8,16
387,6588.0,-1.8,-0.8,0.6000000000000001,-3.9000000000000004,1.8,10.0,7.200000000000001,39.599999999999994,-4.9,16
388,6605.0,-1.4000000000000001,0.2,-1.9000000000000001,-3.6,2.9000000000000004,7.5,27.099999999999998,17.200000000000003,-10.200000000000001,16
389,6622.0,-0.7000000000000001,0.5,-2.5,-2.9000000000000004,3.2,6.800000000000001,7.500000000000001,0.30000000000000004,-13.200000000000003,16
390,6639.0,-0.2,0.30000000000000004,-2.3000000000000003,-2.4000000000000004,3.0,7.0,-7.0,-0.2,-13.5,16
391,6657.0,0.4,0.0,-1.8,-1.9000000000000001,2.7,7.5,-26.1,9.700000000000001,-10.700000000000001,16
392,6672.0,-0.1,-0.8,-1.4000000000000001,-2.4000000000000004,1.7000000000000002,7.9,-38.60000000000001,14.300000000000002,-2.4000000000000004,16
393,6689.0,0.0,-0.9,-0.4,-2.3000000000000003,1.5,9.0,-39.300000000000004,14.700000000000001,3.2,16
394,6705.0,0.1,-0.8,-0.4,-2.2,1.6,9.0,-21.300000000000004,5.6,10.8,16
395,6722.0,0.6000000000000001,-0.30000000000000004,-1.5,-1.7000000000000002,2.0,7.9,0.0,-5.500000000000001,15.299999999999999,16
396,6739.0,0.8,-0.1,-2.1,-1.5,2.3000000000000003,7.2,4.2,-5.9,16.1,16
397,6755.0,0.7000000000000001,0.0,-3.1,-1.6,2.4000000000000004,6.2,1.1,-4.1,17.1,16
398,6772.0,0.7000000000000001,0.1,-3.3000000000000003,-1.5,2.5,5.9,-4.800000000000001,-10.8,19.5,16
399,6789.0,0.8,-0.1,-3.0,-1.4000000000000001,2.3000000000000003,6.300000000000001,-7.200000000000001,-16.3,20.8,16
400,6805.0,1.1,-0.2,-2.5,-1.0,2.2,6.800000000000001,-8.3,-22.700000000000003,21.8,16
401,6822.0,1.4000000000000001,0.0,-2.0,-0.6000000000000001,2.4000000000000004,7.300000000000001,-6.600000000000001,-27.700000000000003,21.7,16
402,6838.0,1.2000000000000002,0.2,-1.8,-0.7000000000000001,2.5,7.5,-6.8,-25.8,21.300000000000004,16
403,6858.0,1.2000000000000002,0.6000000000000001,-1.0,-0.6000000000000001,3.0,8.8,-10.8,-19.0,23.099999999999998,16
404,6873.0,1.0,0.6000000000000001,0.2,-0.8,2.9000000000000004,9.5,-18.5,-11.000000000000002,22.700000000000003,16
405,6889.0,0.2,0.5,1.2000000000000002,-1.5,2.8000000000000003,10.600000000000001,-22.000000000000004,-3.0,20.5,16
406,6905.0,-0.2,0.5,1.3,-1.9000000000000001,2.7,10.600000000000001,-17.7,-6.2,19.9,16
407,6922.0,0.0,0.7000000000000001,1.0,-1.6,2.9000000000000004,10.4,-5.4,-19.5,18.6,16
408,6939.0,0.2,0.8,0.9,-1.4000000000000001,3.0,10.3,-2.2,-21.300000000000004,15.6,16
409,6957.0,-0.2,1.1,0.7000000000000001,-1.7000000000000002,3.4000000000000004,10.200000000000001,-3.0,-15.299999999999999,7.500000000000001,16
410,6974.0,-0.2,1.2000000000000002,1.0,-1.7000000000000002,3.4000000000000004,10.5,-8.600000000000001,-26.000000000000004,-0.7,16
411,6989.0,-0.2,0.9,2.1,-1.6,3.2,11.100000000000001,-10.600000000000001,-28.900000000000002,-4.7,16
412,7005.0,-0.5,0.8,2.4000000000000004,-1.9000000000000001,3.0,11.9,-10.8,-21.6,-11.900000000000002,16
413,7022.0,-1.2000000000000002,0.5,2.6,-2.5,2.7,12.100000000000001,-5.500000000000001,-13.5,-12.8,16
414,7038.0,-0.8,0.30000000000000004,2.1,-2.1,2.4000000000000004,11.700000000000001,0.30000000000000004,-14.300000000000002,-10.200000000000001,16
415,7056.0,-0.5,0.6000000000000001,1.7000000000000002,-1.7000000000000002,2.8000000000000003,11.3,2.0,-15.100000000000001,-9.600000000000001,16
416,7072.0,-0.1,0.6000000000000001,2.1,-1.4000000000000001,2.8000000000000003,11.700000000000001,-9.899999999999999,-8.2,-10.4,16
417,7088.0,-0.2,0.6000000000000001,2.5,-1.6,2.6,12.4,-26.300000000000004,9.4,-13.900000000000002,16
418,7105.0,-0.8,0.2,3.3000000000000003,-2.1,2.2,13.0,-31.0,13.700000000000001,-14.800000000000002,16
419,7122.0,-1.5,-0.9,3.8000000000000003,-2.9000000000000004,1.0,13.5,-33.400000000000006,28.0,-12.4,16
420,7138.0,-1.2000000000000002,-1.0,1.9000000000000001,-2.7,0.8,11.700000000000001,-8.8,12.299999999999999,-13.000000000000002,16
421,7158.0,-0.1,-0.1,-0.9,-1.5,1.8,8.8,23.700000000000003,-17.5,-17.300000000000004,16
422,7172.0,0.30000000000000004,0.4,-1.9000000000000001,-1.1,2.3000000000000003,7.9,27.700000000000003,-22.2,-19.6,16
423,7190.0,1.2000000000000002,0.8,-1.4000000000000001,-0.1,2.8000000000000003,8.3,5.9,-21.6,-24.900000000000002,16
424,7205.0,1.4000000000000001,0.6000000000000001,-0.5,0.0,2.5,9.200000000000001,-9.5,-11.1,-26.799999999999997,16
425,7222.0,1.2000000000000002,-0.1,1.0,-0.2,1.7000000000000002,10.700000000000001,-23.6,12.0,-25.1,16
426,7238.0,0.7000000000000001,-0.7000000000000001,2.3000000000000003,-0.7000000000000001,1.1,12.100000000000001,-9.600000000000001,15.8,-19.200000000000003,16
427,7257.0,0.4,-0.6000000000000001,1.8,-1.1,1.2000000000000002,11.5,18.900000000000002,25.5,-9.5,16
428,7272.0,0.2,-0.4,0.9,-1.4000000000000001,1.4000000000000001,10.600000000000001,33.2,29.300000000000004,-4.9,16
429,7290.0,-0.1,-0.2,-0.7000000000000001,-1.7000000000000002,1.8,9.0,45.6,22.6,0.4,16
430,7305.0,-0.2,-0.2,-1.2000000000000002,-1.8,1.8,8.5,43.900000000000006,18.8,1.1,16
431,7322.0,-0.30000000000000004,-0.4,-1.9000000000000001,-2.0,1.8,7.7,40.6,11.4,0.5,16
432,7339.0,-0.5,-0.30000000000000004,-2.4000000000000004,-2.2,2.0,7.2,40.2,-6.9,0.8,16
433,7359.0,-0.1,-0.5,-2.4000000000000004,-1.7000000000000002,2.0,7.1000000000000005,32.400000000000006,-26.000000000000004,3.9,16
434,7372.0,0.2,-0.6000000000000001,-2.5,-1.4000000000000001,1.9000000000000001,7.0,29.0,-29.800000000000004,4.6,16
435,7388.0,0.2,-0.7000000000000001,-2.1,-1.3,1.9000000000000001,7.4,24.3,-33.2,6.2,16
436,7405.0,0.30000000000000004,-0.8,-1.8,-1.1,1.8,7.6000000000000005,23.6,-33.400000000000006,8.0,16
437,7422.0,0.4,-0.9,-1.8,-0.9,1.8,7.7,29.800000000000004,-31.799999999999997,12.0,16
438,7438.0,0.6000000000000001,-0.8,-2.0,-0.6000000000000001,2.0,7.4,35.5,-30.699999999999996,16.0,16
439,7458.0,0.6000000000000001,-0.7000000000000001,-1.7000000000000002,-0.5,2.2,7.6000000000000005,33.7,-27.400000000000002,20.2,16
440,7472.0,0.7000000000000001,-0.7000000000000001,-1.4000000000000001,-0.30000000000000004,2.2,8.0,31.6,-22.700000000000003,22.6,16
441,7488.0,0.5,-0.8,-0.5,-0.4,2.2,8.8,27.700000000000003,-7.8,26.300000000000004,16
442,7505.0,0.30000000000000004,-0.8,0.0,-0.9,2.2,9.8,25.4,-0.5,27.800000000000004,16
443,7522.0,-0.4,-1.1,0.8,-1.4000000000000001,2.1,10.0,24.400000000000002,12.100000000000001,31.3,16
444,7538.0,-0.8,-1.1,0.6000000000000001,-1.7000000000000002,2.2,9.9,28.500000000000004,9.600000000000001,36.7,16
445,7558.0,-0.8,-0.9,0.2,-1.7000000000000002,2.5,9.4,25.0,6.699999999999999,40.4,16
446,7575.0,-0.9,-0.7000000000000001,0.2,-1.8,2.7,9.4,17.9,7.0,40.6,16
447,7588.0,-1.3,-0.9,0.7000000000000001,-2.2,2.6,9.9,0.6000000000000001,5.8,39.400000000000006,16
448,7605.0,-1.4000000000000001,-0.9,1.0,-2.3000000000000003,2.5,10.200000000000001,-9.700000000000001,2.4000000000000004,37.2,16
449,7622.0,-1.5,-1.0,1.2000000000000002,-2.3000000000000003,2.3000000000000003,10.5,-11.1,-0.9000000000000001,36.0,16
450,7639.0,-1.0,-1.0,1.0,-1.8,2.4000000000000004,10.200000000000001,-10.700000000000001,-5.500000000000001,33.6,16
451,7658.0,-0.7000000000000001,-0.8,1.3,-1.5,2.5,10.600000000000001,-18.200000000000003,5.8,28.800000000000004,16
452,7672.0,-0.8,-0.7000000000000001,1.4000000000000001,-1.6,2.5,10.700000000000001,-24.900000000000002,15.2,25.5,16
453,7688.0,-0.9,-0.7000000000000001,1.8,-1.7000000000000002,2.4000000000000004,11.200000000000001,-37.400000000000006,29.700000000000006,21.1,16
454,7705.0,-0.9,-0.7000000000000001,2.3000000000000003,-1.9000000000000001,2.3000000000000003,11.700000000000001,-46.800000000000004,48.70000000000001,17.799999999999997,16
455,7722.0,-1.3,-0.7000000000000001,2.2,-2.4000000000000004,2.2,11.700000000000001,-50.7,58.3,15.399999999999999,16
456,7739.0,-1.9000000000000001,-1.0,2.5,-3.2,1.8,12.0,-50.7,72.2,11.900000000000002,16
457,7761.0,-2.4000000000000004,-0.8,1.1,-4.0,1.8,10.5,-29.900000000000006,66.9,11.3,16
458,7772.0,-2.1,-0.6000000000000001,-0.2,-3.7,2.0,9.3,-17.400000000000002,53.599999999999994,11.700000000000001,16
459,7788.0,-1.4000000000000001,0.0,-2.2,-3.2,2.6,7.2,-8.100000000000001,30.9,10.200000000000001,16
460,7805.0,-0.8,0.4,-2.9000000000000004,-2.7,2.9000000000000004,6.6000000000000005,-22.700000000000003,21.1,9.4,16
461,7822.0,-0.5,0.5,-2.6,-2.4000000000000004,3.0,6.800000000000001,-31.0,18.6,10.4,16
462,7838.0,-0.30000000000000004,0.2,-1.2000000000000002,-2.2,2.6,8.200000000000001,-42.900000000000006,23.3,14.600000000000001,16
463,7857.0,-0.5,-0.1,-0.2,-2.5,2.2,9.200000000000001,-39.9,29.800000000000004,22.3,16
464,7872.0,-0.5,-0.1,-0.2,-2.5,2.0,9.3,-33.7,26.6,27.3,16
465,7888.0,-0.2,0.1,-1.3,-2.3000000000000003,2.2,8.1,-17.0,23.2,36.5,16
466,7905.0,0.0,0.30000000000000004,-2.7,-2.2,2.5,6.7,-6.8,17.799999999999997,43.2,16
467,7922.0,0.1,0.5,-3.1,-2.0,2.7,6.2,-5.1000000000000005,11.5,44.4,16
468,7939.0,0.1,0.6000000000000001,-3.5,-2.0,2.8000000000000003,5.9,-5.300000000000001,2.2,45.8,16
469,7958.0,0.6000000000000001,0.4,-3.5,-1.9000000000000001,2.7,5.7,-15.2,-7.8,49.800000000000004,16
470,7973.0,0.8,0.2,-3.0,-1.2000000000000002,2.3000000000000003,6.300000000000001,-20.0,-11.1,50.60000000000001,16
471,7988.0,0.7000000000000001,-0.1,-2.1,-1.2000000000000002,2.1,7.300000000000001,-23.6,-13.900000000000002,52.400000000000006,16
472,8005.0,0.9,0.30000000000000004,-1.6,-0.9,2.4000000000000004,7.7,-18.8,-19.1,53.300000000000004,16
473,8022.0,0.9,0.5,-1.4000000000000001,-0.8,2.6,8.0,-17.6,-17.9,53.0,16
474,8038.0,0.6000000000000001,0.6000000000000001,-0.7000000000000001,-1.0,2.7,8.6,-20.400000000000002,-7.6,50.60000000000001,16
475,8056.0,0.4,0.6000000000000001,0.1,-1.3,2.6,9.5,-23.3,-1.7,48.50000000000001,16
476,8072.0,0.30000000000000004,0.6000000000000001,0.6000000000000001,-1.3,2.6,10.0,-23.099999999999998,0.2,47.60000000000001,16
477,8089.0,0.0,0.5,1.9000000000000001,-1.6,2.5,11.4,-19.9,5.6,44.10000000000001,16
478,8105.0,-0.30000000000000004,0.7000000000000001,2.5,-1.9000000000000001,2.6,11.9,-8.899999999999999,11.4,40.9,16
479,8122.0,-0.2,0.8,2.7,-1.9000000000000001,2.8000000000000003,12.200000000000001,-3.6000000000000005,8.2,37.2,16
480,8138.0,-0.7000000000000001,1.1,3.0,-2.4000000000000004,3.0,12.4,1.5,12.200000000000001,26.1,16
481,8157.0,-1.3,1.1,3.2,-3.0,3.1,12.700000000000001,0.5,16.200000000000003,16.3,16
482,8172.0,-1.5,1.1,3.3000000000000003,-3.2,3.1,12.8,0.0,12.100000000000001,10.9,16
483,8188.0,-1.7000000000000002,0.8,3.3000000000000003,-3.5,2.8000000000000003,12.8,0.6000000000000001,-3.7000000000000006,2.2,16
484,8205.0,-0.9,0.9,2.1,-2.6,3.0,11.700000000000001,2.7,-24.3,-2.9,16
485,8222.0,-0.6000000000000001,1.0,2.0,-2.3000000000000003,3.1,11.600000000000001,-3.0,-32.9,-5.9,16
486,8242.0,-0.6000000000000001,0.8,2.8000000000000003,-2.1,2.6,12.9,-22.9,-25.8,-11.900000000000002,16
487,8263.0,-0.6000000000000001,0.4,3.8000000000000003,-2.2,1.8,13.8,-27.099999999999998,-21.0,-14.400000000000002,16
488,8272.0,-0.7000000000000001,-0.1,4.1000000000000005,-2.2,1.8,13.8,-24.400000000000002,-13.700000000000001,-14.100000000000001,16
489,8288.0,-1.2000000000000002,-0.7000000000000001,3.3000000000000003,-2.7,1.1,13.100000000000001,-9.600000000000001,3.9,-12.4,16
490,8305.0,-1.0,-0.6000000000000001,0.9,-2.5,1.2000000000000002,10.700000000000001,22.4,-3.3000000000000007,-7.6,16
491,8322.0,0.0,0.0,-0.9,-1.5,2.0,8.8,43.800000000000004,-13.399999999999999,-5.1000000000000005,16
492,8338.0,0.2,0.2,-1.3,-1.2000000000000002,2.2,8.4,43.2,-12.7,-5.1000000000000005,16
493,8356.0,0.5,0.30000000000000004,-1.3,-0.9,2.4000000000000004,8.4,26.000000000000004,6.1000000000000005,-2.2,16
494,8372.0,0.5,-0.2,-0.7000000000000001,-1.0,2.0,8.9,10.8,28.1,2.3,16
495,8388.0,0.2,-0.4,-0.30000000000000004,-1.4000000000000001,1.8,9.3,7.699999999999999,29.600000000000005,4.4,16
496,8405.0,-0.7000000000000001,-1.1,0.7000000000000001,-2.3000000000000003,1.2000000000000002,10.3,13.700000000000001,22.2,13.000000000000002,16
497,8422.0,-0.30000000000000004,-0.7000000000000001,-0.7000000000000001,-1.9000000000000001,1.7000000000000002,8.9,36.8,10.5,26.000000000000004,16
498,8438.0,-0.2,-0.4,-1.4000000000000001,-1.9000000000000001,2.0,8.200000000000001,42.2,4.9,29.300000000000004,16
499,8459.0,-0.4,-0.1,-2.4000000000000004,-2.0,2.5,7.1000000000000005,35.599999999999994,7.0,30.3,16
500,8472.0,-0.5,-0.1,-3.0,-2.1,2.5,6.5,27.2,-0.2,28.900000000000002,16
501,8488.0,-0.5,-0.2,-3.2,-2.1,2.5,6.300000000000001,25.300000000000004,-9.4,28.200000000000003,16
502,8505.0,-0.30000000000000004,-0.4,-3.0,-1.8,2.4000000000000004,6.4,20.599999999999998,-24.0,27.099999999999998,16
503,8522.0,-0.1,-0.6000000000000001,-2.5,-1.5,2.3000000000000003,6.9,18.8,-25.0,27.700000000000003,16
504,8538.0,0.0,-0.6000000000000001,-2.5,-1.3,2.3000000000000003,6.9,19.1,-26.300000000000004,28.800000000000004,16
505,8563.0,0.4,-0.6000000000000001,-1.9000000000000001,-0.8,2.4000000000000004,7.4,4.800000000000001,-21.8,32.9,16
506,8573.0,0.4,-0.6000000000000001,-1.9000000000000001,-0.7000000000000001,2.3000000000000003,7.9,-1.9,-15.5,34.1,16
507,8588.0,0.30000000000000004,-0.7000000000000001,-0.7000000000000001,-0.8,2.2,8.6,-4.1,-7.8,35.1,16
508,8606.0,0.0,-0.8,0.30000000000000004,-1.1,2.1,9.600000000000001,2.1,6.1000000000000005,37.400000000000006,16
509,8622.0,-0.6000000000000001,-0.8,0.8,-1.7000000000000002,2.2,10.200000000000001,12.200000000000001,17.9,40.2,16
510,8638.0,-0.9,-0.8,1.1,-2.0,2.2,10.4,14.800000000000002,26.5,42.60000000000001,16
511,8656.0,-1.7000000000000002,-1.0,1.3,-2.9000000000000004,2.2,10.600000000000001,17.7,37.800000000000004,48.0,16
512,8672.0,-1.8,-1.1,1.1,-3.1,2.1,10.4,21.8,29.300000000000004,53.10000000000001,16
513,8688.0,-1.8,-1.1,0.8,-3.1,2.2,10.0,24.8,24.1,55.0,16
514,8705.0,-1.7000000000000002,-0.7000000000000001,0.30000000000000004,-3.0,2.7,9.5,24.900000000000002,16.200000000000003,55.60000000000001,16
515,8722.0,-1.9000000000000001,-0.4,0.30000000000000004,-3.2,3.1,9.5,13.3,13.8,53.0,16
516,8738.0,-2.1,-0.4,0.5,-3.3000000000000003,3.0,9.700000000000001,5.500000000000001,10.1,50.7,16
517,8757.0,-2.1,-0.6000000000000001,0.9,-3.4000000000000004,2.9000000000000004,10.100000000000001,-6.0,3.0,47.60000000000001,16
518,8772.0,-2.1,-0.9,1.4000000000000001,-3.3000000000000003,2.6,10.600000000000001,-11.000000000000002,0.30000000000000004,45.6,16
519,8789.0,-1.9000000000000001,-0.8,1.5,-2.8000000000000003,2.7,10.8,-10.299999999999999,8.899999999999999,46.1,16
520,8805.0,-1.4000000000000001,-0.6000000000000001,1.6,-2.6,2.8000000000000003,10.8,-11.6,15.399999999999999,45.099999999999994,16
521,8822.0,-1.3,-0.5,1.7000000000000002,-2.6,2.8000000000000003,11.0,-20.7,30.1,43.1,16
522,8841.0,-1.1,-0.7000000000000001,2.0,-2.4000000000000004,2.6,11.4,-34.800000000000004,42.0,44.4,16
523,8861.0,-1.0,-1.1,2.6,-2.5,2.0,11.9,-47.900000000000006,55.60000000000001,43.50000000000001,16
524,8872.0,-1.2000000000000002,-1.2000000000000002,2.6,-2.8000000000000003,1.8,12.0,-47.900000000000006,62.199999999999996,41.0,16
525,8888.0,-1.6,-1.3,2.5,-3.2,1.7000000000000002,11.8,-41.50000000000001,63.900000000000006,38.0,16
526,8905.0,-2.1,-1.0,0.30000000000000004,-3.9000000000000004,1.9000000000000001,9.700000000000001,-15.8,48.9,34.900000000000006,16
527,8922.0,-1.4000000000000001,-0.6000000000000001,-1.8,-3.2,2.3000000000000003,7.5,0.7,24.200000000000003,35.8,16
528,8938.0,-0.9,-0.5,-2.4000000000000004,-2.7,2.5,7.0,0.30000000000000004,15.6,34.60000000000001,16
529,8955.0,-0.5,-0.4,-2.8000000000000003,-2.4000000000000004,2.5,6.5,-9.5,6.9,31.099999999999998,16
530,8972.0,0.0,-0.5,-2.7,-1.9000000000000001,2.4000000000000004,6.6000000000000005,-19.5,5.4,35.1,16
531,8990.0,0.30000000000000004,-0.4,-2.3000000000000003,-1.5,2.5,7.0,-25.6,15.000000000000002,39.0,16
532,9005.0,0.2,-0.4,-2.3000000000000003,-1.6,2.4000000000000004,7.0,-27.5,19.1,40.5,16
533,9022.0,-0.1,-0.5,-2.2,-2.0,2.2,7.1000000000000005,-25.4,18.8,47.60000000000001,16
534,9040.0,0.30000000000000004,-0.4,-2.9000000000000004,-1.5,2.3000000000000003,6.4,-15.8,10.700000000000001,56.2,16
535,9055.0,0.6000000000000001,-0.30000000000000004,-3.2,-1.3,2.4000000000000004,6.1000000000000005,-12.100000000000001,7.699999999999999,58.7,16
536,9072.0,0.8,-0.1,-3.8000000000000003,-1.0,2.6,5.5,-12.7,7.1000000000000005,61.199999999999996,16
537,9089.0,0.9,0.0,-3.7,-0.8,2.7,5.800000000000001,-21.300000000000004,7.8,62.0,16
538,9105.0,0.9,-0.1,-3.0,-0.9,2.6,6.300000000000001,-25.300000000000004,9.100000000000001,61.50000000000001,16
539,9122.0,0.9,0.0,-2.1,-0.8,2.6,7.1000000000000005,-25.200000000000003,7.500000000000001,60.1,16
540,9138.0,0.9,0.2,-1.9000000000000001,-0.7000000000000001,3.0,7.7,-22.6,3.2,59.20000000000001,16
541,9155.0,0.9,0.5,-1.2000000000000002,-0.7000000000000001,3.1,8.1,-23.6,0.4,57.699999999999996,16
542,9172.0,0.8,0.5,-0.4,-0.8,3.0,8.9,-30.9,8.2,55.60000000000001,16
543,9188.0,0.6000000000000001,0.7000000000000001,0.9,-1.0,3.1,10.200000000000001,-35.0,10.0,50.8,16
544,9205.0,0.30000000000000004,0.7000000000000001,1.6,-1.3,3.1,10.9,-35.3,13.000000000000002,48.0,16
545,9222.0,-0.5,0.7000000000000001,2.3000000000000003,-2.0,3.1,11.600000000000001,-28.0,12.5,44.2,16
546,9238.0,-0.30000000000000004,0.8,1.9000000000000001,-1.9000000000000001,3.1,11.200000000000001,-15.5,-4.2,39.400000000000006,16
547,9256.0,-0.1,1.1,1.5,-1.7000000000000002,3.4000000000000004,10.9,-11.4,-11.6,34.900000000000006,16
548,9272.0,-0.2,1.4000000000000001,1.2000000000000002,-1.6,3.7,10.600000000000001,-10.299999999999999,-17.7,22.8,16
549,9288.0,-0.5,1.5,1.4000000000000001,-2.1,3.8000000000000003,11.100000000000001,-13.6,-17.200000000000003,13.8,16
550,9305.0,-0.8,1.4000000000000001,2.1,-2.2,3.7,11.5,-16.700000000000003,-19.0,11.4,16
551,9322.0,-1.1,0.9,2.6,-2.4000000000000004,3.1,12.200000000000001,-20.5,-19.400000000000002,8.3,16
552,9338.0,-0.7000000000000001,0.6000000000000001,2.7,-2.0,2.7,12.200000000000001,-13.6,-20.3,9.700000000000001,16
553,9357.0,-0.5,0.8,2.3000000000000003,-1.7000000000000002,3.0,11.9,-8.8,-21.400000000000002,10.1,16
554,9372.0,-0.4,1.1,2.1,-1.5,3.2,11.700000000000001,-14.300000000000002,-12.0,12.299999999999999,16
555,9388.0,-0.4,1.0,2.7,-1.5,3.0,12.3,-30.000000000000004,4.4,12.7,16
556,9405.0,-0.6000000000000001,0.7000000000000001,3.5,-1.7000000000000002,2.7,13.200000000000001,-36.1,12.5,13.200000000000003,16
557,9422.0,-1.8,-0.4,4.800000000000001,-3.0,1.5,14.5,-42.800000000000004,38.7,17.200000000000003,16
558,9438.0,-2.5,-1.4000000000000001,4.2,-3.9000000000000004,0.4,13.9,-23.3,40.7,24.5,16
559,9457.0,-2.2,-1.3,2.8000000000000003,-3.6,0.4,12.600000000000001,-1.1,26.000000000000004,25.900000000000002,16
560,9472.0,-1.3,-0.4,-0.6000000000000001,-2.8000000000000003,1.4000000000000001,9.200000000000001,38.0,-4.4,25.4,16
561,9488.0,-0.4,0.1,-2.0,-1.8,2.1,7.800000000000001,32.7,-9.899999999999999,24.1,16
562,9505.0,0.0,0.0,-1.6,-1.4000000000000001,2.1,8.1,16.6,-7.699999999999999,21.300000000000004,16
563,9522.0,0.5,-0.30000000000000004,-0.5,-0.9,1.7000000000000002,9.200000000000001,-10.700000000000001,11.5,16.4,16
564,9538.0,0.7000000000000001,-0.5,0.1,-0.8,1.5,9.8,-15.8,31.0,15.5,16
565,9555.0,0.2,-0.7000000000000001,0.9,-1.3,1.3,10.600000000000001,-14.900000000000002,37.300000000000004,16.0,16
566,9573.0,-0.8,-1.2000000000000002,1.4000000000000001,-2.5,0.7000000000000001,11.100000000000001,-2.8,47.900000000000006,24.8,16
567,9588.0,-0.2,-1.0,-0.5,-2.0,1.0,9.200000000000001,28.900000000000002,30.200000000000003,36.1,16
568,9605.0,0.1,-0.8,-1.2000000000000002,-1.7000000000000002,1.3,8.4,37.7,21.500000000000004,38.7,16
569,9622.0,0.5,-0.30000000000000004,-2.7,-1.4000000000000001,1.9000000000000001,6.9,34.50000000000001,24.599999999999998,37.800000000000004,16
570,9639.0,0.5,-0.1,-3.6,-1.4000000000000001,2.2,5.9,21.300000000000004,24.200000000000003,32.400000000000006,16
571,9657.0,0.1,-0.7000000000000001,-3.0,-1.9000000000000001,1.7000000000000002,6.5,8.100000000000001,11.6,26.6,16
572,9672.0,0.0,-0.9,-2.3000000000000003,-1.9000000000000001,1.5,7.1000000000000005,6.0,4.7,26.5,16
573,9688.0,0.7000000000000001,-1.1,-1.8,-1.1,1.4000000000000001,7.6000000000000005,20.400000000000002,-22.700000000000003,25.200000000000003,16
574,9705.0,1.1,-0.9,-1.7000000000000002,-0.6000000000000001,1.6,7.7,29.0,-37.9,23.400000000000002,16
575,9722.0,1.5,-0.5,-1.7000000000000002,-0.1,2.1,7.7,31.9,-32.6,21.1,16
576,9738.0,1.9000000000000001,-0.2,-1.6,0.4,2.5,7.800000000000001,16.6,-21.400000000000002,20.5,16
577,9756.0,1.7000000000000002,-0.30000000000000004,-1.0,0.2,2.1,9.1,-0.7,-23.2,17.7,16
578,9772.0,1.4000000000000001,-0.8,0.5,0.1,2.0,9.9,-5.2,-23.400000000000002,17.300000000000004,16
579,9788.0,1.0,-0.8,1.5,-0.30000000000000004,1.9000000000000001,11.0,-3.9,-16.8,17.300000000000004,16
580,9805.0,0.5,-0.8,1.8,-1.1,1.8,11.3,3.2,-6.600000000000001,19.9,16
581,9822.0,-0.2,-1.0,1.9000000000000001,-1.4000000000000001,1.7000000000000002,11.3,7.1000000000000005,-3.9,23.6,16
582,9838.0,-0.4,-1.1,1.8,-1.5,1.6,11.200000000000001,15.5,-7.9,28.0,16
583,9855.0,-0.5,-0.9,1.1,-1.6,1.9000000000000001,10.600000000000001,25.5,-15.700000000000001,29.600000000000005,16
584,9872.0,-0.7000000000000001,-0.7000000000000001,0.9,-1.7000000000000002,2.2,10.3,26.9,-15.700000000000001,30.599999999999998,16
585,9888.0,-0.9,-0.5,0.8,-1.9000000000000001,2.4000000000000004,10.200000000000001,17.799999999999997,-12.299999999999999,30.200000000000003,16
586,9905.0,-1.8,-0.6000000000000001,1.4000000000000001,-2.7,2.4000000000000004,10.8,5.500000000000001,-10.8,24.7,16
587,9922.0,-2.1,-0.7000000000000001,1.8,-3.0,2.3000000000000003,11.200000000000001,2.7,-11.1,23.5,16
588,9938.0,-1.9000000000000001,-0.8,1.5,-2.8000000000000003,2.2,11.0,6.8,-16.6,22.8,16
589,9955.0,-1.8,-0.7000000000000001,1.0,-2.6,2.3000000000000003,10.4,8.100000000000001,-12.4,19.1,16
590,9972.0,-1.8,-0.8,0.9,-2.6,2.3000000000000003,10.4,1.6,-2.5,17.7,16
591,9988.0,-2.2,-1.2000000000000002,1.1,-3.1,1.8,10.5,-16.3,13.900000000000002,17.0,16
592,10005.0,-2.3000000000000003,-1.7000000000000002,2.2,-3.2,1.2000000000000002,11.700000000000001,-29.1,22.9,19.5,16
593,10022.0,-2.3000000000000003,-1.8,2.4000000000000004,-3.3000000000000003,1.1,12.0,-29.600000000000005,30.5,19.200000000000003,16
594,10039.0,-2.6,-1.5,1.8,-3.7,1.3,11.4,-13.3,35.699999999999996,14.900000000000002,16
595,10066.0,-2.6,-1.1,-0.2,-3.7,1.7000000000000002,9.3,15.8,23.5,9.700000000000001,16
596,10072.0,-2.3000000000000003,-0.9,-1.3,-3.5,1.9000000000000001,8.200000000000001,25.8,15.5,8.3,16
597,10088.0,-1.5,-0.7000000000000001,-2.6,-2.8000000000000003,2.3000000000000003,6.9,26.300000000000004,1.5,6.1000000000000005,16
598,10105.0,-1.1,-0.6000000000000001,-3.0,-2.3000000000000003,2.3000000000000003,6.4,9.899999999999999,-2.4000000000000004,6.0,16
599,10122.0,-0.7000000000000001,-0.7000000000000001,-2.9000000000000004,-1.9000000000000001,2.3000000000000003,6.6000000000000005,-0.4,1.6,8.4,16
600,10138.0,-0.1,-0.8,-2.1,-1.4000000000000001,2.1,7.300000000000001,-19.799999999999997,23.2,14.100000000000001,16
601,10156.0,-0.2,-1.1,-1.3,-1.6,1.8,8.1,-33.0,44.9,18.200000000000003,16
602,10172.0,-0.4,-1.1,-1.3,-1.9000000000000001,1.7000000000000002,8.1,-31.9,45.7,20.599999999999998,16
603,10188.0,-0.6000000000000001,-1.0,-1.9000000000000001,-2.2,1.7000000000000002,7.5,-14.900000000000002,32.0,30.3,16
604,10205.0,0.30000000000000004,-0.8,-3.1,-1.3,1.9000000000000001,6.300000000000001,3.1,18.4,41.800000000000004,16
605,10222.0,0.7000000000000001,-0.6000000000000001,-3.5,-0.9,2.1,5.800000000000001,6.300000000000001,14.400000000000002,43.900000000000006,16
606,10238.0,0.8,-0.30000000000000004,-4.2,-0.8,2.5,5.1000000000000005,0.9000000000000001,10.299999999999999,43.300000000000004,16
607,10257.0,0.8,-0.2,-3.9000000000000004,-0.7000000000000001,2.5,5.4,-14.100000000000001,3.4,43.6,16
608,10272.0,0.8,-0.30000000000000004,-3.3000000000000003,-0.8,2.4000000000000004,5.9,-20.5,1.8000000000000003,44.10000000000001,16
609,10288.0,0.7000000000000001,-0.4,-2.1,-0.7000000000000001,2.2,7.1000000000000005,-23.800000000000004,-5.1000000000000005,45.6,16
610,10305.0,0.7000000000000001,-0.1,-1.2000000000000002,-0.7000000000000001,2.6,8.0,-15.299999999999999,-12.9,44.6,16
611,10322.0,0.7000000000000001,0.2,-0.8,-0.6000000000000001,2.8000000000000003,8.4,-12.4,-12.200000000000001,44.300000000000004,16
612,10339.0,0.4,0.5,-0.2,-0.8,3.1,9.1,-12.200000000000001,0.7,43.4,16
613,10357.0,0.1,0.6000000000000001,0.7000000000000001,-1.1,3.2,10.0,-17.1,7.1000000000000005,41.199999999999996,16
614,10372.0,-0.1,0.6000000000000001,1.3,-1.3,3.1,10.600000000000001,-19.200000000000003,9.0,40.1,16
615,10388.0,-0.2,0.6000000000000001,2.0,-1.4000000000000001,3.1,11.3,-17.5,9.8,36.300000000000004,16
616,10405.0,-0.1,0.8,2.3000000000000003,-1.4000000000000001,3.3000000000000003,11.700000000000001,-7.300000000000001,5.500000000000001,28.900000000000002,16
617,10422.0,0.0,1.0,2.2,-1.2000000000000002,3.8000000000000003,11.4,-1.1,3.1,24.1,16
618,10439.0,0.2,1.4000000000000001,1.9000000000000001,-1.1,3.9000000000000004,11.3,5.1000000000000005,2.5,12.299999999999999,16
619,10456.0,0.2,1.4000000000000001,2.1,-1.1,3.9000000000000004,11.5,-2.3,2.8,0.4,16
620,10472.0,-0.30000000000000004,0.8,2.8000000000000003,-1.5,3.3000000000000003,12.3,-11.000000000000002,-6.600000000000001,-7.500000000000001,16
621,10488.0,-0.2,0.4,3.2,-1.4000000000000001,3.0,12.700000000000001,-11.3,-12.100000000000001,-8.3,16
622,10505.0,1.1,0.6000000000000001,2.8000000000000003,0.0,3.1,12.3,-0.1,-28.0,-11.8,16
623,10522.0,1.4000000000000001,0.7000000000000001,2.8000000000000003,0.30000000000000004,3.3000000000000003,12.600000000000001,-3.6000000000000005,-20.8,-19.0,16
624,10538.0,1.3,0.7000000000000001,3.3000000000000003,0.2,3.1,12.8,-13.200000000000003,-11.6,-22.1,16
625,10555.0,0.9,-0.1,4.0,-0.2,2.3000000000000003,13.600000000000001,-19.1,-4.9,-28.500000000000004,16
626,10572.0,0.6000000000000001,-0.6000000000000001,4.2,-0.5,1.8,13.9,-7.0,6.4,-30.599999999999998,16
627,10588.0,0.30000000000000004,-1.2000000000000002,3.2,-0.8,1.1,12.9,4.5,10.299999999999999,-31.2,16
628,10605.0,0.30000000000000004,-1.2000000000000002,1.2000000000000002,-0.9,1.2000000000000002,10.8,30.4,3.0,-31.2,16
629,10622.0,1.1,-0.9,-0.2,0.0,1.7000000000000002,9.4,39.699999999999996,-5.8,-29.500000000000004,16
630,10638.0,1.5,-0.8,-0.4,0.30000000000000004,1.8,9.200000000000001,34.1,-2.8,-30.9,16
631,10663.0,1.4000000000000001,-1.1,-0.30000000000000004,0.1,1.5,9.3,4.1,25.1,-33.6,16
632,10672.0,1.2000000000000002,-1.3,0.0,0.1,1.5,9.3,4.1,25.1,-33.6,16
633,10688.0,0.8,-1.7000000000000002,0.5,-0.5,0.9,10.100000000000001,-7.500000000000001,27.3,-34.1,16
634,10705.0,0.1,-2.1,0.6000000000000001,-1.4000000000000001,0.4,10.200000000000001,4.800000000000001,26.9,-32.300000000000004,16
635,10722.0,-0.2,-1.7000000000000002,-1.1,-1.8,0.9,8.4,32.6,10.5,-24.3,16
636,10738.0,-0.1,-1.4000000000000001,-1.8,-1.7000000000000002,1.2000000000000002,7.7,39.50000000000001,1.3,-21.7,16
637,10755.0,-0.2,-1.3,-2.3000000000000003,-1.8,1.4000000000000001,7.1000000000000005,31.5,-1.9,-22.3,16
638,10772.0,-0.4,-1.3,-2.6,-2.0,1.5,6.800000000000001,23.700000000000003,-6.4,-21.6,16
639,10788.0,-0.4,-1.4000000000000001,-2.5,-2.0,1.5,6.800000000000001,24.1,-13.900000000000002,-20.3,16
640,10805.0,-0.2,-1.6,-2.1,-1.7000000000000002,1.3,7.300000000000001,24.599999999999998,-25.6,-17.5,16
641,10822.0,0.1,-1.5,-1.6,-1.4000000000000001,1.4000000000000001,7.7,25.1,-26.9,-15.5,16
642,10838.0,0.2,-1.5,-1.5,-1.2000000000000002,1.5,7.800000000000001,25.200000000000003,-25.7,-14.300000000000002,16
643,10855.0,0.30000000000000004,-1.1,-1.6,-1.1,1.9000000000000001,7.7,22.2,-22.2,-12.5,16
644,10872.0,0.4,-1.2000000000000002,-0.7000000000000001,-0.9,1.8,8.6,7.9,-21.1,-10.4,16
645,10890.0,0.30000000000000004,-1.3,0.0,-1.0,1.7000000000000002,9.3,4.4,-12.5,-9.600000000000001,16
646,10905.0,-0.30000000000000004,-1.3,0.7000000000000001,-1.6,1.8,10.0,11.4,-3.6000000000000005,-6.300000000000001,16
647,10922.0,-0.8,-1.3,1.0,-2.1,1.8,10.3,21.400000000000002,1.1,0.9000000000000001,16
648,10939.0,-1.0,-1.3,0.7000000000000001,-2.3000000000000003,1.9000000000000001,9.9,23.800000000000004,2.5,4.800000000000001,16
649,10956.0,-1.0,-1.1,0.30000000000000004,-2.3000000000000003,2.1,9.5,24.900000000000002,-2.2,12.299999999999999,16
650,10972.0,-1.0,-1.0,0.2,-2.3000000000000003,2.3000000000000003,9.4,24.8,-7.300000000000001,18.0,16
651,10988.0,-1.0,-0.8,0.2,-2.2,2.5,9.4,23.400000000000002,-9.600000000000001,19.9,16
652,11005.0,-0.9,-0.7000000000000001,0.5,-2.1,2.7,9.700000000000001,16.3,-11.900000000000002,23.0,16
653,11022.0,-1.3,-0.6000000000000001,0.9,-2.4000000000000004,2.8000000000000003,10.100000000000001,5.500000000000001,-12.600000000000001,25.7,16
654,11038.0,-1.3,-0.7000000000000001,1.3,-2.4000000000000004,2.8000000000000003,10.5,-0.2,-12.200000000000001,28.500000000000004,16
655,11056.0,-1.1,-0.7000000000000001,2.1,-2.2,2.8000000000000003,11.3,-6.600000000000001,-4.5,31.400000000000002,16
656,11072.0,-1.0,-0.5,1.8,-2.0,2.9000000000000004,11.0,-0.2,-5.300000000000001,31.9,16
657,11088.0,-0.9,-0.2,1.8,-1.9000000000000001,3.2,11.100000000000001,-0.4,-2.3,32.0,16
658,11105.0,-0.8,-0.4,2.1,-1.7000000000000002,3.0,11.4,-13.900000000000002,15.8,30.5,16
659,11122.0,-0.8,-0.5,2.3000000000000003,-1.9000000000000001,2.9000000000000004,11.600000000000001,-24.3,28.500000000000004,27.099999999999998,16
660,11138.0,-0.9,-0.7000000000000001,2.4000000000000004,-2.0,2.6,11.700000000000001,-28.400000000000002,34.300000000000004,25.8,16
661,11159.0,-1.5,-1.1,1.9000000000000001,-2.7,2.1,11.200000000000001,-34.50000000000001,46.7,23.099999999999998,16
662,11172.0,-1.6,-1.3,0.9,-2.9000000000000004,1.8,10.200000000000001,-29.600000000000005,40.1,19.700000000000003,16
663,11188.0,-1.4000000000000001,-1.2000000000000002,0.2,-2.8000000000000003,1.9000000000000001,9.600000000000001,-23.2,32.1,16.1,16
664,11205.0,-1.3,-0.6000000000000001,-0.9,-2.8000000000000003,2.4000000000000004,8.5,-7.500000000000001,22.2,6.9,16
665,11222.0,-1.2000000000000002,-0.30000000000000004,-2.0,-2.8000000000000003,2.6,7.4,-1.6,12.4,0.8,16
666,11242.0,-0.8,-0.6000000000000001,-2.2,-2.4000000000000004,2.4000000000000004,7.1000000000000005,-5.8,11.3,0.30000000000000004,16
667,11259.0,-0.8,-0.8,-1.9000000000000001,-2.4000000000000004,1.9000000000000001,7.9,-13.700000000000001,22.6,5.8,16
668,11272.0,-0.7000000000000001,-1.2000000000000002,-1.2000000000000002,-2.4000000000000004,1.7000000000000002,8.1,-14.700000000000001,27.700000000000003,10.600000000000001,16
669,11288.0,-0.8,-1.4000000000000001,-1.1,-2.5,1.4000000000000001,8.0,-8.3,27.6,21.6,16
670,11305.0,-0.5,-1.3,-1.7000000000000002,-2.3000000000000003,1.6,7.6000000000000005,-3.0,24.3,26.6,16
671,11322.0,0.0,-0.9,-3.0,-1.8,2.0,6.300000000000001,6.2,19.200000000000003,32.9,16
672,11338.0,0.5,-0.5,-3.9000000000000004,-1.4000000000000001,2.4000000000000004,5.300000000000001,4.800000000000001,12.200000000000001,34.400000000000006,16
673,11355.0,0.6000000000000001,-0.5,-4.0,-1.2000000000000002,2.5,5.2,0.5,10.299999999999999,33.7,16
674,11372.0,0.7000000000000001,-0.5,-3.7,-1.1,2.5,5.4,-12.100000000000001,7.400000000000001,32.5,16
675,11388.0,0.8,-0.8,-2.4000000000000004,-1.0,2.1,6.800000000000001,-20.2,4.0,33.50000000000001,16
676,11405.0,1.0,-0.8,-1.9000000000000001,-0.7000000000000001,2.1,7.300000000000001,-18.700000000000003,0.2,34.900000000000006,16
677,11422.0,1.6,-0.30000000000000004,-1.0,-0.1,2.5,8.200000000000001,-14.600000000000001,-8.100000000000001,37.0,16
678,11438.0,1.9000000000000001,0.1,0.2,0.2,2.9000000000000004,9.4,-19.6,3.8,35.699999999999996,16
679,11455.0,1.7000000000000002,0.2,0.7000000000000001,0.1,2.9000000000000004,9.9,-23.0,11.000000000000002,33.9,16
680,11473.0,1.2000000000000002,0.2,1.8,-0.5,3.0,11.0,-24.7,13.8,29.700000000000006,16
681,11488.0,0.6000000000000001,0.1,2.5,-1.1,2.7,11.8,-18.0,12.100000000000001,25.8,16
682,11505.0,0.4,0.1,2.5,-1.2000000000000002,2.8000000000000003,11.700000000000001,-12.100000000000001,10.600000000000001,22.9,16
683,11522.0,0.30000000000000004,0.30000000000000004,2.2,-1.3,3.0,11.5,-0.9000000000000001,2.4000000000000004,14.200000000000001,16
684,11538.0,0.1,0.4,2.1,-1.5,3.1,11.4,12.7,-2.0,4.6,16
685,11564.0,0.4,0.7000000000000001,1.5,-1.2000000000000002,3.4000000000000004,10.8,22.2,-20.8,-1.4,16
686,11572.0,0.7000000000000001,0.8,1.4000000000000001,-0.8,3.6,10.700000000000001,20.900000000000002,-29.400000000000002,-4.4,16
687,11589.0,0.9,0.8,1.8,-0.5,3.7,11.100000000000001,8.5,-33.1,-12.9,16
688,11605.0,0.8,0.6000000000000001,2.2,-0.6000000000000001,3.4000000000000004,11.5,2.8,-31.099999999999998,-16.200000000000003,16
689,11622.0,0.7000000000000001,0.30000000000000004,2.5,-0.6000000000000001,3.1,11.9,1.1,-35.699999999999996,-19.9,16
690,11638.0,0.8,0.2,2.4000000000000004,-0.4,3.1,11.8,3.6000000000000005,-39.0,-20.2,16
691,11655.0,0.9,0.1,2.5,-0.2,3.0,11.9,-0.4,-35.1,-19.9,16
692,11672.0,0.8,-0.1,2.8000000000000003,-0.30000000000000004,2.7,12.3,-9.700000000000001,-22.1,-22.4,16
693,11688.0,0.1,-0.8,3.1,-1.0,2.0,12.600000000000001,-12.5,-9.100000000000001,-24.400000000000002,16
694,11705.0,-0.2,-1.2000000000000002,3.1,-1.3,1.5,12.600000000000001,-11.1,-2.1,-24.0,16
695,11722.0,-0.30000000000000004,-1.6,1.7000000000000002,-1.4000000000000001,1.1,11.3,2.8,-0.6000000000000001,-24.1,16
696,11738.0,0.30000000000000004,-1.0,-0.5,-0.8,1.7000000000000002,9.0,20.599999999999998,-18.700000000000003,-26.400000000000006,16
697,11756.0,0.6000000000000001,-0.7000000000000001,-1.2000000000000002,-0.4,2.0,8.4,15.700000000000001,-24.900000000000002,-31.400000000000002,16
698,11772.0,1.3,-0.5,-1.6,0.30000000000000004,2.3000000000000003,7.9,6.600000000000001,-20.2,-35.1,16
699,11788.0,1.1,-0.6000000000000001,-1.0,0.1,2.2,8.5,-12.5,-2.3,-41.199999999999996,16
700,11805.0,0.8,-0.7000000000000001,-0.7000000000000001,-0.2,1.9000000000000001,8.8,-21.400000000000002,6.699999999999999,-41.4,16
701,11824.0,0.30000000000000004,-1.4000000000000001,0.6000000000000001,-0.8,1.2000000000000002,10.100000000000001,-29.400000000000002,13.700000000000001,-37.50000000000001,16
702,11839.0,-0.1,-1.6,0.8,-1.2000000000000002,0.9,10.4,-12.4,16.8,-32.300000000000004,16
703,11856.0,-0.30000000000000004,-1.4000000000000001,0.30000000000000004,-1.5,1.1,9.8,3.1,18.6,-28.3,16
704,11872.0,-0.6000000000000001,-0.7000000000000001,-1.3,-1.8,1.8,8.200000000000001,25.900000000000002,13.8,-21.6,16
705,11888.0,-0.6000000000000001,-0.6000000000000001,-2.0,-1.9000000000000001,2.0,7.4,22.3,11.3,-20.400000000000002,16
706,11905.0,-0.6000000000000001,-0.6000000000000001,-2.1,-2.0,2.0,7.4,15.000000000000002,7.500000000000001,-19.6,16
707,11922.0,-0.6000000000000001,-0.8,-2.0,-2.0,1.9000000000000001,7.4,14.5,3.1,-18.900000000000002,16
708,11938.0,-0.5,-1.0,-1.4000000000000001,-1.9000000000000001,1.6,8.0,15.2,-3.3000000000000007,-15.000000000000002,16
709,11955.0,-0.30000000000000004,-1.1,-1.3,-1.7000000000000002,1.6,8.1,22.9,-10.200000000000001,-13.700000000000001,16
710,11972.0,0.0,-0.8,-1.3,-1.4000000000000001,2.0,8.0,26.9,-11.1,-13.3,16
711,11988.0,0.1,-0.7000000000000001,-1.2000000000000002,-1.3,2.2,8.1,27.700000000000003,-5.8,-11.8,16
712,12005.0,-0.2,-0.8,-0.7000000000000001,-1.7000000000000002,1.9000000000000001,9.1,20.1,9.899999999999999,-3.8,16
713,12022.0,-0.30000000000000004,-1.1,0.2,-1.8,1.8,9.5,23.2,9.899999999999999,-0.5,16
714,12038.0,-0.5,-1.1,0.30000000000000004,-2.0,1.9000000000000001,9.600000000000001,34.60000000000001,6.2,6.600000000000001,16
715,12055.0,-0.5,-0.8,-0.1,-2.0,2.4000000000000004,9.1,38.900000000000006,3.1,13.5,16
716,12072.0,-0.5,-0.6000000000000001,-0.30000000000000004,-1.9000000000000001,2.6,8.8,38.1,1.3,16.1,16
717,12088.0,-0.5,-0.4,-0.6000000000000001,-1.9000000000000001,3.0,8.5,31.6,-6.0,19.1,16
718,12105.0,-0.2,-0.4,-0.30000000000000004,-1.6,3.1,8.8,19.6,-13.8,21.7,16
719,12122.0,-0.1,-0.30000000000000004,0.1,-1.5,3.1,9.200000000000001,12.600000000000001,-16.1,22.1,16
720,12138.0,-0.2,-0.1,0.8,-1.5,3.3000000000000003,9.9,-1.1,-14.700000000000001,22.1,16
721,12164.0,-0.30000000000000004,-0.30000000000000004,1.4000000000000001,-1.5,3.2,10.600000000000001,-11.3,-9.600000000000001,23.0,16
722,12173.0,-0.4,-0.4,1.8,-1.6,3.0,10.9,-11.700000000000001,-7.8,23.0,16
723,12188.0,-0.5,-0.30000000000000004,1.8,-1.7000000000000002,3.1,11.0,0.5,-9.600000000000001,22.9,16
724,12205.0,-0.1,0.1,1.1,-1.2000000000000002,3.5,10.3,13.200000000000003,-8.899999999999999,24.7,16
725,12222.0,0.30000000000000004,0.30000000000000004,0.8,-0.7000000000000001,3.8000000000000003,10.0,13.100000000000001,-3.9,24.200000000000003,16
726,12238.0,0.6000000000000001,0.5,0.7000000000000001,-0.4,4.0,9.9,-1.7,10.9,18.3,16
727,12255.0,0.5,0.7000000000000001,1.7000000000000002,-0.6000000000000001,4.1000000000000005,10.9,-30.200000000000003,43.70000000000001,12.7,16
728,12272.0,0.0,0.4,2.6,-1.2000000000000002,3.8000000000000003,11.8,-48.10000000000001,66.5,9.600000000000001,16
729,12288.0,-2.1,-1.0,4.1000000000000005,-3.6,2.1,13.4,-71.10000000000001,99.5,5.9,16
730,12305.0,-2.7,-1.5,2.6,-4.6000000000000005,1.5,12.0,-34.2,82.50000000000001,9.2,16
731,12322.0,-2.2,-1.3,0.8,-4.2,1.7000000000000002,10.100000000000001,-5.0,64.10000000000001,12.0,16
732,12338.0,-1.3,-0.5,-2.7,-3.4000000000000004,2.6,6.6000000000000005,31.799999999999997,45.099999999999994,12.200000000000001,16
733,12355.0,-1.3,0.2,-3.9000000000000004,-3.5,3.3000000000000003,5.2,15.2,31.799999999999997,3.6000000000000005,16
734,12372.0,-1.0,0.2,-3.8000000000000003,-3.3000000000000003,3.3000000000000003,5.300000000000001,-8.0,21.8,-1.9,16
735,12388.0,-0.9,-0.9,-1.5,-3.3000000000000003,2.1,7.6000000000000005,-44.5,19.700000000000003,-8.0,16
736,12405.0,-0.9,-1.5,-0.30000000000000004,-3.3000000000000003,1.3,8.9,-31.0,8.2,-4.0,16
737,12422.0,-0.7000000000000001,-1.4000000000000001,-0.4,-3.1,1.4000000000000001,8.8,-8.700000000000001,-6.600000000000001,-0.8,16
738,12438.0,0.0,-0.9,-1.7000000000000002,-2.4000000000000004,2.0,7.5,15.000000000000002,-13.200000000000003,6.500000000000001,16
739,12456.0,0.30000000000000004,-0.7000000000000001,-2.9000000000000004,-2.0,2.2,6.2,3.5,2.2,12.0,16
740,12472.0,0.30000000000000004,-0.7000000000000001,-3.0,-2.0,2.2,6.1000000000000005,-5.6,4.2,13.200000000000003,16
741,12488.0,0.4,-0.8,-2.6,-1.9000000000000001,2.1,6.5,-14.300000000000002,-3.9,15.299999999999999,16
742,12505.0,0.6000000000000001,-0.5,-2.1,-1.7000000000000002,2.3000000000000003,7.0,-12.9,-13.399999999999999,17.1,16
743,12522.0,0.6000000000000001,-0.4,-2.0,-1.6,2.4000000000000004,7.1000000000000005,-12.600000000000001,-13.900000000000002,17.799999999999997,16
744,12538.0,0.7000000000000001,-0.1,-1.8,-1.4000000000000001,2.7,7.300000000000001,-14.800000000000002,-13.200000000000003,19.300000000000004,16
745,12555.0,0.9,0.1,-1.3,-1.2000000000000002,2.8000000000000003,7.800000000000001,-20.400000000000002,-16.900000000000002,19.200000000000003,16
746,12572.0,0.9,0.2,-0.9,-1.1,2.9000000000000004,8.200000000000001,-31.0,-11.700000000000001,18.900000000000002,16
747,12588.0,0.8,0.5,-0.2,-1.2000000000000002,3.1,9.0,-34.800000000000004,-8.5,18.4,16
748,12605.0,0.30000000000000004,0.7000000000000001,0.4,-1.6,3.2,9.600000000000001,-37.800000000000004,-5.300000000000001,18.1,16
749,12621.0,0.2,0.9,0.6000000000000001,-1.8,3.3000000000000003,10.0,-36.9,-1.7,18.4,16
750,12638.0,0.0,1.0,0.8,-2.0,3.3000000000000003,10.100000000000001,-35.699999999999996,0.2,17.0,16
751,12655.0,-0.30000000000000004,1.1,0.9,-2.2,3.4000000000000004,10.200000000000001,-28.200000000000003,0.6000000000000001,12.299999999999999,16
752,12672.0,-0.4,1.1,0.8,-2.4000000000000004,3.4000000000000004,10.3,-12.4,-6.1000000000000005,8.3,16
753,12688.0,-0.6000000000000001,1.3,0.9,-2.5,3.6,10.200000000000001,-3.5,-12.5,8.0,16
754,12705.0,-0.5,1.4000000000000001,1.0,-2.3000000000000003,3.7,10.4,4.0,-23.900000000000006,9.2,16
755,12722.0,-0.5,1.3,1.1,-2.1,3.4000000000000004,11.0,0.1,-26.700000000000003,9.3,16
756,12739.0,-0.5,0.8,2.3000000000000003,-2.2,3.0,11.700000000000001,-14.700000000000001,-28.3,7.300000000000001,16
757,12761.0,-0.5,0.5,2.6,-2.1,2.7,12.0,-15.000000000000002,-32.2,3.4,16
758,12772.0,-0.1,1.0,2.2,-1.5,3.2,11.700000000000001,-5.6,-44.6,-1.9,16
759,12788.0,0.1,1.1,2.1,-1.3,3.3000000000000003,11.600000000000001,-10.5,-41.800000000000004,-4.7,16
760,12805.0,0.5,0.7000000000000001,2.9000000000000004,-0.7000000000000001,2.8000000000000003,12.5,-29.600000000000005,-30.699999999999996,-12.7,16
761,12822.0,0.4,0.4,3.4000000000000004,-1.0,2.0,13.4,-33.800000000000004,-20.8,-18.5,16
762,12838.0,-0.30000000000000004,-0.4,3.9000000000000004,-1.4000000000000001,1.6,13.5,-32.5,-11.6,-18.6,16
763,12860.0,-1.0,-1.1,3.5,-2.1,0.7000000000000001,13.200000000000001,-24.599999999999998,4.4,-14.200000000000001,16
764,12872.0,-0.6000000000000001,-1.0,1.7000000000000002,-1.8,0.8,11.5,4.2,-4.7,-10.5,16
765,12888.0,-0.1,-0.7000000000000001,0.6000000000000001,-1.3,1.1,10.3,19.300000000000004,-14.5,-10.200000000000001,16
766,12905.0,0.7000000000000001,0.0,-0.7000000000000001,-0.4,1.9000000000000001,9.0,30.1,-18.900000000000002,-14.0,16
767,12922.0,0.5,0.30000000000000004,-0.8,-0.6000000000000001,2.3000000000000003,8.9,16.6,-5.300000000000001,-21.6,16
768,12938.0,0.4,0.1,-0.4,-0.7000000000000001,2.0,9.3,8.100000000000001,1.7,-21.900000000000002,16
769,12956.0,0.4,-0.5,0.1,-0.8,1.4000000000000001,9.8,0.4,13.000000000000002,-18.200000000000003,16
770,12972.0,0.2,-0.8,0.30000000000000004,-1.3,1.0,10.0,0.8,16.1,-16.200000000000003,16
771,12988.0,-0.30000000000000004,-0.9,-0.2,-1.5,1.0,9.5,11.2,16.0,-10.4,16
772,13005.0,-0.2,-0.5,-1.6,-1.5,1.5,8.1,23.6,4.9,-4.0,16
773,13022.0,-0.2,-0.1,-2.6,-1.5,2.0,7.0,22.700000000000003,-2.1,-1.9,16
774,13038.0,-0.2,-0.1,-2.8000000000000003,-1.4000000000000001,2.1,6.800000000000001,18.4,-5.2,-1.8000000000000003,16
775,13059.0,0.2,-0.2,-2.6,-1.0,2.0,7.0,11.000000000000002,-15.100000000000001,-4.1,16
776,13072.0,0.4,-0.4,-1.8,-0.8,1.8,7.800000000000001,5.4,-18.3,-5.9,16
777,13088.0,0.4,-0.5,-1.5,-0.7000000000000001,1.7000000000000002,8.1,4.300000000000001,-17.7,-5.8,16
778,13105.0,0.5,-0.30000000000000004,-1.9000000000000001,-0.6000000000000001,1.9000000000000001,7.7,5.300000000000001,-24.7,-3.1,16
779,13122.0,1.2000000000000002,-0.30000000000000004,-1.1,0.2,2.0,8.5,-1.6,-25.6,-1.1,16
780,13139.0,1.1,-0.2,-0.6000000000000001,-0.1,1.8,9.5,-6.300000000000001,-18.0,-2.1,16
781,13160.0,0.6000000000000001,-0.5,0.5,-0.4,1.5,10.4,-0.8,-7.0,0.30000000000000004,16
782,13172.0,0.4,-0.8,1.0,-0.5,1.4000000000000001,10.600000000000001,8.2,-4.800000000000001,1.8000000000000003,16
783,13189.0,0.30000000000000004,-0.7000000000000001,0.9,-0.6000000000000001,1.5,10.5,17.799999999999997,-1.4,3.2,16
784,13205.0,-0.2,-0.5,0.30000000000000004,-1.0,1.8,9.8,30.599999999999998,1.4,6.500000000000001,16
785,13222.0,-0.2,-0.5,-0.1,-1.1,1.9000000000000001,9.4,33.7,-0.6000000000000001,10.8,16
786,13239.0,-0.4,-0.6000000000000001,-0.2,-1.2000000000000002,1.9000000000000001,9.3,32.400000000000006,-2.4000000000000004,12.5,16
787,13255.0,-0.1,-0.5,-0.30000000000000004,-0.9,2.0,9.200000000000001,26.9,-11.6,17.5,16
788,13272.0,-0.1,-0.30000000000000004,0.0,-0.8,2.3000000000000003,9.5,17.300000000000004,-13.900000000000002,17.9,16
789,13288.0,-0.30000000000000004,-0.30000000000000004,0.4,-1.0,2.4000000000000004,9.8,9.100000000000001,-11.4,17.5,16
790,13305.0,-0.9,-0.6000000000000001,1.2000000000000002,-1.6,2.1,10.700000000000001,-6.699999999999999,-3.9,18.1,16
791,13322.0,-1.0,-0.8,2.1,-1.7000000000000002,1.8,11.600000000000001,-8.4,-3.9,20.0,16
792,13338.0,-0.8,-0.7000000000000001,2.0,-1.5,1.9000000000000001,11.5,-1.3,-7.200000000000001,20.3,16
793,13355.0,-0.7000000000000001,-0.4,1.6,-1.3,2.2,11.200000000000001,10.0,-4.7,20.2,16
794,13378.0,-0.5,-0.30000000000000004,1.4000000000000001,-1.1,2.3000000000000003,10.9,0.5,8.5,18.3,16
795,13388.0,-0.5,-0.5,1.5,-1.2000000000000002,2.0,11.200000000000001,-12.8,19.0,15.100000000000001,16
796,13405.0,-0.7000000000000001,-0.8,1.8,-1.4000000000000001,1.7000000000000002,11.4,-20.1,26.5,14.100000000000001,16
797,13422.0,-1.5,-1.4000000000000001,1.9000000000000001,-2.3000000000000003,1.1,11.5,-29.900000000000006,40.300000000000004,10.4,16
798,13438.0,-1.7000000000000002,-1.4000000000000001,1.6,-2.8000000000000003,1.1,10.4,-15.299999999999999,33.50000000000001,5.8,16
799,13455.0,-1.8,-1.1,-0.2,-2.8000000000000003,1.3,9.4,-3.9,24.900000000000002,3.7000000000000006,16
800,13472.0,-1.3,-0.4,-2.2,-2.4000000000000004,2.0,7.4,10.5,6.500000000000001,0.6000000000000001,16
801,13488.0,-0.7000000000000001,-0.1,-2.5,-1.7000000000000002,2.3000000000000003,7.0,-1.5,-3.0,-2.2,16
802,13505.0,-0.4,-0.30000000000000004,-2.1,-1.5,2.0,7.5,-14.900000000000002,4.0,-1.8000000000000003,16
803,13521.0,-0.2,-0.8,-1.2000000000000002,-1.3,1.5,8.3,-31.5,20.8,2.7,16
804,13538.0,-0.4,-1.3,0.0,-1.6,0.9,9.600000000000001,-30.5,19.9,9.5,16
805,13555.0,-0.30000000000000004,-1.2000000000000002,-0.1,-1.5,0.9,9.4,-22.700000000000003,20.8,13.399999999999999,16
806,13572.0,-0.1,-0.7000000000000001,-1.2000000000000002,-1.4000000000000001,1.4000000000000001,8.4,-2.4000000000000004,25.8,19.1,16
807,13588.0,-0.1,-0.4,-2.0,-1.5,2.1,6.800000000000001,4.1,25.4,20.2,16
808,13605.0,0.0,0.2,-3.3000000000000003,-1.3,2.3000000000000003,6.2,8.5,14.0,19.400000000000002,16
809,13621.0,0.30000000000000004,0.0,-3.4000000000000004,-1.1,2.2,6.1000000000000005,-0.6000000000000001,6.0,17.5,16
810,13638.0,0.5,0.0,-3.4000000000000004,-0.8,2.2,6.1000000000000005,-9.100000000000001,-0.4,17.7,16
811,13655.0,0.4,-0.1,-2.7,-1.0,2.0,6.7,-13.000000000000002,-6.1000000000000005,19.1,16
812,13672.0,0.9,-0.1,-2.0,-0.4,2.0,7.4,-13.8,-15.5,25.7,16
813,13688.0,1.4000000000000001,0.6000000000000001,-1.7000000000000002,0.2,2.7,7.800000000000001,-9.899999999999999,-19.9,27.2,16
814,13705.0,1.2000000000000002,0.9,-1.2000000000000002,0.1,3.0,8.200000000000001,-14.5,-13.3,26.400000000000006,16
815,13722.0,0.8,0.9,-0.1,-0.30000000000000004,2.9000000000000004,9.3,-27.6,0.6000000000000001,26.6,16
816,13738.0,0.6000000000000001,0.6000000000000001,0.9,-0.5,2.6,10.4,-25.5,0.1,25.8,16
817,13755.0,0.4,0.6000000000000001,1.2000000000000002,-0.7000000000000001,2.5,10.700000000000001,-21.300000000000004,1.3,24.7,16
818,13772.0,0.0,0.7000000000000001,1.5,-1.1,2.6,11.0,-13.200000000000003,5.0,22.4,16
819,13788.0,0.1,0.9,1.4000000000000001,-0.9,2.8000000000000003,10.9,-5.0,-5.1000000000000005,16.900000000000002,16
820,13805.0,0.4,1.0,1.5,-0.6000000000000001,2.9000000000000004,11.0,-3.3000000000000007,-10.299999999999999,12.299999999999999,16
821,13821.0,0.6000000000000001,1.0,2.1,-0.4,2.9000000000000004,11.700000000000001,-3.3000000000000007,-9.3,0.0,16
822,13838.0,0.30000000000000004,0.7000000000000001,3.0,-0.7000000000000001,2.6,12.600000000000001,0.0,-9.3,-11.5,16
823,13857.0,0.1,0.4,3.4000000000000004,-1.2000000000000002,2.0,13.100000000000001,11.8,-9.100000000000001,-19.400000000000002,16
824,13872.0,-0.30000000000000004,-0.1,3.2,-1.3,1.8,12.8,21.300000000000004,-11.000000000000002,-21.1,16
825,13888.0,0.7000000000000001,0.30000000000000004,1.4000000000000001,-0.2,2.3000000000000003,11.0,39.300000000000004,-26.000000000000004,-20.400000000000002,16
826,13905.0,1.2000000000000002,0.5,1.1,0.4,2.6,10.8,36.9,-30.1,-23.0,16
827,13921.0,1.5,0.30000000000000004,2.0,0.7000000000000001,2.5,11.700000000000001,11.4,-17.200000000000003,-31.5,16
828,13938.0,1.5,0.1,2.5,0.7000000000000001,2.3000000000000003,12.200000000000001,3.3000000000000007,-10.600000000000001,-35.699999999999996,16
829,13955.0,1.0,-0.4,3.1,0.2,1.8,12.700000000000001,2.7,-2.1,-41.0,16
830,13972.0,0.7000000000000001,-0.8,2.9000000000000004,-0.1,1.4000000000000001,12.600000000000001,2.4000000000000004,16.1,-42.7,16
831,13988.0,-0.1,-1.0,1.8,-1.0,1.2000000000000002,11.5,7.400000000000001,28.700000000000003,-44.8,16
832,14005.0,-0.2,-1.0,0.8,-1.2000000000000002,1.2000000000000002,10.5,16.0,25.1,-43.6,16
833,14021.0,0.7000000000000001,-0.8,-1.0,-0.4,1.4000000000000001,8.700000000000001,30.9,10.700000000000001,-40.6,16
834,14038.0,0.8,-0.4,-1.8,-0.30000000000000004,1.9000000000000001,7.800000000000001,24.8,7.1000000000000005,-42.1,16
835,14055.0,1.1,-0.4,-1.7000000000000002,-0.1,1.9000000000000001,8.0,14.300000000000002,8.2,-41.1,16
836,14072.0,1.4000000000000001,-0.7000000000000001,-0.9,0.1,1.6,8.700000000000001,-5.0,18.0,-41.7,16
837,14089.0,0.8,-1.2000000000000002,-0.2,-0.5,1.0,9.4,-14.600000000000001,22.6,-42.0,16
838,14105.0,0.5,-1.4000000000000001,0.0,-1.0,0.7000000000000001,9.700000000000001,-6.4,18.6,-38.60000000000001,16
839,14122.0,0.4,-1.5,-0.1,-1.1,0.7000000000000001,9.4,4.1,15.5,-36.5,16
840,14138.0,0.1,-1.1,-1.0,-1.4000000000000001,1.1,8.5,22.9,8.2,-34.2,16
841,14158.0,0.0,-1.0,-1.3,-1.6,1.2000000000000002,8.0,27.099999999999998,3.3000000000000007,-32.2,16
842,14172.0,0.1,-1.0,-1.7000000000000002,-1.5,1.2000000000000002,7.800000000000001,27.6,-1.2000000000000002,-31.7,16
843,14188.0,0.2,-1.1,-1.7000000000000002,-1.4000000000000001,1.2000000000000002,7.800000000000001,31.0,-9.8,-30.1,16
844,14205.0,0.2,-1.2000000000000002,-1.6,-1.4000000000000001,1.2000000000000002,7.9,31.7,-15.8,-25.1,16
845,14221.0,0.4,-1.3,-1.2000000000000002,-1.1,1.2000000000000002,8.200000000000001,31.0,-17.799999999999997,-21.7,16
846,14238.0,0.8,-1.0,-1.5,-0.6000000000000001,1.5,7.9,28.900000000000002,-21.1,-18.0,16
847,14255.0,0.9,-1.0,-1.2000000000000002,-0.6000000000000001,1.5,8.200000000000001,22.1,-21.200000000000003,-17.0,16
848,14272.0,0.8,-1.1,-0.2,-0.6000000000000001,1.5,9.200000000000001,9.3,-12.299999999999999,-14.900000000000002,16
849,14288.0,0.2,-1.2000000000000002,0.9,-1.1,1.4000000000000001,10.3,11.1,-9.4,-12.7,16
850,14305.0,-0.30000000000000004,-1.1,1.1,-1.7000000000000002,1.5,10.5,21.300000000000004,-1.4,-6.4,16
851,14322.0,-0.6000000000000001,-1.1,0.8,-2.0,1.6,10.200000000000001,23.700000000000003,0.30000000000000004,-2.4000000000000004,16
852,14338.0,-0.8,-1.0,0.30000000000000004,-2.2,1.8,9.600000000000001,23.3,-4.4,5.9,16
853,14355.0,-0.8,-0.9,-0.1,-2.1,1.9000000000000001,9.200000000000001,20.900000000000002,-12.299999999999999,13.000000000000002,16
854,14371.0,-0.7000000000000001,-0.8,-0.30000000000000004,-2.0,2.0,9.0,18.5,-15.899999999999999,15.299999999999999,16
855,14388.0,-0.6000000000000001,-0.4,-0.6000000000000001,-1.8,2.5,8.700000000000001,9.600000000000001,-23.6,17.0,16
856,14405.0,-0.30000000000000004,-0.2,-0.2,-1.5,2.7,9.1,-7.6,-25.5,16.4,16
857,14422.0,-0.4,-0.30000000000000004,0.4,-1.5,2.6,9.700000000000001,-15.6,-21.300000000000004,15.6,16
858,14438.0,-0.6000000000000001,-0.30000000000000004,1.4000000000000001,-1.7000000000000002,2.5,10.8,-21.8,-12.5,14.200000000000001,16
859,14455.0,-0.5,-0.1,1.6,-1.5,2.6,11.0,-16.700000000000003,-7.699999999999999,13.8,16
860,14472.0,-0.5,0.0,1.6,-1.5,2.7,11.0,-13.100000000000001,-3.3000000000000007,13.000000000000002,16
861,14488.0,-0.4,0.2,1.4000000000000001,-1.4000000000000001,2.9000000000000004,10.8,-13.200000000000003,8.600000000000001,13.100000000000001,16
862,14505.0,0.0,0.2,1.3,-1.0,2.8000000000000003,10.700000000000001,-21.1,18.700000000000003,11.1,16
863,14521.0,-0.1,0.2,1.4000000000000001,-1.1,2.8000000000000003,10.9,-27.700000000000003,26.6,8.700000000000001,16
864,14538.0,-0.7000000000000001,-0.2,1.5,-1.9000000000000001,2.3000000000000003,11.100000000000001,-46.50000000000001,45.400000000000006,3.2,16
865,14555.0,-1.5,-0.9,1.9000000000000001,-2.9000000000000004,1.4000000000000001,11.5,-56.400000000000006,55.60000000000001,-2.4000000000000004,16
866,14573.0,-1.7000000000000002,-1.0,1.7000000000000002,-3.2,1.2000000000000002,11.3,-46.1,51.800000000000004,-5.300000000000001,16
867,14588.0,-1.7000000000000002,-0.4,-0.6000000000000001,-3.3000000000000003,1.7000000000000002,9.0,-6.500000000000001,26.5,-9.4,16
868,14605.0,-1.0,0.1,-2.2,-2.7,2.3000000000000003,7.300000000000001,11.4,6.500000000000001,-8.899999999999999,16
869,14622.0,-0.7000000000000001,0.1,-2.2,-2.4000000000000004,2.3000000000000003,7.4,4.1,4.1,-9.700000000000001,16
870,14638.0,-0.1,-0.2,-1.6,-1.8,1.9000000000000001,8.0,-17.9,10.1,-9.5,16
871,14655.0,0.1,-0.5,-0.5,-1.6,1.5,9.0,-21.7,17.7,-4.800000000000001,16
872,14672.0,0.1,-0.6000000000000001,-0.1,-1.7000000000000002,1.4000000000000001,9.4,-17.799999999999997,17.1,-2.1,16
873,14688.0,0.2,-0.30000000000000004,-0.5,-1.7000000000000002,1.7000000000000002,9.0,-4.4,18.5,4.9,16
874,14705.0,0.2,0.0,-1.6,-1.7000000000000002,2.0,7.9,1.3,24.1,10.200000000000001,16
875,14721.0,0.1,0.1,-2.0,-1.8,2.1,7.5,-0.2,24.0,11.6,16
876,14739.0,0.2,0.2,-2.4000000000000004,-1.8,2.1,7.0,-1.0,16.900000000000002,13.8,16
877,14755.0,0.4,0.30000000000000004,-2.6,-1.6,2.3000000000000003,6.800000000000001,-1.3,5.8,17.1,16
878,14772.0,0.9,0.4,-2.6,-1.1,2.4000000000000004,6.800000000000001,-7.200000000000001,-4.7,20.1,16
879,14788.0,1.1,0.5,-2.3000000000000003,-0.9,2.5,7.0,-12.7,-5.500000000000001,20.900000000000002,16
880,14805.0,1.1,0.6000000000000001,-1.6,-0.9,2.6,7.800000000000001,-22.3,-3.4,19.5,16
881,14822.0,1.0,0.7000000000000001,-1.3,-0.9,2.6,8.1,-22.8,-4.300000000000001,19.5,16
882,14838.0,1.2000000000000002,0.8,-0.7000000000000001,-0.7000000000000001,2.7,8.700000000000001,-19.300000000000004,-6.699999999999999,19.6,16
883,14855.0,1.0,1.0,-0.1,-0.9,2.8000000000000003,9.3,-16.900000000000002,-2.0,18.1,16
884,14873.0,0.8,1.1,0.30000000000000004,-1.1,2.9000000000000004,9.700000000000001,-14.300000000000002,0.8,16.900000000000002,16
885,14888.0,0.7000000000000001,1.1,0.6000000000000001,-1.1,2.9000000000000004,10.0,-13.5,1.3,15.000000000000002,16
886,14905.0,0.2,1.1,0.9,-1.6,2.8000000000000003,10.3,-11.900000000000002,1.9,10.200000000000001,16
887,14922.0,0.2,1.0,1.1,-1.4000000000000001,2.7,11.0,-5.6,-3.2,5.7,16
888,14938.0,0.4,1.0,1.6,-1.4000000000000001,2.7,11.100000000000001,2.2,-4.800000000000001,2.1,16
889,14955.0,0.5,1.3,1.5,-1.3,3.1,10.9,16.8,-9.700000000000001,-4.4,16
890,14971.0,0.4,1.3,1.6,-1.3,3.1,11.100000000000001,17.799999999999997,-9.899999999999999,-7.200000000000001,16
891,14988.0,0.30000000000000004,0.9,2.6,-1.4000000000000001,2.8000000000000003,12.100000000000001,12.7,-4.5,-13.6,16
892,15005.0,-0.4,0.4,3.4000000000000004,-2.2,2.3000000000000003,12.9,21.8,-5.7,-16.5,16
893,15021.0,0.2,0.30000000000000004,2.8000000000000003,-1.5,2.4000000000000004,12.3,39.1,-22.700000000000003,-12.100000000000001,16
894,15038.0,0.7000000000000001,0.4,2.4000000000000004,-1.0,2.5,11.9,40.4,-22.9,-11.3,16
895,15055.0,1.2000000000000002,0.7000000000000001,2.5,-0.4,2.9000000000000004,12.0,23.700000000000003,-14.300000000000002,-16.3,16
896,15071.0,0.7000000000000001,0.30000000000000004,3.3000000000000003,-0.9,2.5,12.8,7.200000000000001,-3.4,-23.400000000000002,16
897,15088.0,0.30000000000000004,-0.1,3.9000000000000004,-1.3,2.1,13.4,1.9,5.2,-25.6,16
898,15105.0,-0.8,-1.1,4.0,-2.5,1.1,13.5,-4.4,24.599999999999998,-26.5,16
899,15121.0,-0.8,-1.5,2.0,-2.6,0.7000000000000001,11.600000000000001,10.299999999999999,16.1,-22.1,16
900,15138.0,-0.30000000000000004,-1.5,1.0,-2.1,0.7000000000000001,10.600000000000001,23.900000000000006,6.0,-21.300000000000004,16
901,15156.0,0.1,-0.6000000000000001,-1.7000000000000002,-1.7000000000000002,1.7000000000000002,7.9,47.0,-7.0,-22.700000000000003,16
902,15172.0,1.1,0.0,-3.1,-0.7000000000000001,2.5,6.4,35.599999999999994,-26.799999999999997,-27.099999999999998,16
903,15188.0,1.4000000000000001,0.0,-2.8000000000000003,-0.30000000000000004,2.4000000000000004,6.7,16.900000000000002,-26.700000000000003,-31.0,16
904,15205.0,1.8,-0.5,-1.1,0.1,1.9000000000000001,8.4,-16.900000000000002,-5.7,-37.300000000000004,16
905,15222.0,1.3,-1.1,0.1,-0.4,1.3,9.700000000000001,-21.1,4.7,-41.50000000000001,16
906,15238.0,1.0,-1.2000000000000002,0.30000000000000004,-0.7000000000000001,1.1,9.8,-14.700000000000001,4.4,-41.300000000000004,16
907,15255.0,1.1,-1.1,-0.2,-0.7000000000000001,1.1,9.3,3.4,9.4,-37.2,16
908,15271.0,0.7000000000000001,-1.0,-1.1,-1.2000000000000002,1.3,8.4,17.1,12.9,-35.1,16
909,15288.0,0.6000000000000001,-0.8,-1.6,-1.3,1.4000000000000001,7.9,22.4,8.3,-34.300000000000004,16
910,15305.0,0.7000000000000001,-0.7000000000000001,-1.9000000000000001,-1.2000000000000002,1.6,7.5,29.400000000000002,-2.5,-33.300000000000004,16
911,15321.0,0.7000000000000001,-0.8,-2.0,-1.2000000000000002,1.6,7.4,30.4,-5.500000000000001,-33.1,16
912,15338.0,0.7000000000000001,-0.8,-1.7000000000000002,-1.2000000000000002,1.6,7.7,29.900000000000006,-7.6,-31.9,16
913,15355.0,0.7000000000000001,-1.0,-1.2000000000000002,-1.2000000000000002,1.5,8.200000000000001,27.6,-10.8,-27.3,16
914,15372.0,1.0,-0.9,-1.2000000000000002,-0.8,1.6,8.200000000000001,27.6,-16.0,-23.2,16
915,15388.0,1.2000000000000002,-0.9,-1.3,-0.7000000000000001,1.7000000000000002,8.0,25.5,-17.200000000000003,-22.3,16
916,15405.0,1.1,-0.6000000000000001,-0.9,-0.8,2.1,8.4,17.6,-13.8,-22.000000000000004,16
917,15422.0,0.4,-0.7000000000000001,0.0,-1.3,1.9000000000000001,9.200000000000001,8.3,-12.0,-20.2,16
918,15438.0,0.2,-0.9,0.5,-1.6,1.8,9.8,6.4,-10.0,-17.5,16
919,15459.0,-0.2,-1.1,1.2000000000000002,-1.9000000000000001,1.6,10.5,11.6,-8.4,-11.5,16
920,15472.0,-0.4,-0.9,0.9,-2.2,1.9000000000000001,10.200000000000001,22.1,-12.0,-5.0,16
921,15488.0,-0.5,-0.6000000000000001,0.7000000000000001,-2.2,2.1,10.0,25.7,-16.900000000000002,-1.8000000000000003,16
922,15505.0,-0.8,-0.30000000000000004,0.5,-2.4000000000000004,2.5,9.8,23.5,-21.6,4.4,16
923,15521.0,-0.9,-0.2,0.5,-2.5,2.7,9.8,10.8,-24.599999999999998,8.4,16
924,15538.0,-1.2000000000000002,-0.2,0.7000000000000001,-2.7,2.7,10.0,3.2,-26.1,9.700000000000001,16
925,15555.0,-1.3,-0.30000000000000004,1.2000000000000002,-2.7,2.6,10.600000000000001,-11.1,-27.3,12.9,16
926,15571.0,-1.6,-0.1,2.0,-2.9000000000000004,2.7,11.3,-16.1,-23.0,11.5,16
927,15588.0,-1.6,0.1,1.8,-2.9000000000000004,2.9000000000000004,11.200000000000001,-11.6,-22.5,10.9,16
928,15605.0,-1.4000000000000001,0.4,1.1,-2.7,3.2,10.5,-2.2,-21.400000000000002,11.4,16
929,15621.0,-1.1,0.2,0.9,-2.3000000000000003,3.0,10.3,-9.3,-10.600000000000001,12.7,16
930,15639.0,-1.0,0.2,1.1,-2.2,3.0,10.5,-17.5,-2.0,13.8,16
931,15656.0,-1.0,0.0,2.1,-2.3000000000000003,2.6,11.600000000000001,-39.0,22.6,16.1,16
932,15675.0,-2.0,-0.7000000000000001,2.1,-3.4000000000000004,1.8,11.600000000000001,-64.30000000000001,44.5,15.899999999999999,16
933,15693.0,-2.3000000000000003,-1.4000000000000001,2.7,-3.8000000000000003,0.8,12.3,-56.50000000000001,41.7,11.6,16
934,15705.0,-2.4000000000000004,-1.1,1.5,-4.0,1.1,11.100000000000001,-32.300000000000004,31.6,7.8,16
935,15721.0,-2.0,-0.1,-1.9000000000000001,-3.6,2.1,7.7,14.900000000000002,2.2,5.6,16
936,15739.0,-1.0,0.30000000000000004,-3.1,-2.6,2.6,6.5,9.4,-8.100000000000001,3.2,16
937,15757.0,-0.6000000000000001,0.2,-2.8000000000000003,-2.2,2.5,6.800000000000001,-5.8,-10.600000000000001,-0.7,16
938,15772.0,-0.5,-0.5,-1.5,-2.0,1.7000000000000002,8.0,-25.200000000000003,-4.7,0.1,16
939,15789.0,0.2,-0.6000000000000001,-1.2000000000000002,-1.4000000000000001,1.5,8.4,-17.5,0.0,8.8,16
940,15805.0,0.5,-0.30000000000000004,-1.4000000000000001,-1.1,1.8,8.1,-11.700000000000001,-0.30000000000000004,10.9,16
941,15822.0,0.6000000000000001,0.30000000000000004,-2.2,-0.9,2.4000000000000004,7.300000000000001,-11.700000000000001,13.100000000000001,13.3,16
942,15839.0,0.6000000000000001,0.6000000000000001,-3.1,-1.0,2.7,6.4,-18.0,24.0,15.100000000000001,16
943,15855.0,0.5,0.6000000000000001,-3.2,-1.1,2.6,6.300000000000001,-21.500000000000004,24.599999999999998,16.1,16
944,15871.0,0.30000000000000004,0.2,-2.5,-1.4000000000000001,2.1,6.9,-25.300000000000004,21.1,20.8,16
945,15888.0,0.6000000000000001,0.4,-2.5,-1.1,2.3000000000000003,6.9,-12.200000000000001,6.699999999999999,27.0,16
946,15905.0,0.9,0.6000000000000001,-2.4000000000000004,-0.8,2.5,7.0,-6.600000000000001,-2.0,29.500000000000004,16
947,15921.0,1.3,1.0,-1.7000000000000002,-0.4,2.9000000000000004,7.7,-8.600000000000001,0.30000000000000004,30.200000000000003,16
948,15938.0,1.5,1.4000000000000001,-1.5,-0.2,3.3000000000000003,8.0,-10.0,-0.9000000000000001,28.900000000000002,16
949,15955.0,1.6,1.5,-0.9,0.0,3.4000000000000004,8.5,-10.600000000000001,-4.7,28.400000000000002,16
950,15971.0,1.6,1.4000000000000001,0.2,0.0,3.2,9.700000000000001,-17.5,4.1,26.200000000000003,16
951,15988.0,1.0,1.4000000000000001,1.2000000000000002,-0.6000000000000001,3.2,10.700000000000001,-21.200000000000003,9.4,21.400000000000002,16
952,16005.0,0.7000000000000001,1.3,1.6,-0.9,3.1,11.100000000000001,-19.0,8.0,18.900000000000002,16
953,16021.0,0.1,1.2000000000000002,1.8,-1.5,3.0,11.3,-10.299999999999999,5.7,15.2,16
954,16038.0,0.2,1.2000000000000002,1.3,-1.4000000000000001,3.0,10.8,2.8,-5.0,10.299999999999999,16
955,16055.0,0.30000000000000004,1.3,1.0,-1.3,3.2,10.5,10.1,-13.000000000000002,6.4,16
956,16075.0,0.6000000000000001,1.6,1.1,-1.0,3.4000000000000004,10.600000000000001,18.5,-23.5,-0.7,16
957,16090.0,0.7000000000000001,1.4000000000000001,1.7000000000000002,-0.7000000000000001,3.3000000000000003,11.200000000000001,15.000000000000002,-28.0,-6.300000000000001,16
958,16105.0,0.7000000000000001,1.1,2.3000000000000003,-0.7000000000000001,3.1,11.8,13.3,-26.6,-8.5,16
959,16121.0,0.2,0.5,2.7,-1.1,2.5,12.3,16.200000000000003,-25.300000000000004,-10.0,16
960,16138.0,0.7000000000000001,0.4,2.4000000000000004,-0.5,2.5,12.0,27.3,-31.6,-7.500000000000001,16
961,16158.0,0.9,0.7000000000000001,1.9000000000000001,-0.2,2.9000000000000004,11.5,26.799999999999997,-26.6,-8.4,16
962,16171.0,1.1,0.7000000000000001,1.9000000000000001,0.0,2.9000000000000004,11.5,21.500000000000004,-22.8,-10.1,16
963,16188.0,0.7000000000000001,0.4,2.2,-0.4,2.7,11.8,5.6,-10.600000000000001,-16.3,16
964,16205.0,0.30000000000000004,0.0,2.8000000000000003,-0.7000000000000001,2.3000000000000003,12.5,-4.300000000000001,-0.2,-18.200000000000003,16
965,16221.0,-0.8,-1.2000000000000002,3.5,-1.8,1.0,13.100000000000001,-17.5,17.5,-18.700000000000003,16
966,16238.0,-0.7000000000000001,-1.5,1.6,-1.9000000000000001,0.7000000000000001,11.3,2.9,8.100000000000001,-17.0,16
967,16255.0,-0.30000000000000004,-1.3,0.30000000000000004,-1.4000000000000001,0.9,10.0,17.5,-1.3,-16.0,16
968,16271.0,0.4,-0.4,-2.1,-0.8,1.9000000000000001,7.5,29.500000000000004,-7.0,-18.8,16
969,16288.0,0.7000000000000001,-0.2,-2.4000000000000004,-0.4,2.1,7.2,6.600000000000001,-6.500000000000001,-25.4,16
970,16305.0,0.8,-0.30000000000000004,-1.7000000000000002,-0.6000000000000001,1.7000000000000002,8.5,-8.5,2.0,-28.900000000000002,16
971,16321.0,0.30000000000000004,-0.8,-0.6000000000000001,-1.0,1.4000000000000001,9.0,-25.5,20.5,-32.1,16
972,16338.0,-0.30000000000000004,-1.4000000000000001,0.6000000000000001,-1.6,0.7000000000000001,10.200000000000001,-24.1,24.0,-27.6,16
973,16355.0,-0.4,-1.4000000000000001,0.6000000000000001,-1.9000000000000001,0.8,9.8,-14.300000000000002,24.599999999999998,-24.0,16
974,16377.0,-0.7000000000000001,-0.7000000000000001,-1.1,-2.2,1.4000000000000001,8.5,15.299999999999999,21.500000000000004,-14.600000000000001,16
975,16389.0,-0.7000000000000001,-0.5,-1.7000000000000002,-2.3000000000000003,1.6,7.9,17.7,17.400000000000002,-13.700000000000001,16
976,16405.0,-0.5,-0.30000000000000004,-2.2,-2.1,1.8,7.4,18.0,5.300000000000001,-14.300000000000002,16
977,16422.0,-0.4,-0.30000000000000004,-2.2,-2.0,1.9000000000000001,7.300000000000001,18.3,-0.30000000000000004,-15.299999999999999,16
978,16438.0,-0.30000000000000004,-0.30000000000000004,-1.8,-1.9000000000000001,1.9000000000000001,7.7,18.1,-7.500000000000001,-16.8,16
979,16455.0,-0.2,-0.4,-1.5,-1.7000000000000002,1.9000000000000001,8.5,13.5,-6.4,-12.600000000000001,16
980,16471.0,0.0,-0.5,-0.6000000000000001,-1.6,1.8,8.9,11.8,-4.4,-10.299999999999999,16
981,16488.0,0.2,-0.4,-0.1,-1.4000000000000001,1.9000000000000001,9.4,13.900000000000002,-1.7,-6.500000000000001,16
982,16505.0,0.1,-0.30000000000000004,0.1,-1.5,2.0,9.5,19.9,0.0,-2.9,16
983,16521.0,0.1,-0.30000000000000004,0.1,-1.5,2.0,9.600000000000001,22.700000000000003,2.2,-0.7,16
984,16538.0,-0.1,-0.30000000000000004,0.1,-1.7000000000000002,2.2,9.5,25.5,5.6,2.6,16
985,16555.0,-0.30000000000000004,-0.30000000000000004,0.0,-2.0,2.2,9.4,26.000000000000004,3.4,6.300000000000001,16
986,16572.0,-0.4,-0.4,0.0,-2.1,2.2,9.4,26.5,0.8,8.3,16
987,16588.0,-0.5,-0.4,-0.2,-2.1,2.2,9.200000000000001,27.0,-2.6,10.200000000000001,16
988,16605.0,-0.2,-0.1,-0.8,-1.8,2.7,8.6,26.9,-18.0,15.6,16
989,16621.0,-0.1,0.0,-0.7000000000000001,-1.6,2.8000000000000003,8.6,22.8,-21.8,17.1,16
990,16638.0,0.0,0.0,-0.1,-1.4000000000000001,2.9000000000000004,9.200000000000001,9.100000000000001,-20.8,19.6,16
991,16655.0,-0.1,-0.2,0.4,-1.4000000000000001,2.7,9.8,-2.6,-19.1,22.2,16
992,16672.0,-0.1,-0.30000000000000004,0.7000000000000001,-1.4000000000000001,2.6,10.100000000000001,-6.1000000000000005,-18.1,24.400000000000002,16
993,16688.0,0.0,-0.30000000000000004,1.3,-1.2000000000000002,2.6,10.700000000000001,-10.0,-10.299999999999999,24.8,16
994,16705.0,-0.30000000000000004,0.0,1.3,-1.4000000000000001,2.9000000000000004,10.700000000000001,-6.0,-4.1,22.700000000000003,16
995,16721.0,-0.1,0.1,1.2000000000000002,-1.2000000000000002,3.0,10.600000000000001,-5.2,-2.2,22.9,16
996,16738.0,0.30000000000000004,0.1,1.3,-0.8,2.9000000000000004,10.700000000000001,-13.6,9.899999999999999,19.300000000000004,16
997,16755.0,-0.1,-0.1,1.6,-1.3,2.6,11.100000000000001,-27.400000000000002,25.200000000000003,14.900000000000002,16
998,16771.0,-0.30000000000000004,-0.30000000000000004,1.7000000000000002,-1.6,2.4000000000000004,11.200000000000001,-36.300000000000004,33.300000000000004,13.700000000000001,16
999,16789.0,-1.3,-1.0,2.7,-2.7,1.5,12.200000000000001,-59.5,54.4,10.299999999999999,16
1000,16805.0,-2.2,-1.5,2.9000000000000004,-3.8000000000000003,0.8,12.5,-51.70000000000001,57.1,4.5,16
1001,16821.0,-2.3000000000000003,-1.3,1.9000000000000001,-4.0,0.9,11.4,-28.3,42.3,1.1,16
1002,16838.0,-1.9000000000000001,-0.5,-1.3,-3.6,1.8,8.200000000000001,20.7,6.300000000000001,-3.8,16
1003,16855.0,-1.0,0.1,-3.1,-2.7,2.5,6.4,29.900000000000006,-9.600000000000001,-5.1000000000000005,16
1004,16871.0,-0.6000000000000001,0.2,-3.3000000000000003,-2.3000000000000003,2.6,6.2,19.300000000000004,-15.700000000000001,-7.9,16
1005,16888.0,-0.1,-0.2,-2.4000000000000004,-1.8,2.2,7.0,-9.899999999999999,-12.8,-7.400000000000001,16
1006,16905.0,0.6000000000000001,-0.6000000000000001,-1.5,-1.1,1.7000000000000002,8.0,-22.1,-1.1,-2.0,16
1007,16922.0,0.6000000000000001,-0.6000000000000001,-1.4000000000000001,-1.1,1.7000000000000002,8.1,-21.500000000000004,-0.6000000000000001,-0.7,16
1008,16938.0,0.6000000000000001,-0.5,-1.4000000000000001,-1.1,1.8,8.0,-20.8,7.200000000000001,3.9,16
1009,16956.0,0.6000000000000001,-0.2,-1.9000000000000001,-1.2000000000000002,1.9000000000000001,7.5,-19.200000000000003,17.400000000000002,8.899999999999999,16
1010,16971.0,0.5,-0.30000000000000004,-2.2,-1.3,1.9000000000000001,7.300000000000001,-17.400000000000002,17.9,10.8,16
1011,16989.0,0.8,-0.1,-2.6,-1.0,1.9000000000000001,6.800000000000001,-13.700000000000001,14.700000000000001,13.700000000000001,16
1012,17005.0,0.9,0.2,-2.9000000000000004,-0.9,2.2,6.6000000000000005,-9.600000000000001,10.1,13.100000000000001,16
1013,17022.0,1.0,0.30000000000000004,-2.8000000000000003,-0.8,2.4000000000000004,6.6000000000000005,-9.100000000000001,7.400000000000001,12.5,16
1014,17038.0,1.0,0.5,-2.4000000000000004,-0.8,2.5,7.0,-8.5,3.1,12.0,16
1015,17055.0,1.3,0.7000000000000001,-1.8,-0.5,2.7,7.6000000000000005,-11.8,-1.3,12.7,16
1016,17071.0,1.4000000000000001,0.8,-1.3,-0.4,2.8000000000000003,8.700000000000001,-15.299999999999999,-0.9000000000000001,13.000000000000002,16
1017,17089.0,1.3,1.0,-0.1,-0.4,2.9000000000000004,9.3,-23.800000000000004,5.1000000000000005,12.0,16
1018,17105.0,1.0,1.2000000000000002,0.8,-0.8,3.1,10.200000000000001,-25.5,7.1000000000000005,9.700000000000001,16
1019,17121.0,0.6000000000000001,1.2000000000000002,1.3,-1.6,3.0,11.100000000000001,-22.700000000000003,9.2,8.700000000000001,16
1020,17138.0,0.0,1.1,1.7000000000000002,-1.8,2.9000000000000004,11.100000000000001,-19.300000000000004,8.2,9.100000000000001,16
1021,17155.0,-0.1,1.1,1.9000000000000001,-1.9000000000000001,2.9000000000000004,11.3,-7.200000000000001,0.9000000000000001,7.500000000000001,16
1022,17173.0,-0.1,1.2000000000000002,1.8,-1.9000000000000001,3.2,11.200000000000001,9.2,-1.1,4.4,16
1023,17188.0,0.0,1.6,1.4000000000000001,-1.9000000000000001,3.5,10.8,16.8,-5.2,2.7,16
1024,17205.0,0.2,1.9000000000000001,1.5,-1.6,3.8000000000000003,11.0,18.8,-15.6,-2.6,16
1025,17221.0,-0.2,1.7000000000000002,2.2,-1.9000000000000001,3.6,11.700000000000001,7.400000000000001,-16.4,-8.8,16
1026,17275.0,-0.2,0.9,1.7000000000000002,-1.8,2.9000000000000004,11.200000000000001,15.2,-34.300000000000004,-9.100000000000001,16
1027,17350.0,0.0,-0.30000000000000004,3.1,-1.8,1.1,12.600000000000001,-20.900000000000002,-0.8,-23.400000000000002,16
1028,17358.0,-0.5,-0.7000000000000001,2.9000000000000004,-1.8,1.1,12.600000000000001,-18.900000000000002,8.0,-24.200000000000003,16
1029,17371.0,-0.7000000000000001,-1.0,1.3,-2.1,0.8,11.0,2.0,7.8,-22.700000000000003,16
1030,17388.0,-0.30000000000000004,-0.7000000000000001,-0.1,-1.7000000000000002,1.1,9.700000000000001,16.700000000000003,-0.8,-22.000000000000004,16
1031,17405.0,0.4,0.0,-2.0,-1.0,2.0,7.7,29.200000000000003,-13.6,-24.900000000000002,16
1032,17421.0,1.0,0.1,-1.8,-0.30000000000000004,2.1,7.9,9.4,-7.500000000000001,-29.1,16
1033,17438.0,1.2000000000000002,-0.1,-1.3,-0.2,1.9000000000000001,8.4,-1.5,3.0,-31.799999999999997,16
1034,17455.0,0.5,-0.5,0.30000000000000004,-0.9,1.4000000000000001,10.0,-7.1000000000000005,14.400000000000002,-34.50000000000001,16
1035,17472.0,0.2,-0.6000000000000001,0.6000000000000001,-1.3,1.3,10.3,4.7,11.5,-28.1,16
1036,17488.0,0.2,-0.6000000000000001,0.6000000000000001,-1.3,1.3,10.200000000000001,11.6,14.900000000000002,-24.400000000000002,16
1037,17505.0,-0.4,-0.5,-0.1,-2.0,1.5,9.5,16.8,32.1,-19.0,16
1038,17521.0,-0.9,-0.4,-1.3,-2.6,1.6,8.3,23.5,22.8,-14.800000000000002,16
1039,17538.0,-0.8,-0.4,-1.8,-2.5,1.6,7.7,29.300000000000004,10.700000000000001,-13.399999999999999,16
1040,17555.0,-0.5,-0.1,-2.9000000000000004,-2.3000000000000003,2.1,6.6000000000000005,37.6,-5.9,-12.8,16
1041,17572.0,-0.2,0.30000000000000004,-3.7,-1.9000000000000001,2.5,5.800000000000001,30.699999999999996,-19.6,-13.399999999999999,16
1042,17588.0,0.2,0.30000000000000004,-3.4000000000000004,-1.5,2.6,6.1000000000000005,21.200000000000003,-24.0,-13.6,16
1043,17605.0,0.5,-0.1,-2.0,-1.1,2.3000000000000003,7.4,1.3,-17.400000000000002,-13.5,16
1044,17621.0,0.30000000000000004,-0.5,-0.4,-1.3,1.8,9.1,-5.2,-12.0,-11.2,16
1045,17638.0,0.30000000000000004,-0.6000000000000001,-0.1,-1.3,1.7000000000000002,9.4,-1.1,-11.8,-8.600000000000001,16
1046,17655.0,0.4,-0.4,-0.1,-1.2000000000000002,1.9000000000000001,9.4,10.700000000000001,-4.1,-1.4,16
1047,17671.0,0.2,-0.4,0.1,-1.4000000000000001,1.9000000000000001,9.5,16.5,9.100000000000001,4.6,16
1048,17688.0,-0.2,-0.5,0.1,-1.8,1.9000000000000001,9.5,19.6,13.8,7.300000000000001,16
1049,17705.0,-0.4,-0.6000000000000001,-0.1,-2.0,1.8,9.3,26.9,7.8,13.200000000000003,16
1050,17722.0,-0.4,-0.6000000000000001,-0.30000000000000004,-2.0,1.9000000000000001,9.1,31.2,3.9,16.3,16
1051,17738.0,-0.5,-0.5,-0.30000000000000004,-2.1,2.1,9.0,30.9,2.8,17.400000000000002,16
1052,17755.0,-0.6000000000000001,-0.4,-0.30000000000000004,-2.2,2.3000000000000003,9.0,28.200000000000003,-6.1000000000000005,20.3,16
1053,17771.0,-0.30000000000000004,-0.4,-0.1,-1.9000000000000001,2.5,9.200000000000001,21.900000000000002,-16.700000000000003,21.7,16
1054,17789.0,-0.5,-0.4,0.30000000000000004,-2.0,2.4000000000000004,9.600000000000001,9.4,-15.5,20.900000000000002,16
1055,17805.0,-0.5,-0.5,0.6000000000000001,-2.0,2.4000000000000004,9.9,3.5,-14.300000000000002,21.0,16
1056,17822.0,-0.1,-0.4,0.8,-1.5,2.5,10.100000000000001,-0.4,-15.399999999999999,21.7,16
1057,17839.0,0.0,-0.30000000000000004,1.0,-1.2000000000000002,2.7,10.600000000000001,-7.8,-5.6,20.7,16
1058,17855.0,0.1,0.0,1.5,-1.2000000000000002,2.8000000000000003,10.9,-14.900000000000002,3.9,19.5,16
1059,17873.0,-0.2,0.0,2.3000000000000003,-1.6,2.7,11.700000000000001,-34.2,24.900000000000002,15.899999999999999,16
1060,17888.0,-0.7000000000000001,-0.1,2.7,-2.2,2.5,12.100000000000001,-45.400000000000006,35.9,14.600000000000001,16
1061,17905.0,-1.9000000000000001,-0.9,3.9000000000000004,-3.5,1.6,13.3,-72.2,57.00000000000001,15.399999999999999,16
1062,17921.0,-2.8000000000000003,-1.5,4.7,-4.6000000000000005,0.7000000000000001,14.200000000000001,-73.0,58.2,10.8,16
1063,17938.0,-3.0,-1.3,3.8000000000000003,-4.5,1.3,11.8,-18.0,12.100000000000001,5.8,16
1064,17955.0,-2.0,-0.30000000000000004,0.5,-3.9000000000000004,1.8,10.100000000000001,9.8,-5.0,4.0,16
1065,17971.0,-1.0,0.6000000000000001,-2.1,-2.9000000000000004,2.8000000000000003,7.5,24.1,-23.3,-4.300000000000001,16
1066,17989.0,-0.4,0.5,-1.9000000000000001,-2.1,2.8000000000000003,7.6000000000000005,-0.2,-34.900000000000006,-14.800000000000002,16
1067,18005.0,-0.5,0.2,-1.2000000000000002,-2.2,2.4000000000000004,8.3,-11.1,-30.5,-15.8,16
1068,18021.0,-0.30000000000000004,-0.5,0.1,-2.0,1.6,9.600000000000001,-21.7,-15.700000000000001,-7.1000000000000005,16
1069,18038.0,-0.2,-0.9,0.2,-1.8,1.2000000000000002,9.8,-16.900000000000002,-8.0,0.8,16
1070,18055.0,-0.30000000000000004,-0.8,-0.4,-1.9000000000000001,1.3,9.200000000000001,-11.3,-5.2,4.7,16
1071,18071.0,-0.1,-0.2,-1.9000000000000001,-1.7000000000000002,1.8,7.7,2.5,0.4,14.0,16
1072,18088.0,0.0,0.4,-3.5,-1.6,2.5,6.1000000000000005,11.4,-4.9,16.8,16
1073,18105.0,-0.1,0.5,-3.9000000000000004,-1.7000000000000002,2.6,5.6000000000000005,12.299999999999999,-7.6,18.0,16
1074,18122.0,0.30000000000000004,0.6000000000000001,-4.2,-1.2000000000000002,2.7,5.300000000000001,6.300000000000001,-13.8,20.8,16
1075,18138.0,0.8,0.30000000000000004,-3.7,-0.6000000000000001,2.5,5.800000000000001,-6.4,-17.200000000000003,20.2,16
1076,18155.0,0.8,0.2,-3.0,-0.6000000000000001,2.3000000000000003,6.5,-13.100000000000001,-14.700000000000001,20.400000000000002,16
1077,18172.0,0.9,0.2,-1.9000000000000001,-0.5,2.3000000000000003,7.6000000000000005,-18.900000000000002,-12.0,23.2,16
1078,18189.0,1.3,0.7000000000000001,-1.6,0.0,2.7,7.9,-13.6,-14.400000000000002,23.900000000000006,16
1079,18205.0,1.4000000000000001,1.0,-1.5,0.2,3.0,8.0,-12.9,-9.5,22.8,16
1080,18222.0,0.9,1.2000000000000002,-0.9,-0.30000000000000004,3.2,8.6,-20.7,8.4,19.1,16
1081,18238.0,0.4,0.9,0.30000000000000004,-0.9,2.8000000000000003,9.8,-23.3,16.6,15.5,16
1082,18255.0,0.1,0.8,0.8,-1.1,2.7,10.3,-18.5,17.200000000000003,14.0,16
1083,18272.0,-0.2,0.7000000000000001,1.2000000000000002,-1.5,2.6,10.700000000000001,-2.3,16.1,11.900000000000002,16
1084,18289.0,0.0,1.0,0.9,-1.4000000000000001,3.0,10.4,13.5,6.699999999999999,10.200000000000001,16
1085,18305.0,0.2,1.3,0.6000000000000001,-1.1,3.3000000000000003,10.200000000000001,18.8,1.2000000000000002,7.9,16
1086,18322.0,0.4,1.5,1.2000000000000002,-0.9,3.5,10.700000000000001,17.9,-2.6,-0.4,16
1087,18338.0,0.0,1.1,2.4000000000000004,-1.3,3.2,12.0,11.4,-0.30000000000000004,-10.0,16
1088,18355.0,-0.30000000000000004,0.8,2.9000000000000004,-1.6,2.9000000000000004,12.4,12.600000000000001,-1.7,-12.7,16
1089,18373.0,0.1,0.5,2.7,-1.2000000000000002,2.7,12.3,26.400000000000006,-15.399999999999999,-12.0,16
1090,18388.0,1.0,0.5,2.2,-0.2,2.8000000000000003,11.700000000000001,34.800000000000004,-24.8,-12.200000000000001,16
1091,18405.0,1.4000000000000001,0.6000000000000001,2.0,0.2,2.9000000000000004,11.600000000000001,30.4,-22.2,-13.5,16
1092,18421.0,1.8,0.6000000000000001,2.4000000000000004,0.6000000000000001,3.0,11.9,14.100000000000001,-12.200000000000001,-19.9,16
1093,18438.0,1.6,0.0,3.9000000000000004,0.5,2.4000000000000004,13.5,-9.700000000000001,14.100000000000001,-28.900000000000002,16
1094,18455.0,1.0,-0.5,4.7,-0.2,1.8,14.3,-23.2,36.5,-33.6,16
1095,18472.0,-0.9,-1.9000000000000001,4.6000000000000005,-2.4000000000000004,0.30000000000000004,14.200000000000001,-22.8,54.199999999999996,-37.0,16
1096,18488.0,-0.4,-2.2,1.9000000000000001,-2.0,0.0,11.5,16.3,28.700000000000003,-32.300000000000004,16
1097,18505.0,0.2,-1.8,0.1,-1.4000000000000001,0.4,9.700000000000001,34.60000000000001,15.100000000000001,-32.5,16
1098,18521.0,0.7000000000000001,-1.0,-2.3000000000000003,-1.0,1.3,7.2,43.300000000000004,0.5,-39.2,16
1099,18538.0,1.3,-0.6000000000000001,-3.1,-0.4,1.8,6.5,22.9,-17.5,-47.80000000000001,16
1100,18555.0,1.7000000000000002,-0.6000000000000001,-2.5,0.1,1.8,7.0,12.4,-25.8,-53.599999999999994,16
1101,18572.0,1.8,-1.0,-0.7000000000000001,0.1,1.4000000000000001,8.8,-3.4,-8.3,-62.1,16
1102,18588.0,1.2000000000000002,-1.2000000000000002,-0.1,-0.5,1.2000000000000002,9.4,-3.3000000000000007,6.500000000000001,-66.3,16
1103,18605.0,0.9,-1.3,-0.2,-1.0,0.9,9.0,10.0,7.699999999999999,-63.10000000000001,16
1104,18621.0,0.8,-1.3,-1.0,-1.0,1.0,8.5,15.2,13.100000000000001,-59.699999999999996,16
1105,18638.0,0.5,-0.9,-2.0,-1.4000000000000001,1.4000000000000001,7.5,21.7,19.1,-54.199999999999996,16
1106,18655.0,0.4,-0.8,-2.3000000000000003,-1.5,1.7000000000000002,7.0,22.700000000000003,11.4,-48.9,16
1107,18671.0,0.6000000000000001,-0.6000000000000001,-2.3000000000000003,-1.4000000000000001,1.7000000000000002,7.1000000000000005,21.500000000000004,7.8,-45.8,16
1108,18688.0,0.8,-0.6000000000000001,-1.6,-1.3,1.8,7.7,17.7,9.2,-40.1,16
1109,18705.0,0.5,-0.5,-0.9,-1.6,1.9000000000000001,8.4,14.600000000000001,11.3,-33.400000000000006,16
1110,18721.0,0.5,-0.5,-0.5,-1.7000000000000002,1.9000000000000001,8.8,11.5,10.0,-28.600000000000005,16
1111,18738.0,0.5,-0.8,0.6000000000000001,-1.7000000000000002,1.6,9.9,4.7,15.700000000000001,-19.799999999999997,16
1112,18755.0,0.5,-0.8,0.8,-2.0,1.8,10.100000000000001,5.8,20.1,-16.200000000000003,16
1113,18771.0,0.0,-0.6000000000000001,0.9,-2.3000000000000003,1.9000000000000001,10.100000000000001,14.300000000000002,15.5,-10.1,16
1114,18788.0,0.0,-0.4,0.2,-2.4000000000000004,2.1,9.4,20.599999999999998,2.7,-3.0,16
1115,18805.0,0.2,-0.2,-0.30000000000000004,-2.1,2.4000000000000004,8.9,19.300000000000004,-13.5,-0.8,16
1116,18821.0,0.2,-0.1,-0.30000000000000004,-2.1,2.5,8.9,15.399999999999999,-17.0,-1.1,16
1117,18839.0,0.0,-0.1,-0.1,-2.2,2.5,9.200000000000001,7.9,-25.1,-1.2000000000000002,16
1118,18855.0,0.2,-0.1,0.1,-1.9000000000000001,2.6,9.4,6.500000000000001,-40.1,-0.6000000000000001,16
1119,18871.0,0.30000000000000004,-0.1,0.30000000000000004,-1.7000000000000002,2.6,9.5,6.4,-44.00000000000001,0.30000000000000004,16
1120,18888.0,0.5,0.1,0.30000000000000004,-1.3,2.8000000000000003,9.600000000000001,5.0,-43.800000000000004,2.9,16
1121,18905.0,0.2,0.2,0.7000000000000001,-1.6,2.9000000000000004,10.0,0.2,-33.0,3.1,16
1122,18921.0,-0.1,0.1,1.1,-1.8,2.8000000000000003,10.4,-2.9,-25.900000000000002,4.0,16
1123,18939.0,-0.2,0.0,1.8,-1.8,2.6,11.100000000000001,-2.0,-12.5,7.300000000000001,16
1124,18955.0,-0.30000000000000004,0.1,1.4000000000000001,-1.9000000000000001,2.8000000000000003,10.8,11.6,-3.1,7.9,16
1125,18971.0,-0.30000000000000004,0.4,1.0,-1.9000000000000001,3.1,10.3,15.899999999999999,0.8,8.3,16
1126,18988.0,-0.2,0.7000000000000001,0.7000000000000001,-1.9000000000000001,3.5,10.100000000000001,5.4,13.000000000000002,6.9,16
